success,trial_type,trial_index,time_elapsed,internal_node_id,interactions,blur_events,focus_events,fullscreenenter_events,fullscreenexit_events,rt,stimulus,button_pressed,key_press,part,timestamp,unshuffled_button,correct_response,correct_button,correct,value,subject_id
TRUE,fullscreen,0,10055,0.0-0.0,"""event"",""trial"",""time""
""blur"",""0"",""0""
""focus"",""0"",""7762""
""fullscreenenter"",""0"",""9075""
","""event"",""trial"",""time""
""blur"",""0"",""0""
","""event"",""trial"",""time""
""focus"",""0"",""7762""
","""event"",""trial"",""time""
""fullscreenenter"",""0"",""9075""
","
",NA,NA,NA,NA,NA,NA,NA,NA,NA,NA,NA,sub100
NA,pavlovia,1,10068,0.0-1.0,"""event"",""trial"",""time""
""blur"",""0"",""0""
""focus"",""0"",""7762""
""fullscreenenter"",""0"",""9075""
","""event"",""trial"",""time""
""blur"",""0"",""0""
","""event"",""trial"",""time""
""focus"",""0"",""7762""
","""event"",""trial"",""time""
""fullscreenenter"",""0"",""9075""
","
",NA,NA,NA,NA,NA,NA,NA,NA,NA,NA,NA,sub100
NA,html-button-response,2,11421,0.0-2.0,"""event"",""trial"",""time""
""blur"",""0"",""0""
""focus"",""0"",""7762""
""fullscreenenter"",""0"",""9075""
""blur"",""3"",""30939""
""fullscreenexit"",""3"",""35171""
""focus"",""3"",""35179""
","""event"",""trial"",""time""
""blur"",""0"",""0""
""blur"",""3"",""30939""
","""event"",""trial"",""time""
""focus"",""0"",""7762""
""focus"",""3"",""35179""
","""event"",""trial"",""time""
""fullscreenenter"",""0"",""9075""
","""event"",""trial"",""time""
""fullscreenexit"",""3"",""35171""
",1348.5650000002352,<p>Welcome! Press START to begin.</p><br>,0,NA,NA,NA,NA,NA,NA,NA,NA,sub100
NA,audio-button-response,3,38633,0.0-3.0,"""event"",""trial"",""time""
""blur"",""0"",""0""
""focus"",""0"",""7762""
""fullscreenenter"",""0"",""9075""
""blur"",""3"",""30939""
""fullscreenexit"",""3"",""35171""
""focus"",""3"",""35179""
","""event"",""trial"",""time""
""blur"",""0"",""0""
""blur"",""3"",""30939""
","""event"",""trial"",""time""
""focus"",""0"",""7762""
""focus"",""3"",""35179""
","""event"",""trial"",""time""
""fullscreenenter"",""0"",""9075""
","""event"",""trial"",""time""
""fullscreenexit"",""3"",""35171""
",27200.890000000072,audio/mars_instructions_slide2.wav,0,NA,NA,NA,NA,NA,NA,NA,NA,sub100
NA,audio-button-response,4,45810,0.0-4.0,"""event"",""trial"",""time""
""blur"",""0"",""0""
""focus"",""0"",""7762""
""fullscreenenter"",""0"",""9075""
""blur"",""3"",""30939""
""fullscreenexit"",""3"",""35171""
""focus"",""3"",""35179""
","""event"",""trial"",""time""
""blur"",""0"",""0""
""blur"",""3"",""30939""
","""event"",""trial"",""time""
""focus"",""0"",""7762""
""focus"",""3"",""35179""
","""event"",""trial"",""time""
""fullscreenenter"",""0"",""9075""
","""event"",""trial"",""time""
""fullscreenexit"",""3"",""35171""
",7170.930000000226,audio/mars_instructions_slide3.wav,0,NA,NA,NA,NA,NA,NA,NA,NA,sub100
NA,html-keyboard-response,5,46319,0.0-5.0-0.0,"""event"",""trial"",""time""
""blur"",""0"",""0""
""focus"",""0"",""7762""
""fullscreenenter"",""0"",""9075""
""blur"",""3"",""30939""
""fullscreenexit"",""3"",""35171""
""focus"",""3"",""35179""
","""event"",""trial"",""time""
""blur"",""0"",""0""
""blur"",""3"",""30939""
","""event"",""trial"",""time""
""focus"",""0"",""7762""
""focus"",""3"",""35179""
","""event"",""trial"",""time""
""fullscreenenter"",""0"",""9075""
","""event"",""trial"",""time""
""fullscreenexit"",""3"",""35171""
",null,"<div style=""font-size:60px;"">+</div>",NA,null,fixation,2020-07-01T21:39:11Z,NA,NA,NA,NA,NA,sub100
NA,mars-trial,6,51941,0.0-5.0-1.0,"""event"",""trial"",""time""
""blur"",""0"",""0""
""focus"",""0"",""7762""
""fullscreenenter"",""0"",""9075""
""blur"",""3"",""30939""
""fullscreenexit"",""3"",""35171""
""focus"",""3"",""35179""
","""event"",""trial"",""time""
""blur"",""0"",""0""
""blur"",""3"",""30939""
","""event"",""trial"",""time""
""focus"",""0"",""7762""
""focus"",""3"",""35179""
","""event"",""trial"",""time""
""fullscreenenter"",""0"",""9075""
","""event"",""trial"",""time""
""fullscreenexit"",""3"",""35171""
",3499.869999999646,<img style='border: 4px solid darkgrey;' src='practice/pt1_M1.png'></img>,3,NA,practice,NA,2,<img src='practice/pt1_T1.png'></img>,0,FALSE,NA,sub100
NA,html-keyboard-response,7,52448,0.0-5.1-0.1,"""event"",""trial"",""time""
""blur"",""0"",""0""
""focus"",""0"",""7762""
""fullscreenenter"",""0"",""9075""
""blur"",""3"",""30939""
""fullscreenexit"",""3"",""35171""
""focus"",""3"",""35179""
","""event"",""trial"",""time""
""blur"",""0"",""0""
""blur"",""3"",""30939""
","""event"",""trial"",""time""
""focus"",""0"",""7762""
""focus"",""3"",""35179""
","""event"",""trial"",""time""
""fullscreenenter"",""0"",""9075""
","""event"",""trial"",""time""
""fullscreenexit"",""3"",""35171""
",null,"<div style=""font-size:60px;"">+</div>",NA,null,fixation,2020-07-01T21:39:17Z,NA,NA,NA,NA,NA,sub100
NA,mars-trial,8,55705,0.0-5.1-1.1,"""event"",""trial"",""time""
""blur"",""0"",""0""
""focus"",""0"",""7762""
""fullscreenenter"",""0"",""9075""
""blur"",""3"",""30939""
""fullscreenexit"",""3"",""35171""
""focus"",""3"",""35179""
","""event"",""trial"",""time""
""blur"",""0"",""0""
""blur"",""3"",""30939""
","""event"",""trial"",""time""
""focus"",""0"",""7762""
""focus"",""3"",""35179""
","""event"",""trial"",""time""
""fullscreenenter"",""0"",""9075""
","""event"",""trial"",""time""
""fullscreenexit"",""3"",""35171""
",1146.7850000008184,<img style='border: 4px solid darkgrey;' src='practice/pt1_M1.png'></img>,2,NA,practice,NA,3,<img src='practice/pt1_T1.png'></img>,0,FALSE,NA,sub100
NA,html-keyboard-response,9,56209,0.0-5.2-0.2,"""event"",""trial"",""time""
""blur"",""0"",""0""
""focus"",""0"",""7762""
""fullscreenenter"",""0"",""9075""
""blur"",""3"",""30939""
""fullscreenexit"",""3"",""35171""
""focus"",""3"",""35179""
","""event"",""trial"",""time""
""blur"",""0"",""0""
""blur"",""3"",""30939""
","""event"",""trial"",""time""
""focus"",""0"",""7762""
""focus"",""3"",""35179""
","""event"",""trial"",""time""
""fullscreenenter"",""0"",""9075""
","""event"",""trial"",""time""
""fullscreenexit"",""3"",""35171""
",null,"<div style=""font-size:60px;"">+</div>",NA,null,fixation,2020-07-01T21:39:21Z,NA,NA,NA,NA,NA,sub100
NA,mars-trial,10,59198,0.0-5.2-1.2,"""event"",""trial"",""time""
""blur"",""0"",""0""
""focus"",""0"",""7762""
""fullscreenenter"",""0"",""9075""
""blur"",""3"",""30939""
""fullscreenexit"",""3"",""35171""
""focus"",""3"",""35179""
","""event"",""trial"",""time""
""blur"",""0"",""0""
""blur"",""3"",""30939""
","""event"",""trial"",""time""
""focus"",""0"",""7762""
""focus"",""3"",""35179""
","""event"",""trial"",""time""
""fullscreenenter"",""0"",""9075""
","""event"",""trial"",""time""
""fullscreenexit"",""3"",""35171""
",873.7750000000233,<img style='border: 4px solid darkgrey;' src='practice/pt1_M1.png'></img>,0,NA,practice,NA,2,<img src='practice/pt1_T1.png'></img>,0,FALSE,NA,sub100
NA,html-keyboard-response,11,59701,0.0-5.3-0.3,"""event"",""trial"",""time""
""blur"",""0"",""0""
""focus"",""0"",""7762""
""fullscreenenter"",""0"",""9075""
""blur"",""3"",""30939""
""fullscreenexit"",""3"",""35171""
""focus"",""3"",""35179""
","""event"",""trial"",""time""
""blur"",""0"",""0""
""blur"",""3"",""30939""
","""event"",""trial"",""time""
""focus"",""0"",""7762""
""focus"",""3"",""35179""
","""event"",""trial"",""time""
""fullscreenenter"",""0"",""9075""
","""event"",""trial"",""time""
""fullscreenexit"",""3"",""35171""
",null,"<div style=""font-size:60px;"">+</div>",NA,null,fixation,2020-07-01T21:39:24Z,NA,NA,NA,NA,NA,sub100
NA,mars-trial,12,62723,0.0-5.3-1.3,"""event"",""trial"",""time""
""blur"",""0"",""0""
""focus"",""0"",""7762""
""fullscreenenter"",""0"",""9075""
""blur"",""3"",""30939""
""fullscreenexit"",""3"",""35171""
""focus"",""3"",""35179""
","""event"",""trial"",""time""
""blur"",""0"",""0""
""blur"",""3"",""30939""
","""event"",""trial"",""time""
""focus"",""0"",""7762""
""focus"",""3"",""35179""
","""event"",""trial"",""time""
""fullscreenenter"",""0"",""9075""
","""event"",""trial"",""time""
""fullscreenexit"",""3"",""35171""
",906.634999999369,<img style='border: 4px solid darkgrey;' src='practice/pt1_M1.png'></img>,3,NA,practice,NA,1,<img src='practice/pt1_T1.png'></img>,0,FALSE,NA,sub100
NA,html-keyboard-response,13,63226,0.0-5.4-0.4,"""event"",""trial"",""time""
""blur"",""0"",""0""
""focus"",""0"",""7762""
""fullscreenenter"",""0"",""9075""
""blur"",""3"",""30939""
""fullscreenexit"",""3"",""35171""
""focus"",""3"",""35179""
","""event"",""trial"",""time""
""blur"",""0"",""0""
""blur"",""3"",""30939""
","""event"",""trial"",""time""
""focus"",""0"",""7762""
""focus"",""3"",""35179""
","""event"",""trial"",""time""
""fullscreenenter"",""0"",""9075""
","""event"",""trial"",""time""
""fullscreenexit"",""3"",""35171""
",null,"<div style=""font-size:60px;"">+</div>",NA,null,fixation,2020-07-01T21:39:28Z,NA,NA,NA,NA,NA,sub100
NA,mars-trial,14,67605,0.0-5.4-1.4,"""event"",""trial"",""time""
""blur"",""0"",""0""
""focus"",""0"",""7762""
""fullscreenenter"",""0"",""9075""
""blur"",""3"",""30939""
""fullscreenexit"",""3"",""35171""
""focus"",""3"",""35179""
","""event"",""trial"",""time""
""blur"",""0"",""0""
""blur"",""3"",""30939""
","""event"",""trial"",""time""
""focus"",""0"",""7762""
""focus"",""3"",""35179""
","""event"",""trial"",""time""
""fullscreenenter"",""0"",""9075""
","""event"",""trial"",""time""
""fullscreenexit"",""3"",""35171""
",2262.5200000002224,<img style='border: 4px solid darkgrey;' src='practice/pt1_M1.png'></img>,3,NA,practice,NA,0,<img src='practice/pt1_T1.png'></img>,0,TRUE,NA,sub100
NA,html-keyboard-response,15,68113,0.0-6.0-0.0,"""event"",""trial"",""time""
""blur"",""0"",""0""
""focus"",""0"",""7762""
""fullscreenenter"",""0"",""9075""
""blur"",""3"",""30939""
""fullscreenexit"",""3"",""35171""
""focus"",""3"",""35179""
","""event"",""trial"",""time""
""blur"",""0"",""0""
""blur"",""3"",""30939""
","""event"",""trial"",""time""
""focus"",""0"",""7762""
""focus"",""3"",""35179""
","""event"",""trial"",""time""
""fullscreenenter"",""0"",""9075""
","""event"",""trial"",""time""
""fullscreenexit"",""3"",""35171""
",null,"<div style=""font-size:60px;"">+</div>",NA,null,fixation,2020-07-01T21:39:33Z,NA,NA,NA,NA,NA,sub100
NA,mars-trial,16,73372,0.0-6.0-1.0,"""event"",""trial"",""time""
""blur"",""0"",""0""
""focus"",""0"",""7762""
""fullscreenenter"",""0"",""9075""
""blur"",""3"",""30939""
""fullscreenexit"",""3"",""35171""
""focus"",""3"",""35179""
","""event"",""trial"",""time""
""blur"",""0"",""0""
""blur"",""3"",""30939""
","""event"",""trial"",""time""
""focus"",""0"",""7762""
""focus"",""3"",""35179""
","""event"",""trial"",""time""
""fullscreenenter"",""0"",""9075""
","""event"",""trial"",""time""
""fullscreenexit"",""3"",""35171""
",3137.0650000008027,<img style='border: 4px solid darkgrey;' src='practice/pt2_M1.png'></img>,1,NA,practice,NA,0,<img src='practice/pt2_T1.png'></img>,0,TRUE,NA,sub100
NA,html-keyboard-response,17,73881,0.0-7.0-0.0,"""event"",""trial"",""time""
""blur"",""0"",""0""
""focus"",""0"",""7762""
""fullscreenenter"",""0"",""9075""
""blur"",""3"",""30939""
""fullscreenexit"",""3"",""35171""
""focus"",""3"",""35179""
","""event"",""trial"",""time""
""blur"",""0"",""0""
""blur"",""3"",""30939""
","""event"",""trial"",""time""
""focus"",""0"",""7762""
""focus"",""3"",""35179""
","""event"",""trial"",""time""
""fullscreenenter"",""0"",""9075""
","""event"",""trial"",""time""
""fullscreenexit"",""3"",""35171""
",null,"<div style=""font-size:60px;"">+</div>",NA,null,fixation,2020-07-01T21:39:39Z,NA,NA,NA,NA,NA,sub100
NA,mars-trial,18,78195,0.0-7.0-1.0,"""event"",""trial"",""time""
""blur"",""0"",""0""
""focus"",""0"",""7762""
""fullscreenenter"",""0"",""9075""
""blur"",""3"",""30939""
""fullscreenexit"",""3"",""35171""
""focus"",""3"",""35179""
","""event"",""trial"",""time""
""blur"",""0"",""0""
""blur"",""3"",""30939""
","""event"",""trial"",""time""
""focus"",""0"",""7762""
""focus"",""3"",""35179""
","""event"",""trial"",""time""
""fullscreenenter"",""0"",""9075""
","""event"",""trial"",""time""
""fullscreenexit"",""3"",""35171""
",2193.859999999404,<img style='border: 4px solid darkgrey;' src='practice/pt3_M1.png'></img>,0,NA,practice,NA,0,<img src='practice/pt3_T1.png'></img>,0,TRUE,NA,sub100
NA,audio-button-response,19,79873,0.0-8.0,"""event"",""trial"",""time""
""blur"",""0"",""0""
""focus"",""0"",""7762""
""fullscreenenter"",""0"",""9075""
""blur"",""3"",""30939""
""fullscreenexit"",""3"",""35171""
""focus"",""3"",""35179""
","""event"",""trial"",""time""
""blur"",""0"",""0""
""blur"",""3"",""30939""
","""event"",""trial"",""time""
""focus"",""0"",""7762""
""focus"",""3"",""35179""
","""event"",""trial"",""time""
""fullscreenenter"",""0"",""9075""
","""event"",""trial"",""time""
""fullscreenexit"",""3"",""35171""
",1669.8699999997189,audio/mars_instructions_slide4.wav,0,NA,NA,NA,NA,NA,NA,NA,NA,sub100
NA,call-function,20,79876,0.0-9.0,"""event"",""trial"",""time""
""blur"",""0"",""0""
""focus"",""0"",""7762""
""fullscreenenter"",""0"",""9075""
""blur"",""3"",""30939""
""fullscreenexit"",""3"",""35171""
""focus"",""3"",""35179""
","""event"",""trial"",""time""
""blur"",""0"",""0""
""blur"",""3"",""30939""
","""event"",""trial"",""time""
""focus"",""0"",""7762""
""focus"",""3"",""35179""
","""event"",""trial"",""time""
""fullscreenenter"",""0"",""9075""
","""event"",""trial"",""time""
""fullscreenexit"",""3"",""35171""
",NA,NA,NA,NA,NA,NA,NA,NA,NA,NA,NA,sub100
NA,html-keyboard-response,21,80378,0.0-10.0-0.0,"""event"",""trial"",""time""
""blur"",""0"",""0""
""focus"",""0"",""7762""
""fullscreenenter"",""0"",""9075""
""blur"",""3"",""30939""
""fullscreenexit"",""3"",""35171""
""focus"",""3"",""35179""
","""event"",""trial"",""time""
""blur"",""0"",""0""
""blur"",""3"",""30939""
","""event"",""trial"",""time""
""focus"",""0"",""7762""
""focus"",""3"",""35179""
","""event"",""trial"",""time""
""fullscreenenter"",""0"",""9075""
","""event"",""trial"",""time""
""fullscreenexit"",""3"",""35171""
",null,"<div style=""font-size:60px;"">+</div>",NA,null,fixation,2020-07-01T21:39:45Z,NA,NA,NA,NA,NA,sub100
NA,mars-trial,22,82748,0.0-10.0-1.0,"""event"",""trial"",""time""
""blur"",""0"",""0""
""focus"",""0"",""7762""
""fullscreenenter"",""0"",""9075""
""blur"",""3"",""30939""
""fullscreenexit"",""3"",""35171""
""focus"",""3"",""35179""
","""event"",""trial"",""time""
""blur"",""0"",""0""
""blur"",""3"",""30939""
","""event"",""trial"",""time""
""focus"",""0"",""7762""
""focus"",""3"",""35179""
","""event"",""trial"",""time""
""fullscreenenter"",""0"",""9075""
","""event"",""trial"",""time""
""fullscreenexit"",""3"",""35171""
",1753.4149999992223,<img style='border: 4px solid darkgrey;' src='img/tf1_1_M_ss3.jpeg'></img>,2,NA,exp,NA,0,<img src='img/tf1_1_T1_ss3_md.jpeg'></img>,0,TRUE,NA,sub100
NA,html-keyboard-response,23,83251,0.0-10.0-0.1,"""event"",""trial"",""time""
""blur"",""0"",""0""
""focus"",""0"",""7762""
""fullscreenenter"",""0"",""9075""
""blur"",""3"",""30939""
""fullscreenexit"",""3"",""35171""
""focus"",""3"",""35179""
","""event"",""trial"",""time""
""blur"",""0"",""0""
""blur"",""3"",""30939""
","""event"",""trial"",""time""
""focus"",""0"",""7762""
""focus"",""3"",""35179""
","""event"",""trial"",""time""
""fullscreenenter"",""0"",""9075""
","""event"",""trial"",""time""
""fullscreenexit"",""3"",""35171""
",null,"<div style=""font-size:60px;"">+</div>",NA,null,fixation,2020-07-01T21:39:48Z,NA,NA,NA,NA,NA,sub100
NA,mars-trial,24,86559,0.0-10.0-1.1,"""event"",""trial"",""time""
""blur"",""0"",""0""
""focus"",""0"",""7762""
""fullscreenenter"",""0"",""9075""
""blur"",""3"",""30939""
""fullscreenexit"",""3"",""35171""
""focus"",""3"",""35179""
","""event"",""trial"",""time""
""blur"",""0"",""0""
""blur"",""3"",""30939""
","""event"",""trial"",""time""
""focus"",""0"",""7762""
""focus"",""3"",""35179""
","""event"",""trial"",""time""
""fullscreenenter"",""0"",""9075""
","""event"",""trial"",""time""
""fullscreenexit"",""3"",""35171""
",2693.3499999995547,<img style='border: 4px solid darkgrey;' src='img/tf1_2_M_ss1.jpeg'></img>,3,NA,exp,NA,0,<img src='img/tf1_2_T1_ss1_md.jpeg'></img>,0,TRUE,NA,sub100
NA,html-keyboard-response,25,87062,0.0-10.0-0.2,"""event"",""trial"",""time""
""blur"",""0"",""0""
""focus"",""0"",""7762""
""fullscreenenter"",""0"",""9075""
""blur"",""3"",""30939""
""fullscreenexit"",""3"",""35171""
""focus"",""3"",""35179""
","""event"",""trial"",""time""
""blur"",""0"",""0""
""blur"",""3"",""30939""
","""event"",""trial"",""time""
""focus"",""0"",""7762""
""focus"",""3"",""35179""
","""event"",""trial"",""time""
""fullscreenenter"",""0"",""9075""
","""event"",""trial"",""time""
""fullscreenexit"",""3"",""35171""
",null,"<div style=""font-size:60px;"">+</div>",NA,null,fixation,2020-07-01T21:39:52Z,NA,NA,NA,NA,NA,sub100
NA,mars-trial,26,89319,0.0-10.0-1.2,"""event"",""trial"",""time""
""blur"",""0"",""0""
""focus"",""0"",""7762""
""fullscreenenter"",""0"",""9075""
""blur"",""3"",""30939""
""fullscreenexit"",""3"",""35171""
""focus"",""3"",""35179""
","""event"",""trial"",""time""
""blur"",""0"",""0""
""blur"",""3"",""30939""
","""event"",""trial"",""time""
""focus"",""0"",""7762""
""focus"",""3"",""35179""
","""event"",""trial"",""time""
""fullscreenenter"",""0"",""9075""
","""event"",""trial"",""time""
""fullscreenexit"",""3"",""35171""
",1643.8250000010157,<img style='border: 4px solid darkgrey;' src='img/tf1_3_M_ss2.jpeg'></img>,2,NA,exp,NA,0,<img src='img/tf1_3_T1_ss2_md.jpeg'></img>,0,TRUE,NA,sub100
NA,html-keyboard-response,27,89823,0.0-10.0-0.3,"""event"",""trial"",""time""
""blur"",""0"",""0""
""focus"",""0"",""7762""
""fullscreenenter"",""0"",""9075""
""blur"",""3"",""30939""
""fullscreenexit"",""3"",""35171""
""focus"",""3"",""35179""
","""event"",""trial"",""time""
""blur"",""0"",""0""
""blur"",""3"",""30939""
","""event"",""trial"",""time""
""focus"",""0"",""7762""
""focus"",""3"",""35179""
","""event"",""trial"",""time""
""fullscreenenter"",""0"",""9075""
","""event"",""trial"",""time""
""fullscreenexit"",""3"",""35171""
",null,"<div style=""font-size:60px;"">+</div>",NA,null,fixation,2020-07-01T21:39:55Z,NA,NA,NA,NA,NA,sub100
NA,mars-trial,28,92838,0.0-10.0-1.3,"""event"",""trial"",""time""
""blur"",""0"",""0""
""focus"",""0"",""7762""
""fullscreenenter"",""0"",""9075""
""blur"",""3"",""30939""
""fullscreenexit"",""3"",""35171""
""focus"",""3"",""35179""
","""event"",""trial"",""time""
""blur"",""0"",""0""
""blur"",""3"",""30939""
","""event"",""trial"",""time""
""focus"",""0"",""7762""
""focus"",""3"",""35179""
","""event"",""trial"",""time""
""fullscreenenter"",""0"",""9075""
","""event"",""trial"",""time""
""fullscreenexit"",""3"",""35171""
",2401.319999999032,<img style='border: 4px solid darkgrey;' src='img/tf1_4_M_ss3.jpeg'></img>,3,NA,exp,NA,3,<img src='img/tf1_4_T1_ss3_md.jpeg'></img>,0,FALSE,NA,sub100
NA,html-keyboard-response,29,93343,0.0-10.0-0.4,"""event"",""trial"",""time""
""blur"",""0"",""0""
""focus"",""0"",""7762""
""fullscreenenter"",""0"",""9075""
""blur"",""3"",""30939""
""fullscreenexit"",""3"",""35171""
""focus"",""3"",""35179""
","""event"",""trial"",""time""
""blur"",""0"",""0""
""blur"",""3"",""30939""
","""event"",""trial"",""time""
""focus"",""0"",""7762""
""focus"",""3"",""35179""
","""event"",""trial"",""time""
""fullscreenenter"",""0"",""9075""
","""event"",""trial"",""time""
""fullscreenexit"",""3"",""35171""
",null,"<div style=""font-size:60px;"">+</div>",NA,null,fixation,2020-07-01T21:39:58Z,NA,NA,NA,NA,NA,sub100
NA,mars-trial,30,96560,0.0-10.0-1.4,"""event"",""trial"",""time""
""blur"",""0"",""0""
""focus"",""0"",""7762""
""fullscreenenter"",""0"",""9075""
""blur"",""3"",""30939""
""fullscreenexit"",""3"",""35171""
""focus"",""3"",""35179""
","""event"",""trial"",""time""
""blur"",""0"",""0""
""blur"",""3"",""30939""
","""event"",""trial"",""time""
""focus"",""0"",""7762""
""focus"",""3"",""35179""
","""event"",""trial"",""time""
""fullscreenenter"",""0"",""9075""
","""event"",""trial"",""time""
""fullscreenexit"",""3"",""35171""
",2605.6450000014593,<img style='border: 4px solid darkgrey;' src='img/tf1_5_M_ss1.jpeg'></img>,2,NA,exp,NA,0,<img src='img/tf1_5_T1_ss1_md.jpeg'></img>,0,TRUE,NA,sub100
NA,html-keyboard-response,31,97063,0.0-10.0-0.5,"""event"",""trial"",""time""
""blur"",""0"",""0""
""focus"",""0"",""7762""
""fullscreenenter"",""0"",""9075""
""blur"",""3"",""30939""
""fullscreenexit"",""3"",""35171""
""focus"",""3"",""35179""
","""event"",""trial"",""time""
""blur"",""0"",""0""
""blur"",""3"",""30939""
","""event"",""trial"",""time""
""focus"",""0"",""7762""
""focus"",""3"",""35179""
","""event"",""trial"",""time""
""fullscreenenter"",""0"",""9075""
","""event"",""trial"",""time""
""fullscreenexit"",""3"",""35171""
",null,"<div style=""font-size:60px;"">+</div>",NA,null,fixation,2020-07-01T21:40:02Z,NA,NA,NA,NA,NA,sub100
NA,mars-trial,32,99950,0.0-10.0-1.5,"""event"",""trial"",""time""
""blur"",""0"",""0""
""focus"",""0"",""7762""
""fullscreenenter"",""0"",""9075""
""blur"",""3"",""30939""
""fullscreenexit"",""3"",""35171""
""focus"",""3"",""35179""
","""event"",""trial"",""time""
""blur"",""0"",""0""
""blur"",""3"",""30939""
","""event"",""trial"",""time""
""focus"",""0"",""7762""
""focus"",""3"",""35179""
","""event"",""trial"",""time""
""fullscreenenter"",""0"",""9075""
","""event"",""trial"",""time""
""fullscreenexit"",""3"",""35171""
",2271.87000000049,<img style='border: 4px solid darkgrey;' src='img/tf1_6_M_ss2.jpeg'></img>,1,NA,exp,NA,3,<img src='img/tf1_6_T1_ss2_md.jpeg'></img>,0,FALSE,NA,sub100
NA,html-keyboard-response,33,100454,0.0-10.0-0.6,"""event"",""trial"",""time""
""blur"",""0"",""0""
""focus"",""0"",""7762""
""fullscreenenter"",""0"",""9075""
""blur"",""3"",""30939""
""fullscreenexit"",""3"",""35171""
""focus"",""3"",""35179""
","""event"",""trial"",""time""
""blur"",""0"",""0""
""blur"",""3"",""30939""
","""event"",""trial"",""time""
""focus"",""0"",""7762""
""focus"",""3"",""35179""
","""event"",""trial"",""time""
""fullscreenenter"",""0"",""9075""
","""event"",""trial"",""time""
""fullscreenexit"",""3"",""35171""
",null,"<div style=""font-size:60px;"">+</div>",NA,null,fixation,2020-07-01T21:40:05Z,NA,NA,NA,NA,NA,sub100
NA,mars-trial,34,103095,0.0-10.0-1.6,"""event"",""trial"",""time""
""blur"",""0"",""0""
""focus"",""0"",""7762""
""fullscreenenter"",""0"",""9075""
""blur"",""3"",""30939""
""fullscreenexit"",""3"",""35171""
""focus"",""3"",""35179""
","""event"",""trial"",""time""
""blur"",""0"",""0""
""blur"",""3"",""30939""
","""event"",""trial"",""time""
""focus"",""0"",""7762""
""focus"",""3"",""35179""
","""event"",""trial"",""time""
""fullscreenenter"",""0"",""9075""
","""event"",""trial"",""time""
""fullscreenexit"",""3"",""35171""
",2026.9900000002963,<img style='border: 4px solid darkgrey;' src='img/tf1_7_M_ss3.jpeg'></img>,1,NA,exp,NA,0,<img src='img/tf1_7_T1_ss3_md.jpeg'></img>,0,TRUE,NA,sub100
NA,html-keyboard-response,35,103600,0.0-10.0-0.7,"""event"",""trial"",""time""
""blur"",""0"",""0""
""focus"",""0"",""7762""
""fullscreenenter"",""0"",""9075""
""blur"",""3"",""30939""
""fullscreenexit"",""3"",""35171""
""focus"",""3"",""35179""
","""event"",""trial"",""time""
""blur"",""0"",""0""
""blur"",""3"",""30939""
","""event"",""trial"",""time""
""focus"",""0"",""7762""
""focus"",""3"",""35179""
","""event"",""trial"",""time""
""fullscreenenter"",""0"",""9075""
","""event"",""trial"",""time""
""fullscreenexit"",""3"",""35171""
",null,"<div style=""font-size:60px;"">+</div>",NA,null,fixation,2020-07-01T21:40:08Z,NA,NA,NA,NA,NA,sub100
NA,mars-trial,36,106026,0.0-10.0-1.7,"""event"",""trial"",""time""
""blur"",""0"",""0""
""focus"",""0"",""7762""
""fullscreenenter"",""0"",""9075""
""blur"",""3"",""30939""
""fullscreenexit"",""3"",""35171""
""focus"",""3"",""35179""
","""event"",""trial"",""time""
""blur"",""0"",""0""
""blur"",""3"",""30939""
","""event"",""trial"",""time""
""focus"",""0"",""7762""
""focus"",""3"",""35179""
","""event"",""trial"",""time""
""fullscreenenter"",""0"",""9075""
","""event"",""trial"",""time""
""fullscreenexit"",""3"",""35171""
",1816.3100000001577,<img style='border: 4px solid darkgrey;' src='img/tf1_8_M_ss1.jpeg'></img>,1,NA,exp,NA,0,<img src='img/tf1_8_T1_ss1_md.jpeg'></img>,0,TRUE,NA,sub100
NA,html-keyboard-response,37,106530,0.0-10.0-0.8,"""event"",""trial"",""time""
""blur"",""0"",""0""
""focus"",""0"",""7762""
""fullscreenenter"",""0"",""9075""
""blur"",""3"",""30939""
""fullscreenexit"",""3"",""35171""
""focus"",""3"",""35179""
","""event"",""trial"",""time""
""blur"",""0"",""0""
""blur"",""3"",""30939""
","""event"",""trial"",""time""
""focus"",""0"",""7762""
""focus"",""3"",""35179""
","""event"",""trial"",""time""
""fullscreenenter"",""0"",""9075""
","""event"",""trial"",""time""
""fullscreenexit"",""3"",""35171""
",null,"<div style=""font-size:60px;"">+</div>",NA,null,fixation,2020-07-01T21:40:11Z,NA,NA,NA,NA,NA,sub100
NA,mars-trial,38,108211,0.0-10.0-1.8,"""event"",""trial"",""time""
""blur"",""0"",""0""
""focus"",""0"",""7762""
""fullscreenenter"",""0"",""9075""
""blur"",""3"",""30939""
""fullscreenexit"",""3"",""35171""
""focus"",""3"",""35179""
","""event"",""trial"",""time""
""blur"",""0"",""0""
""blur"",""3"",""30939""
","""event"",""trial"",""time""
""focus"",""0"",""7762""
""focus"",""3"",""35179""
","""event"",""trial"",""time""
""fullscreenenter"",""0"",""9075""
","""event"",""trial"",""time""
""fullscreenexit"",""3"",""35171""
",1070.7099999999627,<img style='border: 4px solid darkgrey;' src='img/tf1_9_M_ss2.jpeg'></img>,1,NA,exp,NA,2,<img src='img/tf1_9_T1_ss2_md.jpeg'></img>,0,FALSE,NA,sub100
NA,html-keyboard-response,39,108715,0.0-10.0-0.9,"""event"",""trial"",""time""
""blur"",""0"",""0""
""focus"",""0"",""7762""
""fullscreenenter"",""0"",""9075""
""blur"",""3"",""30939""
""fullscreenexit"",""3"",""35171""
""focus"",""3"",""35179""
","""event"",""trial"",""time""
""blur"",""0"",""0""
""blur"",""3"",""30939""
","""event"",""trial"",""time""
""focus"",""0"",""7762""
""focus"",""3"",""35179""
","""event"",""trial"",""time""
""fullscreenenter"",""0"",""9075""
","""event"",""trial"",""time""
""fullscreenexit"",""3"",""35171""
",null,"<div style=""font-size:60px;"">+</div>",NA,null,fixation,2020-07-01T21:40:13Z,NA,NA,NA,NA,NA,sub100
NA,mars-trial,40,109791,0.0-10.0-1.9,"""event"",""trial"",""time""
""blur"",""0"",""0""
""focus"",""0"",""7762""
""fullscreenenter"",""0"",""9075""
""blur"",""3"",""30939""
""fullscreenexit"",""3"",""35171""
""focus"",""3"",""35179""
","""event"",""trial"",""time""
""blur"",""0"",""0""
""blur"",""3"",""30939""
","""event"",""trial"",""time""
""focus"",""0"",""7762""
""focus"",""3"",""35179""
","""event"",""trial"",""time""
""fullscreenenter"",""0"",""9075""
","""event"",""trial"",""time""
""fullscreenexit"",""3"",""35171""
",461.8000000009488,<img style='border: 4px solid darkgrey;' src='img/tf1_10_M_ss3.jpeg'></img>,1,NA,exp,NA,0,<img src='img/tf1_10_T1_ss3_md.jpeg'></img>,0,TRUE,NA,sub100
NA,html-keyboard-response,41,110295,0.0-10.0-0.10,"""event"",""trial"",""time""
""blur"",""0"",""0""
""focus"",""0"",""7762""
""fullscreenenter"",""0"",""9075""
""blur"",""3"",""30939""
""fullscreenexit"",""3"",""35171""
""focus"",""3"",""35179""
","""event"",""trial"",""time""
""blur"",""0"",""0""
""blur"",""3"",""30939""
","""event"",""trial"",""time""
""focus"",""0"",""7762""
""focus"",""3"",""35179""
","""event"",""trial"",""time""
""fullscreenenter"",""0"",""9075""
","""event"",""trial"",""time""
""fullscreenexit"",""3"",""35171""
",null,"<div style=""font-size:60px;"">+</div>",NA,null,fixation,2020-07-01T21:40:15Z,NA,NA,NA,NA,NA,sub100
NA,mars-trial,42,111384,0.0-10.0-1.10,"""event"",""trial"",""time""
""blur"",""0"",""0""
""focus"",""0"",""7762""
""fullscreenenter"",""0"",""9075""
""blur"",""3"",""30939""
""fullscreenexit"",""3"",""35171""
""focus"",""3"",""35179""
","""event"",""trial"",""time""
""blur"",""0"",""0""
""blur"",""3"",""30939""
","""event"",""trial"",""time""
""focus"",""0"",""7762""
""focus"",""3"",""35179""
","""event"",""trial"",""time""
""fullscreenenter"",""0"",""9075""
","""event"",""trial"",""time""
""fullscreenexit"",""3"",""35171""
",474.2000000005646,<img style='border: 4px solid darkgrey;' src='img/tf1_11_M_ss1.jpeg'></img>,1,NA,exp,NA,3,<img src='img/tf1_11_T1_ss1_md.jpeg'></img>,0,FALSE,NA,sub100
NA,html-keyboard-response,43,111887,0.0-10.0-0.11,"""event"",""trial"",""time""
""blur"",""0"",""0""
""focus"",""0"",""7762""
""fullscreenenter"",""0"",""9075""
""blur"",""3"",""30939""
""fullscreenexit"",""3"",""35171""
""focus"",""3"",""35179""
","""event"",""trial"",""time""
""blur"",""0"",""0""
""blur"",""3"",""30939""
","""event"",""trial"",""time""
""focus"",""0"",""7762""
""focus"",""3"",""35179""
","""event"",""trial"",""time""
""fullscreenenter"",""0"",""9075""
","""event"",""trial"",""time""
""fullscreenexit"",""3"",""35171""
",null,"<div style=""font-size:60px;"">+</div>",NA,null,fixation,2020-07-01T21:40:17Z,NA,NA,NA,NA,NA,sub100
NA,mars-trial,44,112809,0.0-10.0-1.11,"""event"",""trial"",""time""
""blur"",""0"",""0""
""focus"",""0"",""7762""
""fullscreenenter"",""0"",""9075""
""blur"",""3"",""30939""
""fullscreenexit"",""3"",""35171""
""focus"",""3"",""35179""
","""event"",""trial"",""time""
""blur"",""0"",""0""
""blur"",""3"",""30939""
","""event"",""trial"",""time""
""focus"",""0"",""7762""
""focus"",""3"",""35179""
","""event"",""trial"",""time""
""fullscreenenter"",""0"",""9075""
","""event"",""trial"",""time""
""fullscreenexit"",""3"",""35171""
",305.34500000067055,<img style='border: 4px solid darkgrey;' src='img/tf1_12_M_ss2.jpeg'></img>,1,NA,exp,NA,1,<img src='img/tf1_12_T1_ss2_md.jpeg'></img>,0,FALSE,NA,sub100
NA,html-keyboard-response,45,113314,0.0-10.0-0.12,"""event"",""trial"",""time""
""blur"",""0"",""0""
""focus"",""0"",""7762""
""fullscreenenter"",""0"",""9075""
""blur"",""3"",""30939""
""fullscreenexit"",""3"",""35171""
""focus"",""3"",""35179""
","""event"",""trial"",""time""
""blur"",""0"",""0""
""blur"",""3"",""30939""
","""event"",""trial"",""time""
""focus"",""0"",""7762""
""focus"",""3"",""35179""
","""event"",""trial"",""time""
""fullscreenenter"",""0"",""9075""
","""event"",""trial"",""time""
""fullscreenexit"",""3"",""35171""
",null,"<div style=""font-size:60px;"">+</div>",NA,null,fixation,2020-07-01T21:40:18Z,NA,NA,NA,NA,NA,sub100
NA,mars-trial,46,114429,0.0-10.0-1.12,"""event"",""trial"",""time""
""blur"",""0"",""0""
""focus"",""0"",""7762""
""fullscreenenter"",""0"",""9075""
""blur"",""3"",""30939""
""fullscreenexit"",""3"",""35171""
""focus"",""3"",""35179""
","""event"",""trial"",""time""
""blur"",""0"",""0""
""blur"",""3"",""30939""
","""event"",""trial"",""time""
""focus"",""0"",""7762""
""focus"",""3"",""35179""
","""event"",""trial"",""time""
""fullscreenenter"",""0"",""9075""
","""event"",""trial"",""time""
""fullscreenexit"",""3"",""35171""
",494.7749999992084,<img style='border: 4px solid darkgrey;' src='img/tf1_13_M_ss3.jpeg'></img>,1,NA,exp,NA,3,<img src='img/tf1_13_T1_ss3_md.jpeg'></img>,0,FALSE,NA,sub100
NA,html-keyboard-response,47,114933,0.0-10.0-0.13,"""event"",""trial"",""time""
""blur"",""0"",""0""
""focus"",""0"",""7762""
""fullscreenenter"",""0"",""9075""
""blur"",""3"",""30939""
""fullscreenexit"",""3"",""35171""
""focus"",""3"",""35179""
","""event"",""trial"",""time""
""blur"",""0"",""0""
""blur"",""3"",""30939""
","""event"",""trial"",""time""
""focus"",""0"",""7762""
""focus"",""3"",""35179""
","""event"",""trial"",""time""
""fullscreenenter"",""0"",""9075""
","""event"",""trial"",""time""
""fullscreenexit"",""3"",""35171""
",null,"<div style=""font-size:60px;"">+</div>",NA,null,fixation,2020-07-01T21:40:20Z,NA,NA,NA,NA,NA,sub100
NA,mars-trial,48,115863,0.0-10.0-1.13,"""event"",""trial"",""time""
""blur"",""0"",""0""
""focus"",""0"",""7762""
""fullscreenenter"",""0"",""9075""
""blur"",""3"",""30939""
""fullscreenexit"",""3"",""35171""
""focus"",""3"",""35179""
","""event"",""trial"",""time""
""blur"",""0"",""0""
""blur"",""3"",""30939""
","""event"",""trial"",""time""
""focus"",""0"",""7762""
""focus"",""3"",""35179""
","""event"",""trial"",""time""
""fullscreenenter"",""0"",""9075""
","""event"",""trial"",""time""
""fullscreenexit"",""3"",""35171""
",312.9850000004808,<img style='border: 4px solid darkgrey;' src='img/tf1_14_M_ss1.jpeg'></img>,1,NA,exp,NA,3,<img src='img/tf1_14_T1_ss1_md.jpeg'></img>,0,FALSE,NA,sub100
NA,html-keyboard-response,49,116371,0.0-10.0-0.14,"""event"",""trial"",""time""
""blur"",""0"",""0""
""focus"",""0"",""7762""
""fullscreenenter"",""0"",""9075""
""blur"",""3"",""30939""
""fullscreenexit"",""3"",""35171""
""focus"",""3"",""35179""
","""event"",""trial"",""time""
""blur"",""0"",""0""
""blur"",""3"",""30939""
","""event"",""trial"",""time""
""focus"",""0"",""7762""
""focus"",""3"",""35179""
","""event"",""trial"",""time""
""fullscreenenter"",""0"",""9075""
","""event"",""trial"",""time""
""fullscreenexit"",""3"",""35171""
",null,"<div style=""font-size:60px;"">+</div>",NA,null,fixation,2020-07-01T21:40:21Z,NA,NA,NA,NA,NA,sub100
NA,mars-trial,50,117342,0.0-10.0-1.14,"""event"",""trial"",""time""
""blur"",""0"",""0""
""focus"",""0"",""7762""
""fullscreenenter"",""0"",""9075""
""blur"",""3"",""30939""
""fullscreenexit"",""3"",""35171""
""focus"",""3"",""35179""
","""event"",""trial"",""time""
""blur"",""0"",""0""
""blur"",""3"",""30939""
","""event"",""trial"",""time""
""focus"",""0"",""7762""
""focus"",""3"",""35179""
","""event"",""trial"",""time""
""fullscreenenter"",""0"",""9075""
","""event"",""trial"",""time""
""fullscreenexit"",""3"",""35171""
",356.13999999986845,<img style='border: 4px solid darkgrey;' src='img/tf1_15_M_ss2.jpeg'></img>,1,NA,exp,NA,3,<img src='img/tf1_15_T1_ss2_md.jpeg'></img>,0,FALSE,NA,sub100
NA,html-keyboard-response,51,117846,0.0-10.0-0.15,"""event"",""trial"",""time""
""blur"",""0"",""0""
""focus"",""0"",""7762""
""fullscreenenter"",""0"",""9075""
""blur"",""3"",""30939""
""fullscreenexit"",""3"",""35171""
""focus"",""3"",""35179""
","""event"",""trial"",""time""
""blur"",""0"",""0""
""blur"",""3"",""30939""
","""event"",""trial"",""time""
""focus"",""0"",""7762""
""focus"",""3"",""35179""
","""event"",""trial"",""time""
""fullscreenenter"",""0"",""9075""
","""event"",""trial"",""time""
""fullscreenexit"",""3"",""35171""
",null,"<div style=""font-size:60px;"">+</div>",NA,null,fixation,2020-07-01T21:40:23Z,NA,NA,NA,NA,NA,sub100
NA,mars-trial,52,118984,0.0-10.0-1.15,"""event"",""trial"",""time""
""blur"",""0"",""0""
""focus"",""0"",""7762""
""fullscreenenter"",""0"",""9075""
""blur"",""3"",""30939""
""fullscreenexit"",""3"",""35171""
""focus"",""3"",""35179""
","""event"",""trial"",""time""
""blur"",""0"",""0""
""blur"",""3"",""30939""
","""event"",""trial"",""time""
""focus"",""0"",""7762""
""focus"",""3"",""35179""
","""event"",""trial"",""time""
""fullscreenenter"",""0"",""9075""
","""event"",""trial"",""time""
""fullscreenexit"",""3"",""35171""
",520.715000000564,<img style='border: 4px solid darkgrey;' src='img/tf1_16_M_ss3.jpeg'></img>,1,NA,exp,NA,0,<img src='img/tf1_16_T1_ss3_md.jpeg'></img>,0,TRUE,NA,sub100
NA,html-keyboard-response,53,119490,0.0-10.0-0.16,"""event"",""trial"",""time""
""blur"",""0"",""0""
""focus"",""0"",""7762""
""fullscreenenter"",""0"",""9075""
""blur"",""3"",""30939""
""fullscreenexit"",""3"",""35171""
""focus"",""3"",""35179""
","""event"",""trial"",""time""
""blur"",""0"",""0""
""blur"",""3"",""30939""
","""event"",""trial"",""time""
""focus"",""0"",""7762""
""focus"",""3"",""35179""
","""event"",""trial"",""time""
""fullscreenenter"",""0"",""9075""
","""event"",""trial"",""time""
""fullscreenexit"",""3"",""35171""
",null,"<div style=""font-size:60px;"">+</div>",NA,null,fixation,2020-07-01T21:40:24Z,NA,NA,NA,NA,NA,sub100
NA,mars-trial,54,120559,0.0-10.0-1.16,"""event"",""trial"",""time""
""blur"",""0"",""0""
""focus"",""0"",""7762""
""fullscreenenter"",""0"",""9075""
""blur"",""3"",""30939""
""fullscreenexit"",""3"",""35171""
""focus"",""3"",""35179""
","""event"",""trial"",""time""
""blur"",""0"",""0""
""blur"",""3"",""30939""
","""event"",""trial"",""time""
""focus"",""0"",""7762""
""focus"",""3"",""35179""
","""event"",""trial"",""time""
""fullscreenenter"",""0"",""9075""
","""event"",""trial"",""time""
""fullscreenexit"",""3"",""35171""
",459.0299999999843,<img style='border: 4px solid darkgrey;' src='img/tf1_17_M_ss1.jpeg'></img>,1,NA,exp,NA,2,<img src='img/tf1_17_T1_ss1_md.jpeg'></img>,0,FALSE,NA,sub100
NA,html-keyboard-response,55,121064,0.0-10.0-0.17,"""event"",""trial"",""time""
""blur"",""0"",""0""
""focus"",""0"",""7762""
""fullscreenenter"",""0"",""9075""
""blur"",""3"",""30939""
""fullscreenexit"",""3"",""35171""
""focus"",""3"",""35179""
","""event"",""trial"",""time""
""blur"",""0"",""0""
""blur"",""3"",""30939""
","""event"",""trial"",""time""
""focus"",""0"",""7762""
""focus"",""3"",""35179""
","""event"",""trial"",""time""
""fullscreenenter"",""0"",""9075""
","""event"",""trial"",""time""
""fullscreenexit"",""3"",""35171""
",null,"<div style=""font-size:60px;"">+</div>",NA,null,fixation,2020-07-01T21:40:26Z,NA,NA,NA,NA,NA,sub100
NA,mars-trial,56,122482,0.0-10.0-1.17,"""event"",""trial"",""time""
""blur"",""0"",""0""
""focus"",""0"",""7762""
""fullscreenenter"",""0"",""9075""
""blur"",""3"",""30939""
""fullscreenexit"",""3"",""35171""
""focus"",""3"",""35179""
","""event"",""trial"",""time""
""blur"",""0"",""0""
""blur"",""3"",""30939""
","""event"",""trial"",""time""
""focus"",""0"",""7762""
""focus"",""3"",""35179""
","""event"",""trial"",""time""
""fullscreenenter"",""0"",""9075""
","""event"",""trial"",""time""
""fullscreenexit"",""3"",""35171""
",809.3600000011065,<img style='border: 4px solid darkgrey;' src='img/tf1_18_M_ss2.jpeg'></img>,2,NA,exp,NA,2,<img src='img/tf1_18_T1_ss2_md.jpeg'></img>,0,FALSE,NA,sub100
NA,html-keyboard-response,57,122987,0.0-10.0-0.18,"""event"",""trial"",""time""
""blur"",""0"",""0""
""focus"",""0"",""7762""
""fullscreenenter"",""0"",""9075""
""blur"",""3"",""30939""
""fullscreenexit"",""3"",""35171""
""focus"",""3"",""35179""
","""event"",""trial"",""time""
""blur"",""0"",""0""
""blur"",""3"",""30939""
","""event"",""trial"",""time""
""focus"",""0"",""7762""
""focus"",""3"",""35179""
","""event"",""trial"",""time""
""fullscreenenter"",""0"",""9075""
","""event"",""trial"",""time""
""fullscreenexit"",""3"",""35171""
",null,"<div style=""font-size:60px;"">+</div>",NA,null,fixation,2020-07-01T21:40:28Z,NA,NA,NA,NA,NA,sub100
NA,mars-trial,58,124450,0.0-10.0-1.18,"""event"",""trial"",""time""
""blur"",""0"",""0""
""focus"",""0"",""7762""
""fullscreenenter"",""0"",""9075""
""blur"",""3"",""30939""
""fullscreenexit"",""3"",""35171""
""focus"",""3"",""35179""
","""event"",""trial"",""time""
""blur"",""0"",""0""
""blur"",""3"",""30939""
","""event"",""trial"",""time""
""focus"",""0"",""7762""
""focus"",""3"",""35179""
","""event"",""trial"",""time""
""fullscreenenter"",""0"",""9075""
","""event"",""trial"",""time""
""fullscreenexit"",""3"",""35171""
",850.9099999992031,<img style='border: 4px solid darkgrey;' src='img/tf1_19_M_ss3.jpeg'></img>,1,NA,exp,NA,0,<img src='img/tf1_19_T1_ss3_md.jpeg'></img>,0,TRUE,NA,sub100
NA,html-keyboard-response,59,124953,0.0-10.0-0.19,"""event"",""trial"",""time""
""blur"",""0"",""0""
""focus"",""0"",""7762""
""fullscreenenter"",""0"",""9075""
""blur"",""3"",""30939""
""fullscreenexit"",""3"",""35171""
""focus"",""3"",""35179""
","""event"",""trial"",""time""
""blur"",""0"",""0""
""blur"",""3"",""30939""
","""event"",""trial"",""time""
""focus"",""0"",""7762""
""focus"",""3"",""35179""
","""event"",""trial"",""time""
""fullscreenenter"",""0"",""9075""
","""event"",""trial"",""time""
""fullscreenexit"",""3"",""35171""
",null,"<div style=""font-size:60px;"">+</div>",NA,null,fixation,2020-07-01T21:40:30Z,NA,NA,NA,NA,NA,sub100
NA,mars-trial,60,126265,0.0-10.0-1.19,"""event"",""trial"",""time""
""blur"",""0"",""0""
""focus"",""0"",""7762""
""fullscreenenter"",""0"",""9075""
""blur"",""3"",""30939""
""fullscreenexit"",""3"",""35171""
""focus"",""3"",""35179""
","""event"",""trial"",""time""
""blur"",""0"",""0""
""blur"",""3"",""30939""
","""event"",""trial"",""time""
""focus"",""0"",""7762""
""focus"",""3"",""35179""
","""event"",""trial"",""time""
""fullscreenenter"",""0"",""9075""
","""event"",""trial"",""time""
""fullscreenexit"",""3"",""35171""
",699.7649999993882,<img style='border: 4px solid darkgrey;' src='img/tf1_20_M_ss1.jpeg'></img>,2,NA,exp,NA,3,<img src='img/tf1_20_T1_ss1_md.jpeg'></img>,0,FALSE,NA,sub100
NA,html-keyboard-response,61,126768,0.0-10.0-0.20,"""event"",""trial"",""time""
""blur"",""0"",""0""
""focus"",""0"",""7762""
""fullscreenenter"",""0"",""9075""
""blur"",""3"",""30939""
""fullscreenexit"",""3"",""35171""
""focus"",""3"",""35179""
","""event"",""trial"",""time""
""blur"",""0"",""0""
""blur"",""3"",""30939""
","""event"",""trial"",""time""
""focus"",""0"",""7762""
""focus"",""3"",""35179""
","""event"",""trial"",""time""
""fullscreenenter"",""0"",""9075""
","""event"",""trial"",""time""
""fullscreenexit"",""3"",""35171""
",null,"<div style=""font-size:60px;"">+</div>",NA,null,fixation,2020-07-01T21:40:32Z,NA,NA,NA,NA,NA,sub100
NA,mars-trial,62,127808,0.0-10.0-1.20,"""event"",""trial"",""time""
""blur"",""0"",""0""
""focus"",""0"",""7762""
""fullscreenenter"",""0"",""9075""
""blur"",""3"",""30939""
""fullscreenexit"",""3"",""35171""
""focus"",""3"",""35179""
","""event"",""trial"",""time""
""blur"",""0"",""0""
""blur"",""3"",""30939""
","""event"",""trial"",""time""
""focus"",""0"",""7762""
""focus"",""3"",""35179""
","""event"",""trial"",""time""
""fullscreenenter"",""0"",""9075""
","""event"",""trial"",""time""
""fullscreenexit"",""3"",""35171""
",427.9650000007532,<img style='border: 4px solid darkgrey;' src='img/tf1_21_M_ss2.jpeg'></img>,1,NA,exp,NA,0,<img src='img/tf1_21_T1_ss2_md.jpeg'></img>,0,TRUE,NA,sub100
NA,html-keyboard-response,63,128310,0.0-10.0-0.21,"""event"",""trial"",""time""
""blur"",""0"",""0""
""focus"",""0"",""7762""
""fullscreenenter"",""0"",""9075""
""blur"",""3"",""30939""
""fullscreenexit"",""3"",""35171""
""focus"",""3"",""35179""
","""event"",""trial"",""time""
""blur"",""0"",""0""
""blur"",""3"",""30939""
","""event"",""trial"",""time""
""focus"",""0"",""7762""
""focus"",""3"",""35179""
","""event"",""trial"",""time""
""fullscreenenter"",""0"",""9075""
","""event"",""trial"",""time""
""fullscreenexit"",""3"",""35171""
",null,"<div style=""font-size:60px;"">+</div>",NA,null,fixation,2020-07-01T21:40:33Z,NA,NA,NA,NA,NA,sub100
NA,mars-trial,64,129378,0.0-10.0-1.21,"""event"",""trial"",""time""
""blur"",""0"",""0""
""focus"",""0"",""7762""
""fullscreenenter"",""0"",""9075""
""blur"",""3"",""30939""
""fullscreenexit"",""3"",""35171""
""focus"",""3"",""35179""
","""event"",""trial"",""time""
""blur"",""0"",""0""
""blur"",""3"",""30939""
","""event"",""trial"",""time""
""focus"",""0"",""7762""
""focus"",""3"",""35179""
","""event"",""trial"",""time""
""fullscreenenter"",""0"",""9075""
","""event"",""trial"",""time""
""fullscreenexit"",""3"",""35171""
",455.68499999897904,<img style='border: 4px solid darkgrey;' src='img/tf1_22_M_ss3.jpeg'></img>,2,NA,exp,NA,2,<img src='img/tf1_22_T1_ss3_md.jpeg'></img>,0,FALSE,NA,sub100
NA,html-keyboard-response,65,129881,0.0-10.0-0.22,"""event"",""trial"",""time""
""blur"",""0"",""0""
""focus"",""0"",""7762""
""fullscreenenter"",""0"",""9075""
""blur"",""3"",""30939""
""fullscreenexit"",""3"",""35171""
""focus"",""3"",""35179""
","""event"",""trial"",""time""
""blur"",""0"",""0""
""blur"",""3"",""30939""
","""event"",""trial"",""time""
""focus"",""0"",""7762""
""focus"",""3"",""35179""
","""event"",""trial"",""time""
""fullscreenenter"",""0"",""9075""
","""event"",""trial"",""time""
""fullscreenexit"",""3"",""35171""
",null,"<div style=""font-size:60px;"">+</div>",NA,null,fixation,2020-07-01T21:40:35Z,NA,NA,NA,NA,NA,sub100
NA,mars-trial,66,131030,0.0-10.0-1.22,"""event"",""trial"",""time""
""blur"",""0"",""0""
""focus"",""0"",""7762""
""fullscreenenter"",""0"",""9075""
""blur"",""3"",""30939""
""fullscreenexit"",""3"",""35171""
""focus"",""3"",""35179""
","""event"",""trial"",""time""
""blur"",""0"",""0""
""blur"",""3"",""30939""
","""event"",""trial"",""time""
""focus"",""0"",""7762""
""focus"",""3"",""35179""
","""event"",""trial"",""time""
""fullscreenenter"",""0"",""9075""
","""event"",""trial"",""time""
""fullscreenexit"",""3"",""35171""
",539.8100000002305,<img style='border: 4px solid darkgrey;' src='img/tf1_23_M_ss1.jpeg'></img>,1,NA,exp,NA,3,<img src='img/tf1_23_T1_ss1_md.jpeg'></img>,0,FALSE,NA,sub100
NA,html-keyboard-response,67,131533,0.0-10.0-0.23,"""event"",""trial"",""time""
""blur"",""0"",""0""
""focus"",""0"",""7762""
""fullscreenenter"",""0"",""9075""
""blur"",""3"",""30939""
""fullscreenexit"",""3"",""35171""
""focus"",""3"",""35179""
","""event"",""trial"",""time""
""blur"",""0"",""0""
""blur"",""3"",""30939""
","""event"",""trial"",""time""
""focus"",""0"",""7762""
""focus"",""3"",""35179""
","""event"",""trial"",""time""
""fullscreenenter"",""0"",""9075""
","""event"",""trial"",""time""
""fullscreenexit"",""3"",""35171""
",null,"<div style=""font-size:60px;"">+</div>",NA,null,fixation,2020-07-01T21:40:36Z,NA,NA,NA,NA,NA,sub100
NA,mars-trial,68,132551,0.0-10.0-1.23,"""event"",""trial"",""time""
""blur"",""0"",""0""
""focus"",""0"",""7762""
""fullscreenenter"",""0"",""9075""
""blur"",""3"",""30939""
""fullscreenexit"",""3"",""35171""
""focus"",""3"",""35179""
","""event"",""trial"",""time""
""blur"",""0"",""0""
""blur"",""3"",""30939""
","""event"",""trial"",""time""
""focus"",""0"",""7762""
""focus"",""3"",""35179""
","""event"",""trial"",""time""
""fullscreenenter"",""0"",""9075""
","""event"",""trial"",""time""
""fullscreenexit"",""3"",""35171""
",408.7349999990547,<img style='border: 4px solid darkgrey;' src='img/tf1_24_M_ss2.jpeg'></img>,2,NA,exp,NA,1,<img src='img/tf1_24_T1_ss2_md.jpeg'></img>,0,FALSE,NA,sub100
NA,html-keyboard-response,69,133053,0.0-10.0-0.24,"""event"",""trial"",""time""
""blur"",""0"",""0""
""focus"",""0"",""7762""
""fullscreenenter"",""0"",""9075""
""blur"",""3"",""30939""
""fullscreenexit"",""3"",""35171""
""focus"",""3"",""35179""
","""event"",""trial"",""time""
""blur"",""0"",""0""
""blur"",""3"",""30939""
","""event"",""trial"",""time""
""focus"",""0"",""7762""
""focus"",""3"",""35179""
","""event"",""trial"",""time""
""fullscreenenter"",""0"",""9075""
","""event"",""trial"",""time""
""fullscreenexit"",""3"",""35171""
",null,"<div style=""font-size:60px;"">+</div>",NA,null,fixation,2020-07-01T21:40:38Z,NA,NA,NA,NA,NA,sub100
NA,mars-trial,70,134165,0.0-10.0-1.24,"""event"",""trial"",""time""
""blur"",""0"",""0""
""focus"",""0"",""7762""
""fullscreenenter"",""0"",""9075""
""blur"",""3"",""30939""
""fullscreenexit"",""3"",""35171""
""focus"",""3"",""35179""
","""event"",""trial"",""time""
""blur"",""0"",""0""
""blur"",""3"",""30939""
","""event"",""trial"",""time""
""focus"",""0"",""7762""
""focus"",""3"",""35179""
","""event"",""trial"",""time""
""fullscreenenter"",""0"",""9075""
","""event"",""trial"",""time""
""fullscreenexit"",""3"",""35171""
",499.78000000008615,<img style='border: 4px solid darkgrey;' src='img/tf1_25_M_ss3.jpeg'></img>,1,NA,exp,NA,0,<img src='img/tf1_25_T1_ss3_md.jpeg'></img>,0,TRUE,NA,sub100
NA,html-keyboard-response,71,134669,0.0-10.0-0.25,"""event"",""trial"",""time""
""blur"",""0"",""0""
""focus"",""0"",""7762""
""fullscreenenter"",""0"",""9075""
""blur"",""3"",""30939""
""fullscreenexit"",""3"",""35171""
""focus"",""3"",""35179""
","""event"",""trial"",""time""
""blur"",""0"",""0""
""blur"",""3"",""30939""
","""event"",""trial"",""time""
""focus"",""0"",""7762""
""focus"",""3"",""35179""
","""event"",""trial"",""time""
""fullscreenenter"",""0"",""9075""
","""event"",""trial"",""time""
""fullscreenexit"",""3"",""35171""
",null,"<div style=""font-size:60px;"">+</div>",NA,null,fixation,2020-07-01T21:40:39Z,NA,NA,NA,NA,NA,sub100
NA,mars-trial,72,135781,0.0-10.0-1.25,"""event"",""trial"",""time""
""blur"",""0"",""0""
""focus"",""0"",""7762""
""fullscreenenter"",""0"",""9075""
""blur"",""3"",""30939""
""fullscreenexit"",""3"",""35171""
""focus"",""3"",""35179""
","""event"",""trial"",""time""
""blur"",""0"",""0""
""blur"",""3"",""30939""
","""event"",""trial"",""time""
""focus"",""0"",""7762""
""focus"",""3"",""35179""
","""event"",""trial"",""time""
""fullscreenenter"",""0"",""9075""
","""event"",""trial"",""time""
""fullscreenexit"",""3"",""35171""
",502.34999999887077,<img style='border: 4px solid darkgrey;' src='img/tf1_26_M_ss1.jpeg'></img>,2,NA,exp,NA,1,<img src='img/tf1_26_T1_ss1_md.jpeg'></img>,0,FALSE,NA,sub100
NA,html-keyboard-response,73,136284,0.0-10.0-0.26,"""event"",""trial"",""time""
""blur"",""0"",""0""
""focus"",""0"",""7762""
""fullscreenenter"",""0"",""9075""
""blur"",""3"",""30939""
""fullscreenexit"",""3"",""35171""
""focus"",""3"",""35179""
","""event"",""trial"",""time""
""blur"",""0"",""0""
""blur"",""3"",""30939""
","""event"",""trial"",""time""
""focus"",""0"",""7762""
""focus"",""3"",""35179""
","""event"",""trial"",""time""
""fullscreenenter"",""0"",""9075""
","""event"",""trial"",""time""
""fullscreenexit"",""3"",""35171""
",null,"<div style=""font-size:60px;"">+</div>",NA,null,fixation,2020-07-01T21:40:41Z,NA,NA,NA,NA,NA,sub100
NA,mars-trial,74,137428,0.0-10.0-1.26,"""event"",""trial"",""time""
""blur"",""0"",""0""
""focus"",""0"",""7762""
""fullscreenenter"",""0"",""9075""
""blur"",""3"",""30939""
""fullscreenexit"",""3"",""35171""
""focus"",""3"",""35179""
","""event"",""trial"",""time""
""blur"",""0"",""0""
""blur"",""3"",""30939""
","""event"",""trial"",""time""
""focus"",""0"",""7762""
""focus"",""3"",""35179""
","""event"",""trial"",""time""
""fullscreenenter"",""0"",""9075""
","""event"",""trial"",""time""
""fullscreenexit"",""3"",""35171""
",534.5899999992689,<img style='border: 4px solid darkgrey;' src='img/tf1_27_M_ss2.jpeg'></img>,1,NA,exp,NA,0,<img src='img/tf1_27_T1_ss2_md.jpeg'></img>,0,TRUE,NA,sub100
NA,html-keyboard-response,75,137931,0.0-10.0-0.27,"""event"",""trial"",""time""
""blur"",""0"",""0""
""focus"",""0"",""7762""
""fullscreenenter"",""0"",""9075""
""blur"",""3"",""30939""
""fullscreenexit"",""3"",""35171""
""focus"",""3"",""35179""
","""event"",""trial"",""time""
""blur"",""0"",""0""
""blur"",""3"",""30939""
","""event"",""trial"",""time""
""focus"",""0"",""7762""
""focus"",""3"",""35179""
","""event"",""trial"",""time""
""fullscreenenter"",""0"",""9075""
","""event"",""trial"",""time""
""fullscreenexit"",""3"",""35171""
",null,"<div style=""font-size:60px;"">+</div>",NA,null,fixation,2020-07-01T21:40:43Z,NA,NA,NA,NA,NA,sub100
NA,mars-trial,76,139147,0.0-10.0-1.27,"""event"",""trial"",""time""
""blur"",""0"",""0""
""focus"",""0"",""7762""
""fullscreenenter"",""0"",""9075""
""blur"",""3"",""30939""
""fullscreenexit"",""3"",""35171""
""focus"",""3"",""35179""
","""event"",""trial"",""time""
""blur"",""0"",""0""
""blur"",""3"",""30939""
","""event"",""trial"",""time""
""focus"",""0"",""7762""
""focus"",""3"",""35179""
","""event"",""trial"",""time""
""fullscreenenter"",""0"",""9075""
","""event"",""trial"",""time""
""fullscreenexit"",""3"",""35171""
",604.6200000000827,<img style='border: 4px solid darkgrey;' src='img/tf1_28_M_ss3.jpeg'></img>,2,NA,exp,NA,3,<img src='img/tf1_28_T1_ss3_md.jpeg'></img>,0,FALSE,NA,sub100
NA,html-keyboard-response,77,139649,0.0-10.0-0.28,"""event"",""trial"",""time""
""blur"",""0"",""0""
""focus"",""0"",""7762""
""fullscreenenter"",""0"",""9075""
""blur"",""3"",""30939""
""fullscreenexit"",""3"",""35171""
""focus"",""3"",""35179""
","""event"",""trial"",""time""
""blur"",""0"",""0""
""blur"",""3"",""30939""
","""event"",""trial"",""time""
""focus"",""0"",""7762""
""focus"",""3"",""35179""
","""event"",""trial"",""time""
""fullscreenenter"",""0"",""9075""
","""event"",""trial"",""time""
""fullscreenexit"",""3"",""35171""
",null,"<div style=""font-size:60px;"">+</div>",NA,null,fixation,2020-07-01T21:40:44Z,NA,NA,NA,NA,NA,sub100
NA,mars-trial,78,140712,0.0-10.0-1.28,"""event"",""trial"",""time""
""blur"",""0"",""0""
""focus"",""0"",""7762""
""fullscreenenter"",""0"",""9075""
""blur"",""3"",""30939""
""fullscreenexit"",""3"",""35171""
""focus"",""3"",""35179""
","""event"",""trial"",""time""
""blur"",""0"",""0""
""blur"",""3"",""30939""
","""event"",""trial"",""time""
""focus"",""0"",""7762""
""focus"",""3"",""35179""
","""event"",""trial"",""time""
""fullscreenenter"",""0"",""9075""
","""event"",""trial"",""time""
""fullscreenexit"",""3"",""35171""
",451.23000000059255,<img style='border: 4px solid darkgrey;' src='img/tf1_29_M_ss1.jpeg'></img>,1,NA,exp,NA,1,<img src='img/tf1_29_T1_ss1_md.jpeg'></img>,0,FALSE,NA,sub100
NA,html-keyboard-response,79,141216,0.0-10.0-0.29,"""event"",""trial"",""time""
""blur"",""0"",""0""
""focus"",""0"",""7762""
""fullscreenenter"",""0"",""9075""
""blur"",""3"",""30939""
""fullscreenexit"",""3"",""35171""
""focus"",""3"",""35179""
","""event"",""trial"",""time""
""blur"",""0"",""0""
""blur"",""3"",""30939""
","""event"",""trial"",""time""
""focus"",""0"",""7762""
""focus"",""3"",""35179""
","""event"",""trial"",""time""
""fullscreenenter"",""0"",""9075""
","""event"",""trial"",""time""
""fullscreenexit"",""3"",""35171""
",null,"<div style=""font-size:60px;"">+</div>",NA,null,fixation,2020-07-01T21:40:46Z,NA,NA,NA,NA,NA,sub100
NA,mars-trial,80,143091,0.0-10.0-1.29,"""event"",""trial"",""time""
""blur"",""0"",""0""
""focus"",""0"",""7762""
""fullscreenenter"",""0"",""9075""
""blur"",""3"",""30939""
""fullscreenexit"",""3"",""35171""
""focus"",""3"",""35179""
","""event"",""trial"",""time""
""blur"",""0"",""0""
""blur"",""3"",""30939""
","""event"",""trial"",""time""
""focus"",""0"",""7762""
""focus"",""3"",""35179""
","""event"",""trial"",""time""
""fullscreenenter"",""0"",""9075""
","""event"",""trial"",""time""
""fullscreenexit"",""3"",""35171""
",1263.385000000213,<img style='border: 4px solid darkgrey;' src='img/tf1_30_M_ss2.jpeg'></img>,0,NA,exp,NA,0,<img src='img/tf1_30_T1_ss2_md.jpeg'></img>,0,TRUE,NA,sub100
NA,html-keyboard-response,81,143594,0.0-10.0-0.30,"""event"",""trial"",""time""
""blur"",""0"",""0""
""focus"",""0"",""7762""
""fullscreenenter"",""0"",""9075""
""blur"",""3"",""30939""
""fullscreenexit"",""3"",""35171""
""focus"",""3"",""35179""
","""event"",""trial"",""time""
""blur"",""0"",""0""
""blur"",""3"",""30939""
","""event"",""trial"",""time""
""focus"",""0"",""7762""
""focus"",""3"",""35179""
","""event"",""trial"",""time""
""fullscreenenter"",""0"",""9075""
","""event"",""trial"",""time""
""fullscreenexit"",""3"",""35171""
",null,"<div style=""font-size:60px;"">+</div>",NA,null,fixation,2020-07-01T21:40:48Z,NA,NA,NA,NA,NA,sub100
NA,mars-trial,82,144690,0.0-10.0-1.30,"""event"",""trial"",""time""
""blur"",""0"",""0""
""focus"",""0"",""7762""
""fullscreenenter"",""0"",""9075""
""blur"",""3"",""30939""
""fullscreenexit"",""3"",""35171""
""focus"",""3"",""35179""
","""event"",""trial"",""time""
""blur"",""0"",""0""
""blur"",""3"",""30939""
","""event"",""trial"",""time""
""focus"",""0"",""7762""
""focus"",""3"",""35179""
","""event"",""trial"",""time""
""fullscreenenter"",""0"",""9075""
","""event"",""trial"",""time""
""fullscreenexit"",""3"",""35171""
",485.53499999979977,<img style='border: 4px solid darkgrey;' src='img/tf1_31_M_ss3.jpeg'></img>,3,NA,exp,NA,1,<img src='img/tf1_31_T1_ss3_md.jpeg'></img>,0,FALSE,NA,sub100
NA,html-keyboard-response,83,145192,0.0-10.0-0.31,"""event"",""trial"",""time""
""blur"",""0"",""0""
""focus"",""0"",""7762""
""fullscreenenter"",""0"",""9075""
""blur"",""3"",""30939""
""fullscreenexit"",""3"",""35171""
""focus"",""3"",""35179""
","""event"",""trial"",""time""
""blur"",""0"",""0""
""blur"",""3"",""30939""
","""event"",""trial"",""time""
""focus"",""0"",""7762""
""focus"",""3"",""35179""
","""event"",""trial"",""time""
""fullscreenenter"",""0"",""9075""
","""event"",""trial"",""time""
""fullscreenexit"",""3"",""35171""
",null,"<div style=""font-size:60px;"">+</div>",NA,null,fixation,2020-07-01T21:40:50Z,NA,NA,NA,NA,NA,sub100
NA,mars-trial,84,146322,0.0-10.0-1.31,"""event"",""trial"",""time""
""blur"",""0"",""0""
""focus"",""0"",""7762""
""fullscreenenter"",""0"",""9075""
""blur"",""3"",""30939""
""fullscreenexit"",""3"",""35171""
""focus"",""3"",""35179""
","""event"",""trial"",""time""
""blur"",""0"",""0""
""blur"",""3"",""30939""
","""event"",""trial"",""time""
""focus"",""0"",""7762""
""focus"",""3"",""35179""
","""event"",""trial"",""time""
""fullscreenenter"",""0"",""9075""
","""event"",""trial"",""time""
""fullscreenexit"",""3"",""35171""
",518.7350000014703,<img style='border: 4px solid darkgrey;' src='img/tf1_32_M_ss1.jpeg'></img>,0,NA,exp,NA,1,<img src='img/tf1_32_T1_ss1_md.jpeg'></img>,0,FALSE,NA,sub100
NA,html-keyboard-response,85,146826,0.0-10.0-0.32,"""event"",""trial"",""time""
""blur"",""0"",""0""
""focus"",""0"",""7762""
""fullscreenenter"",""0"",""9075""
""blur"",""3"",""30939""
""fullscreenexit"",""3"",""35171""
""focus"",""3"",""35179""
","""event"",""trial"",""time""
""blur"",""0"",""0""
""blur"",""3"",""30939""
","""event"",""trial"",""time""
""focus"",""0"",""7762""
""focus"",""3"",""35179""
","""event"",""trial"",""time""
""fullscreenenter"",""0"",""9075""
","""event"",""trial"",""time""
""fullscreenexit"",""3"",""35171""
",null,"<div style=""font-size:60px;"">+</div>",NA,null,fixation,2020-07-01T21:40:52Z,NA,NA,NA,NA,NA,sub100
NA,mars-trial,86,147966,0.0-10.0-1.32,"""event"",""trial"",""time""
""blur"",""0"",""0""
""focus"",""0"",""7762""
""fullscreenenter"",""0"",""9075""
""blur"",""3"",""30939""
""fullscreenexit"",""3"",""35171""
""focus"",""3"",""35179""
","""event"",""trial"",""time""
""blur"",""0"",""0""
""blur"",""3"",""30939""
","""event"",""trial"",""time""
""focus"",""0"",""7762""
""focus"",""3"",""35179""
","""event"",""trial"",""time""
""fullscreenenter"",""0"",""9075""
","""event"",""trial"",""time""
""fullscreenexit"",""3"",""35171""
",527.2900000000081,<img style='border: 4px solid darkgrey;' src='img/tf1_33_M_ss2.jpeg'></img>,3,NA,exp,NA,3,<img src='img/tf1_33_T1_ss2_md.jpeg'></img>,0,FALSE,NA,sub100
NA,html-keyboard-response,87,148469,0.0-10.0-0.33,"""event"",""trial"",""time""
""blur"",""0"",""0""
""focus"",""0"",""7762""
""fullscreenenter"",""0"",""9075""
""blur"",""3"",""30939""
""fullscreenexit"",""3"",""35171""
""focus"",""3"",""35179""
","""event"",""trial"",""time""
""blur"",""0"",""0""
""blur"",""3"",""30939""
","""event"",""trial"",""time""
""focus"",""0"",""7762""
""focus"",""3"",""35179""
","""event"",""trial"",""time""
""fullscreenenter"",""0"",""9075""
","""event"",""trial"",""time""
""fullscreenexit"",""3"",""35171""
",null,"<div style=""font-size:60px;"">+</div>",NA,null,fixation,2020-07-01T21:40:53Z,NA,NA,NA,NA,NA,sub100
NA,mars-trial,88,149526,0.0-10.0-1.33,"""event"",""trial"",""time""
""blur"",""0"",""0""
""focus"",""0"",""7762""
""fullscreenenter"",""0"",""9075""
""blur"",""3"",""30939""
""fullscreenexit"",""3"",""35171""
""focus"",""3"",""35179""
","""event"",""trial"",""time""
""blur"",""0"",""0""
""blur"",""3"",""30939""
","""event"",""trial"",""time""
""focus"",""0"",""7762""
""focus"",""3"",""35179""
","""event"",""trial"",""time""
""fullscreenenter"",""0"",""9075""
","""event"",""trial"",""time""
""fullscreenexit"",""3"",""35171""
",446.2999999995809,<img style='border: 4px solid darkgrey;' src='img/tf1_34_M_ss3.jpeg'></img>,0,NA,exp,NA,0,<img src='img/tf1_34_T1_ss3_md.jpeg'></img>,0,TRUE,NA,sub100
NA,html-keyboard-response,89,150030,0.0-10.0-0.34,"""event"",""trial"",""time""
""blur"",""0"",""0""
""focus"",""0"",""7762""
""fullscreenenter"",""0"",""9075""
""blur"",""3"",""30939""
""fullscreenexit"",""3"",""35171""
""focus"",""3"",""35179""
","""event"",""trial"",""time""
""blur"",""0"",""0""
""blur"",""3"",""30939""
","""event"",""trial"",""time""
""focus"",""0"",""7762""
""focus"",""3"",""35179""
","""event"",""trial"",""time""
""fullscreenenter"",""0"",""9075""
","""event"",""trial"",""time""
""fullscreenexit"",""3"",""35171""
",null,"<div style=""font-size:60px;"">+</div>",NA,null,fixation,2020-07-01T21:40:55Z,NA,NA,NA,NA,NA,sub100
NA,mars-trial,90,151096,0.0-10.0-1.34,"""event"",""trial"",""time""
""blur"",""0"",""0""
""focus"",""0"",""7762""
""fullscreenenter"",""0"",""9075""
""blur"",""3"",""30939""
""fullscreenexit"",""3"",""35171""
""focus"",""3"",""35179""
","""event"",""trial"",""time""
""blur"",""0"",""0""
""blur"",""3"",""30939""
","""event"",""trial"",""time""
""focus"",""0"",""7762""
""focus"",""3"",""35179""
","""event"",""trial"",""time""
""fullscreenenter"",""0"",""9075""
","""event"",""trial"",""time""
""fullscreenexit"",""3"",""35171""
",455.2700000003679,<img style='border: 4px solid darkgrey;' src='img/tf1_35_M_ss1.jpeg'></img>,3,NA,exp,NA,0,<img src='img/tf1_35_T1_ss1_md.jpeg'></img>,0,TRUE,NA,sub100
NA,html-keyboard-response,91,151599,0.0-10.0-0.35,"""event"",""trial"",""time""
""blur"",""0"",""0""
""focus"",""0"",""7762""
""fullscreenenter"",""0"",""9075""
""blur"",""3"",""30939""
""fullscreenexit"",""3"",""35171""
""focus"",""3"",""35179""
","""event"",""trial"",""time""
""blur"",""0"",""0""
""blur"",""3"",""30939""
","""event"",""trial"",""time""
""focus"",""0"",""7762""
""focus"",""3"",""35179""
","""event"",""trial"",""time""
""fullscreenenter"",""0"",""9075""
","""event"",""trial"",""time""
""fullscreenexit"",""3"",""35171""
",null,"<div style=""font-size:60px;"">+</div>",NA,null,fixation,2020-07-01T21:40:56Z,NA,NA,NA,NA,NA,sub100
NA,mars-trial,92,152730,0.0-10.0-1.35,"""event"",""trial"",""time""
""blur"",""0"",""0""
""focus"",""0"",""7762""
""fullscreenenter"",""0"",""9075""
""blur"",""3"",""30939""
""fullscreenexit"",""3"",""35171""
""focus"",""3"",""35179""
","""event"",""trial"",""time""
""blur"",""0"",""0""
""blur"",""3"",""30939""
","""event"",""trial"",""time""
""focus"",""0"",""7762""
""focus"",""3"",""35179""
","""event"",""trial"",""time""
""fullscreenenter"",""0"",""9075""
","""event"",""trial"",""time""
""fullscreenexit"",""3"",""35171""
",518.9849999988219,<img style='border: 4px solid darkgrey;' src='img/tf1_36_M_ss2.jpeg'></img>,0,NA,exp,NA,0,<img src='img/tf1_36_T1_ss2_md.jpeg'></img>,0,TRUE,NA,sub100
NA,html-keyboard-response,93,153232,0.0-10.0-0.36,"""event"",""trial"",""time""
""blur"",""0"",""0""
""focus"",""0"",""7762""
""fullscreenenter"",""0"",""9075""
""blur"",""3"",""30939""
""fullscreenexit"",""3"",""35171""
""focus"",""3"",""35179""
","""event"",""trial"",""time""
""blur"",""0"",""0""
""blur"",""3"",""30939""
","""event"",""trial"",""time""
""focus"",""0"",""7762""
""focus"",""3"",""35179""
","""event"",""trial"",""time""
""fullscreenenter"",""0"",""9075""
","""event"",""trial"",""time""
""fullscreenexit"",""3"",""35171""
",null,"<div style=""font-size:60px;"">+</div>",NA,null,fixation,2020-07-01T21:40:58Z,NA,NA,NA,NA,NA,sub100
NA,mars-trial,94,154340,0.0-10.0-1.36,"""event"",""trial"",""time""
""blur"",""0"",""0""
""focus"",""0"",""7762""
""fullscreenenter"",""0"",""9075""
""blur"",""3"",""30939""
""fullscreenexit"",""3"",""35171""
""focus"",""3"",""35179""
","""event"",""trial"",""time""
""blur"",""0"",""0""
""blur"",""3"",""30939""
","""event"",""trial"",""time""
""focus"",""0"",""7762""
""focus"",""3"",""35179""
","""event"",""trial"",""time""
""fullscreenenter"",""0"",""9075""
","""event"",""trial"",""time""
""fullscreenexit"",""3"",""35171""
",496.9999999993597,<img style='border: 4px solid darkgrey;' src='img/tf1_37_M_ss3.jpeg'></img>,3,NA,exp,NA,1,<img src='img/tf1_37_T1_ss3_md.jpeg'></img>,0,FALSE,NA,sub100
NA,html-keyboard-response,95,154843,0.0-10.0-0.37,"""event"",""trial"",""time""
""blur"",""0"",""0""
""focus"",""0"",""7762""
""fullscreenenter"",""0"",""9075""
""blur"",""3"",""30939""
""fullscreenexit"",""3"",""35171""
""focus"",""3"",""35179""
","""event"",""trial"",""time""
""blur"",""0"",""0""
""blur"",""3"",""30939""
","""event"",""trial"",""time""
""focus"",""0"",""7762""
""focus"",""3"",""35179""
","""event"",""trial"",""time""
""fullscreenenter"",""0"",""9075""
","""event"",""trial"",""time""
""fullscreenexit"",""3"",""35171""
",null,"<div style=""font-size:60px;"">+</div>",NA,null,fixation,2020-07-01T21:41:00Z,NA,NA,NA,NA,NA,sub100
NA,mars-trial,96,156560,0.0-10.0-1.37,"""event"",""trial"",""time""
""blur"",""0"",""0""
""focus"",""0"",""7762""
""fullscreenenter"",""0"",""9075""
""blur"",""3"",""30939""
""fullscreenexit"",""3"",""35171""
""focus"",""3"",""35179""
","""event"",""trial"",""time""
""blur"",""0"",""0""
""blur"",""3"",""30939""
","""event"",""trial"",""time""
""focus"",""0"",""7762""
""focus"",""3"",""35179""
","""event"",""trial"",""time""
""fullscreenenter"",""0"",""9075""
","""event"",""trial"",""time""
""fullscreenexit"",""3"",""35171""
",1105.504999999539,<img style='border: 4px solid darkgrey;' src='img/tf1_38_M_ss1.jpeg'></img>,0,NA,exp,NA,0,<img src='img/tf1_38_T1_ss1_md.jpeg'></img>,0,TRUE,NA,sub100
NA,html-keyboard-response,97,157064,0.0-10.0-0.38,"""event"",""trial"",""time""
""blur"",""0"",""0""
""focus"",""0"",""7762""
""fullscreenenter"",""0"",""9075""
""blur"",""3"",""30939""
""fullscreenexit"",""3"",""35171""
""focus"",""3"",""35179""
","""event"",""trial"",""time""
""blur"",""0"",""0""
""blur"",""3"",""30939""
","""event"",""trial"",""time""
""focus"",""0"",""7762""
""focus"",""3"",""35179""
","""event"",""trial"",""time""
""fullscreenenter"",""0"",""9075""
","""event"",""trial"",""time""
""fullscreenexit"",""3"",""35171""
",null,"<div style=""font-size:60px;"">+</div>",NA,null,fixation,2020-07-01T21:41:02Z,NA,NA,NA,NA,NA,sub100
NA,mars-trial,98,158397,0.0-10.0-1.38,"""event"",""trial"",""time""
""blur"",""0"",""0""
""focus"",""0"",""7762""
""fullscreenenter"",""0"",""9075""
""blur"",""3"",""30939""
""fullscreenexit"",""3"",""35171""
""focus"",""3"",""35179""
","""event"",""trial"",""time""
""blur"",""0"",""0""
""blur"",""3"",""30939""
","""event"",""trial"",""time""
""focus"",""0"",""7762""
""focus"",""3"",""35179""
","""event"",""trial"",""time""
""fullscreenenter"",""0"",""9075""
","""event"",""trial"",""time""
""fullscreenexit"",""3"",""35171""
",720.5749999993714,<img style='border: 4px solid darkgrey;' src='img/tf1_39_M_ss2.jpeg'></img>,3,NA,exp,NA,2,<img src='img/tf1_39_T1_ss2_md.jpeg'></img>,0,FALSE,NA,sub100
NA,html-keyboard-response,99,158901,0.0-10.0-0.39,"""event"",""trial"",""time""
""blur"",""0"",""0""
""focus"",""0"",""7762""
""fullscreenenter"",""0"",""9075""
""blur"",""3"",""30939""
""fullscreenexit"",""3"",""35171""
""focus"",""3"",""35179""
","""event"",""trial"",""time""
""blur"",""0"",""0""
""blur"",""3"",""30939""
","""event"",""trial"",""time""
""focus"",""0"",""7762""
""focus"",""3"",""35179""
","""event"",""trial"",""time""
""fullscreenenter"",""0"",""9075""
","""event"",""trial"",""time""
""fullscreenexit"",""3"",""35171""
",null,"<div style=""font-size:60px;"">+</div>",NA,null,fixation,2020-07-01T21:41:04Z,NA,NA,NA,NA,NA,sub100
NA,mars-trial,100,160135,0.0-10.0-1.39,"""event"",""trial"",""time""
""blur"",""0"",""0""
""focus"",""0"",""7762""
""fullscreenenter"",""0"",""9075""
""blur"",""3"",""30939""
""fullscreenexit"",""3"",""35171""
""focus"",""3"",""35179""
","""event"",""trial"",""time""
""blur"",""0"",""0""
""blur"",""3"",""30939""
","""event"",""trial"",""time""
""focus"",""0"",""7762""
""focus"",""3"",""35179""
","""event"",""trial"",""time""
""fullscreenenter"",""0"",""9075""
","""event"",""trial"",""time""
""fullscreenexit"",""3"",""35171""
",624.2050000000745,<img style='border: 4px solid darkgrey;' src='img/tf1_40_M_ss3.jpeg'></img>,0,NA,exp,NA,0,<img src='img/tf1_40_T1_ss3_md.jpeg'></img>,0,TRUE,NA,sub100
NA,html-keyboard-response,101,160638,0.0-10.0-0.40,"""event"",""trial"",""time""
""blur"",""0"",""0""
""focus"",""0"",""7762""
""fullscreenenter"",""0"",""9075""
""blur"",""3"",""30939""
""fullscreenexit"",""3"",""35171""
""focus"",""3"",""35179""
","""event"",""trial"",""time""
""blur"",""0"",""0""
""blur"",""3"",""30939""
","""event"",""trial"",""time""
""focus"",""0"",""7762""
""focus"",""3"",""35179""
","""event"",""trial"",""time""
""fullscreenenter"",""0"",""9075""
","""event"",""trial"",""time""
""fullscreenexit"",""3"",""35171""
",null,"<div style=""font-size:60px;"">+</div>",NA,null,fixation,2020-07-01T21:41:05Z,NA,NA,NA,NA,NA,sub100
NA,mars-trial,102,162291,0.0-10.0-1.40,"""event"",""trial"",""time""
""blur"",""0"",""0""
""focus"",""0"",""7762""
""fullscreenenter"",""0"",""9075""
""blur"",""3"",""30939""
""fullscreenexit"",""3"",""35171""
""focus"",""3"",""35179""
","""event"",""trial"",""time""
""blur"",""0"",""0""
""blur"",""3"",""30939""
","""event"",""trial"",""time""
""focus"",""0"",""7762""
""focus"",""3"",""35179""
","""event"",""trial"",""time""
""fullscreenenter"",""0"",""9075""
","""event"",""trial"",""time""
""fullscreenexit"",""3"",""35171""
",1040.6800000000512,<img style='border: 4px solid darkgrey;' src='img/tf1_41_M_ss1.jpeg'></img>,3,NA,exp,NA,3,<img src='img/tf1_41_T1_ss1_md.jpeg'></img>,0,FALSE,NA,sub100
NA,html-keyboard-response,103,162794,0.0-10.0-0.41,"""event"",""trial"",""time""
""blur"",""0"",""0""
""focus"",""0"",""7762""
""fullscreenenter"",""0"",""9075""
""blur"",""3"",""30939""
""fullscreenexit"",""3"",""35171""
""focus"",""3"",""35179""
","""event"",""trial"",""time""
""blur"",""0"",""0""
""blur"",""3"",""30939""
","""event"",""trial"",""time""
""focus"",""0"",""7762""
""focus"",""3"",""35179""
","""event"",""trial"",""time""
""fullscreenenter"",""0"",""9075""
","""event"",""trial"",""time""
""fullscreenexit"",""3"",""35171""
",null,"<div style=""font-size:60px;"">+</div>",NA,null,fixation,2020-07-01T21:41:08Z,NA,NA,NA,NA,NA,sub100
NA,mars-trial,104,164282,0.0-10.0-1.41,"""event"",""trial"",""time""
""blur"",""0"",""0""
""focus"",""0"",""7762""
""fullscreenenter"",""0"",""9075""
""blur"",""3"",""30939""
""fullscreenexit"",""3"",""35171""
""focus"",""3"",""35179""
","""event"",""trial"",""time""
""blur"",""0"",""0""
""blur"",""3"",""30939""
","""event"",""trial"",""time""
""focus"",""0"",""7762""
""focus"",""3"",""35179""
","""event"",""trial"",""time""
""fullscreenenter"",""0"",""9075""
","""event"",""trial"",""time""
""fullscreenexit"",""3"",""35171""
",873.9349999995902,<img style='border: 4px solid darkgrey;' src='img/tf1_42_M_ss2.jpeg'></img>,0,NA,exp,NA,3,<img src='img/tf1_42_T1_ss2_md.jpeg'></img>,0,FALSE,NA,sub100
NA,html-keyboard-response,105,164785,0.0-10.0-0.42,"""event"",""trial"",""time""
""blur"",""0"",""0""
""focus"",""0"",""7762""
""fullscreenenter"",""0"",""9075""
""blur"",""3"",""30939""
""fullscreenexit"",""3"",""35171""
""focus"",""3"",""35179""
","""event"",""trial"",""time""
""blur"",""0"",""0""
""blur"",""3"",""30939""
","""event"",""trial"",""time""
""focus"",""0"",""7762""
""focus"",""3"",""35179""
","""event"",""trial"",""time""
""fullscreenenter"",""0"",""9075""
","""event"",""trial"",""time""
""fullscreenexit"",""3"",""35171""
",null,"<div style=""font-size:60px;"">+</div>",NA,null,fixation,2020-07-01T21:41:10Z,NA,NA,NA,NA,NA,sub100
NA,mars-trial,106,166010,0.0-10.0-1.42,"""event"",""trial"",""time""
""blur"",""0"",""0""
""focus"",""0"",""7762""
""fullscreenenter"",""0"",""9075""
""blur"",""3"",""30939""
""fullscreenexit"",""3"",""35171""
""focus"",""3"",""35179""
","""event"",""trial"",""time""
""blur"",""0"",""0""
""blur"",""3"",""30939""
","""event"",""trial"",""time""
""focus"",""0"",""7762""
""focus"",""3"",""35179""
","""event"",""trial"",""time""
""fullscreenenter"",""0"",""9075""
","""event"",""trial"",""time""
""fullscreenexit"",""3"",""35171""
",614.6700000008277,<img style='border: 4px solid darkgrey;' src='img/tf1_43_M_ss3.jpeg'></img>,3,NA,exp,NA,0,<img src='img/tf1_43_T1_ss3_md.jpeg'></img>,0,TRUE,NA,sub100
NA,html-keyboard-response,107,166514,0.0-10.0-0.43,"""event"",""trial"",""time""
""blur"",""0"",""0""
""focus"",""0"",""7762""
""fullscreenenter"",""0"",""9075""
""blur"",""3"",""30939""
""fullscreenexit"",""3"",""35171""
""focus"",""3"",""35179""
","""event"",""trial"",""time""
""blur"",""0"",""0""
""blur"",""3"",""30939""
","""event"",""trial"",""time""
""focus"",""0"",""7762""
""focus"",""3"",""35179""
","""event"",""trial"",""time""
""fullscreenenter"",""0"",""9075""
","""event"",""trial"",""time""
""fullscreenexit"",""3"",""35171""
",null,"<div style=""font-size:60px;"">+</div>",NA,null,fixation,2020-07-01T21:41:11Z,NA,NA,NA,NA,NA,sub100
NA,mars-trial,108,167926,0.0-10.0-1.43,"""event"",""trial"",""time""
""blur"",""0"",""0""
""focus"",""0"",""7762""
""fullscreenenter"",""0"",""9075""
""blur"",""3"",""30939""
""fullscreenexit"",""3"",""35171""
""focus"",""3"",""35179""
","""event"",""trial"",""time""
""blur"",""0"",""0""
""blur"",""3"",""30939""
","""event"",""trial"",""time""
""focus"",""0"",""7762""
""focus"",""3"",""35179""
","""event"",""trial"",""time""
""fullscreenenter"",""0"",""9075""
","""event"",""trial"",""time""
""fullscreenexit"",""3"",""35171""
",802.2799999998824,<img style='border: 4px solid darkgrey;' src='img/tf1_44_M_ss1.jpeg'></img>,0,NA,exp,NA,3,<img src='img/tf1_44_T1_ss1_md.jpeg'></img>,0,FALSE,NA,sub100
NA,html-keyboard-response,109,168429,0.0-10.0-0.44,"""event"",""trial"",""time""
""blur"",""0"",""0""
""focus"",""0"",""7762""
""fullscreenenter"",""0"",""9075""
""blur"",""3"",""30939""
""fullscreenexit"",""3"",""35171""
""focus"",""3"",""35179""
","""event"",""trial"",""time""
""blur"",""0"",""0""
""blur"",""3"",""30939""
","""event"",""trial"",""time""
""focus"",""0"",""7762""
""focus"",""3"",""35179""
","""event"",""trial"",""time""
""fullscreenenter"",""0"",""9075""
","""event"",""trial"",""time""
""fullscreenexit"",""3"",""35171""
",null,"<div style=""font-size:60px;"">+</div>",NA,null,fixation,2020-07-01T21:41:13Z,NA,NA,NA,NA,NA,sub100
NA,mars-trial,110,169488,0.0-10.0-1.44,"""event"",""trial"",""time""
""blur"",""0"",""0""
""focus"",""0"",""7762""
""fullscreenenter"",""0"",""9075""
""blur"",""3"",""30939""
""fullscreenexit"",""3"",""35171""
""focus"",""3"",""35179""
","""event"",""trial"",""time""
""blur"",""0"",""0""
""blur"",""3"",""30939""
","""event"",""trial"",""time""
""focus"",""0"",""7762""
""focus"",""3"",""35179""
","""event"",""trial"",""time""
""fullscreenenter"",""0"",""9075""
","""event"",""trial"",""time""
""fullscreenexit"",""3"",""35171""
",450.1400000008289,<img style='border: 4px solid darkgrey;' src='img/tf1_45_M_ss2.jpeg'></img>,3,NA,exp,NA,2,<img src='img/tf1_45_T1_ss2_md.jpeg'></img>,0,FALSE,NA,sub100
NA,html-keyboard-response,111,169991,0.0-10.0-0.45,"""event"",""trial"",""time""
""blur"",""0"",""0""
""focus"",""0"",""7762""
""fullscreenenter"",""0"",""9075""
""blur"",""3"",""30939""
""fullscreenexit"",""3"",""35171""
""focus"",""3"",""35179""
","""event"",""trial"",""time""
""blur"",""0"",""0""
""blur"",""3"",""30939""
","""event"",""trial"",""time""
""focus"",""0"",""7762""
""focus"",""3"",""35179""
","""event"",""trial"",""time""
""fullscreenenter"",""0"",""9075""
","""event"",""trial"",""time""
""fullscreenexit"",""3"",""35171""
",null,"<div style=""font-size:60px;"">+</div>",NA,null,fixation,2020-07-01T21:41:15Z,NA,NA,NA,NA,NA,sub100
NA,mars-trial,112,170982,0.0-10.0-1.45,"""event"",""trial"",""time""
""blur"",""0"",""0""
""focus"",""0"",""7762""
""fullscreenenter"",""0"",""9075""
""blur"",""3"",""30939""
""fullscreenexit"",""3"",""35171""
""focus"",""3"",""35179""
","""event"",""trial"",""time""
""blur"",""0"",""0""
""blur"",""3"",""30939""
","""event"",""trial"",""time""
""focus"",""0"",""7762""
""focus"",""3"",""35179""
","""event"",""trial"",""time""
""fullscreenenter"",""0"",""9075""
","""event"",""trial"",""time""
""fullscreenexit"",""3"",""35171""
",382.73500000103377,<img style='border: 4px solid darkgrey;' src='img/tf1_46_M_ss3.jpeg'></img>,0,NA,exp,NA,0,<img src='img/tf1_46_T1_ss3_md.jpeg'></img>,0,TRUE,NA,sub100
NA,html-keyboard-response,113,171484,0.0-10.0-0.46,"""event"",""trial"",""time""
""blur"",""0"",""0""
""focus"",""0"",""7762""
""fullscreenenter"",""0"",""9075""
""blur"",""3"",""30939""
""fullscreenexit"",""3"",""35171""
""focus"",""3"",""35179""
","""event"",""trial"",""time""
""blur"",""0"",""0""
""blur"",""3"",""30939""
","""event"",""trial"",""time""
""focus"",""0"",""7762""
""focus"",""3"",""35179""
","""event"",""trial"",""time""
""fullscreenenter"",""0"",""9075""
","""event"",""trial"",""time""
""fullscreenexit"",""3"",""35171""
",null,"<div style=""font-size:60px;"">+</div>",NA,null,fixation,2020-07-01T21:41:16Z,NA,NA,NA,NA,NA,sub100
NA,mars-trial,114,172554,0.0-10.0-1.46,"""event"",""trial"",""time""
""blur"",""0"",""0""
""focus"",""0"",""7762""
""fullscreenenter"",""0"",""9075""
""blur"",""3"",""30939""
""fullscreenexit"",""3"",""35171""
""focus"",""3"",""35179""
","""event"",""trial"",""time""
""blur"",""0"",""0""
""blur"",""3"",""30939""
","""event"",""trial"",""time""
""focus"",""0"",""7762""
""focus"",""3"",""35179""
","""event"",""trial"",""time""
""fullscreenenter"",""0"",""9075""
","""event"",""trial"",""time""
""fullscreenexit"",""3"",""35171""
",459.68499999982305,<img style='border: 4px solid darkgrey;' src='img/tf1_47_M_ss1.jpeg'></img>,3,NA,exp,NA,3,<img src='img/tf1_47_T1_ss1_md.jpeg'></img>,0,FALSE,NA,sub100
NA,html-keyboard-response,115,173058,0.0-10.0-0.47,"""event"",""trial"",""time""
""blur"",""0"",""0""
""focus"",""0"",""7762""
""fullscreenenter"",""0"",""9075""
""blur"",""3"",""30939""
""fullscreenexit"",""3"",""35171""
""focus"",""3"",""35179""
","""event"",""trial"",""time""
""blur"",""0"",""0""
""blur"",""3"",""30939""
","""event"",""trial"",""time""
""focus"",""0"",""7762""
""focus"",""3"",""35179""
","""event"",""trial"",""time""
""fullscreenenter"",""0"",""9075""
","""event"",""trial"",""time""
""fullscreenexit"",""3"",""35171""
",null,"<div style=""font-size:60px;"">+</div>",NA,null,fixation,2020-07-01T21:41:18Z,NA,NA,NA,NA,NA,sub100
NA,mars-trial,116,174540,0.0-10.0-1.47,"""event"",""trial"",""time""
""blur"",""0"",""0""
""focus"",""0"",""7762""
""fullscreenenter"",""0"",""9075""
""blur"",""3"",""30939""
""fullscreenexit"",""3"",""35171""
""focus"",""3"",""35179""
","""event"",""trial"",""time""
""blur"",""0"",""0""
""blur"",""3"",""30939""
","""event"",""trial"",""time""
""focus"",""0"",""7762""
""focus"",""3"",""35179""
","""event"",""trial"",""time""
""fullscreenenter"",""0"",""9075""
","""event"",""trial"",""time""
""fullscreenexit"",""3"",""35171""
",871.3800000005285,<img style='border: 4px solid darkgrey;' src='img/tf1_48_M_ss2.jpeg'></img>,0,NA,exp,NA,1,<img src='img/tf1_48_T1_ss2_md.jpeg'></img>,0,FALSE,NA,sub100
NA,html-keyboard-response,117,175043,0.0-10.0-0.48,"""event"",""trial"",""time""
""blur"",""0"",""0""
""focus"",""0"",""7762""
""fullscreenenter"",""0"",""9075""
""blur"",""3"",""30939""
""fullscreenexit"",""3"",""35171""
""focus"",""3"",""35179""
","""event"",""trial"",""time""
""blur"",""0"",""0""
""blur"",""3"",""30939""
","""event"",""trial"",""time""
""focus"",""0"",""7762""
""focus"",""3"",""35179""
","""event"",""trial"",""time""
""fullscreenenter"",""0"",""9075""
","""event"",""trial"",""time""
""fullscreenexit"",""3"",""35171""
",null,"<div style=""font-size:60px;"">+</div>",NA,null,fixation,2020-07-01T21:41:20Z,NA,NA,NA,NA,NA,sub100
NA,mars-trial,118,175832,0.0-10.0-1.48,"""event"",""trial"",""time""
""blur"",""0"",""0""
""focus"",""0"",""7762""
""fullscreenenter"",""0"",""9075""
""blur"",""3"",""30939""
""fullscreenexit"",""3"",""35171""
""focus"",""3"",""35179""
","""event"",""trial"",""time""
""blur"",""0"",""0""
""blur"",""3"",""30939""
","""event"",""trial"",""time""
""focus"",""0"",""7762""
""focus"",""3"",""35179""
","""event"",""trial"",""time""
""fullscreenenter"",""0"",""9075""
","""event"",""trial"",""time""
""fullscreenexit"",""3"",""35171""
",178.3949999989709,<img style='border: 4px solid darkgrey;' src='img/tf1_49_M_ss3.jpeg'></img>,3,NA,exp,NA,3,<img src='img/tf1_49_T1_ss3_md.jpeg'></img>,0,FALSE,NA,sub100
NA,html-keyboard-response,119,176335,0.0-10.0-0.49,"""event"",""trial"",""time""
""blur"",""0"",""0""
""focus"",""0"",""7762""
""fullscreenenter"",""0"",""9075""
""blur"",""3"",""30939""
""fullscreenexit"",""3"",""35171""
""focus"",""3"",""35179""
","""event"",""trial"",""time""
""blur"",""0"",""0""
""blur"",""3"",""30939""
","""event"",""trial"",""time""
""focus"",""0"",""7762""
""focus"",""3"",""35179""
","""event"",""trial"",""time""
""fullscreenenter"",""0"",""9075""
","""event"",""trial"",""time""
""fullscreenexit"",""3"",""35171""
",null,"<div style=""font-size:60px;"">+</div>",NA,null,fixation,2020-07-01T21:41:21Z,NA,NA,NA,NA,NA,sub100
NA,mars-trial,120,177450,0.0-10.0-1.49,"""event"",""trial"",""time""
""blur"",""0"",""0""
""focus"",""0"",""7762""
""fullscreenenter"",""0"",""9075""
""blur"",""3"",""30939""
""fullscreenexit"",""3"",""35171""
""focus"",""3"",""35179""
","""event"",""trial"",""time""
""blur"",""0"",""0""
""blur"",""3"",""30939""
","""event"",""trial"",""time""
""focus"",""0"",""7762""
""focus"",""3"",""35179""
","""event"",""trial"",""time""
""fullscreenenter"",""0"",""9075""
","""event"",""trial"",""time""
""fullscreenexit"",""3"",""35171""
",500.25999999887426,<img style='border: 4px solid darkgrey;' src='img/tf1_50_M_ss1.jpeg'></img>,0,NA,exp,NA,0,<img src='img/tf1_50_T1_ss1_md.jpeg'></img>,0,TRUE,NA,sub100
NA,html-keyboard-response,121,177953,0.0-10.0-0.50,"""event"",""trial"",""time""
""blur"",""0"",""0""
""focus"",""0"",""7762""
""fullscreenenter"",""0"",""9075""
""blur"",""3"",""30939""
""fullscreenexit"",""3"",""35171""
""focus"",""3"",""35179""
","""event"",""trial"",""time""
""blur"",""0"",""0""
""blur"",""3"",""30939""
","""event"",""trial"",""time""
""focus"",""0"",""7762""
""focus"",""3"",""35179""
","""event"",""trial"",""time""
""fullscreenenter"",""0"",""9075""
","""event"",""trial"",""time""
""fullscreenexit"",""3"",""35171""
",null,"<div style=""font-size:60px;"">+</div>",NA,null,fixation,2020-07-01T21:41:23Z,NA,NA,NA,NA,NA,sub100
NA,mars-trial,122,178902,0.0-10.0-1.50,"""event"",""trial"",""time""
""blur"",""0"",""0""
""focus"",""0"",""7762""
""fullscreenenter"",""0"",""9075""
""blur"",""3"",""30939""
""fullscreenexit"",""3"",""35171""
""focus"",""3"",""35179""
","""event"",""trial"",""time""
""blur"",""0"",""0""
""blur"",""3"",""30939""
","""event"",""trial"",""time""
""focus"",""0"",""7762""
""focus"",""3"",""35179""
","""event"",""trial"",""time""
""fullscreenenter"",""0"",""9075""
","""event"",""trial"",""time""
""fullscreenexit"",""3"",""35171""
",338.68999999866355,<img style='border: 4px solid darkgrey;' src='img/tf1_51_M_ss2.jpeg'></img>,3,NA,exp,NA,0,<img src='img/tf1_51_T1_ss2_md.jpeg'></img>,0,TRUE,NA,sub100
NA,html-keyboard-response,123,179405,0.0-10.0-0.51,"""event"",""trial"",""time""
""blur"",""0"",""0""
""focus"",""0"",""7762""
""fullscreenenter"",""0"",""9075""
""blur"",""3"",""30939""
""fullscreenexit"",""3"",""35171""
""focus"",""3"",""35179""
","""event"",""trial"",""time""
""blur"",""0"",""0""
""blur"",""3"",""30939""
","""event"",""trial"",""time""
""focus"",""0"",""7762""
""focus"",""3"",""35179""
","""event"",""trial"",""time""
""fullscreenenter"",""0"",""9075""
","""event"",""trial"",""time""
""fullscreenexit"",""3"",""35171""
",null,"<div style=""font-size:60px;"">+</div>",NA,null,fixation,2020-07-01T21:41:24Z,NA,NA,NA,NA,NA,sub100
NA,mars-trial,124,180434,0.0-10.0-1.51,"""event"",""trial"",""time""
""blur"",""0"",""0""
""focus"",""0"",""7762""
""fullscreenenter"",""0"",""9075""
""blur"",""3"",""30939""
""fullscreenexit"",""3"",""35171""
""focus"",""3"",""35179""
","""event"",""trial"",""time""
""blur"",""0"",""0""
""blur"",""3"",""30939""
","""event"",""trial"",""time""
""focus"",""0"",""7762""
""focus"",""3"",""35179""
","""event"",""trial"",""time""
""fullscreenenter"",""0"",""9075""
","""event"",""trial"",""time""
""fullscreenexit"",""3"",""35171""
",418.029999998922,<img style='border: 4px solid darkgrey;' src='img/tf1_52_M_ss3.jpeg'></img>,0,NA,exp,NA,3,<img src='img/tf1_52_T1_ss3_md.jpeg'></img>,0,FALSE,NA,sub100
NA,html-keyboard-response,125,180939,0.0-10.0-0.52,"""event"",""trial"",""time""
""blur"",""0"",""0""
""focus"",""0"",""7762""
""fullscreenenter"",""0"",""9075""
""blur"",""3"",""30939""
""fullscreenexit"",""3"",""35171""
""focus"",""3"",""35179""
","""event"",""trial"",""time""
""blur"",""0"",""0""
""blur"",""3"",""30939""
","""event"",""trial"",""time""
""focus"",""0"",""7762""
""focus"",""3"",""35179""
","""event"",""trial"",""time""
""fullscreenenter"",""0"",""9075""
","""event"",""trial"",""time""
""fullscreenexit"",""3"",""35171""
",null,"<div style=""font-size:60px;"">+</div>",NA,null,fixation,2020-07-01T21:41:26Z,NA,NA,NA,NA,NA,sub100
NA,mars-trial,126,183707,0.0-10.0-1.52,"""event"",""trial"",""time""
""blur"",""0"",""0""
""focus"",""0"",""7762""
""fullscreenenter"",""0"",""9075""
""blur"",""3"",""30939""
""fullscreenexit"",""3"",""35171""
""focus"",""3"",""35179""
","""event"",""trial"",""time""
""blur"",""0"",""0""
""blur"",""3"",""30939""
","""event"",""trial"",""time""
""focus"",""0"",""7762""
""focus"",""3"",""35179""
","""event"",""trial"",""time""
""fullscreenenter"",""0"",""9075""
","""event"",""trial"",""time""
""fullscreenexit"",""3"",""35171""
",2153.5349999994796,<img style='border: 4px solid darkgrey;' src='img/tf1_53_M_ss1.jpeg'></img>,3,NA,exp,NA,3,<img src='img/tf1_53_T1_ss1_md.jpeg'></img>,0,FALSE,NA,sub100
NA,html-keyboard-response,127,184214,0.0-10.0-0.53,"""event"",""trial"",""time""
""blur"",""0"",""0""
""focus"",""0"",""7762""
""fullscreenenter"",""0"",""9075""
""blur"",""3"",""30939""
""fullscreenexit"",""3"",""35171""
""focus"",""3"",""35179""
","""event"",""trial"",""time""
""blur"",""0"",""0""
""blur"",""3"",""30939""
","""event"",""trial"",""time""
""focus"",""0"",""7762""
""focus"",""3"",""35179""
","""event"",""trial"",""time""
""fullscreenenter"",""0"",""9075""
","""event"",""trial"",""time""
""fullscreenexit"",""3"",""35171""
",null,"<div style=""font-size:60px;"">+</div>",NA,null,fixation,2020-07-01T21:41:29Z,NA,NA,NA,NA,NA,sub100
NA,mars-trial,128,185227,0.0-10.0-1.53,"""event"",""trial"",""time""
""blur"",""0"",""0""
""focus"",""0"",""7762""
""fullscreenenter"",""0"",""9075""
""blur"",""3"",""30939""
""fullscreenexit"",""3"",""35171""
""focus"",""3"",""35179""
","""event"",""trial"",""time""
""blur"",""0"",""0""
""blur"",""3"",""30939""
","""event"",""trial"",""time""
""focus"",""0"",""7762""
""focus"",""3"",""35179""
","""event"",""trial"",""time""
""fullscreenenter"",""0"",""9075""
","""event"",""trial"",""time""
""fullscreenexit"",""3"",""35171""
",403.9800000009709,<img style='border: 4px solid darkgrey;' src='img/tf1_54_M_ss2.jpeg'></img>,0,NA,exp,NA,2,<img src='img/tf1_54_T1_ss2_md.jpeg'></img>,0,FALSE,NA,sub100
NA,html-keyboard-response,129,185730,0.0-10.0-0.54,"""event"",""trial"",""time""
""blur"",""0"",""0""
""focus"",""0"",""7762""
""fullscreenenter"",""0"",""9075""
""blur"",""3"",""30939""
""fullscreenexit"",""3"",""35171""
""focus"",""3"",""35179""
","""event"",""trial"",""time""
""blur"",""0"",""0""
""blur"",""3"",""30939""
","""event"",""trial"",""time""
""focus"",""0"",""7762""
""focus"",""3"",""35179""
","""event"",""trial"",""time""
""fullscreenenter"",""0"",""9075""
","""event"",""trial"",""time""
""fullscreenexit"",""3"",""35171""
",null,"<div style=""font-size:60px;"">+</div>",NA,null,fixation,2020-07-01T21:41:30Z,NA,NA,NA,NA,NA,sub100
NA,mars-trial,130,187255,0.0-10.0-1.54,"""event"",""trial"",""time""
""blur"",""0"",""0""
""focus"",""0"",""7762""
""fullscreenenter"",""0"",""9075""
""blur"",""3"",""30939""
""fullscreenexit"",""3"",""35171""
""focus"",""3"",""35179""
","""event"",""trial"",""time""
""blur"",""0"",""0""
""blur"",""3"",""30939""
","""event"",""trial"",""time""
""focus"",""0"",""7762""
""focus"",""3"",""35179""
","""event"",""trial"",""time""
""fullscreenenter"",""0"",""9075""
","""event"",""trial"",""time""
""fullscreenexit"",""3"",""35171""
",913.2900000003865,<img style='border: 4px solid darkgrey;' src='img/tf1_55_M_ss3.jpeg'></img>,3,NA,exp,NA,3,<img src='img/tf1_55_T1_ss3_md.jpeg'></img>,0,FALSE,NA,sub100
NA,html-keyboard-response,131,187759,0.0-10.0-0.55,"""event"",""trial"",""time""
""blur"",""0"",""0""
""focus"",""0"",""7762""
""fullscreenenter"",""0"",""9075""
""blur"",""3"",""30939""
""fullscreenexit"",""3"",""35171""
""focus"",""3"",""35179""
","""event"",""trial"",""time""
""blur"",""0"",""0""
""blur"",""3"",""30939""
","""event"",""trial"",""time""
""focus"",""0"",""7762""
""focus"",""3"",""35179""
","""event"",""trial"",""time""
""fullscreenenter"",""0"",""9075""
","""event"",""trial"",""time""
""fullscreenexit"",""3"",""35171""
",null,"<div style=""font-size:60px;"">+</div>",NA,null,fixation,2020-07-01T21:41:32Z,NA,NA,NA,NA,NA,sub100
NA,mars-trial,132,188708,0.0-10.0-1.55,"""event"",""trial"",""time""
""blur"",""0"",""0""
""focus"",""0"",""7762""
""fullscreenenter"",""0"",""9075""
""blur"",""3"",""30939""
""fullscreenexit"",""3"",""35171""
""focus"",""3"",""35179""
","""event"",""trial"",""time""
""blur"",""0"",""0""
""blur"",""3"",""30939""
","""event"",""trial"",""time""
""focus"",""0"",""7762""
""focus"",""3"",""35179""
","""event"",""trial"",""time""
""fullscreenenter"",""0"",""9075""
","""event"",""trial"",""time""
""fullscreenexit"",""3"",""35171""
",337.14499999952386,<img style='border: 4px solid darkgrey;' src='img/tf1_56_M_ss1.jpeg'></img>,0,NA,exp,NA,3,<img src='img/tf1_56_T1_ss1_md.jpeg'></img>,0,FALSE,NA,sub100
NA,html-keyboard-response,133,189210,0.0-10.0-0.56,"""event"",""trial"",""time""
""blur"",""0"",""0""
""focus"",""0"",""7762""
""fullscreenenter"",""0"",""9075""
""blur"",""3"",""30939""
""fullscreenexit"",""3"",""35171""
""focus"",""3"",""35179""
","""event"",""trial"",""time""
""blur"",""0"",""0""
""blur"",""3"",""30939""
","""event"",""trial"",""time""
""focus"",""0"",""7762""
""focus"",""3"",""35179""
","""event"",""trial"",""time""
""fullscreenenter"",""0"",""9075""
","""event"",""trial"",""time""
""fullscreenexit"",""3"",""35171""
",null,"<div style=""font-size:60px;"">+</div>",NA,null,fixation,2020-07-01T21:41:34Z,NA,NA,NA,NA,NA,sub100
NA,mars-trial,134,190299,0.0-10.0-1.56,"""event"",""trial"",""time""
""blur"",""0"",""0""
""focus"",""0"",""7762""
""fullscreenenter"",""0"",""9075""
""blur"",""3"",""30939""
""fullscreenexit"",""3"",""35171""
""focus"",""3"",""35179""
","""event"",""trial"",""time""
""blur"",""0"",""0""
""blur"",""3"",""30939""
","""event"",""trial"",""time""
""focus"",""0"",""7762""
""focus"",""3"",""35179""
","""event"",""trial"",""time""
""fullscreenenter"",""0"",""9075""
","""event"",""trial"",""time""
""fullscreenexit"",""3"",""35171""
",479.34499999973923,<img style='border: 4px solid darkgrey;' src='img/tf1_57_M_ss2.jpeg'></img>,3,NA,exp,NA,0,<img src='img/tf1_57_T1_ss2_md.jpeg'></img>,0,TRUE,NA,sub100
NA,html-keyboard-response,135,190802,0.0-10.0-0.57,"""event"",""trial"",""time""
""blur"",""0"",""0""
""focus"",""0"",""7762""
""fullscreenenter"",""0"",""9075""
""blur"",""3"",""30939""
""fullscreenexit"",""3"",""35171""
""focus"",""3"",""35179""
","""event"",""trial"",""time""
""blur"",""0"",""0""
""blur"",""3"",""30939""
","""event"",""trial"",""time""
""focus"",""0"",""7762""
""focus"",""3"",""35179""
","""event"",""trial"",""time""
""fullscreenenter"",""0"",""9075""
","""event"",""trial"",""time""
""fullscreenexit"",""3"",""35171""
",null,"<div style=""font-size:60px;"">+</div>",NA,null,fixation,2020-07-01T21:41:36Z,NA,NA,NA,NA,NA,sub100
NA,mars-trial,136,192423,0.0-10.0-1.57,"""event"",""trial"",""time""
""blur"",""0"",""0""
""focus"",""0"",""7762""
""fullscreenenter"",""0"",""9075""
""blur"",""3"",""30939""
""fullscreenexit"",""3"",""35171""
""focus"",""3"",""35179""
","""event"",""trial"",""time""
""blur"",""0"",""0""
""blur"",""3"",""30939""
","""event"",""trial"",""time""
""focus"",""0"",""7762""
""focus"",""3"",""35179""
","""event"",""trial"",""time""
""fullscreenenter"",""0"",""9075""
","""event"",""trial"",""time""
""fullscreenexit"",""3"",""35171""
",1007.0649999997695,<img style='border: 4px solid darkgrey;' src='img/tf1_58_M_ss3.jpeg'></img>,3,NA,exp,NA,0,<img src='img/tf1_58_T1_ss3_md.jpeg'></img>,0,TRUE,NA,sub100
NA,html-keyboard-response,137,192926,0.0-10.0-0.58,"""event"",""trial"",""time""
""blur"",""0"",""0""
""focus"",""0"",""7762""
""fullscreenenter"",""0"",""9075""
""blur"",""3"",""30939""
""fullscreenexit"",""3"",""35171""
""focus"",""3"",""35179""
","""event"",""trial"",""time""
""blur"",""0"",""0""
""blur"",""3"",""30939""
","""event"",""trial"",""time""
""focus"",""0"",""7762""
""focus"",""3"",""35179""
","""event"",""trial"",""time""
""fullscreenenter"",""0"",""9075""
","""event"",""trial"",""time""
""fullscreenexit"",""3"",""35171""
",null,"<div style=""font-size:60px;"">+</div>",NA,null,fixation,2020-07-01T21:41:38Z,NA,NA,NA,NA,NA,sub100
NA,mars-trial,138,194857,0.0-10.0-1.58,"""event"",""trial"",""time""
""blur"",""0"",""0""
""focus"",""0"",""7762""
""fullscreenenter"",""0"",""9075""
""blur"",""3"",""30939""
""fullscreenexit"",""3"",""35171""
""focus"",""3"",""35179""
","""event"",""trial"",""time""
""blur"",""0"",""0""
""blur"",""3"",""30939""
","""event"",""trial"",""time""
""focus"",""0"",""7762""
""focus"",""3"",""35179""
","""event"",""trial"",""time""
""fullscreenenter"",""0"",""9075""
","""event"",""trial"",""time""
""fullscreenexit"",""3"",""35171""
",1320.0450000003912,<img style='border: 4px solid darkgrey;' src='img/tf1_59_M_ss1.jpeg'></img>,0,NA,exp,NA,2,<img src='img/tf1_59_T1_ss1_md.jpeg'></img>,0,FALSE,NA,sub100
NA,html-keyboard-response,139,195359,0.0-10.0-0.59,"""event"",""trial"",""time""
""blur"",""0"",""0""
""focus"",""0"",""7762""
""fullscreenenter"",""0"",""9075""
""blur"",""3"",""30939""
""fullscreenexit"",""3"",""35171""
""focus"",""3"",""35179""
","""event"",""trial"",""time""
""blur"",""0"",""0""
""blur"",""3"",""30939""
","""event"",""trial"",""time""
""focus"",""0"",""7762""
""focus"",""3"",""35179""
","""event"",""trial"",""time""
""fullscreenenter"",""0"",""9075""
","""event"",""trial"",""time""
""fullscreenexit"",""3"",""35171""
",null,"<div style=""font-size:60px;"">+</div>",NA,null,fixation,2020-07-01T21:41:40Z,NA,NA,NA,NA,NA,sub100
NA,mars-trial,140,198485,0.0-10.0-1.59,"""event"",""trial"",""time""
""blur"",""0"",""0""
""focus"",""0"",""7762""
""fullscreenenter"",""0"",""9075""
""blur"",""3"",""30939""
""fullscreenexit"",""3"",""35171""
""focus"",""3"",""35179""
","""event"",""trial"",""time""
""blur"",""0"",""0""
""blur"",""3"",""30939""
","""event"",""trial"",""time""
""focus"",""0"",""7762""
""focus"",""3"",""35179""
","""event"",""trial"",""time""
""fullscreenenter"",""0"",""9075""
","""event"",""trial"",""time""
""fullscreenexit"",""3"",""35171""
",2514.664999998815,<img style='border: 4px solid darkgrey;' src='img/tf1_60_M_ss2.jpeg'></img>,3,NA,exp,NA,2,<img src='img/tf1_60_T1_ss2_md.jpeg'></img>,0,FALSE,NA,sub100
NA,html-keyboard-response,141,198989,0.0-10.0-0.60,"""event"",""trial"",""time""
""blur"",""0"",""0""
""focus"",""0"",""7762""
""fullscreenenter"",""0"",""9075""
""blur"",""3"",""30939""
""fullscreenexit"",""3"",""35171""
""focus"",""3"",""35179""
","""event"",""trial"",""time""
""blur"",""0"",""0""
""blur"",""3"",""30939""
","""event"",""trial"",""time""
""focus"",""0"",""7762""
""focus"",""3"",""35179""
","""event"",""trial"",""time""
""fullscreenenter"",""0"",""9075""
","""event"",""trial"",""time""
""fullscreenexit"",""3"",""35171""
",null,"<div style=""font-size:60px;"">+</div>",NA,null,fixation,2020-07-01T21:41:44Z,NA,NA,NA,NA,NA,sub100
NA,mars-trial,142,200459,0.0-10.0-1.60,"""event"",""trial"",""time""
""blur"",""0"",""0""
""focus"",""0"",""7762""
""fullscreenenter"",""0"",""9075""
""blur"",""3"",""30939""
""fullscreenexit"",""3"",""35171""
""focus"",""3"",""35179""
","""event"",""trial"",""time""
""blur"",""0"",""0""
""blur"",""3"",""30939""
","""event"",""trial"",""time""
""focus"",""0"",""7762""
""focus"",""3"",""35179""
","""event"",""trial"",""time""
""fullscreenenter"",""0"",""9075""
","""event"",""trial"",""time""
""fullscreenexit"",""3"",""35171""
",856.1699999991106,<img style='border: 4px solid darkgrey;' src='img/tf1_61_M_ss3.jpeg'></img>,0,NA,exp,NA,0,<img src='img/tf1_61_T1_ss3_md.jpeg'></img>,0,TRUE,NA,sub100
NA,html-keyboard-response,143,200963,0.0-10.0-0.61,"""event"",""trial"",""time""
""blur"",""0"",""0""
""focus"",""0"",""7762""
""fullscreenenter"",""0"",""9075""
""blur"",""3"",""30939""
""fullscreenexit"",""3"",""35171""
""focus"",""3"",""35179""
","""event"",""trial"",""time""
""blur"",""0"",""0""
""blur"",""3"",""30939""
","""event"",""trial"",""time""
""focus"",""0"",""7762""
""focus"",""3"",""35179""
","""event"",""trial"",""time""
""fullscreenenter"",""0"",""9075""
","""event"",""trial"",""time""
""fullscreenexit"",""3"",""35171""
",null,"<div style=""font-size:60px;"">+</div>",NA,null,fixation,2020-07-01T21:41:46Z,NA,NA,NA,NA,NA,sub100
NA,mars-trial,144,202124,0.0-10.0-1.61,"""event"",""trial"",""time""
""blur"",""0"",""0""
""focus"",""0"",""7762""
""fullscreenenter"",""0"",""9075""
""blur"",""3"",""30939""
""fullscreenexit"",""3"",""35171""
""focus"",""3"",""35179""
","""event"",""trial"",""time""
""blur"",""0"",""0""
""blur"",""3"",""30939""
","""event"",""trial"",""time""
""focus"",""0"",""7762""
""focus"",""3"",""35179""
","""event"",""trial"",""time""
""fullscreenenter"",""0"",""9075""
","""event"",""trial"",""time""
""fullscreenexit"",""3"",""35171""
",547.5200000000768,<img style='border: 4px solid darkgrey;' src='img/tf1_62_M_ss1.jpeg'></img>,0,NA,exp,NA,0,<img src='img/tf1_62_T1_ss1_md.jpeg'></img>,0,TRUE,NA,sub100
NA,html-keyboard-response,145,202627,0.0-10.0-0.62,"""event"",""trial"",""time""
""blur"",""0"",""0""
""focus"",""0"",""7762""
""fullscreenenter"",""0"",""9075""
""blur"",""3"",""30939""
""fullscreenexit"",""3"",""35171""
""focus"",""3"",""35179""
