success,trial_type,trial_index,time_elapsed,internal_node_id,interactions,blur_events,focus_events,fullscreenenter_events,fullscreenexit_events,rt,stimulus,button_pressed,key_press,part,timestamp,unshuffled_button,correct_response,correct_button,correct,value,subject_id
TRUE,fullscreen,0,3798,0.0-0.0,"""event"",""trial"",""time""
""fullscreenenter"",""0"",""2831""
","
","
","""event"",""trial"",""time""
""fullscreenenter"",""0"",""2831""
","
",NA,NA,NA,NA,NA,NA,NA,NA,NA,NA,NA,sub14
NA,pavlovia,1,3809,0.0-1.0,"""event"",""trial"",""time""
""fullscreenenter"",""0"",""2831""
","
","
","""event"",""trial"",""time""
""fullscreenenter"",""0"",""2831""
","
",NA,NA,NA,NA,NA,NA,NA,NA,NA,NA,NA,sub14
NA,html-button-response,2,5454,0.0-2.0,"""event"",""trial"",""time""
""fullscreenenter"",""0"",""2831""
","
","
","""event"",""trial"",""time""
""fullscreenenter"",""0"",""2831""
","
",1640.2000000234693,<p>Welcome! Press START to begin.</p><br>,0,NA,NA,NA,NA,NA,NA,NA,NA,sub14
NA,audio-button-response,3,17072,0.0-3.0,"""event"",""trial"",""time""
""fullscreenenter"",""0"",""2831""
","
","
","""event"",""trial"",""time""
""fullscreenenter"",""0"",""2831""
","
",11613.944999873638,audio/mars_instructions_slide2.wav,0,NA,NA,NA,NA,NA,NA,NA,NA,sub14
NA,audio-button-response,4,19851,0.0-4.0,"""event"",""trial"",""time""
""fullscreenenter"",""0"",""2831""
","
","
","""event"",""trial"",""time""
""fullscreenenter"",""0"",""2831""
","
",2777.785000158474,audio/mars_instructions_slide3.wav,0,NA,NA,NA,NA,NA,NA,NA,NA,sub14
NA,html-keyboard-response,5,20355,0.0-5.0-0.0,"""event"",""trial"",""time""
""fullscreenenter"",""0"",""2831""
","
","
","""event"",""trial"",""time""
""fullscreenenter"",""0"",""2831""
","
",null,"<div style=""font-size:60px;"">+</div>",NA,null,fixation,2020-06-10T19:51:25Z,NA,NA,NA,NA,NA,sub14
NA,mars-trial,6,28989,0.0-5.0-1.0,"""event"",""trial"",""time""
""fullscreenenter"",""0"",""2831""
","
","
","""event"",""trial"",""time""
""fullscreenenter"",""0"",""2831""
","
",6525.804999982938,<img style='border: 4px solid darkgrey;' src='practice/pt1_M1.png'></img>,3,NA,practice,NA,0,<img src='practice/pt1_T1.png'></img>,0,TRUE,NA,sub14
NA,html-keyboard-response,7,29493,0.0-6.0-0.0,"""event"",""trial"",""time""
""fullscreenenter"",""0"",""2831""
","
","
","""event"",""trial"",""time""
""fullscreenenter"",""0"",""2831""
","
",null,"<div style=""font-size:60px;"">+</div>",NA,null,fixation,2020-06-10T19:51:35Z,NA,NA,NA,NA,NA,sub14
NA,mars-trial,8,34887,0.0-6.0-1.0,"""event"",""trial"",""time""
""fullscreenenter"",""0"",""2831""
","
","
","""event"",""trial"",""time""
""fullscreenenter"",""0"",""2831""
","
",3287.800000049174,<img style='border: 4px solid darkgrey;' src='practice/pt2_M1.png'></img>,0,NA,practice,NA,0,<img src='practice/pt2_T1.png'></img>,0,TRUE,NA,sub14
NA,html-keyboard-response,9,35389,0.0-7.0-0.0,"""event"",""trial"",""time""
""fullscreenenter"",""0"",""2831""
","
","
","""event"",""trial"",""time""
""fullscreenenter"",""0"",""2831""
","
",null,"<div style=""font-size:60px;"">+</div>",NA,null,fixation,2020-06-10T19:51:40Z,NA,NA,NA,NA,NA,sub14
NA,mars-trial,10,40079,0.0-7.0-1.0,"""event"",""trial"",""time""
""fullscreenenter"",""0"",""2831""
","
","
","""event"",""trial"",""time""
""fullscreenenter"",""0"",""2831""
","
",2578.819999936968,<img style='border: 4px solid darkgrey;' src='practice/pt3_M1.png'></img>,2,NA,practice,NA,0,<img src='practice/pt3_T1.png'></img>,0,TRUE,NA,sub14
NA,audio-button-response,11,42789,0.0-8.0,"""event"",""trial"",""time""
""fullscreenenter"",""0"",""2831""
","
","
","""event"",""trial"",""time""
""fullscreenenter"",""0"",""2831""
","
",2708.1449998077005,audio/mars_instructions_slide4.wav,0,NA,NA,NA,NA,NA,NA,NA,NA,sub14
NA,call-function,12,42791,0.0-9.0,"""event"",""trial"",""time""
""fullscreenenter"",""0"",""2831""
","
","
","""event"",""trial"",""time""
""fullscreenenter"",""0"",""2831""
","
",NA,NA,NA,NA,NA,NA,NA,NA,NA,NA,NA,sub14
NA,html-keyboard-response,13,43293,0.0-10.0-0.0,"""event"",""trial"",""time""
""fullscreenenter"",""0"",""2831""
","
","
","""event"",""trial"",""time""
""fullscreenenter"",""0"",""2831""
","
",null,"<div style=""font-size:60px;"">+</div>",NA,null,fixation,2020-06-10T19:51:48Z,NA,NA,NA,NA,NA,sub14
NA,mars-trial,14,46692,0.0-10.0-1.0,"""event"",""trial"",""time""
""fullscreenenter"",""0"",""2831""
","
","
","""event"",""trial"",""time""
""fullscreenenter"",""0"",""2831""
","
",2792.5600002054125,<img style='border: 4px solid darkgrey;' src='img/tf1_1_M_ss3.jpeg'></img>,0,NA,exp,NA,0,<img src='img/tf1_1_T1_ss3_md.jpeg'></img>,0,TRUE,NA,sub14
NA,html-keyboard-response,15,47195,0.0-10.0-0.1,"""event"",""trial"",""time""
""fullscreenenter"",""0"",""2831""
","
","
","""event"",""trial"",""time""
""fullscreenenter"",""0"",""2831""
","
",null,"<div style=""font-size:60px;"">+</div>",NA,null,fixation,2020-06-10T19:51:52Z,NA,NA,NA,NA,NA,sub14
NA,mars-trial,16,51391,0.0-10.0-1.1,"""event"",""trial"",""time""
""fullscreenenter"",""0"",""2831""
","
","
","""event"",""trial"",""time""
""fullscreenenter"",""0"",""2831""
","
",3588.789999950677,<img style='border: 4px solid darkgrey;' src='img/tf1_2_M_ss1.jpeg'></img>,1,NA,exp,NA,0,<img src='img/tf1_2_T1_ss1_md.jpeg'></img>,0,TRUE,NA,sub14
NA,html-keyboard-response,17,51893,0.0-10.0-0.2,"""event"",""trial"",""time""
""fullscreenenter"",""0"",""2831""
","
","
","""event"",""trial"",""time""
""fullscreenenter"",""0"",""2831""
","
",null,"<div style=""font-size:60px;"">+</div>",NA,null,fixation,2020-06-10T19:51:57Z,NA,NA,NA,NA,NA,sub14
NA,mars-trial,18,55000,0.0-10.0-1.2,"""event"",""trial"",""time""
""fullscreenenter"",""0"",""2831""
","
","
","""event"",""trial"",""time""
""fullscreenenter"",""0"",""2831""
","
",2499.3749998975545,<img style='border: 4px solid darkgrey;' src='img/tf1_3_M_ss2.jpeg'></img>,3,NA,exp,NA,0,<img src='img/tf1_3_T1_ss2_md.jpeg'></img>,0,TRUE,NA,sub14
NA,html-keyboard-response,19,55502,0.0-10.0-0.3,"""event"",""trial"",""time""
""fullscreenenter"",""0"",""2831""
","
","
","""event"",""trial"",""time""
""fullscreenenter"",""0"",""2831""
","
",null,"<div style=""font-size:60px;"">+</div>",NA,null,fixation,2020-06-10T19:52:01Z,NA,NA,NA,NA,NA,sub14
NA,mars-trial,20,60455,0.0-10.0-1.3,"""event"",""trial"",""time""
""fullscreenenter"",""0"",""2831""
","
","
","""event"",""trial"",""time""
""fullscreenenter"",""0"",""2831""
","
",4346.794999903068,<img style='border: 4px solid darkgrey;' src='img/tf1_4_M_ss3.jpeg'></img>,1,NA,exp,NA,0,<img src='img/tf1_4_T1_ss3_md.jpeg'></img>,0,TRUE,NA,sub14
NA,html-keyboard-response,21,60957,0.0-10.0-0.4,"""event"",""trial"",""time""
""fullscreenenter"",""0"",""2831""
","
","
","""event"",""trial"",""time""
""fullscreenenter"",""0"",""2831""
","
",null,"<div style=""font-size:60px;"">+</div>",NA,null,fixation,2020-06-10T19:52:06Z,NA,NA,NA,NA,NA,sub14
NA,mars-trial,22,63401,0.0-10.0-1.4,"""event"",""trial"",""time""
""fullscreenenter"",""0"",""2831""
","
","
","""event"",""trial"",""time""
""fullscreenenter"",""0"",""2831""
","
",1834.2399999964982,<img style='border: 4px solid darkgrey;' src='img/tf1_5_M_ss1.jpeg'></img>,2,NA,exp,NA,0,<img src='img/tf1_5_T1_ss1_md.jpeg'></img>,0,TRUE,NA,sub14
NA,html-keyboard-response,23,63903,0.0-10.0-0.5,"""event"",""trial"",""time""
""fullscreenenter"",""0"",""2831""
","
","
","""event"",""trial"",""time""
""fullscreenenter"",""0"",""2831""
","
",null,"<div style=""font-size:60px;"">+</div>",NA,null,fixation,2020-06-10T19:52:09Z,NA,NA,NA,NA,NA,sub14
NA,mars-trial,24,69008,0.0-10.0-1.5,"""event"",""trial"",""time""
""fullscreenenter"",""0"",""2831""
","
","
","""event"",""trial"",""time""
""fullscreenenter"",""0"",""2831""
","
",4499.91500005126,<img style='border: 4px solid darkgrey;' src='img/tf1_6_M_ss2.jpeg'></img>,2,NA,exp,NA,1,<img src='img/tf1_6_T1_ss2_md.jpeg'></img>,0,FALSE,NA,sub14
NA,html-keyboard-response,25,69511,0.0-10.0-0.6,"""event"",""trial"",""time""
""fullscreenenter"",""0"",""2831""
","
","
","""event"",""trial"",""time""
""fullscreenenter"",""0"",""2831""
","
",null,"<div style=""font-size:60px;"">+</div>",NA,null,fixation,2020-06-10T19:52:15Z,NA,NA,NA,NA,NA,sub14
NA,mars-trial,26,74833,0.0-10.0-1.6,"""event"",""trial"",""time""
""fullscreenenter"",""0"",""2831""
","
","
","""event"",""trial"",""time""
""fullscreenenter"",""0"",""2831""
","
",4713.384999893606,<img style='border: 4px solid darkgrey;' src='img/tf1_7_M_ss3.jpeg'></img>,1,NA,exp,NA,0,<img src='img/tf1_7_T1_ss3_md.jpeg'></img>,0,TRUE,NA,sub14
NA,html-keyboard-response,27,75336,0.0-10.0-0.7,"""event"",""trial"",""time""
""fullscreenenter"",""0"",""2831""
","
","
","""event"",""trial"",""time""
""fullscreenenter"",""0"",""2831""
","
",null,"<div style=""font-size:60px;"">+</div>",NA,null,fixation,2020-06-10T19:52:20Z,NA,NA,NA,NA,NA,sub14
NA,mars-trial,28,81166,0.0-10.0-1.7,"""event"",""trial"",""time""
""fullscreenenter"",""0"",""2831""
","
","
","""event"",""trial"",""time""
""fullscreenenter"",""0"",""2831""
","
",5219.340000068769,<img style='border: 4px solid darkgrey;' src='img/tf1_8_M_ss1.jpeg'></img>,0,NA,exp,NA,0,<img src='img/tf1_8_T1_ss1_md.jpeg'></img>,0,TRUE,NA,sub14
NA,html-keyboard-response,29,81667,0.0-10.0-0.8,"""event"",""trial"",""time""
""fullscreenenter"",""0"",""2831""
","
","
","""event"",""trial"",""time""
""fullscreenenter"",""0"",""2831""
","
",null,"<div style=""font-size:60px;"">+</div>",NA,null,fixation,2020-06-10T19:52:27Z,NA,NA,NA,NA,NA,sub14
NA,mars-trial,30,89070,0.0-10.0-1.8,"""event"",""trial"",""time""
""fullscreenenter"",""0"",""2831""
","
","
","""event"",""trial"",""time""
""fullscreenenter"",""0"",""2831""
","
",6792.53500001505,<img style='border: 4px solid darkgrey;' src='img/tf1_9_M_ss2.jpeg'></img>,3,NA,exp,NA,0,<img src='img/tf1_9_T1_ss2_md.jpeg'></img>,0,TRUE,NA,sub14
NA,html-keyboard-response,31,89572,0.0-10.0-0.9,"""event"",""trial"",""time""
""fullscreenenter"",""0"",""2831""
","
","
","""event"",""trial"",""time""
""fullscreenenter"",""0"",""2831""
","
",null,"<div style=""font-size:60px;"">+</div>",NA,null,fixation,2020-06-10T19:52:35Z,NA,NA,NA,NA,NA,sub14
NA,mars-trial,32,108792,0.0-10.0-1.9,"""event"",""trial"",""time""
""fullscreenenter"",""0"",""2831""
","
","
","""event"",""trial"",""time""
""fullscreenenter"",""0"",""2831""
","
",18613.3550000377,<img style='border: 4px solid darkgrey;' src='img/tf1_10_M_ss3.jpeg'></img>,0,NA,exp,NA,0,<img src='img/tf1_10_T1_ss3_md.jpeg'></img>,0,TRUE,NA,sub14
NA,html-keyboard-response,33,109294,0.0-10.0-0.10,"""event"",""trial"",""time""
""fullscreenenter"",""0"",""2831""
","
","
","""event"",""trial"",""time""
""fullscreenenter"",""0"",""2831""
","
",null,"<div style=""font-size:60px;"">+</div>",NA,null,fixation,2020-06-10T19:52:54Z,NA,NA,NA,NA,NA,sub14
NA,mars-trial,34,125576,0.0-10.0-1.10,"""event"",""trial"",""time""
""fullscreenenter"",""0"",""2831""
","
","
","""event"",""trial"",""time""
""fullscreenenter"",""0"",""2831""
","
",15674.64999994263,<img style='border: 4px solid darkgrey;' src='img/tf1_11_M_ss1.jpeg'></img>,3,NA,exp,NA,0,<img src='img/tf1_11_T1_ss1_md.jpeg'></img>,0,TRUE,NA,sub14
NA,html-keyboard-response,35,126078,0.0-10.0-0.11,"""event"",""trial"",""time""
""fullscreenenter"",""0"",""2831""
","
","
","""event"",""trial"",""time""
""fullscreenenter"",""0"",""2831""
","
",null,"<div style=""font-size:60px;"">+</div>",NA,null,fixation,2020-06-10T19:53:11Z,NA,NA,NA,NA,NA,sub14
NA,mars-trial,36,133256,0.0-10.0-1.11,"""event"",""trial"",""time""
""fullscreenenter"",""0"",""2831""
","
","
","""event"",""trial"",""time""
""fullscreenenter"",""0"",""2831""
","
",6570.7499999552965,<img style='border: 4px solid darkgrey;' src='img/tf1_12_M_ss2.jpeg'></img>,3,NA,exp,NA,1,<img src='img/tf1_12_T1_ss2_md.jpeg'></img>,0,FALSE,NA,sub14
NA,html-keyboard-response,37,133758,0.0-10.0-0.12,"""event"",""trial"",""time""
""fullscreenenter"",""0"",""2831""
","
","
","""event"",""trial"",""time""
""fullscreenenter"",""0"",""2831""
","
",null,"<div style=""font-size:60px;"">+</div>",NA,null,fixation,2020-06-10T19:53:19Z,NA,NA,NA,NA,NA,sub14
NA,mars-trial,38,140271,0.0-10.0-1.12,"""event"",""trial"",""time""
""fullscreenenter"",""0"",""2831""
","
","
","""event"",""trial"",""time""
""fullscreenenter"",""0"",""2831""
","
",5903.554999968037,<img style='border: 4px solid darkgrey;' src='img/tf1_13_M_ss3.jpeg'></img>,3,NA,exp,NA,2,<img src='img/tf1_13_T1_ss3_md.jpeg'></img>,0,FALSE,NA,sub14
NA,html-keyboard-response,39,140774,0.0-10.0-0.13,"""event"",""trial"",""time""
""fullscreenenter"",""0"",""2831""
","
","
","""event"",""trial"",""time""
""fullscreenenter"",""0"",""2831""
","
",null,"<div style=""font-size:60px;"">+</div>",NA,null,fixation,2020-06-10T19:53:26Z,NA,NA,NA,NA,NA,sub14
NA,mars-trial,40,142032,0.0-10.0-1.13,"""event"",""trial"",""time""
""fullscreenenter"",""0"",""2831""
","
","
","""event"",""trial"",""time""
""fullscreenenter"",""0"",""2831""
","
",646.2099999189377,<img style='border: 4px solid darkgrey;' src='img/tf1_14_M_ss1.jpeg'></img>,3,NA,exp,NA,2,<img src='img/tf1_14_T1_ss1_md.jpeg'></img>,0,FALSE,NA,sub14
NA,html-keyboard-response,41,142533,0.0-10.0-0.14,"""event"",""trial"",""time""
""fullscreenenter"",""0"",""2831""
","
","
","""event"",""trial"",""time""
""fullscreenenter"",""0"",""2831""
","
",null,"<div style=""font-size:60px;"">+</div>",NA,null,fixation,2020-06-10T19:53:28Z,NA,NA,NA,NA,NA,sub14
NA,mars-trial,42,171741,0.0-10.0-1.14,"""event"",""trial"",""time""
""fullscreenenter"",""0"",""2831""
","
","
","""event"",""trial"",""time""
""fullscreenenter"",""0"",""2831""
","
",28600.435000145808,<img style='border: 4px solid darkgrey;' src='img/tf1_15_M_ss2.jpeg'></img>,0,NA,exp,NA,3,<img src='img/tf1_15_T1_ss2_md.jpeg'></img>,0,FALSE,NA,sub14
NA,html-keyboard-response,43,172243,0.0-10.0-0.15,"""event"",""trial"",""time""
""fullscreenenter"",""0"",""2831""
","
","
","""event"",""trial"",""time""
""fullscreenenter"",""0"",""2831""
","
",null,"<div style=""font-size:60px;"">+</div>",NA,null,fixation,2020-06-10T19:53:57Z,NA,NA,NA,NA,NA,sub14
NA,mars-trial,44,180396,0.0-10.0-1.15,"""event"",""trial"",""time""
""fullscreenenter"",""0"",""2831""
","
","
","""event"",""trial"",""time""
""fullscreenenter"",""0"",""2831""
","
",7545.355000067502,<img style='border: 4px solid darkgrey;' src='img/tf1_16_M_ss3.jpeg'></img>,3,NA,exp,NA,0,<img src='img/tf1_16_T1_ss3_md.jpeg'></img>,0,TRUE,NA,sub14
NA,html-keyboard-response,45,180899,0.0-10.0-0.16,"""event"",""trial"",""time""
""fullscreenenter"",""0"",""2831""
","
","
","""event"",""trial"",""time""
""fullscreenenter"",""0"",""2831""
","
",null,"<div style=""font-size:60px;"">+</div>",NA,null,fixation,2020-06-10T19:54:06Z,NA,NA,NA,NA,NA,sub14
NA,mars-trial,46,196093,0.0-10.0-1.16,"""event"",""trial"",""time""
""fullscreenenter"",""0"",""2831""
","
","
","""event"",""trial"",""time""
""fullscreenenter"",""0"",""2831""
","
",14585.350000066683,<img style='border: 4px solid darkgrey;' src='img/tf1_17_M_ss1.jpeg'></img>,1,NA,exp,NA,3,<img src='img/tf1_17_T1_ss1_md.jpeg'></img>,0,FALSE,NA,sub14
NA,html-keyboard-response,47,196595,0.0-10.0-0.17,"""event"",""trial"",""time""
""fullscreenenter"",""0"",""2831""
","
","
","""event"",""trial"",""time""
""fullscreenenter"",""0"",""2831""
","
",null,"<div style=""font-size:60px;"">+</div>",NA,null,fixation,2020-06-10T19:54:22Z,NA,NA,NA,NA,NA,sub14
NA,mars-trial,48,212606,0.0-10.0-1.17,"""event"",""trial"",""time""
""fullscreenenter"",""0"",""2831""
","
","
","""event"",""trial"",""time""
""fullscreenenter"",""0"",""2831""
","
",15404.139999998733,<img style='border: 4px solid darkgrey;' src='img/tf1_18_M_ss2.jpeg'></img>,3,NA,exp,NA,0,<img src='img/tf1_18_T1_ss2_md.jpeg'></img>,0,TRUE,NA,sub14
NA,html-keyboard-response,49,213108,0.0-10.0-0.18,"""event"",""trial"",""time""
""fullscreenenter"",""0"",""2831""
","
","
","""event"",""trial"",""time""
""fullscreenenter"",""0"",""2831""
","
",null,"<div style=""font-size:60px;"">+</div>",NA,null,fixation,2020-06-10T19:54:38Z,NA,NA,NA,NA,NA,sub14
NA,mars-trial,50,224051,0.0-10.0-1.18,"""event"",""trial"",""time""
""fullscreenenter"",""0"",""2831""
","
","
","""event"",""trial"",""time""
""fullscreenenter"",""0"",""2831""
","
",10331.740000052378,<img style='border: 4px solid darkgrey;' src='img/tf1_19_M_ss3.jpeg'></img>,0,NA,exp,NA,2,<img src='img/tf1_19_T1_ss3_md.jpeg'></img>,0,FALSE,NA,sub14
NA,html-keyboard-response,51,224557,0.0-10.0-0.19,"""event"",""trial"",""time""
""fullscreenenter"",""0"",""2831""
","
","
","""event"",""trial"",""time""
""fullscreenenter"",""0"",""2831""
","
",null,"<div style=""font-size:60px;"">+</div>",NA,null,fixation,2020-06-10T19:54:50Z,NA,NA,NA,NA,NA,sub14
NA,mars-trial,52,227850,0.0-10.0-1.19,"""event"",""trial"",""time""
""fullscreenenter"",""0"",""2831""
","
","
","""event"",""trial"",""time""
""fullscreenenter"",""0"",""2831""
","
",2686.774999834597,<img style='border: 4px solid darkgrey;' src='img/tf1_20_M_ss1.jpeg'></img>,0,NA,exp,NA,1,<img src='img/tf1_20_T1_ss1_md.jpeg'></img>,0,FALSE,NA,sub14
NA,html-keyboard-response,53,228354,0.0-10.0-0.20,"""event"",""trial"",""time""
""fullscreenenter"",""0"",""2831""
","
","
","""event"",""trial"",""time""
""fullscreenenter"",""0"",""2831""
","
",null,"<div style=""font-size:60px;"">+</div>",NA,null,fixation,2020-06-10T19:54:53Z,NA,NA,NA,NA,NA,sub14
NA,mars-trial,54,230514,0.0-10.0-1.20,"""event"",""trial"",""time""
""fullscreenenter"",""0"",""2831""
","
","
","""event"",""trial"",""time""
""fullscreenenter"",""0"",""2831""
","
",1553.139999974519,<img style='border: 4px solid darkgrey;' src='img/tf1_21_M_ss2.jpeg'></img>,2,NA,exp,NA,3,<img src='img/tf1_21_T1_ss2_md.jpeg'></img>,0,FALSE,NA,sub14
NA,html-keyboard-response,55,231015,0.0-10.0-0.21,"""event"",""trial"",""time""
""fullscreenenter"",""0"",""2831""
","
","
","""event"",""trial"",""time""
""fullscreenenter"",""0"",""2831""
","
",null,"<div style=""font-size:60px;"">+</div>",NA,null,fixation,2020-06-10T19:54:56Z,NA,NA,NA,NA,NA,sub14
NA,mars-trial,56,238649,0.0-10.0-1.21,"""event"",""trial"",""time""
""fullscreenenter"",""0"",""2831""
","
","
","""event"",""trial"",""time""
""fullscreenenter"",""0"",""2831""
","
",7026.160000124946,<img style='border: 4px solid darkgrey;' src='img/tf1_22_M_ss3.jpeg'></img>,2,NA,exp,NA,3,<img src='img/tf1_22_T1_ss3_md.jpeg'></img>,0,FALSE,NA,sub14
NA,html-keyboard-response,57,239152,0.0-10.0-0.22,"""event"",""trial"",""time""
""fullscreenenter"",""0"",""2831""
","
","
","""event"",""trial"",""time""
""fullscreenenter"",""0"",""2831""
","
",null,"<div style=""font-size:60px;"">+</div>",NA,null,fixation,2020-06-10T19:55:04Z,NA,NA,NA,NA,NA,sub14
NA,mars-trial,58,254707,0.0-10.0-1.22,"""event"",""trial"",""time""
""fullscreenenter"",""0"",""2831""
","
","
","""event"",""trial"",""time""
""fullscreenenter"",""0"",""2831""
","
",14946.570000145584,<img style='border: 4px solid darkgrey;' src='img/tf1_23_M_ss1.jpeg'></img>,3,NA,exp,NA,0,<img src='img/tf1_23_T1_ss1_md.jpeg'></img>,0,TRUE,NA,sub14
NA,html-keyboard-response,59,255210,0.0-10.0-0.23,"""event"",""trial"",""time""
""fullscreenenter"",""0"",""2831""
","
","
","""event"",""trial"",""time""
""fullscreenenter"",""0"",""2831""
","
",null,"<div style=""font-size:60px;"">+</div>",NA,null,fixation,2020-06-10T19:55:20Z,NA,NA,NA,NA,NA,sub14
NA,mars-trial,60,258540,0.0-10.0-1.23,"""event"",""trial"",""time""
""fullscreenenter"",""0"",""2831""
","
","
","""event"",""trial"",""time""
""fullscreenenter"",""0"",""2831""
","
",2722.5899999029934,<img style='border: 4px solid darkgrey;' src='img/tf1_24_M_ss2.jpeg'></img>,3,NA,exp,NA,3,<img src='img/tf1_24_T1_ss2_md.jpeg'></img>,0,FALSE,NA,sub14
NA,html-keyboard-response,61,259042,0.0-10.0-0.24,"""event"",""trial"",""time""
""fullscreenenter"",""0"",""2831""
","
","
","""event"",""trial"",""time""
""fullscreenenter"",""0"",""2831""
","
",null,"<div style=""font-size:60px;"">+</div>",NA,null,fixation,2020-06-10T19:55:24Z,NA,NA,NA,NA,NA,sub14
NA,mars-trial,62,261764,0.0-10.0-1.24,"""event"",""trial"",""time""
""fullscreenenter"",""0"",""2831""
","
","
","""event"",""trial"",""time""
""fullscreenenter"",""0"",""2831""
","
",2114.039999898523,<img style='border: 4px solid darkgrey;' src='img/tf1_25_M_ss3.jpeg'></img>,2,NA,exp,NA,0,<img src='img/tf1_25_T1_ss3_md.jpeg'></img>,0,TRUE,NA,sub14
NA,html-keyboard-response,63,262268,0.0-10.0-0.25,"""event"",""trial"",""time""
""fullscreenenter"",""0"",""2831""
","
","
","""event"",""trial"",""time""
""fullscreenenter"",""0"",""2831""
","
",null,"<div style=""font-size:60px;"">+</div>",NA,null,fixation,2020-06-10T19:55:27Z,NA,NA,NA,NA,NA,sub14
NA,mars-trial,64,268569,0.0-10.0-1.25,"""event"",""trial"",""time""
""fullscreenenter"",""0"",""2831""
","
","
","""event"",""trial"",""time""
""fullscreenenter"",""0"",""2831""
","
",5694.10500000231,<img style='border: 4px solid darkgrey;' src='img/tf1_26_M_ss1.jpeg'></img>,2,NA,exp,NA,0,<img src='img/tf1_26_T1_ss1_md.jpeg'></img>,0,TRUE,NA,sub14
NA,html-keyboard-response,65,269070,0.0-10.0-0.26,"""event"",""trial"",""time""
""fullscreenenter"",""0"",""2831""
","
","
","""event"",""trial"",""time""
""fullscreenenter"",""0"",""2831""
","
",null,"<div style=""font-size:60px;"">+</div>",NA,null,fixation,2020-06-10T19:55:34Z,NA,NA,NA,NA,NA,sub14
NA,mars-trial,66,277198,0.0-10.0-1.26,"""event"",""trial"",""time""
""fullscreenenter"",""0"",""2831""
","
","
","""event"",""trial"",""time""
""fullscreenenter"",""0"",""2831""
","
",7518.86499999091,<img style='border: 4px solid darkgrey;' src='img/tf1_27_M_ss2.jpeg'></img>,2,NA,exp,NA,3,<img src='img/tf1_27_T1_ss2_md.jpeg'></img>,0,FALSE,NA,sub14
NA,html-keyboard-response,67,277700,0.0-10.0-0.27,"""event"",""trial"",""time""
""fullscreenenter"",""0"",""2831""
","
","
","""event"",""trial"",""time""
""fullscreenenter"",""0"",""2831""
","
",null,"<div style=""font-size:60px;"">+</div>",NA,null,fixation,2020-06-10T19:55:43Z,NA,NA,NA,NA,NA,sub14
NA,mars-trial,68,286685,0.0-10.0-1.27,"""event"",""trial"",""time""
""fullscreenenter"",""0"",""2831""
","
","
","""event"",""trial"",""time""
""fullscreenenter"",""0"",""2831""
","
",8376.739999977872,<img style='border: 4px solid darkgrey;' src='img/tf1_28_M_ss3.jpeg'></img>,1,NA,exp,NA,0,<img src='img/tf1_28_T1_ss3_md.jpeg'></img>,0,TRUE,NA,sub14
NA,html-keyboard-response,69,287188,0.0-10.0-0.28,"""event"",""trial"",""time""
""fullscreenenter"",""0"",""2831""
","
","
","""event"",""trial"",""time""
""fullscreenenter"",""0"",""2831""
","
",null,"<div style=""font-size:60px;"">+</div>",NA,null,fixation,2020-06-10T19:55:52Z,NA,NA,NA,NA,NA,sub14
NA,mars-trial,70,303863,0.0-10.0-1.28,"""event"",""trial"",""time""
""fullscreenenter"",""0"",""2831""
","
","
","""event"",""trial"",""time""
""fullscreenenter"",""0"",""2831""
","
",16065.070000011474,<img style='border: 4px solid darkgrey;' src='img/tf1_29_M_ss1.jpeg'></img>,1,NA,exp,NA,2,<img src='img/tf1_29_T1_ss1_md.jpeg'></img>,0,FALSE,NA,sub14
NA,html-keyboard-response,71,304367,0.0-10.0-0.29,"""event"",""trial"",""time""
""fullscreenenter"",""0"",""2831""
","
","
","""event"",""trial"",""time""
""fullscreenenter"",""0"",""2831""
","
",null,"<div style=""font-size:60px;"">+</div>",NA,null,fixation,2020-06-10T19:56:09Z,NA,NA,NA,NA,NA,sub14
NA,mars-trial,72,307926,0.0-10.0-1.29,"""event"",""trial"",""time""
""fullscreenenter"",""0"",""2831""
","
","
","""event"",""trial"",""time""
""fullscreenenter"",""0"",""2831""
","
",2950.6699999328703,<img style='border: 4px solid darkgrey;' src='img/tf1_30_M_ss2.jpeg'></img>,2,NA,exp,NA,3,<img src='img/tf1_30_T1_ss2_md.jpeg'></img>,0,FALSE,NA,sub14
NA,html-keyboard-response,73,308431,0.0-10.0-0.30,"""event"",""trial"",""time""
""fullscreenenter"",""0"",""2831""
","
","
","""event"",""trial"",""time""
""fullscreenenter"",""0"",""2831""
","
",null,"<div style=""font-size:60px;"">+</div>",NA,null,fixation,2020-06-10T19:56:13Z,NA,NA,NA,NA,NA,sub14
NA,mars-trial,74,310531,0.0-10.0-1.30,"""event"",""trial"",""time""
""fullscreenenter"",""0"",""2831""
","
","
","""event"",""trial"",""time""
""fullscreenenter"",""0"",""2831""
","
",1495.0550000648946,<img style='border: 4px solid darkgrey;' src='img/tf1_31_M_ss3.jpeg'></img>,1,NA,exp,NA,1,<img src='img/tf1_31_T1_ss3_md.jpeg'></img>,0,FALSE,NA,sub14
NA,html-keyboard-response,75,311033,0.0-10.0-0.31,"""event"",""trial"",""time""
""fullscreenenter"",""0"",""2831""
","
","
","""event"",""trial"",""time""
""fullscreenenter"",""0"",""2831""
","
",null,"<div style=""font-size:60px;"">+</div>",NA,null,fixation,2020-06-10T19:56:16Z,NA,NA,NA,NA,NA,sub14
NA,mars-trial,76,312347,0.0-10.0-1.31,"""event"",""trial"",""time""
""fullscreenenter"",""0"",""2831""
","
","
","""event"",""trial"",""time""
""fullscreenenter"",""0"",""2831""
","
",686.5099999122322,<img style='border: 4px solid darkgrey;' src='img/tf1_32_M_ss1.jpeg'></img>,2,NA,exp,NA,3,<img src='img/tf1_32_T1_ss1_md.jpeg'></img>,0,FALSE,NA,sub14
NA,html-keyboard-response,77,312848,0.0-10.0-0.32,"""event"",""trial"",""time""
""fullscreenenter"",""0"",""2831""
","
","
","""event"",""trial"",""time""
""fullscreenenter"",""0"",""2831""
","
",null,"<div style=""font-size:60px;"">+</div>",NA,null,fixation,2020-06-10T19:56:18Z,NA,NA,NA,NA,NA,sub14
NA,mars-trial,78,323511,0.0-10.0-1.32,"""event"",""trial"",""time""
""fullscreenenter"",""0"",""2831""
","
","
","""event"",""trial"",""time""
""fullscreenenter"",""0"",""2831""
","
",10052.339999936521,<img style='border: 4px solid darkgrey;' src='img/tf1_33_M_ss2.jpeg'></img>,1,NA,exp,NA,0,<img src='img/tf1_33_T1_ss2_md.jpeg'></img>,0,TRUE,NA,sub14
NA,html-keyboard-response,79,324014,0.0-10.0-0.33,"""event"",""trial"",""time""
""fullscreenenter"",""0"",""2831""
","
","
","""event"",""trial"",""time""
""fullscreenenter"",""0"",""2831""
","
",null,"<div style=""font-size:60px;"">+</div>",NA,null,fixation,2020-06-10T19:56:29Z,NA,NA,NA,NA,NA,sub14
NA,mars-trial,80,325503,0.0-10.0-1.33,"""event"",""trial"",""time""
""fullscreenenter"",""0"",""2831""
","
","
","""event"",""trial"",""time""
""fullscreenenter"",""0"",""2831""
","
",880.8999999891967,<img style='border: 4px solid darkgrey;' src='img/tf1_34_M_ss3.jpeg'></img>,2,NA,exp,NA,0,<img src='img/tf1_34_T1_ss3_md.jpeg'></img>,0,TRUE,NA,sub14
NA,html-keyboard-response,81,326006,0.0-10.0-0.34,"""event"",""trial"",""time""
""fullscreenenter"",""0"",""2831""
","
","
","""event"",""trial"",""time""
""fullscreenenter"",""0"",""2831""
","
",null,"<div style=""font-size:60px;"">+</div>",NA,null,fixation,2020-06-10T19:56:31Z,NA,NA,NA,NA,NA,sub14
NA,mars-trial,82,328066,0.0-10.0-1.34,"""event"",""trial"",""time""
""fullscreenenter"",""0"",""2831""
","
","
","""event"",""trial"",""time""
""fullscreenenter"",""0"",""2831""
","
",1452.2950001992285,<img style='border: 4px solid darkgrey;' src='img/tf1_35_M_ss1.jpeg'></img>,2,NA,exp,NA,0,<img src='img/tf1_35_T1_ss1_md.jpeg'></img>,0,TRUE,NA,sub14
NA,html-keyboard-response,83,328568,0.0-10.0-0.35,"""event"",""trial"",""time""
""fullscreenenter"",""0"",""2831""
","
","
","""event"",""trial"",""time""
""fullscreenenter"",""0"",""2831""
","
",null,"<div style=""font-size:60px;"">+</div>",NA,null,fixation,2020-06-10T19:56:34Z,NA,NA,NA,NA,NA,sub14
NA,mars-trial,84,329868,0.0-10.0-1.35,"""event"",""trial"",""time""
""fullscreenenter"",""0"",""2831""
","
","
","""event"",""trial"",""time""
""fullscreenenter"",""0"",""2831""
","
",692.8349998779595,<img style='border: 4px solid darkgrey;' src='img/tf1_36_M_ss2.jpeg'></img>,2,NA,exp,NA,2,<img src='img/tf1_36_T1_ss2_md.jpeg'></img>,0,FALSE,NA,sub14
NA,html-keyboard-response,85,330372,0.0-10.0-0.36,"""event"",""trial"",""time""
""fullscreenenter"",""0"",""2831""
","
","
","""event"",""trial"",""time""
""fullscreenenter"",""0"",""2831""
","
",null,"<div style=""font-size:60px;"">+</div>",NA,null,fixation,2020-06-10T19:56:35Z,NA,NA,NA,NA,NA,sub14
NA,mars-trial,86,331188,0.0-10.0-1.36,"""event"",""trial"",""time""
""fullscreenenter"",""0"",""2831""
","
","
","""event"",""trial"",""time""
""fullscreenenter"",""0"",""2831""
","
",210.5199999641627,<img style='border: 4px solid darkgrey;' src='img/tf1_37_M_ss3.jpeg'></img>,1,NA,exp,NA,1,<img src='img/tf1_37_T1_ss3_md.jpeg'></img>,0,FALSE,NA,sub14
NA,html-keyboard-response,87,331691,0.0-10.0-0.37,"""event"",""trial"",""time""
""fullscreenenter"",""0"",""2831""
","
","
","""event"",""trial"",""time""
""fullscreenenter"",""0"",""2831""
","
",null,"<div style=""font-size:60px;"">+</div>",NA,null,fixation,2020-06-10T19:56:37Z,NA,NA,NA,NA,NA,sub14
NA,mars-trial,88,332922,0.0-10.0-1.37,"""event"",""trial"",""time""
""fullscreenenter"",""0"",""2831""
","
","
","""event"",""trial"",""time""
""fullscreenenter"",""0"",""2831""
","
",597.4000000860542,<img style='border: 4px solid darkgrey;' src='img/tf1_38_M_ss1.jpeg'></img>,0,NA,exp,NA,0,<img src='img/tf1_38_T1_ss1_md.jpeg'></img>,0,TRUE,NA,sub14
NA,html-keyboard-response,89,333426,0.0-10.0-0.38,"""event"",""trial"",""time""
""fullscreenenter"",""0"",""2831""
","
","
","""event"",""trial"",""time""
""fullscreenenter"",""0"",""2831""
","
",null,"<div style=""font-size:60px;"">+</div>",NA,null,fixation,2020-06-10T19:56:38Z,NA,NA,NA,NA,NA,sub14
NA,mars-trial,90,335501,0.0-10.0-1.38,"""event"",""trial"",""time""
""fullscreenenter"",""0"",""2831""
","
","
","""event"",""trial"",""time""
""fullscreenenter"",""0"",""2831""
","
",1466.6199998464435,<img style='border: 4px solid darkgrey;' src='img/tf1_39_M_ss2.jpeg'></img>,3,NA,exp,NA,0,<img src='img/tf1_39_T1_ss2_md.jpeg'></img>,0,TRUE,NA,sub14
NA,html-keyboard-response,91,336004,0.0-10.0-0.39,"""event"",""trial"",""time""
""fullscreenenter"",""0"",""2831""
","
","
","""event"",""trial"",""time""
""fullscreenenter"",""0"",""2831""
","
",null,"<div style=""font-size:60px;"">+</div>",NA,null,fixation,2020-06-10T19:56:41Z,NA,NA,NA,NA,NA,sub14
NA,mars-trial,92,337476,0.0-10.0-1.39,"""event"",""trial"",""time""
""fullscreenenter"",""0"",""2831""
","
","
","""event"",""trial"",""time""
""fullscreenenter"",""0"",""2831""
","
",866.2399998866022,<img style='border: 4px solid darkgrey;' src='img/tf1_40_M_ss3.jpeg'></img>,0,NA,exp,NA,1,<img src='img/tf1_40_T1_ss3_md.jpeg'></img>,0,FALSE,NA,sub14
NA,html-keyboard-response,93,337978,0.0-10.0-0.40,"""event"",""trial"",""time""
""fullscreenenter"",""0"",""2831""
","
","
","""event"",""trial"",""time""
""fullscreenenter"",""0"",""2831""
","
",null,"<div style=""font-size:60px;"">+</div>",NA,null,fixation,2020-06-10T19:56:43Z,NA,NA,NA,NA,NA,sub14
NA,mars-trial,94,339023,0.0-10.0-1.40,"""event"",""trial"",""time""
""fullscreenenter"",""0"",""2831""
","
","
","""event"",""trial"",""time""
""fullscreenenter"",""0"",""2831""
","
",438.38000018149614,<img style='border: 4px solid darkgrey;' src='img/tf1_41_M_ss1.jpeg'></img>,2,NA,exp,NA,1,<img src='img/tf1_41_T1_ss1_md.jpeg'></img>,0,FALSE,NA,sub14
NA,html-keyboard-response,95,339525,0.0-10.0-0.41,"""event"",""trial"",""time""
""fullscreenenter"",""0"",""2831""
","
","
","""event"",""trial"",""time""
""fullscreenenter"",""0"",""2831""
","
",null,"<div style=""font-size:60px;"">+</div>",NA,null,fixation,2020-06-10T19:56:45Z,NA,NA,NA,NA,NA,sub14
NA,mars-trial,96,345652,0.0-10.0-1.41,"""event"",""trial"",""time""
""fullscreenenter"",""0"",""2831""
","
","
","""event"",""trial"",""time""
""fullscreenenter"",""0"",""2831""
","
",5520.999999949709,<img style='border: 4px solid darkgrey;' src='img/tf1_42_M_ss2.jpeg'></img>,3,NA,exp,NA,2,<img src='img/tf1_42_T1_ss2_md.jpeg'></img>,0,FALSE,NA,sub14
NA,html-keyboard-response,97,346154,0.0-10.0-0.42,"""event"",""trial"",""time""
""fullscreenenter"",""0"",""2831""
","
","
","""event"",""trial"",""time""
""fullscreenenter"",""0"",""2831""
","
",null,"<div style=""font-size:60px;"">+</div>",NA,null,fixation,2020-06-10T19:56:51Z,NA,NA,NA,NA,NA,sub14
NA,mars-trial,98,348171,0.0-10.0-1.42,"""event"",""trial"",""time""
""fullscreenenter"",""0"",""2831""
","
","
","""event"",""trial"",""time""
""fullscreenenter"",""0"",""2831""
","
",1411.0050001181662,<img style='border: 4px solid darkgrey;' src='img/tf1_43_M_ss3.jpeg'></img>,1,NA,exp,NA,2,<img src='img/tf1_43_T1_ss3_md.jpeg'></img>,0,FALSE,NA,sub14
NA,html-keyboard-response,99,348673,0.0-10.0-0.43,"""event"",""trial"",""time""
""fullscreenenter"",""0"",""2831""
","
","
","""event"",""trial"",""time""
""fullscreenenter"",""0"",""2831""
","
",null,"<div style=""font-size:60px;"">+</div>",NA,null,fixation,2020-06-10T19:56:54Z,NA,NA,NA,NA,NA,sub14
NA,mars-trial,100,350136,0.0-10.0-1.43,"""event"",""trial"",""time""
""fullscreenenter"",""0"",""2831""
","
","
","""event"",""trial"",""time""
""fullscreenenter"",""0"",""2831""
","
",856.6050000954419,<img style='border: 4px solid darkgrey;' src='img/tf1_44_M_ss1.jpeg'></img>,1,NA,exp,NA,3,<img src='img/tf1_44_T1_ss1_md.jpeg'></img>,0,FALSE,NA,sub14
NA,html-keyboard-response,101,350639,0.0-10.0-0.44,"""event"",""trial"",""time""
""fullscreenenter"",""0"",""2831""
","
","
","""event"",""trial"",""time""
""fullscreenenter"",""0"",""2831""
","
",null,"<div style=""font-size:60px;"">+</div>",NA,null,fixation,2020-06-10T19:56:56Z,NA,NA,NA,NA,NA,sub14
NA,mars-trial,102,352868,0.0-10.0-1.44,"""event"",""trial"",""time""
""fullscreenenter"",""0"",""2831""
","
","
","""event"",""trial"",""time""
""fullscreenenter"",""0"",""2831""
","
",1623.2699998654425,<img style='border: 4px solid darkgrey;' src='img/tf1_45_M_ss2.jpeg'></img>,2,NA,exp,NA,2,<img src='img/tf1_45_T1_ss2_md.jpeg'></img>,0,FALSE,NA,sub14
NA,html-keyboard-response,103,353370,0.0-10.0-0.45,"""event"",""trial"",""time""
""fullscreenenter"",""0"",""2831""
","
","
","""event"",""trial"",""time""
""fullscreenenter"",""0"",""2831""
","
",null,"<div style=""font-size:60px;"">+</div>",NA,null,fixation,2020-06-10T19:56:58Z,NA,NA,NA,NA,NA,sub14
NA,mars-trial,104,362959,0.0-10.0-1.45,"""event"",""trial"",""time""
""fullscreenenter"",""0"",""2831""
","
","
","""event"",""trial"",""time""
""fullscreenenter"",""0"",""2831""
","
",8978.789999848232,<img style='border: 4px solid darkgrey;' src='img/tf1_46_M_ss3.jpeg'></img>,0,NA,exp,NA,2,<img src='img/tf1_46_T1_ss3_md.jpeg'></img>,0,FALSE,NA,sub14
NA,html-keyboard-response,105,363462,0.0-10.0-0.46,"""event"",""trial"",""time""
""fullscreenenter"",""0"",""2831""
","
","
","""event"",""trial"",""time""
""fullscreenenter"",""0"",""2831""
","
",null,"<div style=""font-size:60px;"">+</div>",NA,null,fixation,2020-06-10T19:57:09Z,NA,NA,NA,NA,NA,sub14
NA,mars-trial,106,365124,0.0-10.0-1.46,"""event"",""trial"",""time""
""fullscreenenter"",""0"",""2831""
","
","
","""event"",""trial"",""time""
""fullscreenenter"",""0"",""2831""
","
",1056.235000025481,<img style='border: 4px solid darkgrey;' src='img/tf1_47_M_ss1.jpeg'></img>,2,NA,exp,NA,1,<img src='img/tf1_47_T1_ss1_md.jpeg'></img>,0,FALSE,NA,sub14
NA,html-keyboard-response,107,365626,0.0-10.0-0.47,"""event"",""trial"",""time""
""fullscreenenter"",""0"",""2831""
","
","
","""event"",""trial"",""time""
""fullscreenenter"",""0"",""2831""
","
",null,"<div style=""font-size:60px;"">+</div>",NA,null,fixation,2020-06-10T19:57:11Z,NA,NA,NA,NA,NA,sub14
NA,mars-trial,108,366780,0.0-10.0-1.47,"""event"",""trial"",""time""
""fullscreenenter"",""0"",""2831""
","
","
","""event"",""trial"",""time""
""fullscreenenter"",""0"",""2831""
","
",548.5600000247359,<img style='border: 4px solid darkgrey;' src='img/tf1_48_M_ss2.jpeg'></img>,1,NA,exp,NA,2,<img src='img/tf1_48_T1_ss2_md.jpeg'></img>,0,FALSE,NA,sub14
NA,html-keyboard-response,109,367282,0.0-10.0-0.48,"""event"",""trial"",""time""
""fullscreenenter"",""0"",""2831""
","
","
","""event"",""trial"",""time""
""fullscreenenter"",""0"",""2831""
","
",null,"<div style=""font-size:60px;"">+</div>",NA,null,fixation,2020-06-10T19:57:12Z,NA,NA,NA,NA,NA,sub14
NA,mars-trial,110,369300,0.0-10.0-1.48,"""event"",""trial"",""time""
""fullscreenenter"",""0"",""2831""
","
","
","""event"",""trial"",""time""
""fullscreenenter"",""0"",""2831""
","
",1412.0950000360608,<img style='border: 4px solid darkgrey;' src='img/tf1_49_M_ss3.jpeg'></img>,0,NA,exp,NA,0,<img src='img/tf1_49_T1_ss3_md.jpeg'></img>,0,TRUE,NA,sub14
NA,html-keyboard-response,111,369803,0.0-10.0-0.49,"""event"",""trial"",""time""
""fullscreenenter"",""0"",""2831""
","
","
","""event"",""trial"",""time""
""fullscreenenter"",""0"",""2831""
","
",null,"<div style=""font-size:60px;"">+</div>",NA,null,fixation,2020-06-10T19:57:15Z,NA,NA,NA,NA,NA,sub14
NA,mars-trial,112,374730,0.0-10.0-1.49,"""event"",""trial"",""time""
""fullscreenenter"",""0"",""2831""
","
","
","""event"",""trial"",""time""
""fullscreenenter"",""0"",""2831""
","
",4316.820000065491,<img style='border: 4px solid darkgrey;' src='img/tf1_50_M_ss1.jpeg'></img>,2,NA,exp,NA,1,<img src='img/tf1_50_T1_ss1_md.jpeg'></img>,0,FALSE,NA,sub14
NA,html-keyboard-response,113,375232,0.0-10.0-0.50,"""event"",""trial"",""time""
""fullscreenenter"",""0"",""2831""
","
","
","""event"",""trial"",""time""
""fullscreenenter"",""0"",""2831""
","
",null,"<div style=""font-size:60px;"">+</div>",NA,null,fixation,2020-06-10T19:57:20Z,NA,NA,NA,NA,NA,sub14
NA,mars-trial,114,376574,0.0-10.0-1.50,"""event"",""trial"",""time""
""fullscreenenter"",""0"",""2831""
","
","
","""event"",""trial"",""time""
""fullscreenenter"",""0"",""2831""
","
",735.1699999999255,<img style='border: 4px solid darkgrey;' src='img/tf1_51_M_ss2.jpeg'></img>,2,NA,exp,NA,2,<img src='img/tf1_51_T1_ss2_md.jpeg'></img>,0,FALSE,NA,sub14
NA,html-keyboard-response,115,377075,0.0-10.0-0.51,"""event"",""trial"",""time""
""fullscreenenter"",""0"",""2831""
","
","
","""event"",""trial"",""time""
""fullscreenenter"",""0"",""2831""
","
",null,"<div style=""font-size:60px;"">+</div>",NA,null,fixation,2020-06-10T19:57:22Z,NA,NA,NA,NA,NA,sub14
NA,mars-trial,116,378095,0.0-10.0-1.51,"""event"",""trial"",""time""
""fullscreenenter"",""0"",""2831""
","
","
","""event"",""trial"",""time""
""fullscreenenter"",""0"",""2831""
","
",416.97999997995794,<img style='border: 4px solid darkgrey;' src='img/tf1_52_M_ss3.jpeg'></img>,1,NA,exp,NA,3,<img src='img/tf1_52_T1_ss3_md.jpeg'></img>,0,FALSE,NA,sub14
NA,html-keyboard-response,117,378597,0.0-10.0-0.52,"""event"",""trial"",""time""
""fullscreenenter"",""0"",""2831""
","
","
","""event"",""trial"",""time""
""fullscreenenter"",""0"",""2831""
","
",null,"<div style=""font-size:60px;"">+</div>",NA,null,fixation,2020-06-10T19:57:24Z,NA,NA,NA,NA,NA,sub14
NA,mars-trial,118,379796,0.0-10.0-1.52,"""event"",""trial"",""time""
""fullscreenenter"",""0"",""2831""
","
","
","""event"",""trial"",""time""
""fullscreenenter"",""0"",""2831""
","
",592.1749998815358,<img style='border: 4px solid darkgrey;' src='img/tf1_53_M_ss1.jpeg'></img>,3,NA,exp,NA,2,<img src='img/tf1_53_T1_ss1_md.jpeg'></img>,0,FALSE,NA,sub14
NA,html-keyboard-response,119,380299,0.0-10.0-0.53,"""event"",""trial"",""time""
""fullscreenenter"",""0"",""2831""
","
","
","""event"",""trial"",""time""
""fullscreenenter"",""0"",""2831""
","
",null,"<div style=""font-size:60px;"">+</div>",NA,null,fixation,2020-06-10T19:57:25Z,NA,NA,NA,NA,NA,sub14
NA,mars-trial,120,381554,0.0-10.0-1.53,"""event"",""trial"",""time""
""fullscreenenter"",""0"",""2831""
","
","
","""event"",""trial"",""time""
""fullscreenenter"",""0"",""2831""
","
",647.9249999392778,<img style='border: 4px solid darkgrey;' src='img/tf1_54_M_ss2.jpeg'></img>,0,NA,exp,NA,3,<img src='img/tf1_54_T1_ss2_md.jpeg'></img>,0,FALSE,NA,sub14
NA,html-keyboard-response,121,382056,0.0-10.0-0.54,"""event"",""trial"",""time""
""fullscreenenter"",""0"",""2831""
","
","
","""event"",""trial"",""time""
""fullscreenenter"",""0"",""2831""
","
",null,"<div style=""font-size:60px;"">+</div>",NA,null,fixation,2020-06-10T19:57:27Z,NA,NA,NA,NA,NA,sub14
NA,mars-trial,122,383058,0.0-10.0-1.54,"""event"",""trial"",""time""
""fullscreenenter"",""0"",""2831""
","
","
","""event"",""trial"",""time""
""fullscreenenter"",""0"",""2831""
","
",396.1249999701977,<img style='border: 4px solid darkgrey;' src='img/tf1_55_M_ss3.jpeg'></img>,1,NA,exp,NA,0,<img src='img/tf1_55_T1_ss3_md.jpeg'></img>,0,TRUE,NA,sub14
NA,html-keyboard-response,123,383561,0.0-10.0-0.55,"""event"",""trial"",""time""
""fullscreenenter"",""0"",""2831""
","
","
","""event"",""trial"",""time""
""fullscreenenter"",""0"",""2831""
","
",null,"<div style=""font-size:60px;"">+</div>",NA,null,fixation,2020-06-10T19:57:29Z,NA,NA,NA,NA,NA,sub14
NA,mars-trial,124,384699,0.0-10.0-1.55,"""event"",""trial"",""time""
""fullscreenenter"",""0"",""2831""
","
","
","""event"",""trial"",""time""
""fullscreenenter"",""0"",""2831""
","
",530.0650000572205,<img style='border: 4px solid darkgrey;' src='img/tf1_56_M_ss1.jpeg'></img>,1,NA,exp,NA,2,<img src='img/tf1_56_T1_ss1_md.jpeg'></img>,0,FALSE,NA,sub14
NA,html-keyboard-response,125,385203,0.0-10.0-0.56,"""event"",""trial"",""time""
""fullscreenenter"",""0"",""2831""
","
","
","""event"",""trial"",""time""
""fullscreenenter"",""0"",""2831""
","
",null,"<div style=""font-size:60px;"">+</div>",NA,null,fixation,2020-06-10T19:57:30Z,NA,NA,NA,NA,NA,sub14
NA,mars-trial,126,386158,0.0-10.0-1.56,"""event"",""trial"",""time""
""fullscreenenter"",""0"",""2831""
","
","
","""event"",""trial"",""time""
""fullscreenenter"",""0"",""2831""
","
",347.62499993667006,<img style='border: 4px solid darkgrey;' src='img/tf1_57_M_ss2.jpeg'></img>,2,NA,exp,NA,0,<img src='img/tf1_57_T1_ss2_md.jpeg'></img>,0,TRUE,NA,sub14
NA,html-keyboard-response,127,386660,0.0-10.0-0.57,"""event"",""trial"",""time""
""fullscreenenter"",""0"",""2831""
","
","
","""event"",""trial"",""time""
""fullscreenenter"",""0"",""2831""
","
",null,"<div style=""font-size:60px;"">+</div>",NA,null,fixation,2020-06-10T19:57:32Z,NA,NA,NA,NA,NA,sub14
NA,mars-trial,128,388173,0.0-10.0-1.57,"""event"",""trial"",""time""
""fullscreenenter"",""0"",""2831""
","
","
","""event"",""trial"",""time""
""fullscreenenter"",""0"",""2831""
","
",905.8249997906387,<img style='border: 4px solid darkgrey;' src='img/tf1_58_M_ss3.jpeg'></img>,0,NA,exp,NA,2,<img src='img/tf1_58_T1_ss3_md.jpeg'></img>,0,FALSE,NA,sub14
NA,html-keyboard-response,129,388676,0.0-10.0-0.58,"""event"",""trial"",""time""
""fullscreenenter"",""0"",""2831""
","
","
","""event"",""trial"",""time""
""fullscreenenter"",""0"",""2831""
","
",null,"<div style=""font-size:60px;"">+</div>",NA,null,fixation,2020-06-10T19:57:34Z,NA,NA,NA,NA,NA,sub14
NA,mars-trial,130,390021,0.0-10.0-1.58,"""event"",""trial"",""time""
""fullscreenenter"",""0"",""2831""
","
","
","""event"",""trial"",""time""
""fullscreenenter"",""0"",""2831""
","
",737.8849999513477,<img style='border: 4px solid darkgrey;' src='img/tf1_59_M_ss1.jpeg'></img>,3,NA,exp,NA,2,<img src='img/tf1_59_T1_ss1_md.jpeg'></img>,0,FALSE,NA,sub14
NA,html-keyboard-response,131,390523,0.0-10.0-0.59,"""event"",""trial"",""time""
""fullscreenenter"",""0"",""2831""
","
","
","""event"",""trial"",""time""
""fullscreenenter"",""0"",""2831""
","
",null,"<div style=""font-size:60px;"">+</div>",NA,null,fixation,2020-06-10T19:57:36Z,NA,NA,NA,NA,NA,sub14
NA,mars-trial,132,391944,0.0-10.0-1.59,"""event"",""trial"",""time""
""fullscreenenter"",""0"",""2831""
","
","
","""event"",""trial"",""time""
""fullscreenenter"",""0"",""2831""
","
",801.0499998927116,<img style='border: 4px solid darkgrey;' src='img/tf1_60_M_ss2.jpeg'></img>,2,NA,exp,NA,0,<img src='img/tf1_60_T1_ss2_md.jpeg'></img>,0,TRUE,NA,sub14
NA,html-keyboard-response,133,392447,0.0-10.0-0.60,"""event"",""trial"",""time""
""fullscreenenter"",""0"",""2831""
","
","
","""event"",""trial"",""time""
""fullscreenenter"",""0"",""2831""
","
",null,"<div style=""font-size:60px;"">+</div>",NA,null,fixation,2020-06-10T19:57:37Z,NA,NA,NA,NA,NA,sub14
NA,mars-trial,134,417038,0.0-10.0-1.60,"""event"",""trial"",""time""
""fullscreenenter"",""0"",""2831""
","
","
","""event"",""trial"",""time""
""fullscreenenter"",""0"",""2831""
","
",23984.829999972135,<img style='border: 4px solid darkgrey;' src='img/tf1_61_M_ss3.jpeg'></img>,0,NA,exp,NA,0,<img src='img/tf1_61_T1_ss3_md.jpeg'></img>,0,TRUE,NA,sub14
NA,html-keyboard-response,135,417540,0.0-10.0-0.61,"""event"",""trial"",""time""
""fullscreenenter"",""0"",""2831""
","
","
","""event"",""trial"",""time""
""fullscreenenter"",""0"",""2831""
","
",null,"<div style=""font-size:60px;"">+</div>",NA,null,fixation,2020-06-10T19:58:03Z,NA,NA,NA,NA,NA,sub14
NA,mars-trial,136,428369,0.0-10.0-1.61,"""event"",""trial"",""time""
""fullscreenenter"",""0"",""2831""
","
","
","""event"",""trial"",""time""
""fullscreenenter"",""0"",""2831""
","
",10221.20500006713,<img style='border: 4px solid darkgrey;' src='img/tf1_62_M_ss1.jpeg'></img>,2,NA,exp,NA,0,<img src='img/tf1_62_T1_ss1_md.jpeg'></img>,0,TRUE,NA,sub14
NA,html-keyboard-response,137,428871,0.0-10.0-0.62,"""event"",""trial"",""time""
""fullscreenenter"",""0"",""2831""
","
","
","""event"",""trial"",""time""
""fullscreenenter"",""0"",""2831""
","
",null,"<div style=""font-size:60px;"">+</div>",NA,null,fixation,2020-06-10T19:58:14Z,NA,NA,NA,NA,NA,sub14
NA,mars-trial,138,455455,0.0-10.0-1.62,"""event"",""trial"",""time""
""fullscreenenter"",""0"",""2831""
","
","
","""event"",""trial"",""time""
""fullscreenenter"",""0"",""2831""
","
",25976.39500000514,<img style='border: 4px solid darkgrey;' src='img/tf1_63_M_ss2.jpeg'></img>,1,NA,exp,NA,3,<img src='img/tf1_63_T1_ss2_md.jpeg'></img>,0,FALSE,NA,sub14
NA,html-keyboard-response,139,455958,0.0-10.0-0.63,"""event"",""trial"",""time""
""fullscreenenter"",""0"",""2831""
","
","
","""event"",""trial"",""time""
""fullscreenenter"",""0"",""2831""
","
",null,"<div style=""font-size:60px;"">+</div>",NA,null,fixation,2020-06-10T19:58:41Z,NA,NA,NA,NA,NA,sub14
NA,mars-trial,140,457550,0.0-10.0-1.63,"""event"",""trial"",""time""
""fullscreenenter"",""0"",""2831""
","
","
","""event"",""trial"",""time""
""fullscreenenter"",""0"",""2831""
","
",983.2650001626462,<img style='border: 4px solid darkgrey;' src='img/tf1_64_M_ss3.jpeg'></img>,2,NA,exp,NA,3,<img src='img/tf1_64_T1_ss3_md.jpeg'></img>,0,FALSE,NA,sub14
NA,html-keyboard-response,141,458052,0.0-10.0-0.64,"""event"",""trial"",""time""
""fullscreenenter"",""0"",""2831""
","
","
","""event"",""trial"",""time""
""fullscreenenter"",""0"",""2831""
","
",null,"<div style=""font-size:60px;"">+</div>",NA,null,fixation,2020-06-10T19:58:43Z,NA,NA,NA,NA,NA,sub14
NA,mars-trial,142,458879,0.0-10.0-1.64,"""event"",""trial"",""time""
""fullscreenenter"",""0"",""2831""
","
","
","""event"",""trial"",""time""
""fullscreenenter"",""0"",""2831""
","
",218.77999999560416,<img style='border: 4px solid darkgrey;' src='img/tf1_65_M_ss1.jpeg'></img>,2,NA,exp,NA,1,<img src='img/tf1_65_T1_ss1_md.jpeg'></img>,0,FALSE,NA,sub14
NA,html-keyboard-response,143,459383,0.0-10.0-0.65,"""event"",""trial"",""time""
""fullscreenenter"",""0"",""2831""
","
","
","""event"",""trial"",""time""
""fullscreenenter"",""0"",""2831""
","
",null,"<div style=""font-size:60px;"">+</div>",NA,null,fixation,2020-06-10T19:58:44Z,NA,NA,NA,NA,NA,sub14
NA,mars-trial,144,460541,0.0-10.0-1.65,"""event"",""trial"",""time""
""fullscreenenter"",""0"",""2831""
","
","
","""event"",""trial"",""time""
""fullscreenenter"",""0"",""2831""
","
",554.0499999187887,<img style='border: 4px solid darkgrey;' src='img/tf1_66_M_ss2.jpeg'></img>,1,NA,exp,NA,3,<img src='img/tf1_66_T1_ss2_md.jpeg'></img>,0,FALSE,NA,sub14
NA,html-keyboard-response,145,461042,0.0-10.0-0.66,"""event"",""trial"",""time""
""fullscreenenter"",""0"",""2831""
","
","
","""event"",""trial"",""time""
""fullscreenenter"",""0"",""2831""
","
",null,"<div style=""font-size:60px;"">+</div>",NA,null,fixation,2020-06-10T19:58:46Z,NA,NA,NA,NA,NA,sub14
NA,mars-trial,146,462197,0.0-10.0-1.66,"""event"",""trial"",""time""
""fullscreenenter"",""0"",""2831""
","
","
","""event"",""trial"",""time""
""fullscreenenter"",""0"",""2831""
","
",548.8599999807775,<img style='border: 4px solid darkgrey;' src='img/tf1_67_M_ss3.jpeg'></img>,0,NA,exp,NA,1,<img src='img/tf1_67_T1_ss3_md.jpeg'></img>,0,FALSE,NA,sub14
NA,html-keyboard-response,147,462699,0.0-10.0-0.67,"""event"",""trial"",""time""
""fullscreenenter"",""0"",""2831""
","
","
","""event"",""trial"",""time""
""fullscreenenter"",""0"",""2831""
","
",null,"<div style=""font-size:60px;"">+</div>",NA,null,fixation,2020-06-10T19:58:48Z,NA,NA,NA,NA,NA,sub14
NA,mars-trial,148,463759,0.0-10.0-1.67,"""event"",""trial"",""time""
""fullscreenenter"",""0"",""2831""
","
","
","""event"",""trial"",""time""
""fullscreenenter"",""0"",""2831""
","
",453.43499979935586,<img style='border: 4px solid darkgrey;' src='img/tf1_68_M_ss1.jpeg'></img>,2,NA,exp,NA,2,<img src='img/tf1_68_T1_ss1_md.jpeg'></img>,0,FALSE,NA,sub14
NA,html-keyboard-response,149,464261,0.0-10.0-0.68,"""event"",""trial"",""time""
""fullscreenenter"",""0"",""2831""
","
","
","""event"",""trial"",""time""
""fullscreenenter"",""0"",""2831""
","
",null,"<div style=""font-size:60px;"">+</div>",NA,null,fixation,2020-06-10T19:58:49Z,NA,NA,NA,NA,NA,sub14
NA,mars-trial,150,465318,0.0-10.0-1.68,"""event"",""trial"",""time""
""fullscreenenter"",""0"",""2831""
","
","
","""event"",""trial"",""time""
""fullscreenenter"",""0"",""2831""
","
",448.74000013805926,<img style='border: 4px solid darkgrey;' src='img/tf1_69_M_ss2.jpeg'></img>,1,NA,exp,NA,1,<img src='img/tf1_69_T1_ss2_md.jpeg'></img>,0,FALSE,NA,sub14
NA,html-keyboard-response,151,465823,0.0-10.0-0.69,"""event"",""trial"",""time""
""fullscreenenter"",""0"",""2831""
","
","
","""event"",""trial"",""time""
""fullscreenenter"",""0"",""2831""
","
",null,"<div style=""font-size:60px;"">+</div>",NA,null,fixation,2020-06-10T19:58:51Z,NA,NA,NA,NA,NA,sub14
NA,mars-trial,152,466713,0.0-10.0-1.69,"""event"",""trial"",""time""
""fullscreenenter"",""0"",""2831""
","
","
","""event"",""trial"",""time""
""fullscreenenter"",""0"",""2831""
","
",285.12499993667006,<img style='border: 4px solid darkgrey;' src='img/tf1_70_M_ss3.jpeg'></img>,3,NA,exp,NA,2,<img src='img/tf1_70_T1_ss3_md.jpeg'></img>,0,FALSE,NA,sub14
NA,html-keyboard-response,153,467216,0.0-10.0-0.70,"""event"",""trial"",""time""
""fullscreenenter"",""0"",""2831""
","
","
","""event"",""trial"",""time""
""fullscreenenter"",""0"",""2831""
","
",null,"<div style=""font-size:60px;"">+</div>",NA,null,fixation,2020-06-10T19:58:52Z,NA,NA,NA,NA,NA,sub14
NA,mars-trial,154,468188,0.0-10.0-1.70,"""event"",""trial"",""time""
""fullscreenenter"",""0"",""2831""
","
","
","""event"",""trial"",""time""
""fullscreenenter"",""0"",""2831""
","
",365.77500007115304,<img style='border: 4px solid darkgrey;' src='img/tf1_71_M_ss1.jpeg'></img>,1,NA,exp,NA,1,<img src='img/tf1_71_T1_ss1_md.jpeg'></img>,0,FALSE,NA,sub14
NA,html-keyboard-response,155,468691,0.0-10.0-0.71,"""event"",""trial"",""time""
""fullscreenenter"",""0"",""2831""
","
","
","""event"",""trial"",""time""
""fullscreenenter"",""0"",""2831""
","
",null,"<div style=""font-size:60px;"">+</div>",NA,null,fixation,2020-06-10T19:58:54Z,NA,NA,NA,NA,NA,sub14
NA,mars-trial,156,471027,0.0-10.0-1.71,"""event"",""trial"",""time""
""fullscreenenter"",""0"",""2831""
","
","
","""event"",""trial"",""time""
""fullscreenenter"",""0"",""2831""
","
",1729.0000000502914,<img style='border: 4px solid darkgrey;' src='img/tf1_72_M_ss2.jpeg'></img>,3,NA,exp,NA,1,<img src='img/tf1_72_T1_ss2_md.jpeg'></img>,0,FALSE,NA,sub14
NA,html-keyboard-response,157,471530,0.0-10.0-0.72,"""event"",""trial"",""time""
""fullscreenenter"",""0"",""2831""
","
","
","""event"",""trial"",""time""
""fullscreenenter"",""0"",""2831""
","
",null,"<div style=""font-size:60px;"">+</div>",NA,null,fixation,2020-06-10T19:58:57Z,NA,NA,NA,NA,NA,sub14
NA,mars-trial,158,488099,0.0-10.0-1.72,"""event"",""trial"",""time""
""fullscreenenter"",""0"",""2831""
","
","
","""event"",""trial"",""time""
""fullscreenenter"",""0"",""2831""
","
",15957.279999973252,<img style='border: 4px solid darkgrey;' src='img/tf1_73_M_ss3.jpeg'></img>,2,NA,exp,NA,3,<img src='img/tf1_73_T1_ss3_md.jpeg'></img>,0,FALSE,NA,sub14
NA,html-keyboard-response,159,488602,0.0-10.0-0.73,"""event"",""trial"",""time""
""fullscreenenter"",""0"",""2831""
","
","
","""event"",""trial"",""time""
""fullscreenenter"",""0"",""2831""
","
",null,"<div style=""font-size:60px;"">+</div>",NA,null,fixation,2020-06-10T19:59:14Z,NA,NA,NA,NA,NA,sub14
NA,mars-trial,160,490538,0.0-10.0-1.73,"""event"",""trial"",""time""
""fullscreenenter"",""0"",""2831""
","
","
","""event"",""trial"",""time""
""fullscreenenter"",""0"",""2831""
","
",1328.125,<img style='border: 4px solid darkgrey;' src='img/tf1_74_M_ss1.jpeg'></img>,1,NA,exp,NA,1,<img src='img/tf1_74_T1_ss1_md.jpeg'></img>,0,FALSE,NA,sub14
NA,html-keyboard-response,161,491041,0.0-10.0-0.74,"""event"",""trial"",""time""
""fullscreenenter"",""0"",""2831""
","
","
","""event"",""trial"",""time""
""fullscreenenter"",""0"",""2831""
","
",null,"<div style=""font-size:60px;"">+</div>",NA,null,fixation,2020-06-10T19:59:16Z,NA,NA,NA,NA,NA,sub14
NA,mars-trial,162,492724,0.0-10.0-1.74,"""event"",""trial"",""time""
""fullscreenenter"",""0"",""2831""
","
","
","""event"",""trial"",""time""
""fullscreenenter"",""0"",""2831""
","
",1075.1799999270588,<img style='border: 4px solid darkgrey;' src='img/tf1_75_M_ss2.jpeg'></img>,2,NA,exp,NA,0,<img src='img/tf1_75_T1_ss2_md.jpeg'></img>,0,TRUE,NA,sub14
NA,html-keyboard-response,163,493239,0.0-10.0-0.75,"""event"",""trial"",""time""
""fullscreenenter"",""0"",""2831""
","
","
","""event"",""trial"",""time""
""fullscreenenter"",""0"",""2831""
","
",null,"<div style=""font-size:60px;"">+</div>",NA,null,fixation,2020-06-10T19:59:18Z,NA,NA,NA,NA,NA,sub14
NA,mars-trial,164,494627,0.0-10.0-1.75,"""event"",""trial"",""time""
""fullscreenenter"",""0"",""2831""
","
","
","""event"",""trial"",""time""
""fullscreenenter"",""0"",""2831""
","
",780.2500000689179,<img style='border: 4px solid darkgrey;' src='img/tf1_76_M_ss3.jpeg'></img>,1,NA,exp,NA,2,<img src='img/tf1_76_T1_ss3_md.jpeg'></img>,0,FALSE,NA,sub14
NA,html-keyboard-response,165,495129,0.0-10.0-0.76,"""event"",""trial"",""time""
""fullscreenenter"",""0"",""2831""
","
","
","""event"",""trial"",""time""
""fullscreenenter"",""0"",""2831""
","
",null,"<div style=""font-size:60px;"">+</div>",NA,null,fixation,2020-06-10T19:59:20Z,NA,NA,NA,NA,NA,sub14
NA,mars-trial,166,496143,0.0-10.0-1.76,"""event"",""trial"",""time""
""fullscreenenter"",""0"",""2831""
","
","
","""event"",""trial"",""time""
""fullscreenenter"",""0"",""2831""
","
",407.85499988123775,<img style='border: 4px solid darkgrey;' src='img/tf1_77_M_ss1.jpeg'></img>,2,NA,exp,NA,2,<img src='img/tf1_77_T1_ss1_md.jpeg'></img>,0,FALSE,NA,sub14
NA,html-keyboard-response,167,496645,0.0-10.0-0.77,"""event"",""trial"",""time""
""fullscreenenter"",""0"",""2831""
","
","
","""event"",""trial"",""time""
""fullscreenenter"",""0"",""2831""
","
",null,"<div style=""font-size:60px;"">+</div>",NA,null,fixation,2020-06-10T19:59:22Z,NA,NA,NA,NA,NA,sub14
NA,mars-trial,168,497625,0.0-10.0-1.77,"""event"",""trial"",""time""
""fullscreenenter"",""0"",""2831""
","
","
","""event"",""trial"",""time""
""fullscreenenter"",""0"",""2831""
","
",373.6199999693781,<img style='border: 4px solid darkgrey;' src='img/tf1_78_M_ss2.jpeg'></img>,0,NA,exp,NA,2,<img src='img/tf1_78_T1_ss2_md.jpeg'></img>,0,FALSE,NA,sub14
NA,html-keyboard-response,169,498126,0.0-10.0-0.78,"""event"",""trial"",""time""
""fullscreenenter"",""0"",""2831""
","
","
","""event"",""trial"",""time""
""fullscreenenter"",""0"",""2831""
","
",null,"<div style=""font-size:60px;"">+</div>",NA,null,fixation,2020-06-10T19:59:23Z,NA,NA,NA,NA,NA,sub14
NA,mars-trial,170,499158,0.0-10.0-1.78,"""event"",""trial"",""time""
""fullscreenenter"",""0"",""2831""
","
","
","""event"",""trial"",""time""
""fullscreenenter"",""0"",""2831""
","
",423.38500008918345,<img style='border: 4px solid darkgrey;' src='img/tf1_79_M_ss3.jpeg'></img>,1,NA,exp,NA,2,<img src='img/tf1_79_T1_ss3_md.jpeg'></img>,0,FALSE,NA,sub14
NA,html-keyboard-response,171,499661,0.0-10.0-0.79,"""event"",""trial"",""time""
""fullscreenenter"",""0"",""2831""
","
","
","""event"",""trial"",""time""
""fullscreenenter"",""0"",""2831""
","
",null,"<div style=""font-size:60px;"">+</div>",NA,null,fixation,2020-06-10T19:59:25Z,NA,NA,NA,NA,NA,sub14
NA,mars-trial,172,501185,0.0-10.0-1.79,"""event"",""trial"",""time""
""fullscreenenter"",""0"",""2831""
","
","
","""event"",""trial"",""time""
""fullscreenenter"",""0"",""2831""
","
",916.4449998643249,<img style='border: 4px solid darkgrey;' src='img/tf1_80_M_ss1.jpeg'></img>,2,NA,exp,NA,1,<img src='img/tf1_80_T1_ss1_md.jpeg'></img>,0,FALSE,NA,sub14
NA,audio-button-response,173,505197,0.0-11.0,"""event"",""trial"",""time""
""fullscreenenter"",""0"",""2831""
","
","
","""event"",""trial"",""time""
""fullscreenenter"",""0"",""2831""
","
",4009.48500004597,audio/mars_instructions_slide5.wav,0,NA,NA,NA,NA,NA,NA,NA,NA,sub14
