success,trial_type,trial_index,time_elapsed,internal_node_id,interactions,blur_events,focus_events,fullscreenenter_events,fullscreenexit_events,rt,stimulus,button_pressed,key_press,part,timestamp,unshuffled_button,correct_response,correct_button,correct,value,subject_id
TRUE,fullscreen,0,3423,0.0-0.0,"""event"",""trial"",""time""
""fullscreenenter"",""0"",""2488""
","
","
","""event"",""trial"",""time""
""fullscreenenter"",""0"",""2488""
","
",NA,NA,NA,NA,NA,NA,NA,NA,NA,NA,NA,sub101
NA,pavlovia,1,3434,0.0-1.0,"""event"",""trial"",""time""
""fullscreenenter"",""0"",""2488""
","
","
","""event"",""trial"",""time""
""fullscreenenter"",""0"",""2488""
","
",NA,NA,NA,NA,NA,NA,NA,NA,NA,NA,NA,sub101
NA,html-button-response,2,5406,0.0-2.0,"""event"",""trial"",""time""
""fullscreenenter"",""0"",""2488""
","
","
","""event"",""trial"",""time""
""fullscreenenter"",""0"",""2488""
","
",1969.5000000065193,<p>Welcome! Press START to begin.</p><br>,0,NA,NA,NA,NA,NA,NA,NA,NA,sub101
NA,audio-button-response,3,20274,0.0-3.0,"""event"",""trial"",""time""
""fullscreenenter"",""0"",""2488""
","
","
","""event"",""trial"",""time""
""fullscreenenter"",""0"",""2488""
","
",14864.729999913834,audio/mars_instructions_slide2.wav,0,NA,NA,NA,NA,NA,NA,NA,NA,sub101
NA,audio-button-response,4,28407,0.0-4.0,"""event"",""trial"",""time""
""fullscreenenter"",""0"",""2488""
","
","
","""event"",""trial"",""time""
""fullscreenenter"",""0"",""2488""
","
",8129.760000039823,audio/mars_instructions_slide3.wav,0,NA,NA,NA,NA,NA,NA,NA,NA,sub101
NA,html-keyboard-response,5,28911,0.0-5.0-0.0,"""event"",""trial"",""time""
""fullscreenenter"",""0"",""2488""
","
","
","""event"",""trial"",""time""
""fullscreenenter"",""0"",""2488""
","
",null,"<div style=""font-size:60px;"">+</div>",NA,null,fixation,2020-06-21T00:12:27Z,NA,NA,NA,NA,NA,sub101
NA,mars-trial,6,34649,0.0-5.0-1.0,"""event"",""trial"",""time""
""fullscreenenter"",""0"",""2488""
","
","
","""event"",""trial"",""time""
""fullscreenenter"",""0"",""2488""
","
",3624.7349999612197,<img style='border: 4px solid darkgrey;' src='practice/pt1_M1.png'></img>,0,NA,practice,NA,0,<img src='practice/pt1_T1.png'></img>,0,TRUE,NA,sub101
NA,html-keyboard-response,7,35154,0.0-6.0-0.0,"""event"",""trial"",""time""
""fullscreenenter"",""0"",""2488""
","
","
","""event"",""trial"",""time""
""fullscreenenter"",""0"",""2488""
","
",null,"<div style=""font-size:60px;"">+</div>",NA,null,fixation,2020-06-21T00:12:33Z,NA,NA,NA,NA,NA,sub101
NA,mars-trial,8,39198,0.0-6.0-1.0,"""event"",""trial"",""time""
""fullscreenenter"",""0"",""2488""
","
","
","""event"",""trial"",""time""
""fullscreenenter"",""0"",""2488""
","
",1936.7900000652298,<img style='border: 4px solid darkgrey;' src='practice/pt2_M1.png'></img>,0,NA,practice,NA,0,<img src='practice/pt2_T1.png'></img>,0,TRUE,NA,sub101
NA,html-keyboard-response,9,39703,0.0-7.0-0.0,"""event"",""trial"",""time""
""fullscreenenter"",""0"",""2488""
","
","
","""event"",""trial"",""time""
""fullscreenenter"",""0"",""2488""
","
",null,"<div style=""font-size:60px;"">+</div>",NA,null,fixation,2020-06-21T00:12:38Z,NA,NA,NA,NA,NA,sub101
NA,mars-trial,10,43170,0.0-7.0-1.0,"""event"",""trial"",""time""
""fullscreenenter"",""0"",""2488""
","
","
","""event"",""trial"",""time""
""fullscreenenter"",""0"",""2488""
","
",1358.4199999459088,<img style='border: 4px solid darkgrey;' src='practice/pt3_M1.png'></img>,0,NA,practice,NA,0,<img src='practice/pt3_T1.png'></img>,0,TRUE,NA,sub101
NA,audio-button-response,11,45523,0.0-8.0,"""event"",""trial"",""time""
""fullscreenenter"",""0"",""2488""
","
","
","""event"",""trial"",""time""
""fullscreenenter"",""0"",""2488""
","
",2348.935000016354,audio/mars_instructions_slide4.wav,0,NA,NA,NA,NA,NA,NA,NA,NA,sub101
NA,call-function,12,45524,0.0-9.0,"""event"",""trial"",""time""
""fullscreenenter"",""0"",""2488""
","
","
","""event"",""trial"",""time""
""fullscreenenter"",""0"",""2488""
","
",NA,NA,NA,NA,NA,NA,NA,NA,NA,NA,NA,sub101
NA,html-keyboard-response,13,46026,0.0-10.0-0.0,"""event"",""trial"",""time""
""fullscreenenter"",""0"",""2488""
","
","
","""event"",""trial"",""time""
""fullscreenenter"",""0"",""2488""
","
",null,"<div style=""font-size:60px;"">+</div>",NA,null,fixation,2020-06-21T00:12:44Z,NA,NA,NA,NA,NA,sub101
NA,mars-trial,14,48064,0.0-10.0-1.0,"""event"",""trial"",""time""
""fullscreenenter"",""0"",""2488""
","
","
","""event"",""trial"",""time""
""fullscreenenter"",""0"",""2488""
","
",1427.985000074841,<img style='border: 4px solid darkgrey;' src='img/tf1_1_M_ss3.jpeg'></img>,2,NA,exp,NA,0,<img src='img/tf1_1_T1_ss3_md.jpeg'></img>,0,TRUE,NA,sub101
NA,html-keyboard-response,15,48568,0.0-10.0-0.1,"""event"",""trial"",""time""
""fullscreenenter"",""0"",""2488""
","
","
","""event"",""trial"",""time""
""fullscreenenter"",""0"",""2488""
","
",null,"<div style=""font-size:60px;"">+</div>",NA,null,fixation,2020-06-21T00:12:47Z,NA,NA,NA,NA,NA,sub101
NA,mars-trial,16,51143,0.0-10.0-1.1,"""event"",""trial"",""time""
""fullscreenenter"",""0"",""2488""
","
","
","""event"",""trial"",""time""
""fullscreenenter"",""0"",""2488""
","
",1966.2150000222027,<img style='border: 4px solid darkgrey;' src='img/tf1_2_M_ss1.jpeg'></img>,3,NA,exp,NA,0,<img src='img/tf1_2_T1_ss1_md.jpeg'></img>,0,TRUE,NA,sub101
NA,html-keyboard-response,17,51645,0.0-10.0-0.2,"""event"",""trial"",""time""
""fullscreenenter"",""0"",""2488""
","
","
","""event"",""trial"",""time""
""fullscreenenter"",""0"",""2488""
","
",null,"<div style=""font-size:60px;"">+</div>",NA,null,fixation,2020-06-21T00:12:50Z,NA,NA,NA,NA,NA,sub101
NA,mars-trial,18,53847,0.0-10.0-1.2,"""event"",""trial"",""time""
""fullscreenenter"",""0"",""2488""
","
","
","""event"",""trial"",""time""
""fullscreenenter"",""0"",""2488""
","
",1595.219999901019,<img style='border: 4px solid darkgrey;' src='img/tf1_3_M_ss2.jpeg'></img>,2,NA,exp,NA,0,<img src='img/tf1_3_T1_ss2_md.jpeg'></img>,0,TRUE,NA,sub101
NA,html-keyboard-response,19,54351,0.0-10.0-0.3,"""event"",""trial"",""time""
""fullscreenenter"",""0"",""2488""
","
","
","""event"",""trial"",""time""
""fullscreenenter"",""0"",""2488""
","
",null,"<div style=""font-size:60px;"">+</div>",NA,null,fixation,2020-06-21T00:12:53Z,NA,NA,NA,NA,NA,sub101
NA,mars-trial,20,56757,0.0-10.0-1.3,"""event"",""trial"",""time""
""fullscreenenter"",""0"",""2488""
","
","
","""event"",""trial"",""time""
""fullscreenenter"",""0"",""2488""
","
",1796.9250000314787,<img style='border: 4px solid darkgrey;' src='img/tf1_4_M_ss3.jpeg'></img>,1,NA,exp,NA,0,<img src='img/tf1_4_T1_ss3_md.jpeg'></img>,0,TRUE,NA,sub101
NA,html-keyboard-response,21,57260,0.0-10.0-0.4,"""event"",""trial"",""time""
""fullscreenenter"",""0"",""2488""
","
","
","""event"",""trial"",""time""
""fullscreenenter"",""0"",""2488""
","
",null,"<div style=""font-size:60px;"">+</div>",NA,null,fixation,2020-06-21T00:12:55Z,NA,NA,NA,NA,NA,sub101
NA,mars-trial,22,59443,0.0-10.0-1.4,"""event"",""trial"",""time""
""fullscreenenter"",""0"",""2488""
","
","
","""event"",""trial"",""time""
""fullscreenenter"",""0"",""2488""
","
",1574.7800000244752,<img style='border: 4px solid darkgrey;' src='img/tf1_5_M_ss1.jpeg'></img>,3,NA,exp,NA,0,<img src='img/tf1_5_T1_ss1_md.jpeg'></img>,0,TRUE,NA,sub101
NA,html-keyboard-response,23,59945,0.0-10.0-0.5,"""event"",""trial"",""time""
""fullscreenenter"",""0"",""2488""
","
","
","""event"",""trial"",""time""
""fullscreenenter"",""0"",""2488""
","
",null,"<div style=""font-size:60px;"">+</div>",NA,null,fixation,2020-06-21T00:12:58Z,NA,NA,NA,NA,NA,sub101
NA,mars-trial,24,65823,0.0-10.0-1.5,"""event"",""trial"",""time""
""fullscreenenter"",""0"",""2488""
","
","
","""event"",""trial"",""time""
""fullscreenenter"",""0"",""2488""
","
",5267.4049999332055,<img style='border: 4px solid darkgrey;' src='img/tf1_6_M_ss2.jpeg'></img>,0,NA,exp,NA,3,<img src='img/tf1_6_T1_ss2_md.jpeg'></img>,0,FALSE,NA,sub101
NA,html-keyboard-response,25,66326,0.0-10.0-0.6,"""event"",""trial"",""time""
""fullscreenenter"",""0"",""2488""
","
","
","""event"",""trial"",""time""
""fullscreenenter"",""0"",""2488""
","
",null,"<div style=""font-size:60px;"">+</div>",NA,null,fixation,2020-06-21T00:13:04Z,NA,NA,NA,NA,NA,sub101
NA,mars-trial,26,69466,0.0-10.0-1.6,"""event"",""trial"",""time""
""fullscreenenter"",""0"",""2488""
","
","
","""event"",""trial"",""time""
""fullscreenenter"",""0"",""2488""
","
",2532.314999960363,<img style='border: 4px solid darkgrey;' src='img/tf1_7_M_ss3.jpeg'></img>,2,NA,exp,NA,0,<img src='img/tf1_7_T1_ss3_md.jpeg'></img>,0,TRUE,NA,sub101
NA,html-keyboard-response,27,69969,0.0-10.0-0.7,"""event"",""trial"",""time""
""fullscreenenter"",""0"",""2488""
","
","
","""event"",""trial"",""time""
""fullscreenenter"",""0"",""2488""
","
",null,"<div style=""font-size:60px;"">+</div>",NA,null,fixation,2020-06-21T00:13:08Z,NA,NA,NA,NA,NA,sub101
NA,mars-trial,28,74305,0.0-10.0-1.7,"""event"",""trial"",""time""
""fullscreenenter"",""0"",""2488""
","
","
","""event"",""trial"",""time""
""fullscreenenter"",""0"",""2488""
","
",3726.3050000183284,<img style='border: 4px solid darkgrey;' src='img/tf1_8_M_ss1.jpeg'></img>,0,NA,exp,NA,0,<img src='img/tf1_8_T1_ss1_md.jpeg'></img>,0,TRUE,NA,sub101
NA,html-keyboard-response,29,74808,0.0-10.0-0.8,"""event"",""trial"",""time""
""fullscreenenter"",""0"",""2488""
","
","
","""event"",""trial"",""time""
""fullscreenenter"",""0"",""2488""
","
",null,"<div style=""font-size:60px;"">+</div>",NA,null,fixation,2020-06-21T00:13:13Z,NA,NA,NA,NA,NA,sub101
NA,mars-trial,30,80705,0.0-10.0-1.8,"""event"",""trial"",""time""
""fullscreenenter"",""0"",""2488""
","
","
","""event"",""trial"",""time""
""fullscreenenter"",""0"",""2488""
","
",5286.439999938011,<img style='border: 4px solid darkgrey;' src='img/tf1_9_M_ss2.jpeg'></img>,2,NA,exp,NA,0,<img src='img/tf1_9_T1_ss2_md.jpeg'></img>,0,TRUE,NA,sub101
NA,html-keyboard-response,31,81207,0.0-10.0-0.9,"""event"",""trial"",""time""
""fullscreenenter"",""0"",""2488""
","
","
","""event"",""trial"",""time""
""fullscreenenter"",""0"",""2488""
","
",null,"<div style=""font-size:60px;"">+</div>",NA,null,fixation,2020-06-21T00:13:19Z,NA,NA,NA,NA,NA,sub101
NA,mars-trial,32,88268,0.0-10.0-1.9,"""event"",""trial"",""time""
""fullscreenenter"",""0"",""2488""
","
","
","""event"",""trial"",""time""
""fullscreenenter"",""0"",""2488""
","
",6450.429999968037,<img style='border: 4px solid darkgrey;' src='img/tf1_10_M_ss3.jpeg'></img>,2,NA,exp,NA,0,<img src='img/tf1_10_T1_ss3_md.jpeg'></img>,0,TRUE,NA,sub101
NA,html-keyboard-response,33,88771,0.0-10.0-0.10,"""event"",""trial"",""time""
""fullscreenenter"",""0"",""2488""
","
","
","""event"",""trial"",""time""
""fullscreenenter"",""0"",""2488""
","
",null,"<div style=""font-size:60px;"">+</div>",NA,null,fixation,2020-06-21T00:13:27Z,NA,NA,NA,NA,NA,sub101
NA,mars-trial,34,95025,0.0-10.0-1.10,"""event"",""trial"",""time""
""fullscreenenter"",""0"",""2488""
","
","
","""event"",""trial"",""time""
""fullscreenenter"",""0"",""2488""
","
",5643.964999937452,<img style='border: 4px solid darkgrey;' src='img/tf1_11_M_ss1.jpeg'></img>,1,NA,exp,NA,2,<img src='img/tf1_11_T1_ss1_md.jpeg'></img>,0,FALSE,NA,sub101
NA,html-keyboard-response,35,95527,0.0-10.0-0.11,"""event"",""trial"",""time""
""fullscreenenter"",""0"",""2488""
","
","
","""event"",""trial"",""time""
""fullscreenenter"",""0"",""2488""
","
",null,"<div style=""font-size:60px;"">+</div>",NA,null,fixation,2020-06-21T00:13:34Z,NA,NA,NA,NA,NA,sub101
NA,mars-trial,36,101987,0.0-10.0-1.11,"""event"",""trial"",""time""
""fullscreenenter"",""0"",""2488""
","
","
","""event"",""trial"",""time""
""fullscreenenter"",""0"",""2488""
","
",5849.384999950416,<img style='border: 4px solid darkgrey;' src='img/tf1_12_M_ss2.jpeg'></img>,2,NA,exp,NA,0,<img src='img/tf1_12_T1_ss2_md.jpeg'></img>,0,TRUE,NA,sub101
NA,html-keyboard-response,37,102490,0.0-10.0-0.12,"""event"",""trial"",""time""
""fullscreenenter"",""0"",""2488""
","
","
","""event"",""trial"",""time""
""fullscreenenter"",""0"",""2488""
","
",null,"<div style=""font-size:60px;"">+</div>",NA,null,fixation,2020-06-21T00:13:41Z,NA,NA,NA,NA,NA,sub101
NA,mars-trial,38,108007,0.0-10.0-1.12,"""event"",""trial"",""time""
""fullscreenenter"",""0"",""2488""
","
","
","""event"",""trial"",""time""
""fullscreenenter"",""0"",""2488""
","
",4906.8399999523535,<img style='border: 4px solid darkgrey;' src='img/tf1_13_M_ss3.jpeg'></img>,1,NA,exp,NA,1,<img src='img/tf1_13_T1_ss3_md.jpeg'></img>,0,FALSE,NA,sub101
NA,html-keyboard-response,39,108509,0.0-10.0-0.13,"""event"",""trial"",""time""
""fullscreenenter"",""0"",""2488""
","
","
","""event"",""trial"",""time""
""fullscreenenter"",""0"",""2488""
","
",null,"<div style=""font-size:60px;"">+</div>",NA,null,fixation,2020-06-21T00:13:47Z,NA,NA,NA,NA,NA,sub101
NA,mars-trial,40,113579,0.0-10.0-1.13,"""event"",""trial"",""time""
""fullscreenenter"",""0"",""2488""
","
","
","""event"",""trial"",""time""
""fullscreenenter"",""0"",""2488""
","
",4459.970000083558,<img style='border: 4px solid darkgrey;' src='img/tf1_14_M_ss1.jpeg'></img>,2,NA,exp,NA,2,<img src='img/tf1_14_T1_ss1_md.jpeg'></img>,0,FALSE,NA,sub101
NA,html-keyboard-response,41,114083,0.0-10.0-0.14,"""event"",""trial"",""time""
""fullscreenenter"",""0"",""2488""
","
","
","""event"",""trial"",""time""
""fullscreenenter"",""0"",""2488""
","
",null,"<div style=""font-size:60px;"">+</div>",NA,null,fixation,2020-06-21T00:13:52Z,NA,NA,NA,NA,NA,sub101
NA,mars-trial,42,120517,0.0-10.0-1.14,"""event"",""trial"",""time""
""fullscreenenter"",""0"",""2488""
","
","
","""event"",""trial"",""time""
""fullscreenenter"",""0"",""2488""
","
",5826.965000014752,<img style='border: 4px solid darkgrey;' src='img/tf1_15_M_ss2.jpeg'></img>,2,NA,exp,NA,0,<img src='img/tf1_15_T1_ss2_md.jpeg'></img>,0,TRUE,NA,sub101
NA,html-keyboard-response,43,121020,0.0-10.0-0.15,"""event"",""trial"",""time""
""fullscreenenter"",""0"",""2488""
","
","
","""event"",""trial"",""time""
""fullscreenenter"",""0"",""2488""
","
",null,"<div style=""font-size:60px;"">+</div>",NA,null,fixation,2020-06-21T00:13:59Z,NA,NA,NA,NA,NA,sub101
NA,mars-trial,44,129392,0.0-10.0-1.15,"""event"",""trial"",""time""
""fullscreenenter"",""0"",""2488""
","
","
","""event"",""trial"",""time""
""fullscreenenter"",""0"",""2488""
","
",7763.389999978244,<img style='border: 4px solid darkgrey;' src='img/tf1_16_M_ss3.jpeg'></img>,0,NA,exp,NA,0,<img src='img/tf1_16_T1_ss3_md.jpeg'></img>,0,TRUE,NA,sub101
NA,html-keyboard-response,45,129894,0.0-10.0-0.16,"""event"",""trial"",""time""
""fullscreenenter"",""0"",""2488""
","
","
","""event"",""trial"",""time""
""fullscreenenter"",""0"",""2488""
","
",null,"<div style=""font-size:60px;"">+</div>",NA,null,fixation,2020-06-21T00:14:08Z,NA,NA,NA,NA,NA,sub101
NA,mars-trial,46,136385,0.0-10.0-1.16,"""event"",""trial"",""time""
""fullscreenenter"",""0"",""2488""
","
","
","""event"",""trial"",""time""
""fullscreenenter"",""0"",""2488""
","
",5885.845000040717,<img style='border: 4px solid darkgrey;' src='img/tf1_17_M_ss1.jpeg'></img>,0,NA,exp,NA,0,<img src='img/tf1_17_T1_ss1_md.jpeg'></img>,0,TRUE,NA,sub101
NA,html-keyboard-response,47,136887,0.0-10.0-0.17,"""event"",""trial"",""time""
""fullscreenenter"",""0"",""2488""
","
","
","""event"",""trial"",""time""
""fullscreenenter"",""0"",""2488""
","
",null,"<div style=""font-size:60px;"">+</div>",NA,null,fixation,2020-06-21T00:14:15Z,NA,NA,NA,NA,NA,sub101
NA,mars-trial,48,142568,0.0-10.0-1.17,"""event"",""trial"",""time""
""fullscreenenter"",""0"",""2488""
","
","
","""event"",""trial"",""time""
""fullscreenenter"",""0"",""2488""
","
",5074.6600000420585,<img style='border: 4px solid darkgrey;' src='img/tf1_18_M_ss2.jpeg'></img>,3,NA,exp,NA,2,<img src='img/tf1_18_T1_ss2_md.jpeg'></img>,0,FALSE,NA,sub101
NA,html-keyboard-response,49,143069,0.0-10.0-0.18,"""event"",""trial"",""time""
""fullscreenenter"",""0"",""2488""
","
","
","""event"",""trial"",""time""
""fullscreenenter"",""0"",""2488""
","
",null,"<div style=""font-size:60px;"">+</div>",NA,null,fixation,2020-06-21T00:14:21Z,NA,NA,NA,NA,NA,sub101
NA,mars-trial,50,145925,0.0-10.0-1.18,"""event"",""trial"",""time""
""fullscreenenter"",""0"",""2488""
","
","
","""event"",""trial"",""time""
""fullscreenenter"",""0"",""2488""
","
",2249.680000008084,<img style='border: 4px solid darkgrey;' src='img/tf1_19_M_ss3.jpeg'></img>,1,NA,exp,NA,3,<img src='img/tf1_19_T1_ss3_md.jpeg'></img>,0,FALSE,NA,sub101
NA,html-keyboard-response,51,146428,0.0-10.0-0.19,"""event"",""trial"",""time""
""fullscreenenter"",""0"",""2488""
","
","
","""event"",""trial"",""time""
""fullscreenenter"",""0"",""2488""
","
",null,"<div style=""font-size:60px;"">+</div>",NA,null,fixation,2020-06-21T00:14:25Z,NA,NA,NA,NA,NA,sub101
NA,mars-trial,52,150985,0.0-10.0-1.19,"""event"",""trial"",""time""
""fullscreenenter"",""0"",""2488""
","
","
","""event"",""trial"",""time""
""fullscreenenter"",""0"",""2488""
","
",3949.199999915436,<img style='border: 4px solid darkgrey;' src='img/tf1_20_M_ss1.jpeg'></img>,1,NA,exp,NA,0,<img src='img/tf1_20_T1_ss1_md.jpeg'></img>,0,TRUE,NA,sub101
NA,html-keyboard-response,53,151486,0.0-10.0-0.20,"""event"",""trial"",""time""
""fullscreenenter"",""0"",""2488""
","
","
","""event"",""trial"",""time""
""fullscreenenter"",""0"",""2488""
","
",null,"<div style=""font-size:60px;"">+</div>",NA,null,fixation,2020-06-21T00:14:30Z,NA,NA,NA,NA,NA,sub101
NA,mars-trial,54,155206,0.0-10.0-1.20,"""event"",""trial"",""time""
""fullscreenenter"",""0"",""2488""
","
","
","""event"",""trial"",""time""
""fullscreenenter"",""0"",""2488""
","
",3107.219999888912,<img style='border: 4px solid darkgrey;' src='img/tf1_21_M_ss2.jpeg'></img>,1,NA,exp,NA,1,<img src='img/tf1_21_T1_ss2_md.jpeg'></img>,0,FALSE,NA,sub101
NA,html-keyboard-response,55,155708,0.0-10.0-0.21,"""event"",""trial"",""time""
""fullscreenenter"",""0"",""2488""
","
","
","""event"",""trial"",""time""
""fullscreenenter"",""0"",""2488""
","
",null,"<div style=""font-size:60px;"">+</div>",NA,null,fixation,2020-06-21T00:14:34Z,NA,NA,NA,NA,NA,sub101
NA,mars-trial,56,161064,0.0-10.0-1.21,"""event"",""trial"",""time""
""fullscreenenter"",""0"",""2488""
","
","
","""event"",""trial"",""time""
""fullscreenenter"",""0"",""2488""
","
",4745.269999955781,<img style='border: 4px solid darkgrey;' src='img/tf1_22_M_ss3.jpeg'></img>,3,NA,exp,NA,0,<img src='img/tf1_22_T1_ss3_md.jpeg'></img>,0,TRUE,NA,sub101
NA,html-keyboard-response,57,161569,0.0-10.0-0.22,"""event"",""trial"",""time""
""fullscreenenter"",""0"",""2488""
","
","
","""event"",""trial"",""time""
""fullscreenenter"",""0"",""2488""
","
",null,"<div style=""font-size:60px;"">+</div>",NA,null,fixation,2020-06-21T00:14:40Z,NA,NA,NA,NA,NA,sub101
NA,mars-trial,58,165713,0.0-10.0-1.22,"""event"",""trial"",""time""
""fullscreenenter"",""0"",""2488""
","
","
","""event"",""trial"",""time""
""fullscreenenter"",""0"",""2488""
","
",3532.134999986738,<img style='border: 4px solid darkgrey;' src='img/tf1_23_M_ss1.jpeg'></img>,2,NA,exp,NA,0,<img src='img/tf1_23_T1_ss1_md.jpeg'></img>,0,TRUE,NA,sub101
NA,html-keyboard-response,59,166215,0.0-10.0-0.23,"""event"",""trial"",""time""
""fullscreenenter"",""0"",""2488""
","
","
","""event"",""trial"",""time""
""fullscreenenter"",""0"",""2488""
","
",null,"<div style=""font-size:60px;"">+</div>",NA,null,fixation,2020-06-21T00:14:44Z,NA,NA,NA,NA,NA,sub101
NA,mars-trial,60,171698,0.0-10.0-1.23,"""event"",""trial"",""time""
""fullscreenenter"",""0"",""2488""
","
","
","""event"",""trial"",""time""
""fullscreenenter"",""0"",""2488""
","
",4870.800000033341,<img style='border: 4px solid darkgrey;' src='img/tf1_24_M_ss2.jpeg'></img>,0,NA,exp,NA,1,<img src='img/tf1_24_T1_ss2_md.jpeg'></img>,0,FALSE,NA,sub101
NA,html-keyboard-response,61,172202,0.0-10.0-0.24,"""event"",""trial"",""time""
""fullscreenenter"",""0"",""2488""
","
","
","""event"",""trial"",""time""
""fullscreenenter"",""0"",""2488""
","
",null,"<div style=""font-size:60px;"">+</div>",NA,null,fixation,2020-06-21T00:14:50Z,NA,NA,NA,NA,NA,sub101
NA,mars-trial,62,176914,0.0-10.0-1.24,"""event"",""trial"",""time""
""fullscreenenter"",""0"",""2488""
","
","
","""event"",""trial"",""time""
""fullscreenenter"",""0"",""2488""
","
",4099.244999932125,<img style='border: 4px solid darkgrey;' src='img/tf1_25_M_ss3.jpeg'></img>,0,NA,exp,NA,0,<img src='img/tf1_25_T1_ss3_md.jpeg'></img>,0,TRUE,NA,sub101
NA,html-keyboard-response,63,177417,0.0-10.0-0.25,"""event"",""trial"",""time""
""fullscreenenter"",""0"",""2488""
","
","
","""event"",""trial"",""time""
""fullscreenenter"",""0"",""2488""
","
",null,"<div style=""font-size:60px;"">+</div>",NA,null,fixation,2020-06-21T00:14:56Z,NA,NA,NA,NA,NA,sub101
NA,mars-trial,64,184038,0.0-10.0-1.25,"""event"",""trial"",""time""
""fullscreenenter"",""0"",""2488""
","
","
","""event"",""trial"",""time""
""fullscreenenter"",""0"",""2488""
","
",6010.869999998249,<img style='border: 4px solid darkgrey;' src='img/tf1_26_M_ss1.jpeg'></img>,3,NA,exp,NA,0,<img src='img/tf1_26_T1_ss1_md.jpeg'></img>,0,TRUE,NA,sub101
NA,html-keyboard-response,65,184541,0.0-10.0-0.26,"""event"",""trial"",""time""
""fullscreenenter"",""0"",""2488""
","
","
","""event"",""trial"",""time""
""fullscreenenter"",""0"",""2488""
","
",null,"<div style=""font-size:60px;"">+</div>",NA,null,fixation,2020-06-21T00:15:03Z,NA,NA,NA,NA,NA,sub101
NA,mars-trial,66,189049,0.0-10.0-1.26,"""event"",""trial"",""time""
""fullscreenenter"",""0"",""2488""
","
","
","""event"",""trial"",""time""
""fullscreenenter"",""0"",""2488""
","
",3899.1750000277534,<img style='border: 4px solid darkgrey;' src='img/tf1_27_M_ss2.jpeg'></img>,2,NA,exp,NA,1,<img src='img/tf1_27_T1_ss2_md.jpeg'></img>,0,FALSE,NA,sub101
NA,html-keyboard-response,67,189552,0.0-10.0-0.27,"""event"",""trial"",""time""
""fullscreenenter"",""0"",""2488""
","
","
","""event"",""trial"",""time""
""fullscreenenter"",""0"",""2488""
","
",null,"<div style=""font-size:60px;"">+</div>",NA,null,fixation,2020-06-21T00:15:08Z,NA,NA,NA,NA,NA,sub101
NA,mars-trial,68,196381,0.0-10.0-1.27,"""event"",""trial"",""time""
""fullscreenenter"",""0"",""2488""
","
","
","""event"",""trial"",""time""
""fullscreenenter"",""0"",""2488""
","
",6219.819999998435,<img style='border: 4px solid darkgrey;' src='img/tf1_28_M_ss3.jpeg'></img>,1,NA,exp,NA,3,<img src='img/tf1_28_T1_ss3_md.jpeg'></img>,0,FALSE,NA,sub101
NA,html-keyboard-response,69,196884,0.0-10.0-0.28,"""event"",""trial"",""time""
""fullscreenenter"",""0"",""2488""
","
","
","""event"",""trial"",""time""
""fullscreenenter"",""0"",""2488""
","
",null,"<div style=""font-size:60px;"">+</div>",NA,null,fixation,2020-06-21T00:15:15Z,NA,NA,NA,NA,NA,sub101
NA,mars-trial,70,201880,0.0-10.0-1.28,"""event"",""trial"",""time""
""fullscreenenter"",""0"",""2488""
","
","
","""event"",""trial"",""time""
""fullscreenenter"",""0"",""2488""
","
",4386.934999958612,<img style='border: 4px solid darkgrey;' src='img/tf1_29_M_ss1.jpeg'></img>,1,NA,exp,NA,0,<img src='img/tf1_29_T1_ss1_md.jpeg'></img>,0,TRUE,NA,sub101
NA,html-keyboard-response,71,202383,0.0-10.0-0.29,"""event"",""trial"",""time""
""fullscreenenter"",""0"",""2488""
","
","
","""event"",""trial"",""time""
""fullscreenenter"",""0"",""2488""
","
",null,"<div style=""font-size:60px;"">+</div>",NA,null,fixation,2020-06-21T00:15:21Z,NA,NA,NA,NA,NA,sub101
NA,mars-trial,72,207656,0.0-10.0-1.29,"""event"",""trial"",""time""
""fullscreenenter"",""0"",""2488""
","
","
","""event"",""trial"",""time""
""fullscreenenter"",""0"",""2488""
","
",4662.969999946654,<img style='border: 4px solid darkgrey;' src='img/tf1_30_M_ss2.jpeg'></img>,3,NA,exp,NA,1,<img src='img/tf1_30_T1_ss2_md.jpeg'></img>,0,FALSE,NA,sub101
NA,html-keyboard-response,73,208159,0.0-10.0-0.30,"""event"",""trial"",""time""
""fullscreenenter"",""0"",""2488""
","
","
","""event"",""trial"",""time""
""fullscreenenter"",""0"",""2488""
","
",null,"<div style=""font-size:60px;"">+</div>",NA,null,fixation,2020-06-21T00:15:26Z,NA,NA,NA,NA,NA,sub101
NA,mars-trial,74,214135,0.0-10.0-1.30,"""event"",""trial"",""time""
""fullscreenenter"",""0"",""2488""
","
","
","""event"",""trial"",""time""
""fullscreenenter"",""0"",""2488""
","
",5367.760000051931,<img style='border: 4px solid darkgrey;' src='img/tf1_31_M_ss3.jpeg'></img>,1,NA,exp,NA,1,<img src='img/tf1_31_T1_ss3_md.jpeg'></img>,0,FALSE,NA,sub101
NA,html-keyboard-response,75,214638,0.0-10.0-0.31,"""event"",""trial"",""time""
""fullscreenenter"",""0"",""2488""
","
","
","""event"",""trial"",""time""
""fullscreenenter"",""0"",""2488""
","
",null,"<div style=""font-size:60px;"">+</div>",NA,null,fixation,2020-06-21T00:15:33Z,NA,NA,NA,NA,NA,sub101
NA,mars-trial,76,219351,0.0-10.0-1.31,"""event"",""trial"",""time""
""fullscreenenter"",""0"",""2488""
","
","
","""event"",""trial"",""time""
""fullscreenenter"",""0"",""2488""
","
",4102.86499990616,<img style='border: 4px solid darkgrey;' src='img/tf1_32_M_ss1.jpeg'></img>,1,NA,exp,NA,0,<img src='img/tf1_32_T1_ss1_md.jpeg'></img>,0,TRUE,NA,sub101
NA,html-keyboard-response,77,219853,0.0-10.0-0.32,"""event"",""trial"",""time""
""fullscreenenter"",""0"",""2488""
","
","
","""event"",""trial"",""time""
""fullscreenenter"",""0"",""2488""
","
",null,"<div style=""font-size:60px;"">+</div>",NA,null,fixation,2020-06-21T00:15:38Z,NA,NA,NA,NA,NA,sub101
NA,mars-trial,78,224091,0.0-10.0-1.32,"""event"",""trial"",""time""
""fullscreenenter"",""0"",""2488""
","
","
","""event"",""trial"",""time""
""fullscreenenter"",""0"",""2488""
","
",3629.3099999893457,<img style='border: 4px solid darkgrey;' src='img/tf1_33_M_ss2.jpeg'></img>,2,NA,exp,NA,0,<img src='img/tf1_33_T1_ss2_md.jpeg'></img>,0,TRUE,NA,sub101
NA,html-keyboard-response,79,224594,0.0-10.0-0.33,"""event"",""trial"",""time""
""fullscreenenter"",""0"",""2488""
","
","
","""event"",""trial"",""time""
""fullscreenenter"",""0"",""2488""
","
",null,"<div style=""font-size:60px;"">+</div>",NA,null,fixation,2020-06-21T00:15:43Z,NA,NA,NA,NA,NA,sub101
NA,mars-trial,80,233323,0.0-10.0-1.33,"""event"",""trial"",""time""
""fullscreenenter"",""0"",""2488""
","
","
","""event"",""trial"",""time""
""fullscreenenter"",""0"",""2488""
","
",8119.84499997925,<img style='border: 4px solid darkgrey;' src='img/tf1_34_M_ss3.jpeg'></img>,2,NA,exp,NA,2,<img src='img/tf1_34_T1_ss3_md.jpeg'></img>,0,FALSE,NA,sub101
NA,html-keyboard-response,81,233826,0.0-10.0-0.34,"""event"",""trial"",""time""
""fullscreenenter"",""0"",""2488""
","
","
","""event"",""trial"",""time""
""fullscreenenter"",""0"",""2488""
","
",null,"<div style=""font-size:60px;"">+</div>",NA,null,fixation,2020-06-21T00:15:52Z,NA,NA,NA,NA,NA,sub101
NA,mars-trial,82,238340,0.0-10.0-1.34,"""event"",""trial"",""time""
""fullscreenenter"",""0"",""2488""
","
","
","""event"",""trial"",""time""
""fullscreenenter"",""0"",""2488""
","
",3905.320000019856,<img style='border: 4px solid darkgrey;' src='img/tf1_35_M_ss1.jpeg'></img>,1,NA,exp,NA,2,<img src='img/tf1_35_T1_ss1_md.jpeg'></img>,0,FALSE,NA,sub101
NA,html-keyboard-response,83,238843,0.0-10.0-0.35,"""event"",""trial"",""time""
""fullscreenenter"",""0"",""2488""
","
","
","""event"",""trial"",""time""
""fullscreenenter"",""0"",""2488""
","
",null,"<div style=""font-size:60px;"">+</div>",NA,null,fixation,2020-06-21T00:15:57Z,NA,NA,NA,NA,NA,sub101
NA,mars-trial,84,244416,0.0-10.0-1.35,"""event"",""trial"",""time""
""fullscreenenter"",""0"",""2488""
","
","
","""event"",""trial"",""time""
""fullscreenenter"",""0"",""2488""
","
",4962.6200000057,<img style='border: 4px solid darkgrey;' src='img/tf1_36_M_ss2.jpeg'></img>,1,NA,exp,NA,0,<img src='img/tf1_36_T1_ss2_md.jpeg'></img>,0,TRUE,NA,sub101
NA,html-keyboard-response,85,244920,0.0-10.0-0.36,"""event"",""trial"",""time""
""fullscreenenter"",""0"",""2488""
","
","
","""event"",""trial"",""time""
""fullscreenenter"",""0"",""2488""
","
",null,"<div style=""font-size:60px;"">+</div>",NA,null,fixation,2020-06-21T00:16:03Z,NA,NA,NA,NA,NA,sub101
NA,mars-trial,86,252842,0.0-10.0-1.36,"""event"",""trial"",""time""
""fullscreenenter"",""0"",""2488""
","
","
","""event"",""trial"",""time""
""fullscreenenter"",""0"",""2488""
","
",7312.779999920167,<img style='border: 4px solid darkgrey;' src='img/tf1_37_M_ss3.jpeg'></img>,3,NA,exp,NA,1,<img src='img/tf1_37_T1_ss3_md.jpeg'></img>,0,FALSE,NA,sub101
NA,html-keyboard-response,87,253344,0.0-10.0-0.37,"""event"",""trial"",""time""
""fullscreenenter"",""0"",""2488""
","
","
","""event"",""trial"",""time""
""fullscreenenter"",""0"",""2488""
","
",null,"<div style=""font-size:60px;"">+</div>",NA,null,fixation,2020-06-21T00:16:12Z,NA,NA,NA,NA,NA,sub101
NA,mars-trial,88,257015,0.0-10.0-1.37,"""event"",""trial"",""time""
""fullscreenenter"",""0"",""2488""
","
","
","""event"",""trial"",""time""
""fullscreenenter"",""0"",""2488""
","
",3061.9549999246374,<img style='border: 4px solid darkgrey;' src='img/tf1_38_M_ss1.jpeg'></img>,1,NA,exp,NA,0,<img src='img/tf1_38_T1_ss1_md.jpeg'></img>,0,TRUE,NA,sub101
NA,html-keyboard-response,89,257518,0.0-10.0-0.38,"""event"",""trial"",""time""
""fullscreenenter"",""0"",""2488""
","
","
","""event"",""trial"",""time""
""fullscreenenter"",""0"",""2488""
","
",null,"<div style=""font-size:60px;"">+</div>",NA,null,fixation,2020-06-21T00:16:16Z,NA,NA,NA,NA,NA,sub101
NA,mars-trial,90,264739,0.0-10.0-1.38,"""event"",""trial"",""time""
""fullscreenenter"",""0"",""2488""
","
","
","""event"",""trial"",""time""
""fullscreenenter"",""0"",""2488""
","
",6612.874999991618,<img style='border: 4px solid darkgrey;' src='img/tf1_39_M_ss2.jpeg'></img>,0,NA,exp,NA,0,<img src='img/tf1_39_T1_ss2_md.jpeg'></img>,0,TRUE,NA,sub101
NA,html-keyboard-response,91,265243,0.0-10.0-0.39,"""event"",""trial"",""time""
""fullscreenenter"",""0"",""2488""
","
","
","""event"",""trial"",""time""
""fullscreenenter"",""0"",""2488""
","
",null,"<div style=""font-size:60px;"">+</div>",NA,null,fixation,2020-06-21T00:16:23Z,NA,NA,NA,NA,NA,sub101
NA,mars-trial,92,275446,0.0-10.0-1.39,"""event"",""trial"",""time""
""fullscreenenter"",""0"",""2488""
","
","
","""event"",""trial"",""time""
""fullscreenenter"",""0"",""2488""
","
",9593.939999933355,<img style='border: 4px solid darkgrey;' src='img/tf1_40_M_ss3.jpeg'></img>,0,NA,exp,NA,0,<img src='img/tf1_40_T1_ss3_md.jpeg'></img>,0,TRUE,NA,sub101
NA,html-keyboard-response,93,275948,0.0-10.0-0.40,"""event"",""trial"",""time""
""fullscreenenter"",""0"",""2488""
","
","
","""event"",""trial"",""time""
""fullscreenenter"",""0"",""2488""
","
",null,"<div style=""font-size:60px;"">+</div>",NA,null,fixation,2020-06-21T00:16:34Z,NA,NA,NA,NA,NA,sub101
NA,mars-trial,94,279036,0.0-10.0-1.40,"""event"",""trial"",""time""
""fullscreenenter"",""0"",""2488""
","
","
","""event"",""trial"",""time""
""fullscreenenter"",""0"",""2488""
","
",2478.5099999280646,<img style='border: 4px solid darkgrey;' src='img/tf1_41_M_ss1.jpeg'></img>,1,NA,exp,NA,0,<img src='img/tf1_41_T1_ss1_md.jpeg'></img>,0,TRUE,NA,sub101
NA,html-keyboard-response,95,279538,0.0-10.0-0.41,"""event"",""trial"",""time""
""fullscreenenter"",""0"",""2488""
","
","
","""event"",""trial"",""time""
""fullscreenenter"",""0"",""2488""
","
",null,"<div style=""font-size:60px;"">+</div>",NA,null,fixation,2020-06-21T00:16:38Z,NA,NA,NA,NA,NA,sub101
NA,mars-trial,96,288958,0.0-10.0-1.41,"""event"",""trial"",""time""
""fullscreenenter"",""0"",""2488""
","
","
","""event"",""trial"",""time""
""fullscreenenter"",""0"",""2488""
","
",8810.7650000602,<img style='border: 4px solid darkgrey;' src='img/tf1_42_M_ss2.jpeg'></img>,0,NA,exp,NA,2,<img src='img/tf1_42_T1_ss2_md.jpeg'></img>,0,FALSE,NA,sub101
NA,html-keyboard-response,97,289461,0.0-10.0-0.42,"""event"",""trial"",""time""
""fullscreenenter"",""0"",""2488""
","
","
","""event"",""trial"",""time""
""fullscreenenter"",""0"",""2488""
","
",null,"<div style=""font-size:60px;"">+</div>",NA,null,fixation,2020-06-21T00:16:48Z,NA,NA,NA,NA,NA,sub101
NA,mars-trial,98,292355,0.0-10.0-1.42,"""event"",""trial"",""time""
""fullscreenenter"",""0"",""2488""
","
","
","""event"",""trial"",""time""
""fullscreenenter"",""0"",""2488""
","
",2282.0599999977276,<img style='border: 4px solid darkgrey;' src='img/tf1_43_M_ss3.jpeg'></img>,2,NA,exp,NA,3,<img src='img/tf1_43_T1_ss3_md.jpeg'></img>,0,FALSE,NA,sub101
NA,html-keyboard-response,99,292858,0.0-10.0-0.43,"""event"",""trial"",""time""
""fullscreenenter"",""0"",""2488""
","
","
","""event"",""trial"",""time""
""fullscreenenter"",""0"",""2488""
","
",null,"<div style=""font-size:60px;"">+</div>",NA,null,fixation,2020-06-21T00:16:51Z,NA,NA,NA,NA,NA,sub101
NA,mars-trial,100,297662,0.0-10.0-1.43,"""event"",""trial"",""time""
""fullscreenenter"",""0"",""2488""
","
","
","""event"",""trial"",""time""
""fullscreenenter"",""0"",""2488""
","
",4195.305000059307,<img style='border: 4px solid darkgrey;' src='img/tf1_44_M_ss1.jpeg'></img>,3,NA,exp,NA,2,<img src='img/tf1_44_T1_ss1_md.jpeg'></img>,0,FALSE,NA,sub101
NA,html-keyboard-response,101,298165,0.0-10.0-0.44,"""event"",""trial"",""time""
""fullscreenenter"",""0"",""2488""
","
","
","""event"",""trial"",""time""
""fullscreenenter"",""0"",""2488""
","
",null,"<div style=""font-size:60px;"">+</div>",NA,null,fixation,2020-06-21T00:16:56Z,NA,NA,NA,NA,NA,sub101
NA,mars-trial,102,304377,0.0-10.0-1.44,"""event"",""trial"",""time""
""fullscreenenter"",""0"",""2488""
","
","
","""event"",""trial"",""time""
""fullscreenenter"",""0"",""2488""
","
",5603.739999933168,<img style='border: 4px solid darkgrey;' src='img/tf1_45_M_ss2.jpeg'></img>,1,NA,exp,NA,3,<img src='img/tf1_45_T1_ss2_md.jpeg'></img>,0,FALSE,NA,sub101
NA,html-keyboard-response,103,304880,0.0-10.0-0.45,"""event"",""trial"",""time""
""fullscreenenter"",""0"",""2488""
","
","
","""event"",""trial"",""time""
""fullscreenenter"",""0"",""2488""
","
",null,"<div style=""font-size:60px;"">+</div>",NA,null,fixation,2020-06-21T00:17:03Z,NA,NA,NA,NA,NA,sub101
NA,mars-trial,104,307982,0.0-10.0-1.45,"""event"",""trial"",""time""
""fullscreenenter"",""0"",""2488""
","
","
","""event"",""trial"",""time""
""fullscreenenter"",""0"",""2488""
","
",2494.3050000583753,<img style='border: 4px solid darkgrey;' src='img/tf1_46_M_ss3.jpeg'></img>,1,NA,exp,NA,0,<img src='img/tf1_46_T1_ss3_md.jpeg'></img>,0,TRUE,NA,sub101
NA,html-keyboard-response,105,308484,0.0-10.0-0.46,"""event"",""trial"",""time""
""fullscreenenter"",""0"",""2488""
","
","
","""event"",""trial"",""time""
""fullscreenenter"",""0"",""2488""
","
",null,"<div style=""font-size:60px;"">+</div>",NA,null,fixation,2020-06-21T00:17:07Z,NA,NA,NA,NA,NA,sub101
NA,mars-trial,106,316991,0.0-10.0-1.46,"""event"",""trial"",""time""
""fullscreenenter"",""0"",""2488""
","
","
","""event"",""trial"",""time""
""fullscreenenter"",""0"",""2488""
","
",7897.930000093766,<img style='border: 4px solid darkgrey;' src='img/tf1_47_M_ss1.jpeg'></img>,3,NA,exp,NA,0,<img src='img/tf1_47_T1_ss1_md.jpeg'></img>,0,TRUE,NA,sub101
NA,html-keyboard-response,107,317494,0.0-10.0-0.47,"""event"",""trial"",""time""
""fullscreenenter"",""0"",""2488""
","
","
","""event"",""trial"",""time""
""fullscreenenter"",""0"",""2488""
","
",null,"<div style=""font-size:60px;"">+</div>",NA,null,fixation,2020-06-21T00:17:16Z,NA,NA,NA,NA,NA,sub101
NA,mars-trial,108,324938,0.0-10.0-1.47,"""event"",""trial"",""time""
""fullscreenenter"",""0"",""2488""
","
","
","""event"",""trial"",""time""
""fullscreenenter"",""0"",""2488""
","
",6834.4799999613315,<img style='border: 4px solid darkgrey;' src='img/tf1_48_M_ss2.jpeg'></img>,1,NA,exp,NA,0,<img src='img/tf1_48_T1_ss2_md.jpeg'></img>,0,TRUE,NA,sub101
NA,html-keyboard-response,109,325442,0.0-10.0-0.48,"""event"",""trial"",""time""
""fullscreenenter"",""0"",""2488""
","
","
","""event"",""trial"",""time""
""fullscreenenter"",""0"",""2488""
","
",null,"<div style=""font-size:60px;"">+</div>",NA,null,fixation,2020-06-21T00:17:24Z,NA,NA,NA,NA,NA,sub101
NA,mars-trial,110,329611,0.0-10.0-1.48,"""event"",""trial"",""time""
""fullscreenenter"",""0"",""2488""
","
","
","""event"",""trial"",""time""
""fullscreenenter"",""0"",""2488""
","
",3559.690000023693,<img style='border: 4px solid darkgrey;' src='img/tf1_49_M_ss3.jpeg'></img>,1,NA,exp,NA,0,<img src='img/tf1_49_T1_ss3_md.jpeg'></img>,0,TRUE,NA,sub101
NA,html-keyboard-response,111,330114,0.0-10.0-0.49,"""event"",""trial"",""time""
""fullscreenenter"",""0"",""2488""
","
","
","""event"",""trial"",""time""
""fullscreenenter"",""0"",""2488""
","
",null,"<div style=""font-size:60px;"">+</div>",NA,null,fixation,2020-06-21T00:17:28Z,NA,NA,NA,NA,NA,sub101
NA,mars-trial,112,335786,0.0-10.0-1.49,"""event"",""trial"",""time""
""fullscreenenter"",""0"",""2488""
","
","
","""event"",""trial"",""time""
""fullscreenenter"",""0"",""2488""
","
",5062.850000103936,<img style='border: 4px solid darkgrey;' src='img/tf1_50_M_ss1.jpeg'></img>,0,NA,exp,NA,0,<img src='img/tf1_50_T1_ss1_md.jpeg'></img>,0,TRUE,NA,sub101
NA,html-keyboard-response,113,336289,0.0-10.0-0.50,"""event"",""trial"",""time""
""fullscreenenter"",""0"",""2488""
","
","
","""event"",""trial"",""time""
""fullscreenenter"",""0"",""2488""
","
",null,"<div style=""font-size:60px;"">+</div>",NA,null,fixation,2020-06-21T00:17:34Z,NA,NA,NA,NA,NA,sub101
NA,mars-trial,114,341094,0.0-10.0-1.50,"""event"",""trial"",""time""
""fullscreenenter"",""0"",""2488""
","
","
","""event"",""trial"",""time""
""fullscreenenter"",""0"",""2488""
","
",4195.919999969192,<img style='border: 4px solid darkgrey;' src='img/tf1_51_M_ss2.jpeg'></img>,1,NA,exp,NA,0,<img src='img/tf1_51_T1_ss2_md.jpeg'></img>,0,TRUE,NA,sub101
NA,html-keyboard-response,115,341596,0.0-10.0-0.51,"""event"",""trial"",""time""
""fullscreenenter"",""0"",""2488""
","
","
","""event"",""trial"",""time""
""fullscreenenter"",""0"",""2488""
","
",null,"<div style=""font-size:60px;"">+</div>",NA,null,fixation,2020-06-21T00:17:40Z,NA,NA,NA,NA,NA,sub101
NA,mars-trial,116,347275,0.0-10.0-1.51,"""event"",""trial"",""time""
""fullscreenenter"",""0"",""2488""
","
","
","""event"",""trial"",""time""
""fullscreenenter"",""0"",""2488""
","
",5069.315000087954,<img style='border: 4px solid darkgrey;' src='img/tf1_52_M_ss3.jpeg'></img>,0,NA,exp,NA,3,<img src='img/tf1_52_T1_ss3_md.jpeg'></img>,0,FALSE,NA,sub101
NA,html-keyboard-response,117,347778,0.0-10.0-0.52,"""event"",""trial"",""time""
""fullscreenenter"",""0"",""2488""
","
","
","""event"",""trial"",""time""
""fullscreenenter"",""0"",""2488""
","
",null,"<div style=""font-size:60px;"">+</div>",NA,null,fixation,2020-06-21T00:17:46Z,NA,NA,NA,NA,NA,sub101
NA,mars-trial,118,352786,0.0-10.0-1.52,"""event"",""trial"",""time""
""fullscreenenter"",""0"",""2488""
","
","
","""event"",""trial"",""time""
""fullscreenenter"",""0"",""2488""
","
",4398.5950000351295,<img style='border: 4px solid darkgrey;' src='img/tf1_53_M_ss1.jpeg'></img>,3,NA,exp,NA,1,<img src='img/tf1_53_T1_ss1_md.jpeg'></img>,0,FALSE,NA,sub101
NA,html-keyboard-response,119,353289,0.0-10.0-0.53,"""event"",""trial"",""time""
""fullscreenenter"",""0"",""2488""
","
","
","""event"",""trial"",""time""
""fullscreenenter"",""0"",""2488""
","
",null,"<div style=""font-size:60px;"">+</div>",NA,null,fixation,2020-06-21T00:17:51Z,NA,NA,NA,NA,NA,sub101
NA,mars-trial,120,361233,0.0-10.0-1.53,"""event"",""trial"",""time""
""fullscreenenter"",""0"",""2488""
","
","
","""event"",""trial"",""time""
""fullscreenenter"",""0"",""2488""
","
",7334.475000039674,<img style='border: 4px solid darkgrey;' src='img/tf1_54_M_ss2.jpeg'></img>,2,NA,exp,NA,1,<img src='img/tf1_54_T1_ss2_md.jpeg'></img>,0,FALSE,NA,sub101
NA,html-keyboard-response,121,361735,0.0-10.0-0.54,"""event"",""trial"",""time""
""fullscreenenter"",""0"",""2488""
","
","
","""event"",""trial"",""time""
""fullscreenenter"",""0"",""2488""
","
",null,"<div style=""font-size:60px;"">+</div>",NA,null,fixation,2020-06-21T00:18:00Z,NA,NA,NA,NA,NA,sub101
NA,mars-trial,122,369328,0.0-10.0-1.54,"""event"",""trial"",""time""
""fullscreenenter"",""0"",""2488""
","
","
","""event"",""trial"",""time""
""fullscreenenter"",""0"",""2488""
","
",6981.864999979734,<img style='border: 4px solid darkgrey;' src='img/tf1_55_M_ss3.jpeg'></img>,2,NA,exp,NA,0,<img src='img/tf1_55_T1_ss3_md.jpeg'></img>,0,TRUE,NA,sub101
NA,html-keyboard-response,123,369831,0.0-10.0-0.55,"""event"",""trial"",""time""
""fullscreenenter"",""0"",""2488""
","
","
","""event"",""trial"",""time""
""fullscreenenter"",""0"",""2488""
","
",null,"<div style=""font-size:60px;"">+</div>",NA,null,fixation,2020-06-21T00:18:08Z,NA,NA,NA,NA,NA,sub101
NA,mars-trial,124,375852,0.0-10.0-1.55,"""event"",""trial"",""time""
""fullscreenenter"",""0"",""2488""
","
","
","""event"",""trial"",""time""
""fullscreenenter"",""0"",""2488""
","
",5412.394999992102,<img style='border: 4px solid darkgrey;' src='img/tf1_56_M_ss1.jpeg'></img>,1,NA,exp,NA,0,<img src='img/tf1_56_T1_ss1_md.jpeg'></img>,0,TRUE,NA,sub101
NA,html-keyboard-response,125,376354,0.0-10.0-0.56,"""event"",""trial"",""time""
""fullscreenenter"",""0"",""2488""
","
","
","""event"",""trial"",""time""
""fullscreenenter"",""0"",""2488""
","
",null,"<div style=""font-size:60px;"">+</div>",NA,null,fixation,2020-06-21T00:18:15Z,NA,NA,NA,NA,NA,sub101
NA,mars-trial,126,383697,0.0-10.0-1.56,"""event"",""trial"",""time""
""fullscreenenter"",""0"",""2488""
","
","
","""event"",""trial"",""time""
""fullscreenenter"",""0"",""2488""
","
",6733.850000076927,<img style='border: 4px solid darkgrey;' src='img/tf1_57_M_ss2.jpeg'></img>,0,NA,exp,NA,2,<img src='img/tf1_57_T1_ss2_md.jpeg'></img>,0,FALSE,NA,sub101
NA,html-keyboard-response,127,384199,0.0-10.0-0.57,"""event"",""trial"",""time""
""fullscreenenter"",""0"",""2488""
","
","
","""event"",""trial"",""time""
""fullscreenenter"",""0"",""2488""
","
",null,"<div style=""font-size:60px;"">+</div>",NA,null,fixation,2020-06-21T00:18:22Z,NA,NA,NA,NA,NA,sub101
NA,mars-trial,128,390306,0.0-10.0-1.57,"""event"",""trial"",""time""
""fullscreenenter"",""0"",""2488""
","
","
","""event"",""trial"",""time""
""fullscreenenter"",""0"",""2488""
","
",5496.960000018589,<img style='border: 4px solid darkgrey;' src='img/tf1_58_M_ss3.jpeg'></img>,2,NA,exp,NA,0,<img src='img/tf1_58_T1_ss3_md.jpeg'></img>,0,TRUE,NA,sub101
NA,html-keyboard-response,129,390811,0.0-10.0-0.58,"""event"",""trial"",""time""
""fullscreenenter"",""0"",""2488""
","
","
","""event"",""trial"",""time""
""fullscreenenter"",""0"",""2488""
","
",null,"<div style=""font-size:60px;"">+</div>",NA,null,fixation,2020-06-21T00:18:29Z,NA,NA,NA,NA,NA,sub101
NA,mars-trial,130,396473,0.0-10.0-1.58,"""event"",""trial"",""time""
""fullscreenenter"",""0"",""2488""
","
","
","""event"",""trial"",""time""
""fullscreenenter"",""0"",""2488""
","
",5052.530000102706,<img style='border: 4px solid darkgrey;' src='img/tf1_59_M_ss1.jpeg'></img>,3,NA,exp,NA,3,<img src='img/tf1_59_T1_ss1_md.jpeg'></img>,0,FALSE,NA,sub101
NA,html-keyboard-response,131,396976,0.0-10.0-0.59,"""event"",""trial"",""time""
""fullscreenenter"",""0"",""2488""
","
","
","""event"",""trial"",""time""
""fullscreenenter"",""0"",""2488""
","
",null,"<div style=""font-size:60px;"">+</div>",NA,null,fixation,2020-06-21T00:18:35Z,NA,NA,NA,NA,NA,sub101
NA,mars-trial,132,405256,0.0-10.0-1.59,"""event"",""trial"",""time""
""fullscreenenter"",""0"",""2488""
","
","
","""event"",""trial"",""time""
""fullscreenenter"",""0"",""2488""
","
",7671.544999931939,<img style='border: 4px solid darkgrey;' src='img/tf1_60_M_ss2.jpeg'></img>,1,NA,exp,NA,0,<img src='img/tf1_60_T1_ss2_md.jpeg'></img>,0,TRUE,NA,sub101
NA,html-keyboard-response,133,405759,0.0-10.0-0.60,"""event"",""trial"",""time""
""fullscreenenter"",""0"",""2488""
","
","
","""event"",""trial"",""time""
""fullscreenenter"",""0"",""2488""
","
",null,"<div style=""font-size:60px;"">+</div>",NA,null,fixation,2020-06-21T00:18:44Z,NA,NA,NA,NA,NA,sub101
NA,mars-trial,134,410532,0.0-10.0-1.60,"""event"",""trial"",""time""
""fullscreenenter"",""0"",""2488""
","
","
","""event"",""trial"",""time""
""fullscreenenter"",""0"",""2488""
","
",4164.120000088587,<img style='border: 4px solid darkgrey;' src='img/tf1_61_M_ss3.jpeg'></img>,3,NA,exp,NA,0,<img src='img/tf1_61_T1_ss3_md.jpeg'></img>,0,TRUE,NA,sub101
NA,html-keyboard-response,135,411034,0.0-10.0-0.61,"""event"",""trial"",""time""
""fullscreenenter"",""0"",""2488""
","
","
","""event"",""trial"",""time""
""fullscreenenter"",""0"",""2488""
","
",null,"<div style=""font-size:60px;"">+</div>",NA,null,fixation,2020-06-21T00:18:49Z,NA,NA,NA,NA,NA,sub101
NA,mars-trial,136,417322,0.0-10.0-1.61,"""event"",""trial"",""time""
""fullscreenenter"",""0"",""2488""
","
","
","""event"",""trial"",""time""
""fullscreenenter"",""0"",""2488""
","
",5677.789999986999,<img style='border: 4px solid darkgrey;' src='img/tf1_62_M_ss1.jpeg'></img>,1,NA,exp,NA,0,<img src='img/tf1_62_T1_ss1_md.jpeg'></img>,0,TRUE,NA,sub101
NA,html-keyboard-response,137,417824,0.0-10.0-0.62,"""event"",""trial"",""time""
""fullscreenenter"",""0"",""2488""
","
","
","""event"",""trial"",""time""
""fullscreenenter"",""0"",""2488""
","
",null,"<div style=""font-size:60px;"">+</div>",NA,null,fixation,2020-06-21T00:18:56Z,NA,NA,NA,NA,NA,sub101
NA,mars-trial,138,423364,0.0-10.0-1.62,"""event"",""trial"",""time""
""fullscreenenter"",""0"",""2488""
","
","
","""event"",""trial"",""time""
""fullscreenenter"",""0"",""2488""
","
",4930.720000062138,<img style='border: 4px solid darkgrey;' src='img/tf1_63_M_ss2.jpeg'></img>,1,NA,exp,NA,2,<img src='img/tf1_63_T1_ss2_md.jpeg'></img>,0,FALSE,NA,sub101
NA,html-keyboard-response,139,423866,0.0-10.0-0.63,"""event"",""trial"",""time""
""fullscreenenter"",""0"",""2488""
","
","
","""event"",""trial"",""time""
""fullscreenenter"",""0"",""2488""
","
",null,"<div style=""font-size:60px;"">+</div>",NA,null,fixation,2020-06-21T00:19:02Z,NA,NA,NA,NA,NA,sub101
NA,mars-trial,140,432887,0.0-10.0-1.63,"""event"",""trial"",""time""
""fullscreenenter"",""0"",""2488""
","
","
","""event"",""trial"",""time""
""fullscreenenter"",""0"",""2488""
","
",8411.01499996148,<img style='border: 4px solid darkgrey;' src='img/tf1_64_M_ss3.jpeg'></img>,3,NA,exp,NA,1,<img src='img/tf1_64_T1_ss3_md.jpeg'></img>,0,FALSE,NA,sub101
NA,html-keyboard-response,141,433389,0.0-10.0-0.64,"""event"",""trial"",""time""
""fullscreenenter"",""0"",""2488""
","
","
","""event"",""trial"",""time""
""fullscreenenter"",""0"",""2488""
","
",null,"<div style=""font-size:60px;"">+</div>",NA,null,fixation,2020-06-21T00:19:12Z,NA,NA,NA,NA,NA,sub101
NA,mars-trial,142,439642,0.0-10.0-1.64,"""event"",""trial"",""time""
""fullscreenenter"",""0"",""2488""
","
","
","""event"",""trial"",""time""
""fullscreenenter"",""0"",""2488""
","
",5643.294999958016,<img style='border: 4px solid darkgrey;' src='img/tf1_65_M_ss1.jpeg'></img>,1,NA,exp,NA,0,<img src='img/tf1_65_T1_ss1_md.jpeg'></img>,0,TRUE,NA,sub101
NA,html-keyboard-response,143,440144,0.0-10.0-0.65,"""event"",""trial"",""time""
""fullscreenenter"",""0"",""2488""
","
","
","""event"",""trial"",""time""
""fullscreenenter"",""0"",""2488""
","
",null,"<div style=""font-size:60px;"">+</div>",NA,null,fixation,2020-06-21T00:19:18Z,NA,NA,NA,NA,NA,sub101
NA,mars-trial,144,443271,0.0-10.0-1.65,"""event"",""trial"",""time""
""fullscreenenter"",""0"",""2488""
","
","
","""event"",""trial"",""time""
""fullscreenenter"",""0"",""2488""
","
",2519.090000074357,<img style='border: 4px solid darkgrey;' src='img/tf1_66_M_ss2.jpeg'></img>,0,NA,exp,NA,2,<img src='img/tf1_66_T1_ss2_md.jpeg'></img>,0,FALSE,NA,sub101
NA,html-keyboard-response,145,443774,0.0-10.0-0.66,"""event"",""trial"",""time""
""fullscreenenter"",""0"",""2488""
","
","
","""event"",""trial"",""time""
""fullscreenenter"",""0"",""2488""
","
",null,"<div style=""font-size:60px;"">+</div>",NA,null,fixation,2020-06-21T00:19:22Z,NA,NA,NA,NA,NA,sub101
NA,mars-trial,146,448281,0.0-10.0-1.66,"""event"",""trial"",""time""
""fullscreenenter"",""0"",""2488""
","
","
","""event"",""trial"",""time""
""fullscreenenter"",""0"",""2488""
","
",3900.184999918565,<img style='border: 4px solid darkgrey;' src='img/tf1_67_M_ss3.jpeg'></img>,1,NA,exp,NA,1,<img src='img/tf1_67_T1_ss3_md.jpeg'></img>,0,FALSE,NA,sub101
NA,html-keyboard-response,147,448785,0.0-10.0-0.67,"""event"",""trial"",""time""
""fullscreenenter"",""0"",""2488""
","
","
","""event"",""trial"",""time""
""fullscreenenter"",""0"",""2488""
","
",null,"<div style=""font-size:60px;"">+</div>",NA,null,fixation,2020-06-21T00:19:27Z,NA,NA,NA,NA,NA,sub101
NA,mars-trial,148,451210,0.0-10.0-1.67,"""event"",""trial"",""time""
""fullscreenenter"",""0"",""2488""
","
","
","""event"",""trial"",""time""
""fullscreenenter"",""0"",""2488""
","
",1816.7450000764802,<img style='border: 4px solid darkgrey;' src='img/tf1_68_M_ss1.jpeg'></img>,1,NA,exp,NA,0,<img src='img/tf1_68_T1_ss1_md.jpeg'></img>,0,TRUE,NA,sub101
NA,html-keyboard-response,149,451712,0.0-10.0-0.68,"""event"",""trial"",""time""
""fullscreenenter"",""0"",""2488""
","
","
","""event"",""trial"",""time""
""fullscreenenter"",""0"",""2488""
","
",null,"<div style=""font-size:60px;"">+</div>",NA,null,fixation,2020-06-21T00:19:30Z,NA,NA,NA,NA,NA,sub101
NA,mars-trial,150,456706,0.0-10.0-1.68,"""event"",""trial"",""time""
""fullscreenenter"",""0"",""2488""
","
","
","""event"",""trial"",""time""
""fullscreenenter"",""0"",""2488""
","
",4385.770000051707,<img style='border: 4px solid darkgrey;' src='img/tf1_69_M_ss2.jpeg'></img>,3,NA,exp,NA,3,<img src='img/tf1_69_T1_ss2_md.jpeg'></img>,0,FALSE,NA,sub101
NA,html-keyboard-response,151,457208,0.0-10.0-0.69,"""event"",""trial"",""time""
""fullscreenenter"",""0"",""2488""
","
","
","""event"",""trial"",""time""
""fullscreenenter"",""0"",""2488""
","
",null,"<div style=""font-size:60px;"">+</div>",NA,null,fixation,2020-06-21T00:19:35Z,NA,NA,NA,NA,NA,sub101
NA,mars-trial,152,460433,0.0-10.0-1.69,"""event"",""trial"",""time""
""fullscreenenter"",""0"",""2488""
","
","
","""event"",""trial"",""time""
""fullscreenenter"",""0"",""2488""
","
",2614.9150000419468,<img style='border: 4px solid darkgrey;' src='img/tf1_70_M_ss3.jpeg'></img>,2,NA,exp,NA,2,<img src='img/tf1_70_T1_ss3_md.jpeg'></img>,0,FALSE,NA,sub101
NA,html-keyboard-response,153,460936,0.0-10.0-0.70,"""event"",""trial"",""time""
""fullscreenenter"",""0"",""2488""
","
","
","""event"",""trial"",""time""
""fullscreenenter"",""0"",""2488""
","
",null,"<div style=""font-size:60px;"">+</div>",NA,null,fixation,2020-06-21T00:19:39Z,NA,NA,NA,NA,NA,sub101
NA,mars-trial,154,465605,0.0-10.0-1.70,"""event"",""trial"",""time""
""fullscreenenter"",""0"",""2488""
","
","
","""event"",""trial"",""time""
""fullscreenenter"",""0"",""2488""
","
",4059.709999943152,<img style='border: 4px solid darkgrey;' src='img/tf1_71_M_ss1.jpeg'></img>,1,NA,exp,NA,0,<img src='img/tf1_71_T1_ss1_md.jpeg'></img>,0,TRUE,NA,sub101
NA,html-keyboard-response,155,466107,0.0-10.0-0.71,"""event"",""trial"",""time""
""fullscreenenter"",""0"",""2488""
","
","
","""event"",""trial"",""time""
""fullscreenenter"",""0"",""2488""
","
",null,"<div style=""font-size:60px;"">+</div>",NA,null,fixation,2020-06-21T00:19:44Z,NA,NA,NA,NA,NA,sub101
NA,mars-trial,156,472117,0.0-10.0-1.71,"""event"",""trial"",""time""
""fullscreenenter"",""0"",""2488""
","
","
","""event"",""trial"",""time""
""fullscreenenter"",""0"",""2488""
","
",5400.630000047386,<img style='border: 4px solid darkgrey;' src='img/tf1_72_M_ss2.jpeg'></img>,1,NA,exp,NA,0,<img src='img/tf1_72_T1_ss2_md.jpeg'></img>,0,TRUE,NA,sub101
NA,html-keyboard-response,157,472619,0.0-10.0-0.72,"""event"",""trial"",""time""
""fullscreenenter"",""0"",""2488""
","
","
","""event"",""trial"",""time""
""fullscreenenter"",""0"",""2488""
","
",null,"<div style=""font-size:60px;"">+</div>",NA,null,fixation,2020-06-21T00:19:51Z,NA,NA,NA,NA,NA,sub101
NA,mars-trial,158,478269,0.0-10.0-1.72,"""event"",""trial"",""time""
""fullscreenenter"",""0"",""2488""
","
","
","""event"",""trial"",""time""
""fullscreenenter"",""0"",""2488""
","
",5040.9200000576675,<img style='border: 4px solid darkgrey;' src='img/tf1_73_M_ss3.jpeg'></img>,3,NA,exp,NA,2,<img src='img/tf1_73_T1_ss3_md.jpeg'></img>,0,FALSE,NA,sub101
NA,html-keyboard-response,159,478772,0.0-10.0-0.73,"""event"",""trial"",""time""
""fullscreenenter"",""0"",""2488""
","
","
","""event"",""trial"",""time""
""fullscreenenter"",""0"",""2488""
","
",null,"<div style=""font-size:60px;"">+</div>",NA,null,fixation,2020-06-21T00:19:57Z,NA,NA,NA,NA,NA,sub101
NA,mars-trial,160,485829,0.0-10.0-1.73,"""event"",""trial"",""time""
""fullscreenenter"",""0"",""2488""
","
","
","""event"",""trial"",""time""
""fullscreenenter"",""0"",""2488""
","
",6447.8750000707805,<img style='border: 4px solid darkgrey;' src='img/tf1_74_M_ss1.jpeg'></img>,2,NA,exp,NA,3,<img src='img/tf1_74_T1_ss1_md.jpeg'></img>,0,FALSE,NA,sub101
NA,html-keyboard-response,161,486331,0.0-10.0-0.74,"""event"",""trial"",""time""
""fullscreenenter"",""0"",""2488""
","
","
","""event"",""trial"",""time""
""fullscreenenter"",""0"",""2488""
","
",null,"<div style=""font-size:60px;"">+</div>",NA,null,fixation,2020-06-21T00:20:04Z,NA,NA,NA,NA,NA,sub101
NA,mars-trial,162,493593,0.0-10.0-1.74,"""event"",""trial"",""time""
""fullscreenenter"",""0"",""2488""
","
","
","""event"",""trial"",""time""
""fullscreenenter"",""0"",""2488""
","
",6652.765000006184,<img style='border: 4px solid darkgrey;' src='img/tf1_75_M_ss2.jpeg'></img>,0,NA,exp,NA,3,<img src='img/tf1_75_T1_ss2_md.jpeg'></img>,0,FALSE,NA,sub101
NA,html-keyboard-response,163,494095,0.0-10.0-0.75,"""event"",""trial"",""time""
""fullscreenenter"",""0"",""2488""
","
","
","""event"",""trial"",""time""
""fullscreenenter"",""0"",""2488""
","
",null,"<div style=""font-size:60px;"">+</div>",NA,null,fixation,2020-06-21T00:20:12Z,NA,NA,NA,NA,NA,sub101
NA,mars-trial,164,496467,0.0-10.0-1.75,"""event"",""trial"",""time""
""fullscreenenter"",""0"",""2488""
","
","
","""event"",""trial"",""time""
""fullscreenenter"",""0"",""2488""
","
",1762.2449999907985,<img style='border: 4px solid darkgrey;' src='img/tf1_76_M_ss3.jpeg'></img>,2,NA,exp,NA,1,<img src='img/tf1_76_T1_ss3_md.jpeg'></img>,0,FALSE,NA,sub101
NA,html-keyboard-response,165,496969,0.0-10.0-0.76,"""event"",""trial"",""time""
""fullscreenenter"",""0"",""2488""
","
","
","""event"",""trial"",""time""
""fullscreenenter"",""0"",""2488""
","
",null,"<div style=""font-size:60px;"">+</div>",NA,null,fixation,2020-06-21T00:20:15Z,NA,NA,NA,NA,NA,sub101
NA,mars-trial,166,504162,0.0-10.0-1.76,"""event"",""trial"",""time""
""fullscreenenter"",""0"",""2488""
","
","
","""event"",""trial"",""time""
""fullscreenenter"",""0"",""2488""
","
",6585.685000056401,<img style='border: 4px solid darkgrey;' src='img/tf1_77_M_ss1.jpeg'></img>,0,NA,exp,NA,0,<img src='img/tf1_77_T1_ss1_md.jpeg'></img>,0,TRUE,NA,sub101
NA,html-keyboard-response,167,504665,0.0-10.0-0.77,"""event"",""trial"",""time""
""fullscreenenter"",""0"",""2488""
","
","
","""event"",""trial"",""time""
""fullscreenenter"",""0"",""2488""
","
",null,"<div style=""font-size:60px;"">+</div>",NA,null,fixation,2020-06-21T00:20:23Z,NA,NA,NA,NA,NA,sub101
NA,mars-trial,168,506712,0.0-10.0-1.77,"""event"",""trial"",""time""
""fullscreenenter"",""0"",""2488""
","
","
","""event"",""trial"",""time""
""fullscreenenter"",""0"",""2488""
","
",1437.514999997802,<img style='border: 4px solid darkgrey;' src='img/tf1_78_M_ss2.jpeg'></img>,1,NA,exp,NA,3,<img src='img/tf1_78_T1_ss2_md.jpeg'></img>,0,FALSE,NA,sub101
NA,html-keyboard-response,169,507214,0.0-10.0-0.78,"""event"",""trial"",""time""
""fullscreenenter"",""0"",""2488""
","
","
","""event"",""trial"",""time""
""fullscreenenter"",""0"",""2488""
","
",null,"<div style=""font-size:60px;"">+</div>",NA,null,fixation,2020-06-21T00:20:25Z,NA,NA,NA,NA,NA,sub101
NA,mars-trial,170,509282,0.0-10.0-1.78,"""event"",""trial"",""time""
""fullscreenenter"",""0"",""2488""
","
","
","""event"",""trial"",""time""
""fullscreenenter"",""0"",""2488""
","
",1459.7850000718608,<img style='border: 4px solid darkgrey;' src='img/tf1_79_M_ss3.jpeg'></img>,2,NA,exp,NA,0,<img src='img/tf1_79_T1_ss3_md.jpeg'></img>,0,TRUE,NA,sub101
NA,html-keyboard-response,171,509785,0.0-10.0-0.79,"""event"",""trial"",""time""
""fullscreenenter"",""0"",""2488""
","
","
","""event"",""trial"",""time""
""fullscreenenter"",""0"",""2488""
","
",null,"<div style=""font-size:60px;"">+</div>",NA,null,fixation,2020-06-21T00:20:28Z,NA,NA,NA,NA,NA,sub101
NA,mars-trial,172,515225,0.0-10.0-1.79,"""event"",""trial"",""time""
""fullscreenenter"",""0"",""2488""
","
","
","""event"",""trial"",""time""
""fullscreenenter"",""0"",""2488""
","
",4832.0049999747425,<img style='border: 4px solid darkgrey;' src='img/tf1_80_M_ss1.jpeg'></img>,2,NA,exp,NA,2,<img src='img/tf1_80_T1_ss1_md.jpeg'></img>,0,FALSE,NA,sub101
NA,audio-button-response,173,518453,0.0-11.0,"""event"",""trial"",""time""
""fullscreenenter"",""0"",""2488""
","
","
","""event"",""trial"",""time""
""fullscreenenter"",""0"",""2488""
","
",3225.579999969341,audio/mars_instructions_slide5.wav,0,NA,NA,NA,NA,NA,NA,NA,NA,sub101
