success,trial_type,trial_index,time_elapsed,internal_node_id,interactions,blur_events,focus_events,fullscreenenter_events,fullscreenexit_events,rt,stimulus,button_pressed,key_press,part,timestamp,unshuffled_button,correct_response,correct_button,correct,value,subject_id
TRUE,fullscreen,0,6398,0.0-0.0,"""event"",""trial"",""time""
""fullscreenenter"",""0"",""5431""
","
","
","""event"",""trial"",""time""
""fullscreenenter"",""0"",""5431""
","
",NA,NA,NA,NA,NA,NA,NA,NA,NA,NA,NA,sub86
NA,pavlovia,1,6402,0.0-1.0,"""event"",""trial"",""time""
""fullscreenenter"",""0"",""5431""
","
","
","""event"",""trial"",""time""
""fullscreenenter"",""0"",""5431""
","
",NA,NA,NA,NA,NA,NA,NA,NA,NA,NA,NA,sub86
NA,html-button-response,2,8220,0.0-2.0,"""event"",""trial"",""time""
""fullscreenenter"",""0"",""5431""
","
","
","""event"",""trial"",""time""
""fullscreenenter"",""0"",""5431""
","
",1817.0399999944493,<p>Welcome! Press START to begin.</p><br>,0,NA,NA,NA,NA,NA,NA,NA,NA,sub86
NA,audio-button-response,3,59740,0.0-3.0,"""event"",""trial"",""time""
""fullscreenenter"",""0"",""5431""
","
","
","""event"",""trial"",""time""
""fullscreenenter"",""0"",""5431""
","
",51517.50499999616,audio/mars_instructions_slide2.wav,0,NA,NA,NA,NA,NA,NA,NA,NA,sub86
NA,audio-button-response,4,63953,0.0-4.0,"""event"",""trial"",""time""
""fullscreenenter"",""0"",""5431""
","
","
","""event"",""trial"",""time""
""fullscreenenter"",""0"",""5431""
","
",4211.640000110492,audio/mars_instructions_slide3.wav,0,NA,NA,NA,NA,NA,NA,NA,NA,sub86
NA,html-keyboard-response,5,64456,0.0-5.0-0.0,"""event"",""trial"",""time""
""fullscreenenter"",""0"",""5431""
","
","
","""event"",""trial"",""time""
""fullscreenenter"",""0"",""5431""
","
",null,"<div style=""font-size:60px;"">+</div>",NA,null,fixation,2020-06-16T21:08:44Z,NA,NA,NA,NA,NA,sub86
NA,mars-trial,6,72343,0.0-5.0-1.0,"""event"",""trial"",""time""
""fullscreenenter"",""0"",""5431""
","
","
","""event"",""trial"",""time""
""fullscreenenter"",""0"",""5431""
","
",5778.3549999585375,<img style='border: 4px solid darkgrey;' src='practice/pt1_M1.png'></img>,1,NA,practice,NA,2,<img src='practice/pt1_T1.png'></img>,0,FALSE,NA,sub86
NA,html-keyboard-response,7,72845,0.0-5.1-0.1,"""event"",""trial"",""time""
""fullscreenenter"",""0"",""5431""
","
","
","""event"",""trial"",""time""
""fullscreenenter"",""0"",""5431""
","
",null,"<div style=""font-size:60px;"">+</div>",NA,null,fixation,2020-06-16T21:08:53Z,NA,NA,NA,NA,NA,sub86
NA,mars-trial,8,77493,0.0-5.1-1.1,"""event"",""trial"",""time""
""fullscreenenter"",""0"",""5431""
","
","
","""event"",""trial"",""time""
""fullscreenenter"",""0"",""5431""
","
",2542.0800000429153,<img style='border: 4px solid darkgrey;' src='practice/pt1_M1.png'></img>,1,NA,practice,NA,0,<img src='practice/pt1_T1.png'></img>,0,TRUE,NA,sub86
NA,html-keyboard-response,9,77996,0.0-6.0-0.0,"""event"",""trial"",""time""
""fullscreenenter"",""0"",""5431""
","
","
","""event"",""trial"",""time""
""fullscreenenter"",""0"",""5431""
","
",null,"<div style=""font-size:60px;"">+</div>",NA,null,fixation,2020-06-16T21:08:58Z,NA,NA,NA,NA,NA,sub86
NA,mars-trial,10,83150,0.0-6.0-1.0,"""event"",""trial"",""time""
""fullscreenenter"",""0"",""5431""
","
","
","""event"",""trial"",""time""
""fullscreenenter"",""0"",""5431""
","
",3048.9250000100583,<img style='border: 4px solid darkgrey;' src='practice/pt2_M1.png'></img>,1,NA,practice,NA,0,<img src='practice/pt2_T1.png'></img>,0,TRUE,NA,sub86
NA,html-keyboard-response,11,83651,0.0-7.0-0.0,"""event"",""trial"",""time""
""fullscreenenter"",""0"",""5431""
","
","
","""event"",""trial"",""time""
""fullscreenenter"",""0"",""5431""
","
",null,"<div style=""font-size:60px;"">+</div>",NA,null,fixation,2020-06-16T21:09:04Z,NA,NA,NA,NA,NA,sub86
NA,mars-trial,12,87373,0.0-7.0-1.0,"""event"",""trial"",""time""
""fullscreenenter"",""0"",""5431""
","
","
","""event"",""trial"",""time""
""fullscreenenter"",""0"",""5431""
","
",1613.924999954179,<img style='border: 4px solid darkgrey;' src='practice/pt3_M1.png'></img>,0,NA,practice,NA,0,<img src='practice/pt3_T1.png'></img>,0,TRUE,NA,sub86
NA,audio-button-response,13,92347,0.0-8.0,"""event"",""trial"",""time""
""fullscreenenter"",""0"",""5431""
","
","
","""event"",""trial"",""time""
""fullscreenenter"",""0"",""5431""
","
",4973.035000031814,audio/mars_instructions_slide4.wav,0,NA,NA,NA,NA,NA,NA,NA,NA,sub86
NA,call-function,14,92348,0.0-9.0,"""event"",""trial"",""time""
""fullscreenenter"",""0"",""5431""
","
","
","""event"",""trial"",""time""
""fullscreenenter"",""0"",""5431""
","
",NA,NA,NA,NA,NA,NA,NA,NA,NA,NA,NA,sub86
NA,html-keyboard-response,15,92850,0.0-10.0-0.0,"""event"",""trial"",""time""
""fullscreenenter"",""0"",""5431""
","
","
","""event"",""trial"",""time""
""fullscreenenter"",""0"",""5431""
","
",null,"<div style=""font-size:60px;"">+</div>",NA,null,fixation,2020-06-16T21:09:13Z,NA,NA,NA,NA,NA,sub86
NA,mars-trial,16,95464,0.0-10.0-1.0,"""event"",""trial"",""time""
""fullscreenenter"",""0"",""5431""
","
","
","""event"",""trial"",""time""
""fullscreenenter"",""0"",""5431""
","
",2008.4799999604002,<img style='border: 4px solid darkgrey;' src='img/tf1_1_M_ss3.jpeg'></img>,0,NA,exp,NA,0,<img src='img/tf1_1_T1_ss3_md.jpeg'></img>,0,TRUE,NA,sub86
NA,html-keyboard-response,17,95965,0.0-10.0-0.1,"""event"",""trial"",""time""
""fullscreenenter"",""0"",""5431""
","
","
","""event"",""trial"",""time""
""fullscreenenter"",""0"",""5431""
","
",null,"<div style=""font-size:60px;"">+</div>",NA,null,fixation,2020-06-16T21:09:16Z,NA,NA,NA,NA,NA,sub86
NA,mars-trial,18,99078,0.0-10.0-1.1,"""event"",""trial"",""time""
""fullscreenenter"",""0"",""5431""
","
","
","""event"",""trial"",""time""
""fullscreenenter"",""0"",""5431""
","
",2507.2500000242144,<img style='border: 4px solid darkgrey;' src='img/tf1_2_M_ss1.jpeg'></img>,3,NA,exp,NA,0,<img src='img/tf1_2_T1_ss1_md.jpeg'></img>,0,TRUE,NA,sub86
NA,html-keyboard-response,19,99579,0.0-10.0-0.2,"""event"",""trial"",""time""
""fullscreenenter"",""0"",""5431""
","
","
","""event"",""trial"",""time""
""fullscreenenter"",""0"",""5431""
","
",null,"<div style=""font-size:60px;"">+</div>",NA,null,fixation,2020-06-16T21:09:20Z,NA,NA,NA,NA,NA,sub86
NA,mars-trial,20,102727,0.0-10.0-1.2,"""event"",""trial"",""time""
""fullscreenenter"",""0"",""5431""
","
","
","""event"",""trial"",""time""
""fullscreenenter"",""0"",""5431""
","
",2543.2349999900907,<img style='border: 4px solid darkgrey;' src='img/tf1_3_M_ss2.jpeg'></img>,0,NA,exp,NA,0,<img src='img/tf1_3_T1_ss2_md.jpeg'></img>,0,TRUE,NA,sub86
NA,html-keyboard-response,21,103228,0.0-10.0-0.3,"""event"",""trial"",""time""
""fullscreenenter"",""0"",""5431""
","
","
","""event"",""trial"",""time""
""fullscreenenter"",""0"",""5431""
","
",null,"<div style=""font-size:60px;"">+</div>",NA,null,fixation,2020-06-16T21:09:23Z,NA,NA,NA,NA,NA,sub86
NA,mars-trial,22,106332,0.0-10.0-1.3,"""event"",""trial"",""time""
""fullscreenenter"",""0"",""5431""
","
","
","""event"",""trial"",""time""
""fullscreenenter"",""0"",""5431""
","
",2498.9849999547005,<img style='border: 4px solid darkgrey;' src='img/tf1_4_M_ss3.jpeg'></img>,0,NA,exp,NA,0,<img src='img/tf1_4_T1_ss3_md.jpeg'></img>,0,TRUE,NA,sub86
NA,html-keyboard-response,23,106834,0.0-10.0-0.4,"""event"",""trial"",""time""
""fullscreenenter"",""0"",""5431""
","
","
","""event"",""trial"",""time""
""fullscreenenter"",""0"",""5431""
","
",null,"<div style=""font-size:60px;"">+</div>",NA,null,fixation,2020-06-16T21:09:27Z,NA,NA,NA,NA,NA,sub86
NA,mars-trial,24,109572,0.0-10.0-1.4,"""event"",""trial"",""time""
""fullscreenenter"",""0"",""5431""
","
","
","""event"",""trial"",""time""
""fullscreenenter"",""0"",""5431""
","
",2132.355000008829,<img style='border: 4px solid darkgrey;' src='img/tf1_5_M_ss1.jpeg'></img>,3,NA,exp,NA,0,<img src='img/tf1_5_T1_ss1_md.jpeg'></img>,0,TRUE,NA,sub86
NA,html-keyboard-response,25,110074,0.0-10.0-0.5,"""event"",""trial"",""time""
""fullscreenenter"",""0"",""5431""
","
","
","""event"",""trial"",""time""
""fullscreenenter"",""0"",""5431""
","
",null,"<div style=""font-size:60px;"">+</div>",NA,null,fixation,2020-06-16T21:09:30Z,NA,NA,NA,NA,NA,sub86
NA,mars-trial,26,117243,0.0-10.0-1.5,"""event"",""trial"",""time""
""fullscreenenter"",""0"",""5431""
","
","
","""event"",""trial"",""time""
""fullscreenenter"",""0"",""5431""
","
",6564.445000025444,<img style='border: 4px solid darkgrey;' src='img/tf1_6_M_ss2.jpeg'></img>,0,NA,exp,NA,3,<img src='img/tf1_6_T1_ss2_md.jpeg'></img>,0,FALSE,NA,sub86
NA,html-keyboard-response,27,117745,0.0-10.0-0.6,"""event"",""trial"",""time""
""fullscreenenter"",""0"",""5431""
","
","
","""event"",""trial"",""time""
""fullscreenenter"",""0"",""5431""
","
",null,"<div style=""font-size:60px;"">+</div>",NA,null,fixation,2020-06-16T21:09:38Z,NA,NA,NA,NA,NA,sub86
NA,mars-trial,28,121899,0.0-10.0-1.6,"""event"",""trial"",""time""
""fullscreenenter"",""0"",""5431""
","
","
","""event"",""trial"",""time""
""fullscreenenter"",""0"",""5431""
","
",3548.6350000137463,<img style='border: 4px solid darkgrey;' src='img/tf1_7_M_ss3.jpeg'></img>,3,NA,exp,NA,0,<img src='img/tf1_7_T1_ss3_md.jpeg'></img>,0,TRUE,NA,sub86
NA,html-keyboard-response,29,122402,0.0-10.0-0.7,"""event"",""trial"",""time""
""fullscreenenter"",""0"",""5431""
","
","
","""event"",""trial"",""time""
""fullscreenenter"",""0"",""5431""
","
",null,"<div style=""font-size:60px;"">+</div>",NA,null,fixation,2020-06-16T21:09:42Z,NA,NA,NA,NA,NA,sub86
NA,mars-trial,30,125323,0.0-10.0-1.7,"""event"",""trial"",""time""
""fullscreenenter"",""0"",""5431""
","
","
","""event"",""trial"",""time""
""fullscreenenter"",""0"",""5431""
","
",2315.1350000407547,<img style='border: 4px solid darkgrey;' src='img/tf1_8_M_ss1.jpeg'></img>,2,NA,exp,NA,2,<img src='img/tf1_8_T1_ss1_md.jpeg'></img>,0,FALSE,NA,sub86
NA,html-keyboard-response,31,125826,0.0-10.0-0.8,"""event"",""trial"",""time""
""fullscreenenter"",""0"",""5431""
","
","
","""event"",""trial"",""time""
""fullscreenenter"",""0"",""5431""
","
",null,"<div style=""font-size:60px;"">+</div>",NA,null,fixation,2020-06-16T21:09:46Z,NA,NA,NA,NA,NA,sub86
NA,mars-trial,32,129124,0.0-10.0-1.8,"""event"",""trial"",""time""
""fullscreenenter"",""0"",""5431""
","
","
","""event"",""trial"",""time""
""fullscreenenter"",""0"",""5431""
","
",2694.4349999539554,<img style='border: 4px solid darkgrey;' src='img/tf1_9_M_ss2.jpeg'></img>,3,NA,exp,NA,2,<img src='img/tf1_9_T1_ss2_md.jpeg'></img>,0,FALSE,NA,sub86
NA,html-keyboard-response,33,129626,0.0-10.0-0.9,"""event"",""trial"",""time""
""fullscreenenter"",""0"",""5431""
","
","
","""event"",""trial"",""time""
""fullscreenenter"",""0"",""5431""
","
",null,"<div style=""font-size:60px;"">+</div>",NA,null,fixation,2020-06-16T21:09:50Z,NA,NA,NA,NA,NA,sub86
NA,mars-trial,34,140709,0.0-10.0-1.9,"""event"",""trial"",""time""
""fullscreenenter"",""0"",""5431""
","
","
","""event"",""trial"",""time""
""fullscreenenter"",""0"",""5431""
","
",10477.045000065118,<img style='border: 4px solid darkgrey;' src='img/tf1_10_M_ss3.jpeg'></img>,2,NA,exp,NA,1,<img src='img/tf1_10_T1_ss3_md.jpeg'></img>,0,FALSE,NA,sub86
NA,html-keyboard-response,35,141211,0.0-10.0-0.10,"""event"",""trial"",""time""
""fullscreenenter"",""0"",""5431""
","
","
","""event"",""trial"",""time""
""fullscreenenter"",""0"",""5431""
","
",null,"<div style=""font-size:60px;"">+</div>",NA,null,fixation,2020-06-16T21:10:01Z,NA,NA,NA,NA,NA,sub86
NA,mars-trial,36,145857,0.0-10.0-1.10,"""event"",""trial"",""time""
""fullscreenenter"",""0"",""5431""
","
","
","""event"",""trial"",""time""
""fullscreenenter"",""0"",""5431""
","
",4041.0050000064075,<img style='border: 4px solid darkgrey;' src='img/tf1_11_M_ss1.jpeg'></img>,1,NA,exp,NA,1,<img src='img/tf1_11_T1_ss1_md.jpeg'></img>,0,FALSE,NA,sub86
NA,html-keyboard-response,37,146359,0.0-10.0-0.11,"""event"",""trial"",""time""
""fullscreenenter"",""0"",""5431""
","
","
","""event"",""trial"",""time""
""fullscreenenter"",""0"",""5431""
","
",null,"<div style=""font-size:60px;"">+</div>",NA,null,fixation,2020-06-16T21:10:06Z,NA,NA,NA,NA,NA,sub86
NA,mars-trial,38,150424,0.0-10.0-1.11,"""event"",""trial"",""time""
""fullscreenenter"",""0"",""5431""
","
","
","""event"",""trial"",""time""
""fullscreenenter"",""0"",""5431""
","
",3459.169999929145,<img style='border: 4px solid darkgrey;' src='img/tf1_12_M_ss2.jpeg'></img>,1,NA,exp,NA,3,<img src='img/tf1_12_T1_ss2_md.jpeg'></img>,0,FALSE,NA,sub86
NA,html-keyboard-response,39,150926,0.0-10.0-0.12,"""event"",""trial"",""time""
""fullscreenenter"",""0"",""5431""
","
","
","""event"",""trial"",""time""
""fullscreenenter"",""0"",""5431""
","
",null,"<div style=""font-size:60px;"">+</div>",NA,null,fixation,2020-06-16T21:10:11Z,NA,NA,NA,NA,NA,sub86
NA,mars-trial,40,152671,0.0-10.0-1.12,"""event"",""trial"",""time""
""fullscreenenter"",""0"",""5431""
","
","
","""event"",""trial"",""time""
""fullscreenenter"",""0"",""5431""
","
",1139.5550000015646,<img style='border: 4px solid darkgrey;' src='img/tf1_13_M_ss3.jpeg'></img>,2,NA,exp,NA,2,<img src='img/tf1_13_T1_ss3_md.jpeg'></img>,0,FALSE,NA,sub86
NA,html-keyboard-response,41,153172,0.0-10.0-0.13,"""event"",""trial"",""time""
""fullscreenenter"",""0"",""5431""
","
","
","""event"",""trial"",""time""
""fullscreenenter"",""0"",""5431""
","
",null,"<div style=""font-size:60px;"">+</div>",NA,null,fixation,2020-06-16T21:10:13Z,NA,NA,NA,NA,NA,sub86
NA,mars-trial,42,157707,0.0-10.0-1.13,"""event"",""trial"",""time""
""fullscreenenter"",""0"",""5431""
","
","
","""event"",""trial"",""time""
""fullscreenenter"",""0"",""5431""
","
",3929.8550001112744,<img style='border: 4px solid darkgrey;' src='img/tf1_14_M_ss1.jpeg'></img>,3,NA,exp,NA,0,<img src='img/tf1_14_T1_ss1_md.jpeg'></img>,0,TRUE,NA,sub86
NA,html-keyboard-response,43,158209,0.0-10.0-0.14,"""event"",""trial"",""time""
""fullscreenenter"",""0"",""5431""
","
","
","""event"",""trial"",""time""
""fullscreenenter"",""0"",""5431""
","
",null,"<div style=""font-size:60px;"">+</div>",NA,null,fixation,2020-06-16T21:10:18Z,NA,NA,NA,NA,NA,sub86
NA,mars-trial,44,159789,0.0-10.0-1.14,"""event"",""trial"",""time""
""fullscreenenter"",""0"",""5431""
","
","
","""event"",""trial"",""time""
""fullscreenenter"",""0"",""5431""
","
",973.4300000127405,<img style='border: 4px solid darkgrey;' src='img/tf1_15_M_ss2.jpeg'></img>,2,NA,exp,NA,1,<img src='img/tf1_15_T1_ss2_md.jpeg'></img>,0,FALSE,NA,sub86
NA,html-keyboard-response,45,160290,0.0-10.0-0.15,"""event"",""trial"",""time""
""fullscreenenter"",""0"",""5431""
","
","
","""event"",""trial"",""time""
""fullscreenenter"",""0"",""5431""
","
",null,"<div style=""font-size:60px;"">+</div>",NA,null,fixation,2020-06-16T21:10:20Z,NA,NA,NA,NA,NA,sub86
NA,mars-trial,46,163607,0.0-10.0-1.15,"""event"",""trial"",""time""
""fullscreenenter"",""0"",""5431""
","
","
","""event"",""trial"",""time""
""fullscreenenter"",""0"",""5431""
","
",2712.2049999888986,<img style='border: 4px solid darkgrey;' src='img/tf1_16_M_ss3.jpeg'></img>,2,NA,exp,NA,1,<img src='img/tf1_16_T1_ss3_md.jpeg'></img>,0,FALSE,NA,sub86
NA,html-keyboard-response,47,164109,0.0-10.0-0.16,"""event"",""trial"",""time""
""fullscreenenter"",""0"",""5431""
","
","
","""event"",""trial"",""time""
""fullscreenenter"",""0"",""5431""
","
",null,"<div style=""font-size:60px;"">+</div>",NA,null,fixation,2020-06-16T21:10:24Z,NA,NA,NA,NA,NA,sub86
NA,mars-trial,48,165467,0.0-10.0-1.16,"""event"",""trial"",""time""
""fullscreenenter"",""0"",""5431""
","
","
","""event"",""trial"",""time""
""fullscreenenter"",""0"",""5431""
","
",753.4250000026077,<img style='border: 4px solid darkgrey;' src='img/tf1_17_M_ss1.jpeg'></img>,2,NA,exp,NA,1,<img src='img/tf1_17_T1_ss1_md.jpeg'></img>,0,FALSE,NA,sub86
NA,html-keyboard-response,49,165970,0.0-10.0-0.17,"""event"",""trial"",""time""
""fullscreenenter"",""0"",""5431""
","
","
","""event"",""trial"",""time""
""fullscreenenter"",""0"",""5431""
","
",null,"<div style=""font-size:60px;"">+</div>",NA,null,fixation,2020-06-16T21:10:26Z,NA,NA,NA,NA,NA,sub86
NA,mars-trial,50,173894,0.0-10.0-1.17,"""event"",""trial"",""time""
""fullscreenenter"",""0"",""5431""
","
","
","""event"",""trial"",""time""
""fullscreenenter"",""0"",""5431""
","
",7319.299999973737,<img style='border: 4px solid darkgrey;' src='img/tf1_18_M_ss2.jpeg'></img>,2,NA,exp,NA,0,<img src='img/tf1_18_T1_ss2_md.jpeg'></img>,0,TRUE,NA,sub86
NA,html-keyboard-response,51,174396,0.0-10.0-0.18,"""event"",""trial"",""time""
""fullscreenenter"",""0"",""5431""
","
","
","""event"",""trial"",""time""
""fullscreenenter"",""0"",""5431""
","
",null,"<div style=""font-size:60px;"">+</div>",NA,null,fixation,2020-06-16T21:10:34Z,NA,NA,NA,NA,NA,sub86
NA,mars-trial,52,177856,0.0-10.0-1.18,"""event"",""trial"",""time""
""fullscreenenter"",""0"",""5431""
","
","
","""event"",""trial"",""time""
""fullscreenenter"",""0"",""5431""
","
",2854.244999936782,<img style='border: 4px solid darkgrey;' src='img/tf1_19_M_ss3.jpeg'></img>,2,NA,exp,NA,1,<img src='img/tf1_19_T1_ss3_md.jpeg'></img>,0,FALSE,NA,sub86
NA,html-keyboard-response,53,178357,0.0-10.0-0.19,"""event"",""trial"",""time""
""fullscreenenter"",""0"",""5431""
","
","
","""event"",""trial"",""time""
""fullscreenenter"",""0"",""5431""
","
",null,"<div style=""font-size:60px;"">+</div>",NA,null,fixation,2020-06-16T21:10:38Z,NA,NA,NA,NA,NA,sub86
NA,mars-trial,54,182295,0.0-10.0-1.19,"""event"",""trial"",""time""
""fullscreenenter"",""0"",""5431""
","
","
","""event"",""trial"",""time""
""fullscreenenter"",""0"",""5431""
","
",3333.405000041239,<img style='border: 4px solid darkgrey;' src='img/tf1_20_M_ss1.jpeg'></img>,1,NA,exp,NA,2,<img src='img/tf1_20_T1_ss1_md.jpeg'></img>,0,FALSE,NA,sub86
NA,html-keyboard-response,55,182797,0.0-10.0-0.20,"""event"",""trial"",""time""
""fullscreenenter"",""0"",""5431""
","
","
","""event"",""trial"",""time""
""fullscreenenter"",""0"",""5431""
","
",null,"<div style=""font-size:60px;"">+</div>",NA,null,fixation,2020-06-16T21:10:43Z,NA,NA,NA,NA,NA,sub86
NA,mars-trial,56,184850,0.0-10.0-1.20,"""event"",""trial"",""time""
""fullscreenenter"",""0"",""5431""
","
","
","""event"",""trial"",""time""
""fullscreenenter"",""0"",""5431""
","
",1448.2400000561029,<img style='border: 4px solid darkgrey;' src='img/tf1_21_M_ss2.jpeg'></img>,3,NA,exp,NA,0,<img src='img/tf1_21_T1_ss2_md.jpeg'></img>,0,TRUE,NA,sub86
NA,html-keyboard-response,57,185352,0.0-10.0-0.21,"""event"",""trial"",""time""
""fullscreenenter"",""0"",""5431""
","
","
","""event"",""trial"",""time""
""fullscreenenter"",""0"",""5431""
","
",null,"<div style=""font-size:60px;"">+</div>",NA,null,fixation,2020-06-16T21:10:45Z,NA,NA,NA,NA,NA,sub86
NA,mars-trial,58,188269,0.0-10.0-1.21,"""event"",""trial"",""time""
""fullscreenenter"",""0"",""5431""
","
","
","""event"",""trial"",""time""
""fullscreenenter"",""0"",""5431""
","
",2311.459999997169,<img style='border: 4px solid darkgrey;' src='img/tf1_22_M_ss3.jpeg'></img>,2,NA,exp,NA,2,<img src='img/tf1_22_T1_ss3_md.jpeg'></img>,0,FALSE,NA,sub86
NA,html-keyboard-response,59,188771,0.0-10.0-0.22,"""event"",""trial"",""time""
""fullscreenenter"",""0"",""5431""
","
","
","""event"",""trial"",""time""
""fullscreenenter"",""0"",""5431""
","
",null,"<div style=""font-size:60px;"">+</div>",NA,null,fixation,2020-06-16T21:10:49Z,NA,NA,NA,NA,NA,sub86
NA,mars-trial,60,191824,0.0-10.0-1.22,"""event"",""trial"",""time""
""fullscreenenter"",""0"",""5431""
","
","
","""event"",""trial"",""time""
""fullscreenenter"",""0"",""5431""
","
",2446.3899999391288,<img style='border: 4px solid darkgrey;' src='img/tf1_23_M_ss1.jpeg'></img>,1,NA,exp,NA,2,<img src='img/tf1_23_T1_ss1_md.jpeg'></img>,0,FALSE,NA,sub86
NA,html-keyboard-response,61,192325,0.0-10.0-0.23,"""event"",""trial"",""time""
""fullscreenenter"",""0"",""5431""
","
","
","""event"",""trial"",""time""
""fullscreenenter"",""0"",""5431""
","
",null,"<div style=""font-size:60px;"">+</div>",NA,null,fixation,2020-06-16T21:10:52Z,NA,NA,NA,NA,NA,sub86
NA,mars-trial,62,197376,0.0-10.0-1.23,"""event"",""trial"",""time""
""fullscreenenter"",""0"",""5431""
","
","
","""event"",""trial"",""time""
""fullscreenenter"",""0"",""5431""
","
",4445.034999982454,<img style='border: 4px solid darkgrey;' src='img/tf1_24_M_ss2.jpeg'></img>,1,NA,exp,NA,2,<img src='img/tf1_24_T1_ss2_md.jpeg'></img>,0,FALSE,NA,sub86
NA,html-keyboard-response,63,197878,0.0-10.0-0.24,"""event"",""trial"",""time""
""fullscreenenter"",""0"",""5431""
","
","
","""event"",""trial"",""time""
""fullscreenenter"",""0"",""5431""
","
",null,"<div style=""font-size:60px;"">+</div>",NA,null,fixation,2020-06-16T21:10:58Z,NA,NA,NA,NA,NA,sub86
NA,mars-trial,64,204875,0.0-10.0-1.24,"""event"",""trial"",""time""
""fullscreenenter"",""0"",""5431""
","
","
","""event"",""trial"",""time""
""fullscreenenter"",""0"",""5431""
","
",6390.580000006594,<img style='border: 4px solid darkgrey;' src='img/tf1_25_M_ss3.jpeg'></img>,1,NA,exp,NA,2,<img src='img/tf1_25_T1_ss3_md.jpeg'></img>,0,FALSE,NA,sub86
NA,html-keyboard-response,65,205378,0.0-10.0-0.25,"""event"",""trial"",""time""
""fullscreenenter"",""0"",""5431""
","
","
","""event"",""trial"",""time""
""fullscreenenter"",""0"",""5431""
","
",null,"<div style=""font-size:60px;"">+</div>",NA,null,fixation,2020-06-16T21:11:05Z,NA,NA,NA,NA,NA,sub86
NA,mars-trial,66,206736,0.0-10.0-1.25,"""event"",""trial"",""time""
""fullscreenenter"",""0"",""5431""
","
","
","""event"",""trial"",""time""
""fullscreenenter"",""0"",""5431""
","
",753.9550000801682,<img style='border: 4px solid darkgrey;' src='img/tf1_26_M_ss1.jpeg'></img>,2,NA,exp,NA,1,<img src='img/tf1_26_T1_ss1_md.jpeg'></img>,0,FALSE,NA,sub86
NA,html-keyboard-response,67,207238,0.0-10.0-0.26,"""event"",""trial"",""time""
""fullscreenenter"",""0"",""5431""
","
","
","""event"",""trial"",""time""
""fullscreenenter"",""0"",""5431""
","
",null,"<div style=""font-size:60px;"">+</div>",NA,null,fixation,2020-06-16T21:11:07Z,NA,NA,NA,NA,NA,sub86
NA,mars-trial,68,208194,0.0-10.0-1.26,"""event"",""trial"",""time""
""fullscreenenter"",""0"",""5431""
","
","
","""event"",""trial"",""time""
""fullscreenenter"",""0"",""5431""
","
",350.414999993518,<img style='border: 4px solid darkgrey;' src='img/tf1_27_M_ss2.jpeg'></img>,2,NA,exp,NA,0,<img src='img/tf1_27_T1_ss2_md.jpeg'></img>,0,TRUE,NA,sub86
NA,html-keyboard-response,69,208695,0.0-10.0-0.27,"""event"",""trial"",""time""
""fullscreenenter"",""0"",""5431""
","
","
","""event"",""trial"",""time""
""fullscreenenter"",""0"",""5431""
","
",null,"<div style=""font-size:60px;"">+</div>",NA,null,fixation,2020-06-16T21:11:09Z,NA,NA,NA,NA,NA,sub86
NA,mars-trial,70,211116,0.0-10.0-1.27,"""event"",""trial"",""time""
""fullscreenenter"",""0"",""5431""
","
","
","""event"",""trial"",""time""
""fullscreenenter"",""0"",""5431""
","
",1816.8600000208244,<img style='border: 4px solid darkgrey;' src='img/tf1_28_M_ss3.jpeg'></img>,1,NA,exp,NA,1,<img src='img/tf1_28_T1_ss3_md.jpeg'></img>,0,FALSE,NA,sub86
NA,html-keyboard-response,71,211617,0.0-10.0-0.28,"""event"",""trial"",""time""
""fullscreenenter"",""0"",""5431""
","
","
","""event"",""trial"",""time""
""fullscreenenter"",""0"",""5431""
","
",null,"<div style=""font-size:60px;"">+</div>",NA,null,fixation,2020-06-16T21:11:12Z,NA,NA,NA,NA,NA,sub86
NA,mars-trial,72,213221,0.0-10.0-1.28,"""event"",""trial"",""time""
""fullscreenenter"",""0"",""5431""
","
","
","""event"",""trial"",""time""
""fullscreenenter"",""0"",""5431""
","
",999.7549999970943,<img style='border: 4px solid darkgrey;' src='img/tf1_29_M_ss1.jpeg'></img>,3,NA,exp,NA,0,<img src='img/tf1_29_T1_ss1_md.jpeg'></img>,0,TRUE,NA,sub86
NA,html-keyboard-response,73,213723,0.0-10.0-0.29,"""event"",""trial"",""time""
""fullscreenenter"",""0"",""5431""
","
","
","""event"",""trial"",""time""
""fullscreenenter"",""0"",""5431""
","
",null,"<div style=""font-size:60px;"">+</div>",NA,null,fixation,2020-06-16T21:11:14Z,NA,NA,NA,NA,NA,sub86
NA,mars-trial,74,214996,0.0-10.0-1.29,"""event"",""trial"",""time""
""fullscreenenter"",""0"",""5431""
","
","
","""event"",""trial"",""time""
""fullscreenenter"",""0"",""5431""
","
",667.174999951385,<img style='border: 4px solid darkgrey;' src='img/tf1_30_M_ss2.jpeg'></img>,0,NA,exp,NA,2,<img src='img/tf1_30_T1_ss2_md.jpeg'></img>,0,FALSE,NA,sub86
NA,html-keyboard-response,75,215497,0.0-10.0-0.30,"""event"",""trial"",""time""
""fullscreenenter"",""0"",""5431""
","
","
","""event"",""trial"",""time""
""fullscreenenter"",""0"",""5431""
","
",null,"<div style=""font-size:60px;"">+</div>",NA,null,fixation,2020-06-16T21:11:15Z,NA,NA,NA,NA,NA,sub86
NA,mars-trial,76,216648,0.0-10.0-1.30,"""event"",""trial"",""time""
""fullscreenenter"",""0"",""5431""
","
","
","""event"",""trial"",""time""
""fullscreenenter"",""0"",""5431""
","
",546.390000032261,<img style='border: 4px solid darkgrey;' src='img/tf1_31_M_ss3.jpeg'></img>,2,NA,exp,NA,1,<img src='img/tf1_31_T1_ss3_md.jpeg'></img>,0,FALSE,NA,sub86
NA,html-keyboard-response,77,217149,0.0-10.0-0.31,"""event"",""trial"",""time""
""fullscreenenter"",""0"",""5431""
","
","
","""event"",""trial"",""time""
""fullscreenenter"",""0"",""5431""
","
",null,"<div style=""font-size:60px;"">+</div>",NA,null,fixation,2020-06-16T21:11:17Z,NA,NA,NA,NA,NA,sub86
NA,mars-trial,78,218139,0.0-10.0-1.31,"""event"",""trial"",""time""
""fullscreenenter"",""0"",""5431""
","
","
","""event"",""trial"",""time""
""fullscreenenter"",""0"",""5431""
","
",383.0399999860674,<img style='border: 4px solid darkgrey;' src='img/tf1_32_M_ss1.jpeg'></img>,2,NA,exp,NA,3,<img src='img/tf1_32_T1_ss1_md.jpeg'></img>,0,FALSE,NA,sub86
NA,html-keyboard-response,79,218641,0.0-10.0-0.32,"""event"",""trial"",""time""
""fullscreenenter"",""0"",""5431""
","
","
","""event"",""trial"",""time""
""fullscreenenter"",""0"",""5431""
","
",null,"<div style=""font-size:60px;"">+</div>",NA,null,fixation,2020-06-16T21:11:19Z,NA,NA,NA,NA,NA,sub86
NA,mars-trial,80,219857,0.0-10.0-1.32,"""event"",""trial"",""time""
""fullscreenenter"",""0"",""5431""
","
","
","""event"",""trial"",""time""
""fullscreenenter"",""0"",""5431""
","
",612.0200000004843,<img style='border: 4px solid darkgrey;' src='img/tf1_33_M_ss2.jpeg'></img>,1,NA,exp,NA,0,<img src='img/tf1_33_T1_ss2_md.jpeg'></img>,0,TRUE,NA,sub86
NA,html-keyboard-response,81,220360,0.0-10.0-0.33,"""event"",""trial"",""time""
""fullscreenenter"",""0"",""5431""
","
","
","""event"",""trial"",""time""
""fullscreenenter"",""0"",""5431""
","
",null,"<div style=""font-size:60px;"">+</div>",NA,null,fixation,2020-06-16T21:11:20Z,NA,NA,NA,NA,NA,sub86
NA,mars-trial,82,221908,0.0-10.0-1.33,"""event"",""trial"",""time""
""fullscreenenter"",""0"",""5431""
","
","
","""event"",""trial"",""time""
""fullscreenenter"",""0"",""5431""
","
",943.2350000133738,<img style='border: 4px solid darkgrey;' src='img/tf1_34_M_ss3.jpeg'></img>,3,NA,exp,NA,0,<img src='img/tf1_34_T1_ss3_md.jpeg'></img>,0,TRUE,NA,sub86
NA,html-keyboard-response,83,222410,0.0-10.0-0.34,"""event"",""trial"",""time""
""fullscreenenter"",""0"",""5431""
","
","
","""event"",""trial"",""time""
""fullscreenenter"",""0"",""5431""
","
",null,"<div style=""font-size:60px;"">+</div>",NA,null,fixation,2020-06-16T21:11:22Z,NA,NA,NA,NA,NA,sub86
NA,mars-trial,84,223712,0.0-10.0-1.34,"""event"",""trial"",""time""
""fullscreenenter"",""0"",""5431""
","
","
","""event"",""trial"",""time""
""fullscreenenter"",""0"",""5431""
","
",697.6949999807402,<img style='border: 4px solid darkgrey;' src='img/tf1_35_M_ss1.jpeg'></img>,3,NA,exp,NA,2,<img src='img/tf1_35_T1_ss1_md.jpeg'></img>,0,FALSE,NA,sub86
NA,html-keyboard-response,85,224214,0.0-10.0-0.35,"""event"",""trial"",""time""
""fullscreenenter"",""0"",""5431""
","
","
","""event"",""trial"",""time""
""fullscreenenter"",""0"",""5431""
","
",null,"<div style=""font-size:60px;"">+</div>",NA,null,fixation,2020-06-16T21:11:24Z,NA,NA,NA,NA,NA,sub86
NA,mars-trial,86,225012,0.0-10.0-1.35,"""event"",""trial"",""time""
""fullscreenenter"",""0"",""5431""
","
","
","""event"",""trial"",""time""
""fullscreenenter"",""0"",""5431""
","
",193.77499993424863,<img style='border: 4px solid darkgrey;' src='img/tf1_36_M_ss2.jpeg'></img>,2,NA,exp,NA,1,<img src='img/tf1_36_T1_ss2_md.jpeg'></img>,0,FALSE,NA,sub86
NA,html-keyboard-response,87,225514,0.0-10.0-0.36,"""event"",""trial"",""time""
""fullscreenenter"",""0"",""5431""
","
","
","""event"",""trial"",""time""
""fullscreenenter"",""0"",""5431""
","
",null,"<div style=""font-size:60px;"">+</div>",NA,null,fixation,2020-06-16T21:11:26Z,NA,NA,NA,NA,NA,sub86
NA,mars-trial,88,226306,0.0-10.0-1.36,"""event"",""trial"",""time""
""fullscreenenter"",""0"",""5431""
","
","
","""event"",""trial"",""time""
""fullscreenenter"",""0"",""5431""
","
",186.33499997667968,<img style='border: 4px solid darkgrey;' src='img/tf1_37_M_ss3.jpeg'></img>,1,NA,exp,NA,2,<img src='img/tf1_37_T1_ss3_md.jpeg'></img>,0,FALSE,NA,sub86
NA,html-keyboard-response,89,226808,0.0-10.0-0.37,"""event"",""trial"",""time""
""fullscreenenter"",""0"",""5431""
","
","
","""event"",""trial"",""time""
""fullscreenenter"",""0"",""5431""
","
",null,"<div style=""font-size:60px;"">+</div>",NA,null,fixation,2020-06-16T21:11:27Z,NA,NA,NA,NA,NA,sub86
NA,mars-trial,90,227493,0.0-10.0-1.37,"""event"",""trial"",""time""
""fullscreenenter"",""0"",""5431""
","
","
","""event"",""trial"",""time""
""fullscreenenter"",""0"",""5431""
","
",79.90499993320554,<img style='border: 4px solid darkgrey;' src='img/tf1_38_M_ss1.jpeg'></img>,1,NA,exp,NA,1,<img src='img/tf1_38_T1_ss1_md.jpeg'></img>,0,FALSE,NA,sub86
NA,html-keyboard-response,91,227994,0.0-10.0-0.38,"""event"",""trial"",""time""
""fullscreenenter"",""0"",""5431""
","
","
","""event"",""trial"",""time""
""fullscreenenter"",""0"",""5431""
","
",null,"<div style=""font-size:60px;"">+</div>",NA,null,fixation,2020-06-16T21:11:28Z,NA,NA,NA,NA,NA,sub86
NA,mars-trial,92,229387,0.0-10.0-1.38,"""event"",""trial"",""time""
""fullscreenenter"",""0"",""5431""
","
","
","""event"",""trial"",""time""
""fullscreenenter"",""0"",""5431""
","
",787.0600000023842,<img style='border: 4px solid darkgrey;' src='img/tf1_39_M_ss2.jpeg'></img>,1,NA,exp,NA,3,<img src='img/tf1_39_T1_ss2_md.jpeg'></img>,0,FALSE,NA,sub86
NA,html-keyboard-response,93,229889,0.0-10.0-0.39,"""event"",""trial"",""time""
""fullscreenenter"",""0"",""5431""
","
","
","""event"",""trial"",""time""
""fullscreenenter"",""0"",""5431""
","
",null,"<div style=""font-size:60px;"">+</div>",NA,null,fixation,2020-06-16T21:11:30Z,NA,NA,NA,NA,NA,sub86
NA,mars-trial,94,230897,0.0-10.0-1.39,"""event"",""trial"",""time""
""fullscreenenter"",""0"",""5431""
","
","
","""event"",""trial"",""time""
""fullscreenenter"",""0"",""5431""
","
",402.0550000714138,<img style='border: 4px solid darkgrey;' src='img/tf1_40_M_ss3.jpeg'></img>,2,NA,exp,NA,2,<img src='img/tf1_40_T1_ss3_md.jpeg'></img>,0,FALSE,NA,sub86
NA,html-keyboard-response,95,231399,0.0-10.0-0.40,"""event"",""trial"",""time""
""fullscreenenter"",""0"",""5431""
","
","
","""event"",""trial"",""time""
""fullscreenenter"",""0"",""5431""
","
",null,"<div style=""font-size:60px;"">+</div>",NA,null,fixation,2020-06-16T21:11:31Z,NA,NA,NA,NA,NA,sub86
NA,mars-trial,96,232139,0.0-10.0-1.40,"""event"",""trial"",""time""
""fullscreenenter"",""0"",""5431""
","
","
","""event"",""trial"",""time""
""fullscreenenter"",""0"",""5431""
","
",132.57999997586012,<img style='border: 4px solid darkgrey;' src='img/tf1_41_M_ss1.jpeg'></img>,3,NA,exp,NA,2,<img src='img/tf1_41_T1_ss1_md.jpeg'></img>,0,FALSE,NA,sub86
NA,html-keyboard-response,97,232640,0.0-10.0-0.41,"""event"",""trial"",""time""
""fullscreenenter"",""0"",""5431""
","
","
","""event"",""trial"",""time""
""fullscreenenter"",""0"",""5431""
","
",null,"<div style=""font-size:60px;"">+</div>",NA,null,fixation,2020-06-16T21:11:33Z,NA,NA,NA,NA,NA,sub86
NA,mars-trial,98,233708,0.0-10.0-1.41,"""event"",""trial"",""time""
""fullscreenenter"",""0"",""5431""
","
","
","""event"",""trial"",""time""
""fullscreenenter"",""0"",""5431""
","
",462.1000000042841,<img style='border: 4px solid darkgrey;' src='img/tf1_42_M_ss2.jpeg'></img>,1,NA,exp,NA,2,<img src='img/tf1_42_T1_ss2_md.jpeg'></img>,0,FALSE,NA,sub86
NA,html-keyboard-response,99,234210,0.0-10.0-0.42,"""event"",""trial"",""time""
""fullscreenenter"",""0"",""5431""
","
","
","""event"",""trial"",""time""
""fullscreenenter"",""0"",""5431""
","
",null,"<div style=""font-size:60px;"">+</div>",NA,null,fixation,2020-06-16T21:11:34Z,NA,NA,NA,NA,NA,sub86
NA,mars-trial,100,234955,0.0-10.0-1.42,"""event"",""trial"",""time""
""fullscreenenter"",""0"",""5431""
","
","
","""event"",""trial"",""time""
""fullscreenenter"",""0"",""5431""
","
",141.25500002410263,<img style='border: 4px solid darkgrey;' src='img/tf1_43_M_ss3.jpeg'></img>,0,NA,exp,NA,0,<img src='img/tf1_43_T1_ss3_md.jpeg'></img>,0,TRUE,NA,sub86
NA,html-keyboard-response,101,235457,0.0-10.0-0.43,"""event"",""trial"",""time""
""fullscreenenter"",""0"",""5431""
","
","
","""event"",""trial"",""time""
""fullscreenenter"",""0"",""5431""
","
",null,"<div style=""font-size:60px;"">+</div>",NA,null,fixation,2020-06-16T21:11:35Z,NA,NA,NA,NA,NA,sub86
NA,mars-trial,102,237766,0.0-10.0-1.43,"""event"",""trial"",""time""
""fullscreenenter"",""0"",""5431""
","
","
","""event"",""trial"",""time""
""fullscreenenter"",""0"",""5431""
","
",1704.1800000006333,<img style='border: 4px solid darkgrey;' src='img/tf1_44_M_ss1.jpeg'></img>,0,NA,exp,NA,0,<img src='img/tf1_44_T1_ss1_md.jpeg'></img>,0,TRUE,NA,sub86
NA,html-keyboard-response,103,238268,0.0-10.0-0.44,"""event"",""trial"",""time""
""fullscreenenter"",""0"",""5431""
","
","
","""event"",""trial"",""time""
""fullscreenenter"",""0"",""5431""
","
",null,"<div style=""font-size:60px;"">+</div>",NA,null,fixation,2020-06-16T21:11:38Z,NA,NA,NA,NA,NA,sub86
NA,mars-trial,104,239593,0.0-10.0-1.44,"""event"",""trial"",""time""
""fullscreenenter"",""0"",""5431""
","
","
","""event"",""trial"",""time""
""fullscreenenter"",""0"",""5431""
","
",719.0300000365824,<img style='border: 4px solid darkgrey;' src='img/tf1_45_M_ss2.jpeg'></img>,0,NA,exp,NA,2,<img src='img/tf1_45_T1_ss2_md.jpeg'></img>,0,FALSE,NA,sub86
NA,html-keyboard-response,105,240095,0.0-10.0-0.45,"""event"",""trial"",""time""
""fullscreenenter"",""0"",""5431""
","
","
","""event"",""trial"",""time""
""fullscreenenter"",""0"",""5431""
","
",null,"<div style=""font-size:60px;"">+</div>",NA,null,fixation,2020-06-16T21:11:40Z,NA,NA,NA,NA,NA,sub86
NA,mars-trial,106,240952,0.0-10.0-1.45,"""event"",""trial"",""time""
""fullscreenenter"",""0"",""5431""
","
","
","""event"",""trial"",""time""
""fullscreenenter"",""0"",""5431""
","
",252.01000005472451,<img style='border: 4px solid darkgrey;' src='img/tf1_46_M_ss3.jpeg'></img>,1,NA,exp,NA,2,<img src='img/tf1_46_T1_ss3_md.jpeg'></img>,0,FALSE,NA,sub86
NA,html-keyboard-response,107,241454,0.0-10.0-0.46,"""event"",""trial"",""time""
""fullscreenenter"",""0"",""5431""
","
","
","""event"",""trial"",""time""
""fullscreenenter"",""0"",""5431""
","
",null,"<div style=""font-size:60px;"">+</div>",NA,null,fixation,2020-06-16T21:11:41Z,NA,NA,NA,NA,NA,sub86
NA,mars-trial,108,242862,0.0-10.0-1.46,"""event"",""trial"",""time""
""fullscreenenter"",""0"",""5431""
","
","
","""event"",""trial"",""time""
""fullscreenenter"",""0"",""5431""
","
",802.6899999240413,<img style='border: 4px solid darkgrey;' src='img/tf1_47_M_ss1.jpeg'></img>,2,NA,exp,NA,3,<img src='img/tf1_47_T1_ss1_md.jpeg'></img>,0,FALSE,NA,sub86
NA,html-keyboard-response,109,243363,0.0-10.0-0.47,"""event"",""trial"",""time""
""fullscreenenter"",""0"",""5431""
","
","
","""event"",""trial"",""time""
""fullscreenenter"",""0"",""5431""
","
",null,"<div style=""font-size:60px;"">+</div>",NA,null,fixation,2020-06-16T21:11:43Z,NA,NA,NA,NA,NA,sub86
NA,mars-trial,110,244148,0.0-10.0-1.47,"""event"",""trial"",""time""
""fullscreenenter"",""0"",""5431""
","
","
","""event"",""trial"",""time""
""fullscreenenter"",""0"",""5431""
","
",178.36500005796552,<img style='border: 4px solid darkgrey;' src='img/tf1_48_M_ss2.jpeg'></img>,1,NA,exp,NA,3,<img src='img/tf1_48_T1_ss2_md.jpeg'></img>,0,FALSE,NA,sub86
NA,html-keyboard-response,111,244650,0.0-10.0-0.48,"""event"",""trial"",""time""
""fullscreenenter"",""0"",""5431""
","
","
","""event"",""trial"",""time""
""fullscreenenter"",""0"",""5431""
","
",null,"<div style=""font-size:60px;"">+</div>",NA,null,fixation,2020-06-16T21:11:45Z,NA,NA,NA,NA,NA,sub86
NA,mars-trial,112,245546,0.0-10.0-1.48,"""event"",""trial"",""time""
""fullscreenenter"",""0"",""5431""
","
","
","""event"",""trial"",""time""
""fullscreenenter"",""0"",""5431""
","
",290.96000001300126,<img style='border: 4px solid darkgrey;' src='img/tf1_49_M_ss3.jpeg'></img>,2,NA,exp,NA,0,<img src='img/tf1_49_T1_ss3_md.jpeg'></img>,0,TRUE,NA,sub86
NA,html-keyboard-response,113,246048,0.0-10.0-0.49,"""event"",""trial"",""time""
""fullscreenenter"",""0"",""5431""
","
","
","""event"",""trial"",""time""
""fullscreenenter"",""0"",""5431""
","
",null,"<div style=""font-size:60px;"">+</div>",NA,null,fixation,2020-06-16T21:11:46Z,NA,NA,NA,NA,NA,sub86
NA,mars-trial,114,248020,0.0-10.0-1.49,"""event"",""trial"",""time""
""fullscreenenter"",""0"",""5431""
","
","
","""event"",""trial"",""time""
""fullscreenenter"",""0"",""5431""
","
",1365.4650000389665,<img style='border: 4px solid darkgrey;' src='img/tf1_50_M_ss1.jpeg'></img>,1,NA,exp,NA,3,<img src='img/tf1_50_T1_ss1_md.jpeg'></img>,0,FALSE,NA,sub86
NA,html-keyboard-response,115,248521,0.0-10.0-0.50,"""event"",""trial"",""time""
""fullscreenenter"",""0"",""5431""
","
","
","""event"",""trial"",""time""
""fullscreenenter"",""0"",""5431""
","
",null,"<div style=""font-size:60px;"">+</div>",NA,null,fixation,2020-06-16T21:11:49Z,NA,NA,NA,NA,NA,sub86
NA,mars-trial,116,250735,0.0-10.0-1.50,"""event"",""trial"",""time""
""fullscreenenter"",""0"",""5431""
","
","
","""event"",""trial"",""time""
""fullscreenenter"",""0"",""5431""
","
",1607.6500000199303,<img style='border: 4px solid darkgrey;' src='img/tf1_51_M_ss2.jpeg'></img>,1,NA,exp,NA,0,<img src='img/tf1_51_T1_ss2_md.jpeg'></img>,0,TRUE,NA,sub86
NA,html-keyboard-response,117,251237,0.0-10.0-0.51,"""event"",""trial"",""time""
""fullscreenenter"",""0"",""5431""
","
","
","""event"",""trial"",""time""
""fullscreenenter"",""0"",""5431""
","
",null,"<div style=""font-size:60px;"">+</div>",NA,null,fixation,2020-06-16T21:11:51Z,NA,NA,NA,NA,NA,sub86
NA,mars-trial,118,252104,0.0-10.0-1.51,"""event"",""trial"",""time""
""fullscreenenter"",""0"",""5431""
","
","
","""event"",""trial"",""time""
""fullscreenenter"",""0"",""5431""
","
",260.79999993089586,<img style='border: 4px solid darkgrey;' src='img/tf1_52_M_ss3.jpeg'></img>,1,NA,exp,NA,3,<img src='img/tf1_52_T1_ss3_md.jpeg'></img>,0,FALSE,NA,sub86
NA,html-keyboard-response,119,252606,0.0-10.0-0.52,"""event"",""trial"",""time""
""fullscreenenter"",""0"",""5431""
","
","
","""event"",""trial"",""time""
""fullscreenenter"",""0"",""5431""
","
",null,"<div style=""font-size:60px;"">+</div>",NA,null,fixation,2020-06-16T21:11:53Z,NA,NA,NA,NA,NA,sub86
NA,mars-trial,120,253388,0.0-10.0-1.52,"""event"",""trial"",""time""
""fullscreenenter"",""0"",""5431""
","
","
","""event"",""trial"",""time""
""fullscreenenter"",""0"",""5431""
","
",177.32999997679144,<img style='border: 4px solid darkgrey;' src='img/tf1_53_M_ss1.jpeg'></img>,1,NA,exp,NA,3,<img src='img/tf1_53_T1_ss1_md.jpeg'></img>,0,FALSE,NA,sub86
NA,html-keyboard-response,121,253890,0.0-10.0-0.53,"""event"",""trial"",""time""
""fullscreenenter"",""0"",""5431""
","
","
","""event"",""trial"",""time""
""fullscreenenter"",""0"",""5431""
","
",null,"<div style=""font-size:60px;"">+</div>",NA,null,fixation,2020-06-16T21:11:54Z,NA,NA,NA,NA,NA,sub86
NA,mars-trial,122,254983,0.0-10.0-1.53,"""event"",""trial"",""time""
""fullscreenenter"",""0"",""5431""
","
","
","""event"",""trial"",""time""
""fullscreenenter"",""0"",""5431""
","
",487.13499994482845,<img style='border: 4px solid darkgrey;' src='img/tf1_54_M_ss2.jpeg'></img>,3,NA,exp,NA,3,<img src='img/tf1_54_T1_ss2_md.jpeg'></img>,0,FALSE,NA,sub86
NA,html-keyboard-response,123,255485,0.0-10.0-0.54,"""event"",""trial"",""time""
""fullscreenenter"",""0"",""5431""
","
","
","""event"",""trial"",""time""
""fullscreenenter"",""0"",""5431""
","
",null,"<div style=""font-size:60px;"">+</div>",NA,null,fixation,2020-06-16T21:11:55Z,NA,NA,NA,NA,NA,sub86
NA,mars-trial,124,256193,0.0-10.0-1.54,"""event"",""trial"",""time""
""fullscreenenter"",""0"",""5431""
","
","
","""event"",""trial"",""time""
""fullscreenenter"",""0"",""5431""
","
",103.00000000279397,<img style='border: 4px solid darkgrey;' src='img/tf1_55_M_ss3.jpeg'></img>,2,NA,exp,NA,0,<img src='img/tf1_55_T1_ss3_md.jpeg'></img>,0,TRUE,NA,sub86
NA,html-keyboard-response,125,256694,0.0-10.0-0.55,"""event"",""trial"",""time""
""fullscreenenter"",""0"",""5431""
","
","
","""event"",""trial"",""time""
""fullscreenenter"",""0"",""5431""
","
",null,"<div style=""font-size:60px;"">+</div>",NA,null,fixation,2020-06-16T21:11:57Z,NA,NA,NA,NA,NA,sub86
NA,mars-trial,126,257435,0.0-10.0-1.55,"""event"",""trial"",""time""
""fullscreenenter"",""0"",""5431""
","
","
","""event"",""trial"",""time""
""fullscreenenter"",""0"",""5431""
","
",134.77500004228204,<img style='border: 4px solid darkgrey;' src='img/tf1_56_M_ss1.jpeg'></img>,1,NA,exp,NA,0,<img src='img/tf1_56_T1_ss1_md.jpeg'></img>,0,TRUE,NA,sub86
NA,html-keyboard-response,127,257937,0.0-10.0-0.56,"""event"",""trial"",""time""
""fullscreenenter"",""0"",""5431""
","
","
","""event"",""trial"",""time""
""fullscreenenter"",""0"",""5431""
","
",null,"<div style=""font-size:60px;"">+</div>",NA,null,fixation,2020-06-16T21:11:58Z,NA,NA,NA,NA,NA,sub86
NA,mars-trial,128,258675,0.0-10.0-1.56,"""event"",""trial"",""time""
""fullscreenenter"",""0"",""5431""
","
","
","""event"",""trial"",""time""
""fullscreenenter"",""0"",""5431""
","
",131.93999999202788,<img style='border: 4px solid darkgrey;' src='img/tf1_57_M_ss2.jpeg'></img>,0,NA,exp,NA,2,<img src='img/tf1_57_T1_ss2_md.jpeg'></img>,0,FALSE,NA,sub86
NA,html-keyboard-response,129,259176,0.0-10.0-0.57,"""event"",""trial"",""time""
""fullscreenenter"",""0"",""5431""
","
","
","""event"",""trial"",""time""
""fullscreenenter"",""0"",""5431""
","
",null,"<div style=""font-size:60px;"">+</div>",NA,null,fixation,2020-06-16T21:11:59Z,NA,NA,NA,NA,NA,sub86
NA,mars-trial,130,259885,0.0-10.0-1.57,"""event"",""trial"",""time""
""fullscreenenter"",""0"",""5431""
","
","
","""event"",""trial"",""time""
""fullscreenenter"",""0"",""5431""
","
",103.05500007234514,<img style='border: 4px solid darkgrey;' src='img/tf1_58_M_ss3.jpeg'></img>,1,NA,exp,NA,1,<img src='img/tf1_58_T1_ss3_md.jpeg'></img>,0,FALSE,NA,sub86
NA,html-keyboard-response,131,260386,0.0-10.0-0.58,"""event"",""trial"",""time""
""fullscreenenter"",""0"",""5431""
","
","
","""event"",""trial"",""time""
""fullscreenenter"",""0"",""5431""
","
",null,"<div style=""font-size:60px;"">+</div>",NA,null,fixation,2020-06-16T21:12:00Z,NA,NA,NA,NA,NA,sub86
NA,mars-trial,132,261111,0.0-10.0-1.58,"""event"",""trial"",""time""
""fullscreenenter"",""0"",""5431""
","
","
","""event"",""trial"",""time""
""fullscreenenter"",""0"",""5431""
","
",119.60500001441687,<img style='border: 4px solid darkgrey;' src='img/tf1_59_M_ss1.jpeg'></img>,2,NA,exp,NA,3,<img src='img/tf1_59_T1_ss1_md.jpeg'></img>,0,FALSE,NA,sub86
NA,html-keyboard-response,133,261613,0.0-10.0-0.59,"""event"",""trial"",""time""
""fullscreenenter"",""0"",""5431""
","
","
","""event"",""trial"",""time""
""fullscreenenter"",""0"",""5431""
","
",null,"<div style=""font-size:60px;"">+</div>",NA,null,fixation,2020-06-16T21:12:02Z,NA,NA,NA,NA,NA,sub86
NA,mars-trial,134,262488,0.0-10.0-1.59,"""event"",""trial"",""time""
""fullscreenenter"",""0"",""5431""
","
","
","""event"",""trial"",""time""
""fullscreenenter"",""0"",""5431""
","
",269.0249999286607,<img style='border: 4px solid darkgrey;' src='img/tf1_60_M_ss2.jpeg'></img>,3,NA,exp,NA,0,<img src='img/tf1_60_T1_ss2_md.jpeg'></img>,0,TRUE,NA,sub86
NA,html-keyboard-response,135,262990,0.0-10.0-0.60,"""event"",""trial"",""time""
""fullscreenenter"",""0"",""5431""
","
","
","""event"",""trial"",""time""
""fullscreenenter"",""0"",""5431""
","
",null,"<div style=""font-size:60px;"">+</div>",NA,null,fixation,2020-06-16T21:12:03Z,NA,NA,NA,NA,NA,sub86
NA,mars-trial,136,264212,0.0-10.0-1.60,"""event"",""trial"",""time""
""fullscreenenter"",""0"",""5431""
","
","
","""event"",""trial"",""time""
""fullscreenenter"",""0"",""5431""
","
",615.4150000074878,<img style='border: 4px solid darkgrey;' src='img/tf1_61_M_ss3.jpeg'></img>,1,NA,exp,NA,3,<img src='img/tf1_61_T1_ss3_md.jpeg'></img>,0,FALSE,NA,sub86
NA,html-keyboard-response,137,264713,0.0-10.0-0.61,"""event"",""trial"",""time""
""fullscreenenter"",""0"",""5431""
","
","
","""event"",""trial"",""time""
""fullscreenenter"",""0"",""5431""
","
",null,"<div style=""font-size:60px;"">+</div>",NA,null,fixation,2020-06-16T21:12:05Z,NA,NA,NA,NA,NA,sub86
NA,mars-trial,138,265497,0.0-10.0-1.61,"""event"",""trial"",""time""
""fullscreenenter"",""0"",""5431""
","
","
","""event"",""trial"",""time""
""fullscreenenter"",""0"",""5431""
","
",177.53999994602054,<img style='border: 4px solid darkgrey;' src='img/tf1_62_M_ss1.jpeg'></img>,1,NA,exp,NA,3,<img src='img/tf1_62_T1_ss1_md.jpeg'></img>,0,FALSE,NA,sub86
NA,html-keyboard-response,139,265999,0.0-10.0-0.62,"""event"",""trial"",""time""
""fullscreenenter"",""0"",""5431""
","
","
","""event"",""trial"",""time""
""fullscreenenter"",""0"",""5431""
","
",null,"<div style=""font-size:60px;"">+</div>",NA,null,fixation,2020-06-16T21:12:06Z,NA,NA,NA,NA,NA,sub86
NA,mars-trial,140,266918,0.0-10.0-1.62,"""event"",""trial"",""time""
""fullscreenenter"",""0"",""5431""
","
","
","""event"",""trial"",""time""
""fullscreenenter"",""0"",""5431""
","
",314.2500000540167,<img style='border: 4px solid darkgrey;' src='img/tf1_63_M_ss2.jpeg'></img>,1,NA,exp,NA,3,<img src='img/tf1_63_T1_ss2_md.jpeg'></img>,0,FALSE,NA,sub86
NA,html-keyboard-response,141,267420,0.0-10.0-0.63,"""event"",""trial"",""time""
""fullscreenenter"",""0"",""5431""
","
","
","""event"",""trial"",""time""
""fullscreenenter"",""0"",""5431""
","
",null,"<div style=""font-size:60px;"">+</div>",NA,null,fixation,2020-06-16T21:12:07Z,NA,NA,NA,NA,NA,sub86
NA,mars-trial,142,269528,0.0-10.0-1.63,"""event"",""trial"",""time""
""fullscreenenter"",""0"",""5431""
","
","
","""event"",""trial"",""time""
""fullscreenenter"",""0"",""5431""
","
",1503.3550000516698,<img style='border: 4px solid darkgrey;' src='img/tf1_64_M_ss3.jpeg'></img>,1,NA,exp,NA,3,<img src='img/tf1_64_T1_ss3_md.jpeg'></img>,0,FALSE,NA,sub86
NA,html-keyboard-response,143,270030,0.0-10.0-0.64,"""event"",""trial"",""time""
""fullscreenenter"",""0"",""5431""
","
","
","""event"",""trial"",""time""
""fullscreenenter"",""0"",""5431""
","
",null,"<div style=""font-size:60px;"">+</div>",NA,null,fixation,2020-06-16T21:12:10Z,NA,NA,NA,NA,NA,sub86
NA,mars-trial,144,272718,0.0-10.0-1.64,"""event"",""trial"",""time""
""fullscreenenter"",""0"",""5431""
","
","
","""event"",""trial"",""time""
""fullscreenenter"",""0"",""5431""
","
",2082.704999949783,<img style='border: 4px solid darkgrey;' src='img/tf1_65_M_ss1.jpeg'></img>,2,NA,exp,NA,1,<img src='img/tf1_65_T1_ss1_md.jpeg'></img>,0,FALSE,NA,sub86
NA,html-keyboard-response,145,273219,0.0-10.0-0.65,"""event"",""trial"",""time""
""fullscreenenter"",""0"",""5431""
","
","
","""event"",""trial"",""time""
""fullscreenenter"",""0"",""5431""
","
",null,"<div style=""font-size:60px;"">+</div>",NA,null,fixation,2020-06-16T21:12:13Z,NA,NA,NA,NA,NA,sub86
NA,mars-trial,146,274305,0.0-10.0-1.65,"""event"",""trial"",""time""
""fullscreenenter"",""0"",""5431""
","
","
","""event"",""trial"",""time""
""fullscreenenter"",""0"",""5431""
","
",479.88999995868653,<img style='border: 4px solid darkgrey;' src='img/tf1_66_M_ss2.jpeg'></img>,3,NA,exp,NA,1,<img src='img/tf1_66_T1_ss2_md.jpeg'></img>,0,FALSE,NA,sub86
NA,html-keyboard-response,147,274806,0.0-10.0-0.66,"""event"",""trial"",""time""
""fullscreenenter"",""0"",""5431""
","
","
","""event"",""trial"",""time""
""fullscreenenter"",""0"",""5431""
","
",null,"<div style=""font-size:60px;"">+</div>",NA,null,fixation,2020-06-16T21:12:15Z,NA,NA,NA,NA,NA,sub86
NA,mars-trial,148,275629,0.0-10.0-1.66,"""event"",""trial"",""time""
""fullscreenenter"",""0"",""5431""
","
","
","""event"",""trial"",""time""
""fullscreenenter"",""0"",""5431""
","
",217.80500002205372,<img style='border: 4px solid darkgrey;' src='img/tf1_67_M_ss3.jpeg'></img>,1,NA,exp,NA,0,<img src='img/tf1_67_T1_ss3_md.jpeg'></img>,0,TRUE,NA,sub86
NA,html-keyboard-response,149,276131,0.0-10.0-0.67,"""event"",""trial"",""time""
""fullscreenenter"",""0"",""5431""
","
","
","""event"",""trial"",""time""
""fullscreenenter"",""0"",""5431""
","
",null,"<div style=""font-size:60px;"">+</div>",NA,null,fixation,2020-06-16T21:12:16Z,NA,NA,NA,NA,NA,sub86
NA,mars-trial,150,277247,0.0-10.0-1.67,"""event"",""trial"",""time""
""fullscreenenter"",""0"",""5431""
","
","
","""event"",""trial"",""time""
""fullscreenenter"",""0"",""5431""
","
",509.85000003129244,<img style='border: 4px solid darkgrey;' src='img/tf1_68_M_ss1.jpeg'></img>,3,NA,exp,NA,1,<img src='img/tf1_68_T1_ss1_md.jpeg'></img>,0,FALSE,NA,sub86
NA,html-keyboard-response,151,277748,0.0-10.0-0.68,"""event"",""trial"",""time""
""fullscreenenter"",""0"",""5431""
","
","
","""event"",""trial"",""time""
""fullscreenenter"",""0"",""5431""
","
",null,"<div style=""font-size:60px;"">+</div>",NA,null,fixation,2020-06-16T21:12:18Z,NA,NA,NA,NA,NA,sub86
NA,mars-trial,152,278540,0.0-10.0-1.68,"""event"",""trial"",""time""
""fullscreenenter"",""0"",""5431""
","
","
","""event"",""trial"",""time""
""fullscreenenter"",""0"",""5431""
","
",186.28000002354383,<img style='border: 4px solid darkgrey;' src='img/tf1_69_M_ss2.jpeg'></img>,0,NA,exp,NA,2,<img src='img/tf1_69_T1_ss2_md.jpeg'></img>,0,FALSE,NA,sub86
NA,html-keyboard-response,153,279041,0.0-10.0-0.69,"""event"",""trial"",""time""
""fullscreenenter"",""0"",""5431""
","
","
","""event"",""trial"",""time""
""fullscreenenter"",""0"",""5431""
","
",null,"<div style=""font-size:60px;"">+</div>",NA,null,fixation,2020-06-16T21:12:19Z,NA,NA,NA,NA,NA,sub86
NA,mars-trial,154,279796,0.0-10.0-1.69,"""event"",""trial"",""time""
""fullscreenenter"",""0"",""5431""
","
","
","""event"",""trial"",""time""
""fullscreenenter"",""0"",""5431""
","
",149.16499995160848,<img style='border: 4px solid darkgrey;' src='img/tf1_70_M_ss3.jpeg'></img>,1,NA,exp,NA,3,<img src='img/tf1_70_T1_ss3_md.jpeg'></img>,0,FALSE,NA,sub86
NA,html-keyboard-response,155,280298,0.0-10.0-0.70,"""event"",""trial"",""time""
""fullscreenenter"",""0"",""5431""
","
","
","""event"",""trial"",""time""
""fullscreenenter"",""0"",""5431""
","
",null,"<div style=""font-size:60px;"">+</div>",NA,null,fixation,2020-06-16T21:12:20Z,NA,NA,NA,NA,NA,sub86
NA,mars-trial,156,281216,0.0-10.0-1.70,"""event"",""trial"",""time""
""fullscreenenter"",""0"",""5431""
","
","
","""event"",""trial"",""time""
""fullscreenenter"",""0"",""5431""
","
",312.21000000368804,<img style='border: 4px solid darkgrey;' src='img/tf1_71_M_ss1.jpeg'></img>,2,NA,exp,NA,0,<img src='img/tf1_71_T1_ss1_md.jpeg'></img>,0,TRUE,NA,sub86
NA,html-keyboard-response,157,281718,0.0-10.0-0.71,"""event"",""trial"",""time""
""fullscreenenter"",""0"",""5431""
","
","
","""event"",""trial"",""time""
""fullscreenenter"",""0"",""5431""
","
",null,"<div style=""font-size:60px;"">+</div>",NA,null,fixation,2020-06-16T21:12:22Z,NA,NA,NA,NA,NA,sub86
NA,mars-trial,158,283164,0.0-10.0-1.71,"""event"",""trial"",""time""
""fullscreenenter"",""0"",""5431""
","
","
","""event"",""trial"",""time""
""fullscreenenter"",""0"",""5431""
","
",840.9550000214949,<img style='border: 4px solid darkgrey;' src='img/tf1_72_M_ss2.jpeg'></img>,2,NA,exp,NA,1,<img src='img/tf1_72_T1_ss2_md.jpeg'></img>,0,FALSE,NA,sub86
NA,html-keyboard-response,159,283666,0.0-10.0-0.72,"""event"",""trial"",""time""
""fullscreenenter"",""0"",""5431""
","
","
","""event"",""trial"",""time""
""fullscreenenter"",""0"",""5431""
","
",null,"<div style=""font-size:60px;"">+</div>",NA,null,fixation,2020-06-16T21:12:24Z,NA,NA,NA,NA,NA,sub86
NA,mars-trial,160,284496,0.0-10.0-1.72,"""event"",""trial"",""time""
""fullscreenenter"",""0"",""5431""
","
","
","""event"",""trial"",""time""
""fullscreenenter"",""0"",""5431""
","
",223.82000007200986,<img style='border: 4px solid darkgrey;' src='img/tf1_73_M_ss3.jpeg'></img>,1,NA,exp,NA,2,<img src='img/tf1_73_T1_ss3_md.jpeg'></img>,0,FALSE,NA,sub86
NA,html-keyboard-response,161,284998,0.0-10.0-0.73,"""event"",""trial"",""time""
""fullscreenenter"",""0"",""5431""
","
","
","""event"",""trial"",""time""
""fullscreenenter"",""0"",""5431""
","
",null,"<div style=""font-size:60px;"">+</div>",NA,null,fixation,2020-06-16T21:12:25Z,NA,NA,NA,NA,NA,sub86
NA,mars-trial,162,285841,0.0-10.0-1.73,"""event"",""trial"",""time""
""fullscreenenter"",""0"",""5431""
","
","
","""event"",""trial"",""time""
""fullscreenenter"",""0"",""5431""
","
",237.4300000956282,<img style='border: 4px solid darkgrey;' src='img/tf1_74_M_ss1.jpeg'></img>,0,NA,exp,NA,2,<img src='img/tf1_74_T1_ss1_md.jpeg'></img>,0,FALSE,NA,sub86
NA,html-keyboard-response,163,286343,0.0-10.0-0.74,"""event"",""trial"",""time""
""fullscreenenter"",""0"",""5431""
","
","
","""event"",""trial"",""time""
""fullscreenenter"",""0"",""5431""
","
",null,"<div style=""font-size:60px;"">+</div>",NA,null,fixation,2020-06-16T21:12:26Z,NA,NA,NA,NA,NA,sub86
NA,mars-trial,164,287157,0.0-10.0-1.74,"""event"",""trial"",""time""
""fullscreenenter"",""0"",""5431""
","
","
","""event"",""trial"",""time""
""fullscreenenter"",""0"",""5431""
","
",208.2500000251457,<img style='border: 4px solid darkgrey;' src='img/tf1_75_M_ss2.jpeg'></img>,2,NA,exp,NA,3,<img src='img/tf1_75_T1_ss2_md.jpeg'></img>,0,FALSE,NA,sub86
NA,html-keyboard-response,165,287658,0.0-10.0-0.75,"""event"",""trial"",""time""
""fullscreenenter"",""0"",""5431""
","
","
","""event"",""trial"",""time""
""fullscreenenter"",""0"",""5431""
","
",null,"<div style=""font-size:60px;"">+</div>",NA,null,fixation,2020-06-16T21:12:28Z,NA,NA,NA,NA,NA,sub86
NA,mars-trial,166,288428,0.0-10.0-1.75,"""event"",""trial"",""time""
""fullscreenenter"",""0"",""5431""
","
","
","""event"",""trial"",""time""
""fullscreenenter"",""0"",""5431""
","
",163.23499998543411,<img style='border: 4px solid darkgrey;' src='img/tf1_76_M_ss3.jpeg'></img>,3,NA,exp,NA,1,<img src='img/tf1_76_T1_ss3_md.jpeg'></img>,0,FALSE,NA,sub86
NA,html-keyboard-response,167,288929,0.0-10.0-0.76,"""event"",""trial"",""time""
""fullscreenenter"",""0"",""5431""
","
","
","""event"",""trial"",""time""
""fullscreenenter"",""0"",""5431""
","
",null,"<div style=""font-size:60px;"">+</div>",NA,null,fixation,2020-06-16T21:12:29Z,NA,NA,NA,NA,NA,sub86
NA,mars-trial,168,289780,0.0-10.0-1.76,"""event"",""trial"",""time""
""fullscreenenter"",""0"",""5431""
","
","
","""event"",""trial"",""time""
""fullscreenenter"",""0"",""5431""
","
",245.73500000406057,<img style='border: 4px solid darkgrey;' src='img/tf1_77_M_ss1.jpeg'></img>,1,NA,exp,NA,2,<img src='img/tf1_77_T1_ss1_md.jpeg'></img>,0,FALSE,NA,sub86
NA,html-keyboard-response,169,290282,0.0-10.0-0.77,"""event"",""trial"",""time""
""fullscreenenter"",""0"",""5431""
","
","
","""event"",""trial"",""time""
""fullscreenenter"",""0"",""5431""
","
",null,"<div style=""font-size:60px;"">+</div>",NA,null,fixation,2020-06-16T21:12:30Z,NA,NA,NA,NA,NA,sub86
NA,mars-trial,170,291132,0.0-10.0-1.77,"""event"",""trial"",""time""
""fullscreenenter"",""0"",""5431""
","
","
","""event"",""trial"",""time""
""fullscreenenter"",""0"",""5431""
","
",246.2400000076741,<img style='border: 4px solid darkgrey;' src='img/tf1_78_M_ss2.jpeg'></img>,0,NA,exp,NA,1,<img src='img/tf1_78_T1_ss2_md.jpeg'></img>,0,FALSE,NA,sub86
NA,html-keyboard-response,171,291635,0.0-10.0-0.78,"""event"",""trial"",""time""
""fullscreenenter"",""0"",""5431""
","
","
","""event"",""trial"",""time""
""fullscreenenter"",""0"",""5431""
","
",null,"<div style=""font-size:60px;"">+</div>",NA,null,fixation,2020-06-16T21:12:32Z,NA,NA,NA,NA,NA,sub86
NA,mars-trial,172,292450,0.0-10.0-1.78,"""event"",""trial"",""time""
""fullscreenenter"",""0"",""5431""
","
","
","""event"",""trial"",""time""
""fullscreenenter"",""0"",""5431""
","
",210.09499998763204,<img style='border: 4px solid darkgrey;' src='img/tf1_79_M_ss3.jpeg'></img>,2,NA,exp,NA,3,<img src='img/tf1_79_T1_ss3_md.jpeg'></img>,0,FALSE,NA,sub86
NA,html-keyboard-response,173,292951,0.0-10.0-0.79,"""event"",""trial"",""time""
""fullscreenenter"",""0"",""5431""
","
","
","""event"",""trial"",""time""
""fullscreenenter"",""0"",""5431""
","
",null,"<div style=""font-size:60px;"">+</div>",NA,null,fixation,2020-06-16T21:12:33Z,NA,NA,NA,NA,NA,sub86
NA,mars-trial,174,293765,0.0-10.0-1.79,"""event"",""trial"",""time""
""fullscreenenter"",""0"",""5431""
","
","
","""event"",""trial"",""time""
""fullscreenenter"",""0"",""5431""
","
",208.84999993722886,<img style='border: 4px solid darkgrey;' src='img/tf1_80_M_ss1.jpeg'></img>,3,NA,exp,NA,3,<img src='img/tf1_80_T1_ss1_md.jpeg'></img>,0,FALSE,NA,sub86
NA,audio-button-response,175,300738,0.0-11.0,"""event"",""trial"",""time""
""fullscreenenter"",""0"",""5431""
","
","
","""event"",""trial"",""time""
""fullscreenenter"",""0"",""5431""
","
",6971.115000080317,audio/mars_instructions_slide5.wav,0,NA,NA,NA,NA,NA,NA,NA,NA,sub86
