success,trial_type,trial_index,time_elapsed,internal_node_id,interactions,blur_events,focus_events,fullscreenenter_events,fullscreenexit_events,rt,stimulus,button_pressed,key_press,part,timestamp,unshuffled_button,correct_response,correct_button,correct,value,subject_id
TRUE,fullscreen,0,4898,0.0-0.0,"""event"",""trial"",""time""
""fullscreenenter"",""0"",""3916""
","
","
","""event"",""trial"",""time""
""fullscreenenter"",""0"",""3916""
","
",NA,NA,NA,NA,NA,NA,NA,NA,NA,NA,NA,sub55
NA,pavlovia,1,4904,0.0-1.0,"""event"",""trial"",""time""
""fullscreenenter"",""0"",""3916""
","
","
","""event"",""trial"",""time""
""fullscreenenter"",""0"",""3916""
","
",NA,NA,NA,NA,NA,NA,NA,NA,NA,NA,NA,sub55
NA,html-button-response,2,6806,0.0-2.0,"""event"",""trial"",""time""
""fullscreenenter"",""0"",""3916""
","
","
","""event"",""trial"",""time""
""fullscreenenter"",""0"",""3916""
","
",1899.3100000079721,<p>Welcome! Press START to begin.</p><br>,0,NA,NA,NA,NA,NA,NA,NA,NA,sub55
NA,audio-button-response,3,28268,0.0-3.0,"""event"",""trial"",""time""
""fullscreenenter"",""0"",""3916""
","
","
","""event"",""trial"",""time""
""fullscreenenter"",""0"",""3916""
","
",21459.34999999008,audio/mars_instructions_slide2.wav,0,NA,NA,NA,NA,NA,NA,NA,NA,sub55
NA,audio-button-response,4,44893,0.0-4.0,"""event"",""trial"",""time""
""fullscreenenter"",""0"",""3916""
","
","
","""event"",""trial"",""time""
""fullscreenenter"",""0"",""3916""
","
",16623.064999992494,audio/mars_instructions_slide3.wav,0,NA,NA,NA,NA,NA,NA,NA,NA,sub55
NA,html-keyboard-response,5,45396,0.0-5.0-0.0,"""event"",""trial"",""time""
""fullscreenenter"",""0"",""3916""
","
","
","""event"",""trial"",""time""
""fullscreenenter"",""0"",""3916""
","
",null,"<div style=""font-size:60px;"">+</div>",NA,null,fixation,2020-06-12T20:07:56Z,NA,NA,NA,NA,NA,sub55
NA,mars-trial,6,53346,0.0-5.0-1.0,"""event"",""trial"",""time""
""fullscreenenter"",""0"",""3916""
","
","
","""event"",""trial"",""time""
""fullscreenenter"",""0"",""3916""
","
",5842.919999995502,<img style='border: 4px solid darkgrey;' src='practice/pt1_M1.png'></img>,0,NA,practice,NA,0,<img src='practice/pt1_T1.png'></img>,0,TRUE,NA,sub55
NA,html-keyboard-response,7,53849,0.0-6.0-0.0,"""event"",""trial"",""time""
""fullscreenenter"",""0"",""3916""
","
","
","""event"",""trial"",""time""
""fullscreenenter"",""0"",""3916""
","
",null,"<div style=""font-size:60px;"">+</div>",NA,null,fixation,2020-06-12T20:08:05Z,NA,NA,NA,NA,NA,sub55
NA,mars-trial,8,59261,0.0-6.0-1.0,"""event"",""trial"",""time""
""fullscreenenter"",""0"",""3916""
","
","
","""event"",""trial"",""time""
""fullscreenenter"",""0"",""3916""
","
",3307.0449999941047,<img style='border: 4px solid darkgrey;' src='practice/pt2_M1.png'></img>,2,NA,practice,NA,0,<img src='practice/pt2_T1.png'></img>,0,TRUE,NA,sub55
NA,html-keyboard-response,9,59763,0.0-7.0-0.0,"""event"",""trial"",""time""
""fullscreenenter"",""0"",""3916""
","
","
","""event"",""trial"",""time""
""fullscreenenter"",""0"",""3916""
","
",null,"<div style=""font-size:60px;"">+</div>",NA,null,fixation,2020-06-12T20:08:10Z,NA,NA,NA,NA,NA,sub55
NA,mars-trial,10,65220,0.0-7.0-1.0,"""event"",""trial"",""time""
""fullscreenenter"",""0"",""3916""
","
","
","""event"",""trial"",""time""
""fullscreenenter"",""0"",""3916""
","
",3351.4649999997346,<img style='border: 4px solid darkgrey;' src='practice/pt3_M1.png'></img>,3,NA,practice,NA,0,<img src='practice/pt3_T1.png'></img>,0,TRUE,NA,sub55
NA,audio-button-response,11,72964,0.0-8.0,"""event"",""trial"",""time""
""fullscreenenter"",""0"",""3916""
","
","
","""event"",""trial"",""time""
""fullscreenenter"",""0"",""3916""
","
",7742.5899999943795,audio/mars_instructions_slide4.wav,0,NA,NA,NA,NA,NA,NA,NA,NA,sub55
NA,call-function,12,72965,0.0-9.0,"""event"",""trial"",""time""
""fullscreenenter"",""0"",""3916""
","
","
","""event"",""trial"",""time""
""fullscreenenter"",""0"",""3916""
","
",NA,NA,NA,NA,NA,NA,NA,NA,NA,NA,NA,sub55
NA,html-keyboard-response,13,73467,0.0-10.0-0.0,"""event"",""trial"",""time""
""fullscreenenter"",""0"",""3916""
","
","
","""event"",""trial"",""time""
""fullscreenenter"",""0"",""3916""
","
",null,"<div style=""font-size:60px;"">+</div>",NA,null,fixation,2020-06-12T20:08:24Z,NA,NA,NA,NA,NA,sub55
NA,mars-trial,14,76915,0.0-10.0-1.0,"""event"",""trial"",""time""
""fullscreenenter"",""0"",""3916""
","
","
","""event"",""trial"",""time""
""fullscreenenter"",""0"",""3916""
","
",2842.5549999956274,<img style='border: 4px solid darkgrey;' src='img/tf1_1_M_ss3.jpeg'></img>,1,NA,exp,NA,0,<img src='img/tf1_1_T1_ss3_md.jpeg'></img>,0,TRUE,NA,sub55
NA,html-keyboard-response,15,77418,0.0-10.0-0.1,"""event"",""trial"",""time""
""fullscreenenter"",""0"",""3916""
","
","
","""event"",""trial"",""time""
""fullscreenenter"",""0"",""3916""
","
",null,"<div style=""font-size:60px;"">+</div>",NA,null,fixation,2020-06-12T20:08:28Z,NA,NA,NA,NA,NA,sub55
NA,mars-trial,16,81282,0.0-10.0-1.1,"""event"",""trial"",""time""
""fullscreenenter"",""0"",""3916""
","
","
","""event"",""trial"",""time""
""fullscreenenter"",""0"",""3916""
","
",3260.0400000083027,<img style='border: 4px solid darkgrey;' src='img/tf1_2_M_ss1.jpeg'></img>,2,NA,exp,NA,0,<img src='img/tf1_2_T1_ss1_md.jpeg'></img>,0,TRUE,NA,sub55
NA,html-keyboard-response,17,81785,0.0-10.0-0.2,"""event"",""trial"",""time""
""fullscreenenter"",""0"",""3916""
","
","
","""event"",""trial"",""time""
""fullscreenenter"",""0"",""3916""
","
",null,"<div style=""font-size:60px;"">+</div>",NA,null,fixation,2020-06-12T20:08:32Z,NA,NA,NA,NA,NA,sub55
NA,mars-trial,18,84346,0.0-10.0-1.2,"""event"",""trial"",""time""
""fullscreenenter"",""0"",""3916""
","
","
","""event"",""trial"",""time""
""fullscreenenter"",""0"",""3916""
","
",1957.6249999954598,<img style='border: 4px solid darkgrey;' src='img/tf1_3_M_ss2.jpeg'></img>,0,NA,exp,NA,0,<img src='img/tf1_3_T1_ss2_md.jpeg'></img>,0,TRUE,NA,sub55
NA,html-keyboard-response,19,84848,0.0-10.0-0.3,"""event"",""trial"",""time""
""fullscreenenter"",""0"",""3916""
","
","
","""event"",""trial"",""time""
""fullscreenenter"",""0"",""3916""
","
",null,"<div style=""font-size:60px;"">+</div>",NA,null,fixation,2020-06-12T20:08:36Z,NA,NA,NA,NA,NA,sub55
NA,mars-trial,20,88260,0.0-10.0-1.3,"""event"",""trial"",""time""
""fullscreenenter"",""0"",""3916""
","
","
","""event"",""trial"",""time""
""fullscreenenter"",""0"",""3916""
","
",2807.1400000044378,<img style='border: 4px solid darkgrey;' src='img/tf1_4_M_ss3.jpeg'></img>,0,NA,exp,NA,2,<img src='img/tf1_4_T1_ss3_md.jpeg'></img>,0,FALSE,NA,sub55
NA,html-keyboard-response,21,88763,0.0-10.0-0.4,"""event"",""trial"",""time""
""fullscreenenter"",""0"",""3916""
","
","
","""event"",""trial"",""time""
""fullscreenenter"",""0"",""3916""
","
",null,"<div style=""font-size:60px;"">+</div>",NA,null,fixation,2020-06-12T20:08:39Z,NA,NA,NA,NA,NA,sub55
NA,mars-trial,22,92498,0.0-10.0-1.4,"""event"",""trial"",""time""
""fullscreenenter"",""0"",""3916""
","
","
","""event"",""trial"",""time""
""fullscreenenter"",""0"",""3916""
","
",3130.2900000009686,<img style='border: 4px solid darkgrey;' src='img/tf1_5_M_ss1.jpeg'></img>,0,NA,exp,NA,0,<img src='img/tf1_5_T1_ss1_md.jpeg'></img>,0,TRUE,NA,sub55
NA,html-keyboard-response,23,93000,0.0-10.0-0.5,"""event"",""trial"",""time""
""fullscreenenter"",""0"",""3916""
","
","
","""event"",""trial"",""time""
""fullscreenenter"",""0"",""3916""
","
",null,"<div style=""font-size:60px;"">+</div>",NA,null,fixation,2020-06-12T20:08:44Z,NA,NA,NA,NA,NA,sub55
NA,mars-trial,24,99037,0.0-10.0-1.5,"""event"",""trial"",""time""
""fullscreenenter"",""0"",""3916""
","
","
","""event"",""trial"",""time""
""fullscreenenter"",""0"",""3916""
","
",5429.284999991069,<img style='border: 4px solid darkgrey;' src='img/tf1_6_M_ss2.jpeg'></img>,1,NA,exp,NA,3,<img src='img/tf1_6_T1_ss2_md.jpeg'></img>,0,FALSE,NA,sub55
NA,html-keyboard-response,25,99538,0.0-10.0-0.6,"""event"",""trial"",""time""
""fullscreenenter"",""0"",""3916""
","
","
","""event"",""trial"",""time""
""fullscreenenter"",""0"",""3916""
","
",null,"<div style=""font-size:60px;"">+</div>",NA,null,fixation,2020-06-12T20:08:50Z,NA,NA,NA,NA,NA,sub55
NA,mars-trial,26,103494,0.0-10.0-1.6,"""event"",""trial"",""time""
""fullscreenenter"",""0"",""3916""
","
","
","""event"",""trial"",""time""
""fullscreenenter"",""0"",""3916""
","
",3349.6849999937695,<img style='border: 4px solid darkgrey;' src='img/tf1_7_M_ss3.jpeg'></img>,0,NA,exp,NA,0,<img src='img/tf1_7_T1_ss3_md.jpeg'></img>,0,TRUE,NA,sub55
NA,html-keyboard-response,27,103997,0.0-10.0-0.7,"""event"",""trial"",""time""
""fullscreenenter"",""0"",""3916""
","
","
","""event"",""trial"",""time""
""fullscreenenter"",""0"",""3916""
","
",null,"<div style=""font-size:60px;"">+</div>",NA,null,fixation,2020-06-12T20:08:55Z,NA,NA,NA,NA,NA,sub55
NA,mars-trial,28,108539,0.0-10.0-1.7,"""event"",""trial"",""time""
""fullscreenenter"",""0"",""3916""
","
","
","""event"",""trial"",""time""
""fullscreenenter"",""0"",""3916""
","
",3935.6899999984307,<img style='border: 4px solid darkgrey;' src='img/tf1_8_M_ss1.jpeg'></img>,1,NA,exp,NA,3,<img src='img/tf1_8_T1_ss1_md.jpeg'></img>,0,FALSE,NA,sub55
NA,html-keyboard-response,29,109041,0.0-10.0-0.8,"""event"",""trial"",""time""
""fullscreenenter"",""0"",""3916""
","
","
","""event"",""trial"",""time""
""fullscreenenter"",""0"",""3916""
","
",null,"<div style=""font-size:60px;"">+</div>",NA,null,fixation,2020-06-12T20:09:00Z,NA,NA,NA,NA,NA,sub55
NA,mars-trial,30,113678,0.0-10.0-1.8,"""event"",""trial"",""time""
""fullscreenenter"",""0"",""3916""
","
","
","""event"",""trial"",""time""
""fullscreenenter"",""0"",""3916""
","
",4031.200000012177,<img style='border: 4px solid darkgrey;' src='img/tf1_9_M_ss2.jpeg'></img>,3,NA,exp,NA,3,<img src='img/tf1_9_T1_ss2_md.jpeg'></img>,0,FALSE,NA,sub55
NA,html-keyboard-response,31,114180,0.0-10.0-0.9,"""event"",""trial"",""time""
""fullscreenenter"",""0"",""3916""
","
","
","""event"",""trial"",""time""
""fullscreenenter"",""0"",""3916""
","
",null,"<div style=""font-size:60px;"">+</div>",NA,null,fixation,2020-06-12T20:09:05Z,NA,NA,NA,NA,NA,sub55
NA,mars-trial,32,120474,0.0-10.0-1.9,"""event"",""trial"",""time""
""fullscreenenter"",""0"",""3916""
","
","
","""event"",""trial"",""time""
""fullscreenenter"",""0"",""3916""
","
",5686.2399999954505,<img style='border: 4px solid darkgrey;' src='img/tf1_10_M_ss3.jpeg'></img>,2,NA,exp,NA,1,<img src='img/tf1_10_T1_ss3_md.jpeg'></img>,0,FALSE,NA,sub55
NA,html-keyboard-response,33,120976,0.0-10.0-0.10,"""event"",""trial"",""time""
""fullscreenenter"",""0"",""3916""
","
","
","""event"",""trial"",""time""
""fullscreenenter"",""0"",""3916""
","
",null,"<div style=""font-size:60px;"">+</div>",NA,null,fixation,2020-06-12T20:09:12Z,NA,NA,NA,NA,NA,sub55
NA,mars-trial,34,126961,0.0-10.0-1.10,"""event"",""trial"",""time""
""fullscreenenter"",""0"",""3916""
","
","
","""event"",""trial"",""time""
""fullscreenenter"",""0"",""3916""
","
",5380.024999991292,<img style='border: 4px solid darkgrey;' src='img/tf1_11_M_ss1.jpeg'></img>,2,NA,exp,NA,3,<img src='img/tf1_11_T1_ss1_md.jpeg'></img>,0,FALSE,NA,sub55
NA,html-keyboard-response,35,127464,0.0-10.0-0.11,"""event"",""trial"",""time""
""fullscreenenter"",""0"",""3916""
","
","
","""event"",""trial"",""time""
""fullscreenenter"",""0"",""3916""
","
",null,"<div style=""font-size:60px;"">+</div>",NA,null,fixation,2020-06-12T20:09:18Z,NA,NA,NA,NA,NA,sub55
NA,mars-trial,36,131632,0.0-10.0-1.11,"""event"",""trial"",""time""
""fullscreenenter"",""0"",""3916""
","
","
","""event"",""trial"",""time""
""fullscreenenter"",""0"",""3916""
","
",3562.2050000092713,<img style='border: 4px solid darkgrey;' src='img/tf1_12_M_ss2.jpeg'></img>,2,NA,exp,NA,3,<img src='img/tf1_12_T1_ss2_md.jpeg'></img>,0,FALSE,NA,sub55
NA,html-keyboard-response,37,132134,0.0-10.0-0.12,"""event"",""trial"",""time""
""fullscreenenter"",""0"",""3916""
","
","
","""event"",""trial"",""time""
""fullscreenenter"",""0"",""3916""
","
",null,"<div style=""font-size:60px;"">+</div>",NA,null,fixation,2020-06-12T20:09:23Z,NA,NA,NA,NA,NA,sub55
NA,mars-trial,38,135781,0.0-10.0-1.12,"""event"",""trial"",""time""
""fullscreenenter"",""0"",""3916""
","
","
","""event"",""trial"",""time""
""fullscreenenter"",""0"",""3916""
","
",3040.3599999990547,<img style='border: 4px solid darkgrey;' src='img/tf1_13_M_ss3.jpeg'></img>,2,NA,exp,NA,1,<img src='img/tf1_13_T1_ss3_md.jpeg'></img>,0,FALSE,NA,sub55
NA,html-keyboard-response,39,136283,0.0-10.0-0.13,"""event"",""trial"",""time""
""fullscreenenter"",""0"",""3916""
","
","
","""event"",""trial"",""time""
""fullscreenenter"",""0"",""3916""
","
",null,"<div style=""font-size:60px;"">+</div>",NA,null,fixation,2020-06-12T20:09:27Z,NA,NA,NA,NA,NA,sub55
NA,mars-trial,40,140663,0.0-10.0-1.13,"""event"",""trial"",""time""
""fullscreenenter"",""0"",""3916""
","
","
","""event"",""trial"",""time""
""fullscreenenter"",""0"",""3916""
","
",3773.6949999962235,<img style='border: 4px solid darkgrey;' src='img/tf1_14_M_ss1.jpeg'></img>,1,NA,exp,NA,0,<img src='img/tf1_14_T1_ss1_md.jpeg'></img>,0,TRUE,NA,sub55
NA,html-keyboard-response,41,141165,0.0-10.0-0.14,"""event"",""trial"",""time""
""fullscreenenter"",""0"",""3916""
","
","
","""event"",""trial"",""time""
""fullscreenenter"",""0"",""3916""
","
",null,"<div style=""font-size:60px;"">+</div>",NA,null,fixation,2020-06-12T20:09:32Z,NA,NA,NA,NA,NA,sub55
NA,mars-trial,42,146576,0.0-10.0-1.14,"""event"",""trial"",""time""
""fullscreenenter"",""0"",""3916""
","
","
","""event"",""trial"",""time""
""fullscreenenter"",""0"",""3916""
","
",4804.974999991828,<img style='border: 4px solid darkgrey;' src='img/tf1_15_M_ss2.jpeg'></img>,2,NA,exp,NA,2,<img src='img/tf1_15_T1_ss2_md.jpeg'></img>,0,FALSE,NA,sub55
NA,html-keyboard-response,43,147078,0.0-10.0-0.15,"""event"",""trial"",""time""
""fullscreenenter"",""0"",""3916""
","
","
","""event"",""trial"",""time""
""fullscreenenter"",""0"",""3916""
","
",null,"<div style=""font-size:60px;"">+</div>",NA,null,fixation,2020-06-12T20:09:38Z,NA,NA,NA,NA,NA,sub55
NA,mars-trial,44,151532,0.0-10.0-1.15,"""event"",""trial"",""time""
""fullscreenenter"",""0"",""3916""
","
","
","""event"",""trial"",""time""
""fullscreenenter"",""0"",""3916""
","
",3848.389999999199,<img style='border: 4px solid darkgrey;' src='img/tf1_16_M_ss3.jpeg'></img>,1,NA,exp,NA,2,<img src='img/tf1_16_T1_ss3_md.jpeg'></img>,0,FALSE,NA,sub55
NA,html-keyboard-response,45,152034,0.0-10.0-0.16,"""event"",""trial"",""time""
""fullscreenenter"",""0"",""3916""
","
","
","""event"",""trial"",""time""
""fullscreenenter"",""0"",""3916""
","
",null,"<div style=""font-size:60px;"">+</div>",NA,null,fixation,2020-06-12T20:09:43Z,NA,NA,NA,NA,NA,sub55
NA,mars-trial,46,154349,0.0-10.0-1.16,"""event"",""trial"",""time""
""fullscreenenter"",""0"",""3916""
","
","
","""event"",""trial"",""time""
""fullscreenenter"",""0"",""3916""
","
",1709.6549999987474,<img style='border: 4px solid darkgrey;' src='img/tf1_17_M_ss1.jpeg'></img>,2,NA,exp,NA,0,<img src='img/tf1_17_T1_ss1_md.jpeg'></img>,0,TRUE,NA,sub55
NA,html-keyboard-response,47,154851,0.0-10.0-0.17,"""event"",""trial"",""time""
""fullscreenenter"",""0"",""3916""
","
","
","""event"",""trial"",""time""
""fullscreenenter"",""0"",""3916""
","
",null,"<div style=""font-size:60px;"">+</div>",NA,null,fixation,2020-06-12T20:09:46Z,NA,NA,NA,NA,NA,sub55
NA,mars-trial,48,156609,0.0-10.0-1.17,"""event"",""trial"",""time""
""fullscreenenter"",""0"",""3916""
","
","
","""event"",""trial"",""time""
""fullscreenenter"",""0"",""3916""
","
",1152.3749999905704,<img style='border: 4px solid darkgrey;' src='img/tf1_18_M_ss2.jpeg'></img>,2,NA,exp,NA,0,<img src='img/tf1_18_T1_ss2_md.jpeg'></img>,0,TRUE,NA,sub55
NA,html-keyboard-response,49,157111,0.0-10.0-0.18,"""event"",""trial"",""time""
""fullscreenenter"",""0"",""3916""
","
","
","""event"",""trial"",""time""
""fullscreenenter"",""0"",""3916""
","
",null,"<div style=""font-size:60px;"">+</div>",NA,null,fixation,2020-06-12T20:09:48Z,NA,NA,NA,NA,NA,sub55
NA,mars-trial,50,159027,0.0-10.0-1.18,"""event"",""trial"",""time""
""fullscreenenter"",""0"",""3916""
","
","
","""event"",""trial"",""time""
""fullscreenenter"",""0"",""3916""
","
",1310.4250000033062,<img style='border: 4px solid darkgrey;' src='img/tf1_19_M_ss3.jpeg'></img>,2,NA,exp,NA,0,<img src='img/tf1_19_T1_ss3_md.jpeg'></img>,0,TRUE,NA,sub55
NA,html-keyboard-response,51,159530,0.0-10.0-0.19,"""event"",""trial"",""time""
""fullscreenenter"",""0"",""3916""
","
","
","""event"",""trial"",""time""
""fullscreenenter"",""0"",""3916""
","
",null,"<div style=""font-size:60px;"">+</div>",NA,null,fixation,2020-06-12T20:09:50Z,NA,NA,NA,NA,NA,sub55
NA,mars-trial,52,160737,0.0-10.0-1.19,"""event"",""trial"",""time""
""fullscreenenter"",""0"",""3916""
","
","
","""event"",""trial"",""time""
""fullscreenenter"",""0"",""3916""
","
",601.4949999953387,<img style='border: 4px solid darkgrey;' src='img/tf1_20_M_ss1.jpeg'></img>,2,NA,exp,NA,1,<img src='img/tf1_20_T1_ss1_md.jpeg'></img>,0,FALSE,NA,sub55
NA,html-keyboard-response,53,161239,0.0-10.0-0.20,"""event"",""trial"",""time""
""fullscreenenter"",""0"",""3916""
","
","
","""event"",""trial"",""time""
""fullscreenenter"",""0"",""3916""
","
",null,"<div style=""font-size:60px;"">+</div>",NA,null,fixation,2020-06-12T20:09:52Z,NA,NA,NA,NA,NA,sub55
NA,mars-trial,54,162795,0.0-10.0-1.20,"""event"",""trial"",""time""
""fullscreenenter"",""0"",""3916""
","
","
","""event"",""trial"",""time""
""fullscreenenter"",""0"",""3916""
","
",951.0799999989104,<img style='border: 4px solid darkgrey;' src='img/tf1_21_M_ss2.jpeg'></img>,1,NA,exp,NA,3,<img src='img/tf1_21_T1_ss2_md.jpeg'></img>,0,FALSE,NA,sub55
NA,html-keyboard-response,55,163298,0.0-10.0-0.21,"""event"",""trial"",""time""
""fullscreenenter"",""0"",""3916""
","
","
","""event"",""trial"",""time""
""fullscreenenter"",""0"",""3916""
","
",null,"<div style=""font-size:60px;"">+</div>",NA,null,fixation,2020-06-12T20:09:54Z,NA,NA,NA,NA,NA,sub55
NA,mars-trial,56,164589,0.0-10.0-1.21,"""event"",""trial"",""time""
""fullscreenenter"",""0"",""3916""
","
","
","""event"",""trial"",""time""
""fullscreenenter"",""0"",""3916""
","
",686.3849999936065,<img style='border: 4px solid darkgrey;' src='img/tf1_22_M_ss3.jpeg'></img>,2,NA,exp,NA,1,<img src='img/tf1_22_T1_ss3_md.jpeg'></img>,0,FALSE,NA,sub55
NA,html-keyboard-response,57,165091,0.0-10.0-0.22,"""event"",""trial"",""time""
""fullscreenenter"",""0"",""3916""
","
","
","""event"",""trial"",""time""
""fullscreenenter"",""0"",""3916""
","
",null,"<div style=""font-size:60px;"">+</div>",NA,null,fixation,2020-06-12T20:09:56Z,NA,NA,NA,NA,NA,sub55
NA,mars-trial,58,167563,0.0-10.0-1.22,"""event"",""trial"",""time""
""fullscreenenter"",""0"",""3916""
","
","
","""event"",""trial"",""time""
""fullscreenenter"",""0"",""3916""
","
",1866.7850000056205,<img style='border: 4px solid darkgrey;' src='img/tf1_23_M_ss1.jpeg'></img>,2,NA,exp,NA,1,<img src='img/tf1_23_T1_ss1_md.jpeg'></img>,0,FALSE,NA,sub55
NA,html-keyboard-response,59,168065,0.0-10.0-0.23,"""event"",""trial"",""time""
""fullscreenenter"",""0"",""3916""
","
","
","""event"",""trial"",""time""
""fullscreenenter"",""0"",""3916""
","
",null,"<div style=""font-size:60px;"">+</div>",NA,null,fixation,2020-06-12T20:09:59Z,NA,NA,NA,NA,NA,sub55
NA,mars-trial,60,170703,0.0-10.0-1.23,"""event"",""trial"",""time""
""fullscreenenter"",""0"",""3916""
","
","
","""event"",""trial"",""time""
""fullscreenenter"",""0"",""3916""
","
",2033.5200000117766,<img style='border: 4px solid darkgrey;' src='img/tf1_24_M_ss2.jpeg'></img>,1,NA,exp,NA,1,<img src='img/tf1_24_T1_ss2_md.jpeg'></img>,0,FALSE,NA,sub55
NA,html-keyboard-response,61,171206,0.0-10.0-0.24,"""event"",""trial"",""time""
""fullscreenenter"",""0"",""3916""
","
","
","""event"",""trial"",""time""
""fullscreenenter"",""0"",""3916""
","
",null,"<div style=""font-size:60px;"">+</div>",NA,null,fixation,2020-06-12T20:10:02Z,NA,NA,NA,NA,NA,sub55
NA,mars-trial,62,173976,0.0-10.0-1.24,"""event"",""trial"",""time""
""fullscreenenter"",""0"",""3916""
","
","
","""event"",""trial"",""time""
""fullscreenenter"",""0"",""3916""
","
",2161.835000006249,<img style='border: 4px solid darkgrey;' src='img/tf1_25_M_ss3.jpeg'></img>,1,NA,exp,NA,0,<img src='img/tf1_25_T1_ss3_md.jpeg'></img>,0,TRUE,NA,sub55
NA,html-keyboard-response,63,174478,0.0-10.0-0.25,"""event"",""trial"",""time""
""fullscreenenter"",""0"",""3916""
","
","
","""event"",""trial"",""time""
""fullscreenenter"",""0"",""3916""
","
",null,"<div style=""font-size:60px;"">+</div>",NA,null,fixation,2020-06-12T20:10:05Z,NA,NA,NA,NA,NA,sub55
NA,mars-trial,64,176014,0.0-10.0-1.25,"""event"",""trial"",""time""
""fullscreenenter"",""0"",""3916""
","
","
","""event"",""trial"",""time""
""fullscreenenter"",""0"",""3916""
","
",931.060000002617,<img style='border: 4px solid darkgrey;' src='img/tf1_26_M_ss1.jpeg'></img>,1,NA,exp,NA,0,<img src='img/tf1_26_T1_ss1_md.jpeg'></img>,0,TRUE,NA,sub55
NA,html-keyboard-response,65,176517,0.0-10.0-0.26,"""event"",""trial"",""time""
""fullscreenenter"",""0"",""3916""
","
","
","""event"",""trial"",""time""
""fullscreenenter"",""0"",""3916""
","
",null,"<div style=""font-size:60px;"">+</div>",NA,null,fixation,2020-06-12T20:10:07Z,NA,NA,NA,NA,NA,sub55
NA,mars-trial,66,178352,0.0-10.0-1.26,"""event"",""trial"",""time""
""fullscreenenter"",""0"",""3916""
","
","
","""event"",""trial"",""time""
""fullscreenenter"",""0"",""3916""
","
",1229.9849999981234,<img style='border: 4px solid darkgrey;' src='img/tf1_27_M_ss2.jpeg'></img>,1,NA,exp,NA,1,<img src='img/tf1_27_T1_ss2_md.jpeg'></img>,0,FALSE,NA,sub55
NA,html-keyboard-response,67,178854,0.0-10.0-0.27,"""event"",""trial"",""time""
""fullscreenenter"",""0"",""3916""
","
","
","""event"",""trial"",""time""
""fullscreenenter"",""0"",""3916""
","
",null,"<div style=""font-size:60px;"">+</div>",NA,null,fixation,2020-06-12T20:10:10Z,NA,NA,NA,NA,NA,sub55
NA,mars-trial,68,180632,0.0-10.0-1.27,"""event"",""trial"",""time""
""fullscreenenter"",""0"",""3916""
","
","
","""event"",""trial"",""time""
""fullscreenenter"",""0"",""3916""
","
",1173.5800000024028,<img style='border: 4px solid darkgrey;' src='img/tf1_28_M_ss3.jpeg'></img>,1,NA,exp,NA,0,<img src='img/tf1_28_T1_ss3_md.jpeg'></img>,0,TRUE,NA,sub55
NA,html-keyboard-response,69,181134,0.0-10.0-0.28,"""event"",""trial"",""time""
""fullscreenenter"",""0"",""3916""
","
","
","""event"",""trial"",""time""
""fullscreenenter"",""0"",""3916""
","
",null,"<div style=""font-size:60px;"">+</div>",NA,null,fixation,2020-06-12T20:10:12Z,NA,NA,NA,NA,NA,sub55
NA,mars-trial,70,182790,0.0-10.0-1.28,"""event"",""trial"",""time""
""fullscreenenter"",""0"",""3916""
","
","
","""event"",""trial"",""time""
""fullscreenenter"",""0"",""3916""
","
",1050.7700000016484,<img style='border: 4px solid darkgrey;' src='img/tf1_29_M_ss1.jpeg'></img>,1,NA,exp,NA,3,<img src='img/tf1_29_T1_ss1_md.jpeg'></img>,0,FALSE,NA,sub55
NA,html-keyboard-response,71,183291,0.0-10.0-0.29,"""event"",""trial"",""time""
""fullscreenenter"",""0"",""3916""
","
","
","""event"",""trial"",""time""
""fullscreenenter"",""0"",""3916""
","
",null,"<div style=""font-size:60px;"">+</div>",NA,null,fixation,2020-06-12T20:10:14Z,NA,NA,NA,NA,NA,sub55
NA,mars-trial,72,184584,0.0-10.0-1.29,"""event"",""trial"",""time""
""fullscreenenter"",""0"",""3916""
","
","
","""event"",""trial"",""time""
""fullscreenenter"",""0"",""3916""
","
",687.7299999905517,<img style='border: 4px solid darkgrey;' src='img/tf1_30_M_ss2.jpeg'></img>,2,NA,exp,NA,3,<img src='img/tf1_30_T1_ss2_md.jpeg'></img>,0,FALSE,NA,sub55
NA,html-keyboard-response,73,185087,0.0-10.0-0.30,"""event"",""trial"",""time""
""fullscreenenter"",""0"",""3916""
","
","
","""event"",""trial"",""time""
""fullscreenenter"",""0"",""3916""
","
",null,"<div style=""font-size:60px;"">+</div>",NA,null,fixation,2020-06-12T20:10:16Z,NA,NA,NA,NA,NA,sub55
NA,mars-trial,74,187028,0.0-10.0-1.30,"""event"",""trial"",""time""
""fullscreenenter"",""0"",""3916""
","
","
","""event"",""trial"",""time""
""fullscreenenter"",""0"",""3916""
","
",1335.015000004205,<img style='border: 4px solid darkgrey;' src='img/tf1_31_M_ss3.jpeg'></img>,1,NA,exp,NA,0,<img src='img/tf1_31_T1_ss3_md.jpeg'></img>,0,TRUE,NA,sub55
NA,html-keyboard-response,75,187530,0.0-10.0-0.31,"""event"",""trial"",""time""
""fullscreenenter"",""0"",""3916""
","
","
","""event"",""trial"",""time""
""fullscreenenter"",""0"",""3916""
","
",null,"<div style=""font-size:60px;"">+</div>",NA,null,fixation,2020-06-12T20:10:18Z,NA,NA,NA,NA,NA,sub55
NA,mars-trial,76,189086,0.0-10.0-1.31,"""event"",""trial"",""time""
""fullscreenenter"",""0"",""3916""
","
","
","""event"",""trial"",""time""
""fullscreenenter"",""0"",""3916""
","
",951.1750000092434,<img style='border: 4px solid darkgrey;' src='img/tf1_32_M_ss1.jpeg'></img>,1,NA,exp,NA,3,<img src='img/tf1_32_T1_ss1_md.jpeg'></img>,0,FALSE,NA,sub55
NA,html-keyboard-response,77,189589,0.0-10.0-0.32,"""event"",""trial"",""time""
""fullscreenenter"",""0"",""3916""
","
","
","""event"",""trial"",""time""
""fullscreenenter"",""0"",""3916""
","
",null,"<div style=""font-size:60px;"">+</div>",NA,null,fixation,2020-06-12T20:10:20Z,NA,NA,NA,NA,NA,sub55
NA,mars-trial,78,191415,0.0-10.0-1.32,"""event"",""trial"",""time""
""fullscreenenter"",""0"",""3916""
","
","
","""event"",""trial"",""time""
""fullscreenenter"",""0"",""3916""
","
",1220.9750000038184,<img style='border: 4px solid darkgrey;' src='img/tf1_33_M_ss2.jpeg'></img>,1,NA,exp,NA,2,<img src='img/tf1_33_T1_ss2_md.jpeg'></img>,0,FALSE,NA,sub55
NA,html-keyboard-response,79,191917,0.0-10.0-0.33,"""event"",""trial"",""time""
""fullscreenenter"",""0"",""3916""
","
","
","""event"",""trial"",""time""
""fullscreenenter"",""0"",""3916""
","
",null,"<div style=""font-size:60px;"">+</div>",NA,null,fixation,2020-06-12T20:10:23Z,NA,NA,NA,NA,NA,sub55
NA,mars-trial,80,194693,0.0-10.0-1.33,"""event"",""trial"",""time""
""fullscreenenter"",""0"",""3916""
","
","
","""event"",""trial"",""time""
""fullscreenenter"",""0"",""3916""
","
",2169.3450000020675,<img style='border: 4px solid darkgrey;' src='img/tf1_34_M_ss3.jpeg'></img>,1,NA,exp,NA,2,<img src='img/tf1_34_T1_ss3_md.jpeg'></img>,0,FALSE,NA,sub55
NA,html-keyboard-response,81,195196,0.0-10.0-0.34,"""event"",""trial"",""time""
""fullscreenenter"",""0"",""3916""
","
","
","""event"",""trial"",""time""
""fullscreenenter"",""0"",""3916""
","
",null,"<div style=""font-size:60px;"">+</div>",NA,null,fixation,2020-06-12T20:10:26Z,NA,NA,NA,NA,NA,sub55
NA,mars-trial,82,197644,0.0-10.0-1.34,"""event"",""trial"",""time""
""fullscreenenter"",""0"",""3916""
","
","
","""event"",""trial"",""time""
""fullscreenenter"",""0"",""3916""
","
",1841.9549999962328,<img style='border: 4px solid darkgrey;' src='img/tf1_35_M_ss1.jpeg'></img>,1,NA,exp,NA,1,<img src='img/tf1_35_T1_ss1_md.jpeg'></img>,0,FALSE,NA,sub55
NA,html-keyboard-response,83,198147,0.0-10.0-0.35,"""event"",""trial"",""time""
""fullscreenenter"",""0"",""3916""
","
","
","""event"",""trial"",""time""
""fullscreenenter"",""0"",""3916""
","
",null,"<div style=""font-size:60px;"">+</div>",NA,null,fixation,2020-06-12T20:10:29Z,NA,NA,NA,NA,NA,sub55
NA,mars-trial,84,200110,0.0-10.0-1.35,"""event"",""trial"",""time""
""fullscreenenter"",""0"",""3916""
","
","
","""event"",""trial"",""time""
""fullscreenenter"",""0"",""3916""
","
",1358.250000004773,<img style='border: 4px solid darkgrey;' src='img/tf1_36_M_ss2.jpeg'></img>,1,NA,exp,NA,0,<img src='img/tf1_36_T1_ss2_md.jpeg'></img>,0,TRUE,NA,sub55
NA,html-keyboard-response,85,200611,0.0-10.0-0.36,"""event"",""trial"",""time""
""fullscreenenter"",""0"",""3916""
","
","
","""event"",""trial"",""time""
""fullscreenenter"",""0"",""3916""
","
",null,"<div style=""font-size:60px;"">+</div>",NA,null,fixation,2020-06-12T20:10:31Z,NA,NA,NA,NA,NA,sub55
NA,mars-trial,86,203156,0.0-10.0-1.36,"""event"",""trial"",""time""
""fullscreenenter"",""0"",""3916""
","
","
","""event"",""trial"",""time""
""fullscreenenter"",""0"",""3916""
","
",1940.3650000022026,<img style='border: 4px solid darkgrey;' src='img/tf1_37_M_ss3.jpeg'></img>,1,NA,exp,NA,1,<img src='img/tf1_37_T1_ss3_md.jpeg'></img>,0,FALSE,NA,sub55
NA,html-keyboard-response,87,203659,0.0-10.0-0.37,"""event"",""trial"",""time""
""fullscreenenter"",""0"",""3916""
","
","
","""event"",""trial"",""time""
""fullscreenenter"",""0"",""3916""
","
",null,"<div style=""font-size:60px;"">+</div>",NA,null,fixation,2020-06-12T20:10:34Z,NA,NA,NA,NA,NA,sub55
NA,mars-trial,88,205418,0.0-10.0-1.37,"""event"",""trial"",""time""
""fullscreenenter"",""0"",""3916""
","
","
","""event"",""trial"",""time""
""fullscreenenter"",""0"",""3916""
","
",1152.9999999911524,<img style='border: 4px solid darkgrey;' src='img/tf1_38_M_ss1.jpeg'></img>,1,NA,exp,NA,3,<img src='img/tf1_38_T1_ss1_md.jpeg'></img>,0,FALSE,NA,sub55
NA,html-keyboard-response,89,205921,0.0-10.0-0.38,"""event"",""trial"",""time""
""fullscreenenter"",""0"",""3916""
","
","
","""event"",""trial"",""time""
""fullscreenenter"",""0"",""3916""
","
",null,"<div style=""font-size:60px;"">+</div>",NA,null,fixation,2020-06-12T20:10:37Z,NA,NA,NA,NA,NA,sub55
NA,mars-trial,90,208514,0.0-10.0-1.38,"""event"",""trial"",""time""
""fullscreenenter"",""0"",""3916""
","
","
","""event"",""trial"",""time""
""fullscreenenter"",""0"",""3916""
","
",1986.7799999919953,<img style='border: 4px solid darkgrey;' src='img/tf1_39_M_ss2.jpeg'></img>,1,NA,exp,NA,0,<img src='img/tf1_39_T1_ss2_md.jpeg'></img>,0,TRUE,NA,sub55
NA,html-keyboard-response,91,209017,0.0-10.0-0.39,"""event"",""trial"",""time""
""fullscreenenter"",""0"",""3916""
","
","
","""event"",""trial"",""time""
""fullscreenenter"",""0"",""3916""
","
",null,"<div style=""font-size:60px;"">+</div>",NA,null,fixation,2020-06-12T20:10:40Z,NA,NA,NA,NA,NA,sub55
NA,mars-trial,92,211353,0.0-10.0-1.39,"""event"",""trial"",""time""
""fullscreenenter"",""0"",""3916""
","
","
","""event"",""trial"",""time""
""fullscreenenter"",""0"",""3916""
","
",1730.6899999966845,<img style='border: 4px solid darkgrey;' src='img/tf1_40_M_ss3.jpeg'></img>,2,NA,exp,NA,1,<img src='img/tf1_40_T1_ss3_md.jpeg'></img>,0,FALSE,NA,sub55
NA,html-keyboard-response,93,211854,0.0-10.0-0.40,"""event"",""trial"",""time""
""fullscreenenter"",""0"",""3916""
","
","
","""event"",""trial"",""time""
""fullscreenenter"",""0"",""3916""
","
",null,"<div style=""font-size:60px;"">+</div>",NA,null,fixation,2020-06-12T20:10:43Z,NA,NA,NA,NA,NA,sub55
NA,mars-trial,94,215083,0.0-10.0-1.40,"""event"",""trial"",""time""
""fullscreenenter"",""0"",""3916""
","
","
","""event"",""trial"",""time""
""fullscreenenter"",""0"",""3916""
","
",2622.5050000066403,<img style='border: 4px solid darkgrey;' src='img/tf1_41_M_ss1.jpeg'></img>,1,NA,exp,NA,0,<img src='img/tf1_41_T1_ss1_md.jpeg'></img>,0,TRUE,NA,sub55
NA,html-keyboard-response,95,215585,0.0-10.0-0.41,"""event"",""trial"",""time""
""fullscreenenter"",""0"",""3916""
","
","
","""event"",""trial"",""time""
""fullscreenenter"",""0"",""3916""
","
",null,"<div style=""font-size:60px;"">+</div>",NA,null,fixation,2020-06-12T20:10:46Z,NA,NA,NA,NA,NA,sub55
NA,mars-trial,96,219783,0.0-10.0-1.41,"""event"",""trial"",""time""
""fullscreenenter"",""0"",""3916""
","
","
","""event"",""trial"",""time""
""fullscreenenter"",""0"",""3916""
","
",3591.679999997723,<img style='border: 4px solid darkgrey;' src='img/tf1_42_M_ss2.jpeg'></img>,0,NA,exp,NA,1,<img src='img/tf1_42_T1_ss2_md.jpeg'></img>,0,FALSE,NA,sub55
NA,html-keyboard-response,97,220285,0.0-10.0-0.42,"""event"",""trial"",""time""
""fullscreenenter"",""0"",""3916""
","
","
","""event"",""trial"",""time""
""fullscreenenter"",""0"",""3916""
","
",null,"<div style=""font-size:60px;"">+</div>",NA,null,fixation,2020-06-12T20:10:51Z,NA,NA,NA,NA,NA,sub55
NA,mars-trial,98,222369,0.0-10.0-1.42,"""event"",""trial"",""time""
""fullscreenenter"",""0"",""3916""
","
","
","""event"",""trial"",""time""
""fullscreenenter"",""0"",""3916""
","
",1478.4450000006473,<img style='border: 4px solid darkgrey;' src='img/tf1_43_M_ss3.jpeg'></img>,1,NA,exp,NA,0,<img src='img/tf1_43_T1_ss3_md.jpeg'></img>,0,TRUE,NA,sub55
NA,html-keyboard-response,99,222872,0.0-10.0-0.43,"""event"",""trial"",""time""
""fullscreenenter"",""0"",""3916""
","
","
","""event"",""trial"",""time""
""fullscreenenter"",""0"",""3916""
","
",null,"<div style=""font-size:60px;"">+</div>",NA,null,fixation,2020-06-12T20:10:54Z,NA,NA,NA,NA,NA,sub55
NA,mars-trial,100,225993,0.0-10.0-1.43,"""event"",""trial"",""time""
""fullscreenenter"",""0"",""3916""
","
","
","""event"",""trial"",""time""
""fullscreenenter"",""0"",""3916""
","
",2517.454999993788,<img style='border: 4px solid darkgrey;' src='img/tf1_44_M_ss1.jpeg'></img>,3,NA,exp,NA,2,<img src='img/tf1_44_T1_ss1_md.jpeg'></img>,0,FALSE,NA,sub55
NA,html-keyboard-response,101,226496,0.0-10.0-0.44,"""event"",""trial"",""time""
""fullscreenenter"",""0"",""3916""
","
","
","""event"",""trial"",""time""
""fullscreenenter"",""0"",""3916""
","
",null,"<div style=""font-size:60px;"">+</div>",NA,null,fixation,2020-06-12T20:10:57Z,NA,NA,NA,NA,NA,sub55
NA,mars-trial,102,228269,0.0-10.0-1.44,"""event"",""trial"",""time""
""fullscreenenter"",""0"",""3916""
","
","
","""event"",""trial"",""time""
""fullscreenenter"",""0"",""3916""
","
",1168.3349999948405,<img style='border: 4px solid darkgrey;' src='img/tf1_45_M_ss2.jpeg'></img>,1,NA,exp,NA,2,<img src='img/tf1_45_T1_ss2_md.jpeg'></img>,0,FALSE,NA,sub55
NA,html-keyboard-response,103,228772,0.0-10.0-0.45,"""event"",""trial"",""time""
""fullscreenenter"",""0"",""3916""
","
","
","""event"",""trial"",""time""
""fullscreenenter"",""0"",""3916""
","
",null,"<div style=""font-size:60px;"">+</div>",NA,null,fixation,2020-06-12T20:10:59Z,NA,NA,NA,NA,NA,sub55
NA,mars-trial,104,231399,0.0-10.0-1.45,"""event"",""trial"",""time""
""fullscreenenter"",""0"",""3916""
","
","
","""event"",""trial"",""time""
""fullscreenenter"",""0"",""3916""
","
",2022.449999989476,<img style='border: 4px solid darkgrey;' src='img/tf1_46_M_ss3.jpeg'></img>,1,NA,exp,NA,0,<img src='img/tf1_46_T1_ss3_md.jpeg'></img>,0,TRUE,NA,sub55
NA,html-keyboard-response,105,231901,0.0-10.0-0.46,"""event"",""trial"",""time""
""fullscreenenter"",""0"",""3916""
","
","
","""event"",""trial"",""time""
""fullscreenenter"",""0"",""3916""
","
",null,"<div style=""font-size:60px;"">+</div>",NA,null,fixation,2020-06-12T20:11:03Z,NA,NA,NA,NA,NA,sub55
NA,mars-trial,106,233635,0.0-10.0-1.46,"""event"",""trial"",""time""
""fullscreenenter"",""0"",""3916""
","
","
","""event"",""trial"",""time""
""fullscreenenter"",""0"",""3916""
","
",1128.964999996242,<img style='border: 4px solid darkgrey;' src='img/tf1_47_M_ss1.jpeg'></img>,1,NA,exp,NA,0,<img src='img/tf1_47_T1_ss1_md.jpeg'></img>,0,TRUE,NA,sub55
NA,html-keyboard-response,107,234137,0.0-10.0-0.47,"""event"",""trial"",""time""
""fullscreenenter"",""0"",""3916""
","
","
","""event"",""trial"",""time""
""fullscreenenter"",""0"",""3916""
","
",null,"<div style=""font-size:60px;"">+</div>",NA,null,fixation,2020-06-12T20:11:05Z,NA,NA,NA,NA,NA,sub55
NA,mars-trial,108,236410,0.0-10.0-1.47,"""event"",""trial"",""time""
""fullscreenenter"",""0"",""3916""
","
","
","""event"",""trial"",""time""
""fullscreenenter"",""0"",""3916""
","
",1667.2749999997905,<img style='border: 4px solid darkgrey;' src='img/tf1_48_M_ss2.jpeg'></img>,1,NA,exp,NA,1,<img src='img/tf1_48_T1_ss2_md.jpeg'></img>,0,FALSE,NA,sub55
NA,html-keyboard-response,109,236913,0.0-10.0-0.48,"""event"",""trial"",""time""
""fullscreenenter"",""0"",""3916""
","
","
","""event"",""trial"",""time""
""fullscreenenter"",""0"",""3916""
","
",null,"<div style=""font-size:60px;"">+</div>",NA,null,fixation,2020-06-12T20:11:08Z,NA,NA,NA,NA,NA,sub55
NA,mars-trial,110,240625,0.0-10.0-1.48,"""event"",""trial"",""time""
""fullscreenenter"",""0"",""3916""
","
","
","""event"",""trial"",""time""
""fullscreenenter"",""0"",""3916""
","
",3107.6600000087637,<img style='border: 4px solid darkgrey;' src='img/tf1_49_M_ss3.jpeg'></img>,3,NA,exp,NA,1,<img src='img/tf1_49_T1_ss3_md.jpeg'></img>,0,FALSE,NA,sub55
NA,html-keyboard-response,111,241128,0.0-10.0-0.49,"""event"",""trial"",""time""
""fullscreenenter"",""0"",""3916""
","
","
","""event"",""trial"",""time""
""fullscreenenter"",""0"",""3916""
","
",null,"<div style=""font-size:60px;"">+</div>",NA,null,fixation,2020-06-12T20:11:12Z,NA,NA,NA,NA,NA,sub55
NA,mars-trial,112,243282,0.0-10.0-1.49,"""event"",""trial"",""time""
""fullscreenenter"",""0"",""3916""
","
","
","""event"",""trial"",""time""
""fullscreenenter"",""0"",""3916""
","
",1549.6150000108173,<img style='border: 4px solid darkgrey;' src='img/tf1_50_M_ss1.jpeg'></img>,3,NA,exp,NA,1,<img src='img/tf1_50_T1_ss1_md.jpeg'></img>,0,FALSE,NA,sub55
NA,html-keyboard-response,113,243784,0.0-10.0-0.50,"""event"",""trial"",""time""
""fullscreenenter"",""0"",""3916""
","
","
","""event"",""trial"",""time""
""fullscreenenter"",""0"",""3916""
","
",null,"<div style=""font-size:60px;"">+</div>",NA,null,fixation,2020-06-12T20:11:14Z,NA,NA,NA,NA,NA,sub55
NA,mars-trial,114,246956,0.0-10.0-1.50,"""event"",""trial"",""time""
""fullscreenenter"",""0"",""3916""
","
","
","""event"",""trial"",""time""
""fullscreenenter"",""0"",""3916""
","
",2567.3249999963446,<img style='border: 4px solid darkgrey;' src='img/tf1_51_M_ss2.jpeg'></img>,3,NA,exp,NA,1,<img src='img/tf1_51_T1_ss2_md.jpeg'></img>,0,FALSE,NA,sub55
NA,html-keyboard-response,115,247459,0.0-10.0-0.51,"""event"",""trial"",""time""
""fullscreenenter"",""0"",""3916""
","
","
","""event"",""trial"",""time""
""fullscreenenter"",""0"",""3916""
","
",null,"<div style=""font-size:60px;"">+</div>",NA,null,fixation,2020-06-12T20:11:18Z,NA,NA,NA,NA,NA,sub55
NA,mars-trial,116,249457,0.0-10.0-1.51,"""event"",""trial"",""time""
""fullscreenenter"",""0"",""3916""
","
","
","""event"",""trial"",""time""
""fullscreenenter"",""0"",""3916""
","
",1393.5700000001816,<img style='border: 4px solid darkgrey;' src='img/tf1_52_M_ss3.jpeg'></img>,3,NA,exp,NA,2,<img src='img/tf1_52_T1_ss3_md.jpeg'></img>,0,FALSE,NA,sub55
NA,html-keyboard-response,117,249959,0.0-10.0-0.52,"""event"",""trial"",""time""
""fullscreenenter"",""0"",""3916""
","
","
","""event"",""trial"",""time""
""fullscreenenter"",""0"",""3916""
","
",null,"<div style=""font-size:60px;"">+</div>",NA,null,fixation,2020-06-12T20:11:21Z,NA,NA,NA,NA,NA,sub55
NA,mars-trial,118,252175,0.0-10.0-1.52,"""event"",""trial"",""time""
""fullscreenenter"",""0"",""3916""
","
","
","""event"",""trial"",""time""
""fullscreenenter"",""0"",""3916""
","
",1609.8700000002282,<img style='border: 4px solid darkgrey;' src='img/tf1_53_M_ss1.jpeg'></img>,3,NA,exp,NA,0,<img src='img/tf1_53_T1_ss1_md.jpeg'></img>,0,TRUE,NA,sub55
NA,html-keyboard-response,119,252677,0.0-10.0-0.53,"""event"",""trial"",""time""
""fullscreenenter"",""0"",""3916""
","
","
","""event"",""trial"",""time""
""fullscreenenter"",""0"",""3916""
","
",null,"<div style=""font-size:60px;"">+</div>",NA,null,fixation,2020-06-12T20:11:23Z,NA,NA,NA,NA,NA,sub55
NA,mars-trial,120,255905,0.0-10.0-1.53,"""event"",""trial"",""time""
""fullscreenenter"",""0"",""3916""
","
","
","""event"",""trial"",""time""
""fullscreenenter"",""0"",""3916""
","
",2623.7399999954505,<img style='border: 4px solid darkgrey;' src='img/tf1_54_M_ss2.jpeg'></img>,0,NA,exp,NA,1,<img src='img/tf1_54_T1_ss2_md.jpeg'></img>,0,FALSE,NA,sub55
NA,html-keyboard-response,121,256408,0.0-10.0-0.54,"""event"",""trial"",""time""
""fullscreenenter"",""0"",""3916""
","
","
","""event"",""trial"",""time""
""fullscreenenter"",""0"",""3916""
","
",null,"<div style=""font-size:60px;"">+</div>",NA,null,fixation,2020-06-12T20:11:27Z,NA,NA,NA,NA,NA,sub55
NA,mars-trial,122,258473,0.0-10.0-1.54,"""event"",""trial"",""time""
""fullscreenenter"",""0"",""3916""
","
","
","""event"",""trial"",""time""
""fullscreenenter"",""0"",""3916""
","
",1459.419999999227,<img style='border: 4px solid darkgrey;' src='img/tf1_55_M_ss3.jpeg'></img>,0,NA,exp,NA,3,<img src='img/tf1_55_T1_ss3_md.jpeg'></img>,0,FALSE,NA,sub55
NA,html-keyboard-response,123,258975,0.0-10.0-0.55,"""event"",""trial"",""time""
""fullscreenenter"",""0"",""3916""
","
","
","""event"",""trial"",""time""
""fullscreenenter"",""0"",""3916""
","
",null,"<div style=""font-size:60px;"">+</div>",NA,null,fixation,2020-06-12T20:11:30Z,NA,NA,NA,NA,NA,sub55
NA,mars-trial,124,261237,0.0-10.0-1.55,"""event"",""trial"",""time""
""fullscreenenter"",""0"",""3916""
","
","
","""event"",""trial"",""time""
""fullscreenenter"",""0"",""3916""
","
",1656.0449999960838,<img style='border: 4px solid darkgrey;' src='img/tf1_56_M_ss1.jpeg'></img>,0,NA,exp,NA,0,<img src='img/tf1_56_T1_ss1_md.jpeg'></img>,0,TRUE,NA,sub55
NA,html-keyboard-response,125,261740,0.0-10.0-0.56,"""event"",""trial"",""time""
""fullscreenenter"",""0"",""3916""
","
","
","""event"",""trial"",""time""
""fullscreenenter"",""0"",""3916""
","
",null,"<div style=""font-size:60px;"">+</div>",NA,null,fixation,2020-06-12T20:11:32Z,NA,NA,NA,NA,NA,sub55
NA,mars-trial,126,264691,0.0-10.0-1.56,"""event"",""trial"",""time""
""fullscreenenter"",""0"",""3916""
","
","
","""event"",""trial"",""time""
""fullscreenenter"",""0"",""3916""
","
",2345.2350000006845,<img style='border: 4px solid darkgrey;' src='img/tf1_57_M_ss2.jpeg'></img>,1,NA,exp,NA,2,<img src='img/tf1_57_T1_ss2_md.jpeg'></img>,0,FALSE,NA,sub55
NA,html-keyboard-response,127,265192,0.0-10.0-0.57,"""event"",""trial"",""time""
""fullscreenenter"",""0"",""3916""
","
","
","""event"",""trial"",""time""
""fullscreenenter"",""0"",""3916""
","
",null,"<div style=""font-size:60px;"">+</div>",NA,null,fixation,2020-06-12T20:11:36Z,NA,NA,NA,NA,NA,sub55
NA,mars-trial,128,267826,0.0-10.0-1.57,"""event"",""trial"",""time""
""fullscreenenter"",""0"",""3916""
","
","
","""event"",""trial"",""time""
""fullscreenenter"",""0"",""3916""
","
",2027.5300000066636,<img style='border: 4px solid darkgrey;' src='img/tf1_58_M_ss3.jpeg'></img>,3,NA,exp,NA,3,<img src='img/tf1_58_T1_ss3_md.jpeg'></img>,0,FALSE,NA,sub55
NA,html-keyboard-response,129,268327,0.0-10.0-0.58,"""event"",""trial"",""time""
""fullscreenenter"",""0"",""3916""
","
","
","""event"",""trial"",""time""
""fullscreenenter"",""0"",""3916""
","
",null,"<div style=""font-size:60px;"">+</div>",NA,null,fixation,2020-06-12T20:11:39Z,NA,NA,NA,NA,NA,sub55
NA,mars-trial,130,270431,0.0-10.0-1.58,"""event"",""trial"",""time""
""fullscreenenter"",""0"",""3916""
","
","
","""event"",""trial"",""time""
""fullscreenenter"",""0"",""3916""
","
",1499.1299999965122,<img style='border: 4px solid darkgrey;' src='img/tf1_59_M_ss1.jpeg'></img>,3,NA,exp,NA,3,<img src='img/tf1_59_T1_ss1_md.jpeg'></img>,0,FALSE,NA,sub55
NA,html-keyboard-response,131,270933,0.0-10.0-0.59,"""event"",""trial"",""time""
""fullscreenenter"",""0"",""3916""
","
","
","""event"",""trial"",""time""
""fullscreenenter"",""0"",""3916""
","
",null,"<div style=""font-size:60px;"">+</div>",NA,null,fixation,2020-06-12T20:11:42Z,NA,NA,NA,NA,NA,sub55
NA,mars-trial,132,272765,0.0-10.0-1.59,"""event"",""trial"",""time""
""fullscreenenter"",""0"",""3916""
","
","
","""event"",""trial"",""time""
""fullscreenenter"",""0"",""3916""
","
",1227.8299999888986,<img style='border: 4px solid darkgrey;' src='img/tf1_60_M_ss2.jpeg'></img>,0,NA,exp,NA,0,<img src='img/tf1_60_T1_ss2_md.jpeg'></img>,0,TRUE,NA,sub55
NA,html-keyboard-response,133,273268,0.0-10.0-0.60,"""event"",""trial"",""time""
""fullscreenenter"",""0"",""3916""
","
","
","""event"",""trial"",""time""
""fullscreenenter"",""0"",""3916""
","
",null,"<div style=""font-size:60px;"">+</div>",NA,null,fixation,2020-06-12T20:11:44Z,NA,NA,NA,NA,NA,sub55
NA,mars-trial,134,275825,0.0-10.0-1.60,"""event"",""trial"",""time""
""fullscreenenter"",""0"",""3916""
","
","
","""event"",""trial"",""time""
""fullscreenenter"",""0"",""3916""
","
",1951.8049999896903,<img style='border: 4px solid darkgrey;' src='img/tf1_61_M_ss3.jpeg'></img>,0,NA,exp,NA,0,<img src='img/tf1_61_T1_ss3_md.jpeg'></img>,0,TRUE,NA,sub55
NA,html-keyboard-response,135,276327,0.0-10.0-0.61,"""event"",""trial"",""time""
""fullscreenenter"",""0"",""3916""
","
","
","""event"",""trial"",""time""
""fullscreenenter"",""0"",""3916""
","
",null,"<div style=""font-size:60px;"">+</div>",NA,null,fixation,2020-06-12T20:11:47Z,NA,NA,NA,NA,NA,sub55
NA,mars-trial,136,277967,0.0-10.0-1.61,"""event"",""trial"",""time""
""fullscreenenter"",""0"",""3916""
","
","
","""event"",""trial"",""time""
""fullscreenenter"",""0"",""3916""
","
",1035.5350000027101,<img style='border: 4px solid darkgrey;' src='img/tf1_62_M_ss1.jpeg'></img>,0,NA,exp,NA,0,<img src='img/tf1_62_T1_ss1_md.jpeg'></img>,0,TRUE,NA,sub55
NA,html-keyboard-response,137,278470,0.0-10.0-0.62,"""event"",""trial"",""time""
""fullscreenenter"",""0"",""3916""
","
","
","""event"",""trial"",""time""
""fullscreenenter"",""0"",""3916""
","
",null,"<div style=""font-size:60px;"">+</div>",NA,null,fixation,2020-06-12T20:11:49Z,NA,NA,NA,NA,NA,sub55
NA,mars-trial,138,280226,0.0-10.0-1.62,"""event"",""trial"",""time""
""fullscreenenter"",""0"",""3916""
","
","
","""event"",""trial"",""time""
""fullscreenenter"",""0"",""3916""
","
",1150.8449999964796,<img style='border: 4px solid darkgrey;' src='img/tf1_63_M_ss2.jpeg'></img>,0,NA,exp,NA,0,<img src='img/tf1_63_T1_ss2_md.jpeg'></img>,0,TRUE,NA,sub55
NA,html-keyboard-response,139,280728,0.0-10.0-0.63,"""event"",""trial"",""time""
""fullscreenenter"",""0"",""3916""
","
","
","""event"",""trial"",""time""
""fullscreenenter"",""0"",""3916""
","
",null,"<div style=""font-size:60px;"">+</div>",NA,null,fixation,2020-06-12T20:11:51Z,NA,NA,NA,NA,NA,sub55
NA,mars-trial,140,282600,0.0-10.0-1.63,"""event"",""trial"",""time""
""fullscreenenter"",""0"",""3916""
","
","
","""event"",""trial"",""time""
""fullscreenenter"",""0"",""3916""
","
",1266.5349999879254,<img style='border: 4px solid darkgrey;' src='img/tf1_64_M_ss3.jpeg'></img>,1,NA,exp,NA,3,<img src='img/tf1_64_T1_ss3_md.jpeg'></img>,0,FALSE,NA,sub55
NA,html-keyboard-response,141,283103,0.0-10.0-0.64,"""event"",""trial"",""time""
""fullscreenenter"",""0"",""3916""
","
","
","""event"",""trial"",""time""
""fullscreenenter"",""0"",""3916""
","
",null,"<div style=""font-size:60px;"">+</div>",NA,null,fixation,2020-06-12T20:11:54Z,NA,NA,NA,NA,NA,sub55
NA,mars-trial,142,285064,0.0-10.0-1.64,"""event"",""trial"",""time""
""fullscreenenter"",""0"",""3916""
","
","
","""event"",""trial"",""time""
""fullscreenenter"",""0"",""3916""
","
",1355.4000000003725,<img style='border: 4px solid darkgrey;' src='img/tf1_65_M_ss1.jpeg'></img>,1,NA,exp,NA,2,<img src='img/tf1_65_T1_ss1_md.jpeg'></img>,0,FALSE,NA,sub55
NA,html-keyboard-response,143,285566,0.0-10.0-0.65,"""event"",""trial"",""time""
""fullscreenenter"",""0"",""3916""
","
","
","""event"",""trial"",""time""
""fullscreenenter"",""0"",""3916""
","
",null,"<div style=""font-size:60px;"">+</div>",NA,null,fixation,2020-06-12T20:11:56Z,NA,NA,NA,NA,NA,sub55
NA,mars-trial,144,288172,0.0-10.0-1.65,"""event"",""trial"",""time""
""fullscreenenter"",""0"",""3916""
","
","
","""event"",""trial"",""time""
""fullscreenenter"",""0"",""3916""
","
",2000.4950000002282,<img style='border: 4px solid darkgrey;' src='img/tf1_66_M_ss2.jpeg'></img>,1,NA,exp,NA,0,<img src='img/tf1_66_T1_ss2_md.jpeg'></img>,0,TRUE,NA,sub55
NA,html-keyboard-response,145,288675,0.0-10.0-0.66,"""event"",""trial"",""time""
""fullscreenenter"",""0"",""3916""
","
","
","""event"",""trial"",""time""
""fullscreenenter"",""0"",""3916""
","
",null,"<div style=""font-size:60px;"">+</div>",NA,null,fixation,2020-06-12T20:11:59Z,NA,NA,NA,NA,NA,sub55
NA,mars-trial,146,290483,0.0-10.0-1.66,"""event"",""trial"",""time""
""fullscreenenter"",""0"",""3916""
","
","
","""event"",""trial"",""time""
""fullscreenenter"",""0"",""3916""
","
",1201.919999992242,<img style='border: 4px solid darkgrey;' src='img/tf1_67_M_ss3.jpeg'></img>,1,NA,exp,NA,1,<img src='img/tf1_67_T1_ss3_md.jpeg'></img>,0,FALSE,NA,sub55
NA,html-keyboard-response,147,290984,0.0-10.0-0.67,"""event"",""trial"",""time""
""fullscreenenter"",""0"",""3916""
","
","
","""event"",""trial"",""time""
""fullscreenenter"",""0"",""3916""
","
",null,"<div style=""font-size:60px;"">+</div>",NA,null,fixation,2020-06-12T20:12:02Z,NA,NA,NA,NA,NA,sub55
NA,mars-trial,148,292950,0.0-10.0-1.67,"""event"",""trial"",""time""
""fullscreenenter"",""0"",""3916""
","
","
","""event"",""trial"",""time""
""fullscreenenter"",""0"",""3916""
","
",1359.2499999940628,<img style='border: 4px solid darkgrey;' src='img/tf1_68_M_ss1.jpeg'></img>,3,NA,exp,NA,0,<img src='img/tf1_68_T1_ss1_md.jpeg'></img>,0,TRUE,NA,sub55
NA,html-keyboard-response,149,293453,0.0-10.0-0.68,"""event"",""trial"",""time""
""fullscreenenter"",""0"",""3916""
","
","
","""event"",""trial"",""time""
""fullscreenenter"",""0"",""3916""
","
",null,"<div style=""font-size:60px;"">+</div>",NA,null,fixation,2020-06-12T20:12:04Z,NA,NA,NA,NA,NA,sub55
NA,mars-trial,150,295458,0.0-10.0-1.68,"""event"",""trial"",""time""
""fullscreenenter"",""0"",""3916""
","
","
","""event"",""trial"",""time""
""fullscreenenter"",""0"",""3916""
","
",1400.6500000105007,<img style='border: 4px solid darkgrey;' src='img/tf1_69_M_ss2.jpeg'></img>,2,NA,exp,NA,0,<img src='img/tf1_69_T1_ss2_md.jpeg'></img>,0,TRUE,NA,sub55
NA,html-keyboard-response,151,295960,0.0-10.0-0.69,"""event"",""trial"",""time""
""fullscreenenter"",""0"",""3916""
","
","
","""event"",""trial"",""time""
""fullscreenenter"",""0"",""3916""
","
",null,"<div style=""font-size:60px;"">+</div>",NA,null,fixation,2020-06-12T20:12:07Z,NA,NA,NA,NA,NA,sub55
NA,mars-trial,152,299605,0.0-10.0-1.69,"""event"",""trial"",""time""
""fullscreenenter"",""0"",""3916""
","
","
","""event"",""trial"",""time""
""fullscreenenter"",""0"",""3916""
","
",3041.0199999896577,<img style='border: 4px solid darkgrey;' src='img/tf1_70_M_ss3.jpeg'></img>,1,NA,exp,NA,2,<img src='img/tf1_70_T1_ss3_md.jpeg'></img>,0,FALSE,NA,sub55
NA,html-keyboard-response,153,300108,0.0-10.0-0.70,"""event"",""trial"",""time""
""fullscreenenter"",""0"",""3916""
","
","
","""event"",""trial"",""time""
""fullscreenenter"",""0"",""3916""
","
",null,"<div style=""font-size:60px;"">+</div>",NA,null,fixation,2020-06-12T20:12:11Z,NA,NA,NA,NA,NA,sub55
NA,mars-trial,154,302638,0.0-10.0-1.70,"""event"",""trial"",""time""
""fullscreenenter"",""0"",""3916""
","
","
","""event"",""trial"",""time""
""fullscreenenter"",""0"",""3916""
","
",1923.2800000027055,<img style='border: 4px solid darkgrey;' src='img/tf1_71_M_ss1.jpeg'></img>,3,NA,exp,NA,1,<img src='img/tf1_71_T1_ss1_md.jpeg'></img>,0,FALSE,NA,sub55
NA,html-keyboard-response,155,303140,0.0-10.0-0.71,"""event"",""trial"",""time""
""fullscreenenter"",""0"",""3916""
","
","
","""event"",""trial"",""time""
""fullscreenenter"",""0"",""3916""
","
",null,"<div style=""font-size:60px;"">+</div>",NA,null,fixation,2020-06-12T20:12:14Z,NA,NA,NA,NA,NA,sub55
NA,mars-trial,156,304967,0.0-10.0-1.71,"""event"",""trial"",""time""
""fullscreenenter"",""0"",""3916""
","
","
","""event"",""trial"",""time""
""fullscreenenter"",""0"",""3916""
","
",1221.495000005234,<img style='border: 4px solid darkgrey;' src='img/tf1_72_M_ss2.jpeg'></img>,2,NA,exp,NA,2,<img src='img/tf1_72_T1_ss2_md.jpeg'></img>,0,FALSE,NA,sub55
NA,html-keyboard-response,157,305469,0.0-10.0-0.72,"""event"",""trial"",""time""
""fullscreenenter"",""0"",""3916""
","
","
","""event"",""trial"",""time""
""fullscreenenter"",""0"",""3916""
","
",null,"<div style=""font-size:60px;"">+</div>",NA,null,fixation,2020-06-12T20:12:16Z,NA,NA,NA,NA,NA,sub55
NA,mars-trial,158,307544,0.0-10.0-1.72,"""event"",""trial"",""time""
""fullscreenenter"",""0"",""3916""
","
","
","""event"",""trial"",""time""
""fullscreenenter"",""0"",""3916""
","
",1470.6100000039442,<img style='border: 4px solid darkgrey;' src='img/tf1_73_M_ss3.jpeg'></img>,1,NA,exp,NA,0,<img src='img/tf1_73_T1_ss3_md.jpeg'></img>,0,TRUE,NA,sub55
NA,html-keyboard-response,159,308047,0.0-10.0-0.73,"""event"",""trial"",""time""
""fullscreenenter"",""0"",""3916""
","
","
","""event"",""trial"",""time""
""fullscreenenter"",""0"",""3916""
","
",null,"<div style=""font-size:60px;"">+</div>",NA,null,fixation,2020-06-12T20:12:19Z,NA,NA,NA,NA,NA,sub55
NA,mars-trial,160,310104,0.0-10.0-1.73,"""event"",""trial"",""time""
""fullscreenenter"",""0"",""3916""
","
","
","""event"",""trial"",""time""
""fullscreenenter"",""0"",""3916""
","
",1452.6200000109384,<img style='border: 4px solid darkgrey;' src='img/tf1_74_M_ss1.jpeg'></img>,0,NA,exp,NA,3,<img src='img/tf1_74_T1_ss1_md.jpeg'></img>,0,FALSE,NA,sub55
NA,html-keyboard-response,161,310607,0.0-10.0-0.74,"""event"",""trial"",""time""
""fullscreenenter"",""0"",""3916""
","
","
","""event"",""trial"",""time""
""fullscreenenter"",""0"",""3916""
","
",null,"<div style=""font-size:60px;"">+</div>",NA,null,fixation,2020-06-12T20:12:21Z,NA,NA,NA,NA,NA,sub55
NA,mars-trial,162,312181,0.0-10.0-1.74,"""event"",""trial"",""time""
""fullscreenenter"",""0"",""3916""
","
","
","""event"",""trial"",""time""
""fullscreenenter"",""0"",""3916""
","
",968.4950000082608,<img style='border: 4px solid darkgrey;' src='img/tf1_75_M_ss2.jpeg'></img>,0,NA,exp,NA,2,<img src='img/tf1_75_T1_ss2_md.jpeg'></img>,0,FALSE,NA,sub55
NA,html-keyboard-response,163,312683,0.0-10.0-0.75,"""event"",""trial"",""time""
""fullscreenenter"",""0"",""3916""
","
","
","""event"",""trial"",""time""
""fullscreenenter"",""0"",""3916""
","
",null,"<div style=""font-size:60px;"">+</div>",NA,null,fixation,2020-06-12T20:12:23Z,NA,NA,NA,NA,NA,sub55
NA,mars-trial,164,314468,0.0-10.0-1.75,"""event"",""trial"",""time""
""fullscreenenter"",""0"",""3916""
","
","
","""event"",""trial"",""time""
""fullscreenenter"",""0"",""3916""
","
",1179.7699999879114,<img style='border: 4px solid darkgrey;' src='img/tf1_76_M_ss3.jpeg'></img>,1,NA,exp,NA,3,<img src='img/tf1_76_T1_ss3_md.jpeg'></img>,0,FALSE,NA,sub55
NA,html-keyboard-response,165,314970,0.0-10.0-0.76,"""event"",""trial"",""time""
""fullscreenenter"",""0"",""3916""
","
","
","""event"",""trial"",""time""
""fullscreenenter"",""0"",""3916""
","
",null,"<div style=""font-size:60px;"">+</div>",NA,null,fixation,2020-06-12T20:12:26Z,NA,NA,NA,NA,NA,sub55
NA,mars-trial,166,316513,0.0-10.0-1.76,"""event"",""trial"",""time""
""fullscreenenter"",""0"",""3916""
","
","
","""event"",""trial"",""time""
""fullscreenenter"",""0"",""3916""
","
",937.9449999978533,<img style='border: 4px solid darkgrey;' src='img/tf1_77_M_ss1.jpeg'></img>,1,NA,exp,NA,1,<img src='img/tf1_77_T1_ss1_md.jpeg'></img>,0,FALSE,NA,sub55
NA,html-keyboard-response,167,317016,0.0-10.0-0.77,"""event"",""trial"",""time""
""fullscreenenter"",""0"",""3916""
","
","
","""event"",""trial"",""time""
""fullscreenenter"",""0"",""3916""
","
",null,"<div style=""font-size:60px;"">+</div>",NA,null,fixation,2020-06-12T20:12:28Z,NA,NA,NA,NA,NA,sub55
NA,mars-trial,168,318773,0.0-10.0-1.77,"""event"",""trial"",""time""
""fullscreenenter"",""0"",""3916""
","
","
","""event"",""trial"",""time""
""fullscreenenter"",""0"",""3916""
","
",1151.3299999933224,<img style='border: 4px solid darkgrey;' src='img/tf1_78_M_ss2.jpeg'></img>,1,NA,exp,NA,1,<img src='img/tf1_78_T1_ss2_md.jpeg'></img>,0,FALSE,NA,sub55
NA,html-keyboard-response,169,319275,0.0-10.0-0.78,"""event"",""trial"",""time""
""fullscreenenter"",""0"",""3916""
","
","
","""event"",""trial"",""time""
""fullscreenenter"",""0"",""3916""
","
",null,"<div style=""font-size:60px;"">+</div>",NA,null,fixation,2020-06-12T20:12:30Z,NA,NA,NA,NA,NA,sub55
NA,mars-trial,170,321047,0.0-10.0-1.78,"""event"",""trial"",""time""
""fullscreenenter"",""0"",""3916""
","
","
","""event"",""trial"",""time""
""fullscreenenter"",""0"",""3916""
","
",1167.170000000624,<img style='border: 4px solid darkgrey;' src='img/tf1_79_M_ss3.jpeg'></img>,1,NA,exp,NA,1,<img src='img/tf1_79_T1_ss3_md.jpeg'></img>,0,FALSE,NA,sub55
NA,html-keyboard-response,171,321550,0.0-10.0-0.79,"""event"",""trial"",""time""
""fullscreenenter"",""0"",""3916""
","
","
","""event"",""trial"",""time""
""fullscreenenter"",""0"",""3916""
","
",null,"<div style=""font-size:60px;"">+</div>",NA,null,fixation,2020-06-12T20:12:32Z,NA,NA,NA,NA,NA,sub55
NA,mars-trial,172,324114,0.0-10.0-1.79,"""event"",""trial"",""time""
""fullscreenenter"",""0"",""3916""
","
","
","""event"",""trial"",""time""
""fullscreenenter"",""0"",""3916""
","
",1960.2299999969546,<img style='border: 4px solid darkgrey;' src='img/tf1_80_M_ss1.jpeg'></img>,3,NA,exp,NA,1,<img src='img/tf1_80_T1_ss1_md.jpeg'></img>,0,FALSE,NA,sub55
NA,audio-button-response,173,327754,0.0-11.0,"""event"",""trial"",""time""
""fullscreenenter"",""0"",""3916""
","
","
","""event"",""trial"",""time""
""fullscreenenter"",""0"",""3916""
","
",3638.8049999950454,audio/mars_instructions_slide5.wav,0,NA,NA,NA,NA,NA,NA,NA,NA,sub55
