success,trial_type,trial_index,time_elapsed,internal_node_id,interactions,blur_events,focus_events,fullscreenenter_events,fullscreenexit_events,rt,stimulus,button_pressed,key_press,part,timestamp,unshuffled_button,correct_response,correct_button,correct,value,subject_id
TRUE,fullscreen,0,9276,0.0-0.0,"""event"",""trial"",""time""
""focus"",""0"",""0""
""fullscreenenter"",""0"",""8318""
","
","""event"",""trial"",""time""
""focus"",""0"",""0""
","""event"",""trial"",""time""
""fullscreenenter"",""0"",""8318""
","
",NA,NA,NA,NA,NA,NA,NA,NA,NA,NA,NA,sub83
NA,pavlovia,1,9283,0.0-1.0,"""event"",""trial"",""time""
""focus"",""0"",""0""
""fullscreenenter"",""0"",""8318""
","
","""event"",""trial"",""time""
""focus"",""0"",""0""
","""event"",""trial"",""time""
""fullscreenenter"",""0"",""8318""
","
",NA,NA,NA,NA,NA,NA,NA,NA,NA,NA,NA,sub83
NA,html-button-response,2,11143,0.0-2.0,"""event"",""trial"",""time""
""focus"",""0"",""0""
""fullscreenenter"",""0"",""8318""
","
","""event"",""trial"",""time""
""focus"",""0"",""0""
","""event"",""trial"",""time""
""fullscreenenter"",""0"",""8318""
","
",1857.9999999999964,<p>Welcome! Press START to begin.</p><br>,0,NA,NA,NA,NA,NA,NA,NA,NA,sub83
NA,audio-button-response,3,27959,0.0-3.0,"""event"",""trial"",""time""
""focus"",""0"",""0""
""fullscreenenter"",""0"",""8318""
","
","""event"",""trial"",""time""
""focus"",""0"",""0""
","""event"",""trial"",""time""
""fullscreenenter"",""0"",""8318""
","
",16807,audio/mars_instructions_slide2.wav,0,NA,NA,NA,NA,NA,NA,NA,NA,sub83
NA,audio-button-response,4,29996,0.0-4.0,"""event"",""trial"",""time""
""focus"",""0"",""0""
""fullscreenenter"",""0"",""8318""
","
","""event"",""trial"",""time""
""focus"",""0"",""0""
","""event"",""trial"",""time""
""fullscreenenter"",""0"",""8318""
","
",2036.0000000000073,audio/mars_instructions_slide3.wav,0,NA,NA,NA,NA,NA,NA,NA,NA,sub83
NA,html-keyboard-response,5,30498,0.0-5.0-0.0,"""event"",""trial"",""time""
""focus"",""0"",""0""
""fullscreenenter"",""0"",""8318""
","
","""event"",""trial"",""time""
""focus"",""0"",""0""
","""event"",""trial"",""time""
""fullscreenenter"",""0"",""8318""
","
",null,"<div style=""font-size:60px;"">+</div>",NA,null,fixation,2020-06-17T21:17:43Z,NA,NA,NA,NA,NA,sub83
NA,mars-trial,6,40517,0.0-5.0-1.0,"""event"",""trial"",""time""
""focus"",""0"",""0""
""fullscreenenter"",""0"",""8318""
","
","""event"",""trial"",""time""
""focus"",""0"",""0""
","""event"",""trial"",""time""
""fullscreenenter"",""0"",""8318""
","
",7913,<img style='border: 4px solid darkgrey;' src='practice/pt1_M1.png'></img>,1,NA,practice,NA,0,<img src='practice/pt1_T1.png'></img>,0,TRUE,NA,sub83
NA,html-keyboard-response,7,41018,0.0-6.0-0.0,"""event"",""trial"",""time""
""focus"",""0"",""0""
""fullscreenenter"",""0"",""8318""
","
","""event"",""trial"",""time""
""focus"",""0"",""0""
","""event"",""trial"",""time""
""fullscreenenter"",""0"",""8318""
","
",null,"<div style=""font-size:60px;"">+</div>",NA,null,fixation,2020-06-17T21:17:54Z,NA,NA,NA,NA,NA,sub83
NA,mars-trial,8,45316,0.0-6.0-1.0,"""event"",""trial"",""time""
""focus"",""0"",""0""
""fullscreenenter"",""0"",""8318""
","
","""event"",""trial"",""time""
""focus"",""0"",""0""
","""event"",""trial"",""time""
""fullscreenenter"",""0"",""8318""
","
",2195,<img style='border: 4px solid darkgrey;' src='practice/pt2_M1.png'></img>,2,NA,practice,NA,0,<img src='practice/pt2_T1.png'></img>,0,TRUE,NA,sub83
NA,html-keyboard-response,9,45818,0.0-7.0-0.0,"""event"",""trial"",""time""
""focus"",""0"",""0""
""fullscreenenter"",""0"",""8318""
","
","""event"",""trial"",""time""
""focus"",""0"",""0""
","""event"",""trial"",""time""
""fullscreenenter"",""0"",""8318""
","
",null,"<div style=""font-size:60px;"">+</div>",NA,null,fixation,2020-06-17T21:17:59Z,NA,NA,NA,NA,NA,sub83
NA,mars-trial,10,49365,0.0-7.0-1.0,"""event"",""trial"",""time""
""focus"",""0"",""0""
""fullscreenenter"",""0"",""8318""
","
","""event"",""trial"",""time""
""focus"",""0"",""0""
","""event"",""trial"",""time""
""fullscreenenter"",""0"",""8318""
","
",1443,<img style='border: 4px solid darkgrey;' src='practice/pt3_M1.png'></img>,0,NA,practice,NA,0,<img src='practice/pt3_T1.png'></img>,0,TRUE,NA,sub83
NA,audio-button-response,11,50860,0.0-8.0,"""event"",""trial"",""time""
""focus"",""0"",""0""
""fullscreenenter"",""0"",""8318""
","
","""event"",""trial"",""time""
""focus"",""0"",""0""
","""event"",""trial"",""time""
""fullscreenenter"",""0"",""8318""
","
",1493.9999999999927,audio/mars_instructions_slide4.wav,0,NA,NA,NA,NA,NA,NA,NA,NA,sub83
NA,call-function,12,50860,0.0-9.0,"""event"",""trial"",""time""
""focus"",""0"",""0""
""fullscreenenter"",""0"",""8318""
","
","""event"",""trial"",""time""
""focus"",""0"",""0""
","""event"",""trial"",""time""
""fullscreenenter"",""0"",""8318""
","
",NA,NA,NA,NA,NA,NA,NA,NA,NA,NA,NA,sub83
NA,html-keyboard-response,13,51362,0.0-10.0-0.0,"""event"",""trial"",""time""
""focus"",""0"",""0""
""fullscreenenter"",""0"",""8318""
","
","""event"",""trial"",""time""
""focus"",""0"",""0""
","""event"",""trial"",""time""
""fullscreenenter"",""0"",""8318""
","
",null,"<div style=""font-size:60px;"">+</div>",NA,null,fixation,2020-06-17T21:18:04Z,NA,NA,NA,NA,NA,sub83
NA,mars-trial,14,53565,0.0-10.0-1.0,"""event"",""trial"",""time""
""focus"",""0"",""0""
""fullscreenenter"",""0"",""8318""
","
","""event"",""trial"",""time""
""focus"",""0"",""0""
","""event"",""trial"",""time""
""fullscreenenter"",""0"",""8318""
","
",1600,<img style='border: 4px solid darkgrey;' src='img/tf1_1_M_ss3.jpeg'></img>,2,NA,exp,NA,0,<img src='img/tf1_1_T1_ss3_md.jpeg'></img>,0,TRUE,NA,sub83
NA,html-keyboard-response,15,54066,0.0-10.0-0.1,"""event"",""trial"",""time""
""focus"",""0"",""0""
""fullscreenenter"",""0"",""8318""
","
","""event"",""trial"",""time""
""focus"",""0"",""0""
","""event"",""trial"",""time""
""fullscreenenter"",""0"",""8318""
","
",null,"<div style=""font-size:60px;"">+</div>",NA,null,fixation,2020-06-17T21:18:07Z,NA,NA,NA,NA,NA,sub83
NA,mars-trial,16,56869,0.0-10.0-1.1,"""event"",""trial"",""time""
""focus"",""0"",""0""
""fullscreenenter"",""0"",""8318""
","
","""event"",""trial"",""time""
""focus"",""0"",""0""
","""event"",""trial"",""time""
""fullscreenenter"",""0"",""8318""
","
",2199,<img style='border: 4px solid darkgrey;' src='img/tf1_2_M_ss1.jpeg'></img>,2,NA,exp,NA,0,<img src='img/tf1_2_T1_ss1_md.jpeg'></img>,0,TRUE,NA,sub83
NA,html-keyboard-response,17,57371,0.0-10.0-0.2,"""event"",""trial"",""time""
""focus"",""0"",""0""
""fullscreenenter"",""0"",""8318""
","
","""event"",""trial"",""time""
""focus"",""0"",""0""
","""event"",""trial"",""time""
""fullscreenenter"",""0"",""8318""
","
",null,"<div style=""font-size:60px;"">+</div>",NA,null,fixation,2020-06-17T21:18:10Z,NA,NA,NA,NA,NA,sub83
NA,mars-trial,18,60367,0.0-10.0-1.2,"""event"",""trial"",""time""
""focus"",""0"",""0""
""fullscreenenter"",""0"",""8318""
","
","""event"",""trial"",""time""
""focus"",""0"",""0""
","""event"",""trial"",""time""
""fullscreenenter"",""0"",""8318""
","
",2392,<img style='border: 4px solid darkgrey;' src='img/tf1_3_M_ss2.jpeg'></img>,3,NA,exp,NA,0,<img src='img/tf1_3_T1_ss2_md.jpeg'></img>,0,TRUE,NA,sub83
NA,html-keyboard-response,19,60869,0.0-10.0-0.3,"""event"",""trial"",""time""
""focus"",""0"",""0""
""fullscreenenter"",""0"",""8318""
","
","""event"",""trial"",""time""
""focus"",""0"",""0""
","""event"",""trial"",""time""
""fullscreenenter"",""0"",""8318""
","
",null,"<div style=""font-size:60px;"">+</div>",NA,null,fixation,2020-06-17T21:18:14Z,NA,NA,NA,NA,NA,sub83
NA,mars-trial,20,65938,0.0-10.0-1.3,"""event"",""trial"",""time""
""focus"",""0"",""0""
""fullscreenenter"",""0"",""8318""
","
","""event"",""trial"",""time""
""focus"",""0"",""0""
","""event"",""trial"",""time""
""fullscreenenter"",""0"",""8318""
","
",4465.999999999985,<img style='border: 4px solid darkgrey;' src='img/tf1_4_M_ss3.jpeg'></img>,2,NA,exp,NA,0,<img src='img/tf1_4_T1_ss3_md.jpeg'></img>,0,TRUE,NA,sub83
NA,html-keyboard-response,21,66439,0.0-10.0-0.4,"""event"",""trial"",""time""
""focus"",""0"",""0""
""fullscreenenter"",""0"",""8318""
","
","""event"",""trial"",""time""
""focus"",""0"",""0""
","""event"",""trial"",""time""
""fullscreenenter"",""0"",""8318""
","
",null,"<div style=""font-size:60px;"">+</div>",NA,null,fixation,2020-06-17T21:18:19Z,NA,NA,NA,NA,NA,sub83
NA,mars-trial,22,69345,0.0-10.0-1.4,"""event"",""trial"",""time""
""focus"",""0"",""0""
""fullscreenenter"",""0"",""8318""
","
","""event"",""trial"",""time""
""focus"",""0"",""0""
","""event"",""trial"",""time""
""fullscreenenter"",""0"",""8318""
","
",2301,<img style='border: 4px solid darkgrey;' src='img/tf1_5_M_ss1.jpeg'></img>,3,NA,exp,NA,0,<img src='img/tf1_5_T1_ss1_md.jpeg'></img>,0,TRUE,NA,sub83
NA,html-keyboard-response,23,69846,0.0-10.0-0.5,"""event"",""trial"",""time""
""focus"",""0"",""0""
""fullscreenenter"",""0"",""8318""
","
","""event"",""trial"",""time""
""focus"",""0"",""0""
","""event"",""trial"",""time""
""fullscreenenter"",""0"",""8318""
","
",null,"<div style=""font-size:60px;"">+</div>",NA,null,fixation,2020-06-17T21:18:23Z,NA,NA,NA,NA,NA,sub83
NA,mars-trial,24,83814,0.0-10.0-1.5,"""event"",""trial"",""time""
""focus"",""0"",""0""
""fullscreenenter"",""0"",""8318""
","
","""event"",""trial"",""time""
""focus"",""0"",""0""
","""event"",""trial"",""time""
""fullscreenenter"",""0"",""8318""
","
",13365,<img style='border: 4px solid darkgrey;' src='img/tf1_6_M_ss2.jpeg'></img>,1,NA,exp,NA,0,<img src='img/tf1_6_T1_ss2_md.jpeg'></img>,0,TRUE,NA,sub83
NA,html-keyboard-response,25,84315,0.0-10.0-0.6,"""event"",""trial"",""time""
""focus"",""0"",""0""
""fullscreenenter"",""0"",""8318""
","
","""event"",""trial"",""time""
""focus"",""0"",""0""
","""event"",""trial"",""time""
""fullscreenenter"",""0"",""8318""
","
",null,"<div style=""font-size:60px;"">+</div>",NA,null,fixation,2020-06-17T21:18:37Z,NA,NA,NA,NA,NA,sub83
NA,mars-trial,26,88337,0.0-10.0-1.6,"""event"",""trial"",""time""
""focus"",""0"",""0""
""fullscreenenter"",""0"",""8318""
","
","""event"",""trial"",""time""
""focus"",""0"",""0""
","""event"",""trial"",""time""
""fullscreenenter"",""0"",""8318""
","
",3418,<img style='border: 4px solid darkgrey;' src='img/tf1_7_M_ss3.jpeg'></img>,1,NA,exp,NA,0,<img src='img/tf1_7_T1_ss3_md.jpeg'></img>,0,TRUE,NA,sub83
NA,html-keyboard-response,27,88838,0.0-10.0-0.7,"""event"",""trial"",""time""
""focus"",""0"",""0""
""fullscreenenter"",""0"",""8318""
","
","""event"",""trial"",""time""
""focus"",""0"",""0""
","""event"",""trial"",""time""
""fullscreenenter"",""0"",""8318""
","
",null,"<div style=""font-size:60px;"">+</div>",NA,null,fixation,2020-06-17T21:18:42Z,NA,NA,NA,NA,NA,sub83
NA,mars-trial,28,93758,0.0-10.0-1.7,"""event"",""trial"",""time""
""focus"",""0"",""0""
""fullscreenenter"",""0"",""8318""
","
","""event"",""trial"",""time""
""focus"",""0"",""0""
","""event"",""trial"",""time""
""fullscreenenter"",""0"",""8318""
","
",4316,<img style='border: 4px solid darkgrey;' src='img/tf1_8_M_ss1.jpeg'></img>,0,NA,exp,NA,2,<img src='img/tf1_8_T1_ss1_md.jpeg'></img>,0,FALSE,NA,sub83
NA,html-keyboard-response,29,94260,0.0-10.0-0.8,"""event"",""trial"",""time""
""focus"",""0"",""0""
""fullscreenenter"",""0"",""8318""
","
","""event"",""trial"",""time""
""focus"",""0"",""0""
","""event"",""trial"",""time""
""fullscreenenter"",""0"",""8318""
","
",null,"<div style=""font-size:60px;"">+</div>",NA,null,fixation,2020-06-17T21:18:47Z,NA,NA,NA,NA,NA,sub83
NA,mars-trial,30,100091,0.0-10.0-1.8,"""event"",""trial"",""time""
""focus"",""0"",""0""
""fullscreenenter"",""0"",""8318""
","
","""event"",""trial"",""time""
""focus"",""0"",""0""
","""event"",""trial"",""time""
""fullscreenenter"",""0"",""8318""
","
",5226.999999999985,<img style='border: 4px solid darkgrey;' src='img/tf1_9_M_ss2.jpeg'></img>,3,NA,exp,NA,0,<img src='img/tf1_9_T1_ss2_md.jpeg'></img>,0,TRUE,NA,sub83
NA,html-keyboard-response,31,100592,0.0-10.0-0.9,"""event"",""trial"",""time""
""focus"",""0"",""0""
""fullscreenenter"",""0"",""8318""
","
","""event"",""trial"",""time""
""focus"",""0"",""0""
","""event"",""trial"",""time""
""fullscreenenter"",""0"",""8318""
","
",null,"<div style=""font-size:60px;"">+</div>",NA,null,fixation,2020-06-17T21:18:54Z,NA,NA,NA,NA,NA,sub83
NA,mars-trial,32,117346,0.0-10.0-1.9,"""event"",""trial"",""time""
""focus"",""0"",""0""
""fullscreenenter"",""0"",""8318""
","
","""event"",""trial"",""time""
""focus"",""0"",""0""
","""event"",""trial"",""time""
""fullscreenenter"",""0"",""8318""
","
",16150.000000000015,<img style='border: 4px solid darkgrey;' src='img/tf1_10_M_ss3.jpeg'></img>,0,NA,exp,NA,1,<img src='img/tf1_10_T1_ss3_md.jpeg'></img>,0,FALSE,NA,sub83
NA,html-keyboard-response,33,117847,0.0-10.0-0.10,"""event"",""trial"",""time""
""focus"",""0"",""0""
""fullscreenenter"",""0"",""8318""
","
","""event"",""trial"",""time""
""focus"",""0"",""0""
","""event"",""trial"",""time""
""fullscreenenter"",""0"",""8318""
","
",null,"<div style=""font-size:60px;"">+</div>",NA,null,fixation,2020-06-17T21:19:11Z,NA,NA,NA,NA,NA,sub83
NA,mars-trial,34,123437,0.0-10.0-1.10,"""event"",""trial"",""time""
""focus"",""0"",""0""
""fullscreenenter"",""0"",""8318""
","
","""event"",""trial"",""time""
""focus"",""0"",""0""
","""event"",""trial"",""time""
""fullscreenenter"",""0"",""8318""
","
",4985,<img style='border: 4px solid darkgrey;' src='img/tf1_11_M_ss1.jpeg'></img>,1,NA,exp,NA,2,<img src='img/tf1_11_T1_ss1_md.jpeg'></img>,0,FALSE,NA,sub83
NA,html-keyboard-response,35,123938,0.0-10.0-0.11,"""event"",""trial"",""time""
""focus"",""0"",""0""
""fullscreenenter"",""0"",""8318""
","
","""event"",""trial"",""time""
""focus"",""0"",""0""
","""event"",""trial"",""time""
""fullscreenenter"",""0"",""8318""
","
",null,"<div style=""font-size:60px;"">+</div>",NA,null,fixation,2020-06-17T21:19:17Z,NA,NA,NA,NA,NA,sub83
NA,mars-trial,36,135733,0.0-10.0-1.11,"""event"",""trial"",""time""
""focus"",""0"",""0""
""fullscreenenter"",""0"",""8318""
","
","""event"",""trial"",""time""
""focus"",""0"",""0""
","""event"",""trial"",""time""
""fullscreenenter"",""0"",""8318""
","
",11190,<img style='border: 4px solid darkgrey;' src='img/tf1_12_M_ss2.jpeg'></img>,0,NA,exp,NA,2,<img src='img/tf1_12_T1_ss2_md.jpeg'></img>,0,FALSE,NA,sub83
NA,html-keyboard-response,37,136234,0.0-10.0-0.12,"""event"",""trial"",""time""
""focus"",""0"",""0""
""fullscreenenter"",""0"",""8318""
","
","""event"",""trial"",""time""
""focus"",""0"",""0""
","""event"",""trial"",""time""
""fullscreenenter"",""0"",""8318""
","
",null,"<div style=""font-size:60px;"">+</div>",NA,null,fixation,2020-06-17T21:19:29Z,NA,NA,NA,NA,NA,sub83
NA,mars-trial,38,150911,0.0-10.0-1.12,"""event"",""trial"",""time""
""focus"",""0"",""0""
""fullscreenenter"",""0"",""8318""
","
","""event"",""trial"",""time""
""focus"",""0"",""0""
","""event"",""trial"",""time""
""fullscreenenter"",""0"",""8318""
","
",14072,<img style='border: 4px solid darkgrey;' src='img/tf1_13_M_ss3.jpeg'></img>,2,NA,exp,NA,1,<img src='img/tf1_13_T1_ss3_md.jpeg'></img>,0,FALSE,NA,sub83
NA,html-keyboard-response,39,151413,0.0-10.0-0.13,"""event"",""trial"",""time""
""focus"",""0"",""0""
""fullscreenenter"",""0"",""8318""
","
","""event"",""trial"",""time""
""focus"",""0"",""0""
","""event"",""trial"",""time""
""fullscreenenter"",""0"",""8318""
","
",null,"<div style=""font-size:60px;"">+</div>",NA,null,fixation,2020-06-17T21:19:44Z,NA,NA,NA,NA,NA,sub83
NA,mars-trial,40,170113,0.0-10.0-1.13,"""event"",""trial"",""time""
""focus"",""0"",""0""
""fullscreenenter"",""0"",""8318""
","
","""event"",""trial"",""time""
""focus"",""0"",""0""
","""event"",""trial"",""time""
""fullscreenenter"",""0"",""8318""
","
",18094.00000000003,<img style='border: 4px solid darkgrey;' src='img/tf1_14_M_ss1.jpeg'></img>,0,NA,exp,NA,3,<img src='img/tf1_14_T1_ss1_md.jpeg'></img>,0,FALSE,NA,sub83
NA,html-keyboard-response,41,170614,0.0-10.0-0.14,"""event"",""trial"",""time""
""focus"",""0"",""0""
""fullscreenenter"",""0"",""8318""
","
","""event"",""trial"",""time""
""focus"",""0"",""0""
","""event"",""trial"",""time""
""fullscreenenter"",""0"",""8318""
","
",null,"<div style=""font-size:60px;"">+</div>",NA,null,fixation,2020-06-17T21:20:04Z,NA,NA,NA,NA,NA,sub83
NA,mars-trial,42,179585,0.0-10.0-1.14,"""event"",""trial"",""time""
""focus"",""0"",""0""
""fullscreenenter"",""0"",""8318""
","
","""event"",""trial"",""time""
""focus"",""0"",""0""
","""event"",""trial"",""time""
""fullscreenenter"",""0"",""8318""
","
",8368,<img style='border: 4px solid darkgrey;' src='img/tf1_15_M_ss2.jpeg'></img>,2,NA,exp,NA,0,<img src='img/tf1_15_T1_ss2_md.jpeg'></img>,0,TRUE,NA,sub83
NA,html-keyboard-response,43,180086,0.0-10.0-0.15,"""event"",""trial"",""time""
""focus"",""0"",""0""
""fullscreenenter"",""0"",""8318""
","
","""event"",""trial"",""time""
""focus"",""0"",""0""
","""event"",""trial"",""time""
""fullscreenenter"",""0"",""8318""
","
",null,"<div style=""font-size:60px;"">+</div>",NA,null,fixation,2020-06-17T21:20:13Z,NA,NA,NA,NA,NA,sub83
NA,mars-trial,44,183952,0.0-10.0-1.15,"""event"",""trial"",""time""
""focus"",""0"",""0""
""fullscreenenter"",""0"",""8318""
","
","""event"",""trial"",""time""
""focus"",""0"",""0""
","""event"",""trial"",""time""
""fullscreenenter"",""0"",""8318""
","
",3264,<img style='border: 4px solid darkgrey;' src='img/tf1_16_M_ss3.jpeg'></img>,2,NA,exp,NA,1,<img src='img/tf1_16_T1_ss3_md.jpeg'></img>,0,FALSE,NA,sub83
NA,html-keyboard-response,45,184455,0.0-10.0-0.16,"""event"",""trial"",""time""
""focus"",""0"",""0""
""fullscreenenter"",""0"",""8318""
","
","""event"",""trial"",""time""
""focus"",""0"",""0""
","""event"",""trial"",""time""
""fullscreenenter"",""0"",""8318""
","
",null,"<div style=""font-size:60px;"">+</div>",NA,null,fixation,2020-06-17T21:20:17Z,NA,NA,NA,NA,NA,sub83
NA,mars-trial,46,195350,0.0-10.0-1.16,"""event"",""trial"",""time""
""focus"",""0"",""0""
""fullscreenenter"",""0"",""8318""
","
","""event"",""trial"",""time""
""focus"",""0"",""0""
","""event"",""trial"",""time""
""fullscreenenter"",""0"",""8318""
","
",10292,<img style='border: 4px solid darkgrey;' src='img/tf1_17_M_ss1.jpeg'></img>,3,NA,exp,NA,0,<img src='img/tf1_17_T1_ss1_md.jpeg'></img>,0,TRUE,NA,sub83
NA,html-keyboard-response,47,195852,0.0-10.0-0.17,"""event"",""trial"",""time""
""focus"",""0"",""0""
""fullscreenenter"",""0"",""8318""
","
","""event"",""trial"",""time""
""focus"",""0"",""0""
","""event"",""trial"",""time""
""fullscreenenter"",""0"",""8318""
","
",null,"<div style=""font-size:60px;"">+</div>",NA,null,fixation,2020-06-17T21:20:29Z,NA,NA,NA,NA,NA,sub83
NA,mars-trial,48,218232,0.0-10.0-1.17,"""event"",""trial"",""time""
""focus"",""0"",""0""
""fullscreenenter"",""0"",""8318""
","
","""event"",""trial"",""time""
""focus"",""0"",""0""
","""event"",""trial"",""time""
""fullscreenenter"",""0"",""8318""
","
",21775,<img style='border: 4px solid darkgrey;' src='img/tf1_18_M_ss2.jpeg'></img>,3,NA,exp,NA,3,<img src='img/tf1_18_T1_ss2_md.jpeg'></img>,0,FALSE,NA,sub83
NA,html-keyboard-response,49,218733,0.0-10.0-0.18,"""event"",""trial"",""time""
""focus"",""0"",""0""
""fullscreenenter"",""0"",""8318""
","
","""event"",""trial"",""time""
""focus"",""0"",""0""
","""event"",""trial"",""time""
""fullscreenenter"",""0"",""8318""
","
",null,"<div style=""font-size:60px;"">+</div>",NA,null,fixation,2020-06-17T21:20:52Z,NA,NA,NA,NA,NA,sub83
NA,mars-trial,50,230453,0.0-10.0-1.18,"""event"",""trial"",""time""
""focus"",""0"",""0""
""fullscreenenter"",""0"",""8318""
","
","""event"",""trial"",""time""
""focus"",""0"",""0""
","""event"",""trial"",""time""
""fullscreenenter"",""0"",""8318""
","
",11115.00000000003,<img style='border: 4px solid darkgrey;' src='img/tf1_19_M_ss3.jpeg'></img>,3,NA,exp,NA,0,<img src='img/tf1_19_T1_ss3_md.jpeg'></img>,0,TRUE,NA,sub83
NA,html-keyboard-response,51,230955,0.0-10.0-0.19,"""event"",""trial"",""time""
""focus"",""0"",""0""
""fullscreenenter"",""0"",""8318""
","
","""event"",""trial"",""time""
""focus"",""0"",""0""
","""event"",""trial"",""time""
""fullscreenenter"",""0"",""8318""
","
",null,"<div style=""font-size:60px;"">+</div>",NA,null,fixation,2020-06-17T21:21:04Z,NA,NA,NA,NA,NA,sub83
NA,mars-trial,52,243422,0.0-10.0-1.19,"""event"",""trial"",""time""
""focus"",""0"",""0""
""fullscreenenter"",""0"",""8318""
","
","""event"",""trial"",""time""
""focus"",""0"",""0""
","""event"",""trial"",""time""
""fullscreenenter"",""0"",""8318""
","
",11863,<img style='border: 4px solid darkgrey;' src='img/tf1_20_M_ss1.jpeg'></img>,2,NA,exp,NA,0,<img src='img/tf1_20_T1_ss1_md.jpeg'></img>,0,TRUE,NA,sub83
NA,html-keyboard-response,53,243923,0.0-10.0-0.20,"""event"",""trial"",""time""
""focus"",""0"",""0""
""fullscreenenter"",""0"",""8318""
","
","""event"",""trial"",""time""
""focus"",""0"",""0""
","""event"",""trial"",""time""
""fullscreenenter"",""0"",""8318""
","
",null,"<div style=""font-size:60px;"">+</div>",NA,null,fixation,2020-06-17T21:21:17Z,NA,NA,NA,NA,NA,sub83
NA,mars-trial,54,257445,0.0-10.0-1.20,"""event"",""trial"",""time""
""focus"",""0"",""0""
""fullscreenenter"",""0"",""8318""
","
","""event"",""trial"",""time""
""focus"",""0"",""0""
","""event"",""trial"",""time""
""fullscreenenter"",""0"",""8318""
","
",12918,<img style='border: 4px solid darkgrey;' src='img/tf1_21_M_ss2.jpeg'></img>,0,NA,exp,NA,0,<img src='img/tf1_21_T1_ss2_md.jpeg'></img>,0,TRUE,NA,sub83
NA,html-keyboard-response,55,257947,0.0-10.0-0.21,"""event"",""trial"",""time""
""focus"",""0"",""0""
""fullscreenenter"",""0"",""8318""
","
","""event"",""trial"",""time""
""focus"",""0"",""0""
","""event"",""trial"",""time""
""fullscreenenter"",""0"",""8318""
","
",null,"<div style=""font-size:60px;"">+</div>",NA,null,fixation,2020-06-17T21:21:31Z,NA,NA,NA,NA,NA,sub83
NA,mars-trial,56,263558,0.0-10.0-1.21,"""event"",""trial"",""time""
""focus"",""0"",""0""
""fullscreenenter"",""0"",""8318""
","
","""event"",""trial"",""time""
""focus"",""0"",""0""
","""event"",""trial"",""time""
""fullscreenenter"",""0"",""8318""
","
",5007,<img style='border: 4px solid darkgrey;' src='img/tf1_22_M_ss3.jpeg'></img>,0,NA,exp,NA,3,<img src='img/tf1_22_T1_ss3_md.jpeg'></img>,0,FALSE,NA,sub83
NA,html-keyboard-response,57,264060,0.0-10.0-0.22,"""event"",""trial"",""time""
""focus"",""0"",""0""
""fullscreenenter"",""0"",""8318""
","
","""event"",""trial"",""time""
""focus"",""0"",""0""
","""event"",""trial"",""time""
""fullscreenenter"",""0"",""8318""
","
",null,"<div style=""font-size:60px;"">+</div>",NA,null,fixation,2020-06-17T21:21:37Z,NA,NA,NA,NA,NA,sub83
NA,mars-trial,58,275139,0.0-10.0-1.22,"""event"",""trial"",""time""
""focus"",""0"",""0""
""fullscreenenter"",""0"",""8318""
","
","""event"",""trial"",""time""
""focus"",""0"",""0""
","""event"",""trial"",""time""
""fullscreenenter"",""0"",""8318""
","
",10475,<img style='border: 4px solid darkgrey;' src='img/tf1_23_M_ss1.jpeg'></img>,3,NA,exp,NA,3,<img src='img/tf1_23_T1_ss1_md.jpeg'></img>,0,FALSE,NA,sub83
NA,html-keyboard-response,59,275641,0.0-10.0-0.23,"""event"",""trial"",""time""
""focus"",""0"",""0""
""fullscreenenter"",""0"",""8318""
","
","""event"",""trial"",""time""
""focus"",""0"",""0""
","""event"",""trial"",""time""
""fullscreenenter"",""0"",""8318""
","
",null,"<div style=""font-size:60px;"">+</div>",NA,null,fixation,2020-06-17T21:21:49Z,NA,NA,NA,NA,NA,sub83
NA,mars-trial,60,291322,0.0-10.0-1.23,"""event"",""trial"",""time""
""focus"",""0"",""0""
""fullscreenenter"",""0"",""8318""
","
","""event"",""trial"",""time""
""focus"",""0"",""0""
","""event"",""trial"",""time""
""fullscreenenter"",""0"",""8318""
","
",15076,<img style='border: 4px solid darkgrey;' src='img/tf1_24_M_ss2.jpeg'></img>,0,NA,exp,NA,1,<img src='img/tf1_24_T1_ss2_md.jpeg'></img>,0,FALSE,NA,sub83
NA,html-keyboard-response,61,291823,0.0-10.0-0.24,"""event"",""trial"",""time""
""focus"",""0"",""0""
""fullscreenenter"",""0"",""8318""
","
","""event"",""trial"",""time""
""focus"",""0"",""0""
","""event"",""trial"",""time""
""fullscreenenter"",""0"",""8318""
","
",null,"<div style=""font-size:60px;"">+</div>",NA,null,fixation,2020-06-17T21:22:05Z,NA,NA,NA,NA,NA,sub83
NA,mars-trial,62,298058,0.0-10.0-1.24,"""event"",""trial"",""time""
""focus"",""0"",""0""
""fullscreenenter"",""0"",""8318""
","
","""event"",""trial"",""time""
""focus"",""0"",""0""
","""event"",""trial"",""time""
""fullscreenenter"",""0"",""8318""
","
",5631,<img style='border: 4px solid darkgrey;' src='img/tf1_25_M_ss3.jpeg'></img>,3,NA,exp,NA,0,<img src='img/tf1_25_T1_ss3_md.jpeg'></img>,0,TRUE,NA,sub83
NA,html-keyboard-response,63,298559,0.0-10.0-0.25,"""event"",""trial"",""time""
""focus"",""0"",""0""
""fullscreenenter"",""0"",""8318""
","
","""event"",""trial"",""time""
""focus"",""0"",""0""
","""event"",""trial"",""time""
""fullscreenenter"",""0"",""8318""
","
",null,"<div style=""font-size:60px;"">+</div>",NA,null,fixation,2020-06-17T21:22:11Z,NA,NA,NA,NA,NA,sub83
NA,mars-trial,64,302500,0.0-10.0-1.25,"""event"",""trial"",""time""
""focus"",""0"",""0""
""fullscreenenter"",""0"",""8318""
","
","""event"",""trial"",""time""
""focus"",""0"",""0""
","""event"",""trial"",""time""
""fullscreenenter"",""0"",""8318""
","
",3335,<img style='border: 4px solid darkgrey;' src='img/tf1_26_M_ss1.jpeg'></img>,3,NA,exp,NA,2,<img src='img/tf1_26_T1_ss1_md.jpeg'></img>,0,FALSE,NA,sub83
NA,html-keyboard-response,65,303002,0.0-10.0-0.26,"""event"",""trial"",""time""
""focus"",""0"",""0""
""fullscreenenter"",""0"",""8318""
","
","""event"",""trial"",""time""
""focus"",""0"",""0""
","""event"",""trial"",""time""
""fullscreenenter"",""0"",""8318""
","
",null,"<div style=""font-size:60px;"">+</div>",NA,null,fixation,2020-06-17T21:22:16Z,NA,NA,NA,NA,NA,sub83
NA,mars-trial,66,304797,0.0-10.0-1.26,"""event"",""trial"",""time""
""focus"",""0"",""0""
""fullscreenenter"",""0"",""8318""
","
","""event"",""trial"",""time""
""focus"",""0"",""0""
","""event"",""trial"",""time""
""fullscreenenter"",""0"",""8318""
","
",1192.0000000000582,<img style='border: 4px solid darkgrey;' src='img/tf1_27_M_ss2.jpeg'></img>,2,NA,exp,NA,0,<img src='img/tf1_27_T1_ss2_md.jpeg'></img>,0,TRUE,NA,sub83
NA,html-keyboard-response,67,305298,0.0-10.0-0.27,"""event"",""trial"",""time""
""focus"",""0"",""0""
""fullscreenenter"",""0"",""8318""
","
","""event"",""trial"",""time""
""focus"",""0"",""0""
","""event"",""trial"",""time""
""fullscreenenter"",""0"",""8318""
","
",null,"<div style=""font-size:60px;"">+</div>",NA,null,fixation,2020-06-17T21:22:18Z,NA,NA,NA,NA,NA,sub83
NA,mars-trial,68,307471,0.0-10.0-1.27,"""event"",""trial"",""time""
""focus"",""0"",""0""
""fullscreenenter"",""0"",""8318""
","
","""event"",""trial"",""time""
""focus"",""0"",""0""
","""event"",""trial"",""time""
""fullscreenenter"",""0"",""8318""
","
",1568,<img style='border: 4px solid darkgrey;' src='img/tf1_28_M_ss3.jpeg'></img>,3,NA,exp,NA,0,<img src='img/tf1_28_T1_ss3_md.jpeg'></img>,0,TRUE,NA,sub83
NA,html-keyboard-response,69,307973,0.0-10.0-0.28,"""event"",""trial"",""time""
""focus"",""0"",""0""
""fullscreenenter"",""0"",""8318""
","
","""event"",""trial"",""time""
""focus"",""0"",""0""
","""event"",""trial"",""time""
""fullscreenenter"",""0"",""8318""
","
",null,"<div style=""font-size:60px;"">+</div>",NA,null,fixation,2020-06-17T21:22:21Z,NA,NA,NA,NA,NA,sub83
NA,mars-trial,70,309557,0.0-10.0-1.28,"""event"",""trial"",""time""
""focus"",""0"",""0""
""fullscreenenter"",""0"",""8318""
","
","""event"",""trial"",""time""
""focus"",""0"",""0""
","""event"",""trial"",""time""
""fullscreenenter"",""0"",""8318""
","
",981,<img style='border: 4px solid darkgrey;' src='img/tf1_29_M_ss1.jpeg'></img>,2,NA,exp,NA,1,<img src='img/tf1_29_T1_ss1_md.jpeg'></img>,0,FALSE,NA,sub83
NA,html-keyboard-response,71,310058,0.0-10.0-0.29,"""event"",""trial"",""time""
""focus"",""0"",""0""
""fullscreenenter"",""0"",""8318""
","
","""event"",""trial"",""time""
""focus"",""0"",""0""
","""event"",""trial"",""time""
""fullscreenenter"",""0"",""8318""
","
",null,"<div style=""font-size:60px;"">+</div>",NA,null,fixation,2020-06-17T21:22:23Z,NA,NA,NA,NA,NA,sub83
NA,mars-trial,72,311433,0.0-10.0-1.29,"""event"",""trial"",""time""
""focus"",""0"",""0""
""fullscreenenter"",""0"",""8318""
","
","""event"",""trial"",""time""
""focus"",""0"",""0""
","""event"",""trial"",""time""
""fullscreenenter"",""0"",""8318""
","
",770.9999999999418,<img style='border: 4px solid darkgrey;' src='img/tf1_30_M_ss2.jpeg'></img>,1,NA,exp,NA,0,<img src='img/tf1_30_T1_ss2_md.jpeg'></img>,0,TRUE,NA,sub83
NA,html-keyboard-response,73,311934,0.0-10.0-0.30,"""event"",""trial"",""time""
""focus"",""0"",""0""
""fullscreenenter"",""0"",""8318""
","
","""event"",""trial"",""time""
""focus"",""0"",""0""
","""event"",""trial"",""time""
""fullscreenenter"",""0"",""8318""
","
",null,"<div style=""font-size:60px;"">+</div>",NA,null,fixation,2020-06-17T21:22:25Z,NA,NA,NA,NA,NA,sub83
NA,mars-trial,74,313330,0.0-10.0-1.30,"""event"",""trial"",""time""
""focus"",""0"",""0""
""fullscreenenter"",""0"",""8318""
","
","""event"",""trial"",""time""
""focus"",""0"",""0""
","""event"",""trial"",""time""
""fullscreenenter"",""0"",""8318""
","
",793,<img style='border: 4px solid darkgrey;' src='img/tf1_31_M_ss3.jpeg'></img>,0,NA,exp,NA,3,<img src='img/tf1_31_T1_ss3_md.jpeg'></img>,0,FALSE,NA,sub83
NA,html-keyboard-response,75,313832,0.0-10.0-0.31,"""event"",""trial"",""time""
""focus"",""0"",""0""
""fullscreenenter"",""0"",""8318""
","
","""event"",""trial"",""time""
""focus"",""0"",""0""
","""event"",""trial"",""time""
""fullscreenenter"",""0"",""8318""
","
",null,"<div style=""font-size:60px;"">+</div>",NA,null,fixation,2020-06-17T21:22:27Z,NA,NA,NA,NA,NA,sub83
NA,mars-trial,76,315459,0.0-10.0-1.31,"""event"",""trial"",""time""
""focus"",""0"",""0""
""fullscreenenter"",""0"",""8318""
","
","""event"",""trial"",""time""
""focus"",""0"",""0""
","""event"",""trial"",""time""
""fullscreenenter"",""0"",""8318""
","
",1024,<img style='border: 4px solid darkgrey;' src='img/tf1_32_M_ss1.jpeg'></img>,2,NA,exp,NA,0,<img src='img/tf1_32_T1_ss1_md.jpeg'></img>,0,TRUE,NA,sub83
NA,html-keyboard-response,77,315960,0.0-10.0-0.32,"""event"",""trial"",""time""
""focus"",""0"",""0""
""fullscreenenter"",""0"",""8318""
","
","""event"",""trial"",""time""
""focus"",""0"",""0""
","""event"",""trial"",""time""
""fullscreenenter"",""0"",""8318""
","
",null,"<div style=""font-size:60px;"">+</div>",NA,null,fixation,2020-06-17T21:22:29Z,NA,NA,NA,NA,NA,sub83
NA,mars-trial,78,317156,0.0-10.0-1.32,"""event"",""trial"",""time""
""focus"",""0"",""0""
""fullscreenenter"",""0"",""8318""
","
","""event"",""trial"",""time""
""focus"",""0"",""0""
","""event"",""trial"",""time""
""fullscreenenter"",""0"",""8318""
","
",592,<img style='border: 4px solid darkgrey;' src='img/tf1_33_M_ss2.jpeg'></img>,1,NA,exp,NA,0,<img src='img/tf1_33_T1_ss2_md.jpeg'></img>,0,TRUE,NA,sub83
NA,html-keyboard-response,79,317657,0.0-10.0-0.33,"""event"",""trial"",""time""
""focus"",""0"",""0""
""fullscreenenter"",""0"",""8318""
","
","""event"",""trial"",""time""
""focus"",""0"",""0""
","""event"",""trial"",""time""
""fullscreenenter"",""0"",""8318""
","
",null,"<div style=""font-size:60px;"">+</div>",NA,null,fixation,2020-06-17T21:22:31Z,NA,NA,NA,NA,NA,sub83
NA,mars-trial,80,318763,0.0-10.0-1.33,"""event"",""trial"",""time""
""focus"",""0"",""0""
""fullscreenenter"",""0"",""8318""
","
","""event"",""trial"",""time""
""focus"",""0"",""0""
","""event"",""trial"",""time""
""fullscreenenter"",""0"",""8318""
","
",502,<img style='border: 4px solid darkgrey;' src='img/tf1_34_M_ss3.jpeg'></img>,2,NA,exp,NA,0,<img src='img/tf1_34_T1_ss3_md.jpeg'></img>,0,TRUE,NA,sub83
NA,html-keyboard-response,81,319264,0.0-10.0-0.34,"""event"",""trial"",""time""
""focus"",""0"",""0""
""fullscreenenter"",""0"",""8318""
","
","""event"",""trial"",""time""
""focus"",""0"",""0""
","""event"",""trial"",""time""
""fullscreenenter"",""0"",""8318""
","
",null,"<div style=""font-size:60px;"">+</div>",NA,null,fixation,2020-06-17T21:22:32Z,NA,NA,NA,NA,NA,sub83
NA,mars-trial,82,321582,0.0-10.0-1.34,"""event"",""trial"",""time""
""focus"",""0"",""0""
""fullscreenenter"",""0"",""8318""
","
","""event"",""trial"",""time""
""focus"",""0"",""0""
","""event"",""trial"",""time""
""fullscreenenter"",""0"",""8318""
","
",1715,<img style='border: 4px solid darkgrey;' src='img/tf1_35_M_ss1.jpeg'></img>,1,NA,exp,NA,3,<img src='img/tf1_35_T1_ss1_md.jpeg'></img>,0,FALSE,NA,sub83
NA,html-keyboard-response,83,322084,0.0-10.0-0.35,"""event"",""trial"",""time""
""focus"",""0"",""0""
""fullscreenenter"",""0"",""8318""
","
","""event"",""trial"",""time""
""focus"",""0"",""0""
","""event"",""trial"",""time""
""fullscreenenter"",""0"",""8318""
","
",null,"<div style=""font-size:60px;"">+</div>",NA,null,fixation,2020-06-17T21:22:35Z,NA,NA,NA,NA,NA,sub83
NA,mars-trial,84,323173,0.0-10.0-1.35,"""event"",""trial"",""time""
""focus"",""0"",""0""
""fullscreenenter"",""0"",""8318""
","
","""event"",""trial"",""time""
""focus"",""0"",""0""
","""event"",""trial"",""time""
""fullscreenenter"",""0"",""8318""
","
",487.0000000000582,<img style='border: 4px solid darkgrey;' src='img/tf1_36_M_ss2.jpeg'></img>,3,NA,exp,NA,2,<img src='img/tf1_36_T1_ss2_md.jpeg'></img>,0,FALSE,NA,sub83
NA,html-keyboard-response,85,323675,0.0-10.0-0.36,"""event"",""trial"",""time""
""focus"",""0"",""0""
""fullscreenenter"",""0"",""8318""
","
","""event"",""trial"",""time""
""focus"",""0"",""0""
","""event"",""trial"",""time""
""fullscreenenter"",""0"",""8318""
","
",null,"<div style=""font-size:60px;"">+</div>",NA,null,fixation,2020-06-17T21:22:37Z,NA,NA,NA,NA,NA,sub83
NA,mars-trial,86,324767,0.0-10.0-1.36,"""event"",""trial"",""time""
""focus"",""0"",""0""
""fullscreenenter"",""0"",""8318""
","
","""event"",""trial"",""time""
""focus"",""0"",""0""
","""event"",""trial"",""time""
""fullscreenenter"",""0"",""8318""
","
",488,<img style='border: 4px solid darkgrey;' src='img/tf1_37_M_ss3.jpeg'></img>,0,NA,exp,NA,0,<img src='img/tf1_37_T1_ss3_md.jpeg'></img>,0,TRUE,NA,sub83
NA,html-keyboard-response,87,325270,0.0-10.0-0.37,"""event"",""trial"",""time""
""focus"",""0"",""0""
""fullscreenenter"",""0"",""8318""
","
","""event"",""trial"",""time""
""focus"",""0"",""0""
","""event"",""trial"",""time""
""fullscreenenter"",""0"",""8318""
","
",null,"<div style=""font-size:60px;"">+</div>",NA,null,fixation,2020-06-17T21:22:38Z,NA,NA,NA,NA,NA,sub83
NA,mars-trial,88,326445,0.0-10.0-1.37,"""event"",""trial"",""time""
""focus"",""0"",""0""
""fullscreenenter"",""0"",""8318""
","
","""event"",""trial"",""time""
""focus"",""0"",""0""
","""event"",""trial"",""time""
""fullscreenenter"",""0"",""8318""
","
",573,<img style='border: 4px solid darkgrey;' src='img/tf1_38_M_ss1.jpeg'></img>,1,NA,exp,NA,0,<img src='img/tf1_38_T1_ss1_md.jpeg'></img>,0,TRUE,NA,sub83
NA,html-keyboard-response,89,326947,0.0-10.0-0.38,"""event"",""trial"",""time""
""focus"",""0"",""0""
""fullscreenenter"",""0"",""8318""
","
","""event"",""trial"",""time""
""focus"",""0"",""0""
","""event"",""trial"",""time""
""fullscreenenter"",""0"",""8318""
","
",null,"<div style=""font-size:60px;"">+</div>",NA,null,fixation,2020-06-17T21:22:40Z,NA,NA,NA,NA,NA,sub83
NA,mars-trial,90,328000,0.0-10.0-1.38,"""event"",""trial"",""time""
""focus"",""0"",""0""
""fullscreenenter"",""0"",""8318""
","
","""event"",""trial"",""time""
""focus"",""0"",""0""
","""event"",""trial"",""time""
""fullscreenenter"",""0"",""8318""
","
",451.0000000000582,<img style='border: 4px solid darkgrey;' src='img/tf1_39_M_ss2.jpeg'></img>,2,NA,exp,NA,3,<img src='img/tf1_39_T1_ss2_md.jpeg'></img>,0,FALSE,NA,sub83
NA,html-keyboard-response,91,328502,0.0-10.0-0.39,"""event"",""trial"",""time""
""focus"",""0"",""0""
""fullscreenenter"",""0"",""8318""
","
","""event"",""trial"",""time""
""focus"",""0"",""0""
","""event"",""trial"",""time""
""fullscreenenter"",""0"",""8318""
","
",null,"<div style=""font-size:60px;"">+</div>",NA,null,fixation,2020-06-17T21:22:41Z,NA,NA,NA,NA,NA,sub83
NA,mars-trial,92,329594,0.0-10.0-1.39,"""event"",""trial"",""time""
""focus"",""0"",""0""
""fullscreenenter"",""0"",""8318""
","
","""event"",""trial"",""time""
""focus"",""0"",""0""
","""event"",""trial"",""time""
""fullscreenenter"",""0"",""8318""
","
",490,<img style='border: 4px solid darkgrey;' src='img/tf1_40_M_ss3.jpeg'></img>,3,NA,exp,NA,1,<img src='img/tf1_40_T1_ss3_md.jpeg'></img>,0,FALSE,NA,sub83
NA,html-keyboard-response,93,330095,0.0-10.0-0.40,"""event"",""trial"",""time""
""focus"",""0"",""0""
""fullscreenenter"",""0"",""8318""
","
","""event"",""trial"",""time""
""focus"",""0"",""0""
","""event"",""trial"",""time""
""fullscreenenter"",""0"",""8318""
","
",null,"<div style=""font-size:60px;"">+</div>",NA,null,fixation,2020-06-17T21:22:43Z,NA,NA,NA,NA,NA,sub83
NA,mars-trial,94,331064,0.0-10.0-1.40,"""event"",""trial"",""time""
""focus"",""0"",""0""
""fullscreenenter"",""0"",""8318""
","
","""event"",""trial"",""time""
""focus"",""0"",""0""
","""event"",""trial"",""time""
""fullscreenenter"",""0"",""8318""
","
",366.9999999999418,<img style='border: 4px solid darkgrey;' src='img/tf1_41_M_ss1.jpeg'></img>,1,NA,exp,NA,0,<img src='img/tf1_41_T1_ss1_md.jpeg'></img>,0,TRUE,NA,sub83
NA,html-keyboard-response,95,331565,0.0-10.0-0.41,"""event"",""trial"",""time""
""focus"",""0"",""0""
""fullscreenenter"",""0"",""8318""
","
","""event"",""trial"",""time""
""focus"",""0"",""0""
","""event"",""trial"",""time""
""fullscreenenter"",""0"",""8318""
","
",null,"<div style=""font-size:60px;"">+</div>",NA,null,fixation,2020-06-17T21:22:44Z,NA,NA,NA,NA,NA,sub83
NA,mars-trial,96,332691,0.0-10.0-1.41,"""event"",""trial"",""time""
""focus"",""0"",""0""
""fullscreenenter"",""0"",""8318""
","
","""event"",""trial"",""time""
""focus"",""0"",""0""
","""event"",""trial"",""time""
""fullscreenenter"",""0"",""8318""
","
",523.0000000000582,<img style='border: 4px solid darkgrey;' src='img/tf1_42_M_ss2.jpeg'></img>,2,NA,exp,NA,1,<img src='img/tf1_42_T1_ss2_md.jpeg'></img>,0,FALSE,NA,sub83
NA,html-keyboard-response,97,333192,0.0-10.0-0.42,"""event"",""trial"",""time""
""focus"",""0"",""0""
""fullscreenenter"",""0"",""8318""
","
","""event"",""trial"",""time""
""focus"",""0"",""0""
","""event"",""trial"",""time""
""fullscreenenter"",""0"",""8318""
","
",null,"<div style=""font-size:60px;"">+</div>",NA,null,fixation,2020-06-17T21:22:46Z,NA,NA,NA,NA,NA,sub83
NA,mars-trial,98,334313,0.0-10.0-1.42,"""event"",""trial"",""time""
""focus"",""0"",""0""
""fullscreenenter"",""0"",""8318""
","
","""event"",""trial"",""time""
""focus"",""0"",""0""
","""event"",""trial"",""time""
""fullscreenenter"",""0"",""8318""
","
",517,<img style='border: 4px solid darkgrey;' src='img/tf1_43_M_ss3.jpeg'></img>,3,NA,exp,NA,2,<img src='img/tf1_43_T1_ss3_md.jpeg'></img>,0,FALSE,NA,sub83
NA,html-keyboard-response,99,334814,0.0-10.0-0.43,"""event"",""trial"",""time""
""focus"",""0"",""0""
""fullscreenenter"",""0"",""8318""
","
","""event"",""trial"",""time""
""focus"",""0"",""0""
","""event"",""trial"",""time""
""fullscreenenter"",""0"",""8318""
","
",null,"<div style=""font-size:60px;"">+</div>",NA,null,fixation,2020-06-17T21:22:48Z,NA,NA,NA,NA,NA,sub83
NA,mars-trial,100,335843,0.0-10.0-1.43,"""event"",""trial"",""time""
""focus"",""0"",""0""
""fullscreenenter"",""0"",""8318""
","
","""event"",""trial"",""time""
""focus"",""0"",""0""
","""event"",""trial"",""time""
""fullscreenenter"",""0"",""8318""
","
",427,<img style='border: 4px solid darkgrey;' src='img/tf1_44_M_ss1.jpeg'></img>,1,NA,exp,NA,1,<img src='img/tf1_44_T1_ss1_md.jpeg'></img>,0,FALSE,NA,sub83
NA,html-keyboard-response,101,336344,0.0-10.0-0.44,"""event"",""trial"",""time""
""focus"",""0"",""0""
""fullscreenenter"",""0"",""8318""
","
","""event"",""trial"",""time""
""focus"",""0"",""0""
","""event"",""trial"",""time""
""fullscreenenter"",""0"",""8318""
","
",null,"<div style=""font-size:60px;"">+</div>",NA,null,fixation,2020-06-17T21:22:49Z,NA,NA,NA,NA,NA,sub83
NA,mars-trial,102,337342,0.0-10.0-1.44,"""event"",""trial"",""time""
""focus"",""0"",""0""
""fullscreenenter"",""0"",""8318""
","
","""event"",""trial"",""time""
""focus"",""0"",""0""
","""event"",""trial"",""time""
""fullscreenenter"",""0"",""8318""
","
",392.9999999999418,<img style='border: 4px solid darkgrey;' src='img/tf1_45_M_ss2.jpeg'></img>,0,NA,exp,NA,0,<img src='img/tf1_45_T1_ss2_md.jpeg'></img>,0,TRUE,NA,sub83
NA,html-keyboard-response,103,337843,0.0-10.0-0.45,"""event"",""trial"",""time""
""focus"",""0"",""0""
""fullscreenenter"",""0"",""8318""
","
","""event"",""trial"",""time""
""focus"",""0"",""0""
","""event"",""trial"",""time""
""fullscreenenter"",""0"",""8318""
","
",null,"<div style=""font-size:60px;"">+</div>",NA,null,fixation,2020-06-17T21:22:51Z,NA,NA,NA,NA,NA,sub83
NA,mars-trial,104,338867,0.0-10.0-1.45,"""event"",""trial"",""time""
""focus"",""0"",""0""
""fullscreenenter"",""0"",""8318""
","
","""event"",""trial"",""time""
""focus"",""0"",""0""
","""event"",""trial"",""time""
""fullscreenenter"",""0"",""8318""
","
",422,<img style='border: 4px solid darkgrey;' src='img/tf1_46_M_ss3.jpeg'></img>,2,NA,exp,NA,2,<img src='img/tf1_46_T1_ss3_md.jpeg'></img>,0,FALSE,NA,sub83
NA,html-keyboard-response,105,339369,0.0-10.0-0.46,"""event"",""trial"",""time""
""focus"",""0"",""0""
""fullscreenenter"",""0"",""8318""
","
","""event"",""trial"",""time""
""focus"",""0"",""0""
","""event"",""trial"",""time""
""fullscreenenter"",""0"",""8318""
","
",null,"<div style=""font-size:60px;"">+</div>",NA,null,fixation,2020-06-17T21:22:52Z,NA,NA,NA,NA,NA,sub83
NA,mars-trial,106,340799,0.0-10.0-1.46,"""event"",""trial"",""time""
""focus"",""0"",""0""
""fullscreenenter"",""0"",""8318""
","
","""event"",""trial"",""time""
""focus"",""0"",""0""
","""event"",""trial"",""time""
""fullscreenenter"",""0"",""8318""
","
",827.0000000000582,<img style='border: 4px solid darkgrey;' src='img/tf1_47_M_ss1.jpeg'></img>,1,NA,exp,NA,3,<img src='img/tf1_47_T1_ss1_md.jpeg'></img>,0,FALSE,NA,sub83
NA,html-keyboard-response,107,341301,0.0-10.0-0.47,"""event"",""trial"",""time""
""focus"",""0"",""0""
""fullscreenenter"",""0"",""8318""
","
","""event"",""trial"",""time""
""focus"",""0"",""0""
","""event"",""trial"",""time""
""fullscreenenter"",""0"",""8318""
","
",null,"<div style=""font-size:60px;"">+</div>",NA,null,fixation,2020-06-17T21:22:54Z,NA,NA,NA,NA,NA,sub83
NA,mars-trial,108,342365,0.0-10.0-1.47,"""event"",""trial"",""time""
""focus"",""0"",""0""
""fullscreenenter"",""0"",""8318""
","
","""event"",""trial"",""time""
""focus"",""0"",""0""
","""event"",""trial"",""time""
""fullscreenenter"",""0"",""8318""
","
",459.0000000000582,<img style='border: 4px solid darkgrey;' src='img/tf1_48_M_ss2.jpeg'></img>,0,NA,exp,NA,1,<img src='img/tf1_48_T1_ss2_md.jpeg'></img>,0,FALSE,NA,sub83
NA,html-keyboard-response,109,342866,0.0-10.0-0.48,"""event"",""trial"",""time""
""focus"",""0"",""0""
""fullscreenenter"",""0"",""8318""
","
","""event"",""trial"",""time""
""focus"",""0"",""0""
","""event"",""trial"",""time""
""fullscreenenter"",""0"",""8318""
","
",null,"<div style=""font-size:60px;"">+</div>",NA,null,fixation,2020-06-17T21:22:56Z,NA,NA,NA,NA,NA,sub83
NA,mars-trial,110,343792,0.0-10.0-1.48,"""event"",""trial"",""time""
""focus"",""0"",""0""
""fullscreenenter"",""0"",""8318""
","
","""event"",""trial"",""time""
""focus"",""0"",""0""
","""event"",""trial"",""time""
""fullscreenenter"",""0"",""8318""
","
",322,<img style='border: 4px solid darkgrey;' src='img/tf1_49_M_ss3.jpeg'></img>,3,NA,exp,NA,3,<img src='img/tf1_49_T1_ss3_md.jpeg'></img>,0,FALSE,NA,sub83
NA,html-keyboard-response,111,344292,0.0-10.0-0.49,"""event"",""trial"",""time""
""focus"",""0"",""0""
""fullscreenenter"",""0"",""8318""
","
","""event"",""trial"",""time""
""focus"",""0"",""0""
","""event"",""trial"",""time""
""fullscreenenter"",""0"",""8318""
","
",null,"<div style=""font-size:60px;"">+</div>",NA,null,fixation,2020-06-17T21:22:57Z,NA,NA,NA,NA,NA,sub83
NA,mars-trial,112,345209,0.0-10.0-1.49,"""event"",""trial"",""time""
""focus"",""0"",""0""
""fullscreenenter"",""0"",""8318""
","
","""event"",""trial"",""time""
""focus"",""0"",""0""
","""event"",""trial"",""time""
""fullscreenenter"",""0"",""8318""
","
",315,<img style='border: 4px solid darkgrey;' src='img/tf1_50_M_ss1.jpeg'></img>,2,NA,exp,NA,3,<img src='img/tf1_50_T1_ss1_md.jpeg'></img>,0,FALSE,NA,sub83
NA,html-keyboard-response,113,345710,0.0-10.0-0.50,"""event"",""trial"",""time""
""focus"",""0"",""0""
""fullscreenenter"",""0"",""8318""
","
","""event"",""trial"",""time""
""focus"",""0"",""0""
","""event"",""trial"",""time""
""fullscreenenter"",""0"",""8318""
","
",null,"<div style=""font-size:60px;"">+</div>",NA,null,fixation,2020-06-17T21:22:59Z,NA,NA,NA,NA,NA,sub83
NA,mars-trial,114,346872,0.0-10.0-1.50,"""event"",""trial"",""time""
""focus"",""0"",""0""
""fullscreenenter"",""0"",""8318""
","
","""event"",""trial"",""time""
""focus"",""0"",""0""
","""event"",""trial"",""time""
""fullscreenenter"",""0"",""8318""
","
",558,<img style='border: 4px solid darkgrey;' src='img/tf1_51_M_ss2.jpeg'></img>,1,NA,exp,NA,1,<img src='img/tf1_51_T1_ss2_md.jpeg'></img>,0,FALSE,NA,sub83
NA,html-keyboard-response,115,347374,0.0-10.0-0.51,"""event"",""trial"",""time""
""focus"",""0"",""0""
""fullscreenenter"",""0"",""8318""
","
","""event"",""trial"",""time""
""focus"",""0"",""0""
","""event"",""trial"",""time""
""fullscreenenter"",""0"",""8318""
","
",null,"<div style=""font-size:60px;"">+</div>",NA,null,fixation,2020-06-17T21:23:00Z,NA,NA,NA,NA,NA,sub83
NA,mars-trial,116,348442,0.0-10.0-1.51,"""event"",""trial"",""time""
""focus"",""0"",""0""
""fullscreenenter"",""0"",""8318""
","
","""event"",""trial"",""time""
""focus"",""0"",""0""
","""event"",""trial"",""time""
""fullscreenenter"",""0"",""8318""
","
",464.9999999999418,<img style='border: 4px solid darkgrey;' src='img/tf1_52_M_ss3.jpeg'></img>,0,NA,exp,NA,3,<img src='img/tf1_52_T1_ss3_md.jpeg'></img>,0,FALSE,NA,sub83
NA,html-keyboard-response,117,348944,0.0-10.0-0.52,"""event"",""trial"",""time""
""focus"",""0"",""0""
""fullscreenenter"",""0"",""8318""
","
","""event"",""trial"",""time""
""focus"",""0"",""0""
","""event"",""trial"",""time""
""fullscreenenter"",""0"",""8318""
","
",null,"<div style=""font-size:60px;"">+</div>",NA,null,fixation,2020-06-17T21:23:02Z,NA,NA,NA,NA,NA,sub83
NA,mars-trial,118,350405,0.0-10.0-1.52,"""event"",""trial"",""time""
""focus"",""0"",""0""
""fullscreenenter"",""0"",""8318""
","
","""event"",""trial"",""time""
""focus"",""0"",""0""
","""event"",""trial"",""time""
""fullscreenenter"",""0"",""8318""
","
",856,<img style='border: 4px solid darkgrey;' src='img/tf1_53_M_ss1.jpeg'></img>,2,NA,exp,NA,0,<img src='img/tf1_53_T1_ss1_md.jpeg'></img>,0,TRUE,NA,sub83
NA,html-keyboard-response,119,350916,0.0-10.0-0.53,"""event"",""trial"",""time""
""focus"",""0"",""0""
""fullscreenenter"",""0"",""8318""
","
","""event"",""trial"",""time""
""focus"",""0"",""0""
","""event"",""trial"",""time""
""fullscreenenter"",""0"",""8318""
","
",null,"<div style=""font-size:60px;"">+</div>",NA,null,fixation,2020-06-17T21:23:04Z,NA,NA,NA,NA,NA,sub83
NA,mars-trial,120,352284,0.0-10.0-1.53,"""event"",""trial"",""time""
""focus"",""0"",""0""
""fullscreenenter"",""0"",""8318""
","
","""event"",""trial"",""time""
""focus"",""0"",""0""
","""event"",""trial"",""time""
""fullscreenenter"",""0"",""8318""
","
",766,<img style='border: 4px solid darkgrey;' src='img/tf1_54_M_ss2.jpeg'></img>,2,NA,exp,NA,1,<img src='img/tf1_54_T1_ss2_md.jpeg'></img>,0,FALSE,NA,sub83
NA,html-keyboard-response,121,352785,0.0-10.0-0.54,"""event"",""trial"",""time""
""focus"",""0"",""0""
""fullscreenenter"",""0"",""8318""
","
","""event"",""trial"",""time""
""focus"",""0"",""0""
","""event"",""trial"",""time""
""fullscreenenter"",""0"",""8318""
","
",null,"<div style=""font-size:60px;"">+</div>",NA,null,fixation,2020-06-17T21:23:06Z,NA,NA,NA,NA,NA,sub83
NA,mars-trial,122,354056,0.0-10.0-1.54,"""event"",""trial"",""time""
""focus"",""0"",""0""
""fullscreenenter"",""0"",""8318""
","
","""event"",""trial"",""time""
""focus"",""0"",""0""
","""event"",""trial"",""time""
""fullscreenenter"",""0"",""8318""
","
",666.9999999999418,<img style='border: 4px solid darkgrey;' src='img/tf1_55_M_ss3.jpeg'></img>,1,NA,exp,NA,1,<img src='img/tf1_55_T1_ss3_md.jpeg'></img>,0,FALSE,NA,sub83
NA,html-keyboard-response,123,354558,0.0-10.0-0.55,"""event"",""trial"",""time""
""focus"",""0"",""0""
""fullscreenenter"",""0"",""8318""
","
","""event"",""trial"",""time""
""focus"",""0"",""0""
","""event"",""trial"",""time""
""fullscreenenter"",""0"",""8318""
","
",null,"<div style=""font-size:60px;"">+</div>",NA,null,fixation,2020-06-17T21:23:07Z,NA,NA,NA,NA,NA,sub83
NA,mars-trial,124,355726,0.0-10.0-1.55,"""event"",""trial"",""time""
""focus"",""0"",""0""
""fullscreenenter"",""0"",""8318""
","
","""event"",""trial"",""time""
""focus"",""0"",""0""
","""event"",""trial"",""time""
""fullscreenenter"",""0"",""8318""
","
",564,<img style='border: 4px solid darkgrey;' src='img/tf1_56_M_ss1.jpeg'></img>,3,NA,exp,NA,1,<img src='img/tf1_56_T1_ss1_md.jpeg'></img>,0,FALSE,NA,sub83
NA,html-keyboard-response,125,356226,0.0-10.0-0.56,"""event"",""trial"",""time""
""focus"",""0"",""0""
""fullscreenenter"",""0"",""8318""
","
","""event"",""trial"",""time""
""focus"",""0"",""0""
","""event"",""trial"",""time""
""fullscreenenter"",""0"",""8318""
","
",null,"<div style=""font-size:60px;"">+</div>",NA,null,fixation,2020-06-17T21:23:09Z,NA,NA,NA,NA,NA,sub83
NA,mars-trial,126,357296,0.0-10.0-1.56,"""event"",""trial"",""time""
""focus"",""0"",""0""
""fullscreenenter"",""0"",""8318""
","
","""event"",""trial"",""time""
""focus"",""0"",""0""
","""event"",""trial"",""time""
""fullscreenenter"",""0"",""8318""
","
",466,<img style='border: 4px solid darkgrey;' src='img/tf1_57_M_ss2.jpeg'></img>,2,NA,exp,NA,3,<img src='img/tf1_57_T1_ss2_md.jpeg'></img>,0,FALSE,NA,sub83
NA,html-keyboard-response,127,357797,0.0-10.0-0.57,"""event"",""trial"",""time""
""focus"",""0"",""0""
""fullscreenenter"",""0"",""8318""
","
","""event"",""trial"",""time""
""focus"",""0"",""0""
","""event"",""trial"",""time""
""fullscreenenter"",""0"",""8318""
","
",null,"<div style=""font-size:60px;"">+</div>",NA,null,fixation,2020-06-17T21:23:11Z,NA,NA,NA,NA,NA,sub83
NA,mars-trial,128,358758,0.0-10.0-1.57,"""event"",""trial"",""time""
""focus"",""0"",""0""
""fullscreenenter"",""0"",""8318""
","
","""event"",""trial"",""time""
""focus"",""0"",""0""
","""event"",""trial"",""time""
""fullscreenenter"",""0"",""8318""
","
",356.9999999999418,<img style='border: 4px solid darkgrey;' src='img/tf1_58_M_ss3.jpeg'></img>,1,NA,exp,NA,1,<img src='img/tf1_58_T1_ss3_md.jpeg'></img>,0,FALSE,NA,sub83
NA,html-keyboard-response,129,359260,0.0-10.0-0.58,"""event"",""trial"",""time""
""focus"",""0"",""0""
""fullscreenenter"",""0"",""8318""
","
","""event"",""trial"",""time""
""focus"",""0"",""0""
","""event"",""trial"",""time""
""fullscreenenter"",""0"",""8318""
","
",null,"<div style=""font-size:60px;"">+</div>",NA,null,fixation,2020-06-17T21:23:12Z,NA,NA,NA,NA,NA,sub83
NA,mars-trial,130,360329,0.0-10.0-1.58,"""event"",""trial"",""time""
""focus"",""0"",""0""
""fullscreenenter"",""0"",""8318""
","
","""event"",""trial"",""time""
""focus"",""0"",""0""
","""event"",""trial"",""time""
""fullscreenenter"",""0"",""8318""
","
",465.0000000000582,<img style='border: 4px solid darkgrey;' src='img/tf1_59_M_ss1.jpeg'></img>,0,NA,exp,NA,1,<img src='img/tf1_59_T1_ss1_md.jpeg'></img>,0,FALSE,NA,sub83
NA,html-keyboard-response,131,360830,0.0-10.0-0.59,"""event"",""trial"",""time""
""focus"",""0"",""0""
""fullscreenenter"",""0"",""8318""
","
","""event"",""trial"",""time""
""focus"",""0"",""0""
","""event"",""trial"",""time""
""fullscreenenter"",""0"",""8318""
","
",null,"<div style=""font-size:60px;"">+</div>",NA,null,fixation,2020-06-17T21:23:14Z,NA,NA,NA,NA,NA,sub83
NA,mars-trial,132,361907,0.0-10.0-1.59,"""event"",""trial"",""time""
""focus"",""0"",""0""
""fullscreenenter"",""0"",""8318""
","
","""event"",""trial"",""time""
""focus"",""0"",""0""
","""event"",""trial"",""time""
""fullscreenenter"",""0"",""8318""
","
",472,<img style='border: 4px solid darkgrey;' src='img/tf1_60_M_ss2.jpeg'></img>,3,NA,exp,NA,0,<img src='img/tf1_60_T1_ss2_md.jpeg'></img>,0,TRUE,NA,sub83
NA,html-keyboard-response,133,362409,0.0-10.0-0.60,"""event"",""trial"",""time""
""focus"",""0"",""0""
""fullscreenenter"",""0"",""8318""
","
","""event"",""trial"",""time""
""focus"",""0"",""0""
","""event"",""trial"",""time""
""fullscreenenter"",""0"",""8318""
","
",null,"<div style=""font-size:60px;"">+</div>",NA,null,fixation,2020-06-17T21:23:15Z,NA,NA,NA,NA,NA,sub83
NA,mars-trial,134,363593,0.0-10.0-1.60,"""event"",""trial"",""time""
""focus"",""0"",""0""
""fullscreenenter"",""0"",""8318""
","
","""event"",""trial"",""time""
""focus"",""0"",""0""
","""event"",""trial"",""time""
""fullscreenenter"",""0"",""8318""
","
",580,<img style='border: 4px solid darkgrey;' src='img/tf1_61_M_ss3.jpeg'></img>,2,NA,exp,NA,3,<img src='img/tf1_61_T1_ss3_md.jpeg'></img>,0,FALSE,NA,sub83
NA,html-keyboard-response,135,364094,0.0-10.0-0.61,"""event"",""trial"",""time""
""focus"",""0"",""0""
""fullscreenenter"",""0"",""8318""
","
","""event"",""trial"",""time""
""focus"",""0"",""0""
","""event"",""trial"",""time""
""fullscreenenter"",""0"",""8318""
","
",null,"<div style=""font-size:60px;"">+</div>",NA,null,fixation,2020-06-17T21:23:17Z,NA,NA,NA,NA,NA,sub83
NA,mars-trial,136,365012,0.0-10.0-1.61,"""event"",""trial"",""time""
""focus"",""0"",""0""
""fullscreenenter"",""0"",""8318""
","
","""event"",""trial"",""time""
""focus"",""0"",""0""
","""event"",""trial"",""time""
""fullscreenenter"",""0"",""8318""
","
",314,<img style='border: 4px solid darkgrey;' src='img/tf1_62_M_ss1.jpeg'></img>,3,NA,exp,NA,0,<img src='img/tf1_62_T1_ss1_md.jpeg'></img>,0,TRUE,NA,sub83
NA,html-keyboard-response,137,365513,0.0-10.0-0.62,"""event"",""trial"",""time""
""focus"",""0"",""0""
""fullscreenenter"",""0"",""8318""
","
","""event"",""trial"",""time""
""focus"",""0"",""0""
","""event"",""trial"",""time""
""fullscreenenter"",""0"",""8318""
","
",null,"<div style=""font-size:60px;"">+</div>",NA,null,fixation,2020-06-17T21:23:18Z,NA,NA,NA,NA,NA,sub83
NA,mars-trial,138,366532,0.0-10.0-1.62,"""event"",""trial"",""time""
""focus"",""0"",""0""
""fullscreenenter"",""0"",""8318""
","
","""event"",""trial"",""time""
""focus"",""0"",""0""
","""event"",""trial"",""time""
""fullscreenenter"",""0"",""8318""
","
",417,<img style='border: 4px solid darkgrey;' src='img/tf1_63_M_ss2.jpeg'></img>,3,NA,exp,NA,2,<img src='img/tf1_63_T1_ss2_md.jpeg'></img>,0,FALSE,NA,sub83
NA,html-keyboard-response,139,367034,0.0-10.0-0.63,"""event"",""trial"",""time""
""focus"",""0"",""0""
""fullscreenenter"",""0"",""8318""
","
","""event"",""trial"",""time""
""focus"",""0"",""0""
","""event"",""trial"",""time""
""fullscreenenter"",""0"",""8318""
","
",null,"<div style=""font-size:60px;"">+</div>",NA,null,fixation,2020-06-17T21:23:20Z,NA,NA,NA,NA,NA,sub83
NA,mars-trial,140,367956,0.0-10.0-1.63,"""event"",""trial"",""time""
""focus"",""0"",""0""
""fullscreenenter"",""0"",""8318""
","
","""event"",""trial"",""time""
""focus"",""0"",""0""
","""event"",""trial"",""time""
""fullscreenenter"",""0"",""8318""
","
",320,<img style='border: 4px solid darkgrey;' src='img/tf1_64_M_ss3.jpeg'></img>,1,NA,exp,NA,2,<img src='img/tf1_64_T1_ss3_md.jpeg'></img>,0,FALSE,NA,sub83
NA,html-keyboard-response,141,368457,0.0-10.0-0.64,"""event"",""trial"",""time""
""focus"",""0"",""0""
""fullscreenenter"",""0"",""8318""
","
","""event"",""trial"",""time""
""focus"",""0"",""0""
","""event"",""trial"",""time""
""fullscreenenter"",""0"",""8318""
","
",null,"<div style=""font-size:60px;"">+</div>",NA,null,fixation,2020-06-17T21:23:21Z,NA,NA,NA,NA,NA,sub83
NA,mars-trial,142,369382,0.0-10.0-1.64,"""event"",""trial"",""time""
""focus"",""0"",""0""
""fullscreenenter"",""0"",""8318""
","
","""event"",""trial"",""time""
""focus"",""0"",""0""
","""event"",""trial"",""time""
""fullscreenenter"",""0"",""8318""
","
",320,<img style='border: 4px solid darkgrey;' src='img/tf1_65_M_ss1.jpeg'></img>,2,NA,exp,NA,0,<img src='img/tf1_65_T1_ss1_md.jpeg'></img>,0,TRUE,NA,sub83
NA,html-keyboard-response,143,369883,0.0-10.0-0.65,"""event"",""trial"",""time""
""focus"",""0"",""0""
""fullscreenenter"",""0"",""8318""
","
","""event"",""trial"",""time""
""focus"",""0"",""0""
","""event"",""trial"",""time""
""fullscreenenter"",""0"",""8318""
","
",null,"<div style=""font-size:60px;"">+</div>",NA,null,fixation,2020-06-17T21:23:23Z,NA,NA,NA,NA,NA,sub83
NA,mars-trial,144,370964,0.0-10.0-1.65,"""event"",""trial"",""time""
""focus"",""0"",""0""
""fullscreenenter"",""0"",""8318""
","
","""event"",""trial"",""time""
""focus"",""0"",""0""
","""event"",""trial"",""time""
""fullscreenenter"",""0"",""8318""
","
",478,<img style='border: 4px solid darkgrey;' src='img/tf1_66_M_ss2.jpeg'></img>,0,NA,exp,NA,2,<img src='img/tf1_66_T1_ss2_md.jpeg'></img>,0,FALSE,NA,sub83
NA,html-keyboard-response,145,371465,0.0-10.0-0.66,"""event"",""trial"",""time""
""focus"",""0"",""0""
""fullscreenenter"",""0"",""8318""
","
","""event"",""trial"",""time""
""focus"",""0"",""0""
","""event"",""trial"",""time""
""fullscreenenter"",""0"",""8318""
","
",null,"<div style=""font-size:60px;"">+</div>",NA,null,fixation,2020-06-17T21:23:24Z,NA,NA,NA,NA,NA,sub83
NA,mars-trial,146,372487,0.0-10.0-1.66,"""event"",""trial"",""time""
""focus"",""0"",""0""
""fullscreenenter"",""0"",""8318""
","
","""event"",""trial"",""time""
""focus"",""0"",""0""
","""event"",""trial"",""time""
""fullscreenenter"",""0"",""8318""
","
",418,<img style='border: 4px solid darkgrey;' src='img/tf1_67_M_ss3.jpeg'></img>,1,NA,exp,NA,2,<img src='img/tf1_67_T1_ss3_md.jpeg'></img>,0,FALSE,NA,sub83
NA,html-keyboard-response,147,372988,0.0-10.0-0.67,"""event"",""trial"",""time""
""focus"",""0"",""0""
""fullscreenenter"",""0"",""8318""
","
","""event"",""trial"",""time""
""focus"",""0"",""0""
","""event"",""trial"",""time""
""fullscreenenter"",""0"",""8318""
","
",null,"<div style=""font-size:60px;"">+</div>",NA,null,fixation,2020-06-17T21:23:26Z,NA,NA,NA,NA,NA,sub83
NA,mars-trial,148,374073,0.0-10.0-1.67,"""event"",""trial"",""time""
""focus"",""0"",""0""
""fullscreenenter"",""0"",""8318""
","
","""event"",""trial"",""time""
""focus"",""0"",""0""
","""event"",""trial"",""time""
""fullscreenenter"",""0"",""8318""
","
",481.9999999999418,<img style='border: 4px solid darkgrey;' src='img/tf1_68_M_ss1.jpeg'></img>,2,NA,exp,NA,0,<img src='img/tf1_68_T1_ss1_md.jpeg'></img>,0,TRUE,NA,sub83
NA,html-keyboard-response,149,374575,0.0-10.0-0.68,"""event"",""trial"",""time""
""focus"",""0"",""0""
""fullscreenenter"",""0"",""8318""
","
","""event"",""trial"",""time""
""focus"",""0"",""0""
","""event"",""trial"",""time""
""fullscreenenter"",""0"",""8318""
","
",null,"<div style=""font-size:60px;"">+</div>",NA,null,fixation,2020-06-17T21:23:27Z,NA,NA,NA,NA,NA,sub83
NA,mars-trial,150,379090,0.0-10.0-1.68,"""event"",""trial"",""time""
""focus"",""0"",""0""
""fullscreenenter"",""0"",""8318""
","
","""event"",""trial"",""time""
""focus"",""0"",""0""
","""event"",""trial"",""time""
""fullscreenenter"",""0"",""8318""
","
",3911,<img style='border: 4px solid darkgrey;' src='img/tf1_69_M_ss2.jpeg'></img>,2,NA,exp,NA,3,<img src='img/tf1_69_T1_ss2_md.jpeg'></img>,0,FALSE,NA,sub83
NA,html-keyboard-response,151,379591,0.0-10.0-0.69,"""event"",""trial"",""time""
""focus"",""0"",""0""
""fullscreenenter"",""0"",""8318""
","
","""event"",""trial"",""time""
""focus"",""0"",""0""
","""event"",""trial"",""time""
""fullscreenenter"",""0"",""8318""
","
",null,"<div style=""font-size:60px;"">+</div>",NA,null,fixation,2020-06-17T21:23:32Z,NA,NA,NA,NA,NA,sub83
NA,mars-trial,152,386159,0.0-10.0-1.69,"""event"",""trial"",""time""
""focus"",""0"",""0""
""fullscreenenter"",""0"",""8318""
","
","""event"",""trial"",""time""
""focus"",""0"",""0""
","""event"",""trial"",""time""
""fullscreenenter"",""0"",""8318""
","
",5964,<img style='border: 4px solid darkgrey;' src='img/tf1_70_M_ss3.jpeg'></img>,2,NA,exp,NA,0,<img src='img/tf1_70_T1_ss3_md.jpeg'></img>,0,TRUE,NA,sub83
NA,html-keyboard-response,153,386660,0.0-10.0-0.70,"""event"",""trial"",""time""
""focus"",""0"",""0""
""fullscreenenter"",""0"",""8318""
","
","""event"",""trial"",""time""
""focus"",""0"",""0""
","""event"",""trial"",""time""
""fullscreenenter"",""0"",""8318""
","
",null,"<div style=""font-size:60px;"">+</div>",NA,null,fixation,2020-06-17T21:23:40Z,NA,NA,NA,NA,NA,sub83
NA,mars-trial,154,391799,0.0-10.0-1.70,"""event"",""trial"",""time""
""focus"",""0"",""0""
""fullscreenenter"",""0"",""8318""
","
","""event"",""trial"",""time""
""focus"",""0"",""0""
","""event"",""trial"",""time""
""fullscreenenter"",""0"",""8318""
","
",4535,<img style='border: 4px solid darkgrey;' src='img/tf1_71_M_ss1.jpeg'></img>,0,NA,exp,NA,0,<img src='img/tf1_71_T1_ss1_md.jpeg'></img>,0,TRUE,NA,sub83
NA,html-keyboard-response,155,392301,0.0-10.0-0.71,"""event"",""trial"",""time""
""focus"",""0"",""0""
""fullscreenenter"",""0"",""8318""
","
","""event"",""trial"",""time""
""focus"",""0"",""0""
","""event"",""trial"",""time""
""fullscreenenter"",""0"",""8318""
","
",null,"<div style=""font-size:60px;"">+</div>",NA,null,fixation,2020-06-17T21:23:45Z,NA,NA,NA,NA,NA,sub83
NA,mars-trial,156,396040,0.0-10.0-1.71,"""event"",""trial"",""time""
""focus"",""0"",""0""
""fullscreenenter"",""0"",""8318""
","
","""event"",""trial"",""time""
""focus"",""0"",""0""
","""event"",""trial"",""time""
""fullscreenenter"",""0"",""8318""
","
",3135,<img style='border: 4px solid darkgrey;' src='img/tf1_72_M_ss2.jpeg'></img>,2,NA,exp,NA,0,<img src='img/tf1_72_T1_ss2_md.jpeg'></img>,0,TRUE,NA,sub83
NA,html-keyboard-response,157,396540,0.0-10.0-0.72,"""event"",""trial"",""time""
""focus"",""0"",""0""
""fullscreenenter"",""0"",""8318""
","
","""event"",""trial"",""time""
""focus"",""0"",""0""
","""event"",""trial"",""time""
""fullscreenenter"",""0"",""8318""
","
",null,"<div style=""font-size:60px;"">+</div>",NA,null,fixation,2020-06-17T21:23:49Z,NA,NA,NA,NA,NA,sub83
NA,mars-trial,158,407875,0.0-10.0-1.72,"""event"",""trial"",""time""
""focus"",""0"",""0""
""fullscreenenter"",""0"",""8318""
","
","""event"",""trial"",""time""
""focus"",""0"",""0""
","""event"",""trial"",""time""
""fullscreenenter"",""0"",""8318""
","
",10732,<img style='border: 4px solid darkgrey;' src='img/tf1_73_M_ss3.jpeg'></img>,0,NA,exp,NA,0,<img src='img/tf1_73_T1_ss3_md.jpeg'></img>,0,TRUE,NA,sub83
NA,html-keyboard-response,159,408376,0.0-10.0-0.73,"""event"",""trial"",""time""
""focus"",""0"",""0""
""fullscreenenter"",""0"",""8318""
","
","""event"",""trial"",""time""
""focus"",""0"",""0""
","""event"",""trial"",""time""
""fullscreenenter"",""0"",""8318""
","
",null,"<div style=""font-size:60px;"">+</div>",NA,null,fixation,2020-06-17T21:24:01Z,NA,NA,NA,NA,NA,sub83
NA,mars-trial,160,412617,0.0-10.0-1.73,"""event"",""trial"",""time""
""focus"",""0"",""0""
""fullscreenenter"",""0"",""8318""
","
","""event"",""trial"",""time""
""focus"",""0"",""0""
","""event"",""trial"",""time""
""fullscreenenter"",""0"",""8318""
","
",3637.999999999942,<img style='border: 4px solid darkgrey;' src='img/tf1_74_M_ss1.jpeg'></img>,2,NA,exp,NA,0,<img src='img/tf1_74_T1_ss1_md.jpeg'></img>,0,TRUE,NA,sub83
NA,html-keyboard-response,161,413119,0.0-10.0-0.74,"""event"",""trial"",""time""
""focus"",""0"",""0""
""fullscreenenter"",""0"",""8318""
","
","""event"",""trial"",""time""
""focus"",""0"",""0""
","""event"",""trial"",""time""
""fullscreenenter"",""0"",""8318""
","
",null,"<div style=""font-size:60px;"">+</div>",NA,null,fixation,2020-06-17T21:24:06Z,NA,NA,NA,NA,NA,sub83
NA,mars-trial,162,418245,0.0-10.0-1.74,"""event"",""trial"",""time""
""focus"",""0"",""0""
""fullscreenenter"",""0"",""8318""
","
","""event"",""trial"",""time""
""focus"",""0"",""0""
","""event"",""trial"",""time""
""fullscreenenter"",""0"",""8318""
","
",4522,<img style='border: 4px solid darkgrey;' src='img/tf1_75_M_ss2.jpeg'></img>,2,NA,exp,NA,0,<img src='img/tf1_75_T1_ss2_md.jpeg'></img>,0,TRUE,NA,sub83
NA,html-keyboard-response,163,418747,0.0-10.0-0.75,"""event"",""trial"",""time""
""focus"",""0"",""0""
""fullscreenenter"",""0"",""8318""
","
","""event"",""trial"",""time""
""focus"",""0"",""0""
","""event"",""trial"",""time""
""fullscreenenter"",""0"",""8318""
","
",null,"<div style=""font-size:60px;"">+</div>",NA,null,fixation,2020-06-17T21:24:12Z,NA,NA,NA,NA,NA,sub83
NA,mars-trial,164,420675,0.0-10.0-1.75,"""event"",""trial"",""time""
""focus"",""0"",""0""
""fullscreenenter"",""0"",""8318""
","
","""event"",""trial"",""time""
""focus"",""0"",""0""
","""event"",""trial"",""time""
""fullscreenenter"",""0"",""8318""
","
",1325,<img style='border: 4px solid darkgrey;' src='img/tf1_76_M_ss3.jpeg'></img>,2,NA,exp,NA,1,<img src='img/tf1_76_T1_ss3_md.jpeg'></img>,0,FALSE,NA,sub83
NA,html-keyboard-response,165,421176,0.0-10.0-0.76,"""event"",""trial"",""time""
""focus"",""0"",""0""
""fullscreenenter"",""0"",""8318""
","
","""event"",""trial"",""time""
""focus"",""0"",""0""
","""event"",""trial"",""time""
""fullscreenenter"",""0"",""8318""
","
",null,"<div style=""font-size:60px;"">+</div>",NA,null,fixation,2020-06-17T21:24:14Z,NA,NA,NA,NA,NA,sub83
NA,mars-trial,166,422318,0.0-10.0-1.76,"""event"",""trial"",""time""
""focus"",""0"",""0""
""fullscreenenter"",""0"",""8318""
","
","""event"",""trial"",""time""
""focus"",""0"",""0""
","""event"",""trial"",""time""
""fullscreenenter"",""0"",""8318""
","
",540.0000000000582,<img style='border: 4px solid darkgrey;' src='img/tf1_77_M_ss1.jpeg'></img>,3,NA,exp,NA,0,<img src='img/tf1_77_T1_ss1_md.jpeg'></img>,0,TRUE,NA,sub83
NA,html-keyboard-response,167,422819,0.0-10.0-0.77,"""event"",""trial"",""time""
""focus"",""0"",""0""
""fullscreenenter"",""0"",""8318""
","
","""event"",""trial"",""time""
""focus"",""0"",""0""
","""event"",""trial"",""time""
""fullscreenenter"",""0"",""8318""
","
",null,"<div style=""font-size:60px;"">+</div>",NA,null,fixation,2020-06-17T21:24:16Z,NA,NA,NA,NA,NA,sub83
NA,mars-trial,168,424057,0.0-10.0-1.77,"""event"",""trial"",""time""
""focus"",""0"",""0""
""fullscreenenter"",""0"",""8318""
","
","""event"",""trial"",""time""
""focus"",""0"",""0""
","""event"",""trial"",""time""
""fullscreenenter"",""0"",""8318""
","
",635,<img style='border: 4px solid darkgrey;' src='img/tf1_78_M_ss2.jpeg'></img>,0,NA,exp,NA,3,<img src='img/tf1_78_T1_ss2_md.jpeg'></img>,0,FALSE,NA,sub83
NA,html-keyboard-response,169,424558,0.0-10.0-0.78,"""event"",""trial"",""time""
""focus"",""0"",""0""
""fullscreenenter"",""0"",""8318""
","
","""event"",""trial"",""time""
""focus"",""0"",""0""
","""event"",""trial"",""time""
""fullscreenenter"",""0"",""8318""
","
",null,"<div style=""font-size:60px;"">+</div>",NA,null,fixation,2020-06-17T21:24:17Z,NA,NA,NA,NA,NA,sub83
NA,mars-trial,170,425534,0.0-10.0-1.78,"""event"",""trial"",""time""
""focus"",""0"",""0""
""fullscreenenter"",""0"",""8318""
","
","""event"",""trial"",""time""
""focus"",""0"",""0""
","""event"",""trial"",""time""
""fullscreenenter"",""0"",""8318""
","
",373,<img style='border: 4px solid darkgrey;' src='img/tf1_79_M_ss3.jpeg'></img>,1,NA,exp,NA,0,<img src='img/tf1_79_T1_ss3_md.jpeg'></img>,0,TRUE,NA,sub83
NA,html-keyboard-response,171,426035,0.0-10.0-0.79,"""event"",""trial"",""time""
""focus"",""0"",""0""
""fullscreenenter"",""0"",""8318""
","
","""event"",""trial"",""time""
""focus"",""0"",""0""
","""event"",""trial"",""time""
""fullscreenenter"",""0"",""8318""
","
",null,"<div style=""font-size:60px;"">+</div>",NA,null,fixation,2020-06-17T21:24:19Z,NA,NA,NA,NA,NA,sub83
NA,mars-trial,172,427120,0.0-10.0-1.79,"""event"",""trial"",""time""
""focus"",""0"",""0""
""fullscreenenter"",""0"",""8318""
","
","""event"",""trial"",""time""
""focus"",""0"",""0""
","""event"",""trial"",""time""
""fullscreenenter"",""0"",""8318""
","
",482,<img style='border: 4px solid darkgrey;' src='img/tf1_80_M_ss1.jpeg'></img>,2,NA,exp,NA,2,<img src='img/tf1_80_T1_ss1_md.jpeg'></img>,0,FALSE,NA,sub83
NA,audio-button-response,173,428775,0.0-11.0,"""event"",""trial"",""time""
""focus"",""0"",""0""
""fullscreenenter"",""0"",""8318""
","
","""event"",""trial"",""time""
""focus"",""0"",""0""
","""event"",""trial"",""time""
""fullscreenenter"",""0"",""8318""
","
",1653,audio/mars_instructions_slide5.wav,0,NA,NA,NA,NA,NA,NA,NA,NA,sub83
