success,trial_type,trial_index,time_elapsed,internal_node_id,interactions,blur_events,focus_events,fullscreenenter_events,fullscreenexit_events,rt,stimulus,button_pressed,key_press,part,timestamp,unshuffled_button,correct_response,correct_button,correct,value,subject_id
TRUE,fullscreen,0,3865,0.0-0.0,"""event"",""trial"",""time""
""fullscreenenter"",""0"",""2878""
","
","
","""event"",""trial"",""time""
""fullscreenenter"",""0"",""2878""
","
",NA,NA,NA,NA,NA,NA,NA,NA,NA,NA,NA,sub124
NA,pavlovia,1,3870,0.0-1.0,"""event"",""trial"",""time""
""fullscreenenter"",""0"",""2878""
","
","
","""event"",""trial"",""time""
""fullscreenenter"",""0"",""2878""
","
",NA,NA,NA,NA,NA,NA,NA,NA,NA,NA,NA,sub124
NA,html-button-response,2,8195,0.0-2.0,"""event"",""trial"",""time""
""fullscreenenter"",""0"",""2878""
","
","
","""event"",""trial"",""time""
""fullscreenenter"",""0"",""2878""
","
",4323.265000013635,<p>Welcome! Press START to begin.</p><br>,0,NA,NA,NA,NA,NA,NA,NA,NA,sub124
NA,audio-button-response,3,21533,0.0-3.0,"""event"",""trial"",""time""
""fullscreenenter"",""0"",""2878""
","
","
","""event"",""trial"",""time""
""fullscreenenter"",""0"",""2878""
","
",13334.739999845624,audio/mars_instructions_slide2.wav,0,NA,NA,NA,NA,NA,NA,NA,NA,sub124
NA,audio-button-response,4,37918,0.0-4.0,"""event"",""trial"",""time""
""fullscreenenter"",""0"",""2878""
","
","
","""event"",""trial"",""time""
""fullscreenenter"",""0"",""2878""
","
",16383.860000176355,audio/mars_instructions_slide3.wav,0,NA,NA,NA,NA,NA,NA,NA,NA,sub124
NA,html-keyboard-response,5,38421,0.0-5.0-0.0,"""event"",""trial"",""time""
""fullscreenenter"",""0"",""2878""
","
","
","""event"",""trial"",""time""
""fullscreenenter"",""0"",""2878""
","
",null,"<div style=""font-size:60px;"">+</div>",NA,null,fixation,2020-06-29T23:11:44Z,NA,NA,NA,NA,NA,sub124
NA,mars-trial,6,45849,0.0-5.0-1.0,"""event"",""trial"",""time""
""fullscreenenter"",""0"",""2878""
","
","
","""event"",""trial"",""time""
""fullscreenenter"",""0"",""2878""
","
",5320.750000188127,<img style='border: 4px solid darkgrey;' src='practice/pt1_M1.png'></img>,1,NA,practice,NA,0,<img src='practice/pt1_T1.png'></img>,0,TRUE,NA,sub124
NA,html-keyboard-response,7,46351,0.0-6.0-0.0,"""event"",""trial"",""time""
""fullscreenenter"",""0"",""2878""
","
","
","""event"",""trial"",""time""
""fullscreenenter"",""0"",""2878""
","
",null,"<div style=""font-size:60px;"">+</div>",NA,null,fixation,2020-06-29T23:11:52Z,NA,NA,NA,NA,NA,sub124
NA,mars-trial,8,50810,0.0-6.0-1.0,"""event"",""trial"",""time""
""fullscreenenter"",""0"",""2878""
","
","
","""event"",""trial"",""time""
""fullscreenenter"",""0"",""2878""
","
",2354.429999832064,<img style='border: 4px solid darkgrey;' src='practice/pt2_M1.png'></img>,1,NA,practice,NA,0,<img src='practice/pt2_T1.png'></img>,0,TRUE,NA,sub124
NA,html-keyboard-response,9,51311,0.0-7.0-0.0,"""event"",""trial"",""time""
""fullscreenenter"",""0"",""2878""
","
","
","""event"",""trial"",""time""
""fullscreenenter"",""0"",""2878""
","
",null,"<div style=""font-size:60px;"">+</div>",NA,null,fixation,2020-06-29T23:11:57Z,NA,NA,NA,NA,NA,sub124
NA,mars-trial,10,54727,0.0-7.0-1.0,"""event"",""trial"",""time""
""fullscreenenter"",""0"",""2878""
","
","
","""event"",""trial"",""time""
""fullscreenenter"",""0"",""2878""
","
",1309.5200001262128,<img style='border: 4px solid darkgrey;' src='practice/pt3_M1.png'></img>,0,NA,practice,NA,0,<img src='practice/pt3_T1.png'></img>,0,TRUE,NA,sub124
NA,audio-button-response,11,58440,0.0-8.0,"""event"",""trial"",""time""
""fullscreenenter"",""0"",""2878""
","
","
","""event"",""trial"",""time""
""fullscreenenter"",""0"",""2878""
","
",3710.7200000900775,audio/mars_instructions_slide4.wav,0,NA,NA,NA,NA,NA,NA,NA,NA,sub124
NA,call-function,12,58441,0.0-9.0,"""event"",""trial"",""time""
""fullscreenenter"",""0"",""2878""
","
","
","""event"",""trial"",""time""
""fullscreenenter"",""0"",""2878""
","
",NA,NA,NA,NA,NA,NA,NA,NA,NA,NA,NA,sub124
NA,html-keyboard-response,13,58942,0.0-10.0-0.0,"""event"",""trial"",""time""
""fullscreenenter"",""0"",""2878""
","
","
","""event"",""trial"",""time""
""fullscreenenter"",""0"",""2878""
","
",null,"<div style=""font-size:60px;"">+</div>",NA,null,fixation,2020-06-29T23:12:05Z,NA,NA,NA,NA,NA,sub124
NA,mars-trial,14,61062,0.0-10.0-1.0,"""event"",""trial"",""time""
""fullscreenenter"",""0"",""2878""
","
","
","""event"",""trial"",""time""
""fullscreenenter"",""0"",""2878""
","
",1513.9899998903275,<img style='border: 4px solid darkgrey;' src='img/tf1_1_M_ss3.jpeg'></img>,1,NA,exp,NA,0,<img src='img/tf1_1_T1_ss3_md.jpeg'></img>,0,TRUE,NA,sub124
NA,html-keyboard-response,15,61564,0.0-10.0-0.1,"""event"",""trial"",""time""
""fullscreenenter"",""0"",""2878""
","
","
","""event"",""trial"",""time""
""fullscreenenter"",""0"",""2878""
","
",null,"<div style=""font-size:60px;"">+</div>",NA,null,fixation,2020-06-29T23:12:08Z,NA,NA,NA,NA,NA,sub124
NA,mars-trial,16,63950,0.0-10.0-1.1,"""event"",""trial"",""time""
""fullscreenenter"",""0"",""2878""
","
","
","""event"",""trial"",""time""
""fullscreenenter"",""0"",""2878""
","
",1781.3999999780208,<img style='border: 4px solid darkgrey;' src='img/tf1_2_M_ss1.jpeg'></img>,1,NA,exp,NA,0,<img src='img/tf1_2_T1_ss1_md.jpeg'></img>,0,TRUE,NA,sub124
NA,html-keyboard-response,17,64453,0.0-10.0-0.2,"""event"",""trial"",""time""
""fullscreenenter"",""0"",""2878""
","
","
","""event"",""trial"",""time""
""fullscreenenter"",""0"",""2878""
","
",null,"<div style=""font-size:60px;"">+</div>",NA,null,fixation,2020-06-29T23:12:10Z,NA,NA,NA,NA,NA,sub124
NA,mars-trial,18,66848,0.0-10.0-1.2,"""event"",""trial"",""time""
""fullscreenenter"",""0"",""2878""
","
","
","""event"",""trial"",""time""
""fullscreenenter"",""0"",""2878""
","
",1789.420000044629,<img style='border: 4px solid darkgrey;' src='img/tf1_3_M_ss2.jpeg'></img>,2,NA,exp,NA,0,<img src='img/tf1_3_T1_ss2_md.jpeg'></img>,0,TRUE,NA,sub124
NA,html-keyboard-response,19,67351,0.0-10.0-0.3,"""event"",""trial"",""time""
""fullscreenenter"",""0"",""2878""
","
","
","""event"",""trial"",""time""
""fullscreenenter"",""0"",""2878""
","
",null,"<div style=""font-size:60px;"">+</div>",NA,null,fixation,2020-06-29T23:12:13Z,NA,NA,NA,NA,NA,sub124
NA,mars-trial,20,69879,0.0-10.0-1.3,"""event"",""trial"",""time""
""fullscreenenter"",""0"",""2878""
","
","
","""event"",""trial"",""time""
""fullscreenenter"",""0"",""2878""
","
",1922.095000045374,<img style='border: 4px solid darkgrey;' src='img/tf1_4_M_ss3.jpeg'></img>,2,NA,exp,NA,0,<img src='img/tf1_4_T1_ss3_md.jpeg'></img>,0,TRUE,NA,sub124
NA,html-keyboard-response,21,70381,0.0-10.0-0.4,"""event"",""trial"",""time""
""fullscreenenter"",""0"",""2878""
","
","
","""event"",""trial"",""time""
""fullscreenenter"",""0"",""2878""
","
",null,"<div style=""font-size:60px;"">+</div>",NA,null,fixation,2020-06-29T23:12:16Z,NA,NA,NA,NA,NA,sub124
NA,mars-trial,22,72413,0.0-10.0-1.4,"""event"",""trial"",""time""
""fullscreenenter"",""0"",""2878""
","
","
","""event"",""trial"",""time""
""fullscreenenter"",""0"",""2878""
","
",1427.84500005655,<img style='border: 4px solid darkgrey;' src='img/tf1_5_M_ss1.jpeg'></img>,3,NA,exp,NA,0,<img src='img/tf1_5_T1_ss1_md.jpeg'></img>,0,TRUE,NA,sub124
NA,html-keyboard-response,23,72914,0.0-10.0-0.5,"""event"",""trial"",""time""
""fullscreenenter"",""0"",""2878""
","
","
","""event"",""trial"",""time""
""fullscreenenter"",""0"",""2878""
","
",null,"<div style=""font-size:60px;"">+</div>",NA,null,fixation,2020-06-29T23:12:19Z,NA,NA,NA,NA,NA,sub124
NA,mars-trial,24,82282,0.0-10.0-1.5,"""event"",""trial"",""time""
""fullscreenenter"",""0"",""2878""
","
","
","""event"",""trial"",""time""
""fullscreenenter"",""0"",""2878""
","
",8763.730000006035,<img style='border: 4px solid darkgrey;' src='img/tf1_6_M_ss2.jpeg'></img>,3,NA,exp,NA,0,<img src='img/tf1_6_T1_ss2_md.jpeg'></img>,0,TRUE,NA,sub124
NA,html-keyboard-response,25,82784,0.0-10.0-0.6,"""event"",""trial"",""time""
""fullscreenenter"",""0"",""2878""
","
","
","""event"",""trial"",""time""
""fullscreenenter"",""0"",""2878""
","
",null,"<div style=""font-size:60px;"">+</div>",NA,null,fixation,2020-06-29T23:12:29Z,NA,NA,NA,NA,NA,sub124
NA,mars-trial,26,86459,0.0-10.0-1.6,"""event"",""trial"",""time""
""fullscreenenter"",""0"",""2878""
","
","
","""event"",""trial"",""time""
""fullscreenenter"",""0"",""2878""
","
",3069.324999814853,<img style='border: 4px solid darkgrey;' src='img/tf1_7_M_ss3.jpeg'></img>,1,NA,exp,NA,0,<img src='img/tf1_7_T1_ss3_md.jpeg'></img>,0,TRUE,NA,sub124
NA,html-keyboard-response,27,86961,0.0-10.0-0.7,"""event"",""trial"",""time""
""fullscreenenter"",""0"",""2878""
","
","
","""event"",""trial"",""time""
""fullscreenenter"",""0"",""2878""
","
",null,"<div style=""font-size:60px;"">+</div>",NA,null,fixation,2020-06-29T23:12:33Z,NA,NA,NA,NA,NA,sub124
NA,mars-trial,28,97662,0.0-10.0-1.7,"""event"",""trial"",""time""
""fullscreenenter"",""0"",""2878""
","
","
","""event"",""trial"",""time""
""fullscreenenter"",""0"",""2878""
","
",10095.384999876842,<img style='border: 4px solid darkgrey;' src='img/tf1_8_M_ss1.jpeg'></img>,3,NA,exp,NA,0,<img src='img/tf1_8_T1_ss1_md.jpeg'></img>,0,TRUE,NA,sub124
NA,html-keyboard-response,29,98165,0.0-10.0-0.8,"""event"",""trial"",""time""
""fullscreenenter"",""0"",""2878""
","
","
","""event"",""trial"",""time""
""fullscreenenter"",""0"",""2878""
","
",null,"<div style=""font-size:60px;"">+</div>",NA,null,fixation,2020-06-29T23:12:44Z,NA,NA,NA,NA,NA,sub124
NA,mars-trial,30,104900,0.0-10.0-1.8,"""event"",""trial"",""time""
""fullscreenenter"",""0"",""2878""
","
","
","""event"",""trial"",""time""
""fullscreenenter"",""0"",""2878""
","
",6129.9850000068545,<img style='border: 4px solid darkgrey;' src='img/tf1_9_M_ss2.jpeg'></img>,0,NA,exp,NA,0,<img src='img/tf1_9_T1_ss2_md.jpeg'></img>,0,TRUE,NA,sub124
NA,html-keyboard-response,31,105403,0.0-10.0-0.9,"""event"",""trial"",""time""
""fullscreenenter"",""0"",""2878""
","
","
","""event"",""trial"",""time""
""fullscreenenter"",""0"",""2878""
","
",null,"<div style=""font-size:60px;"">+</div>",NA,null,fixation,2020-06-29T23:12:51Z,NA,NA,NA,NA,NA,sub124
NA,mars-trial,32,120726,0.0-10.0-1.9,"""event"",""trial"",""time""
""fullscreenenter"",""0"",""2878""
","
","
","""event"",""trial"",""time""
""fullscreenenter"",""0"",""2878""
","
",14718.22000015527,<img style='border: 4px solid darkgrey;' src='img/tf1_10_M_ss3.jpeg'></img>,1,NA,exp,NA,1,<img src='img/tf1_10_T1_ss3_md.jpeg'></img>,0,FALSE,NA,sub124
NA,html-keyboard-response,33,121229,0.0-10.0-0.10,"""event"",""trial"",""time""
""fullscreenenter"",""0"",""2878""
","
","
","""event"",""trial"",""time""
""fullscreenenter"",""0"",""2878""
","
",null,"<div style=""font-size:60px;"">+</div>",NA,null,fixation,2020-06-29T23:13:07Z,NA,NA,NA,NA,NA,sub124
NA,mars-trial,34,147970,0.0-10.0-1.10,"""event"",""trial"",""time""
""fullscreenenter"",""0"",""2878""
","
","
","""event"",""trial"",""time""
""fullscreenenter"",""0"",""2878""
","
",26137.315000174567,<img style='border: 4px solid darkgrey;' src='img/tf1_11_M_ss1.jpeg'></img>,0,NA,exp,NA,2,<img src='img/tf1_11_T1_ss1_md.jpeg'></img>,0,FALSE,NA,sub124
NA,html-keyboard-response,35,148472,0.0-10.0-0.11,"""event"",""trial"",""time""
""fullscreenenter"",""0"",""2878""
","
","
","""event"",""trial"",""time""
""fullscreenenter"",""0"",""2878""
","
",null,"<div style=""font-size:60px;"">+</div>",NA,null,fixation,2020-06-29T23:13:34Z,NA,NA,NA,NA,NA,sub124
NA,mars-trial,36,158857,0.0-10.0-1.11,"""event"",""trial"",""time""
""fullscreenenter"",""0"",""2878""
","
","
","""event"",""trial"",""time""
""fullscreenenter"",""0"",""2878""
","
",9778.70999998413,<img style='border: 4px solid darkgrey;' src='img/tf1_12_M_ss2.jpeg'></img>,1,NA,exp,NA,3,<img src='img/tf1_12_T1_ss2_md.jpeg'></img>,0,FALSE,NA,sub124
NA,html-keyboard-response,37,159359,0.0-10.0-0.12,"""event"",""trial"",""time""
""fullscreenenter"",""0"",""2878""
","
","
","""event"",""trial"",""time""
""fullscreenenter"",""0"",""2878""
","
",null,"<div style=""font-size:60px;"">+</div>",NA,null,fixation,2020-06-29T23:13:45Z,NA,NA,NA,NA,NA,sub124
NA,mars-trial,38,186331,0.0-10.0-1.12,"""event"",""trial"",""time""
""fullscreenenter"",""0"",""2878""
","
","
","""event"",""trial"",""time""
""fullscreenenter"",""0"",""2878""
","
",26365.38499989547,<img style='border: 4px solid darkgrey;' src='img/tf1_13_M_ss3.jpeg'></img>,1,NA,exp,NA,3,<img src='img/tf1_13_T1_ss3_md.jpeg'></img>,0,FALSE,NA,sub124
NA,html-keyboard-response,39,186833,0.0-10.0-0.13,"""event"",""trial"",""time""
""fullscreenenter"",""0"",""2878""
","
","
","""event"",""trial"",""time""
""fullscreenenter"",""0"",""2878""
","
",null,"<div style=""font-size:60px;"">+</div>",NA,null,fixation,2020-06-29T23:14:13Z,NA,NA,NA,NA,NA,sub124
NA,mars-trial,40,197879,0.0-10.0-1.13,"""event"",""trial"",""time""
""fullscreenenter"",""0"",""2878""
","
","
","""event"",""trial"",""time""
""fullscreenenter"",""0"",""2878""
","
",10441.039999946952,<img style='border: 4px solid darkgrey;' src='img/tf1_14_M_ss1.jpeg'></img>,3,NA,exp,NA,1,<img src='img/tf1_14_T1_ss1_md.jpeg'></img>,0,FALSE,NA,sub124
NA,html-keyboard-response,41,198382,0.0-10.0-0.14,"""event"",""trial"",""time""
""fullscreenenter"",""0"",""2878""
","
","
","""event"",""trial"",""time""
""fullscreenenter"",""0"",""2878""
","
",null,"<div style=""font-size:60px;"">+</div>",NA,null,fixation,2020-06-29T23:14:24Z,NA,NA,NA,NA,NA,sub124
NA,mars-trial,42,214502,0.0-10.0-1.14,"""event"",""trial"",""time""
""fullscreenenter"",""0"",""2878""
","
","
","""event"",""trial"",""time""
""fullscreenenter"",""0"",""2878""
","
",15515.424999874085,<img style='border: 4px solid darkgrey;' src='img/tf1_15_M_ss2.jpeg'></img>,1,NA,exp,NA,1,<img src='img/tf1_15_T1_ss2_md.jpeg'></img>,0,FALSE,NA,sub124
NA,html-keyboard-response,43,215004,0.0-10.0-0.15,"""event"",""trial"",""time""
""fullscreenenter"",""0"",""2878""
","
","
","""event"",""trial"",""time""
""fullscreenenter"",""0"",""2878""
","
",null,"<div style=""font-size:60px;"">+</div>",NA,null,fixation,2020-06-29T23:14:41Z,NA,NA,NA,NA,NA,sub124
NA,mars-trial,44,228852,0.0-10.0-1.15,"""event"",""trial"",""time""
""fullscreenenter"",""0"",""2878""
","
","
","""event"",""trial"",""time""
""fullscreenenter"",""0"",""2878""
","
",13243.005000054836,<img style='border: 4px solid darkgrey;' src='img/tf1_16_M_ss3.jpeg'></img>,2,NA,exp,NA,1,<img src='img/tf1_16_T1_ss3_md.jpeg'></img>,0,FALSE,NA,sub124
NA,html-keyboard-response,45,229355,0.0-10.0-0.16,"""event"",""trial"",""time""
""fullscreenenter"",""0"",""2878""
","
","
","""event"",""trial"",""time""
""fullscreenenter"",""0"",""2878""
","
",null,"<div style=""font-size:60px;"">+</div>",NA,null,fixation,2020-06-29T23:14:55Z,NA,NA,NA,NA,NA,sub124
NA,mars-trial,46,254747,0.0-10.0-1.16,"""event"",""trial"",""time""
""fullscreenenter"",""0"",""2878""
","
","
","""event"",""trial"",""time""
""fullscreenenter"",""0"",""2878""
","
",24786.81499999948,<img style='border: 4px solid darkgrey;' src='img/tf1_17_M_ss1.jpeg'></img>,3,NA,exp,NA,0,<img src='img/tf1_17_T1_ss1_md.jpeg'></img>,0,TRUE,NA,sub124
NA,html-keyboard-response,47,255250,0.0-10.0-0.17,"""event"",""trial"",""time""
""fullscreenenter"",""0"",""2878""
","
","
","""event"",""trial"",""time""
""fullscreenenter"",""0"",""2878""
","
",null,"<div style=""font-size:60px;"">+</div>",NA,null,fixation,2020-06-29T23:15:21Z,NA,NA,NA,NA,NA,sub124
NA,mars-trial,48,267936,0.0-10.0-1.17,"""event"",""trial"",""time""
""fullscreenenter"",""0"",""2878""
","
","
","""event"",""trial"",""time""
""fullscreenenter"",""0"",""2878""
","
",12080.250000115484,<img style='border: 4px solid darkgrey;' src='img/tf1_18_M_ss2.jpeg'></img>,1,NA,exp,NA,1,<img src='img/tf1_18_T1_ss2_md.jpeg'></img>,0,FALSE,NA,sub124
NA,html-keyboard-response,49,268438,0.0-10.0-0.18,"""event"",""trial"",""time""
""fullscreenenter"",""0"",""2878""
","
","
","""event"",""trial"",""time""
""fullscreenenter"",""0"",""2878""
","
",null,"<div style=""font-size:60px;"">+</div>",NA,null,fixation,2020-06-29T23:15:34Z,NA,NA,NA,NA,NA,sub124
NA,mars-trial,50,273142,0.0-10.0-1.18,"""event"",""trial"",""time""
""fullscreenenter"",""0"",""2878""
","
","
","""event"",""trial"",""time""
""fullscreenenter"",""0"",""2878""
","
",4097.47500019148,<img style='border: 4px solid darkgrey;' src='img/tf1_19_M_ss3.jpeg'></img>,0,NA,exp,NA,3,<img src='img/tf1_19_T1_ss3_md.jpeg'></img>,0,FALSE,NA,sub124
NA,html-keyboard-response,51,273643,0.0-10.0-0.19,"""event"",""trial"",""time""
""fullscreenenter"",""0"",""2878""
","
","
","""event"",""trial"",""time""
""fullscreenenter"",""0"",""2878""
","
",null,"<div style=""font-size:60px;"">+</div>",NA,null,fixation,2020-06-29T23:15:40Z,NA,NA,NA,NA,NA,sub124
NA,mars-trial,52,303942,0.0-10.0-1.19,"""event"",""trial"",""time""
""fullscreenenter"",""0"",""2878""
","
","
","""event"",""trial"",""time""
""fullscreenenter"",""0"",""2878""
","
",29692.374999867752,<img style='border: 4px solid darkgrey;' src='img/tf1_20_M_ss1.jpeg'></img>,2,NA,exp,NA,3,<img src='img/tf1_20_T1_ss1_md.jpeg'></img>,0,FALSE,NA,sub124
NA,html-keyboard-response,53,304443,0.0-10.0-0.20,"""event"",""trial"",""time""
""fullscreenenter"",""0"",""2878""
","
","
","""event"",""trial"",""time""
""fullscreenenter"",""0"",""2878""
","
",null,"<div style=""font-size:60px;"">+</div>",NA,null,fixation,2020-06-29T23:16:10Z,NA,NA,NA,NA,NA,sub124
NA,mars-trial,54,307232,0.0-10.0-1.20,"""event"",""trial"",""time""
""fullscreenenter"",""0"",""2878""
","
","
","""event"",""trial"",""time""
""fullscreenenter"",""0"",""2878""
","
",2183.130000019446,<img style='border: 4px solid darkgrey;' src='img/tf1_21_M_ss2.jpeg'></img>,2,NA,exp,NA,1,<img src='img/tf1_21_T1_ss2_md.jpeg'></img>,0,FALSE,NA,sub124
NA,html-keyboard-response,55,307734,0.0-10.0-0.21,"""event"",""trial"",""time""
""fullscreenenter"",""0"",""2878""
","
","
","""event"",""trial"",""time""
""fullscreenenter"",""0"",""2878""
","
",null,"<div style=""font-size:60px;"">+</div>",NA,null,fixation,2020-06-29T23:16:14Z,NA,NA,NA,NA,NA,sub124
NA,mars-trial,56,314413,0.0-10.0-1.21,"""event"",""trial"",""time""
""fullscreenenter"",""0"",""2878""
","
","
","""event"",""trial"",""time""
""fullscreenenter"",""0"",""2878""
","
",6073.719999985769,<img style='border: 4px solid darkgrey;' src='img/tf1_22_M_ss3.jpeg'></img>,2,NA,exp,NA,0,<img src='img/tf1_22_T1_ss3_md.jpeg'></img>,0,TRUE,NA,sub124
NA,html-keyboard-response,57,314914,0.0-10.0-0.22,"""event"",""trial"",""time""
""fullscreenenter"",""0"",""2878""
","
","
","""event"",""trial"",""time""
""fullscreenenter"",""0"",""2878""
","
",null,"<div style=""font-size:60px;"">+</div>",NA,null,fixation,2020-06-29T23:16:21Z,NA,NA,NA,NA,NA,sub124
NA,mars-trial,58,323896,0.0-10.0-1.22,"""event"",""trial"",""time""
""fullscreenenter"",""0"",""2878""
","
","
","""event"",""trial"",""time""
""fullscreenenter"",""0"",""2878""
","
",8375.924999825656,<img style='border: 4px solid darkgrey;' src='img/tf1_23_M_ss1.jpeg'></img>,2,NA,exp,NA,2,<img src='img/tf1_23_T1_ss1_md.jpeg'></img>,0,FALSE,NA,sub124
NA,html-keyboard-response,59,324398,0.0-10.0-0.23,"""event"",""trial"",""time""
""fullscreenenter"",""0"",""2878""
","
","
","""event"",""trial"",""time""
""fullscreenenter"",""0"",""2878""
","
",null,"<div style=""font-size:60px;"">+</div>",NA,null,fixation,2020-06-29T23:16:30Z,NA,NA,NA,NA,NA,sub124
NA,mars-trial,60,337057,0.0-10.0-1.23,"""event"",""trial"",""time""
""fullscreenenter"",""0"",""2878""
","
","
","""event"",""trial"",""time""
""fullscreenenter"",""0"",""2878""
","
",12053.760000038892,<img style='border: 4px solid darkgrey;' src='img/tf1_24_M_ss2.jpeg'></img>,0,NA,exp,NA,3,<img src='img/tf1_24_T1_ss2_md.jpeg'></img>,0,FALSE,NA,sub124
NA,html-keyboard-response,61,337558,0.0-10.0-0.24,"""event"",""trial"",""time""
""fullscreenenter"",""0"",""2878""
","
","
","""event"",""trial"",""time""
""fullscreenenter"",""0"",""2878""
","
",null,"<div style=""font-size:60px;"">+</div>",NA,null,fixation,2020-06-29T23:16:44Z,NA,NA,NA,NA,NA,sub124
NA,mars-trial,62,343757,0.0-10.0-1.24,"""event"",""trial"",""time""
""fullscreenenter"",""0"",""2878""
","
","
","""event"",""trial"",""time""
""fullscreenenter"",""0"",""2878""
","
",5593.034999910742,<img style='border: 4px solid darkgrey;' src='img/tf1_25_M_ss3.jpeg'></img>,3,NA,exp,NA,2,<img src='img/tf1_25_T1_ss3_md.jpeg'></img>,0,FALSE,NA,sub124
NA,html-keyboard-response,63,344259,0.0-10.0-0.25,"""event"",""trial"",""time""
""fullscreenenter"",""0"",""2878""
","
","
","""event"",""trial"",""time""
""fullscreenenter"",""0"",""2878""
","
",null,"<div style=""font-size:60px;"">+</div>",NA,null,fixation,2020-06-29T23:16:50Z,NA,NA,NA,NA,NA,sub124
NA,mars-trial,64,347965,0.0-10.0-1.25,"""event"",""trial"",""time""
""fullscreenenter"",""0"",""2878""
","
","
","""event"",""trial"",""time""
""fullscreenenter"",""0"",""2878""
","
",3101.1799999978393,<img style='border: 4px solid darkgrey;' src='img/tf1_26_M_ss1.jpeg'></img>,1,NA,exp,NA,2,<img src='img/tf1_26_T1_ss1_md.jpeg'></img>,0,FALSE,NA,sub124
NA,html-keyboard-response,65,348467,0.0-10.0-0.26,"""event"",""trial"",""time""
""fullscreenenter"",""0"",""2878""
","
","
","""event"",""trial"",""time""
""fullscreenenter"",""0"",""2878""
","
",null,"<div style=""font-size:60px;"">+</div>",NA,null,fixation,2020-06-29T23:16:54Z,NA,NA,NA,NA,NA,sub124
NA,mars-trial,66,353388,0.0-10.0-1.26,"""event"",""trial"",""time""
""fullscreenenter"",""0"",""2878""
","
","
","""event"",""trial"",""time""
""fullscreenenter"",""0"",""2878""
","
",4315.000000176951,<img style='border: 4px solid darkgrey;' src='img/tf1_27_M_ss2.jpeg'></img>,3,NA,exp,NA,2,<img src='img/tf1_27_T1_ss2_md.jpeg'></img>,0,FALSE,NA,sub124
NA,html-keyboard-response,67,353889,0.0-10.0-0.27,"""event"",""trial"",""time""
""fullscreenenter"",""0"",""2878""
","
","
","""event"",""trial"",""time""
""fullscreenenter"",""0"",""2878""
","
",null,"<div style=""font-size:60px;"">+</div>",NA,null,fixation,2020-06-29T23:17:00Z,NA,NA,NA,NA,NA,sub124
NA,mars-trial,68,355703,0.0-10.0-1.27,"""event"",""trial"",""time""
""fullscreenenter"",""0"",""2878""
","
","
","""event"",""trial"",""time""
""fullscreenenter"",""0"",""2878""
","
",1208.809999981895,<img style='border: 4px solid darkgrey;' src='img/tf1_28_M_ss3.jpeg'></img>,3,NA,exp,NA,0,<img src='img/tf1_28_T1_ss3_md.jpeg'></img>,0,TRUE,NA,sub124
NA,html-keyboard-response,69,356205,0.0-10.0-0.28,"""event"",""trial"",""time""
""fullscreenenter"",""0"",""2878""
","
","
","""event"",""trial"",""time""
""fullscreenenter"",""0"",""2878""
","
",null,"<div style=""font-size:60px;"">+</div>",NA,null,fixation,2020-06-29T23:17:02Z,NA,NA,NA,NA,NA,sub124
NA,mars-trial,70,357775,0.0-10.0-1.28,"""event"",""trial"",""time""
""fullscreenenter"",""0"",""2878""
","
","
","""event"",""trial"",""time""
""fullscreenenter"",""0"",""2878""
","
",965.3600000310689,<img style='border: 4px solid darkgrey;' src='img/tf1_29_M_ss1.jpeg'></img>,0,NA,exp,NA,3,<img src='img/tf1_29_T1_ss1_md.jpeg'></img>,0,FALSE,NA,sub124
NA,html-keyboard-response,71,358278,0.0-10.0-0.29,"""event"",""trial"",""time""
""fullscreenenter"",""0"",""2878""
","
","
","""event"",""trial"",""time""
""fullscreenenter"",""0"",""2878""
","
",null,"<div style=""font-size:60px;"">+</div>",NA,null,fixation,2020-06-29T23:17:04Z,NA,NA,NA,NA,NA,sub124
NA,mars-trial,72,361442,0.0-10.0-1.29,"""event"",""trial"",""time""
""fullscreenenter"",""0"",""2878""
","
","
","""event"",""trial"",""time""
""fullscreenenter"",""0"",""2878""
","
",2558.119999943301,<img style='border: 4px solid darkgrey;' src='img/tf1_30_M_ss2.jpeg'></img>,1,NA,exp,NA,0,<img src='img/tf1_30_T1_ss2_md.jpeg'></img>,0,TRUE,NA,sub124
NA,html-keyboard-response,73,361944,0.0-10.0-0.30,"""event"",""trial"",""time""
""fullscreenenter"",""0"",""2878""
","
","
","""event"",""trial"",""time""
""fullscreenenter"",""0"",""2878""
","
",null,"<div style=""font-size:60px;"">+</div>",NA,null,fixation,2020-06-29T23:17:08Z,NA,NA,NA,NA,NA,sub124
NA,mars-trial,74,372645,0.0-10.0-1.30,"""event"",""trial"",""time""
""fullscreenenter"",""0"",""2878""
","
","
","""event"",""trial"",""time""
""fullscreenenter"",""0"",""2878""
","
",10096.24999994412,<img style='border: 4px solid darkgrey;' src='img/tf1_31_M_ss3.jpeg'></img>,3,NA,exp,NA,0,<img src='img/tf1_31_T1_ss3_md.jpeg'></img>,0,TRUE,NA,sub124
NA,html-keyboard-response,75,373146,0.0-10.0-0.31,"""event"",""trial"",""time""
""fullscreenenter"",""0"",""2878""
","
","
","""event"",""trial"",""time""
""fullscreenenter"",""0"",""2878""
","
",null,"<div style=""font-size:60px;"">+</div>",NA,null,fixation,2020-06-29T23:17:19Z,NA,NA,NA,NA,NA,sub124
NA,mars-trial,76,386110,0.0-10.0-1.31,"""event"",""trial"",""time""
""fullscreenenter"",""0"",""2878""
","
","
","""event"",""trial"",""time""
""fullscreenenter"",""0"",""2878""
","
",12357.559999916703,<img style='border: 4px solid darkgrey;' src='img/tf1_32_M_ss1.jpeg'></img>,1,NA,exp,NA,1,<img src='img/tf1_32_T1_ss1_md.jpeg'></img>,0,FALSE,NA,sub124
NA,html-keyboard-response,77,386611,0.0-10.0-0.32,"""event"",""trial"",""time""
""fullscreenenter"",""0"",""2878""
","
","
","""event"",""trial"",""time""
""fullscreenenter"",""0"",""2878""
","
",null,"<div style=""font-size:60px;"">+</div>",NA,null,fixation,2020-06-29T23:17:33Z,NA,NA,NA,NA,NA,sub124
NA,mars-trial,78,389398,0.0-10.0-1.32,"""event"",""trial"",""time""
""fullscreenenter"",""0"",""2878""
","
","
","""event"",""trial"",""time""
""fullscreenenter"",""0"",""2878""
","
",2180.9399998746812,<img style='border: 4px solid darkgrey;' src='img/tf1_33_M_ss2.jpeg'></img>,0,NA,exp,NA,2,<img src='img/tf1_33_T1_ss2_md.jpeg'></img>,0,FALSE,NA,sub124
NA,html-keyboard-response,79,389901,0.0-10.0-0.33,"""event"",""trial"",""time""
""fullscreenenter"",""0"",""2878""
","
","
","""event"",""trial"",""time""
""fullscreenenter"",""0"",""2878""
","
",null,"<div style=""font-size:60px;"">+</div>",NA,null,fixation,2020-06-29T23:17:36Z,NA,NA,NA,NA,NA,sub124
NA,mars-trial,80,400471,0.0-10.0-1.33,"""event"",""trial"",""time""
""fullscreenenter"",""0"",""2878""
","
","
","""event"",""trial"",""time""
""fullscreenenter"",""0"",""2878""
","
",9965.3849999886,<img style='border: 4px solid darkgrey;' src='img/tf1_34_M_ss3.jpeg'></img>,2,NA,exp,NA,1,<img src='img/tf1_34_T1_ss3_md.jpeg'></img>,0,FALSE,NA,sub124
NA,html-keyboard-response,81,400972,0.0-10.0-0.34,"""event"",""trial"",""time""
""fullscreenenter"",""0"",""2878""
","
","
","""event"",""trial"",""time""
""fullscreenenter"",""0"",""2878""
","
",null,"<div style=""font-size:60px;"">+</div>",NA,null,fixation,2020-06-29T23:17:47Z,NA,NA,NA,NA,NA,sub124
NA,mars-trial,82,407670,0.0-10.0-1.34,"""event"",""trial"",""time""
""fullscreenenter"",""0"",""2878""
","
","
","""event"",""trial"",""time""
""fullscreenenter"",""0"",""2878""
","
",6092.085000127554,<img style='border: 4px solid darkgrey;' src='img/tf1_35_M_ss1.jpeg'></img>,0,NA,exp,NA,1,<img src='img/tf1_35_T1_ss1_md.jpeg'></img>,0,FALSE,NA,sub124
NA,html-keyboard-response,83,408172,0.0-10.0-0.35,"""event"",""trial"",""time""
""fullscreenenter"",""0"",""2878""
","
","
","""event"",""trial"",""time""
""fullscreenenter"",""0"",""2878""
","
",null,"<div style=""font-size:60px;"">+</div>",NA,null,fixation,2020-06-29T23:17:54Z,NA,NA,NA,NA,NA,sub124
NA,mars-trial,84,417771,0.0-10.0-1.35,"""event"",""trial"",""time""
""fullscreenenter"",""0"",""2878""
","
","
","""event"",""trial"",""time""
""fullscreenenter"",""0"",""2878""
","
",8994.195000035688,<img style='border: 4px solid darkgrey;' src='img/tf1_36_M_ss2.jpeg'></img>,2,NA,exp,NA,0,<img src='img/tf1_36_T1_ss2_md.jpeg'></img>,0,TRUE,NA,sub124
NA,html-keyboard-response,85,418274,0.0-10.0-0.36,"""event"",""trial"",""time""
""fullscreenenter"",""0"",""2878""
","
","
","""event"",""trial"",""time""
""fullscreenenter"",""0"",""2878""
","
",null,"<div style=""font-size:60px;"">+</div>",NA,null,fixation,2020-06-29T23:18:04Z,NA,NA,NA,NA,NA,sub124
NA,mars-trial,86,435298,0.0-10.0-1.36,"""event"",""trial"",""time""
""fullscreenenter"",""0"",""2878""
","
","
","""event"",""trial"",""time""
""fullscreenenter"",""0"",""2878""
","
",16417.824999894947,<img style='border: 4px solid darkgrey;' src='img/tf1_37_M_ss3.jpeg'></img>,3,NA,exp,NA,1,<img src='img/tf1_37_T1_ss3_md.jpeg'></img>,0,FALSE,NA,sub124
NA,html-keyboard-response,87,435800,0.0-10.0-0.37,"""event"",""trial"",""time""
""fullscreenenter"",""0"",""2878""
","
","
","""event"",""trial"",""time""
""fullscreenenter"",""0"",""2878""
","
",null,"<div style=""font-size:60px;"">+</div>",NA,null,fixation,2020-06-29T23:18:22Z,NA,NA,NA,NA,NA,sub124
NA,mars-trial,88,444081,0.0-10.0-1.37,"""event"",""trial"",""time""
""fullscreenenter"",""0"",""2878""
","
","
","""event"",""trial"",""time""
""fullscreenenter"",""0"",""2878""
","
",7676.59500008449,<img style='border: 4px solid darkgrey;' src='img/tf1_38_M_ss1.jpeg'></img>,2,NA,exp,NA,0,<img src='img/tf1_38_T1_ss1_md.jpeg'></img>,0,TRUE,NA,sub124
NA,html-keyboard-response,89,444583,0.0-10.0-0.38,"""event"",""trial"",""time""
""fullscreenenter"",""0"",""2878""
","
","
","""event"",""trial"",""time""
""fullscreenenter"",""0"",""2878""
","
",null,"<div style=""font-size:60px;"">+</div>",NA,null,fixation,2020-06-29T23:18:31Z,NA,NA,NA,NA,NA,sub124
NA,mars-trial,90,456278,0.0-10.0-1.38,"""event"",""trial"",""time""
""fullscreenenter"",""0"",""2878""
","
","
","""event"",""trial"",""time""
""fullscreenenter"",""0"",""2878""
","
",11089.679999975488,<img style='border: 4px solid darkgrey;' src='img/tf1_39_M_ss2.jpeg'></img>,1,NA,exp,NA,0,<img src='img/tf1_39_T1_ss2_md.jpeg'></img>,0,TRUE,NA,sub124
NA,html-keyboard-response,91,456780,0.0-10.0-0.39,"""event"",""trial"",""time""
""fullscreenenter"",""0"",""2878""
","
","
","""event"",""trial"",""time""
""fullscreenenter"",""0"",""2878""
","
",null,"<div style=""font-size:60px;"">+</div>",NA,null,fixation,2020-06-29T23:18:43Z,NA,NA,NA,NA,NA,sub124
NA,mars-trial,92,464674,0.0-10.0-1.39,"""event"",""trial"",""time""
""fullscreenenter"",""0"",""2878""
","
","
","""event"",""trial"",""time""
""fullscreenenter"",""0"",""2878""
","
",7288.694999879226,<img style='border: 4px solid darkgrey;' src='img/tf1_40_M_ss3.jpeg'></img>,1,NA,exp,NA,3,<img src='img/tf1_40_T1_ss3_md.jpeg'></img>,0,FALSE,NA,sub124
NA,html-keyboard-response,93,465176,0.0-10.0-0.40,"""event"",""trial"",""time""
""fullscreenenter"",""0"",""2878""
","
","
","""event"",""trial"",""time""
""fullscreenenter"",""0"",""2878""
","
",null,"<div style=""font-size:60px;"">+</div>",NA,null,fixation,2020-06-29T23:18:51Z,NA,NA,NA,NA,NA,sub124
NA,mars-trial,94,470978,0.0-10.0-1.40,"""event"",""trial"",""time""
""fullscreenenter"",""0"",""2878""
","
","
","""event"",""trial"",""time""
""fullscreenenter"",""0"",""2878""
","
",5197.97999993898,<img style='border: 4px solid darkgrey;' src='img/tf1_41_M_ss1.jpeg'></img>,0,NA,exp,NA,0,<img src='img/tf1_41_T1_ss1_md.jpeg'></img>,0,TRUE,NA,sub124
NA,html-keyboard-response,95,471480,0.0-10.0-0.41,"""event"",""trial"",""time""
""fullscreenenter"",""0"",""2878""
","
","
","""event"",""trial"",""time""
""fullscreenenter"",""0"",""2878""
","
",null,"<div style=""font-size:60px;"">+</div>",NA,null,fixation,2020-06-29T23:18:57Z,NA,NA,NA,NA,NA,sub124
NA,mars-trial,96,492307,0.0-10.0-1.41,"""event"",""trial"",""time""
""fullscreenenter"",""0"",""2878""
","
","
","""event"",""trial"",""time""
""fullscreenenter"",""0"",""2878""
","
",20222.530000144616,<img style='border: 4px solid darkgrey;' src='img/tf1_42_M_ss2.jpeg'></img>,1,NA,exp,NA,0,<img src='img/tf1_42_T1_ss2_md.jpeg'></img>,0,TRUE,NA,sub124
NA,html-keyboard-response,97,492809,0.0-10.0-0.42,"""event"",""trial"",""time""
""fullscreenenter"",""0"",""2878""
","
","
","""event"",""trial"",""time""
""fullscreenenter"",""0"",""2878""
","
",null,"<div style=""font-size:60px;"">+</div>",NA,null,fixation,2020-06-29T23:19:19Z,NA,NA,NA,NA,NA,sub124
NA,mars-trial,98,496505,0.0-10.0-1.42,"""event"",""trial"",""time""
""fullscreenenter"",""0"",""2878""
","
","
","""event"",""trial"",""time""
""fullscreenenter"",""0"",""2878""
","
",3091.1349998787045,<img style='border: 4px solid darkgrey;' src='img/tf1_43_M_ss3.jpeg'></img>,2,NA,exp,NA,0,<img src='img/tf1_43_T1_ss3_md.jpeg'></img>,0,TRUE,NA,sub124
NA,html-keyboard-response,99,497007,0.0-10.0-0.43,"""event"",""trial"",""time""
""fullscreenenter"",""0"",""2878""
","
","
","""event"",""trial"",""time""
""fullscreenenter"",""0"",""2878""
","
",null,"<div style=""font-size:60px;"">+</div>",NA,null,fixation,2020-06-29T23:19:23Z,NA,NA,NA,NA,NA,sub124
NA,mars-trial,100,508638,0.0-10.0-1.43,"""event"",""trial"",""time""
""fullscreenenter"",""0"",""2878""
","
","
","""event"",""trial"",""time""
""fullscreenenter"",""0"",""2878""
","
",11026.31500014104,<img style='border: 4px solid darkgrey;' src='img/tf1_44_M_ss1.jpeg'></img>,2,NA,exp,NA,3,<img src='img/tf1_44_T1_ss1_md.jpeg'></img>,0,FALSE,NA,sub124
NA,html-keyboard-response,101,509141,0.0-10.0-0.44,"""event"",""trial"",""time""
""fullscreenenter"",""0"",""2878""
","
","
","""event"",""trial"",""time""
""fullscreenenter"",""0"",""2878""
","
",null,"<div style=""font-size:60px;"">+</div>",NA,null,fixation,2020-06-29T23:19:35Z,NA,NA,NA,NA,NA,sub124
NA,mars-trial,102,513606,0.0-10.0-1.44,"""event"",""trial"",""time""
""fullscreenenter"",""0"",""2878""
","
","
","""event"",""trial"",""time""
""fullscreenenter"",""0"",""2878""
","
",3860.5199998710304,<img style='border: 4px solid darkgrey;' src='img/tf1_45_M_ss2.jpeg'></img>,0,NA,exp,NA,1,<img src='img/tf1_45_T1_ss2_md.jpeg'></img>,0,FALSE,NA,sub124
NA,html-keyboard-response,103,514108,0.0-10.0-0.45,"""event"",""trial"",""time""
""fullscreenenter"",""0"",""2878""
","
","
","""event"",""trial"",""time""
""fullscreenenter"",""0"",""2878""
","
",null,"<div style=""font-size:60px;"">+</div>",NA,null,fixation,2020-06-29T23:19:40Z,NA,NA,NA,NA,NA,sub124
NA,mars-trial,104,528162,0.0-10.0-1.45,"""event"",""trial"",""time""
""fullscreenenter"",""0"",""2878""
","
","
","""event"",""trial"",""time""
""fullscreenenter"",""0"",""2878""
","
",13449.994999915361,<img style='border: 4px solid darkgrey;' src='img/tf1_46_M_ss3.jpeg'></img>,0,NA,exp,NA,1,<img src='img/tf1_46_T1_ss3_md.jpeg'></img>,0,FALSE,NA,sub124
NA,html-keyboard-response,105,528665,0.0-10.0-0.46,"""event"",""trial"",""time""
""fullscreenenter"",""0"",""2878""
","
","
","""event"",""trial"",""time""
""fullscreenenter"",""0"",""2878""
","
",null,"<div style=""font-size:60px;"">+</div>",NA,null,fixation,2020-06-29T23:19:55Z,NA,NA,NA,NA,NA,sub124
NA,mars-trial,106,534825,0.0-10.0-1.46,"""event"",""trial"",""time""
""fullscreenenter"",""0"",""2878""
","
","
","""event"",""trial"",""time""
""fullscreenenter"",""0"",""2878""
","
",5554.575000191107,<img style='border: 4px solid darkgrey;' src='img/tf1_47_M_ss1.jpeg'></img>,0,NA,exp,NA,0,<img src='img/tf1_47_T1_ss1_md.jpeg'></img>,0,TRUE,NA,sub124
NA,html-keyboard-response,107,535326,0.0-10.0-0.47,"""event"",""trial"",""time""
""fullscreenenter"",""0"",""2878""
","
","
","""event"",""trial"",""time""
""fullscreenenter"",""0"",""2878""
","
",null,"<div style=""font-size:60px;"">+</div>",NA,null,fixation,2020-06-29T23:20:01Z,NA,NA,NA,NA,NA,sub124
NA,mars-trial,108,538442,0.0-10.0-1.47,"""event"",""trial"",""time""
""fullscreenenter"",""0"",""2878""
","
","
","""event"",""trial"",""time""
""fullscreenenter"",""0"",""2878""
","
",NA,NA,NA,NA,exp,NA,NA,<img src='img/tf1_48_T1_ss2_md.jpeg'></img>,0,FALSE,NA,sub124
NA,html-keyboard-response,109,538944,0.0-10.0-0.48,"""event"",""trial"",""time""
""fullscreenenter"",""0"",""2878""
","
","
","""event"",""trial"",""time""
""fullscreenenter"",""0"",""2878""
","
",null,"<div style=""font-size:60px;"">+</div>",NA,null,fixation,2020-06-29T23:20:05Z,NA,NA,NA,NA,NA,sub124
NA,audio-button-response,110,542941,0.0-11.0,"""event"",""trial"",""time""
""fullscreenenter"",""0"",""2878""
","
","
","""event"",""trial"",""time""
""fullscreenenter"",""0"",""2878""
","
",3894.71000013873,audio/mars_instructions_slide5.wav,0,NA,NA,NA,NA,NA,NA,NA,NA,sub124
