success,trial_type,trial_index,time_elapsed,internal_node_id,interactions,blur_events,focus_events,fullscreenenter_events,fullscreenexit_events,rt,stimulus,button_pressed,key_press,part,timestamp,unshuffled_button,correct_response,correct_button,correct,value,subject_id
TRUE,fullscreen,0,6121,0.0-0.0,"""event"",""trial"",""time""
""blur"",""0"",""0""
""focus"",""0"",""0""
""blur"",""0"",""0""
""focus"",""0"",""2269""
""fullscreenenter"",""0"",""5176""
","""event"",""trial"",""time""
""blur"",""0"",""0""
""blur"",""0"",""0""
","""event"",""trial"",""time""
""focus"",""0"",""0""
""focus"",""0"",""2269""
","""event"",""trial"",""time""
""fullscreenenter"",""0"",""5176""
","
",NA,NA,NA,NA,NA,NA,NA,NA,NA,NA,NA,sub66
NA,pavlovia,1,6132,0.0-1.0,"""event"",""trial"",""time""
""blur"",""0"",""0""
""focus"",""0"",""0""
""blur"",""0"",""0""
""focus"",""0"",""2269""
""fullscreenenter"",""0"",""5176""
","""event"",""trial"",""time""
""blur"",""0"",""0""
""blur"",""0"",""0""
","""event"",""trial"",""time""
""focus"",""0"",""0""
""focus"",""0"",""2269""
","""event"",""trial"",""time""
""fullscreenenter"",""0"",""5176""
","
",NA,NA,NA,NA,NA,NA,NA,NA,NA,NA,NA,sub66
NA,html-button-response,2,7729,0.0-2.0,"""event"",""trial"",""time""
""blur"",""0"",""0""
""focus"",""0"",""0""
""blur"",""0"",""0""
""focus"",""0"",""2269""
""fullscreenenter"",""0"",""5176""
""blur"",""3"",""10609""
""focus"",""3"",""14041""
","""event"",""trial"",""time""
""blur"",""0"",""0""
""blur"",""0"",""0""
""blur"",""3"",""10609""
","""event"",""trial"",""time""
""focus"",""0"",""0""
""focus"",""0"",""2269""
""focus"",""3"",""14041""
","""event"",""trial"",""time""
""fullscreenenter"",""0"",""5176""
","
",1594.1299999976764,<p>Welcome! Press START to begin.</p><br>,0,NA,NA,NA,NA,NA,NA,NA,NA,sub66
NA,audio-button-response,3,27228,0.0-3.0,"""event"",""trial"",""time""
""blur"",""0"",""0""
""focus"",""0"",""0""
""blur"",""0"",""0""
""focus"",""0"",""2269""
""fullscreenenter"",""0"",""5176""
""blur"",""3"",""10609""
""focus"",""3"",""14041""
""blur"",""4"",""35505""
""focus"",""4"",""38045""
","""event"",""trial"",""time""
""blur"",""0"",""0""
""blur"",""0"",""0""
""blur"",""3"",""10609""
""blur"",""4"",""35505""
","""event"",""trial"",""time""
""focus"",""0"",""0""
""focus"",""0"",""2269""
""focus"",""3"",""14041""
""focus"",""4"",""38045""
","""event"",""trial"",""time""
""fullscreenenter"",""0"",""5176""
","
",19494.000000006054,audio/mars_instructions_slide2.wav,0,NA,NA,NA,NA,NA,NA,NA,NA,sub66
NA,audio-button-response,4,43703,0.0-4.0,"""event"",""trial"",""time""
""blur"",""0"",""0""
""focus"",""0"",""0""
""blur"",""0"",""0""
""focus"",""0"",""2269""
""fullscreenenter"",""0"",""5176""
""blur"",""3"",""10609""
""focus"",""3"",""14041""
""blur"",""4"",""35505""
""focus"",""4"",""38045""
","""event"",""trial"",""time""
""blur"",""0"",""0""
""blur"",""0"",""0""
""blur"",""3"",""10609""
""blur"",""4"",""35505""
","""event"",""trial"",""time""
""focus"",""0"",""0""
""focus"",""0"",""2269""
""focus"",""3"",""14041""
""focus"",""4"",""38045""
","""event"",""trial"",""time""
""fullscreenenter"",""0"",""5176""
","
",16472.654999990482,audio/mars_instructions_slide3.wav,0,NA,NA,NA,NA,NA,NA,NA,NA,sub66
NA,html-keyboard-response,5,44207,0.0-5.0-0.0,"""event"",""trial"",""time""
""blur"",""0"",""0""
""focus"",""0"",""0""
""blur"",""0"",""0""
""focus"",""0"",""2269""
""fullscreenenter"",""0"",""5176""
""blur"",""3"",""10609""
""focus"",""3"",""14041""
""blur"",""4"",""35505""
""focus"",""4"",""38045""
","""event"",""trial"",""time""
""blur"",""0"",""0""
""blur"",""0"",""0""
""blur"",""3"",""10609""
""blur"",""4"",""35505""
","""event"",""trial"",""time""
""focus"",""0"",""0""
""focus"",""0"",""2269""
""focus"",""3"",""14041""
""focus"",""4"",""38045""
","""event"",""trial"",""time""
""fullscreenenter"",""0"",""5176""
","
",null,"<div style=""font-size:60px;"">+</div>",NA,null,fixation,2020-06-16T18:13:17Z,NA,NA,NA,NA,NA,sub66
NA,mars-trial,6,57342,0.0-5.0-1.0,"""event"",""trial"",""time""
""blur"",""0"",""0""
""focus"",""0"",""0""
""blur"",""0"",""0""
""focus"",""0"",""2269""
""fullscreenenter"",""0"",""5176""
""blur"",""3"",""10609""
""focus"",""3"",""14041""
""blur"",""4"",""35505""
""focus"",""4"",""38045""
","""event"",""trial"",""time""
""blur"",""0"",""0""
""blur"",""0"",""0""
""blur"",""3"",""10609""
""blur"",""4"",""35505""
","""event"",""trial"",""time""
""focus"",""0"",""0""
""focus"",""0"",""2269""
""focus"",""3"",""14041""
""focus"",""4"",""38045""
","""event"",""trial"",""time""
""fullscreenenter"",""0"",""5176""
","
",11023.059999992256,<img style='border: 4px solid darkgrey;' src='practice/pt1_M1.png'></img>,0,NA,practice,NA,2,<img src='practice/pt1_T1.png'></img>,0,FALSE,NA,sub66
NA,html-keyboard-response,7,57849,0.0-5.1-0.1,"""event"",""trial"",""time""
""blur"",""0"",""0""
""focus"",""0"",""0""
""blur"",""0"",""0""
""focus"",""0"",""2269""
""fullscreenenter"",""0"",""5176""
""blur"",""3"",""10609""
""focus"",""3"",""14041""
""blur"",""4"",""35505""
""focus"",""4"",""38045""
","""event"",""trial"",""time""
""blur"",""0"",""0""
""blur"",""0"",""0""
""blur"",""3"",""10609""
""blur"",""4"",""35505""
","""event"",""trial"",""time""
""focus"",""0"",""0""
""focus"",""0"",""2269""
""focus"",""3"",""14041""
""focus"",""4"",""38045""
","""event"",""trial"",""time""
""fullscreenenter"",""0"",""5176""
","
",null,"<div style=""font-size:60px;"">+</div>",NA,null,fixation,2020-06-16T18:13:31Z,NA,NA,NA,NA,NA,sub66
NA,mars-trial,8,63573,0.0-5.1-1.1,"""event"",""trial"",""time""
""blur"",""0"",""0""
""focus"",""0"",""0""
""blur"",""0"",""0""
""focus"",""0"",""2269""
""fullscreenenter"",""0"",""5176""
""blur"",""3"",""10609""
""focus"",""3"",""14041""
""blur"",""4"",""35505""
""focus"",""4"",""38045""
","""event"",""trial"",""time""
""blur"",""0"",""0""
""blur"",""0"",""0""
""blur"",""3"",""10609""
""blur"",""4"",""35505""
","""event"",""trial"",""time""
""focus"",""0"",""0""
""focus"",""0"",""2269""
""focus"",""3"",""14041""
""focus"",""4"",""38045""
","""event"",""trial"",""time""
""fullscreenenter"",""0"",""5176""
","
",3616.7849999910686,<img style='border: 4px solid darkgrey;' src='practice/pt1_M1.png'></img>,2,NA,practice,NA,0,<img src='practice/pt1_T1.png'></img>,0,TRUE,NA,sub66
NA,html-keyboard-response,9,64077,0.0-6.0-0.0,"""event"",""trial"",""time""
""blur"",""0"",""0""
""focus"",""0"",""0""
""blur"",""0"",""0""
""focus"",""0"",""2269""
""fullscreenenter"",""0"",""5176""
""blur"",""3"",""10609""
""focus"",""3"",""14041""
""blur"",""4"",""35505""
""focus"",""4"",""38045""
","""event"",""trial"",""time""
""blur"",""0"",""0""
""blur"",""0"",""0""
""blur"",""3"",""10609""
""blur"",""4"",""35505""
","""event"",""trial"",""time""
""focus"",""0"",""0""
""focus"",""0"",""2269""
""focus"",""3"",""14041""
""focus"",""4"",""38045""
","""event"",""trial"",""time""
""fullscreenenter"",""0"",""5176""
","
",null,"<div style=""font-size:60px;"">+</div>",NA,null,fixation,2020-06-16T18:13:37Z,NA,NA,NA,NA,NA,sub66
NA,mars-trial,10,68306,0.0-6.0-1.0,"""event"",""trial"",""time""
""blur"",""0"",""0""
""focus"",""0"",""0""
""blur"",""0"",""0""
""focus"",""0"",""2269""
""fullscreenenter"",""0"",""5176""
""blur"",""3"",""10609""
""focus"",""3"",""14041""
""blur"",""4"",""35505""
""focus"",""4"",""38045""
","""event"",""trial"",""time""
""blur"",""0"",""0""
""blur"",""0"",""0""
""blur"",""3"",""10609""
""blur"",""4"",""35505""
","""event"",""trial"",""time""
""focus"",""0"",""0""
""focus"",""0"",""2269""
""focus"",""3"",""14041""
""focus"",""4"",""38045""
","""event"",""trial"",""time""
""fullscreenenter"",""0"",""5176""
","
",2120.88999999105,<img style='border: 4px solid darkgrey;' src='practice/pt2_M1.png'></img>,2,NA,practice,NA,0,<img src='practice/pt2_T1.png'></img>,0,TRUE,NA,sub66
NA,html-keyboard-response,11,68808,0.0-7.0-0.0,"""event"",""trial"",""time""
""blur"",""0"",""0""
""focus"",""0"",""0""
""blur"",""0"",""0""
""focus"",""0"",""2269""
""fullscreenenter"",""0"",""5176""
""blur"",""3"",""10609""
""focus"",""3"",""14041""
""blur"",""4"",""35505""
""focus"",""4"",""38045""
","""event"",""trial"",""time""
""blur"",""0"",""0""
""blur"",""0"",""0""
""blur"",""3"",""10609""
""blur"",""4"",""35505""
","""event"",""trial"",""time""
""focus"",""0"",""0""
""focus"",""0"",""2269""
""focus"",""3"",""14041""
""focus"",""4"",""38045""
","""event"",""trial"",""time""
""fullscreenenter"",""0"",""5176""
","
",null,"<div style=""font-size:60px;"">+</div>",NA,null,fixation,2020-06-16T18:13:42Z,NA,NA,NA,NA,NA,sub66
NA,mars-trial,12,72279,0.0-7.0-1.0,"""event"",""trial"",""time""
""blur"",""0"",""0""
""focus"",""0"",""0""
""blur"",""0"",""0""
""focus"",""0"",""2269""
""fullscreenenter"",""0"",""5176""
""blur"",""3"",""10609""
""focus"",""3"",""14041""
""blur"",""4"",""35505""
""focus"",""4"",""38045""
","""event"",""trial"",""time""
""blur"",""0"",""0""
""blur"",""0"",""0""
""blur"",""3"",""10609""
""blur"",""4"",""35505""
","""event"",""trial"",""time""
""focus"",""0"",""0""
""focus"",""0"",""2269""
""focus"",""3"",""14041""
""focus"",""4"",""38045""
","""event"",""trial"",""time""
""fullscreenenter"",""0"",""5176""
","
",1362.6300000032643,<img style='border: 4px solid darkgrey;' src='practice/pt3_M1.png'></img>,3,NA,practice,NA,0,<img src='practice/pt3_T1.png'></img>,0,TRUE,NA,sub66
NA,audio-button-response,13,75882,0.0-8.0,"""event"",""trial"",""time""
""blur"",""0"",""0""
""focus"",""0"",""0""
""blur"",""0"",""0""
""focus"",""0"",""2269""
""fullscreenenter"",""0"",""5176""
""blur"",""3"",""10609""
""focus"",""3"",""14041""
""blur"",""4"",""35505""
""focus"",""4"",""38045""
","""event"",""trial"",""time""
""blur"",""0"",""0""
""blur"",""0"",""0""
""blur"",""3"",""10609""
""blur"",""4"",""35505""
","""event"",""trial"",""time""
""focus"",""0"",""0""
""focus"",""0"",""2269""
""focus"",""3"",""14041""
""focus"",""4"",""38045""
","""event"",""trial"",""time""
""fullscreenenter"",""0"",""5176""
","
",3598.715000000084,audio/mars_instructions_slide4.wav,0,NA,NA,NA,NA,NA,NA,NA,NA,sub66
NA,call-function,14,75884,0.0-9.0,"""event"",""trial"",""time""
""blur"",""0"",""0""
""focus"",""0"",""0""
""blur"",""0"",""0""
""focus"",""0"",""2269""
""fullscreenenter"",""0"",""5176""
""blur"",""3"",""10609""
""focus"",""3"",""14041""
""blur"",""4"",""35505""
""focus"",""4"",""38045""
","""event"",""trial"",""time""
""blur"",""0"",""0""
""blur"",""0"",""0""
""blur"",""3"",""10609""
""blur"",""4"",""35505""
","""event"",""trial"",""time""
""focus"",""0"",""0""
""focus"",""0"",""2269""
""focus"",""3"",""14041""
""focus"",""4"",""38045""
","""event"",""trial"",""time""
""fullscreenenter"",""0"",""5176""
","
",NA,NA,NA,NA,NA,NA,NA,NA,NA,NA,NA,sub66
NA,html-keyboard-response,15,76385,0.0-10.0-0.0,"""event"",""trial"",""time""
""blur"",""0"",""0""
""focus"",""0"",""0""
""blur"",""0"",""0""
""focus"",""0"",""2269""
""fullscreenenter"",""0"",""5176""
""blur"",""3"",""10609""
""focus"",""3"",""14041""
""blur"",""4"",""35505""
""focus"",""4"",""38045""
","""event"",""trial"",""time""
""blur"",""0"",""0""
""blur"",""0"",""0""
""blur"",""3"",""10609""
""blur"",""4"",""35505""
","""event"",""trial"",""time""
""focus"",""0"",""0""
""focus"",""0"",""2269""
""focus"",""3"",""14041""
""focus"",""4"",""38045""
","""event"",""trial"",""time""
""fullscreenenter"",""0"",""5176""
","
",null,"<div style=""font-size:60px;"">+</div>",NA,null,fixation,2020-06-16T18:13:49Z,NA,NA,NA,NA,NA,sub66
NA,mars-trial,16,78843,0.0-10.0-1.0,"""event"",""trial"",""time""
""blur"",""0"",""0""
""focus"",""0"",""0""
""blur"",""0"",""0""
""focus"",""0"",""2269""
""fullscreenenter"",""0"",""5176""
""blur"",""3"",""10609""
""focus"",""3"",""14041""
""blur"",""4"",""35505""
""focus"",""4"",""38045""
","""event"",""trial"",""time""
""blur"",""0"",""0""
""blur"",""0"",""0""
""blur"",""3"",""10609""
""blur"",""4"",""35505""
","""event"",""trial"",""time""
""focus"",""0"",""0""
""focus"",""0"",""2269""
""focus"",""3"",""14041""
""focus"",""4"",""38045""
","""event"",""trial"",""time""
""fullscreenenter"",""0"",""5176""
","
",1849.4299999874784,<img style='border: 4px solid darkgrey;' src='img/tf1_1_M_ss3.jpeg'></img>,2,NA,exp,NA,0,<img src='img/tf1_1_T1_ss3_md.jpeg'></img>,0,TRUE,NA,sub66
NA,html-keyboard-response,17,79347,0.0-10.0-0.1,"""event"",""trial"",""time""
""blur"",""0"",""0""
""focus"",""0"",""0""
""blur"",""0"",""0""
""focus"",""0"",""2269""
""fullscreenenter"",""0"",""5176""
""blur"",""3"",""10609""
""focus"",""3"",""14041""
""blur"",""4"",""35505""
""focus"",""4"",""38045""
","""event"",""trial"",""time""
""blur"",""0"",""0""
""blur"",""0"",""0""
""blur"",""3"",""10609""
""blur"",""4"",""35505""
","""event"",""trial"",""time""
""focus"",""0"",""0""
""focus"",""0"",""2269""
""focus"",""3"",""14041""
""focus"",""4"",""38045""
","""event"",""trial"",""time""
""fullscreenenter"",""0"",""5176""
","
",null,"<div style=""font-size:60px;"">+</div>",NA,null,fixation,2020-06-16T18:13:52Z,NA,NA,NA,NA,NA,sub66
NA,mars-trial,18,81935,0.0-10.0-1.1,"""event"",""trial"",""time""
""blur"",""0"",""0""
""focus"",""0"",""0""
""blur"",""0"",""0""
""focus"",""0"",""2269""
""fullscreenenter"",""0"",""5176""
""blur"",""3"",""10609""
""focus"",""3"",""14041""
""blur"",""4"",""35505""
""focus"",""4"",""38045""
","""event"",""trial"",""time""
""blur"",""0"",""0""
""blur"",""0"",""0""
""blur"",""3"",""10609""
""blur"",""4"",""35505""
","""event"",""trial"",""time""
""focus"",""0"",""0""
""focus"",""0"",""2269""
""focus"",""3"",""14041""
""focus"",""4"",""38045""
","""event"",""trial"",""time""
""fullscreenenter"",""0"",""5176""
","
",1980.4949999961536,<img style='border: 4px solid darkgrey;' src='img/tf1_2_M_ss1.jpeg'></img>,1,NA,exp,NA,0,<img src='img/tf1_2_T1_ss1_md.jpeg'></img>,0,TRUE,NA,sub66
NA,html-keyboard-response,19,82439,0.0-10.0-0.2,"""event"",""trial"",""time""
""blur"",""0"",""0""
""focus"",""0"",""0""
""blur"",""0"",""0""
""focus"",""0"",""2269""
""fullscreenenter"",""0"",""5176""
""blur"",""3"",""10609""
""focus"",""3"",""14041""
""blur"",""4"",""35505""
""focus"",""4"",""38045""
","""event"",""trial"",""time""
""blur"",""0"",""0""
""blur"",""0"",""0""
""blur"",""3"",""10609""
""blur"",""4"",""35505""
","""event"",""trial"",""time""
""focus"",""0"",""0""
""focus"",""0"",""2269""
""focus"",""3"",""14041""
""focus"",""4"",""38045""
","""event"",""trial"",""time""
""fullscreenenter"",""0"",""5176""
","
",null,"<div style=""font-size:60px;"">+</div>",NA,null,fixation,2020-06-16T18:13:55Z,NA,NA,NA,NA,NA,sub66
NA,mars-trial,20,85374,0.0-10.0-1.2,"""event"",""trial"",""time""
""blur"",""0"",""0""
""focus"",""0"",""0""
""blur"",""0"",""0""
""focus"",""0"",""2269""
""fullscreenenter"",""0"",""5176""
""blur"",""3"",""10609""
""focus"",""3"",""14041""
""blur"",""4"",""35505""
""focus"",""4"",""38045""
","""event"",""trial"",""time""
""blur"",""0"",""0""
""blur"",""0"",""0""
""blur"",""3"",""10609""
""blur"",""4"",""35505""
","""event"",""trial"",""time""
""focus"",""0"",""0""
""focus"",""0"",""2269""
""focus"",""3"",""14041""
""focus"",""4"",""38045""
","""event"",""trial"",""time""
""fullscreenenter"",""0"",""5176""
","
",2326.919999992242,<img style='border: 4px solid darkgrey;' src='img/tf1_3_M_ss2.jpeg'></img>,3,NA,exp,NA,0,<img src='img/tf1_3_T1_ss2_md.jpeg'></img>,0,TRUE,NA,sub66
NA,html-keyboard-response,21,85877,0.0-10.0-0.3,"""event"",""trial"",""time""
""blur"",""0"",""0""
""focus"",""0"",""0""
""blur"",""0"",""0""
""focus"",""0"",""2269""
""fullscreenenter"",""0"",""5176""
""blur"",""3"",""10609""
""focus"",""3"",""14041""
""blur"",""4"",""35505""
""focus"",""4"",""38045""
","""event"",""trial"",""time""
""blur"",""0"",""0""
""blur"",""0"",""0""
""blur"",""3"",""10609""
""blur"",""4"",""35505""
","""event"",""trial"",""time""
""focus"",""0"",""0""
""focus"",""0"",""2269""
""focus"",""3"",""14041""
""focus"",""4"",""38045""
","""event"",""trial"",""time""
""fullscreenenter"",""0"",""5176""
","
",null,"<div style=""font-size:60px;"">+</div>",NA,null,fixation,2020-06-16T18:13:59Z,NA,NA,NA,NA,NA,sub66
NA,mars-trial,22,88887,0.0-10.0-1.3,"""event"",""trial"",""time""
""blur"",""0"",""0""
""focus"",""0"",""0""
""blur"",""0"",""0""
""focus"",""0"",""2269""
""fullscreenenter"",""0"",""5176""
""blur"",""3"",""10609""
""focus"",""3"",""14041""
""blur"",""4"",""35505""
""focus"",""4"",""38045""
","""event"",""trial"",""time""
""blur"",""0"",""0""
""blur"",""0"",""0""
""blur"",""3"",""10609""
""blur"",""4"",""35505""
","""event"",""trial"",""time""
""focus"",""0"",""0""
""focus"",""0"",""2269""
""focus"",""3"",""14041""
""focus"",""4"",""38045""
","""event"",""trial"",""time""
""fullscreenenter"",""0"",""5176""
","
",2401.8099999957485,<img style='border: 4px solid darkgrey;' src='img/tf1_4_M_ss3.jpeg'></img>,0,NA,exp,NA,0,<img src='img/tf1_4_T1_ss3_md.jpeg'></img>,0,TRUE,NA,sub66
NA,html-keyboard-response,23,89389,0.0-10.0-0.4,"""event"",""trial"",""time""
""blur"",""0"",""0""
""focus"",""0"",""0""
""blur"",""0"",""0""
""focus"",""0"",""2269""
""fullscreenenter"",""0"",""5176""
""blur"",""3"",""10609""
""focus"",""3"",""14041""
""blur"",""4"",""35505""
""focus"",""4"",""38045""
","""event"",""trial"",""time""
""blur"",""0"",""0""
""blur"",""0"",""0""
""blur"",""3"",""10609""
""blur"",""4"",""35505""
","""event"",""trial"",""time""
""focus"",""0"",""0""
""focus"",""0"",""2269""
""focus"",""3"",""14041""
""focus"",""4"",""38045""
","""event"",""trial"",""time""
""fullscreenenter"",""0"",""5176""
","
",null,"<div style=""font-size:60px;"">+</div>",NA,null,fixation,2020-06-16T18:14:02Z,NA,NA,NA,NA,NA,sub66
NA,mars-trial,24,91311,0.0-10.0-1.4,"""event"",""trial"",""time""
""blur"",""0"",""0""
""focus"",""0"",""0""
""blur"",""0"",""0""
""focus"",""0"",""2269""
""fullscreenenter"",""0"",""5176""
""blur"",""3"",""10609""
""focus"",""3"",""14041""
""blur"",""4"",""35505""
""focus"",""4"",""38045""
","""event"",""trial"",""time""
""blur"",""0"",""0""
""blur"",""0"",""0""
""blur"",""3"",""10609""
""blur"",""4"",""35505""
","""event"",""trial"",""time""
""focus"",""0"",""0""
""focus"",""0"",""2269""
""focus"",""3"",""14041""
""focus"",""4"",""38045""
","""event"",""trial"",""time""
""fullscreenenter"",""0"",""5176""
","
",1314.7350000072038,<img style='border: 4px solid darkgrey;' src='img/tf1_5_M_ss1.jpeg'></img>,0,NA,exp,NA,0,<img src='img/tf1_5_T1_ss1_md.jpeg'></img>,0,TRUE,NA,sub66
NA,html-keyboard-response,25,91814,0.0-10.0-0.5,"""event"",""trial"",""time""
""blur"",""0"",""0""
""focus"",""0"",""0""
""blur"",""0"",""0""
""focus"",""0"",""2269""
""fullscreenenter"",""0"",""5176""
""blur"",""3"",""10609""
""focus"",""3"",""14041""
""blur"",""4"",""35505""
""focus"",""4"",""38045""
","""event"",""trial"",""time""
""blur"",""0"",""0""
""blur"",""0"",""0""
""blur"",""3"",""10609""
""blur"",""4"",""35505""
","""event"",""trial"",""time""
""focus"",""0"",""0""
""focus"",""0"",""2269""
""focus"",""3"",""14041""
""focus"",""4"",""38045""
","""event"",""trial"",""time""
""fullscreenenter"",""0"",""5176""
","
",null,"<div style=""font-size:60px;"">+</div>",NA,null,fixation,2020-06-16T18:14:05Z,NA,NA,NA,NA,NA,sub66
NA,mars-trial,26,99969,0.0-10.0-1.5,"""event"",""trial"",""time""
""blur"",""0"",""0""
""focus"",""0"",""0""
""blur"",""0"",""0""
""focus"",""0"",""2269""
""fullscreenenter"",""0"",""5176""
""blur"",""3"",""10609""
""focus"",""3"",""14041""
""blur"",""4"",""35505""
""focus"",""4"",""38045""
","""event"",""trial"",""time""
""blur"",""0"",""0""
""blur"",""0"",""0""
""blur"",""3"",""10609""
""blur"",""4"",""35505""
","""event"",""trial"",""time""
""focus"",""0"",""0""
""focus"",""0"",""2269""
""focus"",""3"",""14041""
""focus"",""4"",""38045""
","""event"",""trial"",""time""
""fullscreenenter"",""0"",""5176""
","
",7550.145000001066,<img style='border: 4px solid darkgrey;' src='img/tf1_6_M_ss2.jpeg'></img>,2,NA,exp,NA,0,<img src='img/tf1_6_T1_ss2_md.jpeg'></img>,0,TRUE,NA,sub66
NA,html-keyboard-response,27,100473,0.0-10.0-0.6,"""event"",""trial"",""time""
""blur"",""0"",""0""
""focus"",""0"",""0""
""blur"",""0"",""0""
""focus"",""0"",""2269""
""fullscreenenter"",""0"",""5176""
""blur"",""3"",""10609""
""focus"",""3"",""14041""
""blur"",""4"",""35505""
""focus"",""4"",""38045""
","""event"",""trial"",""time""
""blur"",""0"",""0""
""blur"",""0"",""0""
""blur"",""3"",""10609""
""blur"",""4"",""35505""
","""event"",""trial"",""time""
""focus"",""0"",""0""
""focus"",""0"",""2269""
""focus"",""3"",""14041""
""focus"",""4"",""38045""
","""event"",""trial"",""time""
""fullscreenenter"",""0"",""5176""
","
",null,"<div style=""font-size:60px;"">+</div>",NA,null,fixation,2020-06-16T18:14:13Z,NA,NA,NA,NA,NA,sub66
NA,mars-trial,28,105055,0.0-10.0-1.6,"""event"",""trial"",""time""
""blur"",""0"",""0""
""focus"",""0"",""0""
""blur"",""0"",""0""
""focus"",""0"",""2269""
""fullscreenenter"",""0"",""5176""
""blur"",""3"",""10609""
""focus"",""3"",""14041""
""blur"",""4"",""35505""
""focus"",""4"",""38045""
","""event"",""trial"",""time""
""blur"",""0"",""0""
""blur"",""0"",""0""
""blur"",""3"",""10609""
""blur"",""4"",""35505""
","""event"",""trial"",""time""
""focus"",""0"",""0""
""focus"",""0"",""2269""
""focus"",""3"",""14041""
""focus"",""4"",""38045""
","""event"",""trial"",""time""
""fullscreenenter"",""0"",""5176""
","
",3972.584999995888,<img style='border: 4px solid darkgrey;' src='img/tf1_7_M_ss3.jpeg'></img>,3,NA,exp,NA,0,<img src='img/tf1_7_T1_ss3_md.jpeg'></img>,0,TRUE,NA,sub66
NA,html-keyboard-response,29,105558,0.0-10.0-0.7,"""event"",""trial"",""time""
""blur"",""0"",""0""
""focus"",""0"",""0""
""blur"",""0"",""0""
""focus"",""0"",""2269""
""fullscreenenter"",""0"",""5176""
""blur"",""3"",""10609""
""focus"",""3"",""14041""
""blur"",""4"",""35505""
""focus"",""4"",""38045""
","""event"",""trial"",""time""
""blur"",""0"",""0""
""blur"",""0"",""0""
""blur"",""3"",""10609""
""blur"",""4"",""35505""
","""event"",""trial"",""time""
""focus"",""0"",""0""
""focus"",""0"",""2269""
""focus"",""3"",""14041""
""focus"",""4"",""38045""
","""event"",""trial"",""time""
""fullscreenenter"",""0"",""5176""
","
",null,"<div style=""font-size:60px;"">+</div>",NA,null,fixation,2020-06-16T18:14:18Z,NA,NA,NA,NA,NA,sub66
NA,mars-trial,30,112210,0.0-10.0-1.7,"""event"",""trial"",""time""
""blur"",""0"",""0""
""focus"",""0"",""0""
""blur"",""0"",""0""
""focus"",""0"",""2269""
""fullscreenenter"",""0"",""5176""
""blur"",""3"",""10609""
""focus"",""3"",""14041""
""blur"",""4"",""35505""
""focus"",""4"",""38045""
","""event"",""trial"",""time""
""blur"",""0"",""0""
""blur"",""0"",""0""
""blur"",""3"",""10609""
""blur"",""4"",""35505""
","""event"",""trial"",""time""
""focus"",""0"",""0""
""focus"",""0"",""2269""
""focus"",""3"",""14041""
""focus"",""4"",""38045""
","""event"",""trial"",""time""
""fullscreenenter"",""0"",""5176""
","
",6043.724999995902,<img style='border: 4px solid darkgrey;' src='img/tf1_8_M_ss1.jpeg'></img>,1,NA,exp,NA,0,<img src='img/tf1_8_T1_ss1_md.jpeg'></img>,0,TRUE,NA,sub66
NA,html-keyboard-response,31,112716,0.0-10.0-0.8,"""event"",""trial"",""time""
""blur"",""0"",""0""
""focus"",""0"",""0""
""blur"",""0"",""0""
""focus"",""0"",""2269""
""fullscreenenter"",""0"",""5176""
""blur"",""3"",""10609""
""focus"",""3"",""14041""
""blur"",""4"",""35505""
""focus"",""4"",""38045""
","""event"",""trial"",""time""
""blur"",""0"",""0""
""blur"",""0"",""0""
""blur"",""3"",""10609""
""blur"",""4"",""35505""
","""event"",""trial"",""time""
""focus"",""0"",""0""
""focus"",""0"",""2269""
""focus"",""3"",""14041""
""focus"",""4"",""38045""
","""event"",""trial"",""time""
""fullscreenenter"",""0"",""5176""
","
",null,"<div style=""font-size:60px;"">+</div>",NA,null,fixation,2020-06-16T18:14:25Z,NA,NA,NA,NA,NA,sub66
NA,mars-trial,32,117443,0.0-10.0-1.8,"""event"",""trial"",""time""
""blur"",""0"",""0""
""focus"",""0"",""0""
""blur"",""0"",""0""
""focus"",""0"",""2269""
""fullscreenenter"",""0"",""5176""
""blur"",""3"",""10609""
""focus"",""3"",""14041""
""blur"",""4"",""35505""
""focus"",""4"",""38045""
","""event"",""trial"",""time""
""blur"",""0"",""0""
""blur"",""0"",""0""
""blur"",""3"",""10609""
""blur"",""4"",""35505""
","""event"",""trial"",""time""
""focus"",""0"",""0""
""focus"",""0"",""2269""
""focus"",""3"",""14041""
""focus"",""4"",""38045""
","""event"",""trial"",""time""
""fullscreenenter"",""0"",""5176""
","
",4118.8700000057,<img style='border: 4px solid darkgrey;' src='img/tf1_9_M_ss2.jpeg'></img>,2,NA,exp,NA,0,<img src='img/tf1_9_T1_ss2_md.jpeg'></img>,0,TRUE,NA,sub66
NA,html-keyboard-response,33,117946,0.0-10.0-0.9,"""event"",""trial"",""time""
""blur"",""0"",""0""
""focus"",""0"",""0""
""blur"",""0"",""0""
""focus"",""0"",""2269""
""fullscreenenter"",""0"",""5176""
""blur"",""3"",""10609""
""focus"",""3"",""14041""
""blur"",""4"",""35505""
""focus"",""4"",""38045""
","""event"",""trial"",""time""
""blur"",""0"",""0""
""blur"",""0"",""0""
""blur"",""3"",""10609""
""blur"",""4"",""35505""
","""event"",""trial"",""time""
""focus"",""0"",""0""
""focus"",""0"",""2269""
""focus"",""3"",""14041""
""focus"",""4"",""38045""
","""event"",""trial"",""time""
""fullscreenenter"",""0"",""5176""
","
",null,"<div style=""font-size:60px;"">+</div>",NA,null,fixation,2020-06-16T18:14:31Z,NA,NA,NA,NA,NA,sub66
NA,mars-trial,34,121839,0.0-10.0-1.9,"""event"",""trial"",""time""
""blur"",""0"",""0""
""focus"",""0"",""0""
""blur"",""0"",""0""
""focus"",""0"",""2269""
""fullscreenenter"",""0"",""5176""
""blur"",""3"",""10609""
""focus"",""3"",""14041""
""blur"",""4"",""35505""
""focus"",""4"",""38045""
","""event"",""trial"",""time""
""blur"",""0"",""0""
""blur"",""0"",""0""
""blur"",""3"",""10609""
""blur"",""4"",""35505""
","""event"",""trial"",""time""
""focus"",""0"",""0""
""focus"",""0"",""2269""
""focus"",""3"",""14041""
""focus"",""4"",""38045""
","""event"",""trial"",""time""
""fullscreenenter"",""0"",""5176""
","
",3283.689999996568,<img style='border: 4px solid darkgrey;' src='img/tf1_10_M_ss3.jpeg'></img>,1,NA,exp,NA,1,<img src='img/tf1_10_T1_ss3_md.jpeg'></img>,0,FALSE,NA,sub66
NA,html-keyboard-response,35,122343,0.0-10.0-0.10,"""event"",""trial"",""time""
""blur"",""0"",""0""
""focus"",""0"",""0""
""blur"",""0"",""0""
""focus"",""0"",""2269""
""fullscreenenter"",""0"",""5176""
""blur"",""3"",""10609""
""focus"",""3"",""14041""
""blur"",""4"",""35505""
""focus"",""4"",""38045""
","""event"",""trial"",""time""
""blur"",""0"",""0""
""blur"",""0"",""0""
""blur"",""3"",""10609""
""blur"",""4"",""35505""
","""event"",""trial"",""time""
""focus"",""0"",""0""
""focus"",""0"",""2269""
""focus"",""3"",""14041""
""focus"",""4"",""38045""
","""event"",""trial"",""time""
""fullscreenenter"",""0"",""5176""
","
",null,"<div style=""font-size:60px;"">+</div>",NA,null,fixation,2020-06-16T18:14:35Z,NA,NA,NA,NA,NA,sub66
NA,mars-trial,36,141217,0.0-10.0-1.10,"""event"",""trial"",""time""
""blur"",""0"",""0""
""focus"",""0"",""0""
""blur"",""0"",""0""
""focus"",""0"",""2269""
""fullscreenenter"",""0"",""5176""
""blur"",""3"",""10609""
""focus"",""3"",""14041""
""blur"",""4"",""35505""
""focus"",""4"",""38045""
","""event"",""trial"",""time""
""blur"",""0"",""0""
""blur"",""0"",""0""
""blur"",""3"",""10609""
""blur"",""4"",""35505""
","""event"",""trial"",""time""
""focus"",""0"",""0""
""focus"",""0"",""2269""
""focus"",""3"",""14041""
""focus"",""4"",""38045""
","""event"",""trial"",""time""
""fullscreenenter"",""0"",""5176""
","
",18263.745000003837,<img style='border: 4px solid darkgrey;' src='img/tf1_11_M_ss1.jpeg'></img>,2,NA,exp,NA,0,<img src='img/tf1_11_T1_ss1_md.jpeg'></img>,0,TRUE,NA,sub66
NA,html-keyboard-response,37,141720,0.0-10.0-0.11,"""event"",""trial"",""time""
""blur"",""0"",""0""
""focus"",""0"",""0""
""blur"",""0"",""0""
""focus"",""0"",""2269""
""fullscreenenter"",""0"",""5176""
""blur"",""3"",""10609""
""focus"",""3"",""14041""
""blur"",""4"",""35505""
""focus"",""4"",""38045""
","""event"",""trial"",""time""
""blur"",""0"",""0""
""blur"",""0"",""0""
""blur"",""3"",""10609""
""blur"",""4"",""35505""
","""event"",""trial"",""time""
""focus"",""0"",""0""
""focus"",""0"",""2269""
""focus"",""3"",""14041""
""focus"",""4"",""38045""
","""event"",""trial"",""time""
""fullscreenenter"",""0"",""5176""
","
",null,"<div style=""font-size:60px;"">+</div>",NA,null,fixation,2020-06-16T18:14:54Z,NA,NA,NA,NA,NA,sub66
NA,mars-trial,38,169864,0.0-10.0-1.11,"""event"",""trial"",""time""
""blur"",""0"",""0""
""focus"",""0"",""0""
""blur"",""0"",""0""
""focus"",""0"",""2269""
""fullscreenenter"",""0"",""5176""
""blur"",""3"",""10609""
""focus"",""3"",""14041""
""blur"",""4"",""35505""
""focus"",""4"",""38045""
","""event"",""trial"",""time""
""blur"",""0"",""0""
""blur"",""0"",""0""
""blur"",""3"",""10609""
""blur"",""4"",""35505""
","""event"",""trial"",""time""
""focus"",""0"",""0""
""focus"",""0"",""2269""
""focus"",""3"",""14041""
""focus"",""4"",""38045""
","""event"",""trial"",""time""
""fullscreenenter"",""0"",""5176""
","
",27529.945000002044,<img style='border: 4px solid darkgrey;' src='img/tf1_12_M_ss2.jpeg'></img>,0,NA,exp,NA,3,<img src='img/tf1_12_T1_ss2_md.jpeg'></img>,0,FALSE,NA,sub66
NA,html-keyboard-response,39,170367,0.0-10.0-0.12,"""event"",""trial"",""time""
""blur"",""0"",""0""
""focus"",""0"",""0""
""blur"",""0"",""0""
""focus"",""0"",""2269""
""fullscreenenter"",""0"",""5176""
""blur"",""3"",""10609""
""focus"",""3"",""14041""
""blur"",""4"",""35505""
""focus"",""4"",""38045""
","""event"",""trial"",""time""
""blur"",""0"",""0""
""blur"",""0"",""0""
""blur"",""3"",""10609""
""blur"",""4"",""35505""
","""event"",""trial"",""time""
""focus"",""0"",""0""
""focus"",""0"",""2269""
""focus"",""3"",""14041""
""focus"",""4"",""38045""
","""event"",""trial"",""time""
""fullscreenenter"",""0"",""5176""
","
",null,"<div style=""font-size:60px;"">+</div>",NA,null,fixation,2020-06-16T18:15:23Z,NA,NA,NA,NA,NA,sub66
NA,mars-trial,40,183317,0.0-10.0-1.12,"""event"",""trial"",""time""
""blur"",""0"",""0""
""focus"",""0"",""0""
""blur"",""0"",""0""
""focus"",""0"",""2269""
""fullscreenenter"",""0"",""5176""
""blur"",""3"",""10609""
""focus"",""3"",""14041""
""blur"",""4"",""35505""
""focus"",""4"",""38045""
","""event"",""trial"",""time""
""blur"",""0"",""0""
""blur"",""0"",""0""
""blur"",""3"",""10609""
""blur"",""4"",""35505""
","""event"",""trial"",""time""
""focus"",""0"",""0""
""focus"",""0"",""2269""
""focus"",""3"",""14041""
""focus"",""4"",""38045""
","""event"",""trial"",""time""
""fullscreenenter"",""0"",""5176""
","
",12339.984999998705,<img style='border: 4px solid darkgrey;' src='img/tf1_13_M_ss3.jpeg'></img>,0,NA,exp,NA,2,<img src='img/tf1_13_T1_ss3_md.jpeg'></img>,0,FALSE,NA,sub66
NA,html-keyboard-response,41,183820,0.0-10.0-0.13,"""event"",""trial"",""time""
""blur"",""0"",""0""
""focus"",""0"",""0""
""blur"",""0"",""0""
""focus"",""0"",""2269""
""fullscreenenter"",""0"",""5176""
""blur"",""3"",""10609""
""focus"",""3"",""14041""
""blur"",""4"",""35505""
""focus"",""4"",""38045""
","""event"",""trial"",""time""
""blur"",""0"",""0""
""blur"",""0"",""0""
""blur"",""3"",""10609""
""blur"",""4"",""35505""
","""event"",""trial"",""time""
""focus"",""0"",""0""
""focus"",""0"",""2269""
""focus"",""3"",""14041""
""focus"",""4"",""38045""
","""event"",""trial"",""time""
""fullscreenenter"",""0"",""5176""
","
",null,"<div style=""font-size:60px;"">+</div>",NA,null,fixation,2020-06-16T18:15:37Z,NA,NA,NA,NA,NA,sub66
NA,mars-trial,42,192101,0.0-10.0-1.13,"""event"",""trial"",""time""
""blur"",""0"",""0""
""focus"",""0"",""0""
""blur"",""0"",""0""
""focus"",""0"",""2269""
""fullscreenenter"",""0"",""5176""
""blur"",""3"",""10609""
""focus"",""3"",""14041""
""blur"",""4"",""35505""
""focus"",""4"",""38045""
","""event"",""trial"",""time""
""blur"",""0"",""0""
""blur"",""0"",""0""
""blur"",""3"",""10609""
""blur"",""4"",""35505""
","""event"",""trial"",""time""
""focus"",""0"",""0""
""focus"",""0"",""2269""
""focus"",""3"",""14041""
""focus"",""4"",""38045""
","""event"",""trial"",""time""
""fullscreenenter"",""0"",""5176""
","
",7671.879999994417,<img style='border: 4px solid darkgrey;' src='img/tf1_14_M_ss1.jpeg'></img>,0,NA,exp,NA,1,<img src='img/tf1_14_T1_ss1_md.jpeg'></img>,0,FALSE,NA,sub66
NA,html-keyboard-response,43,192605,0.0-10.0-0.14,"""event"",""trial"",""time""
""blur"",""0"",""0""
""focus"",""0"",""0""
""blur"",""0"",""0""
""focus"",""0"",""2269""
""fullscreenenter"",""0"",""5176""
""blur"",""3"",""10609""
""focus"",""3"",""14041""
""blur"",""4"",""35505""
""focus"",""4"",""38045""
","""event"",""trial"",""time""
""blur"",""0"",""0""
""blur"",""0"",""0""
""blur"",""3"",""10609""
""blur"",""4"",""35505""
","""event"",""trial"",""time""
""focus"",""0"",""0""
""focus"",""0"",""2269""
""focus"",""3"",""14041""
""focus"",""4"",""38045""
","""event"",""trial"",""time""
""fullscreenenter"",""0"",""5176""
","
",null,"<div style=""font-size:60px;"">+</div>",NA,null,fixation,2020-06-16T18:15:45Z,NA,NA,NA,NA,NA,sub66
NA,mars-trial,44,214861,0.0-10.0-1.14,"""event"",""trial"",""time""
""blur"",""0"",""0""
""focus"",""0"",""0""
""blur"",""0"",""0""
""focus"",""0"",""2269""
""fullscreenenter"",""0"",""5176""
""blur"",""3"",""10609""
""focus"",""3"",""14041""
""blur"",""4"",""35505""
""focus"",""4"",""38045""
","""event"",""trial"",""time""
""blur"",""0"",""0""
""blur"",""0"",""0""
""blur"",""3"",""10609""
""blur"",""4"",""35505""
","""event"",""trial"",""time""
""focus"",""0"",""0""
""focus"",""0"",""2269""
""focus"",""3"",""14041""
""focus"",""4"",""38045""
","""event"",""trial"",""time""
""fullscreenenter"",""0"",""5176""
","
",21645.844999991823,<img style='border: 4px solid darkgrey;' src='img/tf1_15_M_ss2.jpeg'></img>,2,NA,exp,NA,0,<img src='img/tf1_15_T1_ss2_md.jpeg'></img>,0,TRUE,NA,sub66
NA,html-keyboard-response,45,215363,0.0-10.0-0.15,"""event"",""trial"",""time""
""blur"",""0"",""0""
""focus"",""0"",""0""
""blur"",""0"",""0""
""focus"",""0"",""2269""
""fullscreenenter"",""0"",""5176""
""blur"",""3"",""10609""
""focus"",""3"",""14041""
""blur"",""4"",""35505""
""focus"",""4"",""38045""
","""event"",""trial"",""time""
""blur"",""0"",""0""
""blur"",""0"",""0""
""blur"",""3"",""10609""
""blur"",""4"",""35505""
","""event"",""trial"",""time""
""focus"",""0"",""0""
""focus"",""0"",""2269""
""focus"",""3"",""14041""
""focus"",""4"",""38045""
","""event"",""trial"",""time""
""fullscreenenter"",""0"",""5176""
","
",null,"<div style=""font-size:60px;"">+</div>",NA,null,fixation,2020-06-16T18:16:08Z,NA,NA,NA,NA,NA,sub66
NA,mars-trial,46,222817,0.0-10.0-1.15,"""event"",""trial"",""time""
""blur"",""0"",""0""
""focus"",""0"",""0""
""blur"",""0"",""0""
""focus"",""0"",""2269""
""fullscreenenter"",""0"",""5176""
""blur"",""3"",""10609""
""focus"",""3"",""14041""
""blur"",""4"",""35505""
""focus"",""4"",""38045""
","""event"",""trial"",""time""
""blur"",""0"",""0""
""blur"",""0"",""0""
""blur"",""3"",""10609""
""blur"",""4"",""35505""
","""event"",""trial"",""time""
""focus"",""0"",""0""
""focus"",""0"",""2269""
""focus"",""3"",""14041""
""focus"",""4"",""38045""
","""event"",""trial"",""time""
""fullscreenenter"",""0"",""5176""
","
",6844.054999994114,<img style='border: 4px solid darkgrey;' src='img/tf1_16_M_ss3.jpeg'></img>,2,NA,exp,NA,0,<img src='img/tf1_16_T1_ss3_md.jpeg'></img>,0,TRUE,NA,sub66
NA,html-keyboard-response,47,223320,0.0-10.0-0.16,"""event"",""trial"",""time""
""blur"",""0"",""0""
""focus"",""0"",""0""
""blur"",""0"",""0""
""focus"",""0"",""2269""
""fullscreenenter"",""0"",""5176""
""blur"",""3"",""10609""
""focus"",""3"",""14041""
""blur"",""4"",""35505""
""focus"",""4"",""38045""
","""event"",""trial"",""time""
""blur"",""0"",""0""
""blur"",""0"",""0""
""blur"",""3"",""10609""
""blur"",""4"",""35505""
","""event"",""trial"",""time""
""focus"",""0"",""0""
""focus"",""0"",""2269""
""focus"",""3"",""14041""
""focus"",""4"",""38045""
","""event"",""trial"",""time""
""fullscreenenter"",""0"",""5176""
","
",null,"<div style=""font-size:60px;"">+</div>",NA,null,fixation,2020-06-16T18:16:16Z,NA,NA,NA,NA,NA,sub66
NA,mars-trial,48,242589,0.0-10.0-1.16,"""event"",""trial"",""time""
""blur"",""0"",""0""
""focus"",""0"",""0""
""blur"",""0"",""0""
""focus"",""0"",""2269""
""fullscreenenter"",""0"",""5176""
""blur"",""3"",""10609""
""focus"",""3"",""14041""
""blur"",""4"",""35505""
""focus"",""4"",""38045""
","""event"",""trial"",""time""
""blur"",""0"",""0""
""blur"",""0"",""0""
""blur"",""3"",""10609""
""blur"",""4"",""35505""
","""event"",""trial"",""time""
""focus"",""0"",""0""
""focus"",""0"",""2269""
""focus"",""3"",""14041""
""focus"",""4"",""38045""
","""event"",""trial"",""time""
""fullscreenenter"",""0"",""5176""
","
",18662.114999999176,<img style='border: 4px solid darkgrey;' src='img/tf1_17_M_ss1.jpeg'></img>,0,NA,exp,NA,0,<img src='img/tf1_17_T1_ss1_md.jpeg'></img>,0,TRUE,NA,sub66
NA,html-keyboard-response,49,243092,0.0-10.0-0.17,"""event"",""trial"",""time""
""blur"",""0"",""0""
""focus"",""0"",""0""
""blur"",""0"",""0""
""focus"",""0"",""2269""
""fullscreenenter"",""0"",""5176""
""blur"",""3"",""10609""
""focus"",""3"",""14041""
""blur"",""4"",""35505""
""focus"",""4"",""38045""
","""event"",""trial"",""time""
""blur"",""0"",""0""
""blur"",""0"",""0""
""blur"",""3"",""10609""
""blur"",""4"",""35505""
","""event"",""trial"",""time""
""focus"",""0"",""0""
""focus"",""0"",""2269""
""focus"",""3"",""14041""
""focus"",""4"",""38045""
","""event"",""trial"",""time""
""fullscreenenter"",""0"",""5176""
","
",null,"<div style=""font-size:60px;"">+</div>",NA,null,fixation,2020-06-16T18:16:36Z,NA,NA,NA,NA,NA,sub66
NA,mars-trial,50,265346,0.0-10.0-1.17,"""event"",""trial"",""time""
""blur"",""0"",""0""
""focus"",""0"",""0""
""blur"",""0"",""0""
""focus"",""0"",""2269""
""fullscreenenter"",""0"",""5176""
""blur"",""3"",""10609""
""focus"",""3"",""14041""
""blur"",""4"",""35505""
""focus"",""4"",""38045""
","""event"",""trial"",""time""
""blur"",""0"",""0""
""blur"",""0"",""0""
""blur"",""3"",""10609""
""blur"",""4"",""35505""
","""event"",""trial"",""time""
""focus"",""0"",""0""
""focus"",""0"",""2269""
""focus"",""3"",""14041""
""focus"",""4"",""38045""
","""event"",""trial"",""time""
""fullscreenenter"",""0"",""5176""
","
",21644.919999991544,<img style='border: 4px solid darkgrey;' src='img/tf1_18_M_ss2.jpeg'></img>,2,NA,exp,NA,0,<img src='img/tf1_18_T1_ss2_md.jpeg'></img>,0,TRUE,NA,sub66
NA,html-keyboard-response,51,265848,0.0-10.0-0.18,"""event"",""trial"",""time""
""blur"",""0"",""0""
""focus"",""0"",""0""
""blur"",""0"",""0""
""focus"",""0"",""2269""
""fullscreenenter"",""0"",""5176""
""blur"",""3"",""10609""
""focus"",""3"",""14041""
""blur"",""4"",""35505""
""focus"",""4"",""38045""
","""event"",""trial"",""time""
""blur"",""0"",""0""
""blur"",""0"",""0""
""blur"",""3"",""10609""
""blur"",""4"",""35505""
","""event"",""trial"",""time""
""focus"",""0"",""0""
""focus"",""0"",""2269""
""focus"",""3"",""14041""
""focus"",""4"",""38045""
","""event"",""trial"",""time""
""fullscreenenter"",""0"",""5176""
","
",null,"<div style=""font-size:60px;"">+</div>",NA,null,fixation,2020-06-16T18:16:59Z,NA,NA,NA,NA,NA,sub66
NA,mars-trial,52,275009,0.0-10.0-1.18,"""event"",""trial"",""time""
""blur"",""0"",""0""
""focus"",""0"",""0""
""blur"",""0"",""0""
""focus"",""0"",""2269""
""fullscreenenter"",""0"",""5176""
""blur"",""3"",""10609""
""focus"",""3"",""14041""
""blur"",""4"",""35505""
""focus"",""4"",""38045""
","""event"",""trial"",""time""
""blur"",""0"",""0""
""blur"",""0"",""0""
""blur"",""3"",""10609""
""blur"",""4"",""35505""
","""event"",""trial"",""time""
""focus"",""0"",""0""
""focus"",""0"",""2269""
""focus"",""3"",""14041""
""focus"",""4"",""38045""
","""event"",""trial"",""time""
""fullscreenenter"",""0"",""5176""
","
",8552.265000005718,<img style='border: 4px solid darkgrey;' src='img/tf1_19_M_ss3.jpeg'></img>,2,NA,exp,NA,0,<img src='img/tf1_19_T1_ss3_md.jpeg'></img>,0,TRUE,NA,sub66
NA,html-keyboard-response,53,275511,0.0-10.0-0.19,"""event"",""trial"",""time""
""blur"",""0"",""0""
""focus"",""0"",""0""
""blur"",""0"",""0""
""focus"",""0"",""2269""
""fullscreenenter"",""0"",""5176""
""blur"",""3"",""10609""
""focus"",""3"",""14041""
""blur"",""4"",""35505""
""focus"",""4"",""38045""
","""event"",""trial"",""time""
""blur"",""0"",""0""
""blur"",""0"",""0""
""blur"",""3"",""10609""
""blur"",""4"",""35505""
","""event"",""trial"",""time""
""focus"",""0"",""0""
""focus"",""0"",""2269""
""focus"",""3"",""14041""
""focus"",""4"",""38045""
","""event"",""trial"",""time""
""fullscreenenter"",""0"",""5176""
","
",null,"<div style=""font-size:60px;"">+</div>",NA,null,fixation,2020-06-16T18:17:08Z,NA,NA,NA,NA,NA,sub66
NA,mars-trial,54,284650,0.0-10.0-1.19,"""event"",""trial"",""time""
""blur"",""0"",""0""
""focus"",""0"",""0""
""blur"",""0"",""0""
""focus"",""0"",""2269""
""fullscreenenter"",""0"",""5176""
""blur"",""3"",""10609""
""focus"",""3"",""14041""
""blur"",""4"",""35505""
""focus"",""4"",""38045""
","""event"",""trial"",""time""
""blur"",""0"",""0""
""blur"",""0"",""0""
""blur"",""3"",""10609""
""blur"",""4"",""35505""
","""event"",""trial"",""time""
""focus"",""0"",""0""
""focus"",""0"",""2269""
""focus"",""3"",""14041""
""focus"",""4"",""38045""
","""event"",""trial"",""time""
""fullscreenenter"",""0"",""5176""
","
",8530.915000010282,<img style='border: 4px solid darkgrey;' src='img/tf1_20_M_ss1.jpeg'></img>,1,NA,exp,NA,0,<img src='img/tf1_20_T1_ss1_md.jpeg'></img>,0,TRUE,NA,sub66
NA,html-keyboard-response,55,285152,0.0-10.0-0.20,"""event"",""trial"",""time""
""blur"",""0"",""0""
""focus"",""0"",""0""
""blur"",""0"",""0""
""focus"",""0"",""2269""
""fullscreenenter"",""0"",""5176""
""blur"",""3"",""10609""
""focus"",""3"",""14041""
""blur"",""4"",""35505""
""focus"",""4"",""38045""
","""event"",""trial"",""time""
""blur"",""0"",""0""
""blur"",""0"",""0""
""blur"",""3"",""10609""
""blur"",""4"",""35505""
","""event"",""trial"",""time""
""focus"",""0"",""0""
""focus"",""0"",""2269""
""focus"",""3"",""14041""
""focus"",""4"",""38045""
","""event"",""trial"",""time""
""fullscreenenter"",""0"",""5176""
","
",null,"<div style=""font-size:60px;"">+</div>",NA,null,fixation,2020-06-16T18:17:18Z,NA,NA,NA,NA,NA,sub66
NA,mars-trial,56,303118,0.0-10.0-1.20,"""event"",""trial"",""time""
""blur"",""0"",""0""
""focus"",""0"",""0""
""blur"",""0"",""0""
""focus"",""0"",""2269""
""fullscreenenter"",""0"",""5176""
""blur"",""3"",""10609""
""focus"",""3"",""14041""
""blur"",""4"",""35505""
""focus"",""4"",""38045""
","""event"",""trial"",""time""
""blur"",""0"",""0""
""blur"",""0"",""0""
""blur"",""3"",""10609""
""blur"",""4"",""35505""
","""event"",""trial"",""time""
""focus"",""0"",""0""
""focus"",""0"",""2269""
""focus"",""3"",""14041""
""focus"",""4"",""38045""
","""event"",""trial"",""time""
""fullscreenenter"",""0"",""5176""
","
",17356.794999999693,<img style='border: 4px solid darkgrey;' src='img/tf1_21_M_ss2.jpeg'></img>,1,NA,exp,NA,3,<img src='img/tf1_21_T1_ss2_md.jpeg'></img>,0,FALSE,NA,sub66
NA,html-keyboard-response,57,303621,0.0-10.0-0.21,"""event"",""trial"",""time""
""blur"",""0"",""0""
""focus"",""0"",""0""
""blur"",""0"",""0""
""focus"",""0"",""2269""
""fullscreenenter"",""0"",""5176""
""blur"",""3"",""10609""
""focus"",""3"",""14041""
""blur"",""4"",""35505""
""focus"",""4"",""38045""
","""event"",""trial"",""time""
""blur"",""0"",""0""
""blur"",""0"",""0""
""blur"",""3"",""10609""
""blur"",""4"",""35505""
","""event"",""trial"",""time""
""focus"",""0"",""0""
""focus"",""0"",""2269""
""focus"",""3"",""14041""
""focus"",""4"",""38045""
","""event"",""trial"",""time""
""fullscreenenter"",""0"",""5176""
","
",null,"<div style=""font-size:60px;"">+</div>",NA,null,fixation,2020-06-16T18:17:36Z,NA,NA,NA,NA,NA,sub66
NA,mars-trial,58,314265,0.0-10.0-1.21,"""event"",""trial"",""time""
""blur"",""0"",""0""
""focus"",""0"",""0""
""blur"",""0"",""0""
""focus"",""0"",""2269""
""fullscreenenter"",""0"",""5176""
""blur"",""3"",""10609""
""focus"",""3"",""14041""
""blur"",""4"",""35505""
""focus"",""4"",""38045""
","""event"",""trial"",""time""
""blur"",""0"",""0""
""blur"",""0"",""0""
""blur"",""3"",""10609""
""blur"",""4"",""35505""
","""event"",""trial"",""time""
""focus"",""0"",""0""
""focus"",""0"",""2269""
""focus"",""3"",""14041""
""focus"",""4"",""38045""
","""event"",""trial"",""time""
""fullscreenenter"",""0"",""5176""
","
",10035.214999996242,<img style='border: 4px solid darkgrey;' src='img/tf1_22_M_ss3.jpeg'></img>,3,NA,exp,NA,0,<img src='img/tf1_22_T1_ss3_md.jpeg'></img>,0,TRUE,NA,sub66
NA,html-keyboard-response,59,314769,0.0-10.0-0.22,"""event"",""trial"",""time""
""blur"",""0"",""0""
""focus"",""0"",""0""
""blur"",""0"",""0""
""focus"",""0"",""2269""
""fullscreenenter"",""0"",""5176""
""blur"",""3"",""10609""
""focus"",""3"",""14041""
""blur"",""4"",""35505""
""focus"",""4"",""38045""
","""event"",""trial"",""time""
""blur"",""0"",""0""
""blur"",""0"",""0""
""blur"",""3"",""10609""
""blur"",""4"",""35505""
","""event"",""trial"",""time""
""focus"",""0"",""0""
""focus"",""0"",""2269""
""focus"",""3"",""14041""
""focus"",""4"",""38045""
","""event"",""trial"",""time""
""fullscreenenter"",""0"",""5176""
","
",null,"<div style=""font-size:60px;"">+</div>",NA,null,fixation,2020-06-16T18:17:48Z,NA,NA,NA,NA,NA,sub66
NA,mars-trial,60,323652,0.0-10.0-1.22,"""event"",""trial"",""time""
""blur"",""0"",""0""
""focus"",""0"",""0""
""blur"",""0"",""0""
""focus"",""0"",""2269""
""fullscreenenter"",""0"",""5176""
""blur"",""3"",""10609""
""focus"",""3"",""14041""
""blur"",""4"",""35505""
""focus"",""4"",""38045""
","""event"",""trial"",""time""
""blur"",""0"",""0""
""blur"",""0"",""0""
""blur"",""3"",""10609""
""blur"",""4"",""35505""
","""event"",""trial"",""time""
""focus"",""0"",""0""
""focus"",""0"",""2269""
""focus"",""3"",""14041""
""focus"",""4"",""38045""
","""event"",""trial"",""time""
""fullscreenenter"",""0"",""5176""
","
",8274.82500000042,<img style='border: 4px solid darkgrey;' src='img/tf1_23_M_ss1.jpeg'></img>,3,NA,exp,NA,0,<img src='img/tf1_23_T1_ss1_md.jpeg'></img>,0,TRUE,NA,sub66
NA,html-keyboard-response,61,324154,0.0-10.0-0.23,"""event"",""trial"",""time""
""blur"",""0"",""0""
""focus"",""0"",""0""
""blur"",""0"",""0""
""focus"",""0"",""2269""
""fullscreenenter"",""0"",""5176""
""blur"",""3"",""10609""
""focus"",""3"",""14041""
""blur"",""4"",""35505""
""focus"",""4"",""38045""
","""event"",""trial"",""time""
""blur"",""0"",""0""
""blur"",""0"",""0""
""blur"",""3"",""10609""
""blur"",""4"",""35505""
","""event"",""trial"",""time""
""focus"",""0"",""0""
""focus"",""0"",""2269""
""focus"",""3"",""14041""
""focus"",""4"",""38045""
","""event"",""trial"",""time""
""fullscreenenter"",""0"",""5176""
","
",null,"<div style=""font-size:60px;"">+</div>",NA,null,fixation,2020-06-16T18:17:57Z,NA,NA,NA,NA,NA,sub66
NA,mars-trial,62,334953,0.0-10.0-1.23,"""event"",""trial"",""time""
""blur"",""0"",""0""
""focus"",""0"",""0""
""blur"",""0"",""0""
""focus"",""0"",""2269""
""fullscreenenter"",""0"",""5176""
""blur"",""3"",""10609""
""focus"",""3"",""14041""
""blur"",""4"",""35505""
""focus"",""4"",""38045""
","""event"",""trial"",""time""
""blur"",""0"",""0""
""blur"",""0"",""0""
""blur"",""3"",""10609""
""blur"",""4"",""35505""
","""event"",""trial"",""time""
""focus"",""0"",""0""
""focus"",""0"",""2269""
""focus"",""3"",""14041""
""focus"",""4"",""38045""
","""event"",""trial"",""time""
""fullscreenenter"",""0"",""5176""
","
",10194.000000003143,<img style='border: 4px solid darkgrey;' src='img/tf1_24_M_ss2.jpeg'></img>,2,NA,exp,NA,2,<img src='img/tf1_24_T1_ss2_md.jpeg'></img>,0,FALSE,NA,sub66
NA,html-keyboard-response,63,335456,0.0-10.0-0.24,"""event"",""trial"",""time""
""blur"",""0"",""0""
""focus"",""0"",""0""
""blur"",""0"",""0""
""focus"",""0"",""2269""
""fullscreenenter"",""0"",""5176""
""blur"",""3"",""10609""
""focus"",""3"",""14041""
""blur"",""4"",""35505""
""focus"",""4"",""38045""
","""event"",""trial"",""time""
""blur"",""0"",""0""
""blur"",""0"",""0""
""blur"",""3"",""10609""
""blur"",""4"",""35505""
","""event"",""trial"",""time""
""focus"",""0"",""0""
""focus"",""0"",""2269""
""focus"",""3"",""14041""
""focus"",""4"",""38045""
","""event"",""trial"",""time""
""fullscreenenter"",""0"",""5176""
","
",null,"<div style=""font-size:60px;"">+</div>",NA,null,fixation,2020-06-16T18:18:08Z,NA,NA,NA,NA,NA,sub66
NA,mars-trial,64,343637,0.0-10.0-1.24,"""event"",""trial"",""time""
""blur"",""0"",""0""
""focus"",""0"",""0""
""blur"",""0"",""0""
""focus"",""0"",""2269""
""fullscreenenter"",""0"",""5176""
""blur"",""3"",""10609""
""focus"",""3"",""14041""
""blur"",""4"",""35505""
""focus"",""4"",""38045""
","""event"",""trial"",""time""
""blur"",""0"",""0""
""blur"",""0"",""0""
""blur"",""3"",""10609""
""blur"",""4"",""35505""
","""event"",""trial"",""time""
""focus"",""0"",""0""
""focus"",""0"",""2269""
""focus"",""3"",""14041""
""focus"",""4"",""38045""
","""event"",""trial"",""time""
""fullscreenenter"",""0"",""5176""
","
",7570.29999999213,<img style='border: 4px solid darkgrey;' src='img/tf1_25_M_ss3.jpeg'></img>,1,NA,exp,NA,0,<img src='img/tf1_25_T1_ss3_md.jpeg'></img>,0,TRUE,NA,sub66
NA,html-keyboard-response,65,344139,0.0-10.0-0.25,"""event"",""trial"",""time""
""blur"",""0"",""0""
""focus"",""0"",""0""
""blur"",""0"",""0""
""focus"",""0"",""2269""
""fullscreenenter"",""0"",""5176""
""blur"",""3"",""10609""
""focus"",""3"",""14041""
""blur"",""4"",""35505""
""focus"",""4"",""38045""
","""event"",""trial"",""time""
""blur"",""0"",""0""
""blur"",""0"",""0""
""blur"",""3"",""10609""
""blur"",""4"",""35505""
","""event"",""trial"",""time""
""focus"",""0"",""0""
""focus"",""0"",""2269""
""focus"",""3"",""14041""
""focus"",""4"",""38045""
","""event"",""trial"",""time""
""fullscreenenter"",""0"",""5176""
","
",null,"<div style=""font-size:60px;"">+</div>",NA,null,fixation,2020-06-16T18:18:17Z,NA,NA,NA,NA,NA,sub66
NA,mars-trial,66,361238,0.0-10.0-1.25,"""event"",""trial"",""time""
""blur"",""0"",""0""
""focus"",""0"",""0""
""blur"",""0"",""0""
""focus"",""0"",""2269""
""fullscreenenter"",""0"",""5176""
""blur"",""3"",""10609""
""focus"",""3"",""14041""
""blur"",""4"",""35505""
""focus"",""4"",""38045""
","""event"",""trial"",""time""
""blur"",""0"",""0""
""blur"",""0"",""0""
""blur"",""3"",""10609""
""blur"",""4"",""35505""
","""event"",""trial"",""time""
""focus"",""0"",""0""
""focus"",""0"",""2269""
""focus"",""3"",""14041""
""focus"",""4"",""38045""
","""event"",""trial"",""time""
""fullscreenenter"",""0"",""5176""
","
",16491.50999999256,<img style='border: 4px solid darkgrey;' src='img/tf1_26_M_ss1.jpeg'></img>,3,NA,exp,NA,0,<img src='img/tf1_26_T1_ss1_md.jpeg'></img>,0,TRUE,NA,sub66
NA,html-keyboard-response,67,361742,0.0-10.0-0.26,"""event"",""trial"",""time""
""blur"",""0"",""0""
""focus"",""0"",""0""
""blur"",""0"",""0""
""focus"",""0"",""2269""
""fullscreenenter"",""0"",""5176""
""blur"",""3"",""10609""
""focus"",""3"",""14041""
""blur"",""4"",""35505""
""focus"",""4"",""38045""
","""event"",""trial"",""time""
""blur"",""0"",""0""
""blur"",""0"",""0""
""blur"",""3"",""10609""
""blur"",""4"",""35505""
","""event"",""trial"",""time""
""focus"",""0"",""0""
""focus"",""0"",""2269""
""focus"",""3"",""14041""
""focus"",""4"",""38045""
","""event"",""trial"",""time""
""fullscreenenter"",""0"",""5176""
","
",null,"<div style=""font-size:60px;"">+</div>",NA,null,fixation,2020-06-16T18:18:35Z,NA,NA,NA,NA,NA,sub66
NA,mars-trial,68,382841,0.0-10.0-1.26,"""event"",""trial"",""time""
""blur"",""0"",""0""
""focus"",""0"",""0""
""blur"",""0"",""0""
""focus"",""0"",""2269""
""fullscreenenter"",""0"",""5176""
""blur"",""3"",""10609""
""focus"",""3"",""14041""
""blur"",""4"",""35505""
""focus"",""4"",""38045""
","""event"",""trial"",""time""
""blur"",""0"",""0""
""blur"",""0"",""0""
""blur"",""3"",""10609""
""blur"",""4"",""35505""
","""event"",""trial"",""time""
""focus"",""0"",""0""
""focus"",""0"",""2269""
""focus"",""3"",""14041""
""focus"",""4"",""38045""
","""event"",""trial"",""time""
""fullscreenenter"",""0"",""5176""
","
",20490.770000003977,<img style='border: 4px solid darkgrey;' src='img/tf1_27_M_ss2.jpeg'></img>,3,NA,exp,NA,0,<img src='img/tf1_27_T1_ss2_md.jpeg'></img>,0,TRUE,NA,sub66
NA,html-keyboard-response,69,383345,0.0-10.0-0.27,"""event"",""trial"",""time""
""blur"",""0"",""0""
""focus"",""0"",""0""
""blur"",""0"",""0""
""focus"",""0"",""2269""
""fullscreenenter"",""0"",""5176""
""blur"",""3"",""10609""
""focus"",""3"",""14041""
""blur"",""4"",""35505""
""focus"",""4"",""38045""
","""event"",""trial"",""time""
""blur"",""0"",""0""
""blur"",""0"",""0""
""blur"",""3"",""10609""
""blur"",""4"",""35505""
","""event"",""trial"",""time""
""focus"",""0"",""0""
""focus"",""0"",""2269""
""focus"",""3"",""14041""
""focus"",""4"",""38045""
","""event"",""trial"",""time""
""fullscreenenter"",""0"",""5176""
","
",null,"<div style=""font-size:60px;"">+</div>",NA,null,fixation,2020-06-16T18:18:56Z,NA,NA,NA,NA,NA,sub66
NA,mars-trial,70,399939,0.0-10.0-1.27,"""event"",""trial"",""time""
""blur"",""0"",""0""
""focus"",""0"",""0""
""blur"",""0"",""0""
""focus"",""0"",""2269""
""fullscreenenter"",""0"",""5176""
""blur"",""3"",""10609""
""focus"",""3"",""14041""
""blur"",""4"",""35505""
""focus"",""4"",""38045""
","""event"",""trial"",""time""
""blur"",""0"",""0""
""blur"",""0"",""0""
""blur"",""3"",""10609""
""blur"",""4"",""35505""
","""event"",""trial"",""time""
""focus"",""0"",""0""
""focus"",""0"",""2269""
""focus"",""3"",""14041""
""focus"",""4"",""38045""
","""event"",""trial"",""time""
""fullscreenenter"",""0"",""5176""
","
",15986.275000002934,<img style='border: 4px solid darkgrey;' src='img/tf1_28_M_ss3.jpeg'></img>,0,NA,exp,NA,0,<img src='img/tf1_28_T1_ss3_md.jpeg'></img>,0,TRUE,NA,sub66
NA,html-keyboard-response,71,400442,0.0-10.0-0.28,"""event"",""trial"",""time""
""blur"",""0"",""0""
""focus"",""0"",""0""
""blur"",""0"",""0""
""focus"",""0"",""2269""
""fullscreenenter"",""0"",""5176""
""blur"",""3"",""10609""
""focus"",""3"",""14041""
""blur"",""4"",""35505""
""focus"",""4"",""38045""
","""event"",""trial"",""time""
""blur"",""0"",""0""
""blur"",""0"",""0""
""blur"",""3"",""10609""
""blur"",""4"",""35505""
","""event"",""trial"",""time""
""focus"",""0"",""0""
""focus"",""0"",""2269""
""focus"",""3"",""14041""
""focus"",""4"",""38045""
","""event"",""trial"",""time""
""fullscreenenter"",""0"",""5176""
","
",null,"<div style=""font-size:60px;"">+</div>",NA,null,fixation,2020-06-16T18:19:13Z,NA,NA,NA,NA,NA,sub66
NA,mars-trial,72,425312,0.0-10.0-1.28,"""event"",""trial"",""time""
""blur"",""0"",""0""
""focus"",""0"",""0""
""blur"",""0"",""0""
""focus"",""0"",""2269""
""fullscreenenter"",""0"",""5176""
""blur"",""3"",""10609""
""focus"",""3"",""14041""
""blur"",""4"",""35505""
""focus"",""4"",""38045""
","""event"",""trial"",""time""
""blur"",""0"",""0""
""blur"",""0"",""0""
""blur"",""3"",""10609""
""blur"",""4"",""35505""
","""event"",""trial"",""time""
""focus"",""0"",""0""
""focus"",""0"",""2269""
""focus"",""3"",""14041""
""focus"",""4"",""38045""
","""event"",""trial"",""time""
""fullscreenenter"",""0"",""5176""
","
",24261.664999998175,<img style='border: 4px solid darkgrey;' src='img/tf1_29_M_ss1.jpeg'></img>,0,NA,exp,NA,0,<img src='img/tf1_29_T1_ss1_md.jpeg'></img>,0,TRUE,NA,sub66
NA,html-keyboard-response,73,425816,0.0-10.0-0.29,"""event"",""trial"",""time""
""blur"",""0"",""0""
""focus"",""0"",""0""
""blur"",""0"",""0""
""focus"",""0"",""2269""
""fullscreenenter"",""0"",""5176""
""blur"",""3"",""10609""
""focus"",""3"",""14041""
""blur"",""4"",""35505""
""focus"",""4"",""38045""
","""event"",""trial"",""time""
""blur"",""0"",""0""
""blur"",""0"",""0""
""blur"",""3"",""10609""
""blur"",""4"",""35505""
","""event"",""trial"",""time""
""focus"",""0"",""0""
""focus"",""0"",""2269""
""focus"",""3"",""14041""
""focus"",""4"",""38045""
","""event"",""trial"",""time""
""fullscreenenter"",""0"",""5176""
","
",null,"<div style=""font-size:60px;"">+</div>",NA,null,fixation,2020-06-16T18:19:39Z,NA,NA,NA,NA,NA,sub66
NA,mars-trial,74,453969,0.0-10.0-1.29,"""event"",""trial"",""time""
""blur"",""0"",""0""
""focus"",""0"",""0""
""blur"",""0"",""0""
""focus"",""0"",""2269""
""fullscreenenter"",""0"",""5176""
""blur"",""3"",""10609""
""focus"",""3"",""14041""
""blur"",""4"",""35505""
""focus"",""4"",""38045""
","""event"",""trial"",""time""
""blur"",""0"",""0""
""blur"",""0"",""0""
""blur"",""3"",""10609""
""blur"",""4"",""35505""
","""event"",""trial"",""time""
""focus"",""0"",""0""
""focus"",""0"",""2269""
""focus"",""3"",""14041""
""focus"",""4"",""38045""
","""event"",""trial"",""time""
""fullscreenenter"",""0"",""5176""
","
",27543.545000007725,<img style='border: 4px solid darkgrey;' src='img/tf1_30_M_ss2.jpeg'></img>,3,NA,exp,NA,0,<img src='img/tf1_30_T1_ss2_md.jpeg'></img>,0,TRUE,NA,sub66
NA,html-keyboard-response,75,454472,0.0-10.0-0.30,"""event"",""trial"",""time""
""blur"",""0"",""0""
""focus"",""0"",""0""
""blur"",""0"",""0""
""focus"",""0"",""2269""
""fullscreenenter"",""0"",""5176""
""blur"",""3"",""10609""
""focus"",""3"",""14041""
""blur"",""4"",""35505""
""focus"",""4"",""38045""
","""event"",""trial"",""time""
""blur"",""0"",""0""
""blur"",""0"",""0""
""blur"",""3"",""10609""
""blur"",""4"",""35505""
","""event"",""trial"",""time""
""focus"",""0"",""0""
""focus"",""0"",""2269""
""focus"",""3"",""14041""
""focus"",""4"",""38045""
","""event"",""trial"",""time""
""fullscreenenter"",""0"",""5176""
","
",null,"<div style=""font-size:60px;"">+</div>",NA,null,fixation,2020-06-16T18:20:07Z,NA,NA,NA,NA,NA,sub66
NA,mars-trial,76,470181,0.0-10.0-1.30,"""event"",""trial"",""time""
""blur"",""0"",""0""
""focus"",""0"",""0""
""blur"",""0"",""0""
""focus"",""0"",""2269""
""fullscreenenter"",""0"",""5176""
""blur"",""3"",""10609""
""focus"",""3"",""14041""
""blur"",""4"",""35505""
""focus"",""4"",""38045""
","""event"",""trial"",""time""
""blur"",""0"",""0""
""blur"",""0"",""0""
""blur"",""3"",""10609""
""blur"",""4"",""35505""
","""event"",""trial"",""time""
""focus"",""0"",""0""
""focus"",""0"",""2269""
""focus"",""3"",""14041""
""focus"",""4"",""38045""
","""event"",""trial"",""time""
""fullscreenenter"",""0"",""5176""
","
",15099.895000006654,<img style='border: 4px solid darkgrey;' src='img/tf1_31_M_ss3.jpeg'></img>,3,NA,exp,NA,2,<img src='img/tf1_31_T1_ss3_md.jpeg'></img>,0,FALSE,NA,sub66
NA,html-keyboard-response,77,470684,0.0-10.0-0.31,"""event"",""trial"",""time""
""blur"",""0"",""0""
""focus"",""0"",""0""
""blur"",""0"",""0""
""focus"",""0"",""2269""
""fullscreenenter"",""0"",""5176""
""blur"",""3"",""10609""
""focus"",""3"",""14041""
""blur"",""4"",""35505""
""focus"",""4"",""38045""
","""event"",""trial"",""time""
""blur"",""0"",""0""
""blur"",""0"",""0""
""blur"",""3"",""10609""
""blur"",""4"",""35505""
","""event"",""trial"",""time""
""focus"",""0"",""0""
""focus"",""0"",""2269""
""focus"",""3"",""14041""
""focus"",""4"",""38045""
","""event"",""trial"",""time""
""fullscreenenter"",""0"",""5176""
","
",null,"<div style=""font-size:60px;"">+</div>",NA,null,fixation,2020-06-16T18:20:23Z,NA,NA,NA,NA,NA,sub66
NA,mars-trial,78,482181,0.0-10.0-1.31,"""event"",""trial"",""time""
""blur"",""0"",""0""
""focus"",""0"",""0""
""blur"",""0"",""0""
""focus"",""0"",""2269""
""fullscreenenter"",""0"",""5176""
""blur"",""3"",""10609""
""focus"",""3"",""14041""
""blur"",""4"",""35505""
""focus"",""4"",""38045""
","""event"",""trial"",""time""
""blur"",""0"",""0""
""blur"",""0"",""0""
""blur"",""3"",""10609""
""blur"",""4"",""35505""
","""event"",""trial"",""time""
""focus"",""0"",""0""
""focus"",""0"",""2269""
""focus"",""3"",""14041""
""focus"",""4"",""38045""
","""event"",""trial"",""time""
""fullscreenenter"",""0"",""5176""
","
",10891.365000003134,<img style='border: 4px solid darkgrey;' src='img/tf1_32_M_ss1.jpeg'></img>,2,NA,exp,NA,0,<img src='img/tf1_32_T1_ss1_md.jpeg'></img>,0,TRUE,NA,sub66
NA,html-keyboard-response,79,482684,0.0-10.0-0.32,"""event"",""trial"",""time""
""blur"",""0"",""0""
""focus"",""0"",""0""
""blur"",""0"",""0""
""focus"",""0"",""2269""
""fullscreenenter"",""0"",""5176""
""blur"",""3"",""10609""
""focus"",""3"",""14041""
""blur"",""4"",""35505""
""focus"",""4"",""38045""
","""event"",""trial"",""time""
""blur"",""0"",""0""
""blur"",""0"",""0""
""blur"",""3"",""10609""
""blur"",""4"",""35505""
","""event"",""trial"",""time""
""focus"",""0"",""0""
""focus"",""0"",""2269""
""focus"",""3"",""14041""
""focus"",""4"",""38045""
","""event"",""trial"",""time""
""fullscreenenter"",""0"",""5176""
","
",null,"<div style=""font-size:60px;"">+</div>",NA,null,fixation,2020-06-16T18:20:35Z,NA,NA,NA,NA,NA,sub66
NA,mars-trial,80,490825,0.0-10.0-1.32,"""event"",""trial"",""time""
""blur"",""0"",""0""
""focus"",""0"",""0""
""blur"",""0"",""0""
""focus"",""0"",""2269""
""fullscreenenter"",""0"",""5176""
""blur"",""3"",""10609""
""focus"",""3"",""14041""
""blur"",""4"",""35505""
""focus"",""4"",""38045""
","""event"",""trial"",""time""
""blur"",""0"",""0""
""blur"",""0"",""0""
""blur"",""3"",""10609""
""blur"",""4"",""35505""
","""event"",""trial"",""time""
""focus"",""0"",""0""
""focus"",""0"",""2269""
""focus"",""3"",""14041""
""focus"",""4"",""38045""
","""event"",""trial"",""time""
""fullscreenenter"",""0"",""5176""
","
",7533.045000003767,<img style='border: 4px solid darkgrey;' src='img/tf1_33_M_ss2.jpeg'></img>,3,NA,exp,NA,0,<img src='img/tf1_33_T1_ss2_md.jpeg'></img>,0,TRUE,NA,sub66
NA,html-keyboard-response,81,491329,0.0-10.0-0.33,"""event"",""trial"",""time""
""blur"",""0"",""0""
""focus"",""0"",""0""
""blur"",""0"",""0""
""focus"",""0"",""2269""
""fullscreenenter"",""0"",""5176""
""blur"",""3"",""10609""
""focus"",""3"",""14041""
""blur"",""4"",""35505""
""focus"",""4"",""38045""
","""event"",""trial"",""time""
""blur"",""0"",""0""
""blur"",""0"",""0""
""blur"",""3"",""10609""
""blur"",""4"",""35505""
","""event"",""trial"",""time""
""focus"",""0"",""0""
""focus"",""0"",""2269""
""focus"",""3"",""14041""
""focus"",""4"",""38045""
","""event"",""trial"",""time""
""fullscreenenter"",""0"",""5176""
","
",null,"<div style=""font-size:60px;"">+</div>",NA,null,fixation,2020-06-16T18:20:44Z,NA,NA,NA,NA,NA,sub66
NA,mars-trial,82,511966,0.0-10.0-1.33,"""event"",""trial"",""time""
""blur"",""0"",""0""
""focus"",""0"",""0""
""blur"",""0"",""0""
""focus"",""0"",""2269""
""fullscreenenter"",""0"",""5176""
""blur"",""3"",""10609""
""focus"",""3"",""14041""
""blur"",""4"",""35505""
""focus"",""4"",""38045""
","""event"",""trial"",""time""
""blur"",""0"",""0""
""blur"",""0"",""0""
""blur"",""3"",""10609""
""blur"",""4"",""35505""
","""event"",""trial"",""time""
""focus"",""0"",""0""
""focus"",""0"",""2269""
""focus"",""3"",""14041""
""focus"",""4"",""38045""
","""event"",""trial"",""time""
""fullscreenenter"",""0"",""5176""
","
",20030.67999999621,<img style='border: 4px solid darkgrey;' src='img/tf1_34_M_ss3.jpeg'></img>,1,NA,exp,NA,0,<img src='img/tf1_34_T1_ss3_md.jpeg'></img>,0,TRUE,NA,sub66
NA,html-keyboard-response,83,512470,0.0-10.0-0.34,"""event"",""trial"",""time""
""blur"",""0"",""0""
""focus"",""0"",""0""
""blur"",""0"",""0""
""focus"",""0"",""2269""
""fullscreenenter"",""0"",""5176""
""blur"",""3"",""10609""
""focus"",""3"",""14041""
""blur"",""4"",""35505""
""focus"",""4"",""38045""
","""event"",""trial"",""time""
""blur"",""0"",""0""
""blur"",""0"",""0""
""blur"",""3"",""10609""
""blur"",""4"",""35505""
","""event"",""trial"",""time""
""focus"",""0"",""0""
""focus"",""0"",""2269""
""focus"",""3"",""14041""
""focus"",""4"",""38045""
","""event"",""trial"",""time""
""fullscreenenter"",""0"",""5176""
","
",null,"<div style=""font-size:60px;"">+</div>",NA,null,fixation,2020-06-16T18:21:05Z,NA,NA,NA,NA,NA,sub66
NA,mars-trial,84,528490,0.0-10.0-1.34,"""event"",""trial"",""time""
""blur"",""0"",""0""
""focus"",""0"",""0""
""blur"",""0"",""0""
""focus"",""0"",""2269""
""fullscreenenter"",""0"",""5176""
""blur"",""3"",""10609""
""focus"",""3"",""14041""
""blur"",""4"",""35505""
""focus"",""4"",""38045""
","""event"",""trial"",""time""
""blur"",""0"",""0""
""blur"",""0"",""0""
""blur"",""3"",""10609""
""blur"",""4"",""35505""
","""event"",""trial"",""time""
""focus"",""0"",""0""
""focus"",""0"",""2269""
""focus"",""3"",""14041""
""focus"",""4"",""38045""
","""event"",""trial"",""time""
""fullscreenenter"",""0"",""5176""
","
",15412.559999997029,<img style='border: 4px solid darkgrey;' src='img/tf1_35_M_ss1.jpeg'></img>,0,NA,exp,NA,0,<img src='img/tf1_35_T1_ss1_md.jpeg'></img>,0,TRUE,NA,sub66
NA,html-keyboard-response,85,528994,0.0-10.0-0.35,"""event"",""trial"",""time""
""blur"",""0"",""0""
""focus"",""0"",""0""
""blur"",""0"",""0""
""focus"",""0"",""2269""
""fullscreenenter"",""0"",""5176""
""blur"",""3"",""10609""
""focus"",""3"",""14041""
""blur"",""4"",""35505""
""focus"",""4"",""38045""
","""event"",""trial"",""time""
""blur"",""0"",""0""
""blur"",""0"",""0""
""blur"",""3"",""10609""
""blur"",""4"",""35505""
","""event"",""trial"",""time""
""focus"",""0"",""0""
""focus"",""0"",""2269""
""focus"",""3"",""14041""
""focus"",""4"",""38045""
","""event"",""trial"",""time""
""fullscreenenter"",""0"",""5176""
","
",null,"<div style=""font-size:60px;"">+</div>",NA,null,fixation,2020-06-16T18:21:22Z,NA,NA,NA,NA,NA,sub66
NA,mars-trial,86,547398,0.0-10.0-1.35,"""event"",""trial"",""time""
""blur"",""0"",""0""
""focus"",""0"",""0""
""blur"",""0"",""0""
""focus"",""0"",""2269""
""fullscreenenter"",""0"",""5176""
""blur"",""3"",""10609""
""focus"",""3"",""14041""
""blur"",""4"",""35505""
""focus"",""4"",""38045""
","""event"",""trial"",""time""
""blur"",""0"",""0""
""blur"",""0"",""0""
""blur"",""3"",""10609""
""blur"",""4"",""35505""
","""event"",""trial"",""time""
""focus"",""0"",""0""
""focus"",""0"",""2269""
""focus"",""3"",""14041""
""focus"",""4"",""38045""
","""event"",""trial"",""time""
""fullscreenenter"",""0"",""5176""
","
",17793.98499999661,<img style='border: 4px solid darkgrey;' src='img/tf1_36_M_ss2.jpeg'></img>,3,NA,exp,NA,0,<img src='img/tf1_36_T1_ss2_md.jpeg'></img>,0,TRUE,NA,sub66
NA,html-keyboard-response,87,547900,0.0-10.0-0.36,"""event"",""trial"",""time""
""blur"",""0"",""0""
""focus"",""0"",""0""
""blur"",""0"",""0""
""focus"",""0"",""2269""
""fullscreenenter"",""0"",""5176""
""blur"",""3"",""10609""
""focus"",""3"",""14041""
""blur"",""4"",""35505""
""focus"",""4"",""38045""
","""event"",""trial"",""time""
""blur"",""0"",""0""
""blur"",""0"",""0""
""blur"",""3"",""10609""
""blur"",""4"",""35505""
","""event"",""trial"",""time""
""focus"",""0"",""0""
""focus"",""0"",""2269""
""focus"",""3"",""14041""
""focus"",""4"",""38045""
","""event"",""trial"",""time""
""fullscreenenter"",""0"",""5176""
","
",null,"<div style=""font-size:60px;"">+</div>",NA,null,fixation,2020-06-16T18:21:41Z,NA,NA,NA,NA,NA,sub66
NA,mars-trial,88,555885,0.0-10.0-1.36,"""event"",""trial"",""time""
""blur"",""0"",""0""
""focus"",""0"",""0""
""blur"",""0"",""0""
""focus"",""0"",""2269""
""fullscreenenter"",""0"",""5176""
""blur"",""3"",""10609""
""focus"",""3"",""14041""
""blur"",""4"",""35505""
""focus"",""4"",""38045""
","""event"",""trial"",""time""
""blur"",""0"",""0""
""blur"",""0"",""0""
""blur"",""3"",""10609""
""blur"",""4"",""35505""
","""event"",""trial"",""time""
""focus"",""0"",""0""
""focus"",""0"",""2269""
""focus"",""3"",""14041""
""focus"",""4"",""38045""
","""event"",""trial"",""time""
""fullscreenenter"",""0"",""5176""
","
",NA,NA,NA,NA,exp,NA,NA,<img src='img/tf1_37_T1_ss3_md.jpeg'></img>,0,FALSE,NA,sub66
NA,html-keyboard-response,89,556388,0.0-10.0-0.37,"""event"",""trial"",""time""
""blur"",""0"",""0""
""focus"",""0"",""0""
""blur"",""0"",""0""
""focus"",""0"",""2269""
""fullscreenenter"",""0"",""5176""
""blur"",""3"",""10609""
""focus"",""3"",""14041""
""blur"",""4"",""35505""
""focus"",""4"",""38045""
","""event"",""trial"",""time""
""blur"",""0"",""0""
""blur"",""0"",""0""
""blur"",""3"",""10609""
""blur"",""4"",""35505""
","""event"",""trial"",""time""
""focus"",""0"",""0""
""focus"",""0"",""2269""
""focus"",""3"",""14041""
""focus"",""4"",""38045""
","""event"",""trial"",""time""
""fullscreenenter"",""0"",""5176""
","
",null,"<div style=""font-size:60px;"">+</div>",NA,null,fixation,2020-06-16T18:21:49Z,NA,NA,NA,NA,NA,sub66
NA,audio-button-response,90,561083,0.0-11.0,"""event"",""trial"",""time""
""blur"",""0"",""0""
""focus"",""0"",""0""
""blur"",""0"",""0""
""focus"",""0"",""2269""
""fullscreenenter"",""0"",""5176""
""blur"",""3"",""10609""
""focus"",""3"",""14041""
""blur"",""4"",""35505""
""focus"",""4"",""38045""
","""event"",""trial"",""time""
""blur"",""0"",""0""
""blur"",""0"",""0""
""blur"",""3"",""10609""
""blur"",""4"",""35505""
","""event"",""trial"",""time""
""focus"",""0"",""0""
""focus"",""0"",""2269""
""focus"",""3"",""14041""
""focus"",""4"",""38045""
","""event"",""trial"",""time""
""fullscreenenter"",""0"",""5176""
","
",4591.104999999516,audio/mars_instructions_slide5.wav,0,NA,NA,NA,NA,NA,NA,NA,NA,sub66
