success,trial_type,trial_index,time_elapsed,internal_node_id,interactions,blur_events,focus_events,fullscreenenter_events,fullscreenexit_events,rt,stimulus,button_pressed,key_press,part,timestamp,unshuffled_button,correct_response,correct_button,correct,value,subject_id
TRUE,fullscreen,0,10344,0.0-0.0,"""event"",""trial"",""time""
""focus"",""0"",""6942""
""fullscreenenter"",""0"",""9361""
","
","""event"",""trial"",""time""
""focus"",""0"",""6942""
","""event"",""trial"",""time""
""fullscreenenter"",""0"",""9361""
","
",NA,NA,NA,NA,NA,NA,NA,NA,NA,NA,NA,sub15
NA,pavlovia,1,10349,0.0-1.0,"""event"",""trial"",""time""
""focus"",""0"",""6942""
""fullscreenenter"",""0"",""9361""
","
","""event"",""trial"",""time""
""focus"",""0"",""6942""
","""event"",""trial"",""time""
""fullscreenenter"",""0"",""9361""
","
",NA,NA,NA,NA,NA,NA,NA,NA,NA,NA,NA,sub15
NA,html-button-response,2,12466,0.0-2.0,"""event"",""trial"",""time""
""focus"",""0"",""6942""
""fullscreenenter"",""0"",""9361""
","
","""event"",""trial"",""time""
""focus"",""0"",""6942""
","""event"",""trial"",""time""
""fullscreenenter"",""0"",""9361""
","
",2115.49500000001,<p>Welcome! Press START to begin.</p><br>,0,NA,NA,NA,NA,NA,NA,NA,NA,sub15
NA,audio-button-response,3,33786,0.0-3.0,"""event"",""trial"",""time""
""focus"",""0"",""6942""
""fullscreenenter"",""0"",""9361""
","
","""event"",""trial"",""time""
""focus"",""0"",""6942""
","""event"",""trial"",""time""
""fullscreenenter"",""0"",""9361""
","
",21319.449999999957,audio/mars_instructions_slide2.wav,0,NA,NA,NA,NA,NA,NA,NA,NA,sub15
NA,audio-button-response,4,49672,0.0-4.0,"""event"",""trial"",""time""
""focus"",""0"",""6942""
""fullscreenenter"",""0"",""9361""
","
","""event"",""trial"",""time""
""focus"",""0"",""6942""
","""event"",""trial"",""time""
""fullscreenenter"",""0"",""9361""
","
",15884.884999999944,audio/mars_instructions_slide3.wav,0,NA,NA,NA,NA,NA,NA,NA,NA,sub15
NA,html-keyboard-response,5,50177,0.0-5.0-0.0,"""event"",""trial"",""time""
""focus"",""0"",""6942""
""fullscreenenter"",""0"",""9361""
","
","""event"",""trial"",""time""
""focus"",""0"",""6942""
","""event"",""trial"",""time""
""fullscreenenter"",""0"",""9361""
","
",null,"<div style=""font-size:60px;"">+</div>",NA,null,fixation,2020-06-14T18:10:56Z,NA,NA,NA,NA,NA,sub15
NA,mars-trial,6,56830,0.0-5.0-1.0,"""event"",""trial"",""time""
""focus"",""0"",""6942""
""fullscreenenter"",""0"",""9361""
","
","""event"",""trial"",""time""
""focus"",""0"",""6942""
","""event"",""trial"",""time""
""fullscreenenter"",""0"",""9361""
","
",4542.219999999819,<img style='border: 4px solid darkgrey;' src='practice/pt1_M1.png'></img>,2,NA,practice,NA,2,<img src='practice/pt1_T1.png'></img>,0,FALSE,NA,sub15
NA,html-keyboard-response,7,57334,0.0-5.1-0.1,"""event"",""trial"",""time""
""focus"",""0"",""6942""
""fullscreenenter"",""0"",""9361""
","
","""event"",""trial"",""time""
""focus"",""0"",""6942""
","""event"",""trial"",""time""
""fullscreenenter"",""0"",""9361""
","
",null,"<div style=""font-size:60px;"">+</div>",NA,null,fixation,2020-06-14T18:11:03Z,NA,NA,NA,NA,NA,sub15
NA,mars-trial,8,61456,0.0-5.1-1.1,"""event"",""trial"",""time""
""focus"",""0"",""6942""
""fullscreenenter"",""0"",""9361""
","
","""event"",""trial"",""time""
""focus"",""0"",""6942""
","""event"",""trial"",""time""
""fullscreenenter"",""0"",""9361""
","
",2011.349999999773,<img style='border: 4px solid darkgrey;' src='practice/pt1_M1.png'></img>,2,NA,practice,NA,3,<img src='practice/pt1_T1.png'></img>,0,FALSE,NA,sub15
NA,html-keyboard-response,9,61961,0.0-5.2-0.2,"""event"",""trial"",""time""
""focus"",""0"",""6942""
""fullscreenenter"",""0"",""9361""
","
","""event"",""trial"",""time""
""focus"",""0"",""6942""
","""event"",""trial"",""time""
""fullscreenenter"",""0"",""9361""
","
",null,"<div style=""font-size:60px;"">+</div>",NA,null,fixation,2020-06-14T18:11:07Z,NA,NA,NA,NA,NA,sub15
NA,mars-trial,10,68535,0.0-5.2-1.2,"""event"",""trial"",""time""
""focus"",""0"",""6942""
""fullscreenenter"",""0"",""9361""
","
","""event"",""trial"",""time""
""focus"",""0"",""6942""
","""event"",""trial"",""time""
""fullscreenenter"",""0"",""9361""
","
",4466.535000000018,<img style='border: 4px solid darkgrey;' src='practice/pt1_M1.png'></img>,2,NA,practice,NA,0,<img src='practice/pt1_T1.png'></img>,0,TRUE,NA,sub15
NA,html-keyboard-response,11,69037,0.0-6.0-0.0,"""event"",""trial"",""time""
""focus"",""0"",""6942""
""fullscreenenter"",""0"",""9361""
","
","""event"",""trial"",""time""
""focus"",""0"",""6942""
","""event"",""trial"",""time""
""fullscreenenter"",""0"",""9361""
","
",null,"<div style=""font-size:60px;"">+</div>",NA,null,fixation,2020-06-14T18:11:15Z,NA,NA,NA,NA,NA,sub15
NA,mars-trial,12,73269,0.0-6.0-1.0,"""event"",""trial"",""time""
""focus"",""0"",""6942""
""fullscreenenter"",""0"",""9361""
","
","""event"",""trial"",""time""
""focus"",""0"",""6942""
","""event"",""trial"",""time""
""fullscreenenter"",""0"",""9361""
","
",2124.279999999999,<img style='border: 4px solid darkgrey;' src='practice/pt2_M1.png'></img>,1,NA,practice,NA,0,<img src='practice/pt2_T1.png'></img>,0,TRUE,NA,sub15
NA,html-keyboard-response,13,73773,0.0-7.0-0.0,"""event"",""trial"",""time""
""focus"",""0"",""6942""
""fullscreenenter"",""0"",""9361""
","
","""event"",""trial"",""time""
""focus"",""0"",""6942""
","""event"",""trial"",""time""
""fullscreenenter"",""0"",""9361""
","
",null,"<div style=""font-size:60px;"">+</div>",NA,null,fixation,2020-06-14T18:11:19Z,NA,NA,NA,NA,NA,sub15
NA,mars-trial,14,77744,0.0-7.0-1.0,"""event"",""trial"",""time""
""focus"",""0"",""6942""
""fullscreenenter"",""0"",""9361""
","
","""event"",""trial"",""time""
""focus"",""0"",""6942""
","""event"",""trial"",""time""
""fullscreenenter"",""0"",""9361""
","
",1864.1800000000367,<img style='border: 4px solid darkgrey;' src='practice/pt3_M1.png'></img>,3,NA,practice,NA,0,<img src='practice/pt3_T1.png'></img>,0,TRUE,NA,sub15
NA,audio-button-response,15,82185,0.0-8.0,"""event"",""trial"",""time""
""focus"",""0"",""6942""
""fullscreenenter"",""0"",""9361""
","
","""event"",""trial"",""time""
""focus"",""0"",""6942""
","""event"",""trial"",""time""
""fullscreenenter"",""0"",""9361""
","
",4439.354999999981,audio/mars_instructions_slide4.wav,0,NA,NA,NA,NA,NA,NA,NA,NA,sub15
NA,call-function,16,82186,0.0-9.0,"""event"",""trial"",""time""
""focus"",""0"",""6942""
""fullscreenenter"",""0"",""9361""
","
","""event"",""trial"",""time""
""focus"",""0"",""6942""
","""event"",""trial"",""time""
""fullscreenenter"",""0"",""9361""
","
",NA,NA,NA,NA,NA,NA,NA,NA,NA,NA,NA,sub15
NA,html-keyboard-response,17,82690,0.0-10.0-0.0,"""event"",""trial"",""time""
""focus"",""0"",""6942""
""fullscreenenter"",""0"",""9361""
","
","""event"",""trial"",""time""
""focus"",""0"",""6942""
","""event"",""trial"",""time""
""fullscreenenter"",""0"",""9361""
","
",null,"<div style=""font-size:60px;"">+</div>",NA,null,fixation,2020-06-14T18:11:28Z,NA,NA,NA,NA,NA,sub15
NA,mars-trial,18,84771,0.0-10.0-1.0,"""event"",""trial"",""time""
""focus"",""0"",""6942""
""fullscreenenter"",""0"",""9361""
","
","""event"",""trial"",""time""
""focus"",""0"",""6942""
","""event"",""trial"",""time""
""fullscreenenter"",""0"",""9361""
","
",1472.8700000000536,<img style='border: 4px solid darkgrey;' src='img/tf1_1_M_ss3.jpeg'></img>,1,NA,exp,NA,0,<img src='img/tf1_1_T1_ss3_md.jpeg'></img>,0,TRUE,NA,sub15
NA,html-keyboard-response,19,85273,0.0-10.0-0.1,"""event"",""trial"",""time""
""focus"",""0"",""6942""
""fullscreenenter"",""0"",""9361""
","
","""event"",""trial"",""time""
""focus"",""0"",""6942""
","""event"",""trial"",""time""
""fullscreenenter"",""0"",""9361""
","
",null,"<div style=""font-size:60px;"">+</div>",NA,null,fixation,2020-06-14T18:11:31Z,NA,NA,NA,NA,NA,sub15
NA,mars-trial,20,87760,0.0-10.0-1.1,"""event"",""trial"",""time""
""focus"",""0"",""6942""
""fullscreenenter"",""0"",""9361""
","
","""event"",""trial"",""time""
""focus"",""0"",""6942""
","""event"",""trial"",""time""
""fullscreenenter"",""0"",""9361""
","
",1883.4350000002014,<img style='border: 4px solid darkgrey;' src='img/tf1_2_M_ss1.jpeg'></img>,2,NA,exp,NA,0,<img src='img/tf1_2_T1_ss1_md.jpeg'></img>,0,TRUE,NA,sub15
NA,html-keyboard-response,21,88262,0.0-10.0-0.2,"""event"",""trial"",""time""
""focus"",""0"",""6942""
""fullscreenenter"",""0"",""9361""
","
","""event"",""trial"",""time""
""focus"",""0"",""6942""
","""event"",""trial"",""time""
""fullscreenenter"",""0"",""9361""
","
",null,"<div style=""font-size:60px;"">+</div>",NA,null,fixation,2020-06-14T18:11:34Z,NA,NA,NA,NA,NA,sub15
NA,mars-trial,22,90615,0.0-10.0-1.2,"""event"",""trial"",""time""
""focus"",""0"",""6942""
""fullscreenenter"",""0"",""9361""
","
","""event"",""trial"",""time""
""focus"",""0"",""6942""
","""event"",""trial"",""time""
""fullscreenenter"",""0"",""9361""
","
",1744.0549999996583,<img style='border: 4px solid darkgrey;' src='img/tf1_3_M_ss2.jpeg'></img>,0,NA,exp,NA,2,<img src='img/tf1_3_T1_ss2_md.jpeg'></img>,0,FALSE,NA,sub15
NA,html-keyboard-response,23,91118,0.0-10.0-0.3,"""event"",""trial"",""time""
""focus"",""0"",""6942""
""fullscreenenter"",""0"",""9361""
","
","""event"",""trial"",""time""
""focus"",""0"",""6942""
","""event"",""trial"",""time""
""fullscreenenter"",""0"",""9361""
","
",null,"<div style=""font-size:60px;"">+</div>",NA,null,fixation,2020-06-14T18:11:37Z,NA,NA,NA,NA,NA,sub15
NA,mars-trial,24,95896,0.0-10.0-1.3,"""event"",""trial"",""time""
""focus"",""0"",""6942""
""fullscreenenter"",""0"",""9361""
","
","""event"",""trial"",""time""
""focus"",""0"",""6942""
","""event"",""trial"",""time""
""fullscreenenter"",""0"",""9361""
","
",4166.400000000067,<img style='border: 4px solid darkgrey;' src='img/tf1_4_M_ss3.jpeg'></img>,3,NA,exp,NA,0,<img src='img/tf1_4_T1_ss3_md.jpeg'></img>,0,TRUE,NA,sub15
NA,html-keyboard-response,25,96401,0.0-10.0-0.4,"""event"",""trial"",""time""
""focus"",""0"",""6942""
""fullscreenenter"",""0"",""9361""
","
","""event"",""trial"",""time""
""focus"",""0"",""6942""
","""event"",""trial"",""time""
""fullscreenenter"",""0"",""9361""
","
",null,"<div style=""font-size:60px;"">+</div>",NA,null,fixation,2020-06-14T18:11:42Z,NA,NA,NA,NA,NA,sub15
NA,mars-trial,26,99332,0.0-10.0-1.4,"""event"",""trial"",""time""
""focus"",""0"",""6942""
""fullscreenenter"",""0"",""9361""
","
","""event"",""trial"",""time""
""focus"",""0"",""6942""
","""event"",""trial"",""time""
""fullscreenenter"",""0"",""9361""
","
",2323.4400000001187,<img style='border: 4px solid darkgrey;' src='img/tf1_5_M_ss1.jpeg'></img>,0,NA,exp,NA,0,<img src='img/tf1_5_T1_ss1_md.jpeg'></img>,0,TRUE,NA,sub15
NA,html-keyboard-response,27,99837,0.0-10.0-0.5,"""event"",""trial"",""time""
""focus"",""0"",""6942""
""fullscreenenter"",""0"",""9361""
","
","""event"",""trial"",""time""
""focus"",""0"",""6942""
","""event"",""trial"",""time""
""fullscreenenter"",""0"",""9361""
","
",null,"<div style=""font-size:60px;"">+</div>",NA,null,fixation,2020-06-14T18:11:45Z,NA,NA,NA,NA,NA,sub15
NA,mars-trial,28,102865,0.0-10.0-1.5,"""event"",""trial"",""time""
""focus"",""0"",""6942""
""fullscreenenter"",""0"",""9361""
","
","""event"",""trial"",""time""
""focus"",""0"",""6942""
","""event"",""trial"",""time""
""fullscreenenter"",""0"",""9361""
","
",2422.085000000152,<img style='border: 4px solid darkgrey;' src='img/tf1_6_M_ss2.jpeg'></img>,2,NA,exp,NA,0,<img src='img/tf1_6_T1_ss2_md.jpeg'></img>,0,TRUE,NA,sub15
NA,html-keyboard-response,29,103367,0.0-10.0-0.6,"""event"",""trial"",""time""
""focus"",""0"",""6942""
""fullscreenenter"",""0"",""9361""
","
","""event"",""trial"",""time""
""focus"",""0"",""6942""
","""event"",""trial"",""time""
""fullscreenenter"",""0"",""9361""
","
",null,"<div style=""font-size:60px;"">+</div>",NA,null,fixation,2020-06-14T18:11:49Z,NA,NA,NA,NA,NA,sub15
NA,mars-trial,30,108510,0.0-10.0-1.6,"""event"",""trial"",""time""
""focus"",""0"",""6942""
""fullscreenenter"",""0"",""9361""
","
","""event"",""trial"",""time""
""focus"",""0"",""6942""
","""event"",""trial"",""time""
""fullscreenenter"",""0"",""9361""
","
",4535.84499999987,<img style='border: 4px solid darkgrey;' src='img/tf1_7_M_ss3.jpeg'></img>,1,NA,exp,NA,0,<img src='img/tf1_7_T1_ss3_md.jpeg'></img>,0,TRUE,NA,sub15
NA,html-keyboard-response,31,109012,0.0-10.0-0.7,"""event"",""trial"",""time""
""focus"",""0"",""6942""
""fullscreenenter"",""0"",""9361""
","
","""event"",""trial"",""time""
""focus"",""0"",""6942""
","""event"",""trial"",""time""
""fullscreenenter"",""0"",""9361""
","
",null,"<div style=""font-size:60px;"">+</div>",NA,null,fixation,2020-06-14T18:11:55Z,NA,NA,NA,NA,NA,sub15
NA,mars-trial,32,114998,0.0-10.0-1.7,"""event"",""trial"",""time""
""focus"",""0"",""6942""
""fullscreenenter"",""0"",""9361""
","
","""event"",""trial"",""time""
""focus"",""0"",""6942""
","""event"",""trial"",""time""
""fullscreenenter"",""0"",""9361""
","
",5381.3350000000355,<img style='border: 4px solid darkgrey;' src='img/tf1_8_M_ss1.jpeg'></img>,0,NA,exp,NA,1,<img src='img/tf1_8_T1_ss1_md.jpeg'></img>,0,FALSE,NA,sub15
NA,html-keyboard-response,33,115500,0.0-10.0-0.8,"""event"",""trial"",""time""
""focus"",""0"",""6942""
""fullscreenenter"",""0"",""9361""
","
","""event"",""trial"",""time""
""focus"",""0"",""6942""
","""event"",""trial"",""time""
""fullscreenenter"",""0"",""9361""
","
",null,"<div style=""font-size:60px;"">+</div>",NA,null,fixation,2020-06-14T18:12:01Z,NA,NA,NA,NA,NA,sub15
NA,mars-trial,34,119466,0.0-10.0-1.8,"""event"",""trial"",""time""
""focus"",""0"",""6942""
""fullscreenenter"",""0"",""9361""
","
","""event"",""trial"",""time""
""focus"",""0"",""6942""
","""event"",""trial"",""time""
""fullscreenenter"",""0"",""9361""
","
",3361.119999999588,<img style='border: 4px solid darkgrey;' src='img/tf1_9_M_ss2.jpeg'></img>,2,NA,exp,NA,2,<img src='img/tf1_9_T1_ss2_md.jpeg'></img>,0,FALSE,NA,sub15
NA,html-keyboard-response,35,119971,0.0-10.0-0.9,"""event"",""trial"",""time""
""focus"",""0"",""6942""
""fullscreenenter"",""0"",""9361""
","
","""event"",""trial"",""time""
""focus"",""0"",""6942""
","""event"",""trial"",""time""
""fullscreenenter"",""0"",""9361""
","
",null,"<div style=""font-size:60px;"">+</div>",NA,null,fixation,2020-06-14T18:12:05Z,NA,NA,NA,NA,NA,sub15
NA,mars-trial,36,124748,0.0-10.0-1.9,"""event"",""trial"",""time""
""focus"",""0"",""6942""
""fullscreenenter"",""0"",""9361""
","
","""event"",""trial"",""time""
""focus"",""0"",""6942""
","""event"",""trial"",""time""
""fullscreenenter"",""0"",""9361""
","
",4169.95999999973,<img style='border: 4px solid darkgrey;' src='img/tf1_10_M_ss3.jpeg'></img>,3,NA,exp,NA,0,<img src='img/tf1_10_T1_ss3_md.jpeg'></img>,0,TRUE,NA,sub15
NA,html-keyboard-response,37,125252,0.0-10.0-0.10,"""event"",""trial"",""time""
""focus"",""0"",""6942""
""fullscreenenter"",""0"",""9361""
","
","""event"",""trial"",""time""
""focus"",""0"",""6942""
","""event"",""trial"",""time""
""fullscreenenter"",""0"",""9361""
","
",null,"<div style=""font-size:60px;"">+</div>",NA,null,fixation,2020-06-14T18:12:11Z,NA,NA,NA,NA,NA,sub15
NA,mars-trial,38,129772,0.0-10.0-1.10,"""event"",""trial"",""time""
""focus"",""0"",""6942""
""fullscreenenter"",""0"",""9361""
","
","""event"",""trial"",""time""
""focus"",""0"",""6942""
","""event"",""trial"",""time""
""fullscreenenter"",""0"",""9361""
","
",3910.1799999998766,<img style='border: 4px solid darkgrey;' src='img/tf1_11_M_ss1.jpeg'></img>,3,NA,exp,NA,2,<img src='img/tf1_11_T1_ss1_md.jpeg'></img>,0,FALSE,NA,sub15
NA,html-keyboard-response,39,130275,0.0-10.0-0.11,"""event"",""trial"",""time""
""focus"",""0"",""6942""
""fullscreenenter"",""0"",""9361""
","
","""event"",""trial"",""time""
""focus"",""0"",""6942""
","""event"",""trial"",""time""
""fullscreenenter"",""0"",""9361""
","
",null,"<div style=""font-size:60px;"">+</div>",NA,null,fixation,2020-06-14T18:12:16Z,NA,NA,NA,NA,NA,sub15
NA,mars-trial,40,134212,0.0-10.0-1.11,"""event"",""trial"",""time""
""focus"",""0"",""6942""
""fullscreenenter"",""0"",""9361""
","
","""event"",""trial"",""time""
""focus"",""0"",""6942""
","""event"",""trial"",""time""
""fullscreenenter"",""0"",""9361""
","
",3327.8550000000105,<img style='border: 4px solid darkgrey;' src='img/tf1_12_M_ss2.jpeg'></img>,3,NA,exp,NA,1,<img src='img/tf1_12_T1_ss2_md.jpeg'></img>,0,FALSE,NA,sub15
NA,html-keyboard-response,41,134714,0.0-10.0-0.12,"""event"",""trial"",""time""
""focus"",""0"",""6942""
""fullscreenenter"",""0"",""9361""
","
","""event"",""trial"",""time""
""focus"",""0"",""6942""
","""event"",""trial"",""time""
""fullscreenenter"",""0"",""9361""
","
",null,"<div style=""font-size:60px;"">+</div>",NA,null,fixation,2020-06-14T18:12:20Z,NA,NA,NA,NA,NA,sub15
NA,mars-trial,42,138969,0.0-10.0-1.12,"""event"",""trial"",""time""
""focus"",""0"",""6942""
""fullscreenenter"",""0"",""9361""
","
","""event"",""trial"",""time""
""focus"",""0"",""6942""
","""event"",""trial"",""time""
""fullscreenenter"",""0"",""9361""
","
",3647.015000000014,<img style='border: 4px solid darkgrey;' src='img/tf1_13_M_ss3.jpeg'></img>,2,NA,exp,NA,2,<img src='img/tf1_13_T1_ss3_md.jpeg'></img>,0,FALSE,NA,sub15
NA,html-keyboard-response,43,139471,0.0-10.0-0.13,"""event"",""trial"",""time""
""focus"",""0"",""6942""
""fullscreenenter"",""0"",""9361""
","
","""event"",""trial"",""time""
""focus"",""0"",""6942""
","""event"",""trial"",""time""
""fullscreenenter"",""0"",""9361""
","
",null,"<div style=""font-size:60px;"">+</div>",NA,null,fixation,2020-06-14T18:12:25Z,NA,NA,NA,NA,NA,sub15
NA,mars-trial,44,145048,0.0-10.0-1.13,"""event"",""trial"",""time""
""focus"",""0"",""6942""
""fullscreenenter"",""0"",""9361""
","
","""event"",""trial"",""time""
""focus"",""0"",""6942""
","""event"",""trial"",""time""
""fullscreenenter"",""0"",""9361""
","
",4966.820000000094,<img style='border: 4px solid darkgrey;' src='img/tf1_14_M_ss1.jpeg'></img>,2,NA,exp,NA,1,<img src='img/tf1_14_T1_ss1_md.jpeg'></img>,0,FALSE,NA,sub15
NA,html-keyboard-response,45,145551,0.0-10.0-0.14,"""event"",""trial"",""time""
""focus"",""0"",""6942""
""fullscreenenter"",""0"",""9361""
","
","""event"",""trial"",""time""
""focus"",""0"",""6942""
","""event"",""trial"",""time""
""fullscreenenter"",""0"",""9361""
","
",null,"<div style=""font-size:60px;"">+</div>",NA,null,fixation,2020-06-14T18:12:31Z,NA,NA,NA,NA,NA,sub15
NA,mars-trial,46,154605,0.0-10.0-1.14,"""event"",""trial"",""time""
""focus"",""0"",""6942""
""fullscreenenter"",""0"",""9361""
","
","""event"",""trial"",""time""
""focus"",""0"",""6942""
","""event"",""trial"",""time""
""fullscreenenter"",""0"",""9361""
","
",8444.610000000015,<img style='border: 4px solid darkgrey;' src='img/tf1_15_M_ss2.jpeg'></img>,0,NA,exp,NA,0,<img src='img/tf1_15_T1_ss2_md.jpeg'></img>,0,TRUE,NA,sub15
NA,html-keyboard-response,47,155108,0.0-10.0-0.15,"""event"",""trial"",""time""
""focus"",""0"",""6942""
""fullscreenenter"",""0"",""9361""
","
","""event"",""trial"",""time""
""focus"",""0"",""6942""
","""event"",""trial"",""time""
""fullscreenenter"",""0"",""9361""
","
",null,"<div style=""font-size:60px;"">+</div>",NA,null,fixation,2020-06-14T18:12:41Z,NA,NA,NA,NA,NA,sub15
NA,mars-trial,48,158284,0.0-10.0-1.15,"""event"",""trial"",""time""
""focus"",""0"",""6942""
""fullscreenenter"",""0"",""9361""
","
","""event"",""trial"",""time""
""focus"",""0"",""6942""
","""event"",""trial"",""time""
""fullscreenenter"",""0"",""9361""
","
",2569.9749999998894,<img style='border: 4px solid darkgrey;' src='img/tf1_16_M_ss3.jpeg'></img>,2,NA,exp,NA,2,<img src='img/tf1_16_T1_ss3_md.jpeg'></img>,0,FALSE,NA,sub15
NA,html-keyboard-response,49,158786,0.0-10.0-0.16,"""event"",""trial"",""time""
""focus"",""0"",""6942""
""fullscreenenter"",""0"",""9361""
","
","""event"",""trial"",""time""
""focus"",""0"",""6942""
","""event"",""trial"",""time""
""fullscreenenter"",""0"",""9361""
","
",null,"<div style=""font-size:60px;"">+</div>",NA,null,fixation,2020-06-14T18:12:44Z,NA,NA,NA,NA,NA,sub15
NA,mars-trial,50,162843,0.0-10.0-1.16,"""event"",""trial"",""time""
""focus"",""0"",""6942""
""fullscreenenter"",""0"",""9361""
","
","""event"",""trial"",""time""
""focus"",""0"",""6942""
","""event"",""trial"",""time""
""fullscreenenter"",""0"",""9361""
","
",3447.105000000185,<img style='border: 4px solid darkgrey;' src='img/tf1_17_M_ss1.jpeg'></img>,3,NA,exp,NA,3,<img src='img/tf1_17_T1_ss1_md.jpeg'></img>,0,FALSE,NA,sub15
NA,html-keyboard-response,51,163346,0.0-10.0-0.17,"""event"",""trial"",""time""
""focus"",""0"",""6942""
""fullscreenenter"",""0"",""9361""
","
","""event"",""trial"",""time""
""focus"",""0"",""6942""
","""event"",""trial"",""time""
""fullscreenenter"",""0"",""9361""
","
",null,"<div style=""font-size:60px;"">+</div>",NA,null,fixation,2020-06-14T18:12:49Z,NA,NA,NA,NA,NA,sub15
NA,mars-trial,52,166318,0.0-10.0-1.17,"""event"",""trial"",""time""
""focus"",""0"",""6942""
""fullscreenenter"",""0"",""9361""
","
","""event"",""trial"",""time""
""focus"",""0"",""6942""
","""event"",""trial"",""time""
""fullscreenenter"",""0"",""9361""
","
",2363.274999999703,<img style='border: 4px solid darkgrey;' src='img/tf1_18_M_ss2.jpeg'></img>,0,NA,exp,NA,0,<img src='img/tf1_18_T1_ss2_md.jpeg'></img>,0,TRUE,NA,sub15
NA,html-keyboard-response,53,166820,0.0-10.0-0.18,"""event"",""trial"",""time""
""focus"",""0"",""6942""
""fullscreenenter"",""0"",""9361""
","
","""event"",""trial"",""time""
""focus"",""0"",""6942""
","""event"",""trial"",""time""
""fullscreenenter"",""0"",""9361""
","
",null,"<div style=""font-size:60px;"">+</div>",NA,null,fixation,2020-06-14T18:12:52Z,NA,NA,NA,NA,NA,sub15
NA,mars-trial,54,172149,0.0-10.0-1.18,"""event"",""trial"",""time""
""focus"",""0"",""6942""
""fullscreenenter"",""0"",""9361""
","
","""event"",""trial"",""time""
""focus"",""0"",""6942""
","""event"",""trial"",""time""
""fullscreenenter"",""0"",""9361""
","
",4719.59500000003,<img style='border: 4px solid darkgrey;' src='img/tf1_19_M_ss3.jpeg'></img>,1,NA,exp,NA,0,<img src='img/tf1_19_T1_ss3_md.jpeg'></img>,0,TRUE,NA,sub15
NA,html-keyboard-response,55,172652,0.0-10.0-0.19,"""event"",""trial"",""time""
""focus"",""0"",""6942""
""fullscreenenter"",""0"",""9361""
","
","""event"",""trial"",""time""
""focus"",""0"",""6942""
","""event"",""trial"",""time""
""fullscreenenter"",""0"",""9361""
","
",null,"<div style=""font-size:60px;"">+</div>",NA,null,fixation,2020-06-14T18:12:58Z,NA,NA,NA,NA,NA,sub15
NA,mars-trial,56,176264,0.0-10.0-1.19,"""event"",""trial"",""time""
""focus"",""0"",""6942""
""fullscreenenter"",""0"",""9361""
","
","""event"",""trial"",""time""
""focus"",""0"",""6942""
","""event"",""trial"",""time""
""fullscreenenter"",""0"",""9361""
","
",3007.700000000099,<img style='border: 4px solid darkgrey;' src='img/tf1_20_M_ss1.jpeg'></img>,2,NA,exp,NA,0,<img src='img/tf1_20_T1_ss1_md.jpeg'></img>,0,TRUE,NA,sub15
NA,html-keyboard-response,57,176767,0.0-10.0-0.20,"""event"",""trial"",""time""
""focus"",""0"",""6942""
""fullscreenenter"",""0"",""9361""
","
","""event"",""trial"",""time""
""focus"",""0"",""6942""
","""event"",""trial"",""time""
""fullscreenenter"",""0"",""9361""
","
",null,"<div style=""font-size:60px;"">+</div>",NA,null,fixation,2020-06-14T18:13:02Z,NA,NA,NA,NA,NA,sub15
NA,mars-trial,58,180118,0.0-10.0-1.20,"""event"",""trial"",""time""
""focus"",""0"",""6942""
""fullscreenenter"",""0"",""9361""
","
","""event"",""trial"",""time""
""focus"",""0"",""6942""
","""event"",""trial"",""time""
""fullscreenenter"",""0"",""9361""
","
",2743.8050000000803,<img style='border: 4px solid darkgrey;' src='img/tf1_21_M_ss2.jpeg'></img>,2,NA,exp,NA,2,<img src='img/tf1_21_T1_ss2_md.jpeg'></img>,0,FALSE,NA,sub15
NA,html-keyboard-response,59,180623,0.0-10.0-0.21,"""event"",""trial"",""time""
""focus"",""0"",""6942""
""fullscreenenter"",""0"",""9361""
","
","""event"",""trial"",""time""
""focus"",""0"",""6942""
","""event"",""trial"",""time""
""fullscreenenter"",""0"",""9361""
","
",null,"<div style=""font-size:60px;"">+</div>",NA,null,fixation,2020-06-14T18:13:06Z,NA,NA,NA,NA,NA,sub15
NA,mars-trial,60,184224,0.0-10.0-1.21,"""event"",""trial"",""time""
""focus"",""0"",""6942""
""fullscreenenter"",""0"",""9361""
","
","""event"",""trial"",""time""
""focus"",""0"",""6942""
","""event"",""trial"",""time""
""fullscreenenter"",""0"",""9361""
","
",2991.5049999999464,<img style='border: 4px solid darkgrey;' src='img/tf1_22_M_ss3.jpeg'></img>,0,NA,exp,NA,1,<img src='img/tf1_22_T1_ss3_md.jpeg'></img>,0,FALSE,NA,sub15
NA,html-keyboard-response,61,184727,0.0-10.0-0.22,"""event"",""trial"",""time""
""focus"",""0"",""6942""
""fullscreenenter"",""0"",""9361""
","
","""event"",""trial"",""time""
""focus"",""0"",""6942""
","""event"",""trial"",""time""
""fullscreenenter"",""0"",""9361""
","
",null,"<div style=""font-size:60px;"">+</div>",NA,null,fixation,2020-06-14T18:13:10Z,NA,NA,NA,NA,NA,sub15
NA,mars-trial,62,187692,0.0-10.0-1.22,"""event"",""trial"",""time""
""focus"",""0"",""6942""
""fullscreenenter"",""0"",""9361""
","
","""event"",""trial"",""time""
""focus"",""0"",""6942""
","""event"",""trial"",""time""
""fullscreenenter"",""0"",""9361""
","
",2359.165000000299,<img style='border: 4px solid darkgrey;' src='img/tf1_23_M_ss1.jpeg'></img>,2,NA,exp,NA,3,<img src='img/tf1_23_T1_ss1_md.jpeg'></img>,0,FALSE,NA,sub15
NA,html-keyboard-response,63,188195,0.0-10.0-0.23,"""event"",""trial"",""time""
""focus"",""0"",""6942""
""fullscreenenter"",""0"",""9361""
","
","""event"",""trial"",""time""
""focus"",""0"",""6942""
","""event"",""trial"",""time""
""fullscreenenter"",""0"",""9361""
","
",null,"<div style=""font-size:60px;"">+</div>",NA,null,fixation,2020-06-14T18:13:14Z,NA,NA,NA,NA,NA,sub15
NA,mars-trial,64,192402,0.0-10.0-1.23,"""event"",""trial"",""time""
""focus"",""0"",""6942""
""fullscreenenter"",""0"",""9361""
","
","""event"",""trial"",""time""
""focus"",""0"",""6942""
","""event"",""trial"",""time""
""fullscreenenter"",""0"",""9361""
","
",3602.859999999957,<img style='border: 4px solid darkgrey;' src='img/tf1_24_M_ss2.jpeg'></img>,1,NA,exp,NA,3,<img src='img/tf1_24_T1_ss2_md.jpeg'></img>,0,FALSE,NA,sub15
NA,html-keyboard-response,65,192905,0.0-10.0-0.24,"""event"",""trial"",""time""
""focus"",""0"",""6942""
""fullscreenenter"",""0"",""9361""
","
","""event"",""trial"",""time""
""focus"",""0"",""6942""
","""event"",""trial"",""time""
""fullscreenenter"",""0"",""9361""
","
",null,"<div style=""font-size:60px;"">+</div>",NA,null,fixation,2020-06-14T18:13:18Z,NA,NA,NA,NA,NA,sub15
NA,mars-trial,66,197828,0.0-10.0-1.24,"""event"",""trial"",""time""
""focus"",""0"",""6942""
""fullscreenenter"",""0"",""9361""
","
","""event"",""trial"",""time""
""focus"",""0"",""6942""
","""event"",""trial"",""time""
""fullscreenenter"",""0"",""9361""
","
",4318.0900000002,<img style='border: 4px solid darkgrey;' src='img/tf1_25_M_ss3.jpeg'></img>,0,NA,exp,NA,1,<img src='img/tf1_25_T1_ss3_md.jpeg'></img>,0,FALSE,NA,sub15
NA,html-keyboard-response,67,198330,0.0-10.0-0.25,"""event"",""trial"",""time""
""focus"",""0"",""6942""
""fullscreenenter"",""0"",""9361""
","
","""event"",""trial"",""time""
""focus"",""0"",""6942""
","""event"",""trial"",""time""
""fullscreenenter"",""0"",""9361""
","
",null,"<div style=""font-size:60px;"">+</div>",NA,null,fixation,2020-06-14T18:13:24Z,NA,NA,NA,NA,NA,sub15
NA,mars-trial,68,202304,0.0-10.0-1.25,"""event"",""trial"",""time""
""focus"",""0"",""6942""
""fullscreenenter"",""0"",""9361""
","
","""event"",""trial"",""time""
""focus"",""0"",""6942""
","""event"",""trial"",""time""
""fullscreenenter"",""0"",""9361""
","
",3365.2349999997823,<img style='border: 4px solid darkgrey;' src='img/tf1_26_M_ss1.jpeg'></img>,2,NA,exp,NA,2,<img src='img/tf1_26_T1_ss1_md.jpeg'></img>,0,FALSE,NA,sub15
NA,html-keyboard-response,69,202806,0.0-10.0-0.26,"""event"",""trial"",""time""
""focus"",""0"",""6942""
""fullscreenenter"",""0"",""9361""
","
","""event"",""trial"",""time""
""focus"",""0"",""6942""
","""event"",""trial"",""time""
""fullscreenenter"",""0"",""9361""
","
",null,"<div style=""font-size:60px;"">+</div>",NA,null,fixation,2020-06-14T18:13:28Z,NA,NA,NA,NA,NA,sub15
NA,mars-trial,70,204732,0.0-10.0-1.26,"""event"",""trial"",""time""
""focus"",""0"",""6942""
""fullscreenenter"",""0"",""9361""
","
","""event"",""trial"",""time""
""focus"",""0"",""6942""
","""event"",""trial"",""time""
""fullscreenenter"",""0"",""9361""
","
",1311.8650000001362,<img style='border: 4px solid darkgrey;' src='img/tf1_27_M_ss2.jpeg'></img>,1,NA,exp,NA,3,<img src='img/tf1_27_T1_ss2_md.jpeg'></img>,0,FALSE,NA,sub15
NA,html-keyboard-response,71,205233,0.0-10.0-0.27,"""event"",""trial"",""time""
""focus"",""0"",""6942""
""fullscreenenter"",""0"",""9361""
","
","""event"",""trial"",""time""
""focus"",""0"",""6942""
","""event"",""trial"",""time""
""fullscreenenter"",""0"",""9361""
","
",null,"<div style=""font-size:60px;"">+</div>",NA,null,fixation,2020-06-14T18:13:31Z,NA,NA,NA,NA,NA,sub15
NA,mars-trial,72,206646,0.0-10.0-1.27,"""event"",""trial"",""time""
""focus"",""0"",""6942""
""fullscreenenter"",""0"",""9361""
","
","""event"",""trial"",""time""
""focus"",""0"",""6942""
","""event"",""trial"",""time""
""fullscreenenter"",""0"",""9361""
","
",808.1999999999534,<img style='border: 4px solid darkgrey;' src='img/tf1_28_M_ss3.jpeg'></img>,3,NA,exp,NA,1,<img src='img/tf1_28_T1_ss3_md.jpeg'></img>,0,FALSE,NA,sub15
NA,html-keyboard-response,73,207147,0.0-10.0-0.28,"""event"",""trial"",""time""
""focus"",""0"",""6942""
""fullscreenenter"",""0"",""9361""
","
","""event"",""trial"",""time""
""focus"",""0"",""6942""
","""event"",""trial"",""time""
""fullscreenenter"",""0"",""9361""
","
",null,"<div style=""font-size:60px;"">+</div>",NA,null,fixation,2020-06-14T18:13:33Z,NA,NA,NA,NA,NA,sub15
NA,mars-trial,74,208666,0.0-10.0-1.28,"""event"",""trial"",""time""
""focus"",""0"",""6942""
""fullscreenenter"",""0"",""9361""
","
","""event"",""trial"",""time""
""focus"",""0"",""6942""
","""event"",""trial"",""time""
""fullscreenenter"",""0"",""9361""
","
",913.3899999997229,<img style='border: 4px solid darkgrey;' src='img/tf1_29_M_ss1.jpeg'></img>,0,NA,exp,NA,1,<img src='img/tf1_29_T1_ss1_md.jpeg'></img>,0,FALSE,NA,sub15
NA,html-keyboard-response,75,209168,0.0-10.0-0.29,"""event"",""trial"",""time""
""focus"",""0"",""6942""
""fullscreenenter"",""0"",""9361""
","
","""event"",""trial"",""time""
""focus"",""0"",""6942""
","""event"",""trial"",""time""
""fullscreenenter"",""0"",""9361""
","
",null,"<div style=""font-size:60px;"">+</div>",NA,null,fixation,2020-06-14T18:13:35Z,NA,NA,NA,NA,NA,sub15
NA,mars-trial,76,210498,0.0-10.0-1.29,"""event"",""trial"",""time""
""focus"",""0"",""6942""
""fullscreenenter"",""0"",""9361""
","
","""event"",""trial"",""time""
""focus"",""0"",""6942""
","""event"",""trial"",""time""
""fullscreenenter"",""0"",""9361""
","
",721.0649999997404,<img style='border: 4px solid darkgrey;' src='img/tf1_30_M_ss2.jpeg'></img>,2,NA,exp,NA,2,<img src='img/tf1_30_T1_ss2_md.jpeg'></img>,0,FALSE,NA,sub15
NA,html-keyboard-response,77,211000,0.0-10.0-0.30,"""event"",""trial"",""time""
""focus"",""0"",""6942""
""fullscreenenter"",""0"",""9361""
","
","""event"",""trial"",""time""
""focus"",""0"",""6942""
","""event"",""trial"",""time""
""fullscreenenter"",""0"",""9361""
","
",null,"<div style=""font-size:60px;"">+</div>",NA,null,fixation,2020-06-14T18:13:37Z,NA,NA,NA,NA,NA,sub15
NA,mars-trial,78,212430,0.0-10.0-1.30,"""event"",""trial"",""time""
""focus"",""0"",""6942""
""fullscreenenter"",""0"",""9361""
","
","""event"",""trial"",""time""
""focus"",""0"",""6942""
","""event"",""trial"",""time""
""fullscreenenter"",""0"",""9361""
","
",820.7200000001758,<img style='border: 4px solid darkgrey;' src='img/tf1_31_M_ss3.jpeg'></img>,1,NA,exp,NA,2,<img src='img/tf1_31_T1_ss3_md.jpeg'></img>,0,FALSE,NA,sub15
NA,html-keyboard-response,79,212931,0.0-10.0-0.31,"""event"",""trial"",""time""
""focus"",""0"",""6942""
""fullscreenenter"",""0"",""9361""
","
","""event"",""trial"",""time""
""focus"",""0"",""6942""
","""event"",""trial"",""time""
""fullscreenenter"",""0"",""9361""
","
",null,"<div style=""font-size:60px;"">+</div>",NA,null,fixation,2020-06-14T18:13:38Z,NA,NA,NA,NA,NA,sub15
NA,mars-trial,80,214549,0.0-10.0-1.31,"""event"",""trial"",""time""
""focus"",""0"",""6942""
""fullscreenenter"",""0"",""9361""
","
","""event"",""trial"",""time""
""focus"",""0"",""6942""
","""event"",""trial"",""time""
""fullscreenenter"",""0"",""9361""
","
",1012.7349999997823,<img style='border: 4px solid darkgrey;' src='img/tf1_32_M_ss1.jpeg'></img>,3,NA,exp,NA,0,<img src='img/tf1_32_T1_ss1_md.jpeg'></img>,0,TRUE,NA,sub15
NA,html-keyboard-response,81,215050,0.0-10.0-0.32,"""event"",""trial"",""time""
""focus"",""0"",""6942""
""fullscreenenter"",""0"",""9361""
","
","""event"",""trial"",""time""
""focus"",""0"",""6942""
","""event"",""trial"",""time""
""fullscreenenter"",""0"",""9361""
","
",null,"<div style=""font-size:60px;"">+</div>",NA,null,fixation,2020-06-14T18:13:41Z,NA,NA,NA,NA,NA,sub15
NA,mars-trial,82,218318,0.0-10.0-1.32,"""event"",""trial"",""time""
""focus"",""0"",""6942""
""fullscreenenter"",""0"",""9361""
","
","""event"",""trial"",""time""
""focus"",""0"",""6942""
","""event"",""trial"",""time""
""fullscreenenter"",""0"",""9361""
","
",2662.485000000306,<img style='border: 4px solid darkgrey;' src='img/tf1_33_M_ss2.jpeg'></img>,2,NA,exp,NA,1,<img src='img/tf1_33_T1_ss2_md.jpeg'></img>,0,FALSE,NA,sub15
NA,html-keyboard-response,83,218821,0.0-10.0-0.33,"""event"",""trial"",""time""
""focus"",""0"",""6942""
""fullscreenenter"",""0"",""9361""
","
","""event"",""trial"",""time""
""focus"",""0"",""6942""
","""event"",""trial"",""time""
""fullscreenenter"",""0"",""9361""
","
",null,"<div style=""font-size:60px;"">+</div>",NA,null,fixation,2020-06-14T18:13:44Z,NA,NA,NA,NA,NA,sub15
NA,mars-trial,84,221371,0.0-10.0-1.33,"""event"",""trial"",""time""
""focus"",""0"",""6942""
""fullscreenenter"",""0"",""9361""
","
","""event"",""trial"",""time""
""focus"",""0"",""6942""
","""event"",""trial"",""time""
""fullscreenenter"",""0"",""9361""
","
",1943.7700000003097,<img style='border: 4px solid darkgrey;' src='img/tf1_34_M_ss3.jpeg'></img>,1,NA,exp,NA,1,<img src='img/tf1_34_T1_ss3_md.jpeg'></img>,0,FALSE,NA,sub15
NA,html-keyboard-response,85,221873,0.0-10.0-0.34,"""event"",""trial"",""time""
""focus"",""0"",""6942""
""fullscreenenter"",""0"",""9361""
","
","""event"",""trial"",""time""
""focus"",""0"",""6942""
","""event"",""trial"",""time""
""fullscreenenter"",""0"",""9361""
","
",null,"<div style=""font-size:60px;"">+</div>",NA,null,fixation,2020-06-14T18:13:47Z,NA,NA,NA,NA,NA,sub15
NA,mars-trial,86,223540,0.0-10.0-1.34,"""event"",""trial"",""time""
""focus"",""0"",""6942""
""fullscreenenter"",""0"",""9361""
","
","""event"",""trial"",""time""
""focus"",""0"",""6942""
","""event"",""trial"",""time""
""fullscreenenter"",""0"",""9361""
","
",1057.7349999998696,<img style='border: 4px solid darkgrey;' src='img/tf1_35_M_ss1.jpeg'></img>,2,NA,exp,NA,2,<img src='img/tf1_35_T1_ss1_md.jpeg'></img>,0,FALSE,NA,sub15
NA,html-keyboard-response,87,224042,0.0-10.0-0.35,"""event"",""trial"",""time""
""focus"",""0"",""6942""
""fullscreenenter"",""0"",""9361""
","
","""event"",""trial"",""time""
""focus"",""0"",""6942""
","""event"",""trial"",""time""
""fullscreenenter"",""0"",""9361""
","
",null,"<div style=""font-size:60px;"">+</div>",NA,null,fixation,2020-06-14T18:13:50Z,NA,NA,NA,NA,NA,sub15
NA,mars-trial,88,225240,0.0-10.0-1.35,"""event"",""trial"",""time""
""focus"",""0"",""6942""
""fullscreenenter"",""0"",""9361""
","
","""event"",""trial"",""time""
""focus"",""0"",""6942""
","""event"",""trial"",""time""
""fullscreenenter"",""0"",""9361""
","
",593.4649999999092,<img style='border: 4px solid darkgrey;' src='img/tf1_36_M_ss2.jpeg'></img>,0,NA,exp,NA,0,<img src='img/tf1_36_T1_ss2_md.jpeg'></img>,0,TRUE,NA,sub15
NA,html-keyboard-response,89,225743,0.0-10.0-0.36,"""event"",""trial"",""time""
""focus"",""0"",""6942""
""fullscreenenter"",""0"",""9361""
","
","""event"",""trial"",""time""
""focus"",""0"",""6942""
","""event"",""trial"",""time""
""fullscreenenter"",""0"",""9361""
","
",null,"<div style=""font-size:60px;"">+</div>",NA,null,fixation,2020-06-14T18:13:51Z,NA,NA,NA,NA,NA,sub15
NA,mars-trial,90,227376,0.0-10.0-1.36,"""event"",""trial"",""time""
""focus"",""0"",""6942""
""fullscreenenter"",""0"",""9361""
","
","""event"",""trial"",""time""
""focus"",""0"",""6942""
","""event"",""trial"",""time""
""fullscreenenter"",""0"",""9361""
","
",1027.7550000000629,<img style='border: 4px solid darkgrey;' src='img/tf1_37_M_ss3.jpeg'></img>,3,NA,exp,NA,1,<img src='img/tf1_37_T1_ss3_md.jpeg'></img>,0,FALSE,NA,sub15
NA,html-keyboard-response,91,227877,0.0-10.0-0.37,"""event"",""trial"",""time""
""focus"",""0"",""6942""
""fullscreenenter"",""0"",""9361""
","
","""event"",""trial"",""time""
""focus"",""0"",""6942""
","""event"",""trial"",""time""
""fullscreenenter"",""0"",""9361""
","
",null,"<div style=""font-size:60px;"">+</div>",NA,null,fixation,2020-06-14T18:13:53Z,NA,NA,NA,NA,NA,sub15
NA,mars-trial,92,229217,0.0-10.0-1.37,"""event"",""trial"",""time""
""focus"",""0"",""6942""
""fullscreenenter"",""0"",""9361""
","
","""event"",""trial"",""time""
""focus"",""0"",""6942""
","""event"",""trial"",""time""
""fullscreenenter"",""0"",""9361""
","
",732.2450000001409,<img style='border: 4px solid darkgrey;' src='img/tf1_38_M_ss1.jpeg'></img>,1,NA,exp,NA,0,<img src='img/tf1_38_T1_ss1_md.jpeg'></img>,0,TRUE,NA,sub15
NA,html-keyboard-response,93,229722,0.0-10.0-0.38,"""event"",""trial"",""time""
""focus"",""0"",""6942""
""fullscreenenter"",""0"",""9361""
","
","""event"",""trial"",""time""
""focus"",""0"",""6942""
","""event"",""trial"",""time""
""fullscreenenter"",""0"",""9361""
","
",null,"<div style=""font-size:60px;"">+</div>",NA,null,fixation,2020-06-14T18:13:55Z,NA,NA,NA,NA,NA,sub15
NA,mars-trial,94,231190,0.0-10.0-1.38,"""event"",""trial"",""time""
""focus"",""0"",""6942""
""fullscreenenter"",""0"",""9361""
","
","""event"",""trial"",""time""
""focus"",""0"",""6942""
","""event"",""trial"",""time""
""fullscreenenter"",""0"",""9361""
","
",862.2449999997916,<img style='border: 4px solid darkgrey;' src='img/tf1_39_M_ss2.jpeg'></img>,2,NA,exp,NA,0,<img src='img/tf1_39_T1_ss2_md.jpeg'></img>,0,TRUE,NA,sub15
NA,html-keyboard-response,95,231696,0.0-10.0-0.39,"""event"",""trial"",""time""
""focus"",""0"",""6942""
""fullscreenenter"",""0"",""9361""
","
","""event"",""trial"",""time""
""focus"",""0"",""6942""
","""event"",""trial"",""time""
""fullscreenenter"",""0"",""9361""
","
",null,"<div style=""font-size:60px;"">+</div>",NA,null,fixation,2020-06-14T18:13:57Z,NA,NA,NA,NA,NA,sub15
NA,mars-trial,96,233356,0.0-10.0-1.39,"""event"",""trial"",""time""
""focus"",""0"",""6942""
""fullscreenenter"",""0"",""9361""
","
","""event"",""trial"",""time""
""focus"",""0"",""6942""
","""event"",""trial"",""time""
""fullscreenenter"",""0"",""9361""
","
",1049.594999999943,<img style='border: 4px solid darkgrey;' src='img/tf1_40_M_ss3.jpeg'></img>,1,NA,exp,NA,2,<img src='img/tf1_40_T1_ss3_md.jpeg'></img>,0,FALSE,NA,sub15
NA,html-keyboard-response,97,233858,0.0-10.0-0.40,"""event"",""trial"",""time""
""focus"",""0"",""6942""
""fullscreenenter"",""0"",""9361""
","
","""event"",""trial"",""time""
""focus"",""0"",""6942""
","""event"",""trial"",""time""
""fullscreenenter"",""0"",""9361""
","
",null,"<div style=""font-size:60px;"">+</div>",NA,null,fixation,2020-06-14T18:13:59Z,NA,NA,NA,NA,NA,sub15
NA,mars-trial,98,237935,0.0-10.0-1.40,"""event"",""trial"",""time""
""focus"",""0"",""6942""
""fullscreenenter"",""0"",""9361""
","
","""event"",""trial"",""time""
""focus"",""0"",""6942""
","""event"",""trial"",""time""
""fullscreenenter"",""0"",""9361""
","
",3471.9599999998754,<img style='border: 4px solid darkgrey;' src='img/tf1_41_M_ss1.jpeg'></img>,0,NA,exp,NA,0,<img src='img/tf1_41_T1_ss1_md.jpeg'></img>,0,TRUE,NA,sub15
NA,html-keyboard-response,99,238438,0.0-10.0-0.41,"""event"",""trial"",""time""
""focus"",""0"",""6942""
""fullscreenenter"",""0"",""9361""
","
","""event"",""trial"",""time""
""focus"",""0"",""6942""
","""event"",""trial"",""time""
""fullscreenenter"",""0"",""9361""
","
",null,"<div style=""font-size:60px;"">+</div>",NA,null,fixation,2020-06-14T18:14:04Z,NA,NA,NA,NA,NA,sub15
NA,mars-trial,100,240585,0.0-10.0-1.41,"""event"",""trial"",""time""
""focus"",""0"",""6942""
""fullscreenenter"",""0"",""9361""
","
","""event"",""trial"",""time""
""focus"",""0"",""6942""
","""event"",""trial"",""time""
""fullscreenenter"",""0"",""9361""
","
",1540.9899999999616,<img style='border: 4px solid darkgrey;' src='img/tf1_42_M_ss2.jpeg'></img>,2,NA,exp,NA,3,<img src='img/tf1_42_T1_ss2_md.jpeg'></img>,0,FALSE,NA,sub15
NA,html-keyboard-response,101,241087,0.0-10.0-0.42,"""event"",""trial"",""time""
""focus"",""0"",""6942""
""fullscreenenter"",""0"",""9361""
","
","""event"",""trial"",""time""
""focus"",""0"",""6942""
","""event"",""trial"",""time""
""fullscreenenter"",""0"",""9361""
","
",null,"<div style=""font-size:60px;"">+</div>",NA,null,fixation,2020-06-14T18:14:07Z,NA,NA,NA,NA,NA,sub15
NA,mars-trial,102,242260,0.0-10.0-1.42,"""event"",""trial"",""time""
""focus"",""0"",""6942""
""fullscreenenter"",""0"",""9361""
","
","""event"",""trial"",""time""
""focus"",""0"",""6942""
","""event"",""trial"",""time""
""fullscreenenter"",""0"",""9361""
","
",565.2650000001886,<img style='border: 4px solid darkgrey;' src='img/tf1_43_M_ss3.jpeg'></img>,1,NA,exp,NA,3,<img src='img/tf1_43_T1_ss3_md.jpeg'></img>,0,FALSE,NA,sub15
NA,html-keyboard-response,103,242766,0.0-10.0-0.43,"""event"",""trial"",""time""
""focus"",""0"",""6942""
""fullscreenenter"",""0"",""9361""
","
","""event"",""trial"",""time""
""focus"",""0"",""6942""
","""event"",""trial"",""time""
""fullscreenenter"",""0"",""9361""
","
",null,"<div style=""font-size:60px;"">+</div>",NA,null,fixation,2020-06-14T18:14:08Z,NA,NA,NA,NA,NA,sub15
NA,mars-trial,104,244062,0.0-10.0-1.43,"""event"",""trial"",""time""
""focus"",""0"",""6942""
""fullscreenenter"",""0"",""9361""
","
","""event"",""trial"",""time""
""focus"",""0"",""6942""
","""event"",""trial"",""time""
""fullscreenenter"",""0"",""9361""
","
",685.719999999943,<img style='border: 4px solid darkgrey;' src='img/tf1_44_M_ss1.jpeg'></img>,0,NA,exp,NA,1,<img src='img/tf1_44_T1_ss1_md.jpeg'></img>,0,FALSE,NA,sub15
NA,html-keyboard-response,105,244563,0.0-10.0-0.44,"""event"",""trial"",""time""
""focus"",""0"",""6942""
""fullscreenenter"",""0"",""9361""
","
","""event"",""trial"",""time""
""focus"",""0"",""6942""
","""event"",""trial"",""time""
""fullscreenenter"",""0"",""9361""
","
",null,"<div style=""font-size:60px;"">+</div>",NA,null,fixation,2020-06-14T18:14:10Z,NA,NA,NA,NA,NA,sub15
NA,mars-trial,106,246037,0.0-10.0-1.44,"""event"",""trial"",""time""
""focus"",""0"",""6942""
""fullscreenenter"",""0"",""9361""
","
","""event"",""trial"",""time""
""focus"",""0"",""6942""
","""event"",""trial"",""time""
""fullscreenenter"",""0"",""9361""
","
",864.8749999997672,<img style='border: 4px solid darkgrey;' src='img/tf1_45_M_ss2.jpeg'></img>,3,NA,exp,NA,1,<img src='img/tf1_45_T1_ss2_md.jpeg'></img>,0,FALSE,NA,sub15
NA,html-keyboard-response,107,246539,0.0-10.0-0.45,"""event"",""trial"",""time""
""focus"",""0"",""6942""
""fullscreenenter"",""0"",""9361""
","
","""event"",""trial"",""time""
""focus"",""0"",""6942""
","""event"",""trial"",""time""
""fullscreenenter"",""0"",""9361""
","
",null,"<div style=""font-size:60px;"">+</div>",NA,null,fixation,2020-06-14T18:14:12Z,NA,NA,NA,NA,NA,sub15
NA,mars-trial,108,249200,0.0-10.0-1.45,"""event"",""trial"",""time""
""focus"",""0"",""6942""
""fullscreenenter"",""0"",""9361""
","
","""event"",""trial"",""time""
""focus"",""0"",""6942""
","""event"",""trial"",""time""
""fullscreenenter"",""0"",""9361""
","
",2058,<img style='border: 4px solid darkgrey;' src='img/tf1_46_M_ss3.jpeg'></img>,1,NA,exp,NA,0,<img src='img/tf1_46_T1_ss3_md.jpeg'></img>,0,TRUE,NA,sub15
NA,html-keyboard-response,109,249702,0.0-10.0-0.46,"""event"",""trial"",""time""
""focus"",""0"",""6942""
""fullscreenenter"",""0"",""9361""
","
","""event"",""trial"",""time""
""focus"",""0"",""6942""
","""event"",""trial"",""time""
""fullscreenenter"",""0"",""9361""
","
",null,"<div style=""font-size:60px;"">+</div>",NA,null,fixation,2020-06-14T18:14:15Z,NA,NA,NA,NA,NA,sub15
NA,mars-trial,110,250857,0.0-10.0-1.46,"""event"",""trial"",""time""
""focus"",""0"",""6942""
""fullscreenenter"",""0"",""9361""
","
","""event"",""trial"",""time""
""focus"",""0"",""6942""
","""event"",""trial"",""time""
""fullscreenenter"",""0"",""9361""
","
",549.425000000163,<img style='border: 4px solid darkgrey;' src='img/tf1_47_M_ss1.jpeg'></img>,2,NA,exp,NA,3,<img src='img/tf1_47_T1_ss1_md.jpeg'></img>,0,FALSE,NA,sub15
NA,html-keyboard-response,111,251360,0.0-10.0-0.47,"""event"",""trial"",""time""
""focus"",""0"",""6942""
""fullscreenenter"",""0"",""9361""
","
","""event"",""trial"",""time""
""focus"",""0"",""6942""
","""event"",""trial"",""time""
""fullscreenenter"",""0"",""9361""
","
",null,"<div style=""font-size:60px;"">+</div>",NA,null,fixation,2020-06-14T18:14:17Z,NA,NA,NA,NA,NA,sub15
NA,mars-trial,112,253011,0.0-10.0-1.47,"""event"",""trial"",""time""
""focus"",""0"",""6942""
""fullscreenenter"",""0"",""9361""
","
","""event"",""trial"",""time""
""focus"",""0"",""6942""
","""event"",""trial"",""time""
""fullscreenenter"",""0"",""9361""
","
",1042.2749999997905,<img style='border: 4px solid darkgrey;' src='img/tf1_48_M_ss2.jpeg'></img>,1,NA,exp,NA,0,<img src='img/tf1_48_T1_ss2_md.jpeg'></img>,0,TRUE,NA,sub15
NA,html-keyboard-response,113,253513,0.0-10.0-0.48,"""event"",""trial"",""time""
""focus"",""0"",""6942""
""fullscreenenter"",""0"",""9361""
","
","""event"",""trial"",""time""
""focus"",""0"",""6942""
","""event"",""trial"",""time""
""fullscreenenter"",""0"",""9361""
","
",null,"<div style=""font-size:60px;"">+</div>",NA,null,fixation,2020-06-14T18:14:19Z,NA,NA,NA,NA,NA,sub15
NA,mars-trial,114,254737,0.0-10.0-1.48,"""event"",""trial"",""time""
""focus"",""0"",""6942""
""fullscreenenter"",""0"",""9361""
","
","""event"",""trial"",""time""
""focus"",""0"",""6942""
","""event"",""trial"",""time""
""fullscreenenter"",""0"",""9361""
","
",619.6100000001898,<img style='border: 4px solid darkgrey;' src='img/tf1_49_M_ss3.jpeg'></img>,2,NA,exp,NA,1,<img src='img/tf1_49_T1_ss3_md.jpeg'></img>,0,FALSE,NA,sub15
NA,html-keyboard-response,115,255240,0.0-10.0-0.49,"""event"",""trial"",""time""
""focus"",""0"",""6942""
""fullscreenenter"",""0"",""9361""
","
","""event"",""trial"",""time""
""focus"",""0"",""6942""
","""event"",""trial"",""time""
""fullscreenenter"",""0"",""9361""
","
",null,"<div style=""font-size:60px;"">+</div>",NA,null,fixation,2020-06-14T18:14:21Z,NA,NA,NA,NA,NA,sub15
NA,mars-trial,116,259257,0.0-10.0-1.49,"""event"",""trial"",""time""
""focus"",""0"",""6942""
""fullscreenenter"",""0"",""9361""
","
","""event"",""trial"",""time""
""focus"",""0"",""6942""
","""event"",""trial"",""time""
""fullscreenenter"",""0"",""9361""
","
",3407.9699999997392,<img style='border: 4px solid darkgrey;' src='img/tf1_50_M_ss1.jpeg'></img>,2,NA,exp,NA,1,<img src='img/tf1_50_T1_ss1_md.jpeg'></img>,0,FALSE,NA,sub15
NA,html-keyboard-response,117,259760,0.0-10.0-0.50,"""event"",""trial"",""time""
""focus"",""0"",""6942""
""fullscreenenter"",""0"",""9361""
","
","""event"",""trial"",""time""
""focus"",""0"",""6942""
","""event"",""trial"",""time""
""fullscreenenter"",""0"",""9361""
","
",null,"<div style=""font-size:60px;"">+</div>",NA,null,fixation,2020-06-14T18:14:25Z,NA,NA,NA,NA,NA,sub15
NA,mars-trial,118,261397,0.0-10.0-1.50,"""event"",""trial"",""time""
""focus"",""0"",""6942""
""fullscreenenter"",""0"",""9361""
","
","""event"",""trial"",""time""
""focus"",""0"",""6942""
","""event"",""trial"",""time""
""fullscreenenter"",""0"",""9361""
","
",1026.6349999997183,<img style='border: 4px solid darkgrey;' src='img/tf1_51_M_ss2.jpeg'></img>,1,NA,exp,NA,1,<img src='img/tf1_51_T1_ss2_md.jpeg'></img>,0,FALSE,NA,sub15
NA,html-keyboard-response,119,261898,0.0-10.0-0.51,"""event"",""trial"",""time""
""focus"",""0"",""6942""
""fullscreenenter"",""0"",""9361""
","
","""event"",""trial"",""time""
""focus"",""0"",""6942""
","""event"",""trial"",""time""
""fullscreenenter"",""0"",""9361""
","
",null,"<div style=""font-size:60px;"">+</div>",NA,null,fixation,2020-06-14T18:14:27Z,NA,NA,NA,NA,NA,sub15
NA,mars-trial,120,263032,0.0-10.0-1.51,"""event"",""trial"",""time""
""focus"",""0"",""6942""
""fullscreenenter"",""0"",""9361""
","
","""event"",""trial"",""time""
""focus"",""0"",""6942""
","""event"",""trial"",""time""
""fullscreenenter"",""0"",""9361""
","
",529.1350000002421,<img style='border: 4px solid darkgrey;' src='img/tf1_52_M_ss3.jpeg'></img>,2,NA,exp,NA,3,<img src='img/tf1_52_T1_ss3_md.jpeg'></img>,0,FALSE,NA,sub15
NA,html-keyboard-response,121,263535,0.0-10.0-0.52,"""event"",""trial"",""time""
""focus"",""0"",""6942""
""fullscreenenter"",""0"",""9361""
","
","""event"",""trial"",""time""
""focus"",""0"",""6942""
","""event"",""trial"",""time""
""fullscreenenter"",""0"",""9361""
","
",null,"<div style=""font-size:60px;"">+</div>",NA,null,fixation,2020-06-14T18:14:29Z,NA,NA,NA,NA,NA,sub15
NA,mars-trial,122,264573,0.0-10.0-1.52,"""event"",""trial"",""time""
""focus"",""0"",""6942""
""fullscreenenter"",""0"",""9361""
","
","""event"",""trial"",""time""
""focus"",""0"",""6942""
","""event"",""trial"",""time""
""fullscreenenter"",""0"",""9361""
","
",435.3100000002887,<img style='border: 4px solid darkgrey;' src='img/tf1_53_M_ss1.jpeg'></img>,3,NA,exp,NA,2,<img src='img/tf1_53_T1_ss1_md.jpeg'></img>,0,FALSE,NA,sub15
NA,html-keyboard-response,123,265076,0.0-10.0-0.53,"""event"",""trial"",""time""
""focus"",""0"",""6942""
""fullscreenenter"",""0"",""9361""
","
","""event"",""trial"",""time""
""focus"",""0"",""6942""
","""event"",""trial"",""time""
""fullscreenenter"",""0"",""9361""
","
",null,"<div style=""font-size:60px;"">+</div>",NA,null,fixation,2020-06-14T18:14:31Z,NA,NA,NA,NA,NA,sub15
NA,mars-trial,124,266233,0.0-10.0-1.53,"""event"",""trial"",""time""
""focus"",""0"",""6942""
""fullscreenenter"",""0"",""9361""
","
","""event"",""trial"",""time""
""focus"",""0"",""6942""
","""event"",""trial"",""time""
""fullscreenenter"",""0"",""9361""
","
",552.8049999998184,<img style='border: 4px solid darkgrey;' src='img/tf1_54_M_ss2.jpeg'></img>,1,NA,exp,NA,3,<img src='img/tf1_54_T1_ss2_md.jpeg'></img>,0,FALSE,NA,sub15
NA,html-keyboard-response,125,266734,0.0-10.0-0.54,"""event"",""trial"",""time""
""focus"",""0"",""6942""
""fullscreenenter"",""0"",""9361""
","
","""event"",""trial"",""time""
""focus"",""0"",""6942""
","""event"",""trial"",""time""
""fullscreenenter"",""0"",""9361""
","
",null,"<div style=""font-size:60px;"">+</div>",NA,null,fixation,2020-06-14T18:14:32Z,NA,NA,NA,NA,NA,sub15
NA,mars-trial,126,267842,0.0-10.0-1.54,"""event"",""trial"",""time""
""focus"",""0"",""6942""
""fullscreenenter"",""0"",""9361""
","
","""event"",""trial"",""time""
""focus"",""0"",""6942""
","""event"",""trial"",""time""
""fullscreenenter"",""0"",""9361""
","
",503.1849999999977,<img style='border: 4px solid darkgrey;' src='img/tf1_55_M_ss3.jpeg'></img>,2,NA,exp,NA,3,<img src='img/tf1_55_T1_ss3_md.jpeg'></img>,0,FALSE,NA,sub15
NA,html-keyboard-response,127,268344,0.0-10.0-0.55,"""event"",""trial"",""time""
""focus"",""0"",""6942""
""fullscreenenter"",""0"",""9361""
","
","""event"",""trial"",""time""
""focus"",""0"",""6942""
","""event"",""trial"",""time""
""fullscreenenter"",""0"",""9361""
","
",null,"<div style=""font-size:60px;"">+</div>",NA,null,fixation,2020-06-14T18:14:34Z,NA,NA,NA,NA,NA,sub15
NA,mars-trial,128,269806,0.0-10.0-1.55,"""event"",""trial"",""time""
""focus"",""0"",""6942""
""fullscreenenter"",""0"",""9361""
","
","""event"",""trial"",""time""
""focus"",""0"",""6942""
","""event"",""trial"",""time""
""fullscreenenter"",""0"",""9361""
","
",856.7949999996927,<img style='border: 4px solid darkgrey;' src='img/tf1_56_M_ss1.jpeg'></img>,0,NA,exp,NA,0,<img src='img/tf1_56_T1_ss1_md.jpeg'></img>,0,TRUE,NA,sub15
NA,html-keyboard-response,129,270308,0.0-10.0-0.56,"""event"",""trial"",""time""
""focus"",""0"",""6942""
""fullscreenenter"",""0"",""9361""
","
","""event"",""trial"",""time""
""focus"",""0"",""6942""
","""event"",""trial"",""time""
""fullscreenenter"",""0"",""9361""
","
",null,"<div style=""font-size:60px;"">+</div>",NA,null,fixation,2020-06-14T18:14:36Z,NA,NA,NA,NA,NA,sub15
NA,mars-trial,130,272713,0.0-10.0-1.56,"""event"",""trial"",""time""
""focus"",""0"",""6942""
""fullscreenenter"",""0"",""9361""
","
","""event"",""trial"",""time""
""focus"",""0"",""6942""
","""event"",""trial"",""time""
""fullscreenenter"",""0"",""9361""
","
",1800.350000000035,<img style='border: 4px solid darkgrey;' src='img/tf1_57_M_ss2.jpeg'></img>,2,NA,exp,NA,2,<img src='img/tf1_57_T1_ss2_md.jpeg'></img>,0,FALSE,NA,sub15
NA,html-keyboard-response,131,273216,0.0-10.0-0.57,"""event"",""trial"",""time""
""focus"",""0"",""6942""
""fullscreenenter"",""0"",""9361""
","
","""event"",""trial"",""time""
""focus"",""0"",""6942""
","""event"",""trial"",""time""
""fullscreenenter"",""0"",""9361""
","
",null,"<div style=""font-size:60px;"">+</div>",NA,null,fixation,2020-06-14T18:14:39Z,NA,NA,NA,NA,NA,sub15
NA,mars-trial,132,275276,0.0-10.0-1.57,"""event"",""trial"",""time""
""focus"",""0"",""6942""
""fullscreenenter"",""0"",""9361""
","
","""event"",""trial"",""time""
""focus"",""0"",""6942""
","""event"",""trial"",""time""
""fullscreenenter"",""0"",""9361""
","
",1450.6000000000931,<img style='border: 4px solid darkgrey;' src='img/tf1_58_M_ss3.jpeg'></img>,1,NA,exp,NA,1,<img src='img/tf1_58_T1_ss3_md.jpeg'></img>,0,FALSE,NA,sub15
NA,html-keyboard-response,133,275778,0.0-10.0-0.58,"""event"",""trial"",""time""
""focus"",""0"",""6942""
""fullscreenenter"",""0"",""9361""
","
","""event"",""trial"",""time""
""focus"",""0"",""6942""
","""event"",""trial"",""time""
""fullscreenenter"",""0"",""9361""
","
",null,"<div style=""font-size:60px;"">+</div>",NA,null,fixation,2020-06-14T18:14:41Z,NA,NA,NA,NA,NA,sub15
NA,mars-trial,134,277462,0.0-10.0-1.58,"""event"",""trial"",""time""
""focus"",""0"",""6942""
""fullscreenenter"",""0"",""9361""
","
","""event"",""trial"",""time""
""focus"",""0"",""6942""
","""event"",""trial"",""time""
""fullscreenenter"",""0"",""9361""
","
",1075.2549999997136,<img style='border: 4px solid darkgrey;' src='img/tf1_59_M_ss1.jpeg'></img>,2,NA,exp,NA,3,<img src='img/tf1_59_T1_ss1_md.jpeg'></img>,0,FALSE,NA,sub15
NA,html-keyboard-response,135,277965,0.0-10.0-0.59,"""event"",""trial"",""time""
""focus"",""0"",""6942""
""fullscreenenter"",""0"",""9361""
","
","""event"",""trial"",""time""
""focus"",""0"",""6942""
","""event"",""trial"",""time""
""fullscreenenter"",""0"",""9361""
","
",null,"<div style=""font-size:60px;"">+</div>",NA,null,fixation,2020-06-14T18:14:43Z,NA,NA,NA,NA,NA,sub15
NA,mars-trial,136,279602,0.0-10.0-1.59,"""event"",""trial"",""time""
""focus"",""0"",""6942""
""fullscreenenter"",""0"",""9361""
","
","""event"",""trial"",""time""
""focus"",""0"",""6942""
","""event"",""trial"",""time""
""fullscreenenter"",""0"",""9361""
","
",1027.439999999886,<img style='border: 4px solid darkgrey;' src='img/tf1_60_M_ss2.jpeg'></img>,0,NA,exp,NA,3,<img src='img/tf1_60_T1_ss2_md.jpeg'></img>,0,FALSE,NA,sub15
NA,html-keyboard-response,137,280105,0.0-10.0-0.60,"""event"",""trial"",""time""
""focus"",""0"",""6942""
""fullscreenenter"",""0"",""9361""
","
","""event"",""trial"",""time""
""focus"",""0"",""6942""
","""event"",""trial"",""time""
""fullscreenenter"",""0"",""9361""
","
",null,"<div style=""font-size:60px;"">+</div>",NA,null,fixation,2020-06-14T18:14:46Z,NA,NA,NA,NA,NA,sub15
NA,mars-trial,138,281506,0.0-10.0-1.60,"""event"",""trial"",""time""
""focus"",""0"",""6942""
""fullscreenenter"",""0"",""9361""
","
","""event"",""trial"",""time""
""focus"",""0"",""6942""
","""event"",""trial"",""time""
""fullscreenenter"",""0"",""9361""
","
",796.3549999999232,<img style='border: 4px solid darkgrey;' src='img/tf1_61_M_ss3.jpeg'></img>,3,NA,exp,NA,1,<img src='img/tf1_61_T1_ss3_md.jpeg'></img>,0,FALSE,NA,sub15
NA,html-keyboard-response,139,282008,0.0-10.0-0.61,"""event"",""trial"",""time""
""focus"",""0"",""6942""
""fullscreenenter"",""0"",""9361""
","
","""event"",""trial"",""time""
""focus"",""0"",""6942""
","""event"",""trial"",""time""
""fullscreenenter"",""0"",""9361""
","
",null,"<div style=""font-size:60px;"">+</div>",NA,null,fixation,2020-06-14T18:14:48Z,NA,NA,NA,NA,NA,sub15
NA,mars-trial,140,283299,0.0-10.0-1.61,"""event"",""trial"",""time""
""focus"",""0"",""6942""
""fullscreenenter"",""0"",""9361""
","
","""event"",""trial"",""time""
""focus"",""0"",""6942""
","""event"",""trial"",""time""
""fullscreenenter"",""0"",""9361""
","
",686.3800000001211,<img style='border: 4px solid darkgrey;' src='img/tf1_62_M_ss1.jpeg'></img>,1,NA,exp,NA,3,<img src='img/tf1_62_T1_ss1_md.jpeg'></img>,0,FALSE,NA,sub15
NA,html-keyboard-response,141,283800,0.0-10.0-0.62,"""event"",""trial"",""time""
""focus"",""0"",""6942""
""fullscreenenter"",""0"",""9361""
","
","""event"",""trial"",""time""
""focus"",""0"",""6942""
","""event"",""trial"",""time""
""fullscreenenter"",""0"",""9361""
","
",null,"<div style=""font-size:60px;"">+</div>",NA,null,fixation,2020-06-14T18:14:49Z,NA,NA,NA,NA,NA,sub15
NA,mars-trial,142,284796,0.0-10.0-1.62,"""event"",""trial"",""time""
""focus"",""0"",""6942""
""fullscreenenter"",""0"",""9361""
","
","""event"",""trial"",""time""
""focus"",""0"",""6942""
","""event"",""trial"",""time""
""fullscreenenter"",""0"",""9361""
","
",391.35499999974854,<img style='border: 4px solid darkgrey;' src='img/tf1_63_M_ss2.jpeg'></img>,2,NA,exp,NA,1,<img src='img/tf1_63_T1_ss2_md.jpeg'></img>,0,FALSE,NA,sub15
NA,html-keyboard-response,143,285298,0.0-10.0-0.63,"""event"",""trial"",""time""
""focus"",""0"",""6942""
""fullscreenenter"",""0"",""9361""
","
","""event"",""trial"",""time""
""focus"",""0"",""6942""
","""event"",""trial"",""time""
""fullscreenenter"",""0"",""9361""
","
",null,"<div style=""font-size:60px;"">+</div>",NA,null,fixation,2020-06-14T18:14:51Z,NA,NA,NA,NA,NA,sub15
NA,mars-trial,144,286559,0.0-10.0-1.63,"""event"",""trial"",""time""
""focus"",""0"",""6942""
""fullscreenenter"",""0"",""9361""
","
","""event"",""trial"",""time""
""focus"",""0"",""6942""
","""event"",""trial"",""time""
""fullscreenenter"",""0"",""9361""
","
",654.179999999993,<img style='border: 4px solid darkgrey;' src='img/tf1_64_M_ss3.jpeg'></img>,1,NA,exp,NA,1,<img src='img/tf1_64_T1_ss3_md.jpeg'></img>,0,FALSE,NA,sub15
NA,html-keyboard-response,145,287061,0.0-10.0-0.64,"""event"",""trial"",""time""
""focus"",""0"",""6942""
""fullscreenenter"",""0"",""9361""
","
","""event"",""trial"",""time""
""focus"",""0"",""6942""
","""event"",""trial"",""time""
""fullscreenenter"",""0"",""9361""
","
",null,"<div style=""font-size:60px;"">+</div>",NA,null,fixation,2020-06-14T18:14:53Z,NA,NA,NA,NA,NA,sub15
NA,mars-trial,146,288483,0.0-10.0-1.64,"""event"",""trial"",""time""
""focus"",""0"",""6942""
""fullscreenenter"",""0"",""9361""
","
","""event"",""trial"",""time""
""focus"",""0"",""6942""
","""event"",""trial"",""time""
""fullscreenenter"",""0"",""9361""
","
",813.609999999695,<img style='border: 4px solid darkgrey;' src='img/tf1_65_M_ss1.jpeg'></img>,3,NA,exp,NA,3,<img src='img/tf1_65_T1_ss1_md.jpeg'></img>,0,FALSE,NA,sub15
NA,html-keyboard-response,147,288986,0.0-10.0-0.65,"""event"",""trial"",""time""
""focus"",""0"",""6942""
""fullscreenenter"",""0"",""9361""
","
","""event"",""trial"",""time""
""focus"",""0"",""6942""
","""event"",""trial"",""time""
""fullscreenenter"",""0"",""9361""
","
",null,"<div style=""font-size:60px;"">+</div>",NA,null,fixation,2020-06-14T18:14:55Z,NA,NA,NA,NA,NA,sub15
NA,mars-trial,148,290155,0.0-10.0-1.65,"""event"",""trial"",""time""
""focus"",""0"",""6942""
""fullscreenenter"",""0"",""9361""
","
","""event"",""trial"",""time""
""focus"",""0"",""6942""
","""event"",""trial"",""time""
""fullscreenenter"",""0"",""9361""
","
",564.815000000177,<img style='border: 4px solid darkgrey;' src='img/tf1_66_M_ss2.jpeg'></img>,2,NA,exp,NA,3,<img src='img/tf1_66_T1_ss2_md.jpeg'></img>,0,FALSE,NA,sub15
NA,html-keyboard-response,149,290658,0.0-10.0-0.66,"""event"",""trial"",""time""
""focus"",""0"",""6942""
""fullscreenenter"",""0"",""9361""
","
","""event"",""trial"",""time""
""focus"",""0"",""6942""
","""event"",""trial"",""time""
""fullscreenenter"",""0"",""9361""
","
",null,"<div style=""font-size:60px;"">+</div>",NA,null,fixation,2020-06-14T18:14:56Z,NA,NA,NA,NA,NA,sub15
NA,mars-trial,150,291669,0.0-10.0-1.66,"""event"",""trial"",""time""
""focus"",""0"",""6942""
""fullscreenenter"",""0"",""9361""
","
","""event"",""trial"",""time""
""focus"",""0"",""6942""
","""event"",""trial"",""time""
""fullscreenenter"",""0"",""9361""
","
",407.1500000000233,<img style='border: 4px solid darkgrey;' src='img/tf1_67_M_ss3.jpeg'></img>,1,NA,exp,NA,2,<img src='img/tf1_67_T1_ss3_md.jpeg'></img>,0,FALSE,NA,sub15
NA,html-keyboard-response,151,292170,0.0-10.0-0.67,"""event"",""trial"",""time""
""focus"",""0"",""6942""
""fullscreenenter"",""0"",""9361""
","
","""event"",""trial"",""time""
""focus"",""0"",""6942""
","""event"",""trial"",""time""
""fullscreenenter"",""0"",""9361""
","
",null,"<div style=""font-size:60px;"">+</div>",NA,null,fixation,2020-06-14T18:14:58Z,NA,NA,NA,NA,NA,sub15
NA,mars-trial,152,293258,0.0-10.0-1.67,"""event"",""trial"",""time""
""focus"",""0"",""6942""
""fullscreenenter"",""0"",""9361""
","
","""event"",""trial"",""time""
""focus"",""0"",""6942""
","""event"",""trial"",""time""
""fullscreenenter"",""0"",""9361""
","
",484.8400000000256,<img style='border: 4px solid darkgrey;' src='img/tf1_68_M_ss1.jpeg'></img>,0,NA,exp,NA,1,<img src='img/tf1_68_T1_ss1_md.jpeg'></img>,0,FALSE,NA,sub15
NA,html-keyboard-response,153,293761,0.0-10.0-0.68,"""event"",""trial"",""time""
""focus"",""0"",""6942""
""fullscreenenter"",""0"",""9361""
","
","""event"",""trial"",""time""
""focus"",""0"",""6942""
","""event"",""trial"",""time""
""fullscreenenter"",""0"",""9361""
","
",null,"<div style=""font-size:60px;"">+</div>",NA,null,fixation,2020-06-14T18:14:59Z,NA,NA,NA,NA,NA,sub15
NA,mars-trial,154,295642,0.0-10.0-1.68,"""event"",""trial"",""time""
""focus"",""0"",""6942""
""fullscreenenter"",""0"",""9361""
","
","""event"",""trial"",""time""
""focus"",""0"",""6942""
","""event"",""trial"",""time""
""fullscreenenter"",""0"",""9361""
","
",1273.1250000001746,<img style='border: 4px solid darkgrey;' src='img/tf1_69_M_ss2.jpeg'></img>,2,NA,exp,NA,2,<img src='img/tf1_69_T1_ss2_md.jpeg'></img>,0,FALSE,NA,sub15
NA,html-keyboard-response,155,296145,0.0-10.0-0.69,"""event"",""trial"",""time""
""focus"",""0"",""6942""
""fullscreenenter"",""0"",""9361""
","
","""event"",""trial"",""time""
""focus"",""0"",""6942""
","""event"",""trial"",""time""
""fullscreenenter"",""0"",""9361""
","
",null,"<div style=""font-size:60px;"">+</div>",NA,null,fixation,2020-06-14T18:15:02Z,NA,NA,NA,NA,NA,sub15
NA,mars-trial,156,297178,0.0-10.0-1.69,"""event"",""trial"",""time""
""focus"",""0"",""6942""
""fullscreenenter"",""0"",""9361""
","
","""event"",""trial"",""time""
""focus"",""0"",""6942""
","""event"",""trial"",""time""
""fullscreenenter"",""0"",""9361""
","
",427.90499999996973,<img style='border: 4px solid darkgrey;' src='img/tf1_70_M_ss3.jpeg'></img>,3,NA,exp,NA,3,<img src='img/tf1_70_T1_ss3_md.jpeg'></img>,0,FALSE,NA,sub15
NA,html-keyboard-response,157,297681,0.0-10.0-0.70,"""event"",""trial"",""time""
""focus"",""0"",""6942""
""fullscreenenter"",""0"",""9361""
","
","""event"",""trial"",""time""
""focus"",""0"",""6942""
","""event"",""trial"",""time""
""fullscreenenter"",""0"",""9361""
","
",null,"<div style=""font-size:60px;"">+</div>",NA,null,fixation,2020-06-14T18:15:03Z,NA,NA,NA,NA,NA,sub15
NA,mars-trial,158,298763,0.0-10.0-1.70,"""event"",""trial"",""time""
""focus"",""0"",""6942""
""fullscreenenter"",""0"",""9361""
","
","""event"",""trial"",""time""
""focus"",""0"",""6942""
","""event"",""trial"",""time""
""fullscreenenter"",""0"",""9361""
","
",477.48999999975786,<img style='border: 4px solid darkgrey;' src='img/tf1_71_M_ss1.jpeg'></img>,1,NA,exp,NA,3,<img src='img/tf1_71_T1_ss1_md.jpeg'></img>,0,FALSE,NA,sub15
NA,html-keyboard-response,159,299266,0.0-10.0-0.71,"""event"",""trial"",""time""
""focus"",""0"",""6942""
""fullscreenenter"",""0"",""9361""
","
","""event"",""trial"",""time""
""focus"",""0"",""6942""
","""event"",""trial"",""time""
""fullscreenenter"",""0"",""9361""
","
",null,"<div style=""font-size:60px;"">+</div>",NA,null,fixation,2020-06-14T18:15:05Z,NA,NA,NA,NA,NA,sub15
NA,mars-trial,160,300279,0.0-10.0-1.71,"""event"",""trial"",""time""
""focus"",""0"",""6942""
""fullscreenenter"",""0"",""9361""
","
","""event"",""trial"",""time""
""focus"",""0"",""6942""
","""event"",""trial"",""time""
""fullscreenenter"",""0"",""9361""
","
",403.7799999996205,<img style='border: 4px solid darkgrey;' src='img/tf1_72_M_ss2.jpeg'></img>,2,NA,exp,NA,2,<img src='img/tf1_72_T1_ss2_md.jpeg'></img>,0,FALSE,NA,sub15
NA,html-keyboard-response,161,300781,0.0-10.0-0.72,"""event"",""trial"",""time""
""focus"",""0"",""6942""
""fullscreenenter"",""0"",""9361""
","
","""event"",""trial"",""time""
""focus"",""0"",""6942""
","""event"",""trial"",""time""
""fullscreenenter"",""0"",""9361""
","
",null,"<div style=""font-size:60px;"">+</div>",NA,null,fixation,2020-06-14T18:15:06Z,NA,NA,NA,NA,NA,sub15
NA,mars-trial,162,302167,0.0-10.0-1.72,"""event"",""trial"",""time""
""focus"",""0"",""6942""
""fullscreenenter"",""0"",""9361""
","
","""event"",""trial"",""time""
""focus"",""0"",""6942""
","""event"",""trial"",""time""
""fullscreenenter"",""0"",""9361""
","
",777.5399999995716,<img style='border: 4px solid darkgrey;' src='img/tf1_73_M_ss3.jpeg'></img>,3,NA,exp,NA,2,<img src='img/tf1_73_T1_ss3_md.jpeg'></img>,0,FALSE,NA,sub15
NA,html-keyboard-response,163,302670,0.0-10.0-0.73,"""event"",""trial"",""time""
""focus"",""0"",""6942""
""fullscreenenter"",""0"",""9361""
","
","""event"",""trial"",""time""
""focus"",""0"",""6942""
","""event"",""trial"",""time""
""fullscreenenter"",""0"",""9361""
","
",null,"<div style=""font-size:60px;"">+</div>",NA,null,fixation,2020-06-14T18:15:08Z,NA,NA,NA,NA,NA,sub15
NA,mars-trial,164,304242,0.0-10.0-1.73,"""event"",""trial"",""time""
""focus"",""0"",""6942""
""fullscreenenter"",""0"",""9361""
","
","""event"",""trial"",""time""
""focus"",""0"",""6942""
","""event"",""trial"",""time""
""fullscreenenter"",""0"",""9361""
","
",966.8900000001304,<img style='border: 4px solid darkgrey;' src='img/tf1_74_M_ss1.jpeg'></img>,0,NA,exp,NA,0,<img src='img/tf1_74_T1_ss1_md.jpeg'></img>,0,TRUE,NA,sub15
NA,html-keyboard-response,165,304745,0.0-10.0-0.74,"""event"",""trial"",""time""
""focus"",""0"",""6942""
""fullscreenenter"",""0"",""9361""
","
","""event"",""trial"",""time""
""focus"",""0"",""6942""
","""event"",""trial"",""time""
""fullscreenenter"",""0"",""9361""
","
",null,"<div style=""font-size:60px;"">+</div>",NA,null,fixation,2020-06-14T18:15:10Z,NA,NA,NA,NA,NA,sub15
NA,mars-trial,166,306909,0.0-10.0-1.74,"""event"",""trial"",""time""
""focus"",""0"",""6942""
""fullscreenenter"",""0"",""9361""
","
","""event"",""trial"",""time""
""focus"",""0"",""6942""
","""event"",""trial"",""time""
""fullscreenenter"",""0"",""9361""
","
",1558.414999999979,<img style='border: 4px solid darkgrey;' src='img/tf1_75_M_ss2.jpeg'></img>,2,NA,exp,NA,3,<img src='img/tf1_75_T1_ss2_md.jpeg'></img>,0,FALSE,NA,sub15
NA,html-keyboard-response,167,307411,0.0-10.0-0.75,"""event"",""trial"",""time""
""focus"",""0"",""6942""
""fullscreenenter"",""0"",""9361""
","
","""event"",""trial"",""time""
""focus"",""0"",""6942""
","""event"",""trial"",""time""
""fullscreenenter"",""0"",""9361""
","
",null,"<div style=""font-size:60px;"">+</div>",NA,null,fixation,2020-06-14T18:15:13Z,NA,NA,NA,NA,NA,sub15
NA,mars-trial,168,309672,0.0-10.0-1.75,"""event"",""trial"",""time""
""focus"",""0"",""6942""
""fullscreenenter"",""0"",""9361""
","
","""event"",""trial"",""time""
""focus"",""0"",""6942""
","""event"",""trial"",""time""
""fullscreenenter"",""0"",""9361""
","
",1656.8400000000838,<img style='border: 4px solid darkgrey;' src='img/tf1_76_M_ss3.jpeg'></img>,3,NA,exp,NA,0,<img src='img/tf1_76_T1_ss3_md.jpeg'></img>,0,TRUE,NA,sub15
NA,html-keyboard-response,169,310178,0.0-10.0-0.76,"""event"",""trial"",""time""
""focus"",""0"",""6942""
""fullscreenenter"",""0"",""9361""
","
","""event"",""trial"",""time""
""focus"",""0"",""6942""
","""event"",""trial"",""time""
""fullscreenenter"",""0"",""9361""
","
",null,"<div style=""font-size:60px;"">+</div>",NA,null,fixation,2020-06-14T18:15:16Z,NA,NA,NA,NA,NA,sub15
NA,mars-trial,170,312248,0.0-10.0-1.76,"""event"",""trial"",""time""
""focus"",""0"",""6942""
""fullscreenenter"",""0"",""9361""
","
","""event"",""trial"",""time""
""focus"",""0"",""6942""
","""event"",""trial"",""time""
""fullscreenenter"",""0"",""9361""
","
",1464.6800000000512,<img style='border: 4px solid darkgrey;' src='img/tf1_77_M_ss1.jpeg'></img>,3,NA,exp,NA,0,<img src='img/tf1_77_T1_ss1_md.jpeg'></img>,0,TRUE,NA,sub15
NA,html-keyboard-response,171,312751,0.0-10.0-0.77,"""event"",""trial"",""time""
""focus"",""0"",""6942""
""fullscreenenter"",""0"",""9361""
","
","""event"",""trial"",""time""
""focus"",""0"",""6942""
","""event"",""trial"",""time""
""fullscreenenter"",""0"",""9361""
","
",null,"<div style=""font-size:60px;"">+</div>",NA,null,fixation,2020-06-14T18:15:18Z,NA,NA,NA,NA,NA,sub15
NA,mars-trial,172,314633,0.0-10.0-1.77,"""event"",""trial"",""time""
""focus"",""0"",""6942""
""fullscreenenter"",""0"",""9361""
","
","""event"",""trial"",""time""
""focus"",""0"",""6942""
","""event"",""trial"",""time""
""fullscreenenter"",""0"",""9361""
","
",1273.3649999999907,<img style='border: 4px solid darkgrey;' src='img/tf1_78_M_ss2.jpeg'></img>,3,NA,exp,NA,1,<img src='img/tf1_78_T1_ss2_md.jpeg'></img>,0,FALSE,NA,sub15
NA,html-keyboard-response,173,315134,0.0-10.0-0.78,"""event"",""trial"",""time""
""focus"",""0"",""6942""
""fullscreenenter"",""0"",""9361""
","
","""event"",""trial"",""time""
""focus"",""0"",""6942""
","""event"",""trial"",""time""
""fullscreenenter"",""0"",""9361""
","
",null,"<div style=""font-size:60px;"">+</div>",NA,null,fixation,2020-06-14T18:15:21Z,NA,NA,NA,NA,NA,sub15
NA,mars-trial,174,316461,0.0-10.0-1.78,"""event"",""trial"",""time""
""focus"",""0"",""6942""
""fullscreenenter"",""0"",""9361""
","
","""event"",""trial"",""time""
""focus"",""0"",""6942""
","""event"",""trial"",""time""
""fullscreenenter"",""0"",""9361""
","
",721.0899999999674,<img style='border: 4px solid darkgrey;' src='img/tf1_79_M_ss3.jpeg'></img>,1,NA,exp,NA,3,<img src='img/tf1_79_T1_ss3_md.jpeg'></img>,0,FALSE,NA,sub15
NA,html-keyboard-response,175,316962,0.0-10.0-0.79,"""event"",""trial"",""time""
""focus"",""0"",""6942""
""fullscreenenter"",""0"",""9361""
","
","""event"",""trial"",""time""
""focus"",""0"",""6942""
","""event"",""trial"",""time""
""fullscreenenter"",""0"",""9361""
","
",null,"<div style=""font-size:60px;"">+</div>",NA,null,fixation,2020-06-14T18:15:22Z,NA,NA,NA,NA,NA,sub15
NA,mars-trial,176,318257,0.0-10.0-1.79,"""event"",""trial"",""time""
""focus"",""0"",""6942""
""fullscreenenter"",""0"",""9361""
","
","""event"",""trial"",""time""
""focus"",""0"",""6942""
","""event"",""trial"",""time""
""fullscreenenter"",""0"",""9361""
","
",685.5199999999604,<img style='border: 4px solid darkgrey;' src='img/tf1_80_M_ss1.jpeg'></img>,1,NA,exp,NA,1,<img src='img/tf1_80_T1_ss1_md.jpeg'></img>,0,FALSE,NA,sub15
NA,audio-button-response,177,324563,0.0-11.0,"""event"",""trial"",""time""
""focus"",""0"",""6942""
""fullscreenenter"",""0"",""9361""
","
","""event"",""trial"",""time""
""focus"",""0"",""6942""
","""event"",""trial"",""time""
""fullscreenenter"",""0"",""9361""
","
",6303.89499999996,audio/mars_instructions_slide5.wav,0,NA,NA,NA,NA,NA,NA,NA,NA,sub15
