success,trial_type,trial_index,time_elapsed,internal_node_id,interactions,blur_events,focus_events,fullscreenenter_events,fullscreenexit_events,rt,stimulus,button_pressed,key_press,part,timestamp,unshuffled_button,correct_response,correct_button,correct,value,subject_id
TRUE,fullscreen,0,351043,0.0-0.0,"""event"",""trial"",""time""
""focus"",""0"",""0""
""blur"",""0"",""120781""
""focus"",""0"",""214364""
""focus"",""0"",""214366""
""blur"",""0"",""233173""
""focus"",""0"",""337790""
""focus"",""0"",""337791""
""fullscreenenter"",""0"",""350260""
","""event"",""trial"",""time""
""blur"",""0"",""120781""
""blur"",""0"",""233173""
","""event"",""trial"",""time""
""focus"",""0"",""0""
""focus"",""0"",""214364""
""focus"",""0"",""214366""
""focus"",""0"",""337790""
""focus"",""0"",""337791""
","""event"",""trial"",""time""
""fullscreenenter"",""0"",""350260""
","
",NA,NA,NA,NA,NA,NA,NA,NA,NA,NA,NA,sub75
NA,pavlovia,1,351053,0.0-1.0,"""event"",""trial"",""time""
""focus"",""0"",""0""
""blur"",""0"",""120781""
""focus"",""0"",""214364""
""focus"",""0"",""214366""
""blur"",""0"",""233173""
""focus"",""0"",""337790""
""focus"",""0"",""337791""
""fullscreenenter"",""0"",""350260""
","""event"",""trial"",""time""
""blur"",""0"",""120781""
""blur"",""0"",""233173""
","""event"",""trial"",""time""
""focus"",""0"",""0""
""focus"",""0"",""214364""
""focus"",""0"",""214366""
""focus"",""0"",""337790""
""focus"",""0"",""337791""
","""event"",""trial"",""time""
""fullscreenenter"",""0"",""350260""
","
",NA,NA,NA,NA,NA,NA,NA,NA,NA,NA,NA,sub75
NA,html-button-response,2,352524,0.0-2.0,"""event"",""trial"",""time""
""focus"",""0"",""0""
""blur"",""0"",""120781""
""focus"",""0"",""214364""
""focus"",""0"",""214366""
""blur"",""0"",""233173""
""focus"",""0"",""337790""
""focus"",""0"",""337791""
""fullscreenenter"",""0"",""350260""
","""event"",""trial"",""time""
""blur"",""0"",""120781""
""blur"",""0"",""233173""
","""event"",""trial"",""time""
""focus"",""0"",""0""
""focus"",""0"",""214364""
""focus"",""0"",""214366""
""focus"",""0"",""337790""
""focus"",""0"",""337791""
","""event"",""trial"",""time""
""fullscreenenter"",""0"",""350260""
","
",1469,<p>Welcome! Press START to begin.</p><br>,0,NA,NA,NA,NA,NA,NA,NA,NA,sub75
NA,audio-button-response,3,361066,0.0-3.0,"""event"",""trial"",""time""
""focus"",""0"",""0""
""blur"",""0"",""120781""
""focus"",""0"",""214364""
""focus"",""0"",""214366""
""blur"",""0"",""233173""
""focus"",""0"",""337790""
""focus"",""0"",""337791""
""fullscreenenter"",""0"",""350260""
","""event"",""trial"",""time""
""blur"",""0"",""120781""
""blur"",""0"",""233173""
","""event"",""trial"",""time""
""focus"",""0"",""0""
""focus"",""0"",""214364""
""focus"",""0"",""214366""
""focus"",""0"",""337790""
""focus"",""0"",""337791""
","""event"",""trial"",""time""
""fullscreenenter"",""0"",""350260""
","
",8536,audio/mars_instructions_slide2.wav,0,NA,NA,NA,NA,NA,NA,NA,NA,sub75
NA,audio-button-response,4,362685,0.0-4.0,"""event"",""trial"",""time""
""focus"",""0"",""0""
""blur"",""0"",""120781""
""focus"",""0"",""214364""
""focus"",""0"",""214366""
""blur"",""0"",""233173""
""focus"",""0"",""337790""
""focus"",""0"",""337791""
""fullscreenenter"",""0"",""350260""
","""event"",""trial"",""time""
""blur"",""0"",""120781""
""blur"",""0"",""233173""
","""event"",""trial"",""time""
""focus"",""0"",""0""
""focus"",""0"",""214364""
""focus"",""0"",""214366""
""focus"",""0"",""337790""
""focus"",""0"",""337791""
","""event"",""trial"",""time""
""fullscreenenter"",""0"",""350260""
","
",1617,audio/mars_instructions_slide3.wav,0,NA,NA,NA,NA,NA,NA,NA,NA,sub75
NA,html-keyboard-response,5,363188,0.0-5.0-0.0,"""event"",""trial"",""time""
""focus"",""0"",""0""
""blur"",""0"",""120781""
""focus"",""0"",""214364""
""focus"",""0"",""214366""
""blur"",""0"",""233173""
""focus"",""0"",""337790""
""focus"",""0"",""337791""
""fullscreenenter"",""0"",""350260""
","""event"",""trial"",""time""
""blur"",""0"",""120781""
""blur"",""0"",""233173""
","""event"",""trial"",""time""
""focus"",""0"",""0""
""focus"",""0"",""214364""
""focus"",""0"",""214366""
""focus"",""0"",""337790""
""focus"",""0"",""337791""
","""event"",""trial"",""time""
""fullscreenenter"",""0"",""350260""
","
",null,"<div style=""font-size:60px;"">+</div>",NA,null,fixation,2020-06-20T16:34:39Z,NA,NA,NA,NA,NA,sub75
NA,mars-trial,6,369054,0.0-5.0-1.0,"""event"",""trial"",""time""
""focus"",""0"",""0""
""blur"",""0"",""120781""
""focus"",""0"",""214364""
""focus"",""0"",""214366""
""blur"",""0"",""233173""
""focus"",""0"",""337790""
""focus"",""0"",""337791""
""fullscreenenter"",""0"",""350260""
","""event"",""trial"",""time""
""blur"",""0"",""120781""
""blur"",""0"",""233173""
","""event"",""trial"",""time""
""focus"",""0"",""0""
""focus"",""0"",""214364""
""focus"",""0"",""214366""
""focus"",""0"",""337790""
""focus"",""0"",""337791""
","""event"",""trial"",""time""
""fullscreenenter"",""0"",""350260""
","
",3760.999999999942,<img style='border: 4px solid darkgrey;' src='practice/pt1_M1.png'></img>,2,NA,practice,NA,0,<img src='practice/pt1_T1.png'></img>,0,TRUE,NA,sub75
NA,html-keyboard-response,7,369556,0.0-6.0-0.0,"""event"",""trial"",""time""
""focus"",""0"",""0""
""blur"",""0"",""120781""
""focus"",""0"",""214364""
""focus"",""0"",""214366""
""blur"",""0"",""233173""
""focus"",""0"",""337790""
""focus"",""0"",""337791""
""fullscreenenter"",""0"",""350260""
","""event"",""trial"",""time""
""blur"",""0"",""120781""
""blur"",""0"",""233173""
","""event"",""trial"",""time""
""focus"",""0"",""0""
""focus"",""0"",""214364""
""focus"",""0"",""214366""
""focus"",""0"",""337790""
""focus"",""0"",""337791""
","""event"",""trial"",""time""
""fullscreenenter"",""0"",""350260""
","
",null,"<div style=""font-size:60px;"">+</div>",NA,null,fixation,2020-06-20T16:34:45Z,NA,NA,NA,NA,NA,sub75
NA,mars-trial,8,373477,0.0-6.0-1.0,"""event"",""trial"",""time""
""focus"",""0"",""0""
""blur"",""0"",""120781""
""focus"",""0"",""214364""
""focus"",""0"",""214366""
""blur"",""0"",""233173""
""focus"",""0"",""337790""
""focus"",""0"",""337791""
""fullscreenenter"",""0"",""350260""
","""event"",""trial"",""time""
""blur"",""0"",""120781""
""blur"",""0"",""233173""
","""event"",""trial"",""time""
""focus"",""0"",""0""
""focus"",""0"",""214364""
""focus"",""0"",""214366""
""focus"",""0"",""337790""
""focus"",""0"",""337791""
","""event"",""trial"",""time""
""fullscreenenter"",""0"",""350260""
","
",1816,<img style='border: 4px solid darkgrey;' src='practice/pt2_M1.png'></img>,3,NA,practice,NA,0,<img src='practice/pt2_T1.png'></img>,0,TRUE,NA,sub75
NA,html-keyboard-response,9,373979,0.0-7.0-0.0,"""event"",""trial"",""time""
""focus"",""0"",""0""
""blur"",""0"",""120781""
""focus"",""0"",""214364""
""focus"",""0"",""214366""
""blur"",""0"",""233173""
""focus"",""0"",""337790""
""focus"",""0"",""337791""
""fullscreenenter"",""0"",""350260""
","""event"",""trial"",""time""
""blur"",""0"",""120781""
""blur"",""0"",""233173""
","""event"",""trial"",""time""
""focus"",""0"",""0""
""focus"",""0"",""214364""
""focus"",""0"",""214366""
""focus"",""0"",""337790""
""focus"",""0"",""337791""
","""event"",""trial"",""time""
""fullscreenenter"",""0"",""350260""
","
",null,"<div style=""font-size:60px;"">+</div>",NA,null,fixation,2020-06-20T16:34:49Z,NA,NA,NA,NA,NA,sub75
NA,mars-trial,10,378017,0.0-7.0-1.0,"""event"",""trial"",""time""
""focus"",""0"",""0""
""blur"",""0"",""120781""
""focus"",""0"",""214364""
""focus"",""0"",""214366""
""blur"",""0"",""233173""
""focus"",""0"",""337790""
""focus"",""0"",""337791""
""fullscreenenter"",""0"",""350260""
","""event"",""trial"",""time""
""blur"",""0"",""120781""
""blur"",""0"",""233173""
","""event"",""trial"",""time""
""focus"",""0"",""0""
""focus"",""0"",""214364""
""focus"",""0"",""214366""
""focus"",""0"",""337790""
""focus"",""0"",""337791""
","""event"",""trial"",""time""
""fullscreenenter"",""0"",""350260""
","
",1933,<img style='border: 4px solid darkgrey;' src='practice/pt3_M1.png'></img>,1,NA,practice,NA,0,<img src='practice/pt3_T1.png'></img>,0,TRUE,NA,sub75
NA,audio-button-response,11,379880,0.0-8.0,"""event"",""trial"",""time""
""focus"",""0"",""0""
""blur"",""0"",""120781""
""focus"",""0"",""214364""
""focus"",""0"",""214366""
""blur"",""0"",""233173""
""focus"",""0"",""337790""
""focus"",""0"",""337791""
""fullscreenenter"",""0"",""350260""
","""event"",""trial"",""time""
""blur"",""0"",""120781""
""blur"",""0"",""233173""
","""event"",""trial"",""time""
""focus"",""0"",""0""
""focus"",""0"",""214364""
""focus"",""0"",""214366""
""focus"",""0"",""337790""
""focus"",""0"",""337791""
","""event"",""trial"",""time""
""fullscreenenter"",""0"",""350260""
","
",1860,audio/mars_instructions_slide4.wav,0,NA,NA,NA,NA,NA,NA,NA,NA,sub75
NA,call-function,12,379881,0.0-9.0,"""event"",""trial"",""time""
""focus"",""0"",""0""
""blur"",""0"",""120781""
""focus"",""0"",""214364""
""focus"",""0"",""214366""
""blur"",""0"",""233173""
""focus"",""0"",""337790""
""focus"",""0"",""337791""
""fullscreenenter"",""0"",""350260""
","""event"",""trial"",""time""
""blur"",""0"",""120781""
""blur"",""0"",""233173""
","""event"",""trial"",""time""
""focus"",""0"",""0""
""focus"",""0"",""214364""
""focus"",""0"",""214366""
""focus"",""0"",""337790""
""focus"",""0"",""337791""
","""event"",""trial"",""time""
""fullscreenenter"",""0"",""350260""
","
",NA,NA,NA,NA,NA,NA,NA,NA,NA,NA,NA,sub75
NA,html-keyboard-response,13,380383,0.0-10.0-0.0,"""event"",""trial"",""time""
""focus"",""0"",""0""
""blur"",""0"",""120781""
""focus"",""0"",""214364""
""focus"",""0"",""214366""
""blur"",""0"",""233173""
""focus"",""0"",""337790""
""focus"",""0"",""337791""
""fullscreenenter"",""0"",""350260""
","""event"",""trial"",""time""
""blur"",""0"",""120781""
""blur"",""0"",""233173""
","""event"",""trial"",""time""
""focus"",""0"",""0""
""focus"",""0"",""214364""
""focus"",""0"",""214366""
""focus"",""0"",""337790""
""focus"",""0"",""337791""
","""event"",""trial"",""time""
""fullscreenenter"",""0"",""350260""
","
",null,"<div style=""font-size:60px;"">+</div>",NA,null,fixation,2020-06-20T16:34:56Z,NA,NA,NA,NA,NA,sub75
NA,mars-trial,14,383578,0.0-10.0-1.0,"""event"",""trial"",""time""
""focus"",""0"",""0""
""blur"",""0"",""120781""
""focus"",""0"",""214364""
""focus"",""0"",""214366""
""blur"",""0"",""233173""
""focus"",""0"",""337790""
""focus"",""0"",""337791""
""fullscreenenter"",""0"",""350260""
","""event"",""trial"",""time""
""blur"",""0"",""120781""
""blur"",""0"",""233173""
","""event"",""trial"",""time""
""focus"",""0"",""0""
""focus"",""0"",""214364""
""focus"",""0"",""214366""
""focus"",""0"",""337790""
""focus"",""0"",""337791""
","""event"",""trial"",""time""
""fullscreenenter"",""0"",""350260""
","
",2592.000000000058,<img style='border: 4px solid darkgrey;' src='img/tf1_1_M_ss3.jpeg'></img>,0,NA,exp,NA,0,<img src='img/tf1_1_T1_ss3_md.jpeg'></img>,0,TRUE,NA,sub75
NA,html-keyboard-response,15,384080,0.0-10.0-0.1,"""event"",""trial"",""time""
""focus"",""0"",""0""
""blur"",""0"",""120781""
""focus"",""0"",""214364""
""focus"",""0"",""214366""
""blur"",""0"",""233173""
""focus"",""0"",""337790""
""focus"",""0"",""337791""
""fullscreenenter"",""0"",""350260""
","""event"",""trial"",""time""
""blur"",""0"",""120781""
""blur"",""0"",""233173""
","""event"",""trial"",""time""
""focus"",""0"",""0""
""focus"",""0"",""214364""
""focus"",""0"",""214366""
""focus"",""0"",""337790""
""focus"",""0"",""337791""
","""event"",""trial"",""time""
""fullscreenenter"",""0"",""350260""
","
",null,"<div style=""font-size:60px;"">+</div>",NA,null,fixation,2020-06-20T16:35:00Z,NA,NA,NA,NA,NA,sub75
NA,mars-trial,16,387656,0.0-10.0-1.1,"""event"",""trial"",""time""
""focus"",""0"",""0""
""blur"",""0"",""120781""
""focus"",""0"",""214364""
""focus"",""0"",""214366""
""blur"",""0"",""233173""
""focus"",""0"",""337790""
""focus"",""0"",""337791""
""fullscreenenter"",""0"",""350260""
","""event"",""trial"",""time""
""blur"",""0"",""120781""
""blur"",""0"",""233173""
","""event"",""trial"",""time""
""focus"",""0"",""0""
""focus"",""0"",""214364""
""focus"",""0"",""214366""
""focus"",""0"",""337790""
""focus"",""0"",""337791""
","""event"",""trial"",""time""
""fullscreenenter"",""0"",""350260""
","
",2972.000000000058,<img style='border: 4px solid darkgrey;' src='img/tf1_2_M_ss1.jpeg'></img>,0,NA,exp,NA,0,<img src='img/tf1_2_T1_ss1_md.jpeg'></img>,0,TRUE,NA,sub75
NA,html-keyboard-response,17,388158,0.0-10.0-0.2,"""event"",""trial"",""time""
""focus"",""0"",""0""
""blur"",""0"",""120781""
""focus"",""0"",""214364""
""focus"",""0"",""214366""
""blur"",""0"",""233173""
""focus"",""0"",""337790""
""focus"",""0"",""337791""
""fullscreenenter"",""0"",""350260""
","""event"",""trial"",""time""
""blur"",""0"",""120781""
""blur"",""0"",""233173""
","""event"",""trial"",""time""
""focus"",""0"",""0""
""focus"",""0"",""214364""
""focus"",""0"",""214366""
""focus"",""0"",""337790""
""focus"",""0"",""337791""
","""event"",""trial"",""time""
""fullscreenenter"",""0"",""350260""
","
",null,"<div style=""font-size:60px;"">+</div>",NA,null,fixation,2020-06-20T16:35:04Z,NA,NA,NA,NA,NA,sub75
NA,mars-trial,18,390843,0.0-10.0-1.2,"""event"",""trial"",""time""
""focus"",""0"",""0""
""blur"",""0"",""120781""
""focus"",""0"",""214364""
""focus"",""0"",""214366""
""blur"",""0"",""233173""
""focus"",""0"",""337790""
""focus"",""0"",""337791""
""fullscreenenter"",""0"",""350260""
","""event"",""trial"",""time""
""blur"",""0"",""120781""
""blur"",""0"",""233173""
","""event"",""trial"",""time""
""focus"",""0"",""0""
""focus"",""0"",""214364""
""focus"",""0"",""214366""
""focus"",""0"",""337790""
""focus"",""0"",""337791""
","""event"",""trial"",""time""
""fullscreenenter"",""0"",""350260""
","
",2082,<img style='border: 4px solid darkgrey;' src='img/tf1_3_M_ss2.jpeg'></img>,0,NA,exp,NA,0,<img src='img/tf1_3_T1_ss2_md.jpeg'></img>,0,TRUE,NA,sub75
NA,html-keyboard-response,19,391345,0.0-10.0-0.3,"""event"",""trial"",""time""
""focus"",""0"",""0""
""blur"",""0"",""120781""
""focus"",""0"",""214364""
""focus"",""0"",""214366""
""blur"",""0"",""233173""
""focus"",""0"",""337790""
""focus"",""0"",""337791""
""fullscreenenter"",""0"",""350260""
","""event"",""trial"",""time""
""blur"",""0"",""120781""
""blur"",""0"",""233173""
","""event"",""trial"",""time""
""focus"",""0"",""0""
""focus"",""0"",""214364""
""focus"",""0"",""214366""
""focus"",""0"",""337790""
""focus"",""0"",""337791""
","""event"",""trial"",""time""
""fullscreenenter"",""0"",""350260""
","
",null,"<div style=""font-size:60px;"">+</div>",NA,null,fixation,2020-06-20T16:35:07Z,NA,NA,NA,NA,NA,sub75
NA,mars-trial,20,395656,0.0-10.0-1.3,"""event"",""trial"",""time""
""focus"",""0"",""0""
""blur"",""0"",""120781""
""focus"",""0"",""214364""
""focus"",""0"",""214366""
""blur"",""0"",""233173""
""focus"",""0"",""337790""
""focus"",""0"",""337791""
""fullscreenenter"",""0"",""350260""
","""event"",""trial"",""time""
""blur"",""0"",""120781""
""blur"",""0"",""233173""
","""event"",""trial"",""time""
""focus"",""0"",""0""
""focus"",""0"",""214364""
""focus"",""0"",""214366""
""focus"",""0"",""337790""
""focus"",""0"",""337791""
","""event"",""trial"",""time""
""fullscreenenter"",""0"",""350260""
","
",3707,<img style='border: 4px solid darkgrey;' src='img/tf1_4_M_ss3.jpeg'></img>,3,NA,exp,NA,0,<img src='img/tf1_4_T1_ss3_md.jpeg'></img>,0,TRUE,NA,sub75
NA,html-keyboard-response,21,396158,0.0-10.0-0.4,"""event"",""trial"",""time""
""focus"",""0"",""0""
""blur"",""0"",""120781""
""focus"",""0"",""214364""
""focus"",""0"",""214366""
""blur"",""0"",""233173""
""focus"",""0"",""337790""
""focus"",""0"",""337791""
""fullscreenenter"",""0"",""350260""
","""event"",""trial"",""time""
""blur"",""0"",""120781""
""blur"",""0"",""233173""
","""event"",""trial"",""time""
""focus"",""0"",""0""
""focus"",""0"",""214364""
""focus"",""0"",""214366""
""focus"",""0"",""337790""
""focus"",""0"",""337791""
","""event"",""trial"",""time""
""fullscreenenter"",""0"",""350260""
","
",null,"<div style=""font-size:60px;"">+</div>",NA,null,fixation,2020-06-20T16:35:12Z,NA,NA,NA,NA,NA,sub75
NA,mars-trial,22,398715,0.0-10.0-1.4,"""event"",""trial"",""time""
""focus"",""0"",""0""
""blur"",""0"",""120781""
""focus"",""0"",""214364""
""focus"",""0"",""214366""
""blur"",""0"",""233173""
""focus"",""0"",""337790""
""focus"",""0"",""337791""
""fullscreenenter"",""0"",""350260""
","""event"",""trial"",""time""
""blur"",""0"",""120781""
""blur"",""0"",""233173""
","""event"",""trial"",""time""
""focus"",""0"",""0""
""focus"",""0"",""214364""
""focus"",""0"",""214366""
""focus"",""0"",""337790""
""focus"",""0"",""337791""
","""event"",""trial"",""time""
""fullscreenenter"",""0"",""350260""
","
",1955.0000000000582,<img style='border: 4px solid darkgrey;' src='img/tf1_5_M_ss1.jpeg'></img>,0,NA,exp,NA,0,<img src='img/tf1_5_T1_ss1_md.jpeg'></img>,0,TRUE,NA,sub75
NA,html-keyboard-response,23,399217,0.0-10.0-0.5,"""event"",""trial"",""time""
""focus"",""0"",""0""
""blur"",""0"",""120781""
""focus"",""0"",""214364""
""focus"",""0"",""214366""
""blur"",""0"",""233173""
""focus"",""0"",""337790""
""focus"",""0"",""337791""
""fullscreenenter"",""0"",""350260""
","""event"",""trial"",""time""
""blur"",""0"",""120781""
""blur"",""0"",""233173""
","""event"",""trial"",""time""
""focus"",""0"",""0""
""focus"",""0"",""214364""
""focus"",""0"",""214366""
""focus"",""0"",""337790""
""focus"",""0"",""337791""
","""event"",""trial"",""time""
""fullscreenenter"",""0"",""350260""
","
",null,"<div style=""font-size:60px;"">+</div>",NA,null,fixation,2020-06-20T16:35:15Z,NA,NA,NA,NA,NA,sub75
NA,mars-trial,24,409220,0.0-10.0-1.5,"""event"",""trial"",""time""
""focus"",""0"",""0""
""blur"",""0"",""120781""
""focus"",""0"",""214364""
""focus"",""0"",""214366""
""blur"",""0"",""233173""
""focus"",""0"",""337790""
""focus"",""0"",""337791""
""fullscreenenter"",""0"",""350260""
","""event"",""trial"",""time""
""blur"",""0"",""120781""
""blur"",""0"",""233173""
","""event"",""trial"",""time""
""focus"",""0"",""0""
""focus"",""0"",""214364""
""focus"",""0"",""214366""
""focus"",""0"",""337790""
""focus"",""0"",""337791""
","""event"",""trial"",""time""
""fullscreenenter"",""0"",""350260""
","
",9400,<img style='border: 4px solid darkgrey;' src='img/tf1_6_M_ss2.jpeg'></img>,0,NA,exp,NA,0,<img src='img/tf1_6_T1_ss2_md.jpeg'></img>,0,TRUE,NA,sub75
NA,html-keyboard-response,25,409723,0.0-10.0-0.6,"""event"",""trial"",""time""
""focus"",""0"",""0""
""blur"",""0"",""120781""
""focus"",""0"",""214364""
""focus"",""0"",""214366""
""blur"",""0"",""233173""
""focus"",""0"",""337790""
""focus"",""0"",""337791""
""fullscreenenter"",""0"",""350260""
","""event"",""trial"",""time""
""blur"",""0"",""120781""
""blur"",""0"",""233173""
","""event"",""trial"",""time""
""focus"",""0"",""0""
""focus"",""0"",""214364""
""focus"",""0"",""214366""
""focus"",""0"",""337790""
""focus"",""0"",""337791""
","""event"",""trial"",""time""
""fullscreenenter"",""0"",""350260""
","
",null,"<div style=""font-size:60px;"">+</div>",NA,null,fixation,2020-06-20T16:35:25Z,NA,NA,NA,NA,NA,sub75
NA,mars-trial,26,414476,0.0-10.0-1.6,"""event"",""trial"",""time""
""focus"",""0"",""0""
""blur"",""0"",""120781""
""focus"",""0"",""214364""
""focus"",""0"",""214366""
""blur"",""0"",""233173""
""focus"",""0"",""337790""
""focus"",""0"",""337791""
""fullscreenenter"",""0"",""350260""
","""event"",""trial"",""time""
""blur"",""0"",""120781""
""blur"",""0"",""233173""
","""event"",""trial"",""time""
""focus"",""0"",""0""
""focus"",""0"",""214364""
""focus"",""0"",""214366""
""focus"",""0"",""337790""
""focus"",""0"",""337791""
","""event"",""trial"",""time""
""fullscreenenter"",""0"",""350260""
","
",4150.000000000058,<img style='border: 4px solid darkgrey;' src='img/tf1_7_M_ss3.jpeg'></img>,2,NA,exp,NA,0,<img src='img/tf1_7_T1_ss3_md.jpeg'></img>,0,TRUE,NA,sub75
NA,html-keyboard-response,27,414978,0.0-10.0-0.7,"""event"",""trial"",""time""
""focus"",""0"",""0""
""blur"",""0"",""120781""
""focus"",""0"",""214364""
""focus"",""0"",""214366""
""blur"",""0"",""233173""
""focus"",""0"",""337790""
""focus"",""0"",""337791""
""fullscreenenter"",""0"",""350260""
","""event"",""trial"",""time""
""blur"",""0"",""120781""
""blur"",""0"",""233173""
","""event"",""trial"",""time""
""focus"",""0"",""0""
""focus"",""0"",""214364""
""focus"",""0"",""214366""
""focus"",""0"",""337790""
""focus"",""0"",""337791""
","""event"",""trial"",""time""
""fullscreenenter"",""0"",""350260""
","
",null,"<div style=""font-size:60px;"">+</div>",NA,null,fixation,2020-06-20T16:35:30Z,NA,NA,NA,NA,NA,sub75
NA,mars-trial,28,419556,0.0-10.0-1.7,"""event"",""trial"",""time""
""focus"",""0"",""0""
""blur"",""0"",""120781""
""focus"",""0"",""214364""
""focus"",""0"",""214366""
""blur"",""0"",""233173""
""focus"",""0"",""337790""
""focus"",""0"",""337791""
""fullscreenenter"",""0"",""350260""
","""event"",""trial"",""time""
""blur"",""0"",""120781""
""blur"",""0"",""233173""
","""event"",""trial"",""time""
""focus"",""0"",""0""
""focus"",""0"",""214364""
""focus"",""0"",""214366""
""focus"",""0"",""337790""
""focus"",""0"",""337791""
","""event"",""trial"",""time""
""fullscreenenter"",""0"",""350260""
","
",3975,<img style='border: 4px solid darkgrey;' src='img/tf1_8_M_ss1.jpeg'></img>,3,NA,exp,NA,0,<img src='img/tf1_8_T1_ss1_md.jpeg'></img>,0,TRUE,NA,sub75
NA,html-keyboard-response,29,420058,0.0-10.0-0.8,"""event"",""trial"",""time""
""focus"",""0"",""0""
""blur"",""0"",""120781""
""focus"",""0"",""214364""
""focus"",""0"",""214366""
""blur"",""0"",""233173""
""focus"",""0"",""337790""
""focus"",""0"",""337791""
""fullscreenenter"",""0"",""350260""
","""event"",""trial"",""time""
""blur"",""0"",""120781""
""blur"",""0"",""233173""
","""event"",""trial"",""time""
""focus"",""0"",""0""
""focus"",""0"",""214364""
""focus"",""0"",""214366""
""focus"",""0"",""337790""
""focus"",""0"",""337791""
","""event"",""trial"",""time""
""fullscreenenter"",""0"",""350260""
","
",null,"<div style=""font-size:60px;"">+</div>",NA,null,fixation,2020-06-20T16:35:35Z,NA,NA,NA,NA,NA,sub75
NA,mars-trial,30,426157,0.0-10.0-1.8,"""event"",""trial"",""time""
""focus"",""0"",""0""
""blur"",""0"",""120781""
""focus"",""0"",""214364""
""focus"",""0"",""214366""
""blur"",""0"",""233173""
""focus"",""0"",""337790""
""focus"",""0"",""337791""
""fullscreenenter"",""0"",""350260""
","""event"",""trial"",""time""
""blur"",""0"",""120781""
""blur"",""0"",""233173""
","""event"",""trial"",""time""
""focus"",""0"",""0""
""focus"",""0"",""214364""
""focus"",""0"",""214366""
""focus"",""0"",""337790""
""focus"",""0"",""337791""
","""event"",""trial"",""time""
""fullscreenenter"",""0"",""350260""
","
",5494.999999999942,<img style='border: 4px solid darkgrey;' src='img/tf1_9_M_ss2.jpeg'></img>,3,NA,exp,NA,0,<img src='img/tf1_9_T1_ss2_md.jpeg'></img>,0,TRUE,NA,sub75
NA,html-keyboard-response,31,426659,0.0-10.0-0.9,"""event"",""trial"",""time""
""focus"",""0"",""0""
""blur"",""0"",""120781""
""focus"",""0"",""214364""
""focus"",""0"",""214366""
""blur"",""0"",""233173""
""focus"",""0"",""337790""
""focus"",""0"",""337791""
""fullscreenenter"",""0"",""350260""
","""event"",""trial"",""time""
""blur"",""0"",""120781""
""blur"",""0"",""233173""
","""event"",""trial"",""time""
""focus"",""0"",""0""
""focus"",""0"",""214364""
""focus"",""0"",""214366""
""focus"",""0"",""337790""
""focus"",""0"",""337791""
","""event"",""trial"",""time""
""fullscreenenter"",""0"",""350260""
","
",null,"<div style=""font-size:60px;"">+</div>",NA,null,fixation,2020-06-20T16:35:42Z,NA,NA,NA,NA,NA,sub75
NA,mars-trial,32,437678,0.0-10.0-1.9,"""event"",""trial"",""time""
""focus"",""0"",""0""
""blur"",""0"",""120781""
""focus"",""0"",""214364""
""focus"",""0"",""214366""
""blur"",""0"",""233173""
""focus"",""0"",""337790""
""focus"",""0"",""337791""
""fullscreenenter"",""0"",""350260""
","""event"",""trial"",""time""
""blur"",""0"",""120781""
""blur"",""0"",""233173""
","""event"",""trial"",""time""
""focus"",""0"",""0""
""focus"",""0"",""214364""
""focus"",""0"",""214366""
""focus"",""0"",""337790""
""focus"",""0"",""337791""
","""event"",""trial"",""time""
""fullscreenenter"",""0"",""350260""
","
",10414.999999999942,<img style='border: 4px solid darkgrey;' src='img/tf1_10_M_ss3.jpeg'></img>,1,NA,exp,NA,0,<img src='img/tf1_10_T1_ss3_md.jpeg'></img>,0,TRUE,NA,sub75
NA,html-keyboard-response,33,438181,0.0-10.0-0.10,"""event"",""trial"",""time""
""focus"",""0"",""0""
""blur"",""0"",""120781""
""focus"",""0"",""214364""
""focus"",""0"",""214366""
""blur"",""0"",""233173""
""focus"",""0"",""337790""
""focus"",""0"",""337791""
""fullscreenenter"",""0"",""350260""
","""event"",""trial"",""time""
""blur"",""0"",""120781""
""blur"",""0"",""233173""
","""event"",""trial"",""time""
""focus"",""0"",""0""
""focus"",""0"",""214364""
""focus"",""0"",""214366""
""focus"",""0"",""337790""
""focus"",""0"",""337791""
","""event"",""trial"",""time""
""fullscreenenter"",""0"",""350260""
","
",null,"<div style=""font-size:60px;"">+</div>",NA,null,fixation,2020-06-20T16:35:54Z,NA,NA,NA,NA,NA,sub75
NA,mars-trial,34,446544,0.0-10.0-1.10,"""event"",""trial"",""time""
""focus"",""0"",""0""
""blur"",""0"",""120781""
""focus"",""0"",""214364""
""focus"",""0"",""214366""
""blur"",""0"",""233173""
""focus"",""0"",""337790""
""focus"",""0"",""337791""
""fullscreenenter"",""0"",""350260""
","""event"",""trial"",""time""
""blur"",""0"",""120781""
""blur"",""0"",""233173""
","""event"",""trial"",""time""
""focus"",""0"",""0""
""focus"",""0"",""214364""
""focus"",""0"",""214366""
""focus"",""0"",""337790""
""focus"",""0"",""337791""
","""event"",""trial"",""time""
""fullscreenenter"",""0"",""350260""
","
",7759,<img style='border: 4px solid darkgrey;' src='img/tf1_11_M_ss1.jpeg'></img>,0,NA,exp,NA,0,<img src='img/tf1_11_T1_ss1_md.jpeg'></img>,0,TRUE,NA,sub75
NA,html-keyboard-response,35,447046,0.0-10.0-0.11,"""event"",""trial"",""time""
""focus"",""0"",""0""
""blur"",""0"",""120781""
""focus"",""0"",""214364""
""focus"",""0"",""214366""
""blur"",""0"",""233173""
""focus"",""0"",""337790""
""focus"",""0"",""337791""
""fullscreenenter"",""0"",""350260""
","""event"",""trial"",""time""
""blur"",""0"",""120781""
""blur"",""0"",""233173""
","""event"",""trial"",""time""
""focus"",""0"",""0""
""focus"",""0"",""214364""
""focus"",""0"",""214366""
""focus"",""0"",""337790""
""focus"",""0"",""337791""
","""event"",""trial"",""time""
""fullscreenenter"",""0"",""350260""
","
",null,"<div style=""font-size:60px;"">+</div>",NA,null,fixation,2020-06-20T16:36:02Z,NA,NA,NA,NA,NA,sub75
NA,mars-trial,36,473220,0.0-10.0-1.11,"""event"",""trial"",""time""
""focus"",""0"",""0""
""blur"",""0"",""120781""
""focus"",""0"",""214364""
""focus"",""0"",""214366""
""blur"",""0"",""233173""
""focus"",""0"",""337790""
""focus"",""0"",""337791""
""fullscreenenter"",""0"",""350260""
","""event"",""trial"",""time""
""blur"",""0"",""120781""
""blur"",""0"",""233173""
","""event"",""trial"",""time""
""focus"",""0"",""0""
""focus"",""0"",""214364""
""focus"",""0"",""214366""
""focus"",""0"",""337790""
""focus"",""0"",""337791""
","""event"",""trial"",""time""
""fullscreenenter"",""0"",""350260""
","
",25568.99999999994,<img style='border: 4px solid darkgrey;' src='img/tf1_12_M_ss2.jpeg'></img>,1,NA,exp,NA,2,<img src='img/tf1_12_T1_ss2_md.jpeg'></img>,0,FALSE,NA,sub75
NA,html-keyboard-response,37,473722,0.0-10.0-0.12,"""event"",""trial"",""time""
""focus"",""0"",""0""
""blur"",""0"",""120781""
""focus"",""0"",""214364""
""focus"",""0"",""214366""
""blur"",""0"",""233173""
""focus"",""0"",""337790""
""focus"",""0"",""337791""
""fullscreenenter"",""0"",""350260""
","""event"",""trial"",""time""
""blur"",""0"",""120781""
""blur"",""0"",""233173""
","""event"",""trial"",""time""
""focus"",""0"",""0""
""focus"",""0"",""214364""
""focus"",""0"",""214366""
""focus"",""0"",""337790""
""focus"",""0"",""337791""
","""event"",""trial"",""time""
""fullscreenenter"",""0"",""350260""
","
",null,"<div style=""font-size:60px;"">+</div>",NA,null,fixation,2020-06-20T16:36:29Z,NA,NA,NA,NA,NA,sub75
NA,mars-trial,38,492289,0.0-10.0-1.12,"""event"",""trial"",""time""
""focus"",""0"",""0""
""blur"",""0"",""120781""
""focus"",""0"",""214364""
""focus"",""0"",""214366""
""blur"",""0"",""233173""
""focus"",""0"",""337790""
""focus"",""0"",""337791""
""fullscreenenter"",""0"",""350260""
","""event"",""trial"",""time""
""blur"",""0"",""120781""
""blur"",""0"",""233173""
","""event"",""trial"",""time""
""focus"",""0"",""0""
""focus"",""0"",""214364""
""focus"",""0"",""214366""
""focus"",""0"",""337790""
""focus"",""0"",""337791""
","""event"",""trial"",""time""
""fullscreenenter"",""0"",""350260""
","
",17963,<img style='border: 4px solid darkgrey;' src='img/tf1_13_M_ss3.jpeg'></img>,1,NA,exp,NA,1,<img src='img/tf1_13_T1_ss3_md.jpeg'></img>,0,FALSE,NA,sub75
NA,html-keyboard-response,39,492791,0.0-10.0-0.13,"""event"",""trial"",""time""
""focus"",""0"",""0""
""blur"",""0"",""120781""
""focus"",""0"",""214364""
""focus"",""0"",""214366""
""blur"",""0"",""233173""
""focus"",""0"",""337790""
""focus"",""0"",""337791""
""fullscreenenter"",""0"",""350260""
","""event"",""trial"",""time""
""blur"",""0"",""120781""
""blur"",""0"",""233173""
","""event"",""trial"",""time""
""focus"",""0"",""0""
""focus"",""0"",""214364""
""focus"",""0"",""214366""
""focus"",""0"",""337790""
""focus"",""0"",""337791""
","""event"",""trial"",""time""
""fullscreenenter"",""0"",""350260""
","
",null,"<div style=""font-size:60px;"">+</div>",NA,null,fixation,2020-06-20T16:36:48Z,NA,NA,NA,NA,NA,sub75
NA,mars-trial,40,514365,0.0-10.0-1.13,"""event"",""trial"",""time""
""focus"",""0"",""0""
""blur"",""0"",""120781""
""focus"",""0"",""214364""
""focus"",""0"",""214366""
""blur"",""0"",""233173""
""focus"",""0"",""337790""
""focus"",""0"",""337791""
""fullscreenenter"",""0"",""350260""
","""event"",""trial"",""time""
""blur"",""0"",""120781""
""blur"",""0"",""233173""
","""event"",""trial"",""time""
""focus"",""0"",""0""
""focus"",""0"",""214364""
""focus"",""0"",""214366""
""focus"",""0"",""337790""
""focus"",""0"",""337791""
","""event"",""trial"",""time""
""fullscreenenter"",""0"",""350260""
","
",20971,<img style='border: 4px solid darkgrey;' src='img/tf1_14_M_ss1.jpeg'></img>,1,NA,exp,NA,3,<img src='img/tf1_14_T1_ss1_md.jpeg'></img>,0,FALSE,NA,sub75
NA,html-keyboard-response,41,514867,0.0-10.0-0.14,"""event"",""trial"",""time""
""focus"",""0"",""0""
""blur"",""0"",""120781""
""focus"",""0"",""214364""
""focus"",""0"",""214366""
""blur"",""0"",""233173""
""focus"",""0"",""337790""
""focus"",""0"",""337791""
""fullscreenenter"",""0"",""350260""
","""event"",""trial"",""time""
""blur"",""0"",""120781""
""blur"",""0"",""233173""
","""event"",""trial"",""time""
""focus"",""0"",""0""
""focus"",""0"",""214364""
""focus"",""0"",""214366""
""focus"",""0"",""337790""
""focus"",""0"",""337791""
","""event"",""trial"",""time""
""fullscreenenter"",""0"",""350260""
","
",null,"<div style=""font-size:60px;"">+</div>",NA,null,fixation,2020-06-20T16:37:10Z,NA,NA,NA,NA,NA,sub75
NA,mars-trial,42,531573,0.0-10.0-1.14,"""event"",""trial"",""time""
""focus"",""0"",""0""
""blur"",""0"",""120781""
""focus"",""0"",""214364""
""focus"",""0"",""214366""
""blur"",""0"",""233173""
""focus"",""0"",""337790""
""focus"",""0"",""337791""
""fullscreenenter"",""0"",""350260""
","""event"",""trial"",""time""
""blur"",""0"",""120781""
""blur"",""0"",""233173""
","""event"",""trial"",""time""
""focus"",""0"",""0""
""focus"",""0"",""214364""
""focus"",""0"",""214366""
""focus"",""0"",""337790""
""focus"",""0"",""337791""
","""event"",""trial"",""time""
""fullscreenenter"",""0"",""350260""
","
",16101,<img style='border: 4px solid darkgrey;' src='img/tf1_15_M_ss2.jpeg'></img>,2,NA,exp,NA,0,<img src='img/tf1_15_T1_ss2_md.jpeg'></img>,0,TRUE,NA,sub75
NA,html-keyboard-response,43,532075,0.0-10.0-0.15,"""event"",""trial"",""time""
""focus"",""0"",""0""
""blur"",""0"",""120781""
""focus"",""0"",""214364""
""focus"",""0"",""214366""
""blur"",""0"",""233173""
""focus"",""0"",""337790""
""focus"",""0"",""337791""
""fullscreenenter"",""0"",""350260""
","""event"",""trial"",""time""
""blur"",""0"",""120781""
""blur"",""0"",""233173""
","""event"",""trial"",""time""
""focus"",""0"",""0""
""focus"",""0"",""214364""
""focus"",""0"",""214366""
""focus"",""0"",""337790""
""focus"",""0"",""337791""
","""event"",""trial"",""time""
""fullscreenenter"",""0"",""350260""
","
",null,"<div style=""font-size:60px;"">+</div>",NA,null,fixation,2020-06-20T16:37:28Z,NA,NA,NA,NA,NA,sub75
NA,mars-trial,44,548481,0.0-10.0-1.15,"""event"",""trial"",""time""
""focus"",""0"",""0""
""blur"",""0"",""120781""
""focus"",""0"",""214364""
""focus"",""0"",""214366""
""blur"",""0"",""233173""
""focus"",""0"",""337790""
""focus"",""0"",""337791""
""fullscreenenter"",""0"",""350260""
","""event"",""trial"",""time""
""blur"",""0"",""120781""
""blur"",""0"",""233173""
","""event"",""trial"",""time""
""focus"",""0"",""0""
""focus"",""0"",""214364""
""focus"",""0"",""214366""
""focus"",""0"",""337790""
""focus"",""0"",""337791""
","""event"",""trial"",""time""
""fullscreenenter"",""0"",""350260""
","
",15802,<img style='border: 4px solid darkgrey;' src='img/tf1_16_M_ss3.jpeg'></img>,2,NA,exp,NA,3,<img src='img/tf1_16_T1_ss3_md.jpeg'></img>,0,FALSE,NA,sub75
NA,html-keyboard-response,45,548983,0.0-10.0-0.16,"""event"",""trial"",""time""
""focus"",""0"",""0""
""blur"",""0"",""120781""
""focus"",""0"",""214364""
""focus"",""0"",""214366""
""blur"",""0"",""233173""
""focus"",""0"",""337790""
""focus"",""0"",""337791""
""fullscreenenter"",""0"",""350260""
","""event"",""trial"",""time""
""blur"",""0"",""120781""
""blur"",""0"",""233173""
","""event"",""trial"",""time""
""focus"",""0"",""0""
""focus"",""0"",""214364""
""focus"",""0"",""214366""
""focus"",""0"",""337790""
""focus"",""0"",""337791""
","""event"",""trial"",""time""
""fullscreenenter"",""0"",""350260""
","
",null,"<div style=""font-size:60px;"">+</div>",NA,null,fixation,2020-06-20T16:37:44Z,NA,NA,NA,NA,NA,sub75
NA,mars-trial,46,559302,0.0-10.0-1.16,"""event"",""trial"",""time""
""focus"",""0"",""0""
""blur"",""0"",""120781""
""focus"",""0"",""214364""
""focus"",""0"",""214366""
""blur"",""0"",""233173""
""focus"",""0"",""337790""
""focus"",""0"",""337791""
""fullscreenenter"",""0"",""350260""
","""event"",""trial"",""time""
""blur"",""0"",""120781""
""blur"",""0"",""233173""
","""event"",""trial"",""time""
""focus"",""0"",""0""
""focus"",""0"",""214364""
""focus"",""0"",""214366""
""focus"",""0"",""337790""
""focus"",""0"",""337791""
","""event"",""trial"",""time""
""fullscreenenter"",""0"",""350260""
","
",9715,<img style='border: 4px solid darkgrey;' src='img/tf1_17_M_ss1.jpeg'></img>,3,NA,exp,NA,0,<img src='img/tf1_17_T1_ss1_md.jpeg'></img>,0,TRUE,NA,sub75
NA,html-keyboard-response,47,559805,0.0-10.0-0.17,"""event"",""trial"",""time""
""focus"",""0"",""0""
""blur"",""0"",""120781""
""focus"",""0"",""214364""
""focus"",""0"",""214366""
""blur"",""0"",""233173""
""focus"",""0"",""337790""
""focus"",""0"",""337791""
""fullscreenenter"",""0"",""350260""
","""event"",""trial"",""time""
""blur"",""0"",""120781""
""blur"",""0"",""233173""
","""event"",""trial"",""time""
""focus"",""0"",""0""
""focus"",""0"",""214364""
""focus"",""0"",""214366""
""focus"",""0"",""337790""
""focus"",""0"",""337791""
","""event"",""trial"",""time""
""fullscreenenter"",""0"",""350260""
","
",null,"<div style=""font-size:60px;"">+</div>",NA,null,fixation,2020-06-20T16:37:55Z,NA,NA,NA,NA,NA,sub75
NA,mars-trial,48,579831,0.0-10.0-1.17,"""event"",""trial"",""time""
""focus"",""0"",""0""
""blur"",""0"",""120781""
""focus"",""0"",""214364""
""focus"",""0"",""214366""
""blur"",""0"",""233173""
""focus"",""0"",""337790""
""focus"",""0"",""337791""
""fullscreenenter"",""0"",""350260""
","""event"",""trial"",""time""
""blur"",""0"",""120781""
""blur"",""0"",""233173""
","""event"",""trial"",""time""
""focus"",""0"",""0""
""focus"",""0"",""214364""
""focus"",""0"",""214366""
""focus"",""0"",""337790""
""focus"",""0"",""337791""
","""event"",""trial"",""time""
""fullscreenenter"",""0"",""350260""
","
",19423,<img style='border: 4px solid darkgrey;' src='img/tf1_18_M_ss2.jpeg'></img>,3,NA,exp,NA,3,<img src='img/tf1_18_T1_ss2_md.jpeg'></img>,0,FALSE,NA,sub75
NA,html-keyboard-response,49,580333,0.0-10.0-0.18,"""event"",""trial"",""time""
""focus"",""0"",""0""
""blur"",""0"",""120781""
""focus"",""0"",""214364""
""focus"",""0"",""214366""
""blur"",""0"",""233173""
""focus"",""0"",""337790""
""focus"",""0"",""337791""
""fullscreenenter"",""0"",""350260""
","""event"",""trial"",""time""
""blur"",""0"",""120781""
""blur"",""0"",""233173""
","""event"",""trial"",""time""
""focus"",""0"",""0""
""focus"",""0"",""214364""
""focus"",""0"",""214366""
""focus"",""0"",""337790""
""focus"",""0"",""337791""
","""event"",""trial"",""time""
""fullscreenenter"",""0"",""350260""
","
",null,"<div style=""font-size:60px;"">+</div>",NA,null,fixation,2020-06-20T16:38:16Z,NA,NA,NA,NA,NA,sub75
NA,mars-trial,50,590456,0.0-10.0-1.18,"""event"",""trial"",""time""
""focus"",""0"",""0""
""blur"",""0"",""120781""
""focus"",""0"",""214364""
""focus"",""0"",""214366""
""blur"",""0"",""233173""
""focus"",""0"",""337790""
""focus"",""0"",""337791""
""fullscreenenter"",""0"",""350260""
","""event"",""trial"",""time""
""blur"",""0"",""120781""
""blur"",""0"",""233173""
","""event"",""trial"",""time""
""focus"",""0"",""0""
""focus"",""0"",""214364""
""focus"",""0"",""214366""
""focus"",""0"",""337790""
""focus"",""0"",""337791""
","""event"",""trial"",""time""
""fullscreenenter"",""0"",""350260""
","
",9518,<img style='border: 4px solid darkgrey;' src='img/tf1_19_M_ss3.jpeg'></img>,0,NA,exp,NA,3,<img src='img/tf1_19_T1_ss3_md.jpeg'></img>,0,FALSE,NA,sub75
NA,html-keyboard-response,51,590958,0.0-10.0-0.19,"""event"",""trial"",""time""
""focus"",""0"",""0""
""blur"",""0"",""120781""
""focus"",""0"",""214364""
""focus"",""0"",""214366""
""blur"",""0"",""233173""
""focus"",""0"",""337790""
""focus"",""0"",""337791""
""fullscreenenter"",""0"",""350260""
","""event"",""trial"",""time""
""blur"",""0"",""120781""
""blur"",""0"",""233173""
","""event"",""trial"",""time""
""focus"",""0"",""0""
""focus"",""0"",""214364""
""focus"",""0"",""214366""
""focus"",""0"",""337790""
""focus"",""0"",""337791""
","""event"",""trial"",""time""
""fullscreenenter"",""0"",""350260""
","
",null,"<div style=""font-size:60px;"">+</div>",NA,null,fixation,2020-06-20T16:38:26Z,NA,NA,NA,NA,NA,sub75
NA,mars-trial,52,600558,0.0-10.0-1.19,"""event"",""trial"",""time""
""focus"",""0"",""0""
""blur"",""0"",""120781""
""focus"",""0"",""214364""
""focus"",""0"",""214366""
""blur"",""0"",""233173""
""focus"",""0"",""337790""
""focus"",""0"",""337791""
""fullscreenenter"",""0"",""350260""
","""event"",""trial"",""time""
""blur"",""0"",""120781""
""blur"",""0"",""233173""
","""event"",""trial"",""time""
""focus"",""0"",""0""
""focus"",""0"",""214364""
""focus"",""0"",""214366""
""focus"",""0"",""337790""
""focus"",""0"",""337791""
","""event"",""trial"",""time""
""fullscreenenter"",""0"",""350260""
","
",8997,<img style='border: 4px solid darkgrey;' src='img/tf1_20_M_ss1.jpeg'></img>,3,NA,exp,NA,0,<img src='img/tf1_20_T1_ss1_md.jpeg'></img>,0,TRUE,NA,sub75
NA,html-keyboard-response,53,601060,0.0-10.0-0.20,"""event"",""trial"",""time""
""focus"",""0"",""0""
""blur"",""0"",""120781""
""focus"",""0"",""214364""
""focus"",""0"",""214366""
""blur"",""0"",""233173""
""focus"",""0"",""337790""
""focus"",""0"",""337791""
""fullscreenenter"",""0"",""350260""
","""event"",""trial"",""time""
""blur"",""0"",""120781""
""blur"",""0"",""233173""
","""event"",""trial"",""time""
""focus"",""0"",""0""
""focus"",""0"",""214364""
""focus"",""0"",""214366""
""focus"",""0"",""337790""
""focus"",""0"",""337791""
","""event"",""trial"",""time""
""fullscreenenter"",""0"",""350260""
","
",null,"<div style=""font-size:60px;"">+</div>",NA,null,fixation,2020-06-20T16:38:36Z,NA,NA,NA,NA,NA,sub75
NA,mars-trial,54,622054,0.0-10.0-1.20,"""event"",""trial"",""time""
""focus"",""0"",""0""
""blur"",""0"",""120781""
""focus"",""0"",""214364""
""focus"",""0"",""214366""
""blur"",""0"",""233173""
""focus"",""0"",""337790""
""focus"",""0"",""337791""
""fullscreenenter"",""0"",""350260""
","""event"",""trial"",""time""
""blur"",""0"",""120781""
""blur"",""0"",""233173""
","""event"",""trial"",""time""
""focus"",""0"",""0""
""focus"",""0"",""214364""
""focus"",""0"",""214366""
""focus"",""0"",""337790""
""focus"",""0"",""337791""
","""event"",""trial"",""time""
""fullscreenenter"",""0"",""350260""
","
",20385,<img style='border: 4px solid darkgrey;' src='img/tf1_21_M_ss2.jpeg'></img>,2,NA,exp,NA,0,<img src='img/tf1_21_T1_ss2_md.jpeg'></img>,0,TRUE,NA,sub75
NA,html-keyboard-response,55,622557,0.0-10.0-0.21,"""event"",""trial"",""time""
""focus"",""0"",""0""
""blur"",""0"",""120781""
""focus"",""0"",""214364""
""focus"",""0"",""214366""
""blur"",""0"",""233173""
""focus"",""0"",""337790""
""focus"",""0"",""337791""
""fullscreenenter"",""0"",""350260""
","""event"",""trial"",""time""
""blur"",""0"",""120781""
""blur"",""0"",""233173""
","""event"",""trial"",""time""
""focus"",""0"",""0""
""focus"",""0"",""214364""
""focus"",""0"",""214366""
""focus"",""0"",""337790""
""focus"",""0"",""337791""
","""event"",""trial"",""time""
""fullscreenenter"",""0"",""350260""
","
",null,"<div style=""font-size:60px;"">+</div>",NA,null,fixation,2020-06-20T16:38:58Z,NA,NA,NA,NA,NA,sub75
NA,mars-trial,56,635811,0.0-10.0-1.21,"""event"",""trial"",""time""
""focus"",""0"",""0""
""blur"",""0"",""120781""
""focus"",""0"",""214364""
""focus"",""0"",""214366""
""blur"",""0"",""233173""
""focus"",""0"",""337790""
""focus"",""0"",""337791""
""fullscreenenter"",""0"",""350260""
","""event"",""trial"",""time""
""blur"",""0"",""120781""
""blur"",""0"",""233173""
","""event"",""trial"",""time""
""focus"",""0"",""0""
""focus"",""0"",""214364""
""focus"",""0"",""214366""
""focus"",""0"",""337790""
""focus"",""0"",""337791""
","""event"",""trial"",""time""
""fullscreenenter"",""0"",""350260""
","
",12640,<img style='border: 4px solid darkgrey;' src='img/tf1_22_M_ss3.jpeg'></img>,0,NA,exp,NA,0,<img src='img/tf1_22_T1_ss3_md.jpeg'></img>,0,TRUE,NA,sub75
NA,html-keyboard-response,57,636313,0.0-10.0-0.22,"""event"",""trial"",""time""
""focus"",""0"",""0""
""blur"",""0"",""120781""
""focus"",""0"",""214364""
""focus"",""0"",""214366""
""blur"",""0"",""233173""
""focus"",""0"",""337790""
""focus"",""0"",""337791""
""fullscreenenter"",""0"",""350260""
","""event"",""trial"",""time""
""blur"",""0"",""120781""
""blur"",""0"",""233173""
","""event"",""trial"",""time""
""focus"",""0"",""0""
""focus"",""0"",""214364""
""focus"",""0"",""214366""
""focus"",""0"",""337790""
""focus"",""0"",""337791""
","""event"",""trial"",""time""
""fullscreenenter"",""0"",""350260""
","
",null,"<div style=""font-size:60px;"">+</div>",NA,null,fixation,2020-06-20T16:39:12Z,NA,NA,NA,NA,NA,sub75
NA,mars-trial,58,646008,0.0-10.0-1.22,"""event"",""trial"",""time""
""focus"",""0"",""0""
""blur"",""0"",""120781""
""focus"",""0"",""214364""
""focus"",""0"",""214366""
""blur"",""0"",""233173""
""focus"",""0"",""337790""
""focus"",""0"",""337791""
""fullscreenenter"",""0"",""350260""
","""event"",""trial"",""time""
""blur"",""0"",""120781""
""blur"",""0"",""233173""
","""event"",""trial"",""time""
""focus"",""0"",""0""
""focus"",""0"",""214364""
""focus"",""0"",""214366""
""focus"",""0"",""337790""
""focus"",""0"",""337791""
","""event"",""trial"",""time""
""fullscreenenter"",""0"",""350260""
","
",9087,<img style='border: 4px solid darkgrey;' src='img/tf1_23_M_ss1.jpeg'></img>,0,NA,exp,NA,0,<img src='img/tf1_23_T1_ss1_md.jpeg'></img>,0,TRUE,NA,sub75
NA,html-keyboard-response,59,646510,0.0-10.0-0.23,"""event"",""trial"",""time""
""focus"",""0"",""0""
""blur"",""0"",""120781""
""focus"",""0"",""214364""
""focus"",""0"",""214366""
""blur"",""0"",""233173""
""focus"",""0"",""337790""
""focus"",""0"",""337791""
""fullscreenenter"",""0"",""350260""
","""event"",""trial"",""time""
""blur"",""0"",""120781""
""blur"",""0"",""233173""
","""event"",""trial"",""time""
""focus"",""0"",""0""
""focus"",""0"",""214364""
""focus"",""0"",""214366""
""focus"",""0"",""337790""
""focus"",""0"",""337791""
","""event"",""trial"",""time""
""fullscreenenter"",""0"",""350260""
","
",null,"<div style=""font-size:60px;"">+</div>",NA,null,fixation,2020-06-20T16:39:22Z,NA,NA,NA,NA,NA,sub75
NA,mars-trial,60,660401,0.0-10.0-1.23,"""event"",""trial"",""time""
""focus"",""0"",""0""
""blur"",""0"",""120781""
""focus"",""0"",""214364""
""focus"",""0"",""214366""
""blur"",""0"",""233173""
""focus"",""0"",""337790""
""focus"",""0"",""337791""
""fullscreenenter"",""0"",""350260""
","""event"",""trial"",""time""
""blur"",""0"",""120781""
""blur"",""0"",""233173""
","""event"",""trial"",""time""
""focus"",""0"",""0""
""focus"",""0"",""214364""
""focus"",""0"",""214366""
""focus"",""0"",""337790""
""focus"",""0"",""337791""
","""event"",""trial"",""time""
""fullscreenenter"",""0"",""350260""
","
",13283.999999999884,<img style='border: 4px solid darkgrey;' src='img/tf1_24_M_ss2.jpeg'></img>,1,NA,exp,NA,1,<img src='img/tf1_24_T1_ss2_md.jpeg'></img>,0,FALSE,NA,sub75
NA,html-keyboard-response,61,660903,0.0-10.0-0.24,"""event"",""trial"",""time""
""focus"",""0"",""0""
""blur"",""0"",""120781""
""focus"",""0"",""214364""
""focus"",""0"",""214366""
""blur"",""0"",""233173""
""focus"",""0"",""337790""
""focus"",""0"",""337791""
""fullscreenenter"",""0"",""350260""
","""event"",""trial"",""time""
""blur"",""0"",""120781""
""blur"",""0"",""233173""
","""event"",""trial"",""time""
""focus"",""0"",""0""
""focus"",""0"",""214364""
""focus"",""0"",""214366""
""focus"",""0"",""337790""
""focus"",""0"",""337791""
","""event"",""trial"",""time""
""fullscreenenter"",""0"",""350260""
","
",null,"<div style=""font-size:60px;"">+</div>",NA,null,fixation,2020-06-20T16:39:36Z,NA,NA,NA,NA,NA,sub75
NA,mars-trial,62,669985,0.0-10.0-1.24,"""event"",""trial"",""time""
""focus"",""0"",""0""
""blur"",""0"",""120781""
""focus"",""0"",""214364""
""focus"",""0"",""214366""
""blur"",""0"",""233173""
""focus"",""0"",""337790""
""focus"",""0"",""337791""
""fullscreenenter"",""0"",""350260""
","""event"",""trial"",""time""
""blur"",""0"",""120781""
""blur"",""0"",""233173""
","""event"",""trial"",""time""
""focus"",""0"",""0""
""focus"",""0"",""214364""
""focus"",""0"",""214366""
""focus"",""0"",""337790""
""focus"",""0"",""337791""
","""event"",""trial"",""time""
""fullscreenenter"",""0"",""350260""
","
",8478,<img style='border: 4px solid darkgrey;' src='img/tf1_25_M_ss3.jpeg'></img>,0,NA,exp,NA,0,<img src='img/tf1_25_T1_ss3_md.jpeg'></img>,0,TRUE,NA,sub75
NA,html-keyboard-response,63,670488,0.0-10.0-0.25,"""event"",""trial"",""time""
""focus"",""0"",""0""
""blur"",""0"",""120781""
""focus"",""0"",""214364""
""focus"",""0"",""214366""
""blur"",""0"",""233173""
""focus"",""0"",""337790""
""focus"",""0"",""337791""
""fullscreenenter"",""0"",""350260""
","""event"",""trial"",""time""
""blur"",""0"",""120781""
""blur"",""0"",""233173""
","""event"",""trial"",""time""
""focus"",""0"",""0""
""focus"",""0"",""214364""
""focus"",""0"",""214366""
""focus"",""0"",""337790""
""focus"",""0"",""337791""
","""event"",""trial"",""time""
""fullscreenenter"",""0"",""350260""
","
",null,"<div style=""font-size:60px;"">+</div>",NA,null,fixation,2020-06-20T16:39:46Z,NA,NA,NA,NA,NA,sub75
NA,mars-trial,64,697665,0.0-10.0-1.25,"""event"",""trial"",""time""
""focus"",""0"",""0""
""blur"",""0"",""120781""
""focus"",""0"",""214364""
""focus"",""0"",""214366""
""blur"",""0"",""233173""
""focus"",""0"",""337790""
""focus"",""0"",""337791""
""fullscreenenter"",""0"",""350260""
","""event"",""trial"",""time""
""blur"",""0"",""120781""
""blur"",""0"",""233173""
","""event"",""trial"",""time""
""focus"",""0"",""0""
""focus"",""0"",""214364""
""focus"",""0"",""214366""
""focus"",""0"",""337790""
""focus"",""0"",""337791""
","""event"",""trial"",""time""
""fullscreenenter"",""0"",""350260""
","
",26574.000000000116,<img style='border: 4px solid darkgrey;' src='img/tf1_26_M_ss1.jpeg'></img>,1,NA,exp,NA,2,<img src='img/tf1_26_T1_ss1_md.jpeg'></img>,0,FALSE,NA,sub75
NA,html-keyboard-response,65,698166,0.0-10.0-0.26,"""event"",""trial"",""time""
""focus"",""0"",""0""
""blur"",""0"",""120781""
""focus"",""0"",""214364""
""focus"",""0"",""214366""
""blur"",""0"",""233173""
""focus"",""0"",""337790""
""focus"",""0"",""337791""
""fullscreenenter"",""0"",""350260""
","""event"",""trial"",""time""
""blur"",""0"",""120781""
""blur"",""0"",""233173""
","""event"",""trial"",""time""
""focus"",""0"",""0""
""focus"",""0"",""214364""
""focus"",""0"",""214366""
""focus"",""0"",""337790""
""focus"",""0"",""337791""
","""event"",""trial"",""time""
""fullscreenenter"",""0"",""350260""
","
",null,"<div style=""font-size:60px;"">+</div>",NA,null,fixation,2020-06-20T16:40:14Z,NA,NA,NA,NA,NA,sub75
NA,mars-trial,66,710432,0.0-10.0-1.26,"""event"",""trial"",""time""
""focus"",""0"",""0""
""blur"",""0"",""120781""
""focus"",""0"",""214364""
""focus"",""0"",""214366""
""blur"",""0"",""233173""
""focus"",""0"",""337790""
""focus"",""0"",""337791""
""fullscreenenter"",""0"",""350260""
","""event"",""trial"",""time""
""blur"",""0"",""120781""
""blur"",""0"",""233173""
","""event"",""trial"",""time""
""focus"",""0"",""0""
""focus"",""0"",""214364""
""focus"",""0"",""214366""
""focus"",""0"",""337790""
""focus"",""0"",""337791""
","""event"",""trial"",""time""
""fullscreenenter"",""0"",""350260""
","
",11662,<img style='border: 4px solid darkgrey;' src='img/tf1_27_M_ss2.jpeg'></img>,1,NA,exp,NA,0,<img src='img/tf1_27_T1_ss2_md.jpeg'></img>,0,TRUE,NA,sub75
NA,html-keyboard-response,67,710934,0.0-10.0-0.27,"""event"",""trial"",""time""
""focus"",""0"",""0""
""blur"",""0"",""120781""
""focus"",""0"",""214364""
""focus"",""0"",""214366""
""blur"",""0"",""233173""
""focus"",""0"",""337790""
""focus"",""0"",""337791""
""fullscreenenter"",""0"",""350260""
","""event"",""trial"",""time""
""blur"",""0"",""120781""
""blur"",""0"",""233173""
","""event"",""trial"",""time""
""focus"",""0"",""0""
""focus"",""0"",""214364""
""focus"",""0"",""214366""
""focus"",""0"",""337790""
""focus"",""0"",""337791""
","""event"",""trial"",""time""
""fullscreenenter"",""0"",""350260""
","
",null,"<div style=""font-size:60px;"">+</div>",NA,null,fixation,2020-06-20T16:40:26Z,NA,NA,NA,NA,NA,sub75
NA,mars-trial,68,725154,0.0-10.0-1.27,"""event"",""trial"",""time""
""focus"",""0"",""0""
""blur"",""0"",""120781""
""focus"",""0"",""214364""
""focus"",""0"",""214366""
""blur"",""0"",""233173""
""focus"",""0"",""337790""
""focus"",""0"",""337791""
""fullscreenenter"",""0"",""350260""
","""event"",""trial"",""time""
""blur"",""0"",""120781""
""blur"",""0"",""233173""
","""event"",""trial"",""time""
""focus"",""0"",""0""
""focus"",""0"",""214364""
""focus"",""0"",""214366""
""focus"",""0"",""337790""
""focus"",""0"",""337791""
","""event"",""trial"",""time""
""fullscreenenter"",""0"",""350260""
","
",13615,<img style='border: 4px solid darkgrey;' src='img/tf1_28_M_ss3.jpeg'></img>,0,NA,exp,NA,0,<img src='img/tf1_28_T1_ss3_md.jpeg'></img>,0,TRUE,NA,sub75
NA,html-keyboard-response,69,725656,0.0-10.0-0.28,"""event"",""trial"",""time""
""focus"",""0"",""0""
""blur"",""0"",""120781""
""focus"",""0"",""214364""
""focus"",""0"",""214366""
""blur"",""0"",""233173""
""focus"",""0"",""337790""
""focus"",""0"",""337791""
""fullscreenenter"",""0"",""350260""
","""event"",""trial"",""time""
""blur"",""0"",""120781""
""blur"",""0"",""233173""
","""event"",""trial"",""time""
""focus"",""0"",""0""
""focus"",""0"",""214364""
""focus"",""0"",""214366""
""focus"",""0"",""337790""
""focus"",""0"",""337791""
","""event"",""trial"",""time""
""fullscreenenter"",""0"",""350260""
","
",null,"<div style=""font-size:60px;"">+</div>",NA,null,fixation,2020-06-20T16:40:41Z,NA,NA,NA,NA,NA,sub75
NA,mars-trial,70,752617,0.0-10.0-1.28,"""event"",""trial"",""time""
""focus"",""0"",""0""
""blur"",""0"",""120781""
""focus"",""0"",""214364""
""focus"",""0"",""214366""
""blur"",""0"",""233173""
""focus"",""0"",""337790""
""focus"",""0"",""337791""
""fullscreenenter"",""0"",""350260""
","""event"",""trial"",""time""
""blur"",""0"",""120781""
""blur"",""0"",""233173""
","""event"",""trial"",""time""
""focus"",""0"",""0""
""focus"",""0"",""214364""
""focus"",""0"",""214366""
""focus"",""0"",""337790""
""focus"",""0"",""337791""
","""event"",""trial"",""time""
""fullscreenenter"",""0"",""350260""
","
",26358.000000000116,<img style='border: 4px solid darkgrey;' src='img/tf1_29_M_ss1.jpeg'></img>,2,NA,exp,NA,0,<img src='img/tf1_29_T1_ss1_md.jpeg'></img>,0,TRUE,NA,sub75
NA,html-keyboard-response,71,753119,0.0-10.0-0.29,"""event"",""trial"",""time""
""focus"",""0"",""0""
""blur"",""0"",""120781""
""focus"",""0"",""214364""
""focus"",""0"",""214366""
""blur"",""0"",""233173""
""focus"",""0"",""337790""
""focus"",""0"",""337791""
""fullscreenenter"",""0"",""350260""
","""event"",""trial"",""time""
""blur"",""0"",""120781""
""blur"",""0"",""233173""
","""event"",""trial"",""time""
""focus"",""0"",""0""
""focus"",""0"",""214364""
""focus"",""0"",""214366""
""focus"",""0"",""337790""
""focus"",""0"",""337791""
","""event"",""trial"",""time""
""fullscreenenter"",""0"",""350260""
","
",null,"<div style=""font-size:60px;"">+</div>",NA,null,fixation,2020-06-20T16:41:09Z,NA,NA,NA,NA,NA,sub75
NA,mars-trial,72,773215,0.0-10.0-1.29,"""event"",""trial"",""time""
""focus"",""0"",""0""
""blur"",""0"",""120781""
""focus"",""0"",""214364""
""focus"",""0"",""214366""
""blur"",""0"",""233173""
""focus"",""0"",""337790""
""focus"",""0"",""337791""
""fullscreenenter"",""0"",""350260""
","""event"",""trial"",""time""
""blur"",""0"",""120781""
""blur"",""0"",""233173""
","""event"",""trial"",""time""
""focus"",""0"",""0""
""focus"",""0"",""214364""
""focus"",""0"",""214366""
""focus"",""0"",""337790""
""focus"",""0"",""337791""
","""event"",""trial"",""time""
""fullscreenenter"",""0"",""350260""
","
",19492,<img style='border: 4px solid darkgrey;' src='img/tf1_30_M_ss2.jpeg'></img>,2,NA,exp,NA,0,<img src='img/tf1_30_T1_ss2_md.jpeg'></img>,0,TRUE,NA,sub75
NA,html-keyboard-response,73,773717,0.0-10.0-0.30,"""event"",""trial"",""time""
""focus"",""0"",""0""
""blur"",""0"",""120781""
""focus"",""0"",""214364""
""focus"",""0"",""214366""
""blur"",""0"",""233173""
""focus"",""0"",""337790""
""focus"",""0"",""337791""
""fullscreenenter"",""0"",""350260""
","""event"",""trial"",""time""
""blur"",""0"",""120781""
""blur"",""0"",""233173""
","""event"",""trial"",""time""
""focus"",""0"",""0""
""focus"",""0"",""214364""
""focus"",""0"",""214366""
""focus"",""0"",""337790""
""focus"",""0"",""337791""
","""event"",""trial"",""time""
""fullscreenenter"",""0"",""350260""
","
",null,"<div style=""font-size:60px;"">+</div>",NA,null,fixation,2020-06-20T16:41:29Z,NA,NA,NA,NA,NA,sub75
NA,mars-trial,74,796864,0.0-10.0-1.30,"""event"",""trial"",""time""
""focus"",""0"",""0""
""blur"",""0"",""120781""
""focus"",""0"",""214364""
""focus"",""0"",""214366""
""blur"",""0"",""233173""
""focus"",""0"",""337790""
""focus"",""0"",""337791""
""fullscreenenter"",""0"",""350260""
","""event"",""trial"",""time""
""blur"",""0"",""120781""
""blur"",""0"",""233173""
","""event"",""trial"",""time""
""focus"",""0"",""0""
""focus"",""0"",""214364""
""focus"",""0"",""214366""
""focus"",""0"",""337790""
""focus"",""0"",""337791""
","""event"",""trial"",""time""
""fullscreenenter"",""0"",""350260""
","
",22544,<img style='border: 4px solid darkgrey;' src='img/tf1_31_M_ss3.jpeg'></img>,1,NA,exp,NA,0,<img src='img/tf1_31_T1_ss3_md.jpeg'></img>,0,TRUE,NA,sub75
NA,html-keyboard-response,75,797366,0.0-10.0-0.31,"""event"",""trial"",""time""
""focus"",""0"",""0""
""blur"",""0"",""120781""
""focus"",""0"",""214364""
""focus"",""0"",""214366""
""blur"",""0"",""233173""
""focus"",""0"",""337790""
""focus"",""0"",""337791""
""fullscreenenter"",""0"",""350260""
","""event"",""trial"",""time""
""blur"",""0"",""120781""
""blur"",""0"",""233173""
","""event"",""trial"",""time""
""focus"",""0"",""0""
""focus"",""0"",""214364""
""focus"",""0"",""214366""
""focus"",""0"",""337790""
""focus"",""0"",""337791""
","""event"",""trial"",""time""
""fullscreenenter"",""0"",""350260""
","
",null,"<div style=""font-size:60px;"">+</div>",NA,null,fixation,2020-06-20T16:41:53Z,NA,NA,NA,NA,NA,sub75
NA,mars-trial,76,809119,0.0-10.0-1.31,"""event"",""trial"",""time""
""focus"",""0"",""0""
""blur"",""0"",""120781""
""focus"",""0"",""214364""
""focus"",""0"",""214366""
""blur"",""0"",""233173""
""focus"",""0"",""337790""
""focus"",""0"",""337791""
""fullscreenenter"",""0"",""350260""
","""event"",""trial"",""time""
""blur"",""0"",""120781""
""blur"",""0"",""233173""
","""event"",""trial"",""time""
""focus"",""0"",""0""
""focus"",""0"",""214364""
""focus"",""0"",""214366""
""focus"",""0"",""337790""
""focus"",""0"",""337791""
","""event"",""trial"",""time""
""fullscreenenter"",""0"",""350260""
","
",11149,<img style='border: 4px solid darkgrey;' src='img/tf1_32_M_ss1.jpeg'></img>,1,NA,exp,NA,0,<img src='img/tf1_32_T1_ss1_md.jpeg'></img>,0,TRUE,NA,sub75
NA,html-keyboard-response,77,809621,0.0-10.0-0.32,"""event"",""trial"",""time""
""focus"",""0"",""0""
""blur"",""0"",""120781""
""focus"",""0"",""214364""
""focus"",""0"",""214366""
""blur"",""0"",""233173""
""focus"",""0"",""337790""
""focus"",""0"",""337791""
""fullscreenenter"",""0"",""350260""
","""event"",""trial"",""time""
""blur"",""0"",""120781""
""blur"",""0"",""233173""
","""event"",""trial"",""time""
""focus"",""0"",""0""
""focus"",""0"",""214364""
""focus"",""0"",""214366""
""focus"",""0"",""337790""
""focus"",""0"",""337791""
","""event"",""trial"",""time""
""fullscreenenter"",""0"",""350260""
","
",null,"<div style=""font-size:60px;"">+</div>",NA,null,fixation,2020-06-20T16:42:05Z,NA,NA,NA,NA,NA,sub75
NA,mars-trial,78,815204,0.0-10.0-1.32,"""event"",""trial"",""time""
""focus"",""0"",""0""
""blur"",""0"",""120781""
""focus"",""0"",""214364""
""focus"",""0"",""214366""
""blur"",""0"",""233173""
""focus"",""0"",""337790""
""focus"",""0"",""337791""
""fullscreenenter"",""0"",""350260""
","""event"",""trial"",""time""
""blur"",""0"",""120781""
""blur"",""0"",""233173""
","""event"",""trial"",""time""
""focus"",""0"",""0""
""focus"",""0"",""214364""
""focus"",""0"",""214366""
""focus"",""0"",""337790""
""focus"",""0"",""337791""
","""event"",""trial"",""time""
""fullscreenenter"",""0"",""350260""
","
",4980,<img style='border: 4px solid darkgrey;' src='img/tf1_33_M_ss2.jpeg'></img>,1,NA,exp,NA,0,<img src='img/tf1_33_T1_ss2_md.jpeg'></img>,0,TRUE,NA,sub75
NA,html-keyboard-response,79,815706,0.0-10.0-0.33,"""event"",""trial"",""time""
""focus"",""0"",""0""
""blur"",""0"",""120781""
""focus"",""0"",""214364""
""focus"",""0"",""214366""
""blur"",""0"",""233173""
""focus"",""0"",""337790""
""focus"",""0"",""337791""
""fullscreenenter"",""0"",""350260""
","""event"",""trial"",""time""
""blur"",""0"",""120781""
""blur"",""0"",""233173""
","""event"",""trial"",""time""
""focus"",""0"",""0""
""focus"",""0"",""214364""
""focus"",""0"",""214366""
""focus"",""0"",""337790""
""focus"",""0"",""337791""
","""event"",""trial"",""time""
""fullscreenenter"",""0"",""350260""
","
",null,"<div style=""font-size:60px;"">+</div>",NA,null,fixation,2020-06-20T16:42:11Z,NA,NA,NA,NA,NA,sub75
NA,mars-trial,80,823778,0.0-10.0-1.33,"""event"",""trial"",""time""
""focus"",""0"",""0""
""blur"",""0"",""120781""
""focus"",""0"",""214364""
""focus"",""0"",""214366""
""blur"",""0"",""233173""
""focus"",""0"",""337790""
""focus"",""0"",""337791""
""fullscreenenter"",""0"",""350260""
","""event"",""trial"",""time""
""blur"",""0"",""120781""
""blur"",""0"",""233173""
","""event"",""trial"",""time""
""focus"",""0"",""0""
""focus"",""0"",""214364""
""focus"",""0"",""214366""
""focus"",""0"",""337790""
""focus"",""0"",""337791""
","""event"",""trial"",""time""
""fullscreenenter"",""0"",""350260""
","
",7468,<img style='border: 4px solid darkgrey;' src='img/tf1_34_M_ss3.jpeg'></img>,0,NA,exp,NA,0,<img src='img/tf1_34_T1_ss3_md.jpeg'></img>,0,TRUE,NA,sub75
NA,html-keyboard-response,81,824280,0.0-10.0-0.34,"""event"",""trial"",""time""
""focus"",""0"",""0""
""blur"",""0"",""120781""
""focus"",""0"",""214364""
""focus"",""0"",""214366""
""blur"",""0"",""233173""
""focus"",""0"",""337790""
""focus"",""0"",""337791""
""fullscreenenter"",""0"",""350260""
","""event"",""trial"",""time""
""blur"",""0"",""120781""
""blur"",""0"",""233173""
","""event"",""trial"",""time""
""focus"",""0"",""0""
""focus"",""0"",""214364""
""focus"",""0"",""214366""
""focus"",""0"",""337790""
""focus"",""0"",""337791""
","""event"",""trial"",""time""
""fullscreenenter"",""0"",""350260""
","
",null,"<div style=""font-size:60px;"">+</div>",NA,null,fixation,2020-06-20T16:42:20Z,NA,NA,NA,NA,NA,sub75
NA,mars-trial,82,848145,0.0-10.0-1.34,"""event"",""trial"",""time""
""focus"",""0"",""0""
""blur"",""0"",""120781""
""focus"",""0"",""214364""
""focus"",""0"",""214366""
""blur"",""0"",""233173""
""focus"",""0"",""337790""
""focus"",""0"",""337791""
""fullscreenenter"",""0"",""350260""
","""event"",""trial"",""time""
""blur"",""0"",""120781""
""blur"",""0"",""233173""
","""event"",""trial"",""time""
""focus"",""0"",""0""
""focus"",""0"",""214364""
""focus"",""0"",""214366""
""focus"",""0"",""337790""
""focus"",""0"",""337791""
","""event"",""trial"",""time""
""fullscreenenter"",""0"",""350260""
","
",23260,<img style='border: 4px solid darkgrey;' src='img/tf1_35_M_ss1.jpeg'></img>,3,NA,exp,NA,0,<img src='img/tf1_35_T1_ss1_md.jpeg'></img>,0,TRUE,NA,sub75
NA,html-keyboard-response,83,848647,0.0-10.0-0.35,"""event"",""trial"",""time""
""focus"",""0"",""0""
""blur"",""0"",""120781""
""focus"",""0"",""214364""
""focus"",""0"",""214366""
""blur"",""0"",""233173""
""focus"",""0"",""337790""
""focus"",""0"",""337791""
""fullscreenenter"",""0"",""350260""
","""event"",""trial"",""time""
""blur"",""0"",""120781""
""blur"",""0"",""233173""
","""event"",""trial"",""time""
""focus"",""0"",""0""
""focus"",""0"",""214364""
""focus"",""0"",""214366""
""focus"",""0"",""337790""
""focus"",""0"",""337791""
","""event"",""trial"",""time""
""fullscreenenter"",""0"",""350260""
","
",null,"<div style=""font-size:60px;"">+</div>",NA,null,fixation,2020-06-20T16:42:44Z,NA,NA,NA,NA,NA,sub75
NA,mars-trial,84,859902,0.0-10.0-1.35,"""event"",""trial"",""time""
""focus"",""0"",""0""
""blur"",""0"",""120781""
""focus"",""0"",""214364""
""focus"",""0"",""214366""
""blur"",""0"",""233173""
""focus"",""0"",""337790""
""focus"",""0"",""337791""
""fullscreenenter"",""0"",""350260""
","""event"",""trial"",""time""
""blur"",""0"",""120781""
""blur"",""0"",""233173""
","""event"",""trial"",""time""
""focus"",""0"",""0""
""focus"",""0"",""214364""
""focus"",""0"",""214366""
""focus"",""0"",""337790""
""focus"",""0"",""337791""
","""event"",""trial"",""time""
""fullscreenenter"",""0"",""350260""
","
",NA,NA,NA,NA,exp,NA,NA,<img src='img/tf1_36_T1_ss2_md.jpeg'></img>,0,FALSE,NA,sub75
NA,html-keyboard-response,85,860404,0.0-10.0-0.36,"""event"",""trial"",""time""
""focus"",""0"",""0""
""blur"",""0"",""120781""
""focus"",""0"",""214364""
""focus"",""0"",""214366""
""blur"",""0"",""233173""
""focus"",""0"",""337790""
""focus"",""0"",""337791""
""fullscreenenter"",""0"",""350260""
","""event"",""trial"",""time""
""blur"",""0"",""120781""
""blur"",""0"",""233173""
","""event"",""trial"",""time""
""focus"",""0"",""0""
""focus"",""0"",""214364""
""focus"",""0"",""214366""
""focus"",""0"",""337790""
""focus"",""0"",""337791""
","""event"",""trial"",""time""
""fullscreenenter"",""0"",""350260""
","
",null,"<div style=""font-size:60px;"">+</div>",NA,null,fixation,2020-06-20T16:42:56Z,NA,NA,NA,NA,NA,sub75
NA,audio-button-response,86,862261,0.0-11.0,"""event"",""trial"",""time""
""focus"",""0"",""0""
""blur"",""0"",""120781""
""focus"",""0"",""214364""
""focus"",""0"",""214366""
""blur"",""0"",""233173""
""focus"",""0"",""337790""
""focus"",""0"",""337791""
""fullscreenenter"",""0"",""350260""
","""event"",""trial"",""time""
""blur"",""0"",""120781""
""blur"",""0"",""233173""
","""event"",""trial"",""time""
""focus"",""0"",""0""
""focus"",""0"",""214364""
""focus"",""0"",""214366""
""focus"",""0"",""337790""
""focus"",""0"",""337791""
","""event"",""trial"",""time""
""fullscreenenter"",""0"",""350260""
","
",1755,audio/mars_instructions_slide5.wav,0,NA,NA,NA,NA,NA,NA,NA,NA,sub75
