success,trial_type,trial_index,time_elapsed,internal_node_id,interactions,blur_events,focus_events,fullscreenenter_events,fullscreenexit_events,rt,stimulus,button_pressed,key_press,part,timestamp,unshuffled_button,correct_response,correct_button,correct,value,subject_id
TRUE,fullscreen,0,4737,0.0-0.0,"""event"",""trial"",""time""
""fullscreenenter"",""0"",""3747""
","
","
","""event"",""trial"",""time""
""fullscreenenter"",""0"",""3747""
","
",NA,NA,NA,NA,NA,NA,NA,NA,NA,NA,NA,sub108
NA,pavlovia,1,4747,0.0-1.0,"""event"",""trial"",""time""
""fullscreenenter"",""0"",""3747""
","
","
","""event"",""trial"",""time""
""fullscreenenter"",""0"",""3747""
","
",NA,NA,NA,NA,NA,NA,NA,NA,NA,NA,NA,sub108
NA,html-button-response,2,9139,0.0-2.0,"""event"",""trial"",""time""
""fullscreenenter"",""0"",""3747""
","
","
","""event"",""trial"",""time""
""fullscreenenter"",""0"",""3747""
","
",4389.605000033043,<p>Welcome! Press START to begin.</p><br>,0,NA,NA,NA,NA,NA,NA,NA,NA,sub108
NA,audio-button-response,3,24229,0.0-3.0,"""event"",""trial"",""time""
""fullscreenenter"",""0"",""3747""
","
","
","""event"",""trial"",""time""
""fullscreenenter"",""0"",""3747""
","
",15087.789999961387,audio/mars_instructions_slide2.wav,0,NA,NA,NA,NA,NA,NA,NA,NA,sub108
NA,audio-button-response,4,34158,0.0-4.0,"""event"",""trial"",""time""
""fullscreenenter"",""0"",""3747""
","
","
","""event"",""trial"",""time""
""fullscreenenter"",""0"",""3747""
","
",9928.880000021309,audio/mars_instructions_slide3.wav,0,NA,NA,NA,NA,NA,NA,NA,NA,sub108
NA,html-keyboard-response,5,34667,0.0-5.0-0.0,"""event"",""trial"",""time""
""fullscreenenter"",""0"",""3747""
","
","
","""event"",""trial"",""time""
""fullscreenenter"",""0"",""3747""
","
",null,"<div style=""font-size:60px;"">+</div>",NA,null,fixation,2020-06-27T19:52:33Z,NA,NA,NA,NA,NA,sub108
NA,mars-trial,6,45438,0.0-5.0-1.0,"""event"",""trial"",""time""
""fullscreenenter"",""0"",""3747""
","
","
","""event"",""trial"",""time""
""fullscreenenter"",""0"",""3747""
","
",8648.22000003187,<img style='border: 4px solid darkgrey;' src='practice/pt1_M1.png'></img>,3,NA,practice,NA,3,<img src='practice/pt1_T1.png'></img>,0,FALSE,NA,sub108
NA,html-keyboard-response,7,45944,0.0-5.1-0.1,"""event"",""trial"",""time""
""fullscreenenter"",""0"",""3747""
","
","
","""event"",""trial"",""time""
""fullscreenenter"",""0"",""3747""
","
",null,"<div style=""font-size:60px;"">+</div>",NA,null,fixation,2020-06-27T19:52:44Z,NA,NA,NA,NA,NA,sub108
NA,mars-trial,8,54124,0.0-5.1-1.1,"""event"",""trial"",""time""
""fullscreenenter"",""0"",""3747""
","
","
","""event"",""trial"",""time""
""fullscreenenter"",""0"",""3747""
","
",6058.61000000732,<img style='border: 4px solid darkgrey;' src='practice/pt1_M1.png'></img>,0,NA,practice,NA,0,<img src='practice/pt1_T1.png'></img>,0,TRUE,NA,sub108
NA,html-keyboard-response,9,54637,0.0-6.0-0.0,"""event"",""trial"",""time""
""fullscreenenter"",""0"",""3747""
","
","
","""event"",""trial"",""time""
""fullscreenenter"",""0"",""3747""
","
",null,"<div style=""font-size:60px;"">+</div>",NA,null,fixation,2020-06-27T19:52:53Z,NA,NA,NA,NA,NA,sub108
NA,mars-trial,10,59187,0.0-6.0-1.0,"""event"",""trial"",""time""
""fullscreenenter"",""0"",""3747""
","
","
","""event"",""trial"",""time""
""fullscreenenter"",""0"",""3747""
","
",2429.5750000164844,<img style='border: 4px solid darkgrey;' src='practice/pt2_M1.png'></img>,3,NA,practice,NA,0,<img src='practice/pt2_T1.png'></img>,0,TRUE,NA,sub108
NA,html-keyboard-response,11,59697,0.0-7.0-0.0,"""event"",""trial"",""time""
""fullscreenenter"",""0"",""3747""
","
","
","""event"",""trial"",""time""
""fullscreenenter"",""0"",""3747""
","
",null,"<div style=""font-size:60px;"">+</div>",NA,null,fixation,2020-06-27T19:52:58Z,NA,NA,NA,NA,NA,sub108
NA,mars-trial,12,64308,0.0-7.0-1.0,"""event"",""trial"",""time""
""fullscreenenter"",""0"",""3747""
","
","
","""event"",""trial"",""time""
""fullscreenenter"",""0"",""3747""
","
",2497.0350000075996,<img style='border: 4px solid darkgrey;' src='practice/pt3_M1.png'></img>,1,NA,practice,NA,0,<img src='practice/pt3_T1.png'></img>,0,TRUE,NA,sub108
NA,audio-button-response,13,67128,0.0-8.0,"""event"",""trial"",""time""
""fullscreenenter"",""0"",""3747""
","
","
","""event"",""trial"",""time""
""fullscreenenter"",""0"",""3747""
","
",2817.589999991469,audio/mars_instructions_slide4.wav,0,NA,NA,NA,NA,NA,NA,NA,NA,sub108
NA,call-function,14,67128,0.0-9.0,"""event"",""trial"",""time""
""fullscreenenter"",""0"",""3747""
","
","
","""event"",""trial"",""time""
""fullscreenenter"",""0"",""3747""
","
",NA,NA,NA,NA,NA,NA,NA,NA,NA,NA,NA,sub108
NA,html-keyboard-response,15,67637,0.0-10.0-0.0,"""event"",""trial"",""time""
""fullscreenenter"",""0"",""3747""
","
","
","""event"",""trial"",""time""
""fullscreenenter"",""0"",""3747""
","
",null,"<div style=""font-size:60px;"">+</div>",NA,null,fixation,2020-06-27T19:53:06Z,NA,NA,NA,NA,NA,sub108
NA,mars-trial,16,70466,0.0-10.0-1.0,"""event"",""trial"",""time""
""fullscreenenter"",""0"",""3747""
","
","
","""event"",""trial"",""time""
""fullscreenenter"",""0"",""3747""
","
",2208.504999987781,<img style='border: 4px solid darkgrey;' src='img/tf1_1_M_ss3.jpeg'></img>,0,NA,exp,NA,0,<img src='img/tf1_1_T1_ss3_md.jpeg'></img>,0,TRUE,NA,sub108
NA,html-keyboard-response,17,70977,0.0-10.0-0.1,"""event"",""trial"",""time""
""fullscreenenter"",""0"",""3747""
","
","
","""event"",""trial"",""time""
""fullscreenenter"",""0"",""3747""
","
",null,"<div style=""font-size:60px;"">+</div>",NA,null,fixation,2020-06-27T19:53:09Z,NA,NA,NA,NA,NA,sub108
NA,mars-trial,18,74727,0.0-10.0-1.1,"""event"",""trial"",""time""
""fullscreenenter"",""0"",""3747""
","
","
","""event"",""trial"",""time""
""fullscreenenter"",""0"",""3747""
","
",3130.5849999771453,<img style='border: 4px solid darkgrey;' src='img/tf1_2_M_ss1.jpeg'></img>,1,NA,exp,NA,0,<img src='img/tf1_2_T1_ss1_md.jpeg'></img>,0,TRUE,NA,sub108
NA,html-keyboard-response,19,75236,0.0-10.0-0.2,"""event"",""trial"",""time""
""fullscreenenter"",""0"",""3747""
","
","
","""event"",""trial"",""time""
""fullscreenenter"",""0"",""3747""
","
",null,"<div style=""font-size:60px;"">+</div>",NA,null,fixation,2020-06-27T19:53:13Z,NA,NA,NA,NA,NA,sub108
NA,mars-trial,20,79017,0.0-10.0-1.2,"""event"",""trial"",""time""
""fullscreenenter"",""0"",""3747""
","
","
","""event"",""trial"",""time""
""fullscreenenter"",""0"",""3747""
","
",3158.404999994673,<img style='border: 4px solid darkgrey;' src='img/tf1_3_M_ss2.jpeg'></img>,0,NA,exp,NA,0,<img src='img/tf1_3_T1_ss2_md.jpeg'></img>,0,TRUE,NA,sub108
NA,html-keyboard-response,21,79527,0.0-10.0-0.3,"""event"",""trial"",""time""
""fullscreenenter"",""0"",""3747""
","
","
","""event"",""trial"",""time""
""fullscreenenter"",""0"",""3747""
","
",null,"<div style=""font-size:60px;"">+</div>",NA,null,fixation,2020-06-27T19:53:17Z,NA,NA,NA,NA,NA,sub108
NA,mars-trial,22,82867,0.0-10.0-1.3,"""event"",""trial"",""time""
""fullscreenenter"",""0"",""3747""
","
","
","""event"",""trial"",""time""
""fullscreenenter"",""0"",""3747""
","
",2719.0800000098534,<img style='border: 4px solid darkgrey;' src='img/tf1_4_M_ss3.jpeg'></img>,2,NA,exp,NA,0,<img src='img/tf1_4_T1_ss3_md.jpeg'></img>,0,TRUE,NA,sub108
NA,html-keyboard-response,23,83376,0.0-10.0-0.4,"""event"",""trial"",""time""
""fullscreenenter"",""0"",""3747""
","
","
","""event"",""trial"",""time""
""fullscreenenter"",""0"",""3747""
","
",null,"<div style=""font-size:60px;"">+</div>",NA,null,fixation,2020-06-27T19:53:21Z,NA,NA,NA,NA,NA,sub108
NA,mars-trial,24,85997,0.0-10.0-1.4,"""event"",""trial"",""time""
""fullscreenenter"",""0"",""3747""
","
","
","""event"",""trial"",""time""
""fullscreenenter"",""0"",""3747""
","
",1999.004999990575,<img style='border: 4px solid darkgrey;' src='img/tf1_5_M_ss1.jpeg'></img>,1,NA,exp,NA,0,<img src='img/tf1_5_T1_ss1_md.jpeg'></img>,0,TRUE,NA,sub108
NA,html-keyboard-response,25,86507,0.0-10.0-0.5,"""event"",""trial"",""time""
""fullscreenenter"",""0"",""3747""
","
","
","""event"",""trial"",""time""
""fullscreenenter"",""0"",""3747""
","
",null,"<div style=""font-size:60px;"">+</div>",NA,null,fixation,2020-06-27T19:53:24Z,NA,NA,NA,NA,NA,sub108
NA,mars-trial,26,94556,0.0-10.0-1.5,"""event"",""trial"",""time""
""fullscreenenter"",""0"",""3747""
","
","
","""event"",""trial"",""time""
""fullscreenenter"",""0"",""3747""
","
",7429.245000006631,<img style='border: 4px solid darkgrey;' src='img/tf1_6_M_ss2.jpeg'></img>,2,NA,exp,NA,2,<img src='img/tf1_6_T1_ss2_md.jpeg'></img>,0,FALSE,NA,sub108
NA,html-keyboard-response,27,95063,0.0-10.0-0.6,"""event"",""trial"",""time""
""fullscreenenter"",""0"",""3747""
","
","
","""event"",""trial"",""time""
""fullscreenenter"",""0"",""3747""
","
",null,"<div style=""font-size:60px;"">+</div>",NA,null,fixation,2020-06-27T19:53:33Z,NA,NA,NA,NA,NA,sub108
NA,mars-trial,28,107193,0.0-10.0-1.6,"""event"",""trial"",""time""
""fullscreenenter"",""0"",""3747""
","
","
","""event"",""trial"",""time""
""fullscreenenter"",""0"",""3747""
","
",11515.034999989439,<img style='border: 4px solid darkgrey;' src='img/tf1_7_M_ss3.jpeg'></img>,0,NA,exp,NA,0,<img src='img/tf1_7_T1_ss3_md.jpeg'></img>,0,TRUE,NA,sub108
NA,html-keyboard-response,29,107699,0.0-10.0-0.7,"""event"",""trial"",""time""
""fullscreenenter"",""0"",""3747""
","
","
","""event"",""trial"",""time""
""fullscreenenter"",""0"",""3747""
","
",null,"<div style=""font-size:60px;"">+</div>",NA,null,fixation,2020-06-27T19:53:46Z,NA,NA,NA,NA,NA,sub108
NA,mars-trial,30,114570,0.0-10.0-1.7,"""event"",""trial"",""time""
""fullscreenenter"",""0"",""3747""
","
","
","""event"",""trial"",""time""
""fullscreenenter"",""0"",""3747""
","
",6246.129999984987,<img style='border: 4px solid darkgrey;' src='img/tf1_8_M_ss1.jpeg'></img>,1,NA,exp,NA,1,<img src='img/tf1_8_T1_ss1_md.jpeg'></img>,0,FALSE,NA,sub108
NA,html-keyboard-response,31,115076,0.0-10.0-0.8,"""event"",""trial"",""time""
""fullscreenenter"",""0"",""3747""
","
","
","""event"",""trial"",""time""
""fullscreenenter"",""0"",""3747""
","
",null,"<div style=""font-size:60px;"">+</div>",NA,null,fixation,2020-06-27T19:53:53Z,NA,NA,NA,NA,NA,sub108
NA,mars-trial,32,125202,0.0-10.0-1.8,"""event"",""trial"",""time""
""fullscreenenter"",""0"",""3747""
","
","
","""event"",""trial"",""time""
""fullscreenenter"",""0"",""3747""
","
",9514.945000002626,<img style='border: 4px solid darkgrey;' src='img/tf1_9_M_ss2.jpeg'></img>,2,NA,exp,NA,2,<img src='img/tf1_9_T1_ss2_md.jpeg'></img>,0,FALSE,NA,sub108
NA,html-keyboard-response,33,125714,0.0-10.0-0.9,"""event"",""trial"",""time""
""fullscreenenter"",""0"",""3747""
","
","
","""event"",""trial"",""time""
""fullscreenenter"",""0"",""3747""
","
",null,"<div style=""font-size:60px;"">+</div>",NA,null,fixation,2020-06-27T19:54:04Z,NA,NA,NA,NA,NA,sub108
NA,mars-trial,34,136711,0.0-10.0-1.9,"""event"",""trial"",""time""
""fullscreenenter"",""0"",""3747""
","
","
","""event"",""trial"",""time""
""fullscreenenter"",""0"",""3747""
","
",10385.139999969397,<img style='border: 4px solid darkgrey;' src='img/tf1_10_M_ss3.jpeg'></img>,0,NA,exp,NA,0,<img src='img/tf1_10_T1_ss3_md.jpeg'></img>,0,TRUE,NA,sub108
NA,html-keyboard-response,35,137218,0.0-10.0-0.10,"""event"",""trial"",""time""
""fullscreenenter"",""0"",""3747""
","
","
","""event"",""trial"",""time""
""fullscreenenter"",""0"",""3747""
","
",null,"<div style=""font-size:60px;"">+</div>",NA,null,fixation,2020-06-27T19:54:15Z,NA,NA,NA,NA,NA,sub108
NA,mars-trial,36,147380,0.0-10.0-1.10,"""event"",""trial"",""time""
""fullscreenenter"",""0"",""3747""
","
","
","""event"",""trial"",""time""
""fullscreenenter"",""0"",""3747""
","
",9545.180000015534,<img style='border: 4px solid darkgrey;' src='img/tf1_11_M_ss1.jpeg'></img>,3,NA,exp,NA,1,<img src='img/tf1_11_T1_ss1_md.jpeg'></img>,0,FALSE,NA,sub108
NA,html-keyboard-response,37,147889,0.0-10.0-0.11,"""event"",""trial"",""time""
""fullscreenenter"",""0"",""3747""
","
","
","""event"",""trial"",""time""
""fullscreenenter"",""0"",""3747""
","
",null,"<div style=""font-size:60px;"">+</div>",NA,null,fixation,2020-06-27T19:54:26Z,NA,NA,NA,NA,NA,sub108
NA,mars-trial,38,156284,0.0-10.0-1.11,"""event"",""trial"",""time""
""fullscreenenter"",""0"",""3747""
","
","
","""event"",""trial"",""time""
""fullscreenenter"",""0"",""3747""
","
",7777.91000000434,<img style='border: 4px solid darkgrey;' src='img/tf1_12_M_ss2.jpeg'></img>,2,NA,exp,NA,0,<img src='img/tf1_12_T1_ss2_md.jpeg'></img>,0,TRUE,NA,sub108
NA,html-keyboard-response,39,156792,0.0-10.0-0.12,"""event"",""trial"",""time""
""fullscreenenter"",""0"",""3747""
","
","
","""event"",""trial"",""time""
""fullscreenenter"",""0"",""3747""
","
",null,"<div style=""font-size:60px;"">+</div>",NA,null,fixation,2020-06-27T19:54:35Z,NA,NA,NA,NA,NA,sub108
NA,mars-trial,40,164550,0.0-10.0-1.12,"""event"",""trial"",""time""
""fullscreenenter"",""0"",""3747""
","
","
","""event"",""trial"",""time""
""fullscreenenter"",""0"",""3747""
","
",7136.434999993071,<img style='border: 4px solid darkgrey;' src='img/tf1_13_M_ss3.jpeg'></img>,0,NA,exp,NA,2,<img src='img/tf1_13_T1_ss3_md.jpeg'></img>,0,FALSE,NA,sub108
NA,html-keyboard-response,41,165054,0.0-10.0-0.13,"""event"",""trial"",""time""
""fullscreenenter"",""0"",""3747""
","
","
","""event"",""trial"",""time""
""fullscreenenter"",""0"",""3747""
","
",null,"<div style=""font-size:60px;"">+</div>",NA,null,fixation,2020-06-27T19:54:43Z,NA,NA,NA,NA,NA,sub108
NA,mars-trial,42,171168,0.0-10.0-1.13,"""event"",""trial"",""time""
""fullscreenenter"",""0"",""3747""
","
","
","""event"",""trial"",""time""
""fullscreenenter"",""0"",""3747""
","
",5495.714999968186,<img style='border: 4px solid darkgrey;' src='img/tf1_14_M_ss1.jpeg'></img>,2,NA,exp,NA,2,<img src='img/tf1_14_T1_ss1_md.jpeg'></img>,0,FALSE,NA,sub108
NA,html-keyboard-response,43,171676,0.0-10.0-0.14,"""event"",""trial"",""time""
""fullscreenenter"",""0"",""3747""
","
","
","""event"",""trial"",""time""
""fullscreenenter"",""0"",""3747""
","
",null,"<div style=""font-size:60px;"">+</div>",NA,null,fixation,2020-06-27T19:54:50Z,NA,NA,NA,NA,NA,sub108
NA,mars-trial,44,176766,0.0-10.0-1.14,"""event"",""trial"",""time""
""fullscreenenter"",""0"",""3747""
","
","
","""event"",""trial"",""time""
""fullscreenenter"",""0"",""3747""
","
",4471.5350000187755,<img style='border: 4px solid darkgrey;' src='img/tf1_15_M_ss2.jpeg'></img>,1,NA,exp,NA,1,<img src='img/tf1_15_T1_ss2_md.jpeg'></img>,0,FALSE,NA,sub108
NA,html-keyboard-response,45,177274,0.0-10.0-0.15,"""event"",""trial"",""time""
""fullscreenenter"",""0"",""3747""
","
","
","""event"",""trial"",""time""
""fullscreenenter"",""0"",""3747""
","
",null,"<div style=""font-size:60px;"">+</div>",NA,null,fixation,2020-06-27T19:54:55Z,NA,NA,NA,NA,NA,sub108
NA,mars-trial,46,184587,0.0-10.0-1.15,"""event"",""trial"",""time""
""fullscreenenter"",""0"",""3747""
","
","
","""event"",""trial"",""time""
""fullscreenenter"",""0"",""3747""
","
",6691.539999970701,<img style='border: 4px solid darkgrey;' src='img/tf1_16_M_ss3.jpeg'></img>,3,NA,exp,NA,0,<img src='img/tf1_16_T1_ss3_md.jpeg'></img>,0,TRUE,NA,sub108
NA,html-keyboard-response,47,185095,0.0-10.0-0.16,"""event"",""trial"",""time""
""fullscreenenter"",""0"",""3747""
","
","
","""event"",""trial"",""time""
""fullscreenenter"",""0"",""3747""
","
",null,"<div style=""font-size:60px;"">+</div>",NA,null,fixation,2020-06-27T19:55:03Z,NA,NA,NA,NA,NA,sub108
NA,mars-trial,48,193890,0.0-10.0-1.16,"""event"",""trial"",""time""
""fullscreenenter"",""0"",""3747""
","
","
","""event"",""trial"",""time""
""fullscreenenter"",""0"",""3747""
","
",8178.210000041872,<img style='border: 4px solid darkgrey;' src='img/tf1_17_M_ss1.jpeg'></img>,3,NA,exp,NA,1,<img src='img/tf1_17_T1_ss1_md.jpeg'></img>,0,FALSE,NA,sub108
NA,html-keyboard-response,49,194398,0.0-10.0-0.17,"""event"",""trial"",""time""
""fullscreenenter"",""0"",""3747""
","
","
","""event"",""trial"",""time""
""fullscreenenter"",""0"",""3747""
","
",null,"<div style=""font-size:60px;"">+</div>",NA,null,fixation,2020-06-27T19:55:12Z,NA,NA,NA,NA,NA,sub108
NA,mars-trial,50,199329,0.0-10.0-1.17,"""event"",""trial"",""time""
""fullscreenenter"",""0"",""3747""
","
","
","""event"",""trial"",""time""
""fullscreenenter"",""0"",""3747""
","
",4312.94999999227,<img style='border: 4px solid darkgrey;' src='img/tf1_18_M_ss2.jpeg'></img>,1,NA,exp,NA,3,<img src='img/tf1_18_T1_ss2_md.jpeg'></img>,0,FALSE,NA,sub108
NA,html-keyboard-response,51,199846,0.0-10.0-0.18,"""event"",""trial"",""time""
""fullscreenenter"",""0"",""3747""
","
","
","""event"",""trial"",""time""
""fullscreenenter"",""0"",""3747""
","
",null,"<div style=""font-size:60px;"">+</div>",NA,null,fixation,2020-06-27T19:55:18Z,NA,NA,NA,NA,NA,sub108
NA,mars-trial,52,205277,0.0-10.0-1.18,"""event"",""trial"",""time""
""fullscreenenter"",""0"",""3747""
","
","
","""event"",""trial"",""time""
""fullscreenenter"",""0"",""3747""
","
",4805.675000010524,<img style='border: 4px solid darkgrey;' src='img/tf1_19_M_ss3.jpeg'></img>,3,NA,exp,NA,3,<img src='img/tf1_19_T1_ss3_md.jpeg'></img>,0,FALSE,NA,sub108
NA,html-keyboard-response,53,205784,0.0-10.0-0.19,"""event"",""trial"",""time""
""fullscreenenter"",""0"",""3747""
","
","
","""event"",""trial"",""time""
""fullscreenenter"",""0"",""3747""
","
",null,"<div style=""font-size:60px;"">+</div>",NA,null,fixation,2020-06-27T19:55:24Z,NA,NA,NA,NA,NA,sub108
NA,mars-trial,54,213897,0.0-10.0-1.19,"""event"",""trial"",""time""
""fullscreenenter"",""0"",""3747""
","
","
","""event"",""trial"",""time""
""fullscreenenter"",""0"",""3747""
","
",7492.594999959692,<img style='border: 4px solid darkgrey;' src='img/tf1_20_M_ss1.jpeg'></img>,1,NA,exp,NA,1,<img src='img/tf1_20_T1_ss1_md.jpeg'></img>,0,FALSE,NA,sub108
NA,html-keyboard-response,55,214405,0.0-10.0-0.20,"""event"",""trial"",""time""
""fullscreenenter"",""0"",""3747""
","
","
","""event"",""trial"",""time""
""fullscreenenter"",""0"",""3747""
","
",null,"<div style=""font-size:60px;"">+</div>",NA,null,fixation,2020-06-27T19:55:32Z,NA,NA,NA,NA,NA,sub108
NA,mars-trial,56,216479,0.0-10.0-1.20,"""event"",""trial"",""time""
""fullscreenenter"",""0"",""3747""
","
","
","""event"",""trial"",""time""
""fullscreenenter"",""0"",""3747""
","
",1449.7749999864027,<img style='border: 4px solid darkgrey;' src='img/tf1_21_M_ss2.jpeg'></img>,2,NA,exp,NA,0,<img src='img/tf1_21_T1_ss2_md.jpeg'></img>,0,TRUE,NA,sub108
NA,html-keyboard-response,57,216987,0.0-10.0-0.21,"""event"",""trial"",""time""
""fullscreenenter"",""0"",""3747""
","
","
","""event"",""trial"",""time""
""fullscreenenter"",""0"",""3747""
","
",null,"<div style=""font-size:60px;"">+</div>",NA,null,fixation,2020-06-27T19:55:35Z,NA,NA,NA,NA,NA,sub108
NA,mars-trial,58,221943,0.0-10.0-1.21,"""event"",""trial"",""time""
""fullscreenenter"",""0"",""3747""
","
","
","""event"",""trial"",""time""
""fullscreenenter"",""0"",""3747""
","
",4334.934999991674,<img style='border: 4px solid darkgrey;' src='img/tf1_22_M_ss3.jpeg'></img>,2,NA,exp,NA,3,<img src='img/tf1_22_T1_ss3_md.jpeg'></img>,0,FALSE,NA,sub108
NA,html-keyboard-response,59,222451,0.0-10.0-0.22,"""event"",""trial"",""time""
""fullscreenenter"",""0"",""3747""
","
","
","""event"",""trial"",""time""
""fullscreenenter"",""0"",""3747""
","
",null,"<div style=""font-size:60px;"">+</div>",NA,null,fixation,2020-06-27T19:55:40Z,NA,NA,NA,NA,NA,sub108
NA,mars-trial,60,230031,0.0-10.0-1.22,"""event"",""trial"",""time""
""fullscreenenter"",""0"",""3747""
","
","
","""event"",""trial"",""time""
""fullscreenenter"",""0"",""3747""
","
",6952.22500001546,<img style='border: 4px solid darkgrey;' src='img/tf1_23_M_ss1.jpeg'></img>,3,NA,exp,NA,3,<img src='img/tf1_23_T1_ss1_md.jpeg'></img>,0,FALSE,NA,sub108
NA,html-keyboard-response,61,230539,0.0-10.0-0.23,"""event"",""trial"",""time""
""fullscreenenter"",""0"",""3747""
","
","
","""event"",""trial"",""time""
""fullscreenenter"",""0"",""3747""
","
",null,"<div style=""font-size:60px;"">+</div>",NA,null,fixation,2020-06-27T19:55:48Z,NA,NA,NA,NA,NA,sub108
NA,mars-trial,62,237161,0.0-10.0-1.23,"""event"",""trial"",""time""
""fullscreenenter"",""0"",""3747""
","
","
","""event"",""trial"",""time""
""fullscreenenter"",""0"",""3747""
","
",6001.589999999851,<img style='border: 4px solid darkgrey;' src='img/tf1_24_M_ss2.jpeg'></img>,0,NA,exp,NA,0,<img src='img/tf1_24_T1_ss2_md.jpeg'></img>,0,TRUE,NA,sub108
NA,html-keyboard-response,63,237668,0.0-10.0-0.24,"""event"",""trial"",""time""
""fullscreenenter"",""0"",""3747""
","
","
","""event"",""trial"",""time""
""fullscreenenter"",""0"",""3747""
","
",null,"<div style=""font-size:60px;"">+</div>",NA,null,fixation,2020-06-27T19:55:56Z,NA,NA,NA,NA,NA,sub108
NA,mars-trial,64,245640,0.0-10.0-1.24,"""event"",""trial"",""time""
""fullscreenenter"",""0"",""3747""
","
","
","""event"",""trial"",""time""
""fullscreenenter"",""0"",""3747""
","
",7352.985000004992,<img style='border: 4px solid darkgrey;' src='img/tf1_25_M_ss3.jpeg'></img>,1,NA,exp,NA,3,<img src='img/tf1_25_T1_ss3_md.jpeg'></img>,0,FALSE,NA,sub108
NA,html-keyboard-response,65,246156,0.0-10.0-0.25,"""event"",""trial"",""time""
""fullscreenenter"",""0"",""3747""
","
","
","""event"",""trial"",""time""
""fullscreenenter"",""0"",""3747""
","
",null,"<div style=""font-size:60px;"">+</div>",NA,null,fixation,2020-06-27T19:56:04Z,NA,NA,NA,NA,NA,sub108
NA,mars-trial,66,253303,0.0-10.0-1.25,"""event"",""trial"",""time""
""fullscreenenter"",""0"",""3747""
","
","
","""event"",""trial"",""time""
""fullscreenenter"",""0"",""3747""
","
",6528.630000015255,<img style='border: 4px solid darkgrey;' src='img/tf1_26_M_ss1.jpeg'></img>,2,NA,exp,NA,0,<img src='img/tf1_26_T1_ss1_md.jpeg'></img>,0,TRUE,NA,sub108
NA,html-keyboard-response,67,253811,0.0-10.0-0.26,"""event"",""trial"",""time""
""fullscreenenter"",""0"",""3747""
","
","
","""event"",""trial"",""time""
""fullscreenenter"",""0"",""3747""
","
",null,"<div style=""font-size:60px;"">+</div>",NA,null,fixation,2020-06-27T19:56:12Z,NA,NA,NA,NA,NA,sub108
NA,mars-trial,68,257252,0.0-10.0-1.26,"""event"",""trial"",""time""
""fullscreenenter"",""0"",""3747""
","
","
","""event"",""trial"",""time""
""fullscreenenter"",""0"",""3747""
","
",2822.104999970179,<img style='border: 4px solid darkgrey;' src='img/tf1_27_M_ss2.jpeg'></img>,1,NA,exp,NA,1,<img src='img/tf1_27_T1_ss2_md.jpeg'></img>,0,FALSE,NA,sub108
NA,html-keyboard-response,69,257767,0.0-10.0-0.27,"""event"",""trial"",""time""
""fullscreenenter"",""0"",""3747""
","
","
","""event"",""trial"",""time""
""fullscreenenter"",""0"",""3747""
","
",null,"<div style=""font-size:60px;"">+</div>",NA,null,fixation,2020-06-27T19:56:16Z,NA,NA,NA,NA,NA,sub108
NA,mars-trial,70,260583,0.0-10.0-1.27,"""event"",""trial"",""time""
""fullscreenenter"",""0"",""3747""
","
","
","""event"",""trial"",""time""
""fullscreenenter"",""0"",""3747""
","
",2195.3099999809638,<img style='border: 4px solid darkgrey;' src='img/tf1_28_M_ss3.jpeg'></img>,2,NA,exp,NA,0,<img src='img/tf1_28_T1_ss3_md.jpeg'></img>,0,TRUE,NA,sub108
NA,html-keyboard-response,71,261090,0.0-10.0-0.28,"""event"",""trial"",""time""
""fullscreenenter"",""0"",""3747""
","
","
","""event"",""trial"",""time""
""fullscreenenter"",""0"",""3747""
","
",null,"<div style=""font-size:60px;"">+</div>",NA,null,fixation,2020-06-27T19:56:19Z,NA,NA,NA,NA,NA,sub108
NA,mars-trial,72,263673,0.0-10.0-1.28,"""event"",""trial"",""time""
""fullscreenenter"",""0"",""3747""
","
","
","""event"",""trial"",""time""
""fullscreenenter"",""0"",""3747""
","
",1965.6050000339746,<img style='border: 4px solid darkgrey;' src='img/tf1_29_M_ss1.jpeg'></img>,3,NA,exp,NA,3,<img src='img/tf1_29_T1_ss1_md.jpeg'></img>,0,FALSE,NA,sub108
NA,html-keyboard-response,73,264179,0.0-10.0-0.29,"""event"",""trial"",""time""
""fullscreenenter"",""0"",""3747""
","
","
","""event"",""trial"",""time""
""fullscreenenter"",""0"",""3747""
","
",null,"<div style=""font-size:60px;"">+</div>",NA,null,fixation,2020-06-27T19:56:22Z,NA,NA,NA,NA,NA,sub108
NA,mars-trial,74,268337,0.0-10.0-1.29,"""event"",""trial"",""time""
""fullscreenenter"",""0"",""3747""
","
","
","""event"",""trial"",""time""
""fullscreenenter"",""0"",""3747""
","
",3541.3249999983236,<img style='border: 4px solid darkgrey;' src='img/tf1_30_M_ss2.jpeg'></img>,1,NA,exp,NA,2,<img src='img/tf1_30_T1_ss2_md.jpeg'></img>,0,FALSE,NA,sub108
NA,html-keyboard-response,75,268845,0.0-10.0-0.30,"""event"",""trial"",""time""
""fullscreenenter"",""0"",""3747""
","
","
","""event"",""trial"",""time""
""fullscreenenter"",""0"",""3747""
","
",null,"<div style=""font-size:60px;"">+</div>",NA,null,fixation,2020-06-27T19:56:27Z,NA,NA,NA,NA,NA,sub108
NA,mars-trial,76,272652,0.0-10.0-1.30,"""event"",""trial"",""time""
""fullscreenenter"",""0"",""3747""
","
","
","""event"",""trial"",""time""
""fullscreenenter"",""0"",""3747""
","
",3197.5899999961257,<img style='border: 4px solid darkgrey;' src='img/tf1_31_M_ss3.jpeg'></img>,1,NA,exp,NA,3,<img src='img/tf1_31_T1_ss3_md.jpeg'></img>,0,FALSE,NA,sub108
NA,html-keyboard-response,77,273160,0.0-10.0-0.31,"""event"",""trial"",""time""
""fullscreenenter"",""0"",""3747""
","
","
","""event"",""trial"",""time""
""fullscreenenter"",""0"",""3747""
","
",null,"<div style=""font-size:60px;"">+</div>",NA,null,fixation,2020-06-27T19:56:31Z,NA,NA,NA,NA,NA,sub108
NA,mars-trial,78,275673,0.0-10.0-1.31,"""event"",""trial"",""time""
""fullscreenenter"",""0"",""3747""
","
","
","""event"",""trial"",""time""
""fullscreenenter"",""0"",""3747""
","
",1905.0699999788776,<img style='border: 4px solid darkgrey;' src='img/tf1_32_M_ss1.jpeg'></img>,3,NA,exp,NA,1,<img src='img/tf1_32_T1_ss1_md.jpeg'></img>,0,FALSE,NA,sub108
NA,html-keyboard-response,79,276176,0.0-10.0-0.32,"""event"",""trial"",""time""
""fullscreenenter"",""0"",""3747""
","
","
","""event"",""trial"",""time""
""fullscreenenter"",""0"",""3747""
","
",null,"<div style=""font-size:60px;"">+</div>",NA,null,fixation,2020-06-27T19:56:34Z,NA,NA,NA,NA,NA,sub108
NA,mars-trial,80,279032,0.0-10.0-1.32,"""event"",""trial"",""time""
""fullscreenenter"",""0"",""3747""
","
","
","""event"",""trial"",""time""
""fullscreenenter"",""0"",""3747""
","
",2231.9149999530055,<img style='border: 4px solid darkgrey;' src='img/tf1_33_M_ss2.jpeg'></img>,1,NA,exp,NA,3,<img src='img/tf1_33_T1_ss2_md.jpeg'></img>,0,FALSE,NA,sub108
NA,html-keyboard-response,81,279540,0.0-10.0-0.33,"""event"",""trial"",""time""
""fullscreenenter"",""0"",""3747""
","
","
","""event"",""trial"",""time""
""fullscreenenter"",""0"",""3747""
","
",null,"<div style=""font-size:60px;"">+</div>",NA,null,fixation,2020-06-27T19:56:37Z,NA,NA,NA,NA,NA,sub108
NA,mars-trial,82,281972,0.0-10.0-1.33,"""event"",""trial"",""time""
""fullscreenenter"",""0"",""3747""
","
","
","""event"",""trial"",""time""
""fullscreenenter"",""0"",""3747""
","
",1814.4949999987148,<img style='border: 4px solid darkgrey;' src='img/tf1_34_M_ss3.jpeg'></img>,0,NA,exp,NA,2,<img src='img/tf1_34_T1_ss3_md.jpeg'></img>,0,FALSE,NA,sub108
NA,html-keyboard-response,83,282479,0.0-10.0-0.34,"""event"",""trial"",""time""
""fullscreenenter"",""0"",""3747""
","
","
","""event"",""trial"",""time""
""fullscreenenter"",""0"",""3747""
","
",null,"<div style=""font-size:60px;"">+</div>",NA,null,fixation,2020-06-27T19:56:40Z,NA,NA,NA,NA,NA,sub108
NA,mars-trial,84,286127,0.0-10.0-1.34,"""event"",""trial"",""time""
""fullscreenenter"",""0"",""3747""
","
","
","""event"",""trial"",""time""
""fullscreenenter"",""0"",""3747""
","
",3033.2650000345893,<img style='border: 4px solid darkgrey;' src='img/tf1_35_M_ss1.jpeg'></img>,1,NA,exp,NA,1,<img src='img/tf1_35_T1_ss1_md.jpeg'></img>,0,FALSE,NA,sub108
NA,html-keyboard-response,85,286636,0.0-10.0-0.35,"""event"",""trial"",""time""
""fullscreenenter"",""0"",""3747""
","
","
","""event"",""trial"",""time""
""fullscreenenter"",""0"",""3747""
","
",null,"<div style=""font-size:60px;"">+</div>",NA,null,fixation,2020-06-27T19:56:45Z,NA,NA,NA,NA,NA,sub108
NA,mars-trial,86,290926,0.0-10.0-1.35,"""event"",""trial"",""time""
""fullscreenenter"",""0"",""3747""
","
","
","""event"",""trial"",""time""
""fullscreenenter"",""0"",""3747""
","
",3669.125000014901,<img style='border: 4px solid darkgrey;' src='img/tf1_36_M_ss2.jpeg'></img>,0,NA,exp,NA,0,<img src='img/tf1_36_T1_ss2_md.jpeg'></img>,0,TRUE,NA,sub108
NA,html-keyboard-response,87,291435,0.0-10.0-0.36,"""event"",""trial"",""time""
""fullscreenenter"",""0"",""3747""
","
","
","""event"",""trial"",""time""
""fullscreenenter"",""0"",""3747""
","
",null,"<div style=""font-size:60px;"">+</div>",NA,null,fixation,2020-06-27T19:56:49Z,NA,NA,NA,NA,NA,sub108
NA,mars-trial,88,297489,0.0-10.0-1.36,"""event"",""trial"",""time""
""fullscreenenter"",""0"",""3747""
","
","
","""event"",""trial"",""time""
""fullscreenenter"",""0"",""3747""
","
",5437.7499999827705,<img style='border: 4px solid darkgrey;' src='img/tf1_37_M_ss3.jpeg'></img>,3,NA,exp,NA,3,<img src='img/tf1_37_T1_ss3_md.jpeg'></img>,0,FALSE,NA,sub108
NA,html-keyboard-response,89,297997,0.0-10.0-0.37,"""event"",""trial"",""time""
""fullscreenenter"",""0"",""3747""
","
","
","""event"",""trial"",""time""
""fullscreenenter"",""0"",""3747""
","
",null,"<div style=""font-size:60px;"">+</div>",NA,null,fixation,2020-06-27T19:56:56Z,NA,NA,NA,NA,NA,sub108
NA,mars-trial,90,305261,0.0-10.0-1.37,"""event"",""trial"",""time""
""fullscreenenter"",""0"",""3747""
","
","
","""event"",""trial"",""time""
""fullscreenenter"",""0"",""3747""
","
",6645.294999994803,<img style='border: 4px solid darkgrey;' src='img/tf1_38_M_ss1.jpeg'></img>,2,NA,exp,NA,1,<img src='img/tf1_38_T1_ss1_md.jpeg'></img>,0,FALSE,NA,sub108
NA,html-keyboard-response,91,305768,0.0-10.0-0.38,"""event"",""trial"",""time""
""fullscreenenter"",""0"",""3747""
","
","
","""event"",""trial"",""time""
""fullscreenenter"",""0"",""3747""
","
",null,"<div style=""font-size:60px;"">+</div>",NA,null,fixation,2020-06-27T19:57:04Z,NA,NA,NA,NA,NA,sub108
NA,mars-trial,92,309908,0.0-10.0-1.38,"""event"",""trial"",""time""
""fullscreenenter"",""0"",""3747""
","
","
","""event"",""trial"",""time""
""fullscreenenter"",""0"",""3747""
","
",3522.0150000532158,<img style='border: 4px solid darkgrey;' src='img/tf1_39_M_ss2.jpeg'></img>,1,NA,exp,NA,2,<img src='img/tf1_39_T1_ss2_md.jpeg'></img>,0,FALSE,NA,sub108
NA,html-keyboard-response,93,310416,0.0-10.0-0.39,"""event"",""trial"",""time""
""fullscreenenter"",""0"",""3747""
","
","
","""event"",""trial"",""time""
""fullscreenenter"",""0"",""3747""
","
",null,"<div style=""font-size:60px;"">+</div>",NA,null,fixation,2020-06-27T19:57:08Z,NA,NA,NA,NA,NA,sub108
NA,mars-trial,94,312848,0.0-10.0-1.39,"""event"",""trial"",""time""
""fullscreenenter"",""0"",""3747""
","
","
","""event"",""trial"",""time""
""fullscreenenter"",""0"",""3747""
","
",1817.4899999867193,<img style='border: 4px solid darkgrey;' src='img/tf1_40_M_ss3.jpeg'></img>,2,NA,exp,NA,0,<img src='img/tf1_40_T1_ss3_md.jpeg'></img>,0,TRUE,NA,sub108
NA,html-keyboard-response,95,313356,0.0-10.0-0.40,"""event"",""trial"",""time""
""fullscreenenter"",""0"",""3747""
","
","
","""event"",""trial"",""time""
""fullscreenenter"",""0"",""3747""
","
",null,"<div style=""font-size:60px;"">+</div>",NA,null,fixation,2020-06-27T19:57:11Z,NA,NA,NA,NA,NA,sub108
NA,mars-trial,96,320253,0.0-10.0-1.40,"""event"",""trial"",""time""
""fullscreenenter"",""0"",""3747""
","
","
","""event"",""trial"",""time""
""fullscreenenter"",""0"",""3747""
","
",6272.875000024214,<img style='border: 4px solid darkgrey;' src='img/tf1_41_M_ss1.jpeg'></img>,2,NA,exp,NA,0,<img src='img/tf1_41_T1_ss1_md.jpeg'></img>,0,TRUE,NA,sub108
NA,html-keyboard-response,97,320761,0.0-10.0-0.41,"""event"",""trial"",""time""
""fullscreenenter"",""0"",""3747""
","
","
","""event"",""trial"",""time""
""fullscreenenter"",""0"",""3747""
","
",null,"<div style=""font-size:60px;"">+</div>",NA,null,fixation,2020-06-27T19:57:19Z,NA,NA,NA,NA,NA,sub108
NA,mars-trial,98,326116,0.0-10.0-1.41,"""event"",""trial"",""time""
""fullscreenenter"",""0"",""3747""
","
","
","""event"",""trial"",""time""
""fullscreenenter"",""0"",""3747""
","
",4729.279999970458,<img style='border: 4px solid darkgrey;' src='img/tf1_42_M_ss2.jpeg'></img>,0,NA,exp,NA,1,<img src='img/tf1_42_T1_ss2_md.jpeg'></img>,0,FALSE,NA,sub108
NA,html-keyboard-response,99,326624,0.0-10.0-0.42,"""event"",""trial"",""time""
""fullscreenenter"",""0"",""3747""
","
","
","""event"",""trial"",""time""
""fullscreenenter"",""0"",""3747""
","
",null,"<div style=""font-size:60px;"">+</div>",NA,null,fixation,2020-06-27T19:57:25Z,NA,NA,NA,NA,NA,sub108
NA,mars-trial,100,329016,0.0-10.0-1.42,"""event"",""trial"",""time""
""fullscreenenter"",""0"",""3747""
","
","
","""event"",""trial"",""time""
""fullscreenenter"",""0"",""3747""
","
",1772.8050000150688,<img style='border: 4px solid darkgrey;' src='img/tf1_43_M_ss3.jpeg'></img>,2,NA,exp,NA,3,<img src='img/tf1_43_T1_ss3_md.jpeg'></img>,0,FALSE,NA,sub108
NA,html-keyboard-response,101,329530,0.0-10.0-0.43,"""event"",""trial"",""time""
""fullscreenenter"",""0"",""3747""
","
","
","""event"",""trial"",""time""
""fullscreenenter"",""0"",""3747""
","
",null,"<div style=""font-size:60px;"">+</div>",NA,null,fixation,2020-06-27T19:57:27Z,NA,NA,NA,NA,NA,sub108
NA,mars-trial,102,331929,0.0-10.0-1.43,"""event"",""trial"",""time""
""fullscreenenter"",""0"",""3747""
","
","
","""event"",""trial"",""time""
""fullscreenenter"",""0"",""3747""
","
",1779.9700000323355,<img style='border: 4px solid darkgrey;' src='img/tf1_44_M_ss1.jpeg'></img>,0,NA,exp,NA,1,<img src='img/tf1_44_T1_ss1_md.jpeg'></img>,0,FALSE,NA,sub108
NA,html-keyboard-response,103,332439,0.0-10.0-0.44,"""event"",""trial"",""time""
""fullscreenenter"",""0"",""3747""
","
","
","""event"",""trial"",""time""
""fullscreenenter"",""0"",""3747""
","
",null,"<div style=""font-size:60px;"">+</div>",NA,null,fixation,2020-06-27T19:57:30Z,NA,NA,NA,NA,NA,sub108
NA,mars-trial,104,335297,0.0-10.0-1.44,"""event"",""trial"",""time""
""fullscreenenter"",""0"",""3747""
","
","
","""event"",""trial"",""time""
""fullscreenenter"",""0"",""3747""
","
",2245.779999997467,<img style='border: 4px solid darkgrey;' src='img/tf1_45_M_ss2.jpeg'></img>,1,NA,exp,NA,2,<img src='img/tf1_45_T1_ss2_md.jpeg'></img>,0,FALSE,NA,sub108
NA,html-keyboard-response,105,335804,0.0-10.0-0.45,"""event"",""trial"",""time""
""fullscreenenter"",""0"",""3747""
","
","
","""event"",""trial"",""time""
""fullscreenenter"",""0"",""3747""
","
",null,"<div style=""font-size:60px;"">+</div>",NA,null,fixation,2020-06-27T19:57:34Z,NA,NA,NA,NA,NA,sub108
NA,mars-trial,106,338794,0.0-10.0-1.45,"""event"",""trial"",""time""
""fullscreenenter"",""0"",""3747""
","
","
","""event"",""trial"",""time""
""fullscreenenter"",""0"",""3747""
","
",2373.0199999990873,<img style='border: 4px solid darkgrey;' src='img/tf1_46_M_ss3.jpeg'></img>,2,NA,exp,NA,3,<img src='img/tf1_46_T1_ss3_md.jpeg'></img>,0,FALSE,NA,sub108
NA,html-keyboard-response,107,339310,0.0-10.0-0.46,"""event"",""trial"",""time""
""fullscreenenter"",""0"",""3747""
","
","
","""event"",""trial"",""time""
""fullscreenenter"",""0"",""3747""
","
",null,"<div style=""font-size:60px;"">+</div>",NA,null,fixation,2020-06-27T19:57:37Z,NA,NA,NA,NA,NA,sub108
NA,mars-trial,108,342326,0.0-10.0-1.46,"""event"",""trial"",""time""
""fullscreenenter"",""0"",""3747""
","
","
","""event"",""trial"",""time""
""fullscreenenter"",""0"",""3747""
","
",2389.744999993127,<img style='border: 4px solid darkgrey;' src='img/tf1_47_M_ss1.jpeg'></img>,1,NA,exp,NA,0,<img src='img/tf1_47_T1_ss1_md.jpeg'></img>,0,TRUE,NA,sub108
NA,html-keyboard-response,109,342834,0.0-10.0-0.47,"""event"",""trial"",""time""
""fullscreenenter"",""0"",""3747""
","
","
","""event"",""trial"",""time""
""fullscreenenter"",""0"",""3747""
","
",null,"<div style=""font-size:60px;"">+</div>",NA,null,fixation,2020-06-27T19:57:41Z,NA,NA,NA,NA,NA,sub108
NA,mars-trial,110,344758,0.0-10.0-1.47,"""event"",""trial"",""time""
""fullscreenenter"",""0"",""3747""
","
","
","""event"",""trial"",""time""
""fullscreenenter"",""0"",""3747""
","
",1306.3749999855645,<img style='border: 4px solid darkgrey;' src='img/tf1_48_M_ss2.jpeg'></img>,3,NA,exp,NA,3,<img src='img/tf1_48_T1_ss2_md.jpeg'></img>,0,FALSE,NA,sub108
NA,html-keyboard-response,111,345266,0.0-10.0-0.48,"""event"",""trial"",""time""
""fullscreenenter"",""0"",""3747""
","
","
","""event"",""trial"",""time""
""fullscreenenter"",""0"",""3747""
","
",null,"<div style=""font-size:60px;"">+</div>",NA,null,fixation,2020-06-27T19:57:43Z,NA,NA,NA,NA,NA,sub108
NA,mars-trial,112,348939,0.0-10.0-1.48,"""event"",""trial"",""time""
""fullscreenenter"",""0"",""3747""
","
","
","""event"",""trial"",""time""
""fullscreenenter"",""0"",""3747""
","
",3054.8849999904633,<img style='border: 4px solid darkgrey;' src='img/tf1_49_M_ss3.jpeg'></img>,2,NA,exp,NA,1,<img src='img/tf1_49_T1_ss3_md.jpeg'></img>,0,FALSE,NA,sub108
NA,html-keyboard-response,113,349447,0.0-10.0-0.49,"""event"",""trial"",""time""
""fullscreenenter"",""0"",""3747""
","
","
","""event"",""trial"",""time""
""fullscreenenter"",""0"",""3747""
","
",null,"<div style=""font-size:60px;"">+</div>",NA,null,fixation,2020-06-27T19:57:47Z,NA,NA,NA,NA,NA,sub108
NA,mars-trial,114,352820,0.0-10.0-1.49,"""event"",""trial"",""time""
""fullscreenenter"",""0"",""3747""
","
","
","""event"",""trial"",""time""
""fullscreenenter"",""0"",""3747""
","
",2750.735000008717,<img style='border: 4px solid darkgrey;' src='img/tf1_50_M_ss1.jpeg'></img>,1,NA,exp,NA,0,<img src='img/tf1_50_T1_ss1_md.jpeg'></img>,0,TRUE,NA,sub108
NA,html-keyboard-response,115,353337,0.0-10.0-0.50,"""event"",""trial"",""time""
""fullscreenenter"",""0"",""3747""
","
","
","""event"",""trial"",""time""
""fullscreenenter"",""0"",""3747""
","
",null,"<div style=""font-size:60px;"">+</div>",NA,null,fixation,2020-06-27T19:57:51Z,NA,NA,NA,NA,NA,sub108
NA,mars-trial,116,359892,0.0-10.0-1.50,"""event"",""trial"",""time""
""fullscreenenter"",""0"",""3747""
","
","
","""event"",""trial"",""time""
""fullscreenenter"",""0"",""3747""
","
",5937.634999980219,<img style='border: 4px solid darkgrey;' src='img/tf1_51_M_ss2.jpeg'></img>,1,NA,exp,NA,0,<img src='img/tf1_51_T1_ss2_md.jpeg'></img>,0,TRUE,NA,sub108
NA,html-keyboard-response,117,360401,0.0-10.0-0.51,"""event"",""trial"",""time""
""fullscreenenter"",""0"",""3747""
","
","
","""event"",""trial"",""time""
""fullscreenenter"",""0"",""3747""
","
",null,"<div style=""font-size:60px;"">+</div>",NA,null,fixation,2020-06-27T19:57:58Z,NA,NA,NA,NA,NA,sub108
NA,mars-trial,118,367564,0.0-10.0-1.51,"""event"",""trial"",""time""
""fullscreenenter"",""0"",""3747""
","
","
","""event"",""trial"",""time""
""fullscreenenter"",""0"",""3747""
","
",6536.520000023302,<img style='border: 4px solid darkgrey;' src='img/tf1_52_M_ss3.jpeg'></img>,2,NA,exp,NA,2,<img src='img/tf1_52_T1_ss3_md.jpeg'></img>,0,FALSE,NA,sub108
NA,html-keyboard-response,119,368071,0.0-10.0-0.52,"""event"",""trial"",""time""
""fullscreenenter"",""0"",""3747""
","
","
","""event"",""trial"",""time""
""fullscreenenter"",""0"",""3747""
","
",null,"<div style=""font-size:60px;"">+</div>",NA,null,fixation,2020-06-27T19:58:06Z,NA,NA,NA,NA,NA,sub108
NA,mars-trial,120,370097,0.0-10.0-1.52,"""event"",""trial"",""time""
""fullscreenenter"",""0"",""3747""
","
","
","""event"",""trial"",""time""
""fullscreenenter"",""0"",""3747""
","
",1404.8850000253879,<img style='border: 4px solid darkgrey;' src='img/tf1_53_M_ss1.jpeg'></img>,1,NA,exp,NA,1,<img src='img/tf1_53_T1_ss1_md.jpeg'></img>,0,FALSE,NA,sub108
NA,html-keyboard-response,121,370603,0.0-10.0-0.53,"""event"",""trial"",""time""
""fullscreenenter"",""0"",""3747""
","
","
","""event"",""trial"",""time""
""fullscreenenter"",""0"",""3747""
","
",null,"<div style=""font-size:60px;"">+</div>",NA,null,fixation,2020-06-27T19:58:08Z,NA,NA,NA,NA,NA,sub108
NA,mars-trial,122,372386,0.0-10.0-1.53,"""event"",""trial"",""time""
""fullscreenenter"",""0"",""3747""
","
","
","""event"",""trial"",""time""
""fullscreenenter"",""0"",""3747""
","
",1168.4849999728613,<img style='border: 4px solid darkgrey;' src='img/tf1_54_M_ss2.jpeg'></img>,3,NA,exp,NA,0,<img src='img/tf1_54_T1_ss2_md.jpeg'></img>,0,TRUE,NA,sub108
NA,html-keyboard-response,123,372894,0.0-10.0-0.54,"""event"",""trial"",""time""
""fullscreenenter"",""0"",""3747""
","
","
","""event"",""trial"",""time""
""fullscreenenter"",""0"",""3747""
","
",null,"<div style=""font-size:60px;"">+</div>",NA,null,fixation,2020-06-27T19:58:11Z,NA,NA,NA,NA,NA,sub108
NA,mars-trial,124,375210,0.0-10.0-1.54,"""event"",""trial"",""time""
""fullscreenenter"",""0"",""3747""
","
","
","""event"",""trial"",""time""
""fullscreenenter"",""0"",""3747""
","
",1698.5949999652803,<img style='border: 4px solid darkgrey;' src='img/tf1_55_M_ss3.jpeg'></img>,0,NA,exp,NA,0,<img src='img/tf1_55_T1_ss3_md.jpeg'></img>,0,TRUE,NA,sub108
NA,html-keyboard-response,125,375712,0.0-10.0-0.55,"""event"",""trial"",""time""
""fullscreenenter"",""0"",""3747""
","
","
","""event"",""trial"",""time""
""fullscreenenter"",""0"",""3747""
","
",null,"<div style=""font-size:60px;"">+</div>",NA,null,fixation,2020-06-27T19:58:14Z,NA,NA,NA,NA,NA,sub108
NA,mars-trial,126,379433,0.0-10.0-1.55,"""event"",""trial"",""time""
""fullscreenenter"",""0"",""3747""
","
","
","""event"",""trial"",""time""
""fullscreenenter"",""0"",""3747""
","
",3106.75999999512,<img style='border: 4px solid darkgrey;' src='img/tf1_56_M_ss1.jpeg'></img>,2,NA,exp,NA,3,<img src='img/tf1_56_T1_ss1_md.jpeg'></img>,0,FALSE,NA,sub108
NA,html-keyboard-response,127,379940,0.0-10.0-0.56,"""event"",""trial"",""time""
""fullscreenenter"",""0"",""3747""
","
","
","""event"",""trial"",""time""
""fullscreenenter"",""0"",""3747""
","
",null,"<div style=""font-size:60px;"">+</div>",NA,null,fixation,2020-06-27T19:58:18Z,NA,NA,NA,NA,NA,sub108
NA,mars-trial,128,385463,0.0-10.0-1.56,"""event"",""trial"",""time""
""fullscreenenter"",""0"",""3747""
","
","
","""event"",""trial"",""time""
""fullscreenenter"",""0"",""3747""
","
",4910.254999995232,<img style='border: 4px solid darkgrey;' src='img/tf1_57_M_ss2.jpeg'></img>,0,NA,exp,NA,0,<img src='img/tf1_57_T1_ss2_md.jpeg'></img>,0,TRUE,NA,sub108
NA,html-keyboard-response,129,385969,0.0-10.0-0.57,"""event"",""trial"",""time""
""fullscreenenter"",""0"",""3747""
","
","
","""event"",""trial"",""time""
""fullscreenenter"",""0"",""3747""
","
",null,"<div style=""font-size:60px;"">+</div>",NA,null,fixation,2020-06-27T19:58:24Z,NA,NA,NA,NA,NA,sub108
NA,mars-trial,130,388987,0.0-10.0-1.57,"""event"",""trial"",""time""
""fullscreenenter"",""0"",""3747""
","
","
","""event"",""trial"",""time""
""fullscreenenter"",""0"",""3747""
","
",2399.5450000511482,<img style='border: 4px solid darkgrey;' src='img/tf1_58_M_ss3.jpeg'></img>,0,NA,exp,NA,1,<img src='img/tf1_58_T1_ss3_md.jpeg'></img>,0,FALSE,NA,sub108
NA,html-keyboard-response,131,389502,0.0-10.0-0.58,"""event"",""trial"",""time""
""fullscreenenter"",""0"",""3747""
","
","
","""event"",""trial"",""time""
""fullscreenenter"",""0"",""3747""
","
",null,"<div style=""font-size:60px;"">+</div>",NA,null,fixation,2020-06-27T19:58:27Z,NA,NA,NA,NA,NA,sub108
NA,mars-trial,132,391476,0.0-10.0-1.58,"""event"",""trial"",""time""
""fullscreenenter"",""0"",""3747""
","
","
","""event"",""trial"",""time""
""fullscreenenter"",""0"",""3747""
","
",1363.8900000369176,<img style='border: 4px solid darkgrey;' src='img/tf1_59_M_ss1.jpeg'></img>,3,NA,exp,NA,0,<img src='img/tf1_59_T1_ss1_md.jpeg'></img>,0,TRUE,NA,sub108
NA,html-keyboard-response,133,391986,0.0-10.0-0.59,"""event"",""trial"",""time""
""fullscreenenter"",""0"",""3747""
","
","
","""event"",""trial"",""time""
""fullscreenenter"",""0"",""3747""
","
",null,"<div style=""font-size:60px;"">+</div>",NA,null,fixation,2020-06-27T19:58:30Z,NA,NA,NA,NA,NA,sub108
NA,mars-trial,134,395201,0.0-10.0-1.59,"""event"",""trial"",""time""
""fullscreenenter"",""0"",""3747""
","
","
","""event"",""trial"",""time""
""fullscreenenter"",""0"",""3747""
","
",2581.56500000041,<img style='border: 4px solid darkgrey;' src='img/tf1_60_M_ss2.jpeg'></img>,1,NA,exp,NA,2,<img src='img/tf1_60_T1_ss2_md.jpeg'></img>,0,FALSE,NA,sub108
NA,html-keyboard-response,135,395717,0.0-10.0-0.60,"""event"",""trial"",""time""
""fullscreenenter"",""0"",""3747""
","
","
","""event"",""trial"",""time""
""fullscreenenter"",""0"",""3747""
","
",null,"<div style=""font-size:60px;"">+</div>",NA,null,fixation,2020-06-27T19:58:34Z,NA,NA,NA,NA,NA,sub108
NA,mars-trial,136,397041,0.0-10.0-1.60,"""event"",""trial"",""time""
""fullscreenenter"",""0"",""3747""
","
","
","""event"",""trial"",""time""
""fullscreenenter"",""0"",""3747""
","
",706.7999999853782,<img style='border: 4px solid darkgrey;' src='img/tf1_61_M_ss3.jpeg'></img>,2,NA,exp,NA,0,<img src='img/tf1_61_T1_ss3_md.jpeg'></img>,0,TRUE,NA,sub108
NA,html-keyboard-response,137,397555,0.0-10.0-0.61,"""event"",""trial"",""time""
""fullscreenenter"",""0"",""3747""
","
","
","""event"",""trial"",""time""
""fullscreenenter"",""0"",""3747""
","
",null,"<div style=""font-size:60px;"">+</div>",NA,null,fixation,2020-06-27T19:58:35Z,NA,NA,NA,NA,NA,sub108
NA,mars-trial,138,399348,0.0-10.0-1.61,"""event"",""trial"",""time""
""fullscreenenter"",""0"",""3747""
","
","
","""event"",""trial"",""time""
""fullscreenenter"",""0"",""3747""
","
",1173.7800000119023,<img style='border: 4px solid darkgrey;' src='img/tf1_62_M_ss1.jpeg'></img>,1,NA,exp,NA,3,<img src='img/tf1_62_T1_ss1_md.jpeg'></img>,0,FALSE,NA,sub108
NA,html-keyboard-response,139,399856,0.0-10.0-0.62,"""event"",""trial"",""time""
""fullscreenenter"",""0"",""3747""
","
","
","""event"",""trial"",""time""
""fullscreenenter"",""0"",""3747""
","
",null,"<div style=""font-size:60px;"">+</div>",NA,null,fixation,2020-06-27T19:58:38Z,NA,NA,NA,NA,NA,sub108
NA,mars-trial,140,405829,0.0-10.0-1.62,"""event"",""trial"",""time""
""fullscreenenter"",""0"",""3747""
","
","
","""event"",""trial"",""time""
""fullscreenenter"",""0"",""3747""
","
",5355.029999976978,<img style='border: 4px solid darkgrey;' src='img/tf1_63_M_ss2.jpeg'></img>,0,NA,exp,NA,1,<img src='img/tf1_63_T1_ss2_md.jpeg'></img>,0,FALSE,NA,sub108
NA,html-keyboard-response,141,406336,0.0-10.0-0.63,"""event"",""trial"",""time""
""fullscreenenter"",""0"",""3747""
","
","
","""event"",""trial"",""time""
""fullscreenenter"",""0"",""3747""
","
",null,"<div style=""font-size:60px;"">+</div>",NA,null,fixation,2020-06-27T19:58:44Z,NA,NA,NA,NA,NA,sub108
NA,mars-trial,142,408127,0.0-10.0-1.63,"""event"",""trial"",""time""
""fullscreenenter"",""0"",""3747""
","
","
","""event"",""trial"",""time""
""fullscreenenter"",""0"",""3747""
","
",1170.6549999653362,<img style='border: 4px solid darkgrey;' src='img/tf1_64_M_ss3.jpeg'></img>,3,NA,exp,NA,3,<img src='img/tf1_64_T1_ss3_md.jpeg'></img>,0,FALSE,NA,sub108
NA,html-keyboard-response,143,408635,0.0-10.0-0.64,"""event"",""trial"",""time""
""fullscreenenter"",""0"",""3747""
","
","
","""event"",""trial"",""time""
""fullscreenenter"",""0"",""3747""
","
",null,"<div style=""font-size:60px;"">+</div>",NA,null,fixation,2020-06-27T19:58:47Z,NA,NA,NA,NA,NA,sub108
NA,mars-trial,144,410735,0.0-10.0-1.64,"""event"",""trial"",""time""
""fullscreenenter"",""0"",""3747""
","
","
","""event"",""trial"",""time""
""fullscreenenter"",""0"",""3747""
","
",1481.3849999918602,<img style='border: 4px solid darkgrey;' src='img/tf1_65_M_ss1.jpeg'></img>,2,NA,exp,NA,2,<img src='img/tf1_65_T1_ss1_md.jpeg'></img>,0,FALSE,NA,sub108
NA,html-keyboard-response,145,411241,0.0-10.0-0.65,"""event"",""trial"",""time""
""fullscreenenter"",""0"",""3747""
","
","
","""event"",""trial"",""time""
""fullscreenenter"",""0"",""3747""
","
",null,"<div style=""font-size:60px;"">+</div>",NA,null,fixation,2020-06-27T19:58:49Z,NA,NA,NA,NA,NA,sub108
NA,mars-trial,146,412933,0.0-10.0-1.65,"""event"",""trial"",""time""
""fullscreenenter"",""0"",""3747""
","
","
","""event"",""trial"",""time""
""fullscreenenter"",""0"",""3747""
","
",1082.2899999911897,<img style='border: 4px solid darkgrey;' src='img/tf1_66_M_ss2.jpeg'></img>,0,NA,exp,NA,0,<img src='img/tf1_66_T1_ss2_md.jpeg'></img>,0,TRUE,NA,sub108
NA,html-keyboard-response,147,413442,0.0-10.0-0.66,"""event"",""trial"",""time""
""fullscreenenter"",""0"",""3747""
","
","
","""event"",""trial"",""time""
""fullscreenenter"",""0"",""3747""
","
",null,"<div style=""font-size:60px;"">+</div>",NA,null,fixation,2020-06-27T19:58:51Z,NA,NA,NA,NA,NA,sub108
NA,mars-trial,148,415491,0.0-10.0-1.66,"""event"",""trial"",""time""
""fullscreenenter"",""0"",""3747""
","
","
","""event"",""trial"",""time""
""fullscreenenter"",""0"",""3747""
","
",1428.9850000059232,<img style='border: 4px solid darkgrey;' src='img/tf1_67_M_ss3.jpeg'></img>,2,NA,exp,NA,1,<img src='img/tf1_67_T1_ss3_md.jpeg'></img>,0,FALSE,NA,sub108
NA,html-keyboard-response,149,416006,0.0-10.0-0.67,"""event"",""trial"",""time""
""fullscreenenter"",""0"",""3747""
","
","
","""event"",""trial"",""time""
""fullscreenenter"",""0"",""3747""
","
",null,"<div style=""font-size:60px;"">+</div>",NA,null,fixation,2020-06-27T19:58:54Z,NA,NA,NA,NA,NA,sub108
NA,mars-trial,150,418706,0.0-10.0-1.67,"""event"",""trial"",""time""
""fullscreenenter"",""0"",""3747""
","
","
","""event"",""trial"",""time""
""fullscreenenter"",""0"",""3747""
","
",2080.0900000031106,<img style='border: 4px solid darkgrey;' src='img/tf1_68_M_ss1.jpeg'></img>,3,NA,exp,NA,0,<img src='img/tf1_68_T1_ss1_md.jpeg'></img>,0,TRUE,NA,sub108
NA,html-keyboard-response,151,419213,0.0-10.0-0.68,"""event"",""trial"",""time""
""fullscreenenter"",""0"",""3747""
","
","
","""event"",""trial"",""time""
""fullscreenenter"",""0"",""3747""
","
",null,"<div style=""font-size:60px;"">+</div>",NA,null,fixation,2020-06-27T19:58:57Z,NA,NA,NA,NA,NA,sub108
NA,mars-trial,152,424205,0.0-10.0-1.68,"""event"",""trial"",""time""
""fullscreenenter"",""0"",""3747""
","
","
","""event"",""trial"",""time""
""fullscreenenter"",""0"",""3747""
","
",4378.7950000260025,<img style='border: 4px solid darkgrey;' src='img/tf1_69_M_ss2.jpeg'></img>,1,NA,exp,NA,0,<img src='img/tf1_69_T1_ss2_md.jpeg'></img>,0,TRUE,NA,sub108
NA,html-keyboard-response,153,424710,0.0-10.0-0.69,"""event"",""trial"",""time""
""fullscreenenter"",""0"",""3747""
","
","
","""event"",""trial"",""time""
""fullscreenenter"",""0"",""3747""
","
",null,"<div style=""font-size:60px;"">+</div>",NA,null,fixation,2020-06-27T19:59:03Z,NA,NA,NA,NA,NA,sub108
NA,mars-trial,154,427668,0.0-10.0-1.69,"""event"",""trial"",""time""
""fullscreenenter"",""0"",""3747""
","
","
","""event"",""trial"",""time""
""fullscreenenter"",""0"",""3747""
","
",2339.129999978468,<img style='border: 4px solid darkgrey;' src='img/tf1_70_M_ss3.jpeg'></img>,2,NA,exp,NA,0,<img src='img/tf1_70_T1_ss3_md.jpeg'></img>,0,TRUE,NA,sub108
NA,html-keyboard-response,155,428176,0.0-10.0-0.70,"""event"",""trial"",""time""
""fullscreenenter"",""0"",""3747""
","
","
","""event"",""trial"",""time""
""fullscreenenter"",""0"",""3747""
","
",null,"<div style=""font-size:60px;"">+</div>",NA,null,fixation,2020-06-27T19:59:06Z,NA,NA,NA,NA,NA,sub108
NA,mars-trial,156,432414,0.0-10.0-1.70,"""event"",""trial"",""time""
""fullscreenenter"",""0"",""3747""
","
","
","""event"",""trial"",""time""
""fullscreenenter"",""0"",""3747""
","
",3621.724999975413,<img style='border: 4px solid darkgrey;' src='img/tf1_71_M_ss1.jpeg'></img>,2,NA,exp,NA,0,<img src='img/tf1_71_T1_ss1_md.jpeg'></img>,0,TRUE,NA,sub108
NA,html-keyboard-response,157,432916,0.0-10.0-0.71,"""event"",""trial"",""time""
""fullscreenenter"",""0"",""3747""
","
","
","""event"",""trial"",""time""
""fullscreenenter"",""0"",""3747""
","
",null,"<div style=""font-size:60px;"">+</div>",NA,null,fixation,2020-06-27T19:59:11Z,NA,NA,NA,NA,NA,sub108
NA,mars-trial,158,437429,0.0-10.0-1.71,"""event"",""trial"",""time""
""fullscreenenter"",""0"",""3747""
","
","
","""event"",""trial"",""time""
""fullscreenenter"",""0"",""3747""
","
",3895.254999981262,<img style='border: 4px solid darkgrey;' src='img/tf1_72_M_ss2.jpeg'></img>,2,NA,exp,NA,3,<img src='img/tf1_72_T1_ss2_md.jpeg'></img>,0,FALSE,NA,sub108
NA,html-keyboard-response,159,437946,0.0-10.0-0.72,"""event"",""trial"",""time""
""fullscreenenter"",""0"",""3747""
","
","
","""event"",""trial"",""time""
""fullscreenenter"",""0"",""3747""
","
",null,"<div style=""font-size:60px;"">+</div>",NA,null,fixation,2020-06-27T19:59:16Z,NA,NA,NA,NA,NA,sub108
NA,mars-trial,160,443177,0.0-10.0-1.72,"""event"",""trial"",""time""
""fullscreenenter"",""0"",""3747""
","
","
","""event"",""trial"",""time""
""fullscreenenter"",""0"",""3747""
","
",4604.539999971166,<img style='border: 4px solid darkgrey;' src='img/tf1_73_M_ss3.jpeg'></img>,1,NA,exp,NA,0,<img src='img/tf1_73_T1_ss3_md.jpeg'></img>,0,TRUE,NA,sub108
NA,html-keyboard-response,161,443685,0.0-10.0-0.73,"""event"",""trial"",""time""
""fullscreenenter"",""0"",""3747""
","
","
","""event"",""trial"",""time""
""fullscreenenter"",""0"",""3747""
","
",null,"<div style=""font-size:60px;"">+</div>",NA,null,fixation,2020-06-27T19:59:22Z,NA,NA,NA,NA,NA,sub108
NA,mars-trial,162,446815,0.0-10.0-1.73,"""event"",""trial"",""time""
""fullscreenenter"",""0"",""3747""
","
","
","""event"",""trial"",""time""
""fullscreenenter"",""0"",""3747""
","
",2514.3500000122003,<img style='border: 4px solid darkgrey;' src='img/tf1_74_M_ss1.jpeg'></img>,2,NA,exp,NA,1,<img src='img/tf1_74_T1_ss1_md.jpeg'></img>,0,FALSE,NA,sub108
NA,html-keyboard-response,163,447325,0.0-10.0-0.74,"""event"",""trial"",""time""
""fullscreenenter"",""0"",""3747""
","
","
","""event"",""trial"",""time""
""fullscreenenter"",""0"",""3747""
","
",null,"<div style=""font-size:60px;"">+</div>",NA,null,fixation,2020-06-27T19:59:25Z,NA,NA,NA,NA,NA,sub108
NA,mars-trial,164,449449,0.0-10.0-1.74,"""event"",""trial"",""time""
""fullscreenenter"",""0"",""3747""
","
","
","""event"",""trial"",""time""
""fullscreenenter"",""0"",""3747""
","
",1508.289999968838,<img style='border: 4px solid darkgrey;' src='img/tf1_75_M_ss2.jpeg'></img>,1,NA,exp,NA,1,<img src='img/tf1_75_T1_ss2_md.jpeg'></img>,0,FALSE,NA,sub108
NA,html-keyboard-response,165,449959,0.0-10.0-0.75,"""event"",""trial"",""time""
""fullscreenenter"",""0"",""3747""
","
","
","""event"",""trial"",""time""
""fullscreenenter"",""0"",""3747""
","
",null,"<div style=""font-size:60px;"">+</div>",NA,null,fixation,2020-06-27T19:59:28Z,NA,NA,NA,NA,NA,sub108
NA,mars-trial,166,456454,0.0-10.0-1.75,"""event"",""trial"",""time""
""fullscreenenter"",""0"",""3747""
","
","
","""event"",""trial"",""time""
""fullscreenenter"",""0"",""3747""
","
",5880.074999993667,<img style='border: 4px solid darkgrey;' src='img/tf1_76_M_ss3.jpeg'></img>,0,NA,exp,NA,0,<img src='img/tf1_76_T1_ss3_md.jpeg'></img>,0,TRUE,NA,sub108
NA,html-keyboard-response,167,456961,0.0-10.0-0.76,"""event"",""trial"",""time""
""fullscreenenter"",""0"",""3747""
","
","
","""event"",""trial"",""time""
""fullscreenenter"",""0"",""3747""
","
",null,"<div style=""font-size:60px;"">+</div>",NA,null,fixation,2020-06-27T19:59:35Z,NA,NA,NA,NA,NA,sub108
NA,mars-trial,168,459211,0.0-10.0-1.76,"""event"",""trial"",""time""
""fullscreenenter"",""0"",""3747""
","
","
","""event"",""trial"",""time""
""fullscreenenter"",""0"",""3747""
","
",1632.370000006631,<img style='border: 4px solid darkgrey;' src='img/tf1_77_M_ss1.jpeg'></img>,3,NA,exp,NA,0,<img src='img/tf1_77_T1_ss1_md.jpeg'></img>,0,TRUE,NA,sub108
NA,html-keyboard-response,169,459719,0.0-10.0-0.77,"""event"",""trial"",""time""
""fullscreenenter"",""0"",""3747""
","
","
","""event"",""trial"",""time""
""fullscreenenter"",""0"",""3747""
","
",null,"<div style=""font-size:60px;"">+</div>",NA,null,fixation,2020-06-27T19:59:38Z,NA,NA,NA,NA,NA,sub108
NA,mars-trial,170,461834,0.0-10.0-1.77,"""event"",""trial"",""time""
""fullscreenenter"",""0"",""3747""
","
","
","""event"",""trial"",""time""
""fullscreenenter"",""0"",""3747""
","
",1498.6149999895133,<img style='border: 4px solid darkgrey;' src='img/tf1_78_M_ss2.jpeg'></img>,1,NA,exp,NA,3,<img src='img/tf1_78_T1_ss2_md.jpeg'></img>,0,FALSE,NA,sub108
NA,html-keyboard-response,171,462342,0.0-10.0-0.78,"""event"",""trial"",""time""
""fullscreenenter"",""0"",""3747""
","
","
","""event"",""trial"",""time""
""fullscreenenter"",""0"",""3747""
","
",null,"<div style=""font-size:60px;"">+</div>",NA,null,fixation,2020-06-27T19:59:40Z,NA,NA,NA,NA,NA,sub108
NA,mars-trial,172,466507,0.0-10.0-1.78,"""event"",""trial"",""time""
""fullscreenenter"",""0"",""3747""
","
","
","""event"",""trial"",""time""
""fullscreenenter"",""0"",""3747""
","
",3547.5100000039674,<img style='border: 4px solid darkgrey;' src='img/tf1_79_M_ss3.jpeg'></img>,2,NA,exp,NA,3,<img src='img/tf1_79_T1_ss3_md.jpeg'></img>,0,FALSE,NA,sub108
NA,html-keyboard-response,173,467015,0.0-10.0-0.79,"""event"",""trial"",""time""
""fullscreenenter"",""0"",""3747""
","
","
","""event"",""trial"",""time""
""fullscreenenter"",""0"",""3747""
","
",null,"<div style=""font-size:60px;"">+</div>",NA,null,fixation,2020-06-27T19:59:45Z,NA,NA,NA,NA,NA,sub108
NA,mars-trial,174,469364,0.0-10.0-1.79,"""event"",""trial"",""time""
""fullscreenenter"",""0"",""3747""
","
","
","""event"",""trial"",""time""
""fullscreenenter"",""0"",""3747""
","
",1737.604999972973,<img style='border: 4px solid darkgrey;' src='img/tf1_80_M_ss1.jpeg'></img>,1,NA,exp,NA,2,<img src='img/tf1_80_T1_ss1_md.jpeg'></img>,0,FALSE,NA,sub108
NA,audio-button-response,175,472648,0.0-11.0,"""event"",""trial"",""time""
""fullscreenenter"",""0"",""3747""
","
","
","""event"",""trial"",""time""
""fullscreenenter"",""0"",""3747""
","
",3282.3349999962375,audio/mars_instructions_slide5.wav,0,NA,NA,NA,NA,NA,NA,NA,NA,sub108
