success,trial_type,trial_index,time_elapsed,internal_node_id,interactions,blur_events,focus_events,fullscreenenter_events,fullscreenexit_events,rt,stimulus,button_pressed,key_press,part,timestamp,unshuffled_button,correct_response,correct_button,correct,value,subject_id
TRUE,fullscreen,0,5217,0.0-0.0,"""event"",""trial"",""time""
""fullscreenenter"",""0"",""4237""
","
","
","""event"",""trial"",""time""
""fullscreenenter"",""0"",""4237""
","
",NA,NA,NA,NA,NA,NA,NA,NA,NA,NA,NA,sub4
NA,pavlovia,1,5219,0.0-1.0,"""event"",""trial"",""time""
""fullscreenenter"",""0"",""4237""
","
","
","""event"",""trial"",""time""
""fullscreenenter"",""0"",""4237""
","
",NA,NA,NA,NA,NA,NA,NA,NA,NA,NA,NA,sub4
NA,html-button-response,2,7157,0.0-2.0,"""event"",""trial"",""time""
""fullscreenenter"",""0"",""4237""
","
","
","""event"",""trial"",""time""
""fullscreenenter"",""0"",""4237""
","
",1936.424999999872,<p>Welcome! Press START to begin.</p><br>,0,NA,NA,NA,NA,NA,NA,NA,NA,sub4
NA,audio-button-response,3,21980,0.0-3.0,"""event"",""trial"",""time""
""fullscreenenter"",""0"",""4237""
","
","
","""event"",""trial"",""time""
""fullscreenenter"",""0"",""4237""
","
",14821.490000000267,audio/mars_instructions_slide2.wav,0,NA,NA,NA,NA,NA,NA,NA,NA,sub4
NA,audio-button-response,4,36152,0.0-4.0,"""event"",""trial"",""time""
""fullscreenenter"",""0"",""4237""
","
","
","""event"",""trial"",""time""
""fullscreenenter"",""0"",""4237""
","
",14170.885000001363,audio/mars_instructions_slide3.wav,0,NA,NA,NA,NA,NA,NA,NA,NA,sub4
NA,html-keyboard-response,5,36653,0.0-5.0-0.0,"""event"",""trial"",""time""
""fullscreenenter"",""0"",""4237""
","
","
","""event"",""trial"",""time""
""fullscreenenter"",""0"",""4237""
","
",null,"<div style=""font-size:60px;"">+</div>",NA,null,fixation,2020-06-11T17:43:22Z,NA,NA,NA,NA,NA,sub4
NA,mars-trial,6,48703,0.0-5.0-1.0,"""event"",""trial"",""time""
""fullscreenenter"",""0"",""4237""
","
","
","""event"",""trial"",""time""
""fullscreenenter"",""0"",""4237""
","
",9945.88499999918,<img style='border: 4px solid darkgrey;' src='practice/pt1_M1.png'></img>,3,NA,practice,NA,0,<img src='practice/pt1_T1.png'></img>,0,TRUE,NA,sub4
NA,html-keyboard-response,7,49206,0.0-6.0-0.0,"""event"",""trial"",""time""
""fullscreenenter"",""0"",""4237""
","
","
","""event"",""trial"",""time""
""fullscreenenter"",""0"",""4237""
","
",null,"<div style=""font-size:60px;"">+</div>",NA,null,fixation,2020-06-11T17:43:34Z,NA,NA,NA,NA,NA,sub4
NA,mars-trial,8,53054,0.0-6.0-1.0,"""event"",""trial"",""time""
""fullscreenenter"",""0"",""4237""
","
","
","""event"",""trial"",""time""
""fullscreenenter"",""0"",""4237""
","
",1743.8950000014302,<img style='border: 4px solid darkgrey;' src='practice/pt2_M1.png'></img>,3,NA,practice,NA,0,<img src='practice/pt2_T1.png'></img>,0,TRUE,NA,sub4
NA,html-keyboard-response,9,53555,0.0-7.0-0.0,"""event"",""trial"",""time""
""fullscreenenter"",""0"",""4237""
","
","
","""event"",""trial"",""time""
""fullscreenenter"",""0"",""4237""
","
",null,"<div style=""font-size:60px;"">+</div>",NA,null,fixation,2020-06-11T17:43:39Z,NA,NA,NA,NA,NA,sub4
NA,mars-trial,10,56906,0.0-7.0-1.0,"""event"",""trial"",""time""
""fullscreenenter"",""0"",""4237""
","
","
","""event"",""trial"",""time""
""fullscreenenter"",""0"",""4237""
","
",1246.8950000002224,<img style='border: 4px solid darkgrey;' src='practice/pt3_M1.png'></img>,3,NA,practice,NA,0,<img src='practice/pt3_T1.png'></img>,0,TRUE,NA,sub4
NA,audio-button-response,11,61191,0.0-8.0,"""event"",""trial"",""time""
""fullscreenenter"",""0"",""4237""
","
","
","""event"",""trial"",""time""
""fullscreenenter"",""0"",""4237""
","
",4283.1850000002305,audio/mars_instructions_slide4.wav,0,NA,NA,NA,NA,NA,NA,NA,NA,sub4
NA,call-function,12,61191,0.0-9.0,"""event"",""trial"",""time""
""fullscreenenter"",""0"",""4237""
","
","
","""event"",""trial"",""time""
""fullscreenenter"",""0"",""4237""
","
",NA,NA,NA,NA,NA,NA,NA,NA,NA,NA,NA,sub4
NA,html-keyboard-response,13,61693,0.0-10.0-0.0,"""event"",""trial"",""time""
""fullscreenenter"",""0"",""4237""
","
","
","""event"",""trial"",""time""
""fullscreenenter"",""0"",""4237""
","
",null,"<div style=""font-size:60px;"">+</div>",NA,null,fixation,2020-06-11T17:43:47Z,NA,NA,NA,NA,NA,sub4
NA,mars-trial,14,65565,0.0-10.0-1.0,"""event"",""trial"",""time""
""fullscreenenter"",""0"",""4237""
","
","
","""event"",""trial"",""time""
""fullscreenenter"",""0"",""4237""
","
",3268.6849999990955,<img style='border: 4px solid darkgrey;' src='img/tf1_1_M_ss3.jpeg'></img>,0,NA,exp,NA,0,<img src='img/tf1_1_T1_ss3_md.jpeg'></img>,0,TRUE,NA,sub4
NA,html-keyboard-response,15,66067,0.0-10.0-0.1,"""event"",""trial"",""time""
""fullscreenenter"",""0"",""4237""
","
","
","""event"",""trial"",""time""
""fullscreenenter"",""0"",""4237""
","
",null,"<div style=""font-size:60px;"">+</div>",NA,null,fixation,2020-06-11T17:43:51Z,NA,NA,NA,NA,NA,sub4
NA,mars-trial,16,69790,0.0-10.0-1.1,"""event"",""trial"",""time""
""fullscreenenter"",""0"",""4237""
","
","
","""event"",""trial"",""time""
""fullscreenenter"",""0"",""4237""
","
",3119.4550000000163,<img style='border: 4px solid darkgrey;' src='img/tf1_2_M_ss1.jpeg'></img>,3,NA,exp,NA,0,<img src='img/tf1_2_T1_ss1_md.jpeg'></img>,0,TRUE,NA,sub4
NA,html-keyboard-response,17,70291,0.0-10.0-0.2,"""event"",""trial"",""time""
""fullscreenenter"",""0"",""4237""
","
","
","""event"",""trial"",""time""
""fullscreenenter"",""0"",""4237""
","
",null,"<div style=""font-size:60px;"">+</div>",NA,null,fixation,2020-06-11T17:43:55Z,NA,NA,NA,NA,NA,sub4
NA,mars-trial,18,74779,0.0-10.0-1.2,"""event"",""trial"",""time""
""fullscreenenter"",""0"",""4237""
","
","
","""event"",""trial"",""time""
""fullscreenenter"",""0"",""4237""
","
",3884.0199999995093,<img style='border: 4px solid darkgrey;' src='img/tf1_3_M_ss2.jpeg'></img>,3,NA,exp,NA,0,<img src='img/tf1_3_T1_ss2_md.jpeg'></img>,0,TRUE,NA,sub4
NA,html-keyboard-response,19,75280,0.0-10.0-0.3,"""event"",""trial"",""time""
""fullscreenenter"",""0"",""4237""
","
","
","""event"",""trial"",""time""
""fullscreenenter"",""0"",""4237""
","
",null,"<div style=""font-size:60px;"">+</div>",NA,null,fixation,2020-06-11T17:44:00Z,NA,NA,NA,NA,NA,sub4
NA,mars-trial,20,79198,0.0-10.0-1.3,"""event"",""trial"",""time""
""fullscreenenter"",""0"",""4237""
","
","
","""event"",""trial"",""time""
""fullscreenenter"",""0"",""4237""
","
",3314.379999999801,<img style='border: 4px solid darkgrey;' src='img/tf1_4_M_ss3.jpeg'></img>,2,NA,exp,NA,0,<img src='img/tf1_4_T1_ss3_md.jpeg'></img>,0,TRUE,NA,sub4
NA,html-keyboard-response,21,79700,0.0-10.0-0.4,"""event"",""trial"",""time""
""fullscreenenter"",""0"",""4237""
","
","
","""event"",""trial"",""time""
""fullscreenenter"",""0"",""4237""
","
",null,"<div style=""font-size:60px;"">+</div>",NA,null,fixation,2020-06-11T17:44:05Z,NA,NA,NA,NA,NA,sub4
NA,mars-trial,22,82506,0.0-10.0-1.4,"""event"",""trial"",""time""
""fullscreenenter"",""0"",""4237""
","
","
","""event"",""trial"",""time""
""fullscreenenter"",""0"",""4237""
","
",2201.0449999997945,<img style='border: 4px solid darkgrey;' src='img/tf1_5_M_ss1.jpeg'></img>,0,NA,exp,NA,0,<img src='img/tf1_5_T1_ss1_md.jpeg'></img>,0,TRUE,NA,sub4
NA,html-keyboard-response,23,83007,0.0-10.0-0.5,"""event"",""trial"",""time""
""fullscreenenter"",""0"",""4237""
","
","
","""event"",""trial"",""time""
""fullscreenenter"",""0"",""4237""
","
",null,"<div style=""font-size:60px;"">+</div>",NA,null,fixation,2020-06-11T17:44:08Z,NA,NA,NA,NA,NA,sub4
NA,mars-trial,24,97206,0.0-10.0-1.5,"""event"",""trial"",""time""
""fullscreenenter"",""0"",""4237""
","
","
","""event"",""trial"",""time""
""fullscreenenter"",""0"",""4237""
","
",13594.865000000937,<img style='border: 4px solid darkgrey;' src='img/tf1_6_M_ss2.jpeg'></img>,2,NA,exp,NA,3,<img src='img/tf1_6_T1_ss2_md.jpeg'></img>,0,FALSE,NA,sub4
NA,html-keyboard-response,25,97708,0.0-10.0-0.6,"""event"",""trial"",""time""
""fullscreenenter"",""0"",""4237""
","
","
","""event"",""trial"",""time""
""fullscreenenter"",""0"",""4237""
","
",null,"<div style=""font-size:60px;"">+</div>",NA,null,fixation,2020-06-11T17:44:23Z,NA,NA,NA,NA,NA,sub4
NA,mars-trial,26,101950,0.0-10.0-1.6,"""event"",""trial"",""time""
""fullscreenenter"",""0"",""4237""
","
","
","""event"",""trial"",""time""
""fullscreenenter"",""0"",""4237""
","
",3637.78000000093,<img style='border: 4px solid darkgrey;' src='img/tf1_7_M_ss3.jpeg'></img>,2,NA,exp,NA,0,<img src='img/tf1_7_T1_ss3_md.jpeg'></img>,0,TRUE,NA,sub4
NA,html-keyboard-response,27,102451,0.0-10.0-0.7,"""event"",""trial"",""time""
""fullscreenenter"",""0"",""4237""
","
","
","""event"",""trial"",""time""
""fullscreenenter"",""0"",""4237""
","
",null,"<div style=""font-size:60px;"">+</div>",NA,null,fixation,2020-06-11T17:44:27Z,NA,NA,NA,NA,NA,sub4
NA,mars-trial,28,111631,0.0-10.0-1.7,"""event"",""trial"",""time""
""fullscreenenter"",""0"",""4237""
","
","
","""event"",""trial"",""time""
""fullscreenenter"",""0"",""4237""
","
",8576.209999999264,<img style='border: 4px solid darkgrey;' src='img/tf1_8_M_ss1.jpeg'></img>,1,NA,exp,NA,0,<img src='img/tf1_8_T1_ss1_md.jpeg'></img>,0,TRUE,NA,sub4
NA,html-keyboard-response,29,112132,0.0-10.0-0.8,"""event"",""trial"",""time""
""fullscreenenter"",""0"",""4237""
","
","
","""event"",""trial"",""time""
""fullscreenenter"",""0"",""4237""
","
",null,"<div style=""font-size:60px;"">+</div>",NA,null,fixation,2020-06-11T17:44:37Z,NA,NA,NA,NA,NA,sub4
NA,mars-trial,30,121019,0.0-10.0-1.8,"""event"",""trial"",""time""
""fullscreenenter"",""0"",""4237""
","
","
","""event"",""trial"",""time""
""fullscreenenter"",""0"",""4237""
","
",8282.434999999168,<img style='border: 4px solid darkgrey;' src='img/tf1_9_M_ss2.jpeg'></img>,2,NA,exp,NA,0,<img src='img/tf1_9_T1_ss2_md.jpeg'></img>,0,TRUE,NA,sub4
NA,html-keyboard-response,31,121520,0.0-10.0-0.9,"""event"",""trial"",""time""
""fullscreenenter"",""0"",""4237""
","
","
","""event"",""trial"",""time""
""fullscreenenter"",""0"",""4237""
","
",null,"<div style=""font-size:60px;"">+</div>",NA,null,fixation,2020-06-11T17:44:46Z,NA,NA,NA,NA,NA,sub4
NA,mars-trial,32,135830,0.0-10.0-1.9,"""event"",""trial"",""time""
""fullscreenenter"",""0"",""4237""
","
","
","""event"",""trial"",""time""
""fullscreenenter"",""0"",""4237""
","
",13706.07500000004,<img style='border: 4px solid darkgrey;' src='img/tf1_10_M_ss3.jpeg'></img>,2,NA,exp,NA,0,<img src='img/tf1_10_T1_ss3_md.jpeg'></img>,0,TRUE,NA,sub4
NA,html-keyboard-response,33,136332,0.0-10.0-0.10,"""event"",""trial"",""time""
""fullscreenenter"",""0"",""4237""
","
","
","""event"",""trial"",""time""
""fullscreenenter"",""0"",""4237""
","
",null,"<div style=""font-size:60px;"">+</div>",NA,null,fixation,2020-06-11T17:45:01Z,NA,NA,NA,NA,NA,sub4
NA,mars-trial,34,142349,0.0-10.0-1.10,"""event"",""trial"",""time""
""fullscreenenter"",""0"",""4237""
","
","
","""event"",""trial"",""time""
""fullscreenenter"",""0"",""4237""
","
",5413.340000000986,<img style='border: 4px solid darkgrey;' src='img/tf1_11_M_ss1.jpeg'></img>,1,NA,exp,NA,2,<img src='img/tf1_11_T1_ss1_md.jpeg'></img>,0,FALSE,NA,sub4
NA,html-keyboard-response,35,142850,0.0-10.0-0.11,"""event"",""trial"",""time""
""fullscreenenter"",""0"",""4237""
","
","
","""event"",""trial"",""time""
""fullscreenenter"",""0"",""4237""
","
",null,"<div style=""font-size:60px;"">+</div>",NA,null,fixation,2020-06-11T17:45:08Z,NA,NA,NA,NA,NA,sub4
NA,mars-trial,36,147427,0.0-10.0-1.11,"""event"",""trial"",""time""
""fullscreenenter"",""0"",""4237""
","
","
","""event"",""trial"",""time""
""fullscreenenter"",""0"",""4237""
","
",3972.465000000724,<img style='border: 4px solid darkgrey;' src='img/tf1_12_M_ss2.jpeg'></img>,0,NA,exp,NA,1,<img src='img/tf1_12_T1_ss2_md.jpeg'></img>,0,FALSE,NA,sub4
NA,html-keyboard-response,37,147928,0.0-10.0-0.12,"""event"",""trial"",""time""
""fullscreenenter"",""0"",""4237""
","
","
","""event"",""trial"",""time""
""fullscreenenter"",""0"",""4237""
","
",null,"<div style=""font-size:60px;"">+</div>",NA,null,fixation,2020-06-11T17:45:13Z,NA,NA,NA,NA,NA,sub4
NA,mars-trial,38,161759,0.0-10.0-1.12,"""event"",""trial"",""time""
""fullscreenenter"",""0"",""4237""
","
","
","""event"",""trial"",""time""
""fullscreenenter"",""0"",""4237""
","
",13227.174999999988,<img style='border: 4px solid darkgrey;' src='img/tf1_13_M_ss3.jpeg'></img>,3,NA,exp,NA,2,<img src='img/tf1_13_T1_ss3_md.jpeg'></img>,0,FALSE,NA,sub4
NA,html-keyboard-response,39,162262,0.0-10.0-0.13,"""event"",""trial"",""time""
""fullscreenenter"",""0"",""4237""
","
","
","""event"",""trial"",""time""
""fullscreenenter"",""0"",""4237""
","
",null,"<div style=""font-size:60px;"">+</div>",NA,null,fixation,2020-06-11T17:45:27Z,NA,NA,NA,NA,NA,sub4
NA,mars-trial,40,170157,0.0-10.0-1.13,"""event"",""trial"",""time""
""fullscreenenter"",""0"",""4237""
","
","
","""event"",""trial"",""time""
""fullscreenenter"",""0"",""4237""
","
",7291.994999999588,<img style='border: 4px solid darkgrey;' src='img/tf1_14_M_ss1.jpeg'></img>,3,NA,exp,NA,2,<img src='img/tf1_14_T1_ss1_md.jpeg'></img>,0,FALSE,NA,sub4
NA,html-keyboard-response,41,170659,0.0-10.0-0.14,"""event"",""trial"",""time""
""fullscreenenter"",""0"",""4237""
","
","
","""event"",""trial"",""time""
""fullscreenenter"",""0"",""4237""
","
",null,"<div style=""font-size:60px;"">+</div>",NA,null,fixation,2020-06-11T17:45:36Z,NA,NA,NA,NA,NA,sub4
NA,mars-trial,42,177228,0.0-10.0-1.14,"""event"",""trial"",""time""
""fullscreenenter"",""0"",""4237""
","
","
","""event"",""trial"",""time""
""fullscreenenter"",""0"",""4237""
","
",5964.210000000079,<img style='border: 4px solid darkgrey;' src='img/tf1_15_M_ss2.jpeg'></img>,0,NA,exp,NA,2,<img src='img/tf1_15_T1_ss2_md.jpeg'></img>,0,FALSE,NA,sub4
NA,html-keyboard-response,43,177729,0.0-10.0-0.15,"""event"",""trial"",""time""
""fullscreenenter"",""0"",""4237""
","
","
","""event"",""trial"",""time""
""fullscreenenter"",""0"",""4237""
","
",null,"<div style=""font-size:60px;"">+</div>",NA,null,fixation,2020-06-11T17:45:43Z,NA,NA,NA,NA,NA,sub4
NA,mars-trial,44,185061,0.0-10.0-1.15,"""event"",""trial"",""time""
""fullscreenenter"",""0"",""4237""
","
","
","""event"",""trial"",""time""
""fullscreenenter"",""0"",""4237""
","
",6727.969999999914,<img style='border: 4px solid darkgrey;' src='img/tf1_16_M_ss3.jpeg'></img>,3,NA,exp,NA,0,<img src='img/tf1_16_T1_ss3_md.jpeg'></img>,0,TRUE,NA,sub4
NA,html-keyboard-response,45,185563,0.0-10.0-0.16,"""event"",""trial"",""time""
""fullscreenenter"",""0"",""4237""
","
","
","""event"",""trial"",""time""
""fullscreenenter"",""0"",""4237""
","
",null,"<div style=""font-size:60px;"">+</div>",NA,null,fixation,2020-06-11T17:45:51Z,NA,NA,NA,NA,NA,sub4
NA,mars-trial,46,190145,0.0-10.0-1.16,"""event"",""trial"",""time""
""fullscreenenter"",""0"",""4237""
","
","
","""event"",""trial"",""time""
""fullscreenenter"",""0"",""4237""
","
",3978.595000000496,<img style='border: 4px solid darkgrey;' src='img/tf1_17_M_ss1.jpeg'></img>,3,NA,exp,NA,3,<img src='img/tf1_17_T1_ss1_md.jpeg'></img>,0,FALSE,NA,sub4
NA,html-keyboard-response,47,190647,0.0-10.0-0.17,"""event"",""trial"",""time""
""fullscreenenter"",""0"",""4237""
","
","
","""event"",""trial"",""time""
""fullscreenenter"",""0"",""4237""
","
",null,"<div style=""font-size:60px;"">+</div>",NA,null,fixation,2020-06-11T17:45:56Z,NA,NA,NA,NA,NA,sub4
NA,mars-trial,48,212232,0.0-10.0-1.17,"""event"",""trial"",""time""
""fullscreenenter"",""0"",""4237""
","
","
","""event"",""trial"",""time""
""fullscreenenter"",""0"",""4237""
","
",20980.290000001318,<img style='border: 4px solid darkgrey;' src='img/tf1_18_M_ss2.jpeg'></img>,2,NA,exp,NA,3,<img src='img/tf1_18_T1_ss2_md.jpeg'></img>,0,FALSE,NA,sub4
NA,html-keyboard-response,49,212734,0.0-10.0-0.18,"""event"",""trial"",""time""
""fullscreenenter"",""0"",""4237""
","
","
","""event"",""trial"",""time""
""fullscreenenter"",""0"",""4237""
","
",null,"<div style=""font-size:60px;"">+</div>",NA,null,fixation,2020-06-11T17:46:18Z,NA,NA,NA,NA,NA,sub4
NA,mars-trial,50,217436,0.0-10.0-1.18,"""event"",""trial"",""time""
""fullscreenenter"",""0"",""4237""
","
","
","""event"",""trial"",""time""
""fullscreenenter"",""0"",""4237""
","
",4098.695000000589,<img style='border: 4px solid darkgrey;' src='img/tf1_19_M_ss3.jpeg'></img>,1,NA,exp,NA,3,<img src='img/tf1_19_T1_ss3_md.jpeg'></img>,0,FALSE,NA,sub4
NA,html-keyboard-response,51,217937,0.0-10.0-0.19,"""event"",""trial"",""time""
""fullscreenenter"",""0"",""4237""
","
","
","""event"",""trial"",""time""
""fullscreenenter"",""0"",""4237""
","
",null,"<div style=""font-size:60px;"">+</div>",NA,null,fixation,2020-06-11T17:46:23Z,NA,NA,NA,NA,NA,sub4
NA,mars-trial,52,225381,0.0-10.0-1.19,"""event"",""trial"",""time""
""fullscreenenter"",""0"",""4237""
","
","
","""event"",""trial"",""time""
""fullscreenenter"",""0"",""4237""
","
",6838.874999999447,<img style='border: 4px solid darkgrey;' src='img/tf1_20_M_ss1.jpeg'></img>,0,NA,exp,NA,3,<img src='img/tf1_20_T1_ss1_md.jpeg'></img>,0,FALSE,NA,sub4
NA,html-keyboard-response,53,225882,0.0-10.0-0.20,"""event"",""trial"",""time""
""fullscreenenter"",""0"",""4237""
","
","
","""event"",""trial"",""time""
""fullscreenenter"",""0"",""4237""
","
",null,"<div style=""font-size:60px;"">+</div>",NA,null,fixation,2020-06-11T17:46:31Z,NA,NA,NA,NA,NA,sub4
NA,mars-trial,54,229545,0.0-10.0-1.20,"""event"",""trial"",""time""
""fullscreenenter"",""0"",""4237""
","
","
","""event"",""trial"",""time""
""fullscreenenter"",""0"",""4237""
","
",3059.290000001056,<img style='border: 4px solid darkgrey;' src='img/tf1_21_M_ss2.jpeg'></img>,3,NA,exp,NA,2,<img src='img/tf1_21_T1_ss2_md.jpeg'></img>,0,FALSE,NA,sub4
NA,html-keyboard-response,55,230046,0.0-10.0-0.21,"""event"",""trial"",""time""
""fullscreenenter"",""0"",""4237""
","
","
","""event"",""trial"",""time""
""fullscreenenter"",""0"",""4237""
","
",null,"<div style=""font-size:60px;"">+</div>",NA,null,fixation,2020-06-11T17:46:35Z,NA,NA,NA,NA,NA,sub4
NA,mars-trial,56,239641,0.0-10.0-1.21,"""event"",""trial"",""time""
""fullscreenenter"",""0"",""4237""
","
","
","""event"",""trial"",""time""
""fullscreenenter"",""0"",""4237""
","
",8991.325000000885,<img style='border: 4px solid darkgrey;' src='img/tf1_22_M_ss3.jpeg'></img>,2,NA,exp,NA,0,<img src='img/tf1_22_T1_ss3_md.jpeg'></img>,0,TRUE,NA,sub4
NA,html-keyboard-response,57,240143,0.0-10.0-0.22,"""event"",""trial"",""time""
""fullscreenenter"",""0"",""4237""
","
","
","""event"",""trial"",""time""
""fullscreenenter"",""0"",""4237""
","
",null,"<div style=""font-size:60px;"">+</div>",NA,null,fixation,2020-06-11T17:46:45Z,NA,NA,NA,NA,NA,sub4
NA,mars-trial,58,243783,0.0-10.0-1.22,"""event"",""trial"",""time""
""fullscreenenter"",""0"",""4237""
","
","
","""event"",""trial"",""time""
""fullscreenenter"",""0"",""4237""
","
",3035.2050000001327,<img style='border: 4px solid darkgrey;' src='img/tf1_23_M_ss1.jpeg'></img>,2,NA,exp,NA,2,<img src='img/tf1_23_T1_ss1_md.jpeg'></img>,0,FALSE,NA,sub4
NA,html-keyboard-response,59,244284,0.0-10.0-0.23,"""event"",""trial"",""time""
""fullscreenenter"",""0"",""4237""
","
","
","""event"",""trial"",""time""
""fullscreenenter"",""0"",""4237""
","
",null,"<div style=""font-size:60px;"">+</div>",NA,null,fixation,2020-06-11T17:46:49Z,NA,NA,NA,NA,NA,sub4
NA,mars-trial,60,254757,0.0-10.0-1.23,"""event"",""trial"",""time""
""fullscreenenter"",""0"",""4237""
","
","
","""event"",""trial"",""time""
""fullscreenenter"",""0"",""4237""
","
",9869.27999999898,<img style='border: 4px solid darkgrey;' src='img/tf1_24_M_ss2.jpeg'></img>,3,NA,exp,NA,3,<img src='img/tf1_24_T1_ss2_md.jpeg'></img>,0,FALSE,NA,sub4
NA,html-keyboard-response,61,255259,0.0-10.0-0.24,"""event"",""trial"",""time""
""fullscreenenter"",""0"",""4237""
","
","
","""event"",""trial"",""time""
""fullscreenenter"",""0"",""4237""
","
",null,"<div style=""font-size:60px;"">+</div>",NA,null,fixation,2020-06-11T17:47:00Z,NA,NA,NA,NA,NA,sub4
NA,mars-trial,62,263242,0.0-10.0-1.24,"""event"",""trial"",""time""
""fullscreenenter"",""0"",""4237""
","
","
","""event"",""trial"",""time""
""fullscreenenter"",""0"",""4237""
","
",7378.00500000047,<img style='border: 4px solid darkgrey;' src='img/tf1_25_M_ss3.jpeg'></img>,3,NA,exp,NA,1,<img src='img/tf1_25_T1_ss3_md.jpeg'></img>,0,FALSE,NA,sub4
NA,html-keyboard-response,63,263744,0.0-10.0-0.25,"""event"",""trial"",""time""
""fullscreenenter"",""0"",""4237""
","
","
","""event"",""trial"",""time""
""fullscreenenter"",""0"",""4237""
","
",null,"<div style=""font-size:60px;"">+</div>",NA,null,fixation,2020-06-11T17:47:09Z,NA,NA,NA,NA,NA,sub4
NA,mars-trial,64,277005,0.0-10.0-1.25,"""event"",""trial"",""time""
""fullscreenenter"",""0"",""4237""
","
","
","""event"",""trial"",""time""
""fullscreenenter"",""0"",""4237""
","
",12657.749999998487,<img style='border: 4px solid darkgrey;' src='img/tf1_26_M_ss1.jpeg'></img>,2,NA,exp,NA,2,<img src='img/tf1_26_T1_ss1_md.jpeg'></img>,0,FALSE,NA,sub4
NA,html-keyboard-response,65,277506,0.0-10.0-0.26,"""event"",""trial"",""time""
""fullscreenenter"",""0"",""4237""
","
","
","""event"",""trial"",""time""
""fullscreenenter"",""0"",""4237""
","
",null,"<div style=""font-size:60px;"">+</div>",NA,null,fixation,2020-06-11T17:47:22Z,NA,NA,NA,NA,NA,sub4
NA,mars-trial,66,306525,0.0-10.0-1.26,"""event"",""trial"",""time""
""fullscreenenter"",""0"",""4237""
","
","
","""event"",""trial"",""time""
""fullscreenenter"",""0"",""4237""
","
",28413.660000000207,<img style='border: 4px solid darkgrey;' src='img/tf1_27_M_ss2.jpeg'></img>,2,NA,exp,NA,1,<img src='img/tf1_27_T1_ss2_md.jpeg'></img>,0,FALSE,NA,sub4
NA,html-keyboard-response,67,307025,0.0-10.0-0.27,"""event"",""trial"",""time""
""fullscreenenter"",""0"",""4237""
","
","
","""event"",""trial"",""time""
""fullscreenenter"",""0"",""4237""
","
",null,"<div style=""font-size:60px;"">+</div>",NA,null,fixation,2020-06-11T17:47:52Z,NA,NA,NA,NA,NA,sub4
NA,mars-trial,68,309297,0.0-10.0-1.27,"""event"",""trial"",""time""
""fullscreenenter"",""0"",""4237""
","
","
","""event"",""trial"",""time""
""fullscreenenter"",""0"",""4237""
","
",1668.0700000015204,<img style='border: 4px solid darkgrey;' src='img/tf1_28_M_ss3.jpeg'></img>,3,NA,exp,NA,1,<img src='img/tf1_28_T1_ss3_md.jpeg'></img>,0,FALSE,NA,sub4
NA,html-keyboard-response,69,309799,0.0-10.0-0.28,"""event"",""trial"",""time""
""fullscreenenter"",""0"",""4237""
","
","
","""event"",""trial"",""time""
""fullscreenenter"",""0"",""4237""
","
",null,"<div style=""font-size:60px;"">+</div>",NA,null,fixation,2020-06-11T17:47:55Z,NA,NA,NA,NA,NA,sub4
NA,mars-trial,70,313085,0.0-10.0-1.28,"""event"",""trial"",""time""
""fullscreenenter"",""0"",""4237""
","
","
","""event"",""trial"",""time""
""fullscreenenter"",""0"",""4237""
","
",2682.7900000007357,<img style='border: 4px solid darkgrey;' src='img/tf1_29_M_ss1.jpeg'></img>,1,NA,exp,NA,2,<img src='img/tf1_29_T1_ss1_md.jpeg'></img>,0,FALSE,NA,sub4
NA,html-keyboard-response,71,313587,0.0-10.0-0.29,"""event"",""trial"",""time""
""fullscreenenter"",""0"",""4237""
","
","
","""event"",""trial"",""time""
""fullscreenenter"",""0"",""4237""
","
",null,"<div style=""font-size:60px;"">+</div>",NA,null,fixation,2020-06-11T17:47:59Z,NA,NA,NA,NA,NA,sub4
NA,mars-trial,72,317854,0.0-10.0-1.29,"""event"",""trial"",""time""
""fullscreenenter"",""0"",""4237""
","
","
","""event"",""trial"",""time""
""fullscreenenter"",""0"",""4237""
","
",3661.89999999915,<img style='border: 4px solid darkgrey;' src='img/tf1_30_M_ss2.jpeg'></img>,3,NA,exp,NA,1,<img src='img/tf1_30_T1_ss2_md.jpeg'></img>,0,FALSE,NA,sub4
NA,html-keyboard-response,73,318355,0.0-10.0-0.30,"""event"",""trial"",""time""
""fullscreenenter"",""0"",""4237""
","
","
","""event"",""trial"",""time""
""fullscreenenter"",""0"",""4237""
","
",null,"<div style=""font-size:60px;"">+</div>",NA,null,fixation,2020-06-11T17:48:03Z,NA,NA,NA,NA,NA,sub4
NA,mars-trial,74,326099,0.0-10.0-1.30,"""event"",""trial"",""time""
""fullscreenenter"",""0"",""4237""
","
","
","""event"",""trial"",""time""
""fullscreenenter"",""0"",""4237""
","
",7139.945000000822,<img style='border: 4px solid darkgrey;' src='img/tf1_31_M_ss3.jpeg'></img>,3,NA,exp,NA,2,<img src='img/tf1_31_T1_ss3_md.jpeg'></img>,0,FALSE,NA,sub4
NA,html-keyboard-response,75,326600,0.0-10.0-0.31,"""event"",""trial"",""time""
""fullscreenenter"",""0"",""4237""
","
","
","""event"",""trial"",""time""
""fullscreenenter"",""0"",""4237""
","
",null,"<div style=""font-size:60px;"">+</div>",NA,null,fixation,2020-06-11T17:48:12Z,NA,NA,NA,NA,NA,sub4
NA,mars-trial,76,335646,0.0-10.0-1.31,"""event"",""trial"",""time""
""fullscreenenter"",""0"",""4237""
","
","
","""event"",""trial"",""time""
""fullscreenenter"",""0"",""4237""
","
",8440.975000001315,<img style='border: 4px solid darkgrey;' src='img/tf1_32_M_ss1.jpeg'></img>,3,NA,exp,NA,0,<img src='img/tf1_32_T1_ss1_md.jpeg'></img>,0,TRUE,NA,sub4
NA,html-keyboard-response,77,336147,0.0-10.0-0.32,"""event"",""trial"",""time""
""fullscreenenter"",""0"",""4237""
","
","
","""event"",""trial"",""time""
""fullscreenenter"",""0"",""4237""
","
",null,"<div style=""font-size:60px;"">+</div>",NA,null,fixation,2020-06-11T17:48:21Z,NA,NA,NA,NA,NA,sub4
NA,mars-trial,78,346372,0.0-10.0-1.32,"""event"",""trial"",""time""
""fullscreenenter"",""0"",""4237""
","
","
","""event"",""trial"",""time""
""fullscreenenter"",""0"",""4237""
","
",9622.099999998696,<img style='border: 4px solid darkgrey;' src='img/tf1_33_M_ss2.jpeg'></img>,0,NA,exp,NA,2,<img src='img/tf1_33_T1_ss2_md.jpeg'></img>,0,FALSE,NA,sub4
NA,html-keyboard-response,79,346873,0.0-10.0-0.33,"""event"",""trial"",""time""
""fullscreenenter"",""0"",""4237""
","
","
","""event"",""trial"",""time""
""fullscreenenter"",""0"",""4237""
","
",null,"<div style=""font-size:60px;"">+</div>",NA,null,fixation,2020-06-11T17:48:32Z,NA,NA,NA,NA,NA,sub4
NA,mars-trial,80,358267,0.0-10.0-1.33,"""event"",""trial"",""time""
""fullscreenenter"",""0"",""4237""
","
","
","""event"",""trial"",""time""
""fullscreenenter"",""0"",""4237""
","
",10790.640000001062,<img style='border: 4px solid darkgrey;' src='img/tf1_34_M_ss3.jpeg'></img>,3,NA,exp,NA,2,<img src='img/tf1_34_T1_ss3_md.jpeg'></img>,0,FALSE,NA,sub4
NA,html-keyboard-response,81,358768,0.0-10.0-0.34,"""event"",""trial"",""time""
""fullscreenenter"",""0"",""4237""
","
","
","""event"",""trial"",""time""
""fullscreenenter"",""0"",""4237""
","
",null,"<div style=""font-size:60px;"">+</div>",NA,null,fixation,2020-06-11T17:48:44Z,NA,NA,NA,NA,NA,sub4
NA,mars-trial,82,362280,0.0-10.0-1.34,"""event"",""trial"",""time""
""fullscreenenter"",""0"",""4237""
","
","
","""event"",""trial"",""time""
""fullscreenenter"",""0"",""4237""
","
",2908.854999999632,<img style='border: 4px solid darkgrey;' src='img/tf1_35_M_ss1.jpeg'></img>,3,NA,exp,NA,0,<img src='img/tf1_35_T1_ss1_md.jpeg'></img>,0,TRUE,NA,sub4
NA,html-keyboard-response,83,362782,0.0-10.0-0.35,"""event"",""trial"",""time""
""fullscreenenter"",""0"",""4237""
","
","
","""event"",""trial"",""time""
""fullscreenenter"",""0"",""4237""
","
",null,"<div style=""font-size:60px;"">+</div>",NA,null,fixation,2020-06-11T17:48:48Z,NA,NA,NA,NA,NA,sub4
NA,mars-trial,84,370716,0.0-10.0-1.35,"""event"",""trial"",""time""
""fullscreenenter"",""0"",""4237""
","
","
","""event"",""trial"",""time""
""fullscreenenter"",""0"",""4237""
","
",7330.7500000009895,<img style='border: 4px solid darkgrey;' src='img/tf1_36_M_ss2.jpeg'></img>,3,NA,exp,NA,2,<img src='img/tf1_36_T1_ss2_md.jpeg'></img>,0,FALSE,NA,sub4
NA,html-keyboard-response,85,371219,0.0-10.0-0.36,"""event"",""trial"",""time""
""fullscreenenter"",""0"",""4237""
","
","
","""event"",""trial"",""time""
""fullscreenenter"",""0"",""4237""
","
",null,"<div style=""font-size:60px;"">+</div>",NA,null,fixation,2020-06-11T17:48:56Z,NA,NA,NA,NA,NA,sub4
NA,mars-trial,86,395476,0.0-10.0-1.36,"""event"",""trial"",""time""
""fullscreenenter"",""0"",""4237""
","
","
","""event"",""trial"",""time""
""fullscreenenter"",""0"",""4237""
","
",23651.90000000078,<img style='border: 4px solid darkgrey;' src='img/tf1_37_M_ss3.jpeg'></img>,2,NA,exp,NA,2,<img src='img/tf1_37_T1_ss3_md.jpeg'></img>,0,FALSE,NA,sub4
NA,html-keyboard-response,87,395978,0.0-10.0-0.37,"""event"",""trial"",""time""
""fullscreenenter"",""0"",""4237""
","
","
","""event"",""trial"",""time""
""fullscreenenter"",""0"",""4237""
","
",null,"<div style=""font-size:60px;"">+</div>",NA,null,fixation,2020-06-11T17:49:21Z,NA,NA,NA,NA,NA,sub4
NA,mars-trial,88,401359,0.0-10.0-1.37,"""event"",""trial"",""time""
""fullscreenenter"",""0"",""4237""
","
","
","""event"",""trial"",""time""
""fullscreenenter"",""0"",""4237""
","
",4776.659999999567,<img style='border: 4px solid darkgrey;' src='img/tf1_38_M_ss1.jpeg'></img>,3,NA,exp,NA,0,<img src='img/tf1_38_T1_ss1_md.jpeg'></img>,0,TRUE,NA,sub4
NA,html-keyboard-response,89,401861,0.0-10.0-0.38,"""event"",""trial"",""time""
""fullscreenenter"",""0"",""4237""
","
","
","""event"",""trial"",""time""
""fullscreenenter"",""0"",""4237""
","
",null,"<div style=""font-size:60px;"">+</div>",NA,null,fixation,2020-06-11T17:49:27Z,NA,NA,NA,NA,NA,sub4
NA,mars-trial,90,413009,0.0-10.0-1.38,"""event"",""trial"",""time""
""fullscreenenter"",""0"",""4237""
","
","
","""event"",""trial"",""time""
""fullscreenenter"",""0"",""4237""
","
",10544.425000000047,<img style='border: 4px solid darkgrey;' src='img/tf1_39_M_ss2.jpeg'></img>,2,NA,exp,NA,0,<img src='img/tf1_39_T1_ss2_md.jpeg'></img>,0,TRUE,NA,sub4
NA,html-keyboard-response,91,413510,0.0-10.0-0.39,"""event"",""trial"",""time""
""fullscreenenter"",""0"",""4237""
","
","
","""event"",""trial"",""time""
""fullscreenenter"",""0"",""4237""
","
",null,"<div style=""font-size:60px;"">+</div>",NA,null,fixation,2020-06-11T17:49:38Z,NA,NA,NA,NA,NA,sub4
NA,mars-trial,92,421122,0.0-10.0-1.39,"""event"",""trial"",""time""
""fullscreenenter"",""0"",""4237""
","
","
","""event"",""trial"",""time""
""fullscreenenter"",""0"",""4237""
","
",7007.470000000496,<img style='border: 4px solid darkgrey;' src='img/tf1_40_M_ss3.jpeg'></img>,3,NA,exp,NA,3,<img src='img/tf1_40_T1_ss3_md.jpeg'></img>,0,FALSE,NA,sub4
NA,html-keyboard-response,93,421624,0.0-10.0-0.40,"""event"",""trial"",""time""
""fullscreenenter"",""0"",""4237""
","
","
","""event"",""trial"",""time""
""fullscreenenter"",""0"",""4237""
","
",null,"<div style=""font-size:60px;"">+</div>",NA,null,fixation,2020-06-11T17:49:47Z,NA,NA,NA,NA,NA,sub4
NA,mars-trial,94,422807,0.0-10.0-1.40,"""event"",""trial"",""time""
""fullscreenenter"",""0"",""4237""
","
","
","""event"",""trial"",""time""
""fullscreenenter"",""0"",""4237""
","
",579.4450000012293,<img style='border: 4px solid darkgrey;' src='img/tf1_41_M_ss1.jpeg'></img>,2,NA,exp,NA,3,<img src='img/tf1_41_T1_ss1_md.jpeg'></img>,0,FALSE,NA,sub4
NA,html-keyboard-response,95,423307,0.0-10.0-0.41,"""event"",""trial"",""time""
""fullscreenenter"",""0"",""4237""
","
","
","""event"",""trial"",""time""
""fullscreenenter"",""0"",""4237""
","
",null,"<div style=""font-size:60px;"">+</div>",NA,null,fixation,2020-06-11T17:49:48Z,NA,NA,NA,NA,NA,sub4
NA,mars-trial,96,428624,0.0-10.0-1.41,"""event"",""trial"",""time""
""fullscreenenter"",""0"",""4237""
","
","
","""event"",""trial"",""time""
""fullscreenenter"",""0"",""4237""
","
",4712.224999999278,<img style='border: 4px solid darkgrey;' src='img/tf1_42_M_ss2.jpeg'></img>,2,NA,exp,NA,1,<img src='img/tf1_42_T1_ss2_md.jpeg'></img>,0,FALSE,NA,sub4
NA,html-keyboard-response,97,429125,0.0-10.0-0.42,"""event"",""trial"",""time""
""fullscreenenter"",""0"",""4237""
","
","
","""event"",""trial"",""time""
""fullscreenenter"",""0"",""4237""
","
",null,"<div style=""font-size:60px;"">+</div>",NA,null,fixation,2020-06-11T17:49:54Z,NA,NA,NA,NA,NA,sub4
NA,mars-trial,98,459401,0.0-10.0-1.42,"""event"",""trial"",""time""
""fullscreenenter"",""0"",""4237""
","
","
","""event"",""trial"",""time""
""fullscreenenter"",""0"",""4237""
","
",29672.375000000116,<img style='border: 4px solid darkgrey;' src='img/tf1_43_M_ss3.jpeg'></img>,2,NA,exp,NA,0,<img src='img/tf1_43_T1_ss3_md.jpeg'></img>,0,TRUE,NA,sub4
NA,html-keyboard-response,99,459903,0.0-10.0-0.43,"""event"",""trial"",""time""
""fullscreenenter"",""0"",""4237""
","
","
","""event"",""trial"",""time""
""fullscreenenter"",""0"",""4237""
","
",null,"<div style=""font-size:60px;"">+</div>",NA,null,fixation,2020-06-11T17:50:25Z,NA,NA,NA,NA,NA,sub4
NA,mars-trial,100,463914,0.0-10.0-1.43,"""event"",""trial"",""time""
""fullscreenenter"",""0"",""4237""
","
","
","""event"",""trial"",""time""
""fullscreenenter"",""0"",""4237""
","
",3408.0950000007288,<img style='border: 4px solid darkgrey;' src='img/tf1_44_M_ss1.jpeg'></img>,1,NA,exp,NA,2,<img src='img/tf1_44_T1_ss1_md.jpeg'></img>,0,FALSE,NA,sub4
NA,html-keyboard-response,101,464415,0.0-10.0-0.44,"""event"",""trial"",""time""
""fullscreenenter"",""0"",""4237""
","
","
","""event"",""trial"",""time""
""fullscreenenter"",""0"",""4237""
","
",null,"<div style=""font-size:60px;"">+</div>",NA,null,fixation,2020-06-11T17:50:29Z,NA,NA,NA,NA,NA,sub4
NA,mars-trial,102,476857,0.0-10.0-1.44,"""event"",""trial"",""time""
""fullscreenenter"",""0"",""4237""
","
","
","""event"",""trial"",""time""
""fullscreenenter"",""0"",""4237""
","
",11838.299999999464,<img style='border: 4px solid darkgrey;' src='img/tf1_45_M_ss2.jpeg'></img>,2,NA,exp,NA,3,<img src='img/tf1_45_T1_ss2_md.jpeg'></img>,0,FALSE,NA,sub4
NA,html-keyboard-response,103,477359,0.0-10.0-0.45,"""event"",""trial"",""time""
""fullscreenenter"",""0"",""4237""
","
","
","""event"",""trial"",""time""
""fullscreenenter"",""0"",""4237""
","
",null,"<div style=""font-size:60px;"">+</div>",NA,null,fixation,2020-06-11T17:50:42Z,NA,NA,NA,NA,NA,sub4
NA,mars-trial,104,507462,0.0-10.0-1.45,"""event"",""trial"",""time""
""fullscreenenter"",""0"",""4237""
","
","
","""event"",""trial"",""time""
""fullscreenenter"",""0"",""4237""
","
",null,<img style='border: 4px solid darkgrey;' src='img/tf1_46_M_ss3.jpeg'></img>,null,NA,exp,NA,null,<img src='img/tf1_46_T1_ss3_md.jpeg'></img>,0,FALSE,NA,sub4
NA,html-keyboard-response,105,507963,0.0-10.0-0.46,"""event"",""trial"",""time""
""fullscreenenter"",""0"",""4237""
","
","
","""event"",""trial"",""time""
""fullscreenenter"",""0"",""4237""
","
",null,"<div style=""font-size:60px;"">+</div>",NA,null,fixation,2020-06-11T17:51:13Z,NA,NA,NA,NA,NA,sub4
NA,mars-trial,106,533427,0.0-10.0-1.46,"""event"",""trial"",""time""
""fullscreenenter"",""0"",""4237""
","
","
","""event"",""trial"",""time""
""fullscreenenter"",""0"",""4237""
","
",24859.405000001076,<img style='border: 4px solid darkgrey;' src='img/tf1_47_M_ss1.jpeg'></img>,1,NA,exp,NA,3,<img src='img/tf1_47_T1_ss1_md.jpeg'></img>,0,FALSE,NA,sub4
NA,html-keyboard-response,107,533929,0.0-10.0-0.47,"""event"",""trial"",""time""
""fullscreenenter"",""0"",""4237""
","
","
","""event"",""trial"",""time""
""fullscreenenter"",""0"",""4237""
","
",null,"<div style=""font-size:60px;"">+</div>",NA,null,fixation,2020-06-11T17:51:39Z,NA,NA,NA,NA,NA,sub4
NA,mars-trial,108,540028,0.0-10.0-1.47,"""event"",""trial"",""time""
""fullscreenenter"",""0"",""4237""
","
","
","""event"",""trial"",""time""
""fullscreenenter"",""0"",""4237""
","
",5496.680000000168,<img style='border: 4px solid darkgrey;' src='img/tf1_48_M_ss2.jpeg'></img>,3,NA,exp,NA,0,<img src='img/tf1_48_T1_ss2_md.jpeg'></img>,0,TRUE,NA,sub4
NA,html-keyboard-response,109,540531,0.0-10.0-0.48,"""event"",""trial"",""time""
""fullscreenenter"",""0"",""4237""
","
","
","""event"",""trial"",""time""
""fullscreenenter"",""0"",""4237""
","
",null,"<div style=""font-size:60px;"">+</div>",NA,null,fixation,2020-06-11T17:51:45Z,NA,NA,NA,NA,NA,sub4
NA,mars-trial,110,541192,0.0-10.0-1.48,"""event"",""trial"",""time""
""fullscreenenter"",""0"",""4237""
","
","
","""event"",""trial"",""time""
""fullscreenenter"",""0"",""4237""
","
",NA,NA,NA,NA,exp,NA,NA,<img src='img/tf1_49_T1_ss3_md.jpeg'></img>,0,FALSE,NA,sub4
NA,html-keyboard-response,111,541693,0.0-10.0-0.49,"""event"",""trial"",""time""
""fullscreenenter"",""0"",""4237""
","
","
","""event"",""trial"",""time""
""fullscreenenter"",""0"",""4237""
","
",null,"<div style=""font-size:60px;"">+</div>",NA,null,fixation,2020-06-11T17:51:47Z,NA,NA,NA,NA,NA,sub4
NA,audio-button-response,112,545992,0.0-11.0,"""event"",""trial"",""time""
""fullscreenenter"",""0"",""4237""
","
","
","""event"",""trial"",""time""
""fullscreenenter"",""0"",""4237""
","
",4198.199999998906,audio/mars_instructions_slide5.wav,0,NA,NA,NA,NA,NA,NA,NA,NA,sub4
