success,trial_type,trial_index,time_elapsed,internal_node_id,interactions,blur_events,focus_events,fullscreenenter_events,fullscreenexit_events,rt,stimulus,button_pressed,key_press,part,timestamp,unshuffled_button,correct_response,correct_button,correct,value,subject_id
TRUE,fullscreen,0,19992,0.0-0.0,"""event"",""trial"",""time""
""fullscreenenter"",""0"",""19019""
","
","
","""event"",""trial"",""time""
""fullscreenenter"",""0"",""19019""
","
",NA,NA,NA,NA,NA,NA,NA,NA,NA,NA,NA,sub89
NA,pavlovia,1,20004,0.0-1.0,"""event"",""trial"",""time""
""fullscreenenter"",""0"",""19019""
","
","
","""event"",""trial"",""time""
""fullscreenenter"",""0"",""19019""
","
",NA,NA,NA,NA,NA,NA,NA,NA,NA,NA,NA,sub89
NA,html-button-response,2,22669,0.0-2.0,"""event"",""trial"",""time""
""fullscreenenter"",""0"",""19019""
","
","
","""event"",""trial"",""time""
""fullscreenenter"",""0"",""19019""
","
",2662.1949998661876,<p>Welcome! Press START to begin.</p><br>,0,NA,NA,NA,NA,NA,NA,NA,NA,sub89
NA,audio-button-response,3,57045,0.0-3.0,"""event"",""trial"",""time""
""fullscreenenter"",""0"",""19019""
","
","
","""event"",""trial"",""time""
""fullscreenenter"",""0"",""19019""
","
",34371.51000020094,audio/mars_instructions_slide2.wav,0,NA,NA,NA,NA,NA,NA,NA,NA,sub89
NA,audio-button-response,4,73282,0.0-4.0,"""event"",""trial"",""time""
""fullscreenenter"",""0"",""19019""
","
","
","""event"",""trial"",""time""
""fullscreenenter"",""0"",""19019""
","
",16233.29500015825,audio/mars_instructions_slide3.wav,0,NA,NA,NA,NA,NA,NA,NA,NA,sub89
NA,html-keyboard-response,5,73787,0.0-5.0-0.0,"""event"",""trial"",""time""
""fullscreenenter"",""0"",""19019""
","
","
","""event"",""trial"",""time""
""fullscreenenter"",""0"",""19019""
","
",null,"<div style=""font-size:60px;"">+</div>",NA,null,fixation,2020-06-16T19:18:40Z,NA,NA,NA,NA,NA,sub89
NA,mars-trial,6,78477,0.0-5.0-1.0,"""event"",""trial"",""time""
""fullscreenenter"",""0"",""19019""
","
","
","""event"",""trial"",""time""
""fullscreenenter"",""0"",""19019""
","
",2578.339999774471,<img style='border: 4px solid darkgrey;' src='practice/pt1_M1.png'></img>,2,NA,practice,NA,3,<img src='practice/pt1_T1.png'></img>,0,FALSE,NA,sub89
NA,html-keyboard-response,7,78984,0.0-5.1-0.1,"""event"",""trial"",""time""
""fullscreenenter"",""0"",""19019""
","
","
","""event"",""trial"",""time""
""fullscreenenter"",""0"",""19019""
","
",null,"<div style=""font-size:60px;"">+</div>",NA,null,fixation,2020-06-16T19:18:45Z,NA,NA,NA,NA,NA,sub89
NA,mars-trial,8,88040,0.0-5.1-1.1,"""event"",""trial"",""time""
""fullscreenenter"",""0"",""19019""
","
","
","""event"",""trial"",""time""
""fullscreenenter"",""0"",""19019""
","
",6948.189999908209,<img style='border: 4px solid darkgrey;' src='practice/pt1_M1.png'></img>,2,NA,practice,NA,2,<img src='practice/pt1_T1.png'></img>,0,FALSE,NA,sub89
NA,html-keyboard-response,9,88543,0.0-5.2-0.2,"""event"",""trial"",""time""
""fullscreenenter"",""0"",""19019""
","
","
","""event"",""trial"",""time""
""fullscreenenter"",""0"",""19019""
","
",null,"<div style=""font-size:60px;"">+</div>",NA,null,fixation,2020-06-16T19:18:55Z,NA,NA,NA,NA,NA,sub89
NA,mars-trial,10,95508,0.0-5.2-1.2,"""event"",""trial"",""time""
""fullscreenenter"",""0"",""19019""
","
","
","""event"",""trial"",""time""
""fullscreenenter"",""0"",""19019""
","
",4854.765000054613,<img style='border: 4px solid darkgrey;' src='practice/pt1_M1.png'></img>,0,NA,practice,NA,0,<img src='practice/pt1_T1.png'></img>,0,TRUE,NA,sub89
NA,html-keyboard-response,11,96011,0.0-6.0-0.0,"""event"",""trial"",""time""
""fullscreenenter"",""0"",""19019""
","
","
","""event"",""trial"",""time""
""fullscreenenter"",""0"",""19019""
","
",null,"<div style=""font-size:60px;"">+</div>",NA,null,fixation,2020-06-16T19:19:02Z,NA,NA,NA,NA,NA,sub89
NA,mars-trial,12,103667,0.0-6.0-1.0,"""event"",""trial"",""time""
""fullscreenenter"",""0"",""19019""
","
","
","""event"",""trial"",""time""
""fullscreenenter"",""0"",""19019""
","
",5545.104999793693,<img style='border: 4px solid darkgrey;' src='practice/pt2_M1.png'></img>,0,NA,practice,NA,0,<img src='practice/pt2_T1.png'></img>,0,TRUE,NA,sub89
NA,html-keyboard-response,13,104171,0.0-7.0-0.0,"""event"",""trial"",""time""
""fullscreenenter"",""0"",""19019""
","
","
","""event"",""trial"",""time""
""fullscreenenter"",""0"",""19019""
","
",null,"<div style=""font-size:60px;"">+</div>",NA,null,fixation,2020-06-16T19:19:10Z,NA,NA,NA,NA,NA,sub89
NA,mars-trial,14,109162,0.0-7.0-1.0,"""event"",""trial"",""time""
""fullscreenenter"",""0"",""19019""
","
","
","""event"",""trial"",""time""
""fullscreenenter"",""0"",""19019""
","
",2880.915000103414,<img style='border: 4px solid darkgrey;' src='practice/pt3_M1.png'></img>,2,NA,practice,NA,0,<img src='practice/pt3_T1.png'></img>,0,TRUE,NA,sub89
NA,audio-button-response,15,111385,0.0-8.0,"""event"",""trial"",""time""
""fullscreenenter"",""0"",""19019""
","
","
","""event"",""trial"",""time""
""fullscreenenter"",""0"",""19019""
","
",2219.7699998505414,audio/mars_instructions_slide4.wav,0,NA,NA,NA,NA,NA,NA,NA,NA,sub89
NA,call-function,16,111387,0.0-9.0,"""event"",""trial"",""time""
""fullscreenenter"",""0"",""19019""
","
","
","""event"",""trial"",""time""
""fullscreenenter"",""0"",""19019""
","
",NA,NA,NA,NA,NA,NA,NA,NA,NA,NA,NA,sub89
NA,html-keyboard-response,17,111890,0.0-10.0-0.0,"""event"",""trial"",""time""
""fullscreenenter"",""0"",""19019""
","
","
","""event"",""trial"",""time""
""fullscreenenter"",""0"",""19019""
","
",null,"<div style=""font-size:60px;"">+</div>",NA,null,fixation,2020-06-16T19:19:18Z,NA,NA,NA,NA,NA,sub89
NA,mars-trial,18,115710,0.0-10.0-1.0,"""event"",""trial"",""time""
""fullscreenenter"",""0"",""19019""
","
","
","""event"",""trial"",""time""
""fullscreenenter"",""0"",""19019""
","
",3210.569999879226,<img style='border: 4px solid darkgrey;' src='img/tf1_1_M_ss3.jpeg'></img>,2,NA,exp,NA,0,<img src='img/tf1_1_T1_ss3_md.jpeg'></img>,0,TRUE,NA,sub89
NA,html-keyboard-response,19,116214,0.0-10.0-0.1,"""event"",""trial"",""time""
""fullscreenenter"",""0"",""19019""
","
","
","""event"",""trial"",""time""
""fullscreenenter"",""0"",""19019""
","
",null,"<div style=""font-size:60px;"">+</div>",NA,null,fixation,2020-06-16T19:19:22Z,NA,NA,NA,NA,NA,sub89
NA,mars-trial,20,119407,0.0-10.0-1.1,"""event"",""trial"",""time""
""fullscreenenter"",""0"",""19019""
","
","
","""event"",""trial"",""time""
""fullscreenenter"",""0"",""19019""
","
",2583.349999971688,<img style='border: 4px solid darkgrey;' src='img/tf1_2_M_ss1.jpeg'></img>,3,NA,exp,NA,0,<img src='img/tf1_2_T1_ss1_md.jpeg'></img>,0,TRUE,NA,sub89
NA,html-keyboard-response,21,119910,0.0-10.0-0.2,"""event"",""trial"",""time""
""fullscreenenter"",""0"",""19019""
","
","
","""event"",""trial"",""time""
""fullscreenenter"",""0"",""19019""
","
",null,"<div style=""font-size:60px;"">+</div>",NA,null,fixation,2020-06-16T19:19:26Z,NA,NA,NA,NA,NA,sub89
NA,mars-trial,22,126285,0.0-10.0-1.2,"""event"",""trial"",""time""
""fullscreenenter"",""0"",""19019""
","
","
","""event"",""trial"",""time""
""fullscreenenter"",""0"",""19019""
","
",5765.034999931231,<img style='border: 4px solid darkgrey;' src='img/tf1_3_M_ss2.jpeg'></img>,0,NA,exp,NA,2,<img src='img/tf1_3_T1_ss2_md.jpeg'></img>,0,FALSE,NA,sub89
NA,html-keyboard-response,23,126787,0.0-10.0-0.3,"""event"",""trial"",""time""
""fullscreenenter"",""0"",""19019""
","
","
","""event"",""trial"",""time""
""fullscreenenter"",""0"",""19019""
","
",null,"<div style=""font-size:60px;"">+</div>",NA,null,fixation,2020-06-16T19:19:33Z,NA,NA,NA,NA,NA,sub89
NA,mars-trial,24,131497,0.0-10.0-1.3,"""event"",""trial"",""time""
""fullscreenenter"",""0"",""19019""
","
","
","""event"",""trial"",""time""
""fullscreenenter"",""0"",""19019""
","
",4099.849999882281,<img style='border: 4px solid darkgrey;' src='img/tf1_4_M_ss3.jpeg'></img>,1,NA,exp,NA,0,<img src='img/tf1_4_T1_ss3_md.jpeg'></img>,0,TRUE,NA,sub89
NA,html-keyboard-response,25,132000,0.0-10.0-0.4,"""event"",""trial"",""time""
""fullscreenenter"",""0"",""19019""
","
","
","""event"",""trial"",""time""
""fullscreenenter"",""0"",""19019""
","
",null,"<div style=""font-size:60px;"">+</div>",NA,null,fixation,2020-06-16T19:19:38Z,NA,NA,NA,NA,NA,sub89
NA,mars-trial,26,135835,0.0-10.0-1.4,"""event"",""trial"",""time""
""fullscreenenter"",""0"",""19019""
","
","
","""event"",""trial"",""time""
""fullscreenenter"",""0"",""19019""
","
",3220.644999993965,<img style='border: 4px solid darkgrey;' src='img/tf1_5_M_ss1.jpeg'></img>,3,NA,exp,NA,0,<img src='img/tf1_5_T1_ss1_md.jpeg'></img>,0,TRUE,NA,sub89
NA,html-keyboard-response,27,136338,0.0-10.0-0.5,"""event"",""trial"",""time""
""fullscreenenter"",""0"",""19019""
","
","
","""event"",""trial"",""time""
""fullscreenenter"",""0"",""19019""
","
",null,"<div style=""font-size:60px;"">+</div>",NA,null,fixation,2020-06-16T19:19:42Z,NA,NA,NA,NA,NA,sub89
NA,mars-trial,28,142317,0.0-10.0-1.5,"""event"",""trial"",""time""
""fullscreenenter"",""0"",""19019""
","
","
","""event"",""trial"",""time""
""fullscreenenter"",""0"",""19019""
","
",5369.759999914095,<img style='border: 4px solid darkgrey;' src='img/tf1_6_M_ss2.jpeg'></img>,1,NA,exp,NA,1,<img src='img/tf1_6_T1_ss2_md.jpeg'></img>,0,FALSE,NA,sub89
NA,html-keyboard-response,29,142821,0.0-10.0-0.6,"""event"",""trial"",""time""
""fullscreenenter"",""0"",""19019""
","
","
","""event"",""trial"",""time""
""fullscreenenter"",""0"",""19019""
","
",null,"<div style=""font-size:60px;"">+</div>",NA,null,fixation,2020-06-16T19:19:49Z,NA,NA,NA,NA,NA,sub89
NA,mars-trial,30,149785,0.0-10.0-1.6,"""event"",""trial"",""time""
""fullscreenenter"",""0"",""19019""
","
","
","""event"",""trial"",""time""
""fullscreenenter"",""0"",""19019""
","
",6354.3799999170005,<img style='border: 4px solid darkgrey;' src='img/tf1_7_M_ss3.jpeg'></img>,3,NA,exp,NA,0,<img src='img/tf1_7_T1_ss3_md.jpeg'></img>,0,TRUE,NA,sub89
NA,html-keyboard-response,31,150289,0.0-10.0-0.7,"""event"",""trial"",""time""
""fullscreenenter"",""0"",""19019""
","
","
","""event"",""trial"",""time""
""fullscreenenter"",""0"",""19019""
","
",null,"<div style=""font-size:60px;"">+</div>",NA,null,fixation,2020-06-16T19:19:56Z,NA,NA,NA,NA,NA,sub89
NA,mars-trial,32,153989,0.0-10.0-1.7,"""event"",""trial"",""time""
""fullscreenenter"",""0"",""19019""
","
","
","""event"",""trial"",""time""
""fullscreenenter"",""0"",""19019""
","
",3090.1450000237674,<img style='border: 4px solid darkgrey;' src='img/tf1_8_M_ss1.jpeg'></img>,1,NA,exp,NA,2,<img src='img/tf1_8_T1_ss1_md.jpeg'></img>,0,FALSE,NA,sub89
NA,html-keyboard-response,33,154492,0.0-10.0-0.8,"""event"",""trial"",""time""
""fullscreenenter"",""0"",""19019""
","
","
","""event"",""trial"",""time""
""fullscreenenter"",""0"",""19019""
","
",null,"<div style=""font-size:60px;"">+</div>",NA,null,fixation,2020-06-16T19:20:00Z,NA,NA,NA,NA,NA,sub89
NA,mars-trial,34,158350,0.0-10.0-1.8,"""event"",""trial"",""time""
""fullscreenenter"",""0"",""19019""
","
","
","""event"",""trial"",""time""
""fullscreenenter"",""0"",""19019""
","
",3249.9949999619275,<img style='border: 4px solid darkgrey;' src='img/tf1_9_M_ss2.jpeg'></img>,1,NA,exp,NA,1,<img src='img/tf1_9_T1_ss2_md.jpeg'></img>,0,FALSE,NA,sub89
NA,html-keyboard-response,35,158854,0.0-10.0-0.9,"""event"",""trial"",""time""
""fullscreenenter"",""0"",""19019""
","
","
","""event"",""trial"",""time""
""fullscreenenter"",""0"",""19019""
","
",null,"<div style=""font-size:60px;"">+</div>",NA,null,fixation,2020-06-16T19:20:05Z,NA,NA,NA,NA,NA,sub89
NA,mars-trial,36,165645,0.0-10.0-1.9,"""event"",""trial"",""time""
""fullscreenenter"",""0"",""19019""
","
","
","""event"",""trial"",""time""
""fullscreenenter"",""0"",""19019""
","
",6181.679999921471,<img style='border: 4px solid darkgrey;' src='img/tf1_10_M_ss3.jpeg'></img>,0,NA,exp,NA,3,<img src='img/tf1_10_T1_ss3_md.jpeg'></img>,0,FALSE,NA,sub89
NA,html-keyboard-response,37,166150,0.0-10.0-0.10,"""event"",""trial"",""time""
""fullscreenenter"",""0"",""19019""
","
","
","""event"",""trial"",""time""
""fullscreenenter"",""0"",""19019""
","
",null,"<div style=""font-size:60px;"">+</div>",NA,null,fixation,2020-06-16T19:20:12Z,NA,NA,NA,NA,NA,sub89
NA,mars-trial,38,174308,0.0-10.0-1.10,"""event"",""trial"",""time""
""fullscreenenter"",""0"",""19019""
","
","
","""event"",""trial"",""time""
""fullscreenenter"",""0"",""19019""
","
",7548.670000163838,<img style='border: 4px solid darkgrey;' src='img/tf1_11_M_ss1.jpeg'></img>,1,NA,exp,NA,3,<img src='img/tf1_11_T1_ss1_md.jpeg'></img>,0,FALSE,NA,sub89
NA,html-keyboard-response,39,174811,0.0-10.0-0.11,"""event"",""trial"",""time""
""fullscreenenter"",""0"",""19019""
","
","
","""event"",""trial"",""time""
""fullscreenenter"",""0"",""19019""
","
",null,"<div style=""font-size:60px;"">+</div>",NA,null,fixation,2020-06-16T19:20:21Z,NA,NA,NA,NA,NA,sub89
NA,mars-trial,40,196085,0.0-10.0-1.11,"""event"",""trial"",""time""
""fullscreenenter"",""0"",""19019""
","
","
","""event"",""trial"",""time""
""fullscreenenter"",""0"",""19019""
","
",20664.134999969974,<img style='border: 4px solid darkgrey;' src='img/tf1_12_M_ss2.jpeg'></img>,3,NA,exp,NA,1,<img src='img/tf1_12_T1_ss2_md.jpeg'></img>,0,FALSE,NA,sub89
NA,html-keyboard-response,41,196588,0.0-10.0-0.12,"""event"",""trial"",""time""
""fullscreenenter"",""0"",""19019""
","
","
","""event"",""trial"",""time""
""fullscreenenter"",""0"",""19019""
","
",null,"<div style=""font-size:60px;"">+</div>",NA,null,fixation,2020-06-16T19:20:43Z,NA,NA,NA,NA,NA,sub89
NA,mars-trial,42,204995,0.0-10.0-1.12,"""event"",""trial"",""time""
""fullscreenenter"",""0"",""19019""
","
","
","""event"",""trial"",""time""
""fullscreenenter"",""0"",""19019""
","
",7800.139999948442,<img style='border: 4px solid darkgrey;' src='img/tf1_13_M_ss3.jpeg'></img>,0,NA,exp,NA,2,<img src='img/tf1_13_T1_ss3_md.jpeg'></img>,0,FALSE,NA,sub89
NA,html-keyboard-response,43,205499,0.0-10.0-0.13,"""event"",""trial"",""time""
""fullscreenenter"",""0"",""19019""
","
","
","""event"",""trial"",""time""
""fullscreenenter"",""0"",""19019""
","
",null,"<div style=""font-size:60px;"">+</div>",NA,null,fixation,2020-06-16T19:20:51Z,NA,NA,NA,NA,NA,sub89
NA,mars-trial,44,218171,0.0-10.0-1.13,"""event"",""trial"",""time""
""fullscreenenter"",""0"",""19019""
","
","
","""event"",""trial"",""time""
""fullscreenenter"",""0"",""19019""
","
",12059.415000025183,<img style='border: 4px solid darkgrey;' src='img/tf1_14_M_ss1.jpeg'></img>,0,NA,exp,NA,1,<img src='img/tf1_14_T1_ss1_md.jpeg'></img>,0,FALSE,NA,sub89
NA,html-keyboard-response,45,218674,0.0-10.0-0.14,"""event"",""trial"",""time""
""fullscreenenter"",""0"",""19019""
","
","
","""event"",""trial"",""time""
""fullscreenenter"",""0"",""19019""
","
",null,"<div style=""font-size:60px;"">+</div>",NA,null,fixation,2020-06-16T19:21:05Z,NA,NA,NA,NA,NA,sub89
NA,mars-trial,46,224998,0.0-10.0-1.14,"""event"",""trial"",""time""
""fullscreenenter"",""0"",""19019""
","
","
","""event"",""trial"",""time""
""fullscreenenter"",""0"",""19019""
","
",5715.089999837801,<img style='border: 4px solid darkgrey;' src='img/tf1_15_M_ss2.jpeg'></img>,1,NA,exp,NA,3,<img src='img/tf1_15_T1_ss2_md.jpeg'></img>,0,FALSE,NA,sub89
NA,html-keyboard-response,47,225501,0.0-10.0-0.15,"""event"",""trial"",""time""
""fullscreenenter"",""0"",""19019""
","
","
","""event"",""trial"",""time""
""fullscreenenter"",""0"",""19019""
","
",null,"<div style=""font-size:60px;"">+</div>",NA,null,fixation,2020-06-16T19:21:11Z,NA,NA,NA,NA,NA,sub89
NA,mars-trial,48,233035,0.0-10.0-1.15,"""event"",""trial"",""time""
""fullscreenenter"",""0"",""19019""
","
","
","""event"",""trial"",""time""
""fullscreenenter"",""0"",""19019""
","
",6923.685000045225,<img style='border: 4px solid darkgrey;' src='img/tf1_16_M_ss3.jpeg'></img>,3,NA,exp,NA,3,<img src='img/tf1_16_T1_ss3_md.jpeg'></img>,0,FALSE,NA,sub89
NA,html-keyboard-response,49,233539,0.0-10.0-0.16,"""event"",""trial"",""time""
""fullscreenenter"",""0"",""19019""
","
","
","""event"",""trial"",""time""
""fullscreenenter"",""0"",""19019""
","
",null,"<div style=""font-size:60px;"">+</div>",NA,null,fixation,2020-06-16T19:21:20Z,NA,NA,NA,NA,NA,sub89
NA,mars-trial,50,240146,0.0-10.0-1.16,"""event"",""trial"",""time""
""fullscreenenter"",""0"",""19019""
","
","
","""event"",""trial"",""time""
""fullscreenenter"",""0"",""19019""
","
",5998.109999811277,<img style='border: 4px solid darkgrey;' src='img/tf1_17_M_ss1.jpeg'></img>,2,NA,exp,NA,0,<img src='img/tf1_17_T1_ss1_md.jpeg'></img>,0,TRUE,NA,sub89
NA,html-keyboard-response,51,240650,0.0-10.0-0.17,"""event"",""trial"",""time""
""fullscreenenter"",""0"",""19019""
","
","
","""event"",""trial"",""time""
""fullscreenenter"",""0"",""19019""
","
",null,"<div style=""font-size:60px;"">+</div>",NA,null,fixation,2020-06-16T19:21:27Z,NA,NA,NA,NA,NA,sub89
NA,mars-trial,52,250016,0.0-10.0-1.17,"""event"",""trial"",""time""
""fullscreenenter"",""0"",""19019""
","
","
","""event"",""trial"",""time""
""fullscreenenter"",""0"",""19019""
","
",8758.864999981597,<img style='border: 4px solid darkgrey;' src='img/tf1_18_M_ss2.jpeg'></img>,2,NA,exp,NA,1,<img src='img/tf1_18_T1_ss2_md.jpeg'></img>,0,FALSE,NA,sub89
NA,html-keyboard-response,53,250520,0.0-10.0-0.18,"""event"",""trial"",""time""
""fullscreenenter"",""0"",""19019""
","
","
","""event"",""trial"",""time""
""fullscreenenter"",""0"",""19019""
","
",null,"<div style=""font-size:60px;"">+</div>",NA,null,fixation,2020-06-16T19:21:37Z,NA,NA,NA,NA,NA,sub89
NA,mars-trial,54,253086,0.0-10.0-1.18,"""event"",""trial"",""time""
""fullscreenenter"",""0"",""19019""
","
","
","""event"",""trial"",""time""
""fullscreenenter"",""0"",""19019""
","
",1957.1500001475215,<img style='border: 4px solid darkgrey;' src='img/tf1_19_M_ss3.jpeg'></img>,2,NA,exp,NA,3,<img src='img/tf1_19_T1_ss3_md.jpeg'></img>,0,FALSE,NA,sub89
NA,html-keyboard-response,55,253589,0.0-10.0-0.19,"""event"",""trial"",""time""
""fullscreenenter"",""0"",""19019""
","
","
","""event"",""trial"",""time""
""fullscreenenter"",""0"",""19019""
","
",null,"<div style=""font-size:60px;"">+</div>",NA,null,fixation,2020-06-16T19:21:40Z,NA,NA,NA,NA,NA,sub89
NA,mars-trial,56,258002,0.0-10.0-1.19,"""event"",""trial"",""time""
""fullscreenenter"",""0"",""19019""
","
","
","""event"",""trial"",""time""
""fullscreenenter"",""0"",""19019""
","
",3806.0500000137836,<img style='border: 4px solid darkgrey;' src='img/tf1_20_M_ss1.jpeg'></img>,2,NA,exp,NA,1,<img src='img/tf1_20_T1_ss1_md.jpeg'></img>,0,FALSE,NA,sub89
NA,html-keyboard-response,57,258507,0.0-10.0-0.20,"""event"",""trial"",""time""
""fullscreenenter"",""0"",""19019""
","
","
","""event"",""trial"",""time""
""fullscreenenter"",""0"",""19019""
","
",null,"<div style=""font-size:60px;"">+</div>",NA,null,fixation,2020-06-16T19:21:44Z,NA,NA,NA,NA,NA,sub89
NA,mars-trial,58,276210,0.0-10.0-1.20,"""event"",""trial"",""time""
""fullscreenenter"",""0"",""19019""
","
","
","""event"",""trial"",""time""
""fullscreenenter"",""0"",""19019""
","
",17093.910000054166,<img style='border: 4px solid darkgrey;' src='img/tf1_21_M_ss2.jpeg'></img>,2,NA,exp,NA,3,<img src='img/tf1_21_T1_ss2_md.jpeg'></img>,0,FALSE,NA,sub89
NA,html-keyboard-response,59,276713,0.0-10.0-0.21,"""event"",""trial"",""time""
""fullscreenenter"",""0"",""19019""
","
","
","""event"",""trial"",""time""
""fullscreenenter"",""0"",""19019""
","
",null,"<div style=""font-size:60px;"">+</div>",NA,null,fixation,2020-06-16T19:22:03Z,NA,NA,NA,NA,NA,sub89
NA,mars-trial,60,287303,0.0-10.0-1.21,"""event"",""trial"",""time""
""fullscreenenter"",""0"",""19019""
","
","
","""event"",""trial"",""time""
""fullscreenenter"",""0"",""19019""
","
",9981.574999867007,<img style='border: 4px solid darkgrey;' src='img/tf1_22_M_ss3.jpeg'></img>,1,NA,exp,NA,0,<img src='img/tf1_22_T1_ss3_md.jpeg'></img>,0,TRUE,NA,sub89
NA,html-keyboard-response,61,287806,0.0-10.0-0.22,"""event"",""trial"",""time""
""fullscreenenter"",""0"",""19019""
","
","
","""event"",""trial"",""time""
""fullscreenenter"",""0"",""19019""
","
",null,"<div style=""font-size:60px;"">+</div>",NA,null,fixation,2020-06-16T19:22:14Z,NA,NA,NA,NA,NA,sub89
NA,mars-trial,62,290691,0.0-10.0-1.22,"""event"",""trial"",""time""
""fullscreenenter"",""0"",""19019""
","
","
","""event"",""trial"",""time""
""fullscreenenter"",""0"",""19019""
","
",2272.425000090152,<img style='border: 4px solid darkgrey;' src='img/tf1_23_M_ss1.jpeg'></img>,1,NA,exp,NA,0,<img src='img/tf1_23_T1_ss1_md.jpeg'></img>,0,TRUE,NA,sub89
NA,html-keyboard-response,63,291193,0.0-10.0-0.23,"""event"",""trial"",""time""
""fullscreenenter"",""0"",""19019""
","
","
","""event"",""trial"",""time""
""fullscreenenter"",""0"",""19019""
","
",null,"<div style=""font-size:60px;"">+</div>",NA,null,fixation,2020-06-16T19:22:17Z,NA,NA,NA,NA,NA,sub89
NA,mars-trial,64,292405,0.0-10.0-1.23,"""event"",""trial"",""time""
""fullscreenenter"",""0"",""19019""
","
","
","""event"",""trial"",""time""
""fullscreenenter"",""0"",""19019""
","
",603.8649999536574,<img style='border: 4px solid darkgrey;' src='img/tf1_24_M_ss2.jpeg'></img>,1,NA,exp,NA,2,<img src='img/tf1_24_T1_ss2_md.jpeg'></img>,0,FALSE,NA,sub89
NA,html-keyboard-response,65,292908,0.0-10.0-0.24,"""event"",""trial"",""time""
""fullscreenenter"",""0"",""19019""
","
","
","""event"",""trial"",""time""
""fullscreenenter"",""0"",""19019""
","
",null,"<div style=""font-size:60px;"">+</div>",NA,null,fixation,2020-06-16T19:22:19Z,NA,NA,NA,NA,NA,sub89
NA,mars-trial,66,297001,0.0-10.0-1.24,"""event"",""trial"",""time""
""fullscreenenter"",""0"",""19019""
","
","
","""event"",""trial"",""time""
""fullscreenenter"",""0"",""19019""
","
",3486.4899998065084,<img style='border: 4px solid darkgrey;' src='img/tf1_25_M_ss3.jpeg'></img>,2,NA,exp,NA,1,<img src='img/tf1_25_T1_ss3_md.jpeg'></img>,0,FALSE,NA,sub89
NA,html-keyboard-response,67,297505,0.0-10.0-0.25,"""event"",""trial"",""time""
""fullscreenenter"",""0"",""19019""
","
","
","""event"",""trial"",""time""
""fullscreenenter"",""0"",""19019""
","
",null,"<div style=""font-size:60px;"">+</div>",NA,null,fixation,2020-06-16T19:22:23Z,NA,NA,NA,NA,NA,sub89
NA,mars-trial,68,306801,0.0-10.0-1.25,"""event"",""trial"",""time""
""fullscreenenter"",""0"",""19019""
","
","
","""event"",""trial"",""time""
""fullscreenenter"",""0"",""19019""
","
",8686.804999830201,<img style='border: 4px solid darkgrey;' src='img/tf1_26_M_ss1.jpeg'></img>,3,NA,exp,NA,0,<img src='img/tf1_26_T1_ss1_md.jpeg'></img>,0,TRUE,NA,sub89
NA,html-keyboard-response,69,307305,0.0-10.0-0.26,"""event"",""trial"",""time""
""fullscreenenter"",""0"",""19019""
","
","
","""event"",""trial"",""time""
""fullscreenenter"",""0"",""19019""
","
",null,"<div style=""font-size:60px;"">+</div>",NA,null,fixation,2020-06-16T19:22:33Z,NA,NA,NA,NA,NA,sub89
NA,mars-trial,70,314109,0.0-10.0-1.26,"""event"",""trial"",""time""
""fullscreenenter"",""0"",""19019""
","
","
","""event"",""trial"",""time""
""fullscreenenter"",""0"",""19019""
","
",6196.470000082627,<img style='border: 4px solid darkgrey;' src='img/tf1_27_M_ss2.jpeg'></img>,2,NA,exp,NA,1,<img src='img/tf1_27_T1_ss2_md.jpeg'></img>,0,FALSE,NA,sub89
NA,html-keyboard-response,71,314612,0.0-10.0-0.27,"""event"",""trial"",""time""
""fullscreenenter"",""0"",""19019""
","
","
","""event"",""trial"",""time""
""fullscreenenter"",""0"",""19019""
","
",null,"<div style=""font-size:60px;"">+</div>",NA,null,fixation,2020-06-16T19:22:41Z,NA,NA,NA,NA,NA,sub89
NA,mars-trial,72,325635,0.0-10.0-1.27,"""event"",""trial"",""time""
""fullscreenenter"",""0"",""19019""
","
","
","""event"",""trial"",""time""
""fullscreenenter"",""0"",""19019""
","
",10414.520000107586,<img style='border: 4px solid darkgrey;' src='img/tf1_28_M_ss3.jpeg'></img>,1,NA,exp,NA,3,<img src='img/tf1_28_T1_ss3_md.jpeg'></img>,0,FALSE,NA,sub89
NA,html-keyboard-response,73,326138,0.0-10.0-0.28,"""event"",""trial"",""time""
""fullscreenenter"",""0"",""19019""
","
","
","""event"",""trial"",""time""
""fullscreenenter"",""0"",""19019""
","
",null,"<div style=""font-size:60px;"">+</div>",NA,null,fixation,2020-06-16T19:22:52Z,NA,NA,NA,NA,NA,sub89
NA,mars-trial,74,345528,0.0-10.0-1.28,"""event"",""trial"",""time""
""fullscreenenter"",""0"",""19019""
","
","
","""event"",""trial"",""time""
""fullscreenenter"",""0"",""19019""
","
",18781.8650000263,<img style='border: 4px solid darkgrey;' src='img/tf1_29_M_ss1.jpeg'></img>,3,NA,exp,NA,3,<img src='img/tf1_29_T1_ss1_md.jpeg'></img>,0,FALSE,NA,sub89
NA,html-keyboard-response,75,346031,0.0-10.0-0.29,"""event"",""trial"",""time""
""fullscreenenter"",""0"",""19019""
","
","
","""event"",""trial"",""time""
""fullscreenenter"",""0"",""19019""
","
",null,"<div style=""font-size:60px;"">+</div>",NA,null,fixation,2020-06-16T19:23:12Z,NA,NA,NA,NA,NA,sub89
NA,mars-trial,76,354330,0.0-10.0-1.29,"""event"",""trial"",""time""
""fullscreenenter"",""0"",""19019""
","
","
","""event"",""trial"",""time""
""fullscreenenter"",""0"",""19019""
","
",7688.809999963269,<img style='border: 4px solid darkgrey;' src='img/tf1_30_M_ss2.jpeg'></img>,0,NA,exp,NA,1,<img src='img/tf1_30_T1_ss2_md.jpeg'></img>,0,FALSE,NA,sub89
NA,html-keyboard-response,77,354833,0.0-10.0-0.30,"""event"",""trial"",""time""
""fullscreenenter"",""0"",""19019""
","
","
","""event"",""trial"",""time""
""fullscreenenter"",""0"",""19019""
","
",null,"<div style=""font-size:60px;"">+</div>",NA,null,fixation,2020-06-16T19:23:21Z,NA,NA,NA,NA,NA,sub89
NA,mars-trial,78,384345,0.0-10.0-1.30,"""event"",""trial"",""time""
""fullscreenenter"",""0"",""19019""
","
","
","""event"",""trial"",""time""
""fullscreenenter"",""0"",""19019""
","
",28901.915000053123,<img style='border: 4px solid darkgrey;' src='img/tf1_31_M_ss3.jpeg'></img>,2,NA,exp,NA,1,<img src='img/tf1_31_T1_ss3_md.jpeg'></img>,0,FALSE,NA,sub89
NA,html-keyboard-response,79,384848,0.0-10.0-0.31,"""event"",""trial"",""time""
""fullscreenenter"",""0"",""19019""
","
","
","""event"",""trial"",""time""
""fullscreenenter"",""0"",""19019""
","
",null,"<div style=""font-size:60px;"">+</div>",NA,null,fixation,2020-06-16T19:23:51Z,NA,NA,NA,NA,NA,sub89
NA,mars-trial,80,389410,0.0-10.0-1.31,"""event"",""trial"",""time""
""fullscreenenter"",""0"",""19019""
","
","
","""event"",""trial"",""time""
""fullscreenenter"",""0"",""19019""
","
",3952.610000036657,<img style='border: 4px solid darkgrey;' src='img/tf1_32_M_ss1.jpeg'></img>,2,NA,exp,NA,1,<img src='img/tf1_32_T1_ss1_md.jpeg'></img>,0,FALSE,NA,sub89
NA,html-keyboard-response,81,389913,0.0-10.0-0.32,"""event"",""trial"",""time""
""fullscreenenter"",""0"",""19019""
","
","
","""event"",""trial"",""time""
""fullscreenenter"",""0"",""19019""
","
",null,"<div style=""font-size:60px;"">+</div>",NA,null,fixation,2020-06-16T19:23:56Z,NA,NA,NA,NA,NA,sub89
NA,mars-trial,82,392726,0.0-10.0-1.32,"""event"",""trial"",""time""
""fullscreenenter"",""0"",""19019""
","
","
","""event"",""trial"",""time""
""fullscreenenter"",""0"",""19019""
","
",2202.2450000513345,<img style='border: 4px solid darkgrey;' src='img/tf1_33_M_ss2.jpeg'></img>,2,NA,exp,NA,2,<img src='img/tf1_33_T1_ss2_md.jpeg'></img>,0,FALSE,NA,sub89
NA,html-keyboard-response,83,393229,0.0-10.0-0.33,"""event"",""trial"",""time""
""fullscreenenter"",""0"",""19019""
","
","
","""event"",""trial"",""time""
""fullscreenenter"",""0"",""19019""
","
",null,"<div style=""font-size:60px;"">+</div>",NA,null,fixation,2020-06-16T19:23:59Z,NA,NA,NA,NA,NA,sub89
NA,mars-trial,84,399774,0.0-10.0-1.33,"""event"",""trial"",""time""
""fullscreenenter"",""0"",""19019""
","
","
","""event"",""trial"",""time""
""fullscreenenter"",""0"",""19019""
","
",5938.414999982342,<img style='border: 4px solid darkgrey;' src='img/tf1_34_M_ss3.jpeg'></img>,0,NA,exp,NA,3,<img src='img/tf1_34_T1_ss3_md.jpeg'></img>,0,FALSE,NA,sub89
NA,html-keyboard-response,85,400279,0.0-10.0-0.34,"""event"",""trial"",""time""
""fullscreenenter"",""0"",""19019""
","
","
","""event"",""trial"",""time""
""fullscreenenter"",""0"",""19019""
","
",null,"<div style=""font-size:60px;"">+</div>",NA,null,fixation,2020-06-16T19:24:06Z,NA,NA,NA,NA,NA,sub89
NA,mars-trial,86,403485,0.0-10.0-1.34,"""event"",""trial"",""time""
""fullscreenenter"",""0"",""19019""
","
","
","""event"",""trial"",""time""
""fullscreenenter"",""0"",""19019""
","
",2599.225000012666,<img style='border: 4px solid darkgrey;' src='img/tf1_35_M_ss1.jpeg'></img>,0,NA,exp,NA,1,<img src='img/tf1_35_T1_ss1_md.jpeg'></img>,0,FALSE,NA,sub89
NA,html-keyboard-response,87,403989,0.0-10.0-0.35,"""event"",""trial"",""time""
""fullscreenenter"",""0"",""19019""
","
","
","""event"",""trial"",""time""
""fullscreenenter"",""0"",""19019""
","
",null,"<div style=""font-size:60px;"">+</div>",NA,null,fixation,2020-06-16T19:24:10Z,NA,NA,NA,NA,NA,sub89
NA,mars-trial,88,417881,0.0-10.0-1.35,"""event"",""trial"",""time""
""fullscreenenter"",""0"",""19019""
","
","
","""event"",""trial"",""time""
""fullscreenenter"",""0"",""19019""
","
",13283.47499994561,<img style='border: 4px solid darkgrey;' src='img/tf1_36_M_ss2.jpeg'></img>,2,NA,exp,NA,1,<img src='img/tf1_36_T1_ss2_md.jpeg'></img>,0,FALSE,NA,sub89
NA,html-keyboard-response,89,418384,0.0-10.0-0.36,"""event"",""trial"",""time""
""fullscreenenter"",""0"",""19019""
","
","
","""event"",""trial"",""time""
""fullscreenenter"",""0"",""19019""
","
",null,"<div style=""font-size:60px;"">+</div>",NA,null,fixation,2020-06-16T19:24:24Z,NA,NA,NA,NA,NA,sub89
NA,mars-trial,90,430121,0.0-10.0-1.36,"""event"",""trial"",""time""
""fullscreenenter"",""0"",""19019""
","
","
","""event"",""trial"",""time""
""fullscreenenter"",""0"",""19019""
","
",11126.880000112578,<img style='border: 4px solid darkgrey;' src='img/tf1_37_M_ss3.jpeg'></img>,1,NA,exp,NA,3,<img src='img/tf1_37_T1_ss3_md.jpeg'></img>,0,FALSE,NA,sub89
NA,html-keyboard-response,91,430624,0.0-10.0-0.37,"""event"",""trial"",""time""
""fullscreenenter"",""0"",""19019""
","
","
","""event"",""trial"",""time""
""fullscreenenter"",""0"",""19019""
","
",null,"<div style=""font-size:60px;"">+</div>",NA,null,fixation,2020-06-16T19:24:37Z,NA,NA,NA,NA,NA,sub89
NA,mars-trial,92,435791,0.0-10.0-1.37,"""event"",""trial"",""time""
""fullscreenenter"",""0"",""19019""
","
","
","""event"",""trial"",""time""
""fullscreenenter"",""0"",""19019""
","
",4558.325000107288,<img style='border: 4px solid darkgrey;' src='img/tf1_38_M_ss1.jpeg'></img>,1,NA,exp,NA,3,<img src='img/tf1_38_T1_ss1_md.jpeg'></img>,0,FALSE,NA,sub89
NA,html-keyboard-response,93,436294,0.0-10.0-0.38,"""event"",""trial"",""time""
""fullscreenenter"",""0"",""19019""
","
","
","""event"",""trial"",""time""
""fullscreenenter"",""0"",""19019""
","
",null,"<div style=""font-size:60px;"">+</div>",NA,null,fixation,2020-06-16T19:24:42Z,NA,NA,NA,NA,NA,sub89
NA,mars-trial,94,449349,0.0-10.0-1.38,"""event"",""trial"",""time""
""fullscreenenter"",""0"",""19019""
","
","
","""event"",""trial"",""time""
""fullscreenenter"",""0"",""19019""
","
",12446.430000010878,<img style='border: 4px solid darkgrey;' src='img/tf1_39_M_ss2.jpeg'></img>,0,NA,exp,NA,0,<img src='img/tf1_39_T1_ss2_md.jpeg'></img>,0,TRUE,NA,sub89
NA,html-keyboard-response,95,449852,0.0-10.0-0.39,"""event"",""trial"",""time""
""fullscreenenter"",""0"",""19019""
","
","
","""event"",""trial"",""time""
""fullscreenenter"",""0"",""19019""
","
",null,"<div style=""font-size:60px;"">+</div>",NA,null,fixation,2020-06-16T19:24:56Z,NA,NA,NA,NA,NA,sub89
NA,mars-trial,96,461380,0.0-10.0-1.39,"""event"",""trial"",""time""
""fullscreenenter"",""0"",""19019""
","
","
","""event"",""trial"",""time""
""fullscreenenter"",""0"",""19019""
","
",10919.37500005588,<img style='border: 4px solid darkgrey;' src='img/tf1_40_M_ss3.jpeg'></img>,0,NA,exp,NA,3,<img src='img/tf1_40_T1_ss3_md.jpeg'></img>,0,FALSE,NA,sub89
NA,html-keyboard-response,97,461883,0.0-10.0-0.40,"""event"",""trial"",""time""
""fullscreenenter"",""0"",""19019""
","
","
","""event"",""trial"",""time""
""fullscreenenter"",""0"",""19019""
","
",null,"<div style=""font-size:60px;"">+</div>",NA,null,fixation,2020-06-16T19:25:08Z,NA,NA,NA,NA,NA,sub89
NA,mars-trial,98,469405,0.0-10.0-1.40,"""event"",""trial"",""time""
""fullscreenenter"",""0"",""19019""
","
","
","""event"",""trial"",""time""
""fullscreenenter"",""0"",""19019""
","
",6914.690000005066,<img style='border: 4px solid darkgrey;' src='img/tf1_41_M_ss1.jpeg'></img>,1,NA,exp,NA,0,<img src='img/tf1_41_T1_ss1_md.jpeg'></img>,0,TRUE,NA,sub89
NA,html-keyboard-response,99,469908,0.0-10.0-0.41,"""event"",""trial"",""time""
""fullscreenenter"",""0"",""19019""
","
","
","""event"",""trial"",""time""
""fullscreenenter"",""0"",""19019""
","
",null,"<div style=""font-size:60px;"">+</div>",NA,null,fixation,2020-06-16T19:25:16Z,NA,NA,NA,NA,NA,sub89
NA,mars-trial,100,492863,0.0-10.0-1.41,"""event"",""trial"",""time""
""fullscreenenter"",""0"",""19019""
","
","
","""event"",""trial"",""time""
""fullscreenenter"",""0"",""19019""
","
",22346.739999949932,<img style='border: 4px solid darkgrey;' src='img/tf1_42_M_ss2.jpeg'></img>,0,NA,exp,NA,2,<img src='img/tf1_42_T1_ss2_md.jpeg'></img>,0,FALSE,NA,sub89
NA,html-keyboard-response,101,493367,0.0-10.0-0.42,"""event"",""trial"",""time""
""fullscreenenter"",""0"",""19019""
","
","
","""event"",""trial"",""time""
""fullscreenenter"",""0"",""19019""
","
",null,"<div style=""font-size:60px;"">+</div>",NA,null,fixation,2020-06-16T19:25:39Z,NA,NA,NA,NA,NA,sub89
NA,mars-trial,102,496722,0.0-10.0-1.42,"""event"",""trial"",""time""
""fullscreenenter"",""0"",""19019""
","
","
","""event"",""trial"",""time""
""fullscreenenter"",""0"",""19019""
","
",2746.545000001788,<img style='border: 4px solid darkgrey;' src='img/tf1_43_M_ss3.jpeg'></img>,1,NA,exp,NA,3,<img src='img/tf1_43_T1_ss3_md.jpeg'></img>,0,FALSE,NA,sub89
NA,html-keyboard-response,103,497225,0.0-10.0-0.43,"""event"",""trial"",""time""
""fullscreenenter"",""0"",""19019""
","
","
","""event"",""trial"",""time""
""fullscreenenter"",""0"",""19019""
","
",null,"<div style=""font-size:60px;"">+</div>",NA,null,fixation,2020-06-16T19:25:43Z,NA,NA,NA,NA,NA,sub89
NA,mars-trial,104,499977,0.0-10.0-1.43,"""event"",""trial"",""time""
""fullscreenenter"",""0"",""19019""
","
","
","""event"",""trial"",""time""
""fullscreenenter"",""0"",""19019""
","
",2142.8449999075383,<img style='border: 4px solid darkgrey;' src='img/tf1_44_M_ss1.jpeg'></img>,1,NA,exp,NA,1,<img src='img/tf1_44_T1_ss1_md.jpeg'></img>,0,FALSE,NA,sub89
NA,html-keyboard-response,105,500479,0.0-10.0-0.44,"""event"",""trial"",""time""
""fullscreenenter"",""0"",""19019""
","
","
","""event"",""trial"",""time""
""fullscreenenter"",""0"",""19019""
","
",null,"<div style=""font-size:60px;"">+</div>",NA,null,fixation,2020-06-16T19:25:46Z,NA,NA,NA,NA,NA,sub89
NA,mars-trial,106,512160,0.0-10.0-1.44,"""event"",""trial"",""time""
""fullscreenenter"",""0"",""19019""
","
","
","""event"",""trial"",""time""
""fullscreenenter"",""0"",""19019""
","
",11070.619999896735,<img style='border: 4px solid darkgrey;' src='img/tf1_45_M_ss2.jpeg'></img>,1,NA,exp,NA,0,<img src='img/tf1_45_T1_ss2_md.jpeg'></img>,0,TRUE,NA,sub89
NA,html-keyboard-response,107,512663,0.0-10.0-0.45,"""event"",""trial"",""time""
""fullscreenenter"",""0"",""19019""
","
","
","""event"",""trial"",""time""
""fullscreenenter"",""0"",""19019""
","
",null,"<div style=""font-size:60px;"">+</div>",NA,null,fixation,2020-06-16T19:25:59Z,NA,NA,NA,NA,NA,sub89
NA,mars-trial,108,514490,0.0-10.0-1.45,"""event"",""trial"",""time""
""fullscreenenter"",""0"",""19019""
","
","
","""event"",""trial"",""time""
""fullscreenenter"",""0"",""19019""
","
",1218.5600001830608,<img style='border: 4px solid darkgrey;' src='img/tf1_46_M_ss3.jpeg'></img>,1,NA,exp,NA,0,<img src='img/tf1_46_T1_ss3_md.jpeg'></img>,0,TRUE,NA,sub89
NA,html-keyboard-response,109,514992,0.0-10.0-0.46,"""event"",""trial"",""time""
""fullscreenenter"",""0"",""19019""
","
","
","""event"",""trial"",""time""
""fullscreenenter"",""0"",""19019""
","
",null,"<div style=""font-size:60px;"">+</div>",NA,null,fixation,2020-06-16T19:26:01Z,NA,NA,NA,NA,NA,sub89
NA,mars-trial,110,518669,0.0-10.0-1.46,"""event"",""trial"",""time""
""fullscreenenter"",""0"",""19019""
","
","
","""event"",""trial"",""time""
""fullscreenenter"",""0"",""19019""
","
",3069.9299999978393,<img style='border: 4px solid darkgrey;' src='img/tf1_47_M_ss1.jpeg'></img>,1,NA,exp,NA,3,<img src='img/tf1_47_T1_ss1_md.jpeg'></img>,0,FALSE,NA,sub89
NA,html-keyboard-response,111,519171,0.0-10.0-0.47,"""event"",""trial"",""time""
""fullscreenenter"",""0"",""19019""
","
","
","""event"",""trial"",""time""
""fullscreenenter"",""0"",""19019""
","
",null,"<div style=""font-size:60px;"">+</div>",NA,null,fixation,2020-06-16T19:26:05Z,NA,NA,NA,NA,NA,sub89
NA,mars-trial,112,539049,0.0-10.0-1.47,"""event"",""trial"",""time""
""fullscreenenter"",""0"",""19019""
","
","
","""event"",""trial"",""time""
""fullscreenenter"",""0"",""19019""
","
",19266.569999977946,<img style='border: 4px solid darkgrey;' src='img/tf1_48_M_ss2.jpeg'></img>,3,NA,exp,NA,3,<img src='img/tf1_48_T1_ss2_md.jpeg'></img>,0,FALSE,NA,sub89
NA,html-keyboard-response,113,539552,0.0-10.0-0.48,"""event"",""trial"",""time""
""fullscreenenter"",""0"",""19019""
","
","
","""event"",""trial"",""time""
""fullscreenenter"",""0"",""19019""
","
",null,"<div style=""font-size:60px;"">+</div>",NA,null,fixation,2020-06-16T19:26:26Z,NA,NA,NA,NA,NA,sub89
NA,mars-trial,114,549378,0.0-10.0-1.48,"""event"",""trial"",""time""
""fullscreenenter"",""0"",""19019""
","
","
","""event"",""trial"",""time""
""fullscreenenter"",""0"",""19019""
","
",9216.849999967963,<img style='border: 4px solid darkgrey;' src='img/tf1_49_M_ss3.jpeg'></img>,2,NA,exp,NA,0,<img src='img/tf1_49_T1_ss3_md.jpeg'></img>,0,TRUE,NA,sub89
NA,html-keyboard-response,115,549882,0.0-10.0-0.49,"""event"",""trial"",""time""
""fullscreenenter"",""0"",""19019""
","
","
","""event"",""trial"",""time""
""fullscreenenter"",""0"",""19019""
","
",null,"<div style=""font-size:60px;"">+</div>",NA,null,fixation,2020-06-16T19:26:36Z,NA,NA,NA,NA,NA,sub89
NA,mars-trial,116,567466,0.0-10.0-1.49,"""event"",""trial"",""time""
""fullscreenenter"",""0"",""19019""
","
","
","""event"",""trial"",""time""
""fullscreenenter"",""0"",""19019""
","
",16974.089999916032,<img style='border: 4px solid darkgrey;' src='img/tf1_50_M_ss1.jpeg'></img>,1,NA,exp,NA,1,<img src='img/tf1_50_T1_ss1_md.jpeg'></img>,0,FALSE,NA,sub89
NA,html-keyboard-response,117,567969,0.0-10.0-0.50,"""event"",""trial"",""time""
""fullscreenenter"",""0"",""19019""
","
","
","""event"",""trial"",""time""
""fullscreenenter"",""0"",""19019""
","
",null,"<div style=""font-size:60px;"">+</div>",NA,null,fixation,2020-06-16T19:26:54Z,NA,NA,NA,NA,NA,sub89
NA,mars-trial,118,572552,0.0-10.0-1.50,"""event"",""trial"",""time""
""fullscreenenter"",""0"",""19019""
","
","
","""event"",""trial"",""time""
""fullscreenenter"",""0"",""19019""
","
",3975.2449998632073,<img style='border: 4px solid darkgrey;' src='img/tf1_51_M_ss2.jpeg'></img>,2,NA,exp,NA,2,<img src='img/tf1_51_T1_ss2_md.jpeg'></img>,0,FALSE,NA,sub89
NA,html-keyboard-response,119,573056,0.0-10.0-0.51,"""event"",""trial"",""time""
""fullscreenenter"",""0"",""19019""
","
","
","""event"",""trial"",""time""
""fullscreenenter"",""0"",""19019""
","
",null,"<div style=""font-size:60px;"">+</div>",NA,null,fixation,2020-06-16T19:26:59Z,NA,NA,NA,NA,NA,sub89
NA,mars-trial,120,574910,0.0-10.0-1.51,"""event"",""trial"",""time""
""fullscreenenter"",""0"",""19019""
","
","
","""event"",""trial"",""time""
""fullscreenenter"",""0"",""19019""
","
",1243.4900000225753,<img style='border: 4px solid darkgrey;' src='img/tf1_52_M_ss3.jpeg'></img>,1,NA,exp,NA,0,<img src='img/tf1_52_T1_ss3_md.jpeg'></img>,0,TRUE,NA,sub89
NA,html-keyboard-response,121,575414,0.0-10.0-0.52,"""event"",""trial"",""time""
""fullscreenenter"",""0"",""19019""
","
","
","""event"",""trial"",""time""
""fullscreenenter"",""0"",""19019""
","
",null,"<div style=""font-size:60px;"">+</div>",NA,null,fixation,2020-06-16T19:27:01Z,NA,NA,NA,NA,NA,sub89
NA,mars-trial,122,576671,0.0-10.0-1.52,"""event"",""trial"",""time""
""fullscreenenter"",""0"",""19019""
","
","
","""event"",""trial"",""time""
""fullscreenenter"",""0"",""19019""
","
",648.5749999992549,<img style='border: 4px solid darkgrey;' src='img/tf1_53_M_ss1.jpeg'></img>,1,NA,exp,NA,3,<img src='img/tf1_53_T1_ss1_md.jpeg'></img>,0,FALSE,NA,sub89
NA,html-keyboard-response,123,577174,0.0-10.0-0.53,"""event"",""trial"",""time""
""fullscreenenter"",""0"",""19019""
","
","
","""event"",""trial"",""time""
""fullscreenenter"",""0"",""19019""
","
",null,"<div style=""font-size:60px;"">+</div>",NA,null,fixation,2020-06-16T19:27:03Z,NA,NA,NA,NA,NA,sub89
NA,mars-trial,124,578286,0.0-10.0-1.53,"""event"",""trial"",""time""
""fullscreenenter"",""0"",""19019""
","
","
","""event"",""trial"",""time""
""fullscreenenter"",""0"",""19019""
","
",503.5850000567734,<img style='border: 4px solid darkgrey;' src='img/tf1_54_M_ss2.jpeg'></img>,1,NA,exp,NA,2,<img src='img/tf1_54_T1_ss2_md.jpeg'></img>,0,FALSE,NA,sub89
NA,html-keyboard-response,125,578789,0.0-10.0-0.54,"""event"",""trial"",""time""
""fullscreenenter"",""0"",""19019""
","
","
","""event"",""trial"",""time""
""fullscreenenter"",""0"",""19019""
","
",null,"<div style=""font-size:60px;"">+</div>",NA,null,fixation,2020-06-16T19:27:05Z,NA,NA,NA,NA,NA,sub89
NA,mars-trial,126,591388,0.0-10.0-1.54,"""event"",""trial"",""time""
""fullscreenenter"",""0"",""19019""
","
","
","""event"",""trial"",""time""
""fullscreenenter"",""0"",""19019""
","
",NA,NA,NA,NA,exp,NA,NA,<img src='img/tf1_55_T1_ss3_md.jpeg'></img>,0,FALSE,NA,sub89
NA,html-keyboard-response,127,591892,0.0-10.0-0.55,"""event"",""trial"",""time""
""fullscreenenter"",""0"",""19019""
","
","
","""event"",""trial"",""time""
""fullscreenenter"",""0"",""19019""
","
",null,"<div style=""font-size:60px;"">+</div>",NA,null,fixation,2020-06-16T19:27:18Z,NA,NA,NA,NA,NA,sub89
NA,audio-button-response,128,597209,0.0-11.0,"""event"",""trial"",""time""
""fullscreenenter"",""0"",""19019""
","
","
","""event"",""trial"",""time""
""fullscreenenter"",""0"",""19019""
","
",5212.6499998848885,audio/mars_instructions_slide5.wav,0,NA,NA,NA,NA,NA,NA,NA,NA,sub89
