success,trial_type,trial_index,time_elapsed,internal_node_id,interactions,blur_events,focus_events,fullscreenenter_events,fullscreenexit_events,rt,stimulus,button_pressed,key_press,part,timestamp,unshuffled_button,correct_response,correct_button,correct,value,subject_id
TRUE,fullscreen,0,3960,0.0-0.0,"""event"",""trial"",""time""
""fullscreenenter"",""0"",""2975""
","
","
","""event"",""trial"",""time""
""fullscreenenter"",""0"",""2975""
","
",NA,NA,NA,NA,NA,NA,NA,NA,NA,NA,NA,sub121
NA,pavlovia,1,3964,0.0-1.0,"""event"",""trial"",""time""
""fullscreenenter"",""0"",""2975""
","
","
","""event"",""trial"",""time""
""fullscreenenter"",""0"",""2975""
","
",NA,NA,NA,NA,NA,NA,NA,NA,NA,NA,NA,sub121
NA,html-button-response,2,5183,0.0-2.0,"""event"",""trial"",""time""
""fullscreenenter"",""0"",""2975""
""blur"",""3"",""7906""
""focus"",""3"",""10673""
","""event"",""trial"",""time""
""blur"",""3"",""7906""
","""event"",""trial"",""time""
""focus"",""3"",""10673""
","""event"",""trial"",""time""
""fullscreenenter"",""0"",""2975""
","
",1213.2800000254065,<p>Welcome! Press START to begin.</p><br>,0,NA,NA,NA,NA,NA,NA,NA,NA,sub121
NA,audio-button-response,3,12214,0.0-3.0,"""event"",""trial"",""time""
""fullscreenenter"",""0"",""2975""
""blur"",""3"",""7906""
""focus"",""3"",""10673""
","""event"",""trial"",""time""
""blur"",""3"",""7906""
","""event"",""trial"",""time""
""focus"",""3"",""10673""
","""event"",""trial"",""time""
""fullscreenenter"",""0"",""2975""
","
",7026.974999927916,audio/mars_instructions_slide2.wav,0,NA,NA,NA,NA,NA,NA,NA,NA,sub121
NA,audio-button-response,4,17386,0.0-4.0,"""event"",""trial"",""time""
""fullscreenenter"",""0"",""2975""
""blur"",""3"",""7906""
""focus"",""3"",""10673""
","""event"",""trial"",""time""
""blur"",""3"",""7906""
","""event"",""trial"",""time""
""focus"",""3"",""10673""
","""event"",""trial"",""time""
""fullscreenenter"",""0"",""2975""
","
",5169.905000017025,audio/mars_instructions_slide3.wav,0,NA,NA,NA,NA,NA,NA,NA,NA,sub121
NA,html-keyboard-response,5,17890,0.0-5.0-0.0,"""event"",""trial"",""time""
""fullscreenenter"",""0"",""2975""
""blur"",""3"",""7906""
""focus"",""3"",""10673""
","""event"",""trial"",""time""
""blur"",""3"",""7906""
","""event"",""trial"",""time""
""focus"",""3"",""10673""
","""event"",""trial"",""time""
""fullscreenenter"",""0"",""2975""
","
",null,"<div style=""font-size:60px;"">+</div>",NA,null,fixation,2020-06-21T23:41:27Z,NA,NA,NA,NA,NA,sub121
NA,mars-trial,6,23923,0.0-5.0-1.0,"""event"",""trial"",""time""
""fullscreenenter"",""0"",""2975""
""blur"",""3"",""7906""
""focus"",""3"",""10673""
","""event"",""trial"",""time""
""blur"",""3"",""7906""
","""event"",""trial"",""time""
""focus"",""3"",""10673""
","""event"",""trial"",""time""
""fullscreenenter"",""0"",""2975""
","
",3926.4449999900535,<img style='border: 4px solid darkgrey;' src='practice/pt1_M1.png'></img>,2,NA,practice,NA,0,<img src='practice/pt1_T1.png'></img>,0,TRUE,NA,sub121
NA,html-keyboard-response,7,24426,0.0-6.0-0.0,"""event"",""trial"",""time""
""fullscreenenter"",""0"",""2975""
""blur"",""3"",""7906""
""focus"",""3"",""10673""
","""event"",""trial"",""time""
""blur"",""3"",""7906""
","""event"",""trial"",""time""
""focus"",""3"",""10673""
","""event"",""trial"",""time""
""fullscreenenter"",""0"",""2975""
","
",null,"<div style=""font-size:60px;"">+</div>",NA,null,fixation,2020-06-21T23:41:34Z,NA,NA,NA,NA,NA,sub121
NA,mars-trial,8,28356,0.0-6.0-1.0,"""event"",""trial"",""time""
""fullscreenenter"",""0"",""2975""
""blur"",""3"",""7906""
""focus"",""3"",""10673""
","""event"",""trial"",""time""
""blur"",""3"",""7906""
","""event"",""trial"",""time""
""focus"",""3"",""10673""
","""event"",""trial"",""time""
""fullscreenenter"",""0"",""2975""
","
",1823.7199999857694,<img style='border: 4px solid darkgrey;' src='practice/pt2_M1.png'></img>,3,NA,practice,NA,0,<img src='practice/pt2_T1.png'></img>,0,TRUE,NA,sub121
NA,html-keyboard-response,9,28858,0.0-7.0-0.0,"""event"",""trial"",""time""
""fullscreenenter"",""0"",""2975""
""blur"",""3"",""7906""
""focus"",""3"",""10673""
""blur"",""10"",""31776""
","""event"",""trial"",""time""
""blur"",""3"",""7906""
""blur"",""10"",""31776""
","""event"",""trial"",""time""
""focus"",""3"",""10673""
","""event"",""trial"",""time""
""fullscreenenter"",""0"",""2975""
","
",null,"<div style=""font-size:60px;"">+</div>",NA,null,fixation,2020-06-21T23:41:38Z,NA,NA,NA,NA,NA,sub121
NA,mars-trial,10,31991,0.0-7.0-1.0,"""event"",""trial"",""time""
""fullscreenenter"",""0"",""2975""
""blur"",""3"",""7906""
""focus"",""3"",""10673""
""blur"",""10"",""31776""
""focus"",""11"",""38832""
","""event"",""trial"",""time""
""blur"",""3"",""7906""
""blur"",""10"",""31776""
","""event"",""trial"",""time""
""focus"",""3"",""10673""
""focus"",""11"",""38832""
","""event"",""trial"",""time""
""fullscreenenter"",""0"",""2975""
","
",1027.3049999959767,<img style='border: 4px solid darkgrey;' src='practice/pt3_M1.png'></img>,3,NA,practice,NA,0,<img src='practice/pt3_T1.png'></img>,0,TRUE,NA,sub121
NA,audio-button-response,11,38883,0.0-8.0,"""event"",""trial"",""time""
""fullscreenenter"",""0"",""2975""
""blur"",""3"",""7906""
""focus"",""3"",""10673""
""blur"",""10"",""31776""
""focus"",""11"",""38832""
","""event"",""trial"",""time""
""blur"",""3"",""7906""
""blur"",""10"",""31776""
","""event"",""trial"",""time""
""focus"",""3"",""10673""
""focus"",""11"",""38832""
","""event"",""trial"",""time""
""fullscreenenter"",""0"",""2975""
","
",6888.970000087284,audio/mars_instructions_slide4.wav,0,NA,NA,NA,NA,NA,NA,NA,NA,sub121
NA,call-function,12,38886,0.0-9.0,"""event"",""trial"",""time""
""fullscreenenter"",""0"",""2975""
""blur"",""3"",""7906""
""focus"",""3"",""10673""
""blur"",""10"",""31776""
""focus"",""11"",""38832""
","""event"",""trial"",""time""
""blur"",""3"",""7906""
""blur"",""10"",""31776""
","""event"",""trial"",""time""
""focus"",""3"",""10673""
""focus"",""11"",""38832""
","""event"",""trial"",""time""
""fullscreenenter"",""0"",""2975""
","
",NA,NA,NA,NA,NA,NA,NA,NA,NA,NA,NA,sub121
NA,html-keyboard-response,13,39388,0.0-10.0-0.0,"""event"",""trial"",""time""
""fullscreenenter"",""0"",""2975""
""blur"",""3"",""7906""
""focus"",""3"",""10673""
""blur"",""10"",""31776""
""focus"",""11"",""38832""
","""event"",""trial"",""time""
""blur"",""3"",""7906""
""blur"",""10"",""31776""
","""event"",""trial"",""time""
""focus"",""3"",""10673""
""focus"",""11"",""38832""
","""event"",""trial"",""time""
""fullscreenenter"",""0"",""2975""
","
",null,"<div style=""font-size:60px;"">+</div>",NA,null,fixation,2020-06-21T23:41:49Z,NA,NA,NA,NA,NA,sub121
NA,mars-trial,14,41477,0.0-10.0-1.0,"""event"",""trial"",""time""
""fullscreenenter"",""0"",""2975""
""blur"",""3"",""7906""
""focus"",""3"",""10673""
""blur"",""10"",""31776""
""focus"",""11"",""38832""
","""event"",""trial"",""time""
""blur"",""3"",""7906""
""blur"",""10"",""31776""
","""event"",""trial"",""time""
""focus"",""3"",""10673""
""focus"",""11"",""38832""
","""event"",""trial"",""time""
""fullscreenenter"",""0"",""2975""
","
",1479.4850000180304,<img style='border: 4px solid darkgrey;' src='img/tf1_1_M_ss3.jpeg'></img>,3,NA,exp,NA,0,<img src='img/tf1_1_T1_ss3_md.jpeg'></img>,0,TRUE,NA,sub121
NA,html-keyboard-response,15,41979,0.0-10.0-0.1,"""event"",""trial"",""time""
""fullscreenenter"",""0"",""2975""
""blur"",""3"",""7906""
""focus"",""3"",""10673""
""blur"",""10"",""31776""
""focus"",""11"",""38832""
","""event"",""trial"",""time""
""blur"",""3"",""7906""
""blur"",""10"",""31776""
","""event"",""trial"",""time""
""focus"",""3"",""10673""
""focus"",""11"",""38832""
","""event"",""trial"",""time""
""fullscreenenter"",""0"",""2975""
","
",null,"<div style=""font-size:60px;"">+</div>",NA,null,fixation,2020-06-21T23:41:51Z,NA,NA,NA,NA,NA,sub121
NA,mars-trial,16,44591,0.0-10.0-1.1,"""event"",""trial"",""time""
""fullscreenenter"",""0"",""2975""
""blur"",""3"",""7906""
""focus"",""3"",""10673""
""blur"",""10"",""31776""
""focus"",""11"",""38832""
","""event"",""trial"",""time""
""blur"",""3"",""7906""
""blur"",""10"",""31776""
","""event"",""trial"",""time""
""focus"",""3"",""10673""
""focus"",""11"",""38832""
","""event"",""trial"",""time""
""fullscreenenter"",""0"",""2975""
","
",2004.6650000149384,<img style='border: 4px solid darkgrey;' src='img/tf1_2_M_ss1.jpeg'></img>,0,NA,exp,NA,0,<img src='img/tf1_2_T1_ss1_md.jpeg'></img>,0,TRUE,NA,sub121
NA,html-keyboard-response,17,45094,0.0-10.0-0.2,"""event"",""trial"",""time""
""fullscreenenter"",""0"",""2975""
""blur"",""3"",""7906""
""focus"",""3"",""10673""
""blur"",""10"",""31776""
""focus"",""11"",""38832""
","""event"",""trial"",""time""
""blur"",""3"",""7906""
""blur"",""10"",""31776""
","""event"",""trial"",""time""
""focus"",""3"",""10673""
""focus"",""11"",""38832""
","""event"",""trial"",""time""
""fullscreenenter"",""0"",""2975""
","
",null,"<div style=""font-size:60px;"">+</div>",NA,null,fixation,2020-06-21T23:41:55Z,NA,NA,NA,NA,NA,sub121
NA,mars-trial,18,47709,0.0-10.0-1.2,"""event"",""trial"",""time""
""fullscreenenter"",""0"",""2975""
""blur"",""3"",""7906""
""focus"",""3"",""10673""
""blur"",""10"",""31776""
""focus"",""11"",""38832""
","""event"",""trial"",""time""
""blur"",""3"",""7906""
""blur"",""10"",""31776""
","""event"",""trial"",""time""
""focus"",""3"",""10673""
""focus"",""11"",""38832""
","""event"",""trial"",""time""
""fullscreenenter"",""0"",""2975""
","
",2008.3350000204518,<img style='border: 4px solid darkgrey;' src='img/tf1_3_M_ss2.jpeg'></img>,2,NA,exp,NA,0,<img src='img/tf1_3_T1_ss2_md.jpeg'></img>,0,TRUE,NA,sub121
NA,html-keyboard-response,19,48212,0.0-10.0-0.3,"""event"",""trial"",""time""
""fullscreenenter"",""0"",""2975""
""blur"",""3"",""7906""
""focus"",""3"",""10673""
""blur"",""10"",""31776""
""focus"",""11"",""38832""
","""event"",""trial"",""time""
""blur"",""3"",""7906""
""blur"",""10"",""31776""
","""event"",""trial"",""time""
""focus"",""3"",""10673""
""focus"",""11"",""38832""
","""event"",""trial"",""time""
""fullscreenenter"",""0"",""2975""
","
",null,"<div style=""font-size:60px;"">+</div>",NA,null,fixation,2020-06-21T23:41:58Z,NA,NA,NA,NA,NA,sub121
NA,mars-trial,20,51158,0.0-10.0-1.3,"""event"",""trial"",""time""
""fullscreenenter"",""0"",""2975""
""blur"",""3"",""7906""
""focus"",""3"",""10673""
""blur"",""10"",""31776""
""focus"",""11"",""38832""
","""event"",""trial"",""time""
""blur"",""3"",""7906""
""blur"",""10"",""31776""
","""event"",""trial"",""time""
""focus"",""3"",""10673""
""focus"",""11"",""38832""
","""event"",""trial"",""time""
""fullscreenenter"",""0"",""2975""
","
",2339.479999965988,<img style='border: 4px solid darkgrey;' src='img/tf1_4_M_ss3.jpeg'></img>,3,NA,exp,NA,0,<img src='img/tf1_4_T1_ss3_md.jpeg'></img>,0,TRUE,NA,sub121
NA,html-keyboard-response,21,51661,0.0-10.0-0.4,"""event"",""trial"",""time""
""fullscreenenter"",""0"",""2975""
""blur"",""3"",""7906""
""focus"",""3"",""10673""
""blur"",""10"",""31776""
""focus"",""11"",""38832""
","""event"",""trial"",""time""
""blur"",""3"",""7906""
""blur"",""10"",""31776""
","""event"",""trial"",""time""
""focus"",""3"",""10673""
""focus"",""11"",""38832""
","""event"",""trial"",""time""
""fullscreenenter"",""0"",""2975""
","
",null,"<div style=""font-size:60px;"">+</div>",NA,null,fixation,2020-06-21T23:42:01Z,NA,NA,NA,NA,NA,sub121
NA,mars-trial,22,53925,0.0-10.0-1.4,"""event"",""trial"",""time""
""fullscreenenter"",""0"",""2975""
""blur"",""3"",""7906""
""focus"",""3"",""10673""
""blur"",""10"",""31776""
""focus"",""11"",""38832""
","""event"",""trial"",""time""
""blur"",""3"",""7906""
""blur"",""10"",""31776""
","""event"",""trial"",""time""
""focus"",""3"",""10673""
""focus"",""11"",""38832""
","""event"",""trial"",""time""
""fullscreenenter"",""0"",""2975""
","
",1658.4900000598282,<img style='border: 4px solid darkgrey;' src='img/tf1_5_M_ss1.jpeg'></img>,1,NA,exp,NA,0,<img src='img/tf1_5_T1_ss1_md.jpeg'></img>,0,TRUE,NA,sub121
NA,html-keyboard-response,23,54428,0.0-10.0-0.5,"""event"",""trial"",""time""
""fullscreenenter"",""0"",""2975""
""blur"",""3"",""7906""
""focus"",""3"",""10673""
""blur"",""10"",""31776""
""focus"",""11"",""38832""
","""event"",""trial"",""time""
""blur"",""3"",""7906""
""blur"",""10"",""31776""
","""event"",""trial"",""time""
""focus"",""3"",""10673""
""focus"",""11"",""38832""
","""event"",""trial"",""time""
""fullscreenenter"",""0"",""2975""
","
",null,"<div style=""font-size:60px;"">+</div>",NA,null,fixation,2020-06-21T23:42:04Z,NA,NA,NA,NA,NA,sub121
NA,mars-trial,24,60394,0.0-10.0-1.5,"""event"",""trial"",""time""
""fullscreenenter"",""0"",""2975""
""blur"",""3"",""7906""
""focus"",""3"",""10673""
""blur"",""10"",""31776""
""focus"",""11"",""38832""
","""event"",""trial"",""time""
""blur"",""3"",""7906""
""blur"",""10"",""31776""
","""event"",""trial"",""time""
""focus"",""3"",""10673""
""focus"",""11"",""38832""
","""event"",""trial"",""time""
""fullscreenenter"",""0"",""2975""
","
",5358.170000021346,<img style='border: 4px solid darkgrey;' src='img/tf1_6_M_ss2.jpeg'></img>,2,NA,exp,NA,0,<img src='img/tf1_6_T1_ss2_md.jpeg'></img>,0,TRUE,NA,sub121
NA,html-keyboard-response,25,60899,0.0-10.0-0.6,"""event"",""trial"",""time""
""fullscreenenter"",""0"",""2975""
""blur"",""3"",""7906""
""focus"",""3"",""10673""
""blur"",""10"",""31776""
""focus"",""11"",""38832""
","""event"",""trial"",""time""
""blur"",""3"",""7906""
""blur"",""10"",""31776""
","""event"",""trial"",""time""
""focus"",""3"",""10673""
""focus"",""11"",""38832""
","""event"",""trial"",""time""
""fullscreenenter"",""0"",""2975""
","
",null,"<div style=""font-size:60px;"">+</div>",NA,null,fixation,2020-06-21T23:42:10Z,NA,NA,NA,NA,NA,sub121
NA,mars-trial,26,66075,0.0-10.0-1.6,"""event"",""trial"",""time""
""fullscreenenter"",""0"",""2975""
""blur"",""3"",""7906""
""focus"",""3"",""10673""
""blur"",""10"",""31776""
""focus"",""11"",""38832""
","""event"",""trial"",""time""
""blur"",""3"",""7906""
""blur"",""10"",""31776""
","""event"",""trial"",""time""
""focus"",""3"",""10673""
""focus"",""11"",""38832""
","""event"",""trial"",""time""
""fullscreenenter"",""0"",""2975""
","
",4566.784999915399,<img style='border: 4px solid darkgrey;' src='img/tf1_7_M_ss3.jpeg'></img>,2,NA,exp,NA,0,<img src='img/tf1_7_T1_ss3_md.jpeg'></img>,0,TRUE,NA,sub121
NA,html-keyboard-response,27,66576,0.0-10.0-0.7,"""event"",""trial"",""time""
""fullscreenenter"",""0"",""2975""
""blur"",""3"",""7906""
""focus"",""3"",""10673""
""blur"",""10"",""31776""
""focus"",""11"",""38832""
","""event"",""trial"",""time""
""blur"",""3"",""7906""
""blur"",""10"",""31776""
","""event"",""trial"",""time""
""focus"",""3"",""10673""
""focus"",""11"",""38832""
","""event"",""trial"",""time""
""fullscreenenter"",""0"",""2975""
","
",null,"<div style=""font-size:60px;"">+</div>",NA,null,fixation,2020-06-21T23:42:16Z,NA,NA,NA,NA,NA,sub121
NA,mars-trial,28,71841,0.0-10.0-1.7,"""event"",""trial"",""time""
""fullscreenenter"",""0"",""2975""
""blur"",""3"",""7906""
""focus"",""3"",""10673""
""blur"",""10"",""31776""
""focus"",""11"",""38832""
","""event"",""trial"",""time""
""blur"",""3"",""7906""
""blur"",""10"",""31776""
","""event"",""trial"",""time""
""focus"",""3"",""10673""
""focus"",""11"",""38832""
","""event"",""trial"",""time""
""fullscreenenter"",""0"",""2975""
","
",4659.375000046566,<img style='border: 4px solid darkgrey;' src='img/tf1_8_M_ss1.jpeg'></img>,1,NA,exp,NA,3,<img src='img/tf1_8_T1_ss1_md.jpeg'></img>,0,FALSE,NA,sub121
NA,html-keyboard-response,29,72344,0.0-10.0-0.8,"""event"",""trial"",""time""
""fullscreenenter"",""0"",""2975""
""blur"",""3"",""7906""
""focus"",""3"",""10673""
""blur"",""10"",""31776""
""focus"",""11"",""38832""
","""event"",""trial"",""time""
""blur"",""3"",""7906""
""blur"",""10"",""31776""
","""event"",""trial"",""time""
""focus"",""3"",""10673""
""focus"",""11"",""38832""
","""event"",""trial"",""time""
""fullscreenenter"",""0"",""2975""
","
",null,"<div style=""font-size:60px;"">+</div>",NA,null,fixation,2020-06-21T23:42:22Z,NA,NA,NA,NA,NA,sub121
NA,mars-trial,30,78074,0.0-10.0-1.8,"""event"",""trial"",""time""
""fullscreenenter"",""0"",""2975""
""blur"",""3"",""7906""
""focus"",""3"",""10673""
""blur"",""10"",""31776""
""focus"",""11"",""38832""
","""event"",""trial"",""time""
""blur"",""3"",""7906""
""blur"",""10"",""31776""
","""event"",""trial"",""time""
""focus"",""3"",""10673""
""focus"",""11"",""38832""
","""event"",""trial"",""time""
""fullscreenenter"",""0"",""2975""
","
",5123.570000054315,<img style='border: 4px solid darkgrey;' src='img/tf1_9_M_ss2.jpeg'></img>,2,NA,exp,NA,0,<img src='img/tf1_9_T1_ss2_md.jpeg'></img>,0,TRUE,NA,sub121
NA,html-keyboard-response,31,78577,0.0-10.0-0.9,"""event"",""trial"",""time""
""fullscreenenter"",""0"",""2975""
""blur"",""3"",""7906""
""focus"",""3"",""10673""
""blur"",""10"",""31776""
""focus"",""11"",""38832""
","""event"",""trial"",""time""
""blur"",""3"",""7906""
""blur"",""10"",""31776""
","""event"",""trial"",""time""
""focus"",""3"",""10673""
""focus"",""11"",""38832""
","""event"",""trial"",""time""
""fullscreenenter"",""0"",""2975""
","
",null,"<div style=""font-size:60px;"">+</div>",NA,null,fixation,2020-06-21T23:42:28Z,NA,NA,NA,NA,NA,sub121
NA,mars-trial,32,84906,0.0-10.0-1.9,"""event"",""trial"",""time""
""fullscreenenter"",""0"",""2975""
""blur"",""3"",""7906""
""focus"",""3"",""10673""
""blur"",""10"",""31776""
""focus"",""11"",""38832""
","""event"",""trial"",""time""
""blur"",""3"",""7906""
""blur"",""10"",""31776""
","""event"",""trial"",""time""
""focus"",""3"",""10673""
""focus"",""11"",""38832""
","""event"",""trial"",""time""
""fullscreenenter"",""0"",""2975""
","
",5721.224999986589,<img style='border: 4px solid darkgrey;' src='img/tf1_10_M_ss3.jpeg'></img>,3,NA,exp,NA,1,<img src='img/tf1_10_T1_ss3_md.jpeg'></img>,0,FALSE,NA,sub121
NA,html-keyboard-response,33,85408,0.0-10.0-0.10,"""event"",""trial"",""time""
""fullscreenenter"",""0"",""2975""
""blur"",""3"",""7906""
""focus"",""3"",""10673""
""blur"",""10"",""31776""
""focus"",""11"",""38832""
","""event"",""trial"",""time""
""blur"",""3"",""7906""
""blur"",""10"",""31776""
","""event"",""trial"",""time""
""focus"",""3"",""10673""
""focus"",""11"",""38832""
","""event"",""trial"",""time""
""fullscreenenter"",""0"",""2975""
","
",null,"<div style=""font-size:60px;"">+</div>",NA,null,fixation,2020-06-21T23:42:35Z,NA,NA,NA,NA,NA,sub121
NA,mars-trial,34,92396,0.0-10.0-1.10,"""event"",""trial"",""time""
""fullscreenenter"",""0"",""2975""
""blur"",""3"",""7906""
""focus"",""3"",""10673""
""blur"",""10"",""31776""
""focus"",""11"",""38832""
","""event"",""trial"",""time""
""blur"",""3"",""7906""
""blur"",""10"",""31776""
","""event"",""trial"",""time""
""focus"",""3"",""10673""
""focus"",""11"",""38832""
","""event"",""trial"",""time""
""fullscreenenter"",""0"",""2975""
","
",6379.495000001043,<img style='border: 4px solid darkgrey;' src='img/tf1_11_M_ss1.jpeg'></img>,1,NA,exp,NA,2,<img src='img/tf1_11_T1_ss1_md.jpeg'></img>,0,FALSE,NA,sub121
NA,html-keyboard-response,35,92897,0.0-10.0-0.11,"""event"",""trial"",""time""
""fullscreenenter"",""0"",""2975""
""blur"",""3"",""7906""
""focus"",""3"",""10673""
""blur"",""10"",""31776""
""focus"",""11"",""38832""
","""event"",""trial"",""time""
""blur"",""3"",""7906""
""blur"",""10"",""31776""
","""event"",""trial"",""time""
""focus"",""3"",""10673""
""focus"",""11"",""38832""
","""event"",""trial"",""time""
""fullscreenenter"",""0"",""2975""
","
",null,"<div style=""font-size:60px;"">+</div>",NA,null,fixation,2020-06-21T23:42:42Z,NA,NA,NA,NA,NA,sub121
NA,mars-trial,36,97034,0.0-10.0-1.11,"""event"",""trial"",""time""
""fullscreenenter"",""0"",""2975""
""blur"",""3"",""7906""
""focus"",""3"",""10673""
""blur"",""10"",""31776""
""focus"",""11"",""38832""
","""event"",""trial"",""time""
""blur"",""3"",""7906""
""blur"",""10"",""31776""
","""event"",""trial"",""time""
""focus"",""3"",""10673""
""focus"",""11"",""38832""
","""event"",""trial"",""time""
""fullscreenenter"",""0"",""2975""
","
",3529.5899999327958,<img style='border: 4px solid darkgrey;' src='img/tf1_12_M_ss2.jpeg'></img>,2,NA,exp,NA,3,<img src='img/tf1_12_T1_ss2_md.jpeg'></img>,0,FALSE,NA,sub121
NA,html-keyboard-response,37,97538,0.0-10.0-0.12,"""event"",""trial"",""time""
""fullscreenenter"",""0"",""2975""
""blur"",""3"",""7906""
""focus"",""3"",""10673""
""blur"",""10"",""31776""
""focus"",""11"",""38832""
","""event"",""trial"",""time""
""blur"",""3"",""7906""
""blur"",""10"",""31776""
","""event"",""trial"",""time""
""focus"",""3"",""10673""
""focus"",""11"",""38832""
","""event"",""trial"",""time""
""fullscreenenter"",""0"",""2975""
","
",null,"<div style=""font-size:60px;"">+</div>",NA,null,fixation,2020-06-21T23:42:47Z,NA,NA,NA,NA,NA,sub121
NA,mars-trial,38,102895,0.0-10.0-1.12,"""event"",""trial"",""time""
""fullscreenenter"",""0"",""2975""
""blur"",""3"",""7906""
""focus"",""3"",""10673""
""blur"",""10"",""31776""
""focus"",""11"",""38832""
","""event"",""trial"",""time""
""blur"",""3"",""7906""
""blur"",""10"",""31776""
","""event"",""trial"",""time""
""focus"",""3"",""10673""
""focus"",""11"",""38832""
","""event"",""trial"",""time""
""fullscreenenter"",""0"",""2975""
","
",4749.255000031553,<img style='border: 4px solid darkgrey;' src='img/tf1_13_M_ss3.jpeg'></img>,0,NA,exp,NA,2,<img src='img/tf1_13_T1_ss3_md.jpeg'></img>,0,FALSE,NA,sub121
NA,html-keyboard-response,39,103398,0.0-10.0-0.13,"""event"",""trial"",""time""
""fullscreenenter"",""0"",""2975""
""blur"",""3"",""7906""
""focus"",""3"",""10673""
""blur"",""10"",""31776""
""focus"",""11"",""38832""
","""event"",""trial"",""time""
""blur"",""3"",""7906""
""blur"",""10"",""31776""
","""event"",""trial"",""time""
""focus"",""3"",""10673""
""focus"",""11"",""38832""
","""event"",""trial"",""time""
""fullscreenenter"",""0"",""2975""
","
",null,"<div style=""font-size:60px;"">+</div>",NA,null,fixation,2020-06-21T23:42:53Z,NA,NA,NA,NA,NA,sub121
NA,mars-trial,40,110017,0.0-10.0-1.13,"""event"",""trial"",""time""
""fullscreenenter"",""0"",""2975""
""blur"",""3"",""7906""
""focus"",""3"",""10673""
""blur"",""10"",""31776""
""focus"",""11"",""38832""
","""event"",""trial"",""time""
""blur"",""3"",""7906""
""blur"",""10"",""31776""
","""event"",""trial"",""time""
""focus"",""3"",""10673""
""focus"",""11"",""38832""
","""event"",""trial"",""time""
""fullscreenenter"",""0"",""2975""
","
",6014.2099999357015,<img style='border: 4px solid darkgrey;' src='img/tf1_14_M_ss1.jpeg'></img>,2,NA,exp,NA,1,<img src='img/tf1_14_T1_ss1_md.jpeg'></img>,0,FALSE,NA,sub121
NA,html-keyboard-response,41,110522,0.0-10.0-0.14,"""event"",""trial"",""time""
""fullscreenenter"",""0"",""2975""
""blur"",""3"",""7906""
""focus"",""3"",""10673""
""blur"",""10"",""31776""
""focus"",""11"",""38832""
","""event"",""trial"",""time""
""blur"",""3"",""7906""
""blur"",""10"",""31776""
","""event"",""trial"",""time""
""focus"",""3"",""10673""
""focus"",""11"",""38832""
","""event"",""trial"",""time""
""fullscreenenter"",""0"",""2975""
","
",null,"<div style=""font-size:60px;"">+</div>",NA,null,fixation,2020-06-21T23:43:00Z,NA,NA,NA,NA,NA,sub121
NA,mars-trial,42,115025,0.0-10.0-1.14,"""event"",""trial"",""time""
""fullscreenenter"",""0"",""2975""
""blur"",""3"",""7906""
""focus"",""3"",""10673""
""blur"",""10"",""31776""
""focus"",""11"",""38832""
","""event"",""trial"",""time""
""blur"",""3"",""7906""
""blur"",""10"",""31776""
","""event"",""trial"",""time""
""focus"",""3"",""10673""
""focus"",""11"",""38832""
","""event"",""trial"",""time""
""fullscreenenter"",""0"",""2975""
","
",3895.174999954179,<img style='border: 4px solid darkgrey;' src='img/tf1_15_M_ss2.jpeg'></img>,0,NA,exp,NA,0,<img src='img/tf1_15_T1_ss2_md.jpeg'></img>,0,TRUE,NA,sub121
NA,html-keyboard-response,43,115528,0.0-10.0-0.15,"""event"",""trial"",""time""
""fullscreenenter"",""0"",""2975""
""blur"",""3"",""7906""
""focus"",""3"",""10673""
""blur"",""10"",""31776""
""focus"",""11"",""38832""
","""event"",""trial"",""time""
""blur"",""3"",""7906""
""blur"",""10"",""31776""
","""event"",""trial"",""time""
""focus"",""3"",""10673""
""focus"",""11"",""38832""
","""event"",""trial"",""time""
""fullscreenenter"",""0"",""2975""
","
",null,"<div style=""font-size:60px;"">+</div>",NA,null,fixation,2020-06-21T23:43:05Z,NA,NA,NA,NA,NA,sub121
NA,mars-trial,44,126204,0.0-10.0-1.15,"""event"",""trial"",""time""
""fullscreenenter"",""0"",""2975""
""blur"",""3"",""7906""
""focus"",""3"",""10673""
""blur"",""10"",""31776""
""focus"",""11"",""38832""
","""event"",""trial"",""time""
""blur"",""3"",""7906""
""blur"",""10"",""31776""
","""event"",""trial"",""time""
""focus"",""3"",""10673""
""focus"",""11"",""38832""
","""event"",""trial"",""time""
""fullscreenenter"",""0"",""2975""
","
",10070.184999960475,<img style='border: 4px solid darkgrey;' src='img/tf1_16_M_ss3.jpeg'></img>,3,NA,exp,NA,1,<img src='img/tf1_16_T1_ss3_md.jpeg'></img>,0,FALSE,NA,sub121
NA,html-keyboard-response,45,126710,0.0-10.0-0.16,"""event"",""trial"",""time""
""fullscreenenter"",""0"",""2975""
""blur"",""3"",""7906""
""focus"",""3"",""10673""
""blur"",""10"",""31776""
""focus"",""11"",""38832""
","""event"",""trial"",""time""
""blur"",""3"",""7906""
""blur"",""10"",""31776""
","""event"",""trial"",""time""
""focus"",""3"",""10673""
""focus"",""11"",""38832""
","""event"",""trial"",""time""
""fullscreenenter"",""0"",""2975""
","
",null,"<div style=""font-size:60px;"">+</div>",NA,null,fixation,2020-06-21T23:43:16Z,NA,NA,NA,NA,NA,sub121
NA,mars-trial,46,132033,0.0-10.0-1.16,"""event"",""trial"",""time""
""fullscreenenter"",""0"",""2975""
""blur"",""3"",""7906""
""focus"",""3"",""10673""
""blur"",""10"",""31776""
""focus"",""11"",""38832""
","""event"",""trial"",""time""
""blur"",""3"",""7906""
""blur"",""10"",""31776""
","""event"",""trial"",""time""
""focus"",""3"",""10673""
""focus"",""11"",""38832""
","""event"",""trial"",""time""
""fullscreenenter"",""0"",""2975""
","
",4716.650000074878,<img style='border: 4px solid darkgrey;' src='img/tf1_17_M_ss1.jpeg'></img>,2,NA,exp,NA,0,<img src='img/tf1_17_T1_ss1_md.jpeg'></img>,0,TRUE,NA,sub121
NA,html-keyboard-response,47,132536,0.0-10.0-0.17,"""event"",""trial"",""time""
""fullscreenenter"",""0"",""2975""
""blur"",""3"",""7906""
""focus"",""3"",""10673""
""blur"",""10"",""31776""
""focus"",""11"",""38832""
","""event"",""trial"",""time""
""blur"",""3"",""7906""
""blur"",""10"",""31776""
","""event"",""trial"",""time""
""focus"",""3"",""10673""
""focus"",""11"",""38832""
","""event"",""trial"",""time""
""fullscreenenter"",""0"",""2975""
","
",null,"<div style=""font-size:60px;"">+</div>",NA,null,fixation,2020-06-21T23:43:22Z,NA,NA,NA,NA,NA,sub121
NA,mars-trial,48,143509,0.0-10.0-1.17,"""event"",""trial"",""time""
""fullscreenenter"",""0"",""2975""
""blur"",""3"",""7906""
""focus"",""3"",""10673""
""blur"",""10"",""31776""
""focus"",""11"",""38832""
","""event"",""trial"",""time""
""blur"",""3"",""7906""
""blur"",""10"",""31776""
","""event"",""trial"",""time""
""focus"",""3"",""10673""
""focus"",""11"",""38832""
","""event"",""trial"",""time""
""fullscreenenter"",""0"",""2975""
","
",10365.469999960624,<img style='border: 4px solid darkgrey;' src='img/tf1_18_M_ss2.jpeg'></img>,1,NA,exp,NA,2,<img src='img/tf1_18_T1_ss2_md.jpeg'></img>,0,FALSE,NA,sub121
NA,html-keyboard-response,49,144013,0.0-10.0-0.18,"""event"",""trial"",""time""
""fullscreenenter"",""0"",""2975""
""blur"",""3"",""7906""
""focus"",""3"",""10673""
""blur"",""10"",""31776""
""focus"",""11"",""38832""
","""event"",""trial"",""time""
""blur"",""3"",""7906""
""blur"",""10"",""31776""
","""event"",""trial"",""time""
""focus"",""3"",""10673""
""focus"",""11"",""38832""
","""event"",""trial"",""time""
""fullscreenenter"",""0"",""2975""
","
",null,"<div style=""font-size:60px;"">+</div>",NA,null,fixation,2020-06-21T23:43:33Z,NA,NA,NA,NA,NA,sub121
NA,mars-trial,50,149699,0.0-10.0-1.18,"""event"",""trial"",""time""
""fullscreenenter"",""0"",""2975""
""blur"",""3"",""7906""
""focus"",""3"",""10673""
""blur"",""10"",""31776""
""focus"",""11"",""38832""
","""event"",""trial"",""time""
""blur"",""3"",""7906""
""blur"",""10"",""31776""
","""event"",""trial"",""time""
""focus"",""3"",""10673""
""focus"",""11"",""38832""
","""event"",""trial"",""time""
""fullscreenenter"",""0"",""2975""
","
",5078.570000012405,<img style='border: 4px solid darkgrey;' src='img/tf1_19_M_ss3.jpeg'></img>,2,NA,exp,NA,0,<img src='img/tf1_19_T1_ss3_md.jpeg'></img>,0,TRUE,NA,sub121
NA,html-keyboard-response,51,150202,0.0-10.0-0.19,"""event"",""trial"",""time""
""fullscreenenter"",""0"",""2975""
""blur"",""3"",""7906""
""focus"",""3"",""10673""
""blur"",""10"",""31776""
""focus"",""11"",""38832""
","""event"",""trial"",""time""
""blur"",""3"",""7906""
""blur"",""10"",""31776""
","""event"",""trial"",""time""
""focus"",""3"",""10673""
""focus"",""11"",""38832""
","""event"",""trial"",""time""
""fullscreenenter"",""0"",""2975""
","
",null,"<div style=""font-size:60px;"">+</div>",NA,null,fixation,2020-06-21T23:43:40Z,NA,NA,NA,NA,NA,sub121
NA,mars-trial,52,157147,0.0-10.0-1.19,"""event"",""trial"",""time""
""fullscreenenter"",""0"",""2975""
""blur"",""3"",""7906""
""focus"",""3"",""10673""
""blur"",""10"",""31776""
""focus"",""11"",""38832""
","""event"",""trial"",""time""
""blur"",""3"",""7906""
""blur"",""10"",""31776""
","""event"",""trial"",""time""
""focus"",""3"",""10673""
""focus"",""11"",""38832""
","""event"",""trial"",""time""
""fullscreenenter"",""0"",""2975""
","
",6330.335000064224,<img style='border: 4px solid darkgrey;' src='img/tf1_20_M_ss1.jpeg'></img>,3,NA,exp,NA,0,<img src='img/tf1_20_T1_ss1_md.jpeg'></img>,0,TRUE,NA,sub121
NA,html-keyboard-response,53,157649,0.0-10.0-0.20,"""event"",""trial"",""time""
""fullscreenenter"",""0"",""2975""
""blur"",""3"",""7906""
""focus"",""3"",""10673""
""blur"",""10"",""31776""
""focus"",""11"",""38832""
","""event"",""trial"",""time""
""blur"",""3"",""7906""
""blur"",""10"",""31776""
","""event"",""trial"",""time""
""focus"",""3"",""10673""
""focus"",""11"",""38832""
","""event"",""trial"",""time""
""fullscreenenter"",""0"",""2975""
","
",null,"<div style=""font-size:60px;"">+</div>",NA,null,fixation,2020-06-21T23:43:47Z,NA,NA,NA,NA,NA,sub121
NA,mars-trial,54,166060,0.0-10.0-1.20,"""event"",""trial"",""time""
""fullscreenenter"",""0"",""2975""
""blur"",""3"",""7906""
""focus"",""3"",""10673""
""blur"",""10"",""31776""
""focus"",""11"",""38832""
","""event"",""trial"",""time""
""blur"",""3"",""7906""
""blur"",""10"",""31776""
","""event"",""trial"",""time""
""focus"",""3"",""10673""
""focus"",""11"",""38832""
","""event"",""trial"",""time""
""fullscreenenter"",""0"",""2975""
","
",7804.195000091568,<img style='border: 4px solid darkgrey;' src='img/tf1_21_M_ss2.jpeg'></img>,2,NA,exp,NA,0,<img src='img/tf1_21_T1_ss2_md.jpeg'></img>,0,TRUE,NA,sub121
NA,html-keyboard-response,55,166564,0.0-10.0-0.21,"""event"",""trial"",""time""
""fullscreenenter"",""0"",""2975""
""blur"",""3"",""7906""
""focus"",""3"",""10673""
""blur"",""10"",""31776""
""focus"",""11"",""38832""
","""event"",""trial"",""time""
""blur"",""3"",""7906""
""blur"",""10"",""31776""
","""event"",""trial"",""time""
""focus"",""3"",""10673""
""focus"",""11"",""38832""
","""event"",""trial"",""time""
""fullscreenenter"",""0"",""2975""
","
",null,"<div style=""font-size:60px;"">+</div>",NA,null,fixation,2020-06-21T23:43:56Z,NA,NA,NA,NA,NA,sub121
NA,mars-trial,56,172078,0.0-10.0-1.21,"""event"",""trial"",""time""
""fullscreenenter"",""0"",""2975""
""blur"",""3"",""7906""
""focus"",""3"",""10673""
""blur"",""10"",""31776""
""focus"",""11"",""38832""
","""event"",""trial"",""time""
""blur"",""3"",""7906""
""blur"",""10"",""31776""
","""event"",""trial"",""time""
""focus"",""3"",""10673""
""focus"",""11"",""38832""
","""event"",""trial"",""time""
""fullscreenenter"",""0"",""2975""
","
",4907.559999963269,<img style='border: 4px solid darkgrey;' src='img/tf1_22_M_ss3.jpeg'></img>,0,NA,exp,NA,2,<img src='img/tf1_22_T1_ss3_md.jpeg'></img>,0,FALSE,NA,sub121
NA,html-keyboard-response,57,172582,0.0-10.0-0.22,"""event"",""trial"",""time""
""fullscreenenter"",""0"",""2975""
""blur"",""3"",""7906""
""focus"",""3"",""10673""
""blur"",""10"",""31776""
""focus"",""11"",""38832""
","""event"",""trial"",""time""
""blur"",""3"",""7906""
""blur"",""10"",""31776""
","""event"",""trial"",""time""
""focus"",""3"",""10673""
""focus"",""11"",""38832""
","""event"",""trial"",""time""
""fullscreenenter"",""0"",""2975""
","
",null,"<div style=""font-size:60px;"">+</div>",NA,null,fixation,2020-06-21T23:44:02Z,NA,NA,NA,NA,NA,sub121
NA,mars-trial,58,179711,0.0-10.0-1.22,"""event"",""trial"",""time""
""fullscreenenter"",""0"",""2975""
""blur"",""3"",""7906""
""focus"",""3"",""10673""
""blur"",""10"",""31776""
""focus"",""11"",""38832""
","""event"",""trial"",""time""
""blur"",""3"",""7906""
""blur"",""10"",""31776""
","""event"",""trial"",""time""
""focus"",""3"",""10673""
""focus"",""11"",""38832""
","""event"",""trial"",""time""
""fullscreenenter"",""0"",""2975""
","
",6520.100000081584,<img style='border: 4px solid darkgrey;' src='img/tf1_23_M_ss1.jpeg'></img>,3,NA,exp,NA,0,<img src='img/tf1_23_T1_ss1_md.jpeg'></img>,0,TRUE,NA,sub121
NA,html-keyboard-response,59,180218,0.0-10.0-0.23,"""event"",""trial"",""time""
""fullscreenenter"",""0"",""2975""
""blur"",""3"",""7906""
""focus"",""3"",""10673""
""blur"",""10"",""31776""
""focus"",""11"",""38832""
","""event"",""trial"",""time""
""blur"",""3"",""7906""
""blur"",""10"",""31776""
","""event"",""trial"",""time""
""focus"",""3"",""10673""
""focus"",""11"",""38832""
","""event"",""trial"",""time""
""fullscreenenter"",""0"",""2975""
","
",null,"<div style=""font-size:60px;"">+</div>",NA,null,fixation,2020-06-21T23:44:10Z,NA,NA,NA,NA,NA,sub121
NA,mars-trial,60,188687,0.0-10.0-1.23,"""event"",""trial"",""time""
""fullscreenenter"",""0"",""2975""
""blur"",""3"",""7906""
""focus"",""3"",""10673""
""blur"",""10"",""31776""
""focus"",""11"",""38832""
","""event"",""trial"",""time""
""blur"",""3"",""7906""
""blur"",""10"",""31776""
","""event"",""trial"",""time""
""focus"",""3"",""10673""
""focus"",""11"",""38832""
","""event"",""trial"",""time""
""fullscreenenter"",""0"",""2975""
","
",7860.9099999303,<img style='border: 4px solid darkgrey;' src='img/tf1_24_M_ss2.jpeg'></img>,0,NA,exp,NA,2,<img src='img/tf1_24_T1_ss2_md.jpeg'></img>,0,FALSE,NA,sub121
NA,html-keyboard-response,61,189190,0.0-10.0-0.24,"""event"",""trial"",""time""
""fullscreenenter"",""0"",""2975""
""blur"",""3"",""7906""
""focus"",""3"",""10673""
""blur"",""10"",""31776""
""focus"",""11"",""38832""
","""event"",""trial"",""time""
""blur"",""3"",""7906""
""blur"",""10"",""31776""
","""event"",""trial"",""time""
""focus"",""3"",""10673""
""focus"",""11"",""38832""
","""event"",""trial"",""time""
""fullscreenenter"",""0"",""2975""
","
",null,"<div style=""font-size:60px;"">+</div>",NA,null,fixation,2020-06-21T23:44:19Z,NA,NA,NA,NA,NA,sub121
NA,mars-trial,62,197212,0.0-10.0-1.24,"""event"",""trial"",""time""
""fullscreenenter"",""0"",""2975""
""blur"",""3"",""7906""
""focus"",""3"",""10673""
""blur"",""10"",""31776""
""focus"",""11"",""38832""
","""event"",""trial"",""time""
""blur"",""3"",""7906""
""blur"",""10"",""31776""
","""event"",""trial"",""time""
""focus"",""3"",""10673""
""focus"",""11"",""38832""
","""event"",""trial"",""time""
""fullscreenenter"",""0"",""2975""
","
",7413.509999983944,<img style='border: 4px solid darkgrey;' src='img/tf1_25_M_ss3.jpeg'></img>,0,NA,exp,NA,1,<img src='img/tf1_25_T1_ss3_md.jpeg'></img>,0,FALSE,NA,sub121
NA,html-keyboard-response,63,197717,0.0-10.0-0.25,"""event"",""trial"",""time""
""fullscreenenter"",""0"",""2975""
""blur"",""3"",""7906""
""focus"",""3"",""10673""
""blur"",""10"",""31776""
""focus"",""11"",""38832""
","""event"",""trial"",""time""
""blur"",""3"",""7906""
""blur"",""10"",""31776""
","""event"",""trial"",""time""
""focus"",""3"",""10673""
""focus"",""11"",""38832""
","""event"",""trial"",""time""
""fullscreenenter"",""0"",""2975""
","
",null,"<div style=""font-size:60px;"">+</div>",NA,null,fixation,2020-06-21T23:44:27Z,NA,NA,NA,NA,NA,sub121
NA,mars-trial,64,204669,0.0-10.0-1.25,"""event"",""trial"",""time""
""fullscreenenter"",""0"",""2975""
""blur"",""3"",""7906""
""focus"",""3"",""10673""
""blur"",""10"",""31776""
""focus"",""11"",""38832""
","""event"",""trial"",""time""
""blur"",""3"",""7906""
""blur"",""10"",""31776""
","""event"",""trial"",""time""
""focus"",""3"",""10673""
""focus"",""11"",""38832""
","""event"",""trial"",""time""
""fullscreenenter"",""0"",""2975""
","
",6345.450000022538,<img style='border: 4px solid darkgrey;' src='img/tf1_26_M_ss1.jpeg'></img>,2,NA,exp,NA,1,<img src='img/tf1_26_T1_ss1_md.jpeg'></img>,0,FALSE,NA,sub121
NA,html-keyboard-response,65,205173,0.0-10.0-0.26,"""event"",""trial"",""time""
""fullscreenenter"",""0"",""2975""
""blur"",""3"",""7906""
""focus"",""3"",""10673""
""blur"",""10"",""31776""
""focus"",""11"",""38832""
","""event"",""trial"",""time""
""blur"",""3"",""7906""
""blur"",""10"",""31776""
","""event"",""trial"",""time""
""focus"",""3"",""10673""
""focus"",""11"",""38832""
","""event"",""trial"",""time""
""fullscreenenter"",""0"",""2975""
","
",null,"<div style=""font-size:60px;"">+</div>",NA,null,fixation,2020-06-21T23:44:35Z,NA,NA,NA,NA,NA,sub121
NA,mars-trial,66,211797,0.0-10.0-1.26,"""event"",""trial"",""time""
""fullscreenenter"",""0"",""2975""
""blur"",""3"",""7906""
""focus"",""3"",""10673""
""blur"",""10"",""31776""
""focus"",""11"",""38832""
","""event"",""trial"",""time""
""blur"",""3"",""7906""
""blur"",""10"",""31776""
","""event"",""trial"",""time""
""focus"",""3"",""10673""
""focus"",""11"",""38832""
","""event"",""trial"",""time""
""fullscreenenter"",""0"",""2975""
","
",6016.954999999143,<img style='border: 4px solid darkgrey;' src='img/tf1_27_M_ss2.jpeg'></img>,2,NA,exp,NA,0,<img src='img/tf1_27_T1_ss2_md.jpeg'></img>,0,TRUE,NA,sub121
NA,html-keyboard-response,67,212300,0.0-10.0-0.27,"""event"",""trial"",""time""
""fullscreenenter"",""0"",""2975""
""blur"",""3"",""7906""
""focus"",""3"",""10673""
""blur"",""10"",""31776""
""focus"",""11"",""38832""
","""event"",""trial"",""time""
""blur"",""3"",""7906""
""blur"",""10"",""31776""
","""event"",""trial"",""time""
""focus"",""3"",""10673""
""focus"",""11"",""38832""
","""event"",""trial"",""time""
""fullscreenenter"",""0"",""2975""
","
",null,"<div style=""font-size:60px;"">+</div>",NA,null,fixation,2020-06-21T23:44:42Z,NA,NA,NA,NA,NA,sub121
NA,mars-trial,68,214331,0.0-10.0-1.27,"""event"",""trial"",""time""
""fullscreenenter"",""0"",""2975""
""blur"",""3"",""7906""
""focus"",""3"",""10673""
""blur"",""10"",""31776""
""focus"",""11"",""38832""
","""event"",""trial"",""time""
""blur"",""3"",""7906""
""blur"",""10"",""31776""
","""event"",""trial"",""time""
""focus"",""3"",""10673""
""focus"",""11"",""38832""
","""event"",""trial"",""time""
""fullscreenenter"",""0"",""2975""
","
",1423.3099999837577,<img style='border: 4px solid darkgrey;' src='img/tf1_28_M_ss3.jpeg'></img>,1,NA,exp,NA,1,<img src='img/tf1_28_T1_ss3_md.jpeg'></img>,0,FALSE,NA,sub121
NA,html-keyboard-response,69,214835,0.0-10.0-0.28,"""event"",""trial"",""time""
""fullscreenenter"",""0"",""2975""
""blur"",""3"",""7906""
""focus"",""3"",""10673""
""blur"",""10"",""31776""
""focus"",""11"",""38832""
","""event"",""trial"",""time""
""blur"",""3"",""7906""
""blur"",""10"",""31776""
","""event"",""trial"",""time""
""focus"",""3"",""10673""
""focus"",""11"",""38832""
","""event"",""trial"",""time""
""fullscreenenter"",""0"",""2975""
","
",null,"<div style=""font-size:60px;"">+</div>",NA,null,fixation,2020-06-21T23:44:44Z,NA,NA,NA,NA,NA,sub121
NA,mars-trial,70,216668,0.0-10.0-1.28,"""event"",""trial"",""time""
""fullscreenenter"",""0"",""2975""
""blur"",""3"",""7906""
""focus"",""3"",""10673""
""blur"",""10"",""31776""
""focus"",""11"",""38832""
","""event"",""trial"",""time""
""blur"",""3"",""7906""
""blur"",""10"",""31776""
","""event"",""trial"",""time""
""focus"",""3"",""10673""
""focus"",""11"",""38832""
","""event"",""trial"",""time""
""fullscreenenter"",""0"",""2975""
","
",1226.4399999985471,<img style='border: 4px solid darkgrey;' src='img/tf1_29_M_ss1.jpeg'></img>,2,NA,exp,NA,0,<img src='img/tf1_29_T1_ss1_md.jpeg'></img>,0,TRUE,NA,sub121
NA,html-keyboard-response,71,217169,0.0-10.0-0.29,"""event"",""trial"",""time""
""fullscreenenter"",""0"",""2975""
""blur"",""3"",""7906""
""focus"",""3"",""10673""
""blur"",""10"",""31776""
""focus"",""11"",""38832""
","""event"",""trial"",""time""
""blur"",""3"",""7906""
""blur"",""10"",""31776""
","""event"",""trial"",""time""
""focus"",""3"",""10673""
""focus"",""11"",""38832""
","""event"",""trial"",""time""
""fullscreenenter"",""0"",""2975""
","
",null,"<div style=""font-size:60px;"">+</div>",NA,null,fixation,2020-06-21T23:44:47Z,NA,NA,NA,NA,NA,sub121
NA,mars-trial,72,221171,0.0-10.0-1.29,"""event"",""trial"",""time""
""fullscreenenter"",""0"",""2975""
""blur"",""3"",""7906""
""focus"",""3"",""10673""
""blur"",""10"",""31776""
""focus"",""11"",""38832""
","""event"",""trial"",""time""
""blur"",""3"",""7906""
""blur"",""10"",""31776""
","""event"",""trial"",""time""
""focus"",""3"",""10673""
""focus"",""11"",""38832""
","""event"",""trial"",""time""
""fullscreenenter"",""0"",""2975""
","
",3395.195000106469,<img style='border: 4px solid darkgrey;' src='img/tf1_30_M_ss2.jpeg'></img>,1,NA,exp,NA,0,<img src='img/tf1_30_T1_ss2_md.jpeg'></img>,0,TRUE,NA,sub121
NA,html-keyboard-response,73,221673,0.0-10.0-0.30,"""event"",""trial"",""time""
""fullscreenenter"",""0"",""2975""
""blur"",""3"",""7906""
""focus"",""3"",""10673""
""blur"",""10"",""31776""
""focus"",""11"",""38832""
","""event"",""trial"",""time""
""blur"",""3"",""7906""
""blur"",""10"",""31776""
","""event"",""trial"",""time""
""focus"",""3"",""10673""
""focus"",""11"",""38832""
","""event"",""trial"",""time""
""fullscreenenter"",""0"",""2975""
","
",null,"<div style=""font-size:60px;"">+</div>",NA,null,fixation,2020-06-21T23:44:51Z,NA,NA,NA,NA,NA,sub121
NA,mars-trial,74,223713,0.0-10.0-1.30,"""event"",""trial"",""time""
""fullscreenenter"",""0"",""2975""
""blur"",""3"",""7906""
""focus"",""3"",""10673""
""blur"",""10"",""31776""
""focus"",""11"",""38832""
","""event"",""trial"",""time""
""blur"",""3"",""7906""
""blur"",""10"",""31776""
","""event"",""trial"",""time""
""focus"",""3"",""10673""
""focus"",""11"",""38832""
","""event"",""trial"",""time""
""fullscreenenter"",""0"",""2975""
","
",1431.3400000100955,<img style='border: 4px solid darkgrey;' src='img/tf1_31_M_ss3.jpeg'></img>,2,NA,exp,NA,2,<img src='img/tf1_31_T1_ss3_md.jpeg'></img>,0,FALSE,NA,sub121
NA,html-keyboard-response,75,224217,0.0-10.0-0.31,"""event"",""trial"",""time""
""fullscreenenter"",""0"",""2975""
""blur"",""3"",""7906""
""focus"",""3"",""10673""
""blur"",""10"",""31776""
""focus"",""11"",""38832""
","""event"",""trial"",""time""
""blur"",""3"",""7906""
""blur"",""10"",""31776""
","""event"",""trial"",""time""
""focus"",""3"",""10673""
""focus"",""11"",""38832""
","""event"",""trial"",""time""
""fullscreenenter"",""0"",""2975""
","
",null,"<div style=""font-size:60px;"">+</div>",NA,null,fixation,2020-06-21T23:44:54Z,NA,NA,NA,NA,NA,sub121
NA,mars-trial,76,227999,0.0-10.0-1.31,"""event"",""trial"",""time""
""fullscreenenter"",""0"",""2975""
""blur"",""3"",""7906""
""focus"",""3"",""10673""
""blur"",""10"",""31776""
""focus"",""11"",""38832""
","""event"",""trial"",""time""
""blur"",""3"",""7906""
""blur"",""10"",""31776""
","""event"",""trial"",""time""
""focus"",""3"",""10673""
""focus"",""11"",""38832""
","""event"",""trial"",""time""
""fullscreenenter"",""0"",""2975""
","
",3175.7800000486895,<img style='border: 4px solid darkgrey;' src='img/tf1_32_M_ss1.jpeg'></img>,1,NA,exp,NA,3,<img src='img/tf1_32_T1_ss1_md.jpeg'></img>,0,FALSE,NA,sub121
NA,html-keyboard-response,77,228502,0.0-10.0-0.32,"""event"",""trial"",""time""
""fullscreenenter"",""0"",""2975""
""blur"",""3"",""7906""
""focus"",""3"",""10673""
""blur"",""10"",""31776""
""focus"",""11"",""38832""
","""event"",""trial"",""time""
""blur"",""3"",""7906""
""blur"",""10"",""31776""
","""event"",""trial"",""time""
""focus"",""3"",""10673""
""focus"",""11"",""38832""
","""event"",""trial"",""time""
""fullscreenenter"",""0"",""2975""
","
",null,"<div style=""font-size:60px;"">+</div>",NA,null,fixation,2020-06-21T23:44:58Z,NA,NA,NA,NA,NA,sub121
NA,mars-trial,78,235601,0.0-10.0-1.32,"""event"",""trial"",""time""
""fullscreenenter"",""0"",""2975""
""blur"",""3"",""7906""
""focus"",""3"",""10673""
""blur"",""10"",""31776""
""focus"",""11"",""38832""
","""event"",""trial"",""time""
""blur"",""3"",""7906""
""blur"",""10"",""31776""
","""event"",""trial"",""time""
""focus"",""3"",""10673""
""focus"",""11"",""38832""
","""event"",""trial"",""time""
""fullscreenenter"",""0"",""2975""
","
",6488.024999969639,<img style='border: 4px solid darkgrey;' src='img/tf1_33_M_ss2.jpeg'></img>,1,NA,exp,NA,0,<img src='img/tf1_33_T1_ss2_md.jpeg'></img>,0,TRUE,NA,sub121
NA,html-keyboard-response,79,236103,0.0-10.0-0.33,"""event"",""trial"",""time""
""fullscreenenter"",""0"",""2975""
""blur"",""3"",""7906""
""focus"",""3"",""10673""
""blur"",""10"",""31776""
""focus"",""11"",""38832""
","""event"",""trial"",""time""
""blur"",""3"",""7906""
""blur"",""10"",""31776""
","""event"",""trial"",""time""
""focus"",""3"",""10673""
""focus"",""11"",""38832""
","""event"",""trial"",""time""
""fullscreenenter"",""0"",""2975""
","
",null,"<div style=""font-size:60px;"">+</div>",NA,null,fixation,2020-06-21T23:45:06Z,NA,NA,NA,NA,NA,sub121
NA,mars-trial,80,238410,0.0-10.0-1.33,"""event"",""trial"",""time""
""fullscreenenter"",""0"",""2975""
""blur"",""3"",""7906""
""focus"",""3"",""10673""
""blur"",""10"",""31776""
""focus"",""11"",""38832""
","""event"",""trial"",""time""
""blur"",""3"",""7906""
""blur"",""10"",""31776""
","""event"",""trial"",""time""
""focus"",""3"",""10673""
""focus"",""11"",""38832""
","""event"",""trial"",""time""
""fullscreenenter"",""0"",""2975""
","
",1700.620000017807,<img style='border: 4px solid darkgrey;' src='img/tf1_34_M_ss3.jpeg'></img>,3,NA,exp,NA,2,<img src='img/tf1_34_T1_ss3_md.jpeg'></img>,0,FALSE,NA,sub121
NA,html-keyboard-response,81,238911,0.0-10.0-0.34,"""event"",""trial"",""time""
""fullscreenenter"",""0"",""2975""
""blur"",""3"",""7906""
""focus"",""3"",""10673""
""blur"",""10"",""31776""
""focus"",""11"",""38832""
","""event"",""trial"",""time""
""blur"",""3"",""7906""
""blur"",""10"",""31776""
","""event"",""trial"",""time""
""focus"",""3"",""10673""
""focus"",""11"",""38832""
","""event"",""trial"",""time""
""fullscreenenter"",""0"",""2975""
","
",null,"<div style=""font-size:60px;"">+</div>",NA,null,fixation,2020-06-21T23:45:08Z,NA,NA,NA,NA,NA,sub121
NA,mars-trial,82,241208,0.0-10.0-1.34,"""event"",""trial"",""time""
""fullscreenenter"",""0"",""2975""
""blur"",""3"",""7906""
""focus"",""3"",""10673""
""blur"",""10"",""31776""
""focus"",""11"",""38832""
","""event"",""trial"",""time""
""blur"",""3"",""7906""
""blur"",""10"",""31776""
","""event"",""trial"",""time""
""focus"",""3"",""10673""
""focus"",""11"",""38832""
","""event"",""trial"",""time""
""fullscreenenter"",""0"",""2975""
","
",1687.6600000541657,<img style='border: 4px solid darkgrey;' src='img/tf1_35_M_ss1.jpeg'></img>,2,NA,exp,NA,2,<img src='img/tf1_35_T1_ss1_md.jpeg'></img>,0,FALSE,NA,sub121
NA,html-keyboard-response,83,241709,0.0-10.0-0.35,"""event"",""trial"",""time""
""fullscreenenter"",""0"",""2975""
""blur"",""3"",""7906""
""focus"",""3"",""10673""
""blur"",""10"",""31776""
""focus"",""11"",""38832""
","""event"",""trial"",""time""
""blur"",""3"",""7906""
""blur"",""10"",""31776""
","""event"",""trial"",""time""
""focus"",""3"",""10673""
""focus"",""11"",""38832""
","""event"",""trial"",""time""
""fullscreenenter"",""0"",""2975""
","
",null,"<div style=""font-size:60px;"">+</div>",NA,null,fixation,2020-06-21T23:45:11Z,NA,NA,NA,NA,NA,sub121
NA,mars-trial,84,243251,0.0-10.0-1.35,"""event"",""trial"",""time""
""fullscreenenter"",""0"",""2975""
""blur"",""3"",""7906""
""focus"",""3"",""10673""
""blur"",""10"",""31776""
""focus"",""11"",""38832""
","""event"",""trial"",""time""
""blur"",""3"",""7906""
""blur"",""10"",""31776""
","""event"",""trial"",""time""
""focus"",""3"",""10673""
""focus"",""11"",""38832""
","""event"",""trial"",""time""
""fullscreenenter"",""0"",""2975""
","
",936.794999986887,<img style='border: 4px solid darkgrey;' src='img/tf1_36_M_ss2.jpeg'></img>,1,NA,exp,NA,1,<img src='img/tf1_36_T1_ss2_md.jpeg'></img>,0,FALSE,NA,sub121
NA,html-keyboard-response,85,243753,0.0-10.0-0.36,"""event"",""trial"",""time""
""fullscreenenter"",""0"",""2975""
""blur"",""3"",""7906""
""focus"",""3"",""10673""
""blur"",""10"",""31776""
""focus"",""11"",""38832""
","""event"",""trial"",""time""
""blur"",""3"",""7906""
""blur"",""10"",""31776""
","""event"",""trial"",""time""
""focus"",""3"",""10673""
""focus"",""11"",""38832""
","""event"",""trial"",""time""
""fullscreenenter"",""0"",""2975""
","
",null,"<div style=""font-size:60px;"">+</div>",NA,null,fixation,2020-06-21T23:45:13Z,NA,NA,NA,NA,NA,sub121
NA,mars-trial,86,245457,0.0-10.0-1.36,"""event"",""trial"",""time""
""fullscreenenter"",""0"",""2975""
""blur"",""3"",""7906""
""focus"",""3"",""10673""
""blur"",""10"",""31776""
""focus"",""11"",""38832""
","""event"",""trial"",""time""
""blur"",""3"",""7906""
""blur"",""10"",""31776""
","""event"",""trial"",""time""
""focus"",""3"",""10673""
""focus"",""11"",""38832""
","""event"",""trial"",""time""
""fullscreenenter"",""0"",""2975""
","
",1097.055000020191,<img style='border: 4px solid darkgrey;' src='img/tf1_37_M_ss3.jpeg'></img>,3,NA,exp,NA,0,<img src='img/tf1_37_T1_ss3_md.jpeg'></img>,0,TRUE,NA,sub121
NA,html-keyboard-response,87,245960,0.0-10.0-0.37,"""event"",""trial"",""time""
""fullscreenenter"",""0"",""2975""
""blur"",""3"",""7906""
""focus"",""3"",""10673""
""blur"",""10"",""31776""
""focus"",""11"",""38832""
","""event"",""trial"",""time""
""blur"",""3"",""7906""
""blur"",""10"",""31776""
","""event"",""trial"",""time""
""focus"",""3"",""10673""
""focus"",""11"",""38832""
","""event"",""trial"",""time""
""fullscreenenter"",""0"",""2975""
","
",null,"<div style=""font-size:60px;"">+</div>",NA,null,fixation,2020-06-21T23:45:15Z,NA,NA,NA,NA,NA,sub121
NA,mars-trial,88,248888,0.0-10.0-1.37,"""event"",""trial"",""time""
""fullscreenenter"",""0"",""2975""
""blur"",""3"",""7906""
""focus"",""3"",""10673""
""blur"",""10"",""31776""
""focus"",""11"",""38832""
","""event"",""trial"",""time""
""blur"",""3"",""7906""
""blur"",""10"",""31776""
","""event"",""trial"",""time""
""focus"",""3"",""10673""
""focus"",""11"",""38832""
","""event"",""trial"",""time""
""fullscreenenter"",""0"",""2975""
","
",2321.5199999976903,<img style='border: 4px solid darkgrey;' src='img/tf1_38_M_ss1.jpeg'></img>,3,NA,exp,NA,0,<img src='img/tf1_38_T1_ss1_md.jpeg'></img>,0,TRUE,NA,sub121
NA,html-keyboard-response,89,249390,0.0-10.0-0.38,"""event"",""trial"",""time""
""fullscreenenter"",""0"",""2975""
""blur"",""3"",""7906""
""focus"",""3"",""10673""
""blur"",""10"",""31776""
""focus"",""11"",""38832""
","""event"",""trial"",""time""
""blur"",""3"",""7906""
""blur"",""10"",""31776""
","""event"",""trial"",""time""
""focus"",""3"",""10673""
""focus"",""11"",""38832""
","""event"",""trial"",""time""
""fullscreenenter"",""0"",""2975""
","
",null,"<div style=""font-size:60px;"">+</div>",NA,null,fixation,2020-06-21T23:45:19Z,NA,NA,NA,NA,NA,sub121
NA,mars-trial,90,251626,0.0-10.0-1.38,"""event"",""trial"",""time""
""fullscreenenter"",""0"",""2975""
""blur"",""3"",""7906""
""focus"",""3"",""10673""
""blur"",""10"",""31776""
""focus"",""11"",""38832""
","""event"",""trial"",""time""
""blur"",""3"",""7906""
""blur"",""10"",""31776""
","""event"",""trial"",""time""
""focus"",""3"",""10673""
""focus"",""11"",""38832""
","""event"",""trial"",""time""
""fullscreenenter"",""0"",""2975""
","
",1630.985000054352,<img style='border: 4px solid darkgrey;' src='img/tf1_39_M_ss2.jpeg'></img>,0,NA,exp,NA,2,<img src='img/tf1_39_T1_ss2_md.jpeg'></img>,0,FALSE,NA,sub121
NA,html-keyboard-response,91,252128,0.0-10.0-0.39,"""event"",""trial"",""time""
""fullscreenenter"",""0"",""2975""
""blur"",""3"",""7906""
""focus"",""3"",""10673""
""blur"",""10"",""31776""
""focus"",""11"",""38832""
","""event"",""trial"",""time""
""blur"",""3"",""7906""
""blur"",""10"",""31776""
","""event"",""trial"",""time""
""focus"",""3"",""10673""
""focus"",""11"",""38832""
","""event"",""trial"",""time""
""fullscreenenter"",""0"",""2975""
","
",null,"<div style=""font-size:60px;"">+</div>",NA,null,fixation,2020-06-21T23:45:22Z,NA,NA,NA,NA,NA,sub121
NA,mars-trial,92,254054,0.0-10.0-1.39,"""event"",""trial"",""time""
""fullscreenenter"",""0"",""2975""
""blur"",""3"",""7906""
""focus"",""3"",""10673""
""blur"",""10"",""31776""
""focus"",""11"",""38832""
","""event"",""trial"",""time""
""blur"",""3"",""7906""
""blur"",""10"",""31776""
","""event"",""trial"",""time""
""focus"",""3"",""10673""
""focus"",""11"",""38832""
","""event"",""trial"",""time""
""fullscreenenter"",""0"",""2975""
","
",1319.0750000067055,<img style='border: 4px solid darkgrey;' src='img/tf1_40_M_ss3.jpeg'></img>,1,NA,exp,NA,0,<img src='img/tf1_40_T1_ss3_md.jpeg'></img>,0,TRUE,NA,sub121
NA,html-keyboard-response,93,254557,0.0-10.0-0.40,"""event"",""trial"",""time""
""fullscreenenter"",""0"",""2975""
""blur"",""3"",""7906""
""focus"",""3"",""10673""
""blur"",""10"",""31776""
""focus"",""11"",""38832""
","""event"",""trial"",""time""
""blur"",""3"",""7906""
""blur"",""10"",""31776""
","""event"",""trial"",""time""
""focus"",""3"",""10673""
""focus"",""11"",""38832""
","""event"",""trial"",""time""
""fullscreenenter"",""0"",""2975""
","
",null,"<div style=""font-size:60px;"">+</div>",NA,null,fixation,2020-06-21T23:45:24Z,NA,NA,NA,NA,NA,sub121
NA,mars-trial,94,258300,0.0-10.0-1.40,"""event"",""trial"",""time""
""fullscreenenter"",""0"",""2975""
""blur"",""3"",""7906""
""focus"",""3"",""10673""
""blur"",""10"",""31776""
""focus"",""11"",""38832""
","""event"",""trial"",""time""
""blur"",""3"",""7906""
""blur"",""10"",""31776""
","""event"",""trial"",""time""
""focus"",""3"",""10673""
""focus"",""11"",""38832""
","""event"",""trial"",""time""
""fullscreenenter"",""0"",""2975""
","
",3132.8099999809638,<img style='border: 4px solid darkgrey;' src='img/tf1_41_M_ss1.jpeg'></img>,0,NA,exp,NA,0,<img src='img/tf1_41_T1_ss1_md.jpeg'></img>,0,TRUE,NA,sub121
NA,html-keyboard-response,95,258803,0.0-10.0-0.41,"""event"",""trial"",""time""
""fullscreenenter"",""0"",""2975""
""blur"",""3"",""7906""
""focus"",""3"",""10673""
""blur"",""10"",""31776""
""focus"",""11"",""38832""
","""event"",""trial"",""time""
""blur"",""3"",""7906""
""blur"",""10"",""31776""
","""event"",""trial"",""time""
""focus"",""3"",""10673""
""focus"",""11"",""38832""
","""event"",""trial"",""time""
""fullscreenenter"",""0"",""2975""
","
",null,"<div style=""font-size:60px;"">+</div>",NA,null,fixation,2020-06-21T23:45:28Z,NA,NA,NA,NA,NA,sub121
NA,mars-trial,96,266593,0.0-10.0-1.41,"""event"",""trial"",""time""
""fullscreenenter"",""0"",""2975""
""blur"",""3"",""7906""
""focus"",""3"",""10673""
""blur"",""10"",""31776""
""focus"",""11"",""38832""
","""event"",""trial"",""time""
""blur"",""3"",""7906""
""blur"",""10"",""31776""
","""event"",""trial"",""time""
""focus"",""3"",""10673""
""focus"",""11"",""38832""
","""event"",""trial"",""time""
""fullscreenenter"",""0"",""2975""
","
",7183.474999968894,<img style='border: 4px solid darkgrey;' src='img/tf1_42_M_ss2.jpeg'></img>,2,NA,exp,NA,0,<img src='img/tf1_42_T1_ss2_md.jpeg'></img>,0,TRUE,NA,sub121
NA,html-keyboard-response,97,267095,0.0-10.0-0.42,"""event"",""trial"",""time""
""fullscreenenter"",""0"",""2975""
""blur"",""3"",""7906""
""focus"",""3"",""10673""
""blur"",""10"",""31776""
""focus"",""11"",""38832""
","""event"",""trial"",""time""
""blur"",""3"",""7906""
""blur"",""10"",""31776""
","""event"",""trial"",""time""
""focus"",""3"",""10673""
""focus"",""11"",""38832""
","""event"",""trial"",""time""
""fullscreenenter"",""0"",""2975""
","
",null,"<div style=""font-size:60px;"">+</div>",NA,null,fixation,2020-06-21T23:45:37Z,NA,NA,NA,NA,NA,sub121
NA,mars-trial,98,268738,0.0-10.0-1.42,"""event"",""trial"",""time""
""fullscreenenter"",""0"",""2975""
""blur"",""3"",""7906""
""focus"",""3"",""10673""
""blur"",""10"",""31776""
""focus"",""11"",""38832""
","""event"",""trial"",""time""
""blur"",""3"",""7906""
""blur"",""10"",""31776""
","""event"",""trial"",""time""
""focus"",""3"",""10673""
""focus"",""11"",""38832""
","""event"",""trial"",""time""
""fullscreenenter"",""0"",""2975""
","
",1034.7700000274926,<img style='border: 4px solid darkgrey;' src='img/tf1_43_M_ss3.jpeg'></img>,2,NA,exp,NA,1,<img src='img/tf1_43_T1_ss3_md.jpeg'></img>,0,FALSE,NA,sub121
NA,html-keyboard-response,99,269241,0.0-10.0-0.43,"""event"",""trial"",""time""
""fullscreenenter"",""0"",""2975""
""blur"",""3"",""7906""
""focus"",""3"",""10673""
""blur"",""10"",""31776""
""focus"",""11"",""38832""
","""event"",""trial"",""time""
""blur"",""3"",""7906""
""blur"",""10"",""31776""
","""event"",""trial"",""time""
""focus"",""3"",""10673""
""focus"",""11"",""38832""
","""event"",""trial"",""time""
""fullscreenenter"",""0"",""2975""
","
",null,"<div style=""font-size:60px;"">+</div>",NA,null,fixation,2020-06-21T23:45:39Z,NA,NA,NA,NA,NA,sub121
NA,mars-trial,100,278594,0.0-10.0-1.43,"""event"",""trial"",""time""
""fullscreenenter"",""0"",""2975""
""blur"",""3"",""7906""
""focus"",""3"",""10673""
""blur"",""10"",""31776""
""focus"",""11"",""38832""
","""event"",""trial"",""time""
""blur"",""3"",""7906""
""blur"",""10"",""31776""
","""event"",""trial"",""time""
""focus"",""3"",""10673""
""focus"",""11"",""38832""
","""event"",""trial"",""time""
""fullscreenenter"",""0"",""2975""
","
",8749.145000008866,<img style='border: 4px solid darkgrey;' src='img/tf1_44_M_ss1.jpeg'></img>,3,NA,exp,NA,3,<img src='img/tf1_44_T1_ss1_md.jpeg'></img>,0,FALSE,NA,sub121
NA,html-keyboard-response,101,279096,0.0-10.0-0.44,"""event"",""trial"",""time""
""fullscreenenter"",""0"",""2975""
""blur"",""3"",""7906""
""focus"",""3"",""10673""
""blur"",""10"",""31776""
""focus"",""11"",""38832""
","""event"",""trial"",""time""
""blur"",""3"",""7906""
""blur"",""10"",""31776""
","""event"",""trial"",""time""
""focus"",""3"",""10673""
""focus"",""11"",""38832""
","""event"",""trial"",""time""
""fullscreenenter"",""0"",""2975""
","
",null,"<div style=""font-size:60px;"">+</div>",NA,null,fixation,2020-06-21T23:45:49Z,NA,NA,NA,NA,NA,sub121
NA,mars-trial,102,280636,0.0-10.0-1.44,"""event"",""trial"",""time""
""fullscreenenter"",""0"",""2975""
""blur"",""3"",""7906""
""focus"",""3"",""10673""
""blur"",""10"",""31776""
""focus"",""11"",""38832""
","""event"",""trial"",""time""
""blur"",""3"",""7906""
""blur"",""10"",""31776""
","""event"",""trial"",""time""
""focus"",""3"",""10673""
""focus"",""11"",""38832""
","""event"",""trial"",""time""
""fullscreenenter"",""0"",""2975""
","
",932.2999999858439,<img style='border: 4px solid darkgrey;' src='img/tf1_45_M_ss2.jpeg'></img>,2,NA,exp,NA,1,<img src='img/tf1_45_T1_ss2_md.jpeg'></img>,0,FALSE,NA,sub121
NA,html-keyboard-response,103,281137,0.0-10.0-0.45,"""event"",""trial"",""time""
""fullscreenenter"",""0"",""2975""
""blur"",""3"",""7906""
""focus"",""3"",""10673""
""blur"",""10"",""31776""
""focus"",""11"",""38832""
","""event"",""trial"",""time""
""blur"",""3"",""7906""
""blur"",""10"",""31776""
","""event"",""trial"",""time""
""focus"",""3"",""10673""
""focus"",""11"",""38832""
","""event"",""trial"",""time""
""fullscreenenter"",""0"",""2975""
","
",null,"<div style=""font-size:60px;"">+</div>",NA,null,fixation,2020-06-21T23:45:51Z,NA,NA,NA,NA,NA,sub121
NA,mars-trial,104,285727,0.0-10.0-1.45,"""event"",""trial"",""time""
""fullscreenenter"",""0"",""2975""
""blur"",""3"",""7906""
""focus"",""3"",""10673""
""blur"",""10"",""31776""
""focus"",""11"",""38832""
","""event"",""trial"",""time""
""blur"",""3"",""7906""
""blur"",""10"",""31776""
","""event"",""trial"",""time""
""focus"",""3"",""10673""
""focus"",""11"",""38832""
","""event"",""trial"",""time""
""fullscreenenter"",""0"",""2975""
","
",3982.7649999642745,<img style='border: 4px solid darkgrey;' src='img/tf1_46_M_ss3.jpeg'></img>,3,NA,exp,NA,0,<img src='img/tf1_46_T1_ss3_md.jpeg'></img>,0,TRUE,NA,sub121
NA,html-keyboard-response,105,286231,0.0-10.0-0.46,"""event"",""trial"",""time""
""fullscreenenter"",""0"",""2975""
""blur"",""3"",""7906""
""focus"",""3"",""10673""
""blur"",""10"",""31776""
""focus"",""11"",""38832""
","""event"",""trial"",""time""
""blur"",""3"",""7906""
""blur"",""10"",""31776""
","""event"",""trial"",""time""
""focus"",""3"",""10673""
""focus"",""11"",""38832""
","""event"",""trial"",""time""
""fullscreenenter"",""0"",""2975""
","
",null,"<div style=""font-size:60px;"">+</div>",NA,null,fixation,2020-06-21T23:45:56Z,NA,NA,NA,NA,NA,sub121
NA,mars-trial,106,290446,0.0-10.0-1.46,"""event"",""trial"",""time""
""fullscreenenter"",""0"",""2975""
""blur"",""3"",""7906""
""focus"",""3"",""10673""
""blur"",""10"",""31776""
""focus"",""11"",""38832""
","""event"",""trial"",""time""
""blur"",""3"",""7906""
""blur"",""10"",""31776""
","""event"",""trial"",""time""
""focus"",""3"",""10673""
""focus"",""11"",""38832""
","""event"",""trial"",""time""
""fullscreenenter"",""0"",""2975""
","
",3607.9449999378994,<img style='border: 4px solid darkgrey;' src='img/tf1_47_M_ss1.jpeg'></img>,0,NA,exp,NA,1,<img src='img/tf1_47_T1_ss1_md.jpeg'></img>,0,FALSE,NA,sub121
NA,html-keyboard-response,107,290950,0.0-10.0-0.47,"""event"",""trial"",""time""
""fullscreenenter"",""0"",""2975""
""blur"",""3"",""7906""
""focus"",""3"",""10673""
""blur"",""10"",""31776""
""focus"",""11"",""38832""
","""event"",""trial"",""time""
""blur"",""3"",""7906""
""blur"",""10"",""31776""
","""event"",""trial"",""time""
""focus"",""3"",""10673""
""focus"",""11"",""38832""
","""event"",""trial"",""time""
""fullscreenenter"",""0"",""2975""
","
",null,"<div style=""font-size:60px;"">+</div>",NA,null,fixation,2020-06-21T23:46:00Z,NA,NA,NA,NA,NA,sub121
NA,mars-trial,108,292280,0.0-10.0-1.47,"""event"",""trial"",""time""
""fullscreenenter"",""0"",""2975""
""blur"",""3"",""7906""
""focus"",""3"",""10673""
""blur"",""10"",""31776""
""focus"",""11"",""38832""
","""event"",""trial"",""time""
""blur"",""3"",""7906""
""blur"",""10"",""31776""
","""event"",""trial"",""time""
""focus"",""3"",""10673""
""focus"",""11"",""38832""
","""event"",""trial"",""time""
""fullscreenenter"",""0"",""2975""
","
",724.5899999979883,<img style='border: 4px solid darkgrey;' src='img/tf1_48_M_ss2.jpeg'></img>,2,NA,exp,NA,1,<img src='img/tf1_48_T1_ss2_md.jpeg'></img>,0,FALSE,NA,sub121
NA,html-keyboard-response,109,292783,0.0-10.0-0.48,"""event"",""trial"",""time""
""fullscreenenter"",""0"",""2975""
""blur"",""3"",""7906""
""focus"",""3"",""10673""
""blur"",""10"",""31776""
""focus"",""11"",""38832""
","""event"",""trial"",""time""
""blur"",""3"",""7906""
""blur"",""10"",""31776""
","""event"",""trial"",""time""
""focus"",""3"",""10673""
""focus"",""11"",""38832""
","""event"",""trial"",""time""
""fullscreenenter"",""0"",""2975""
","
",null,"<div style=""font-size:60px;"">+</div>",NA,null,fixation,2020-06-21T23:46:02Z,NA,NA,NA,NA,NA,sub121
NA,mars-trial,110,296364,0.0-10.0-1.48,"""event"",""trial"",""time""
""fullscreenenter"",""0"",""2975""
""blur"",""3"",""7906""
""focus"",""3"",""10673""
""blur"",""10"",""31776""
""focus"",""11"",""38832""
","""event"",""trial"",""time""
""blur"",""3"",""7906""
""blur"",""10"",""31776""
","""event"",""trial"",""time""
""focus"",""3"",""10673""
""focus"",""11"",""38832""
","""event"",""trial"",""time""
""fullscreenenter"",""0"",""2975""
","
",2974.6499999891967,<img style='border: 4px solid darkgrey;' src='img/tf1_49_M_ss3.jpeg'></img>,2,NA,exp,NA,0,<img src='img/tf1_49_T1_ss3_md.jpeg'></img>,0,TRUE,NA,sub121
NA,html-keyboard-response,111,296870,0.0-10.0-0.49,"""event"",""trial"",""time""
""fullscreenenter"",""0"",""2975""
""blur"",""3"",""7906""
""focus"",""3"",""10673""
""blur"",""10"",""31776""
""focus"",""11"",""38832""
","""event"",""trial"",""time""
""blur"",""3"",""7906""
""blur"",""10"",""31776""
","""event"",""trial"",""time""
""focus"",""3"",""10673""
""focus"",""11"",""38832""
","""event"",""trial"",""time""
""fullscreenenter"",""0"",""2975""
","
",null,"<div style=""font-size:60px;"">+</div>",NA,null,fixation,2020-06-21T23:46:06Z,NA,NA,NA,NA,NA,sub121
NA,mars-trial,112,298410,0.0-10.0-1.49,"""event"",""trial"",""time""
""fullscreenenter"",""0"",""2975""
""blur"",""3"",""7906""
""focus"",""3"",""10673""
""blur"",""10"",""31776""
""focus"",""11"",""38832""
","""event"",""trial"",""time""
""blur"",""3"",""7906""
""blur"",""10"",""31776""
","""event"",""trial"",""time""
""focus"",""3"",""10673""
""focus"",""11"",""38832""
","""event"",""trial"",""time""
""fullscreenenter"",""0"",""2975""
","
",934.2800000449643,<img style='border: 4px solid darkgrey;' src='img/tf1_50_M_ss1.jpeg'></img>,2,NA,exp,NA,3,<img src='img/tf1_50_T1_ss1_md.jpeg'></img>,0,FALSE,NA,sub121
NA,html-keyboard-response,113,298913,0.0-10.0-0.50,"""event"",""trial"",""time""
""fullscreenenter"",""0"",""2975""
""blur"",""3"",""7906""
""focus"",""3"",""10673""
""blur"",""10"",""31776""
""focus"",""11"",""38832""
","""event"",""trial"",""time""
""blur"",""3"",""7906""
""blur"",""10"",""31776""
","""event"",""trial"",""time""
""focus"",""3"",""10673""
""focus"",""11"",""38832""
","""event"",""trial"",""time""
""fullscreenenter"",""0"",""2975""
","
",null,"<div style=""font-size:60px;"">+</div>",NA,null,fixation,2020-06-21T23:46:08Z,NA,NA,NA,NA,NA,sub121
NA,mars-trial,114,300772,0.0-10.0-1.50,"""event"",""trial"",""time""
""fullscreenenter"",""0"",""2975""
""blur"",""3"",""7906""
""focus"",""3"",""10673""
""blur"",""10"",""31776""
""focus"",""11"",""38832""
","""event"",""trial"",""time""
""blur"",""3"",""7906""
""blur"",""10"",""31776""
","""event"",""trial"",""time""
""focus"",""3"",""10673""
""focus"",""11"",""38832""
","""event"",""trial"",""time""
""fullscreenenter"",""0"",""2975""
","
",1250.7700000423938,<img style='border: 4px solid darkgrey;' src='img/tf1_51_M_ss2.jpeg'></img>,2,NA,exp,NA,2,<img src='img/tf1_51_T1_ss2_md.jpeg'></img>,0,FALSE,NA,sub121
NA,html-keyboard-response,115,301275,0.0-10.0-0.51,"""event"",""trial"",""time""
""fullscreenenter"",""0"",""2975""
""blur"",""3"",""7906""
""focus"",""3"",""10673""
""blur"",""10"",""31776""
""focus"",""11"",""38832""
","""event"",""trial"",""time""
""blur"",""3"",""7906""
""blur"",""10"",""31776""
","""event"",""trial"",""time""
""focus"",""3"",""10673""
""focus"",""11"",""38832""
","""event"",""trial"",""time""
""fullscreenenter"",""0"",""2975""
","
",null,"<div style=""font-size:60px;"">+</div>",NA,null,fixation,2020-06-21T23:46:11Z,NA,NA,NA,NA,NA,sub121
NA,mars-trial,116,302973,0.0-10.0-1.51,"""event"",""trial"",""time""
""fullscreenenter"",""0"",""2975""
""blur"",""3"",""7906""
""focus"",""3"",""10673""
""blur"",""10"",""31776""
""focus"",""11"",""38832""
","""event"",""trial"",""time""
""blur"",""3"",""7906""
""blur"",""10"",""31776""
","""event"",""trial"",""time""
""focus"",""3"",""10673""
""focus"",""11"",""38832""
","""event"",""trial"",""time""
""fullscreenenter"",""0"",""2975""
","
",1092.1200000448152,<img style='border: 4px solid darkgrey;' src='img/tf1_52_M_ss3.jpeg'></img>,0,NA,exp,NA,3,<img src='img/tf1_52_T1_ss3_md.jpeg'></img>,0,FALSE,NA,sub121
NA,html-keyboard-response,117,303475,0.0-10.0-0.52,"""event"",""trial"",""time""
""fullscreenenter"",""0"",""2975""
""blur"",""3"",""7906""
""focus"",""3"",""10673""
""blur"",""10"",""31776""
""focus"",""11"",""38832""
","""event"",""trial"",""time""
""blur"",""3"",""7906""
""blur"",""10"",""31776""
","""event"",""trial"",""time""
""focus"",""3"",""10673""
""focus"",""11"",""38832""
","""event"",""trial"",""time""
""fullscreenenter"",""0"",""2975""
","
",null,"<div style=""font-size:60px;"">+</div>",NA,null,fixation,2020-06-21T23:46:13Z,NA,NA,NA,NA,NA,sub121
NA,mars-trial,118,305248,0.0-10.0-1.52,"""event"",""trial"",""time""
""fullscreenenter"",""0"",""2975""
""blur"",""3"",""7906""
""focus"",""3"",""10673""
""blur"",""10"",""31776""
""focus"",""11"",""38832""
","""event"",""trial"",""time""
""blur"",""3"",""7906""
""blur"",""10"",""31776""
","""event"",""trial"",""time""
""focus"",""3"",""10673""
""focus"",""11"",""38832""
","""event"",""trial"",""time""
""fullscreenenter"",""0"",""2975""
","
",1167.780000017956,<img style='border: 4px solid darkgrey;' src='img/tf1_53_M_ss1.jpeg'></img>,2,NA,exp,NA,2,<img src='img/tf1_53_T1_ss1_md.jpeg'></img>,0,FALSE,NA,sub121
NA,html-keyboard-response,119,305754,0.0-10.0-0.53,"""event"",""trial"",""time""
""fullscreenenter"",""0"",""2975""
""blur"",""3"",""7906""
""focus"",""3"",""10673""
""blur"",""10"",""31776""
""focus"",""11"",""38832""
","""event"",""trial"",""time""
""blur"",""3"",""7906""
""blur"",""10"",""31776""
","""event"",""trial"",""time""
""focus"",""3"",""10673""
""focus"",""11"",""38832""
","""event"",""trial"",""time""
""fullscreenenter"",""0"",""2975""
","
",null,"<div style=""font-size:60px;"">+</div>",NA,null,fixation,2020-06-21T23:46:15Z,NA,NA,NA,NA,NA,sub121
NA,mars-trial,120,307007,0.0-10.0-1.53,"""event"",""trial"",""time""
""fullscreenenter"",""0"",""2975""
""blur"",""3"",""7906""
""focus"",""3"",""10673""
""blur"",""10"",""31776""
""focus"",""11"",""38832""
","""event"",""trial"",""time""
""blur"",""3"",""7906""
""blur"",""10"",""31776""
","""event"",""trial"",""time""
""focus"",""3"",""10673""
""focus"",""11"",""38832""
","""event"",""trial"",""time""
""fullscreenenter"",""0"",""2975""
","
",646.5750000206754,<img style='border: 4px solid darkgrey;' src='img/tf1_54_M_ss2.jpeg'></img>,3,NA,exp,NA,2,<img src='img/tf1_54_T1_ss2_md.jpeg'></img>,0,FALSE,NA,sub121
NA,html-keyboard-response,121,307513,0.0-10.0-0.54,"""event"",""trial"",""time""
""fullscreenenter"",""0"",""2975""
""blur"",""3"",""7906""
""focus"",""3"",""10673""
""blur"",""10"",""31776""
""focus"",""11"",""38832""
","""event"",""trial"",""time""
""blur"",""3"",""7906""
""blur"",""10"",""31776""
","""event"",""trial"",""time""
""focus"",""3"",""10673""
""focus"",""11"",""38832""
","""event"",""trial"",""time""
""fullscreenenter"",""0"",""2975""
","
",null,"<div style=""font-size:60px;"">+</div>",NA,null,fixation,2020-06-21T23:46:17Z,NA,NA,NA,NA,NA,sub121
NA,mars-trial,122,308830,0.0-10.0-1.54,"""event"",""trial"",""time""
""fullscreenenter"",""0"",""2975""
""blur"",""3"",""7906""
""focus"",""3"",""10673""
""blur"",""10"",""31776""
""focus"",""11"",""38832""
","""event"",""trial"",""time""
""blur"",""3"",""7906""
""blur"",""10"",""31776""
","""event"",""trial"",""time""
""focus"",""3"",""10673""
""focus"",""11"",""38832""
","""event"",""trial"",""time""
""fullscreenenter"",""0"",""2975""
","
",708.1500000786036,<img style='border: 4px solid darkgrey;' src='img/tf1_55_M_ss3.jpeg'></img>,1,NA,exp,NA,1,<img src='img/tf1_55_T1_ss3_md.jpeg'></img>,0,FALSE,NA,sub121
NA,html-keyboard-response,123,309332,0.0-10.0-0.55,"""event"",""trial"",""time""
""fullscreenenter"",""0"",""2975""
""blur"",""3"",""7906""
""focus"",""3"",""10673""
""blur"",""10"",""31776""
""focus"",""11"",""38832""
","""event"",""trial"",""time""
""blur"",""3"",""7906""
""blur"",""10"",""31776""
","""event"",""trial"",""time""
""focus"",""3"",""10673""
""focus"",""11"",""38832""
","""event"",""trial"",""time""
""fullscreenenter"",""0"",""2975""
","
",null,"<div style=""font-size:60px;"">+</div>",NA,null,fixation,2020-06-21T23:46:19Z,NA,NA,NA,NA,NA,sub121
NA,mars-trial,124,315735,0.0-10.0-1.55,"""event"",""trial"",""time""
""fullscreenenter"",""0"",""2975""
""blur"",""3"",""7906""
""focus"",""3"",""10673""
""blur"",""10"",""31776""
""focus"",""11"",""38832""
","""event"",""trial"",""time""
""blur"",""3"",""7906""
""blur"",""10"",""31776""
","""event"",""trial"",""time""
""focus"",""3"",""10673""
""focus"",""11"",""38832""
","""event"",""trial"",""time""
""fullscreenenter"",""0"",""2975""
","
",5793.844999978319,<img style='border: 4px solid darkgrey;' src='img/tf1_56_M_ss1.jpeg'></img>,2,NA,exp,NA,0,<img src='img/tf1_56_T1_ss1_md.jpeg'></img>,0,TRUE,NA,sub121
NA,html-keyboard-response,125,316238,0.0-10.0-0.56,"""event"",""trial"",""time""
""fullscreenenter"",""0"",""2975""
""blur"",""3"",""7906""
""focus"",""3"",""10673""
""blur"",""10"",""31776""
""focus"",""11"",""38832""
","""event"",""trial"",""time""
""blur"",""3"",""7906""
""blur"",""10"",""31776""
","""event"",""trial"",""time""
""focus"",""3"",""10673""
""focus"",""11"",""38832""
","""event"",""trial"",""time""
""fullscreenenter"",""0"",""2975""
","
",null,"<div style=""font-size:60px;"">+</div>",NA,null,fixation,2020-06-21T23:46:26Z,NA,NA,NA,NA,NA,sub121
NA,mars-trial,126,320519,0.0-10.0-1.56,"""event"",""trial"",""time""
""fullscreenenter"",""0"",""2975""
""blur"",""3"",""7906""
""focus"",""3"",""10673""
""blur"",""10"",""31776""
""focus"",""11"",""38832""
","""event"",""trial"",""time""
""blur"",""3"",""7906""
""blur"",""10"",""31776""
","""event"",""trial"",""time""
""focus"",""3"",""10673""
""focus"",""11"",""38832""
","""event"",""trial"",""time""
""fullscreenenter"",""0"",""2975""
","
",3671.875,<img style='border: 4px solid darkgrey;' src='img/tf1_57_M_ss2.jpeg'></img>,1,NA,exp,NA,0,<img src='img/tf1_57_T1_ss2_md.jpeg'></img>,0,TRUE,NA,sub121
NA,html-keyboard-response,127,321022,0.0-10.0-0.57,"""event"",""trial"",""time""
""fullscreenenter"",""0"",""2975""
""blur"",""3"",""7906""
""focus"",""3"",""10673""
""blur"",""10"",""31776""
""focus"",""11"",""38832""
","""event"",""trial"",""time""
""blur"",""3"",""7906""
""blur"",""10"",""31776""
","""event"",""trial"",""time""
""focus"",""3"",""10673""
""focus"",""11"",""38832""
","""event"",""trial"",""time""
""fullscreenenter"",""0"",""2975""
","
",null,"<div style=""font-size:60px;"">+</div>",NA,null,fixation,2020-06-21T23:46:30Z,NA,NA,NA,NA,NA,sub121
NA,mars-trial,128,324308,0.0-10.0-1.57,"""event"",""trial"",""time""
""fullscreenenter"",""0"",""2975""
""blur"",""3"",""7906""
""focus"",""3"",""10673""
""blur"",""10"",""31776""
""focus"",""11"",""38832""
","""event"",""trial"",""time""
""blur"",""3"",""7906""
""blur"",""10"",""31776""
","""event"",""trial"",""time""
""focus"",""3"",""10673""
""focus"",""11"",""38832""
","""event"",""trial"",""time""
""fullscreenenter"",""0"",""2975""
","
",2679.604999953881,<img style='border: 4px solid darkgrey;' src='img/tf1_58_M_ss3.jpeg'></img>,0,NA,exp,NA,0,<img src='img/tf1_58_T1_ss3_md.jpeg'></img>,0,TRUE,NA,sub121
NA,html-keyboard-response,129,324810,0.0-10.0-0.58,"""event"",""trial"",""time""
""fullscreenenter"",""0"",""2975""
""blur"",""3"",""7906""
""focus"",""3"",""10673""
""blur"",""10"",""31776""
""focus"",""11"",""38832""
","""event"",""trial"",""time""
""blur"",""3"",""7906""
""blur"",""10"",""31776""
","""event"",""trial"",""time""
""focus"",""3"",""10673""
""focus"",""11"",""38832""
","""event"",""trial"",""time""
""fullscreenenter"",""0"",""2975""
","
",null,"<div style=""font-size:60px;"">+</div>",NA,null,fixation,2020-06-21T23:46:34Z,NA,NA,NA,NA,NA,sub121
NA,mars-trial,130,326309,0.0-10.0-1.58,"""event"",""trial"",""time""
""fullscreenenter"",""0"",""2975""
""blur"",""3"",""7906""
""focus"",""3"",""10673""
""blur"",""10"",""31776""
""focus"",""11"",""38832""
","""event"",""trial"",""time""
""blur"",""3"",""7906""
""blur"",""10"",""31776""
","""event"",""trial"",""time""
""focus"",""3"",""10673""
""focus"",""11"",""38832""
","""event"",""trial"",""time""
""fullscreenenter"",""0"",""2975""
","
",893.1749999755993,<img style='border: 4px solid darkgrey;' src='img/tf1_59_M_ss1.jpeg'></img>,2,NA,exp,NA,3,<img src='img/tf1_59_T1_ss1_md.jpeg'></img>,0,FALSE,NA,sub121
NA,html-keyboard-response,131,326811,0.0-10.0-0.59,"""event"",""trial"",""time""
""fullscreenenter"",""0"",""2975""
""blur"",""3"",""7906""
""focus"",""3"",""10673""
""blur"",""10"",""31776""
""focus"",""11"",""38832""
","""event"",""trial"",""time""
""blur"",""3"",""7906""
""blur"",""10"",""31776""
","""event"",""trial"",""time""
""focus"",""3"",""10673""
""focus"",""11"",""38832""
","""event"",""trial"",""time""
""fullscreenenter"",""0"",""2975""
","
",null,"<div style=""font-size:60px;"">+</div>",NA,null,fixation,2020-06-21T23:46:36Z,NA,NA,NA,NA,NA,sub121
NA,mars-trial,132,328377,0.0-10.0-1.59,"""event"",""trial"",""time""
""fullscreenenter"",""0"",""2975""
""blur"",""3"",""7906""
""focus"",""3"",""10673""
""blur"",""10"",""31776""
""focus"",""11"",""38832""
","""event"",""trial"",""time""
""blur"",""3"",""7906""
""blur"",""10"",""31776""
","""event"",""trial"",""time""
""focus"",""3"",""10673""
""focus"",""11"",""38832""
","""event"",""trial"",""time""
""fullscreenenter"",""0"",""2975""
","
",958.9700000360608,<img style='border: 4px solid darkgrey;' src='img/tf1_60_M_ss2.jpeg'></img>,2,NA,exp,NA,1,<img src='img/tf1_60_T1_ss2_md.jpeg'></img>,0,FALSE,NA,sub121
NA,html-keyboard-response,133,328880,0.0-10.0-0.60,"""event"",""trial"",""time""
""fullscreenenter"",""0"",""2975""
""blur"",""3"",""7906""
""focus"",""3"",""10673""
""blur"",""10"",""31776""
""focus"",""11"",""38832""
","""event"",""trial"",""time""
""blur"",""3"",""7906""
""blur"",""10"",""31776""
","""event"",""trial"",""time""
""focus"",""3"",""10673""
""focus"",""11"",""38832""
","""event"",""trial"",""time""
""fullscreenenter"",""0"",""2975""
","
",null,"<div style=""font-size:60px;"">+</div>",NA,null,fixation,2020-06-21T23:46:38Z,NA,NA,NA,NA,NA,sub121
NA,mars-trial,134,330126,0.0-10.0-1.60,"""event"",""trial"",""time""
""fullscreenenter"",""0"",""2975""
""blur"",""3"",""7906""
""focus"",""3"",""10673""
""blur"",""10"",""31776""
""focus"",""11"",""38832""
","""event"",""trial"",""time""
""blur"",""3"",""7906""
""blur"",""10"",""31776""
","""event"",""trial"",""time""
""focus"",""3"",""10673""
""focus"",""11"",""38832""
","""event"",""trial"",""time""
""fullscreenenter"",""0"",""2975""
","
",641.4949999889359,<img style='border: 4px solid darkgrey;' src='img/tf1_61_M_ss3.jpeg'></img>,1,NA,exp,NA,2,<img src='img/tf1_61_T1_ss3_md.jpeg'></img>,0,FALSE,NA,sub121
NA,html-keyboard-response,135,330629,0.0-10.0-0.61,"""event"",""trial"",""time""
""fullscreenenter"",""0"",""2975""
""blur"",""3"",""7906""
""focus"",""3"",""10673""
""blur"",""10"",""31776""
""focus"",""11"",""38832""
","""event"",""trial"",""time""
""blur"",""3"",""7906""
""blur"",""10"",""31776""
","""event"",""trial"",""time""
""focus"",""3"",""10673""
""focus"",""11"",""38832""
","""event"",""trial"",""time""
""fullscreenenter"",""0"",""2975""
","
",null,"<div style=""font-size:60px;"">+</div>",NA,null,fixation,2020-06-21T23:46:40Z,NA,NA,NA,NA,NA,sub121
NA,mars-trial,136,333896,0.0-10.0-1.61,"""event"",""trial"",""time""
""fullscreenenter"",""0"",""2975""
""blur"",""3"",""7906""
""focus"",""3"",""10673""
""blur"",""10"",""31776""
""focus"",""11"",""38832""
","""event"",""trial"",""time""
""blur"",""3"",""7906""
""blur"",""10"",""31776""
","""event"",""trial"",""time""
""focus"",""3"",""10673""
""focus"",""11"",""38832""
","""event"",""trial"",""time""
""fullscreenenter"",""0"",""2975""
","
",2661.1900000134483,<img style='border: 4px solid darkgrey;' src='img/tf1_62_M_ss1.jpeg'></img>,0,NA,exp,NA,0,<img src='img/tf1_62_T1_ss1_md.jpeg'></img>,0,TRUE,NA,sub121
NA,html-keyboard-response,137,334399,0.0-10.0-0.62,"""event"",""trial"",""time""
""fullscreenenter"",""0"",""2975""
""blur"",""3"",""7906""
""focus"",""3"",""10673""
""blur"",""10"",""31776""
""focus"",""11"",""38832""
","""event"",""trial"",""time""
""blur"",""3"",""7906""
""blur"",""10"",""31776""
","""event"",""trial"",""time""
""focus"",""3"",""10673""
""focus"",""11"",""38832""
","""event"",""trial"",""time""
""fullscreenenter"",""0"",""2975""
","
",null,"<div style=""font-size:60px;"">+</div>",NA,null,fixation,2020-06-21T23:46:44Z,NA,NA,NA,NA,NA,sub121
NA,mars-trial,138,339375,0.0-10.0-1.62,"""event"",""trial"",""time""
""fullscreenenter"",""0"",""2975""
""blur"",""3"",""7906""
""focus"",""3"",""10673""
""blur"",""10"",""31776""
""focus"",""11"",""38832""
","""event"",""trial"",""time""
""blur"",""3"",""7906""
""blur"",""10"",""31776""
","""event"",""trial"",""time""
""focus"",""3"",""10673""
""focus"",""11"",""38832""
","""event"",""trial"",""time""
""fullscreenenter"",""0"",""2975""
","
",4363.290000008419,<img style='border: 4px solid darkgrey;' src='img/tf1_63_M_ss2.jpeg'></img>,0,NA,exp,NA,1,<img src='img/tf1_63_T1_ss2_md.jpeg'></img>,0,FALSE,NA,sub121
NA,html-keyboard-response,139,339878,0.0-10.0-0.63,"""event"",""trial"",""time""
""fullscreenenter"",""0"",""2975""
""blur"",""3"",""7906""
""focus"",""3"",""10673""
""blur"",""10"",""31776""
""focus"",""11"",""38832""
","""event"",""trial"",""time""
""blur"",""3"",""7906""
""blur"",""10"",""31776""
","""event"",""trial"",""time""
""focus"",""3"",""10673""
""focus"",""11"",""38832""
","""event"",""trial"",""time""
""fullscreenenter"",""0"",""2975""
","
",null,"<div style=""font-size:60px;"">+</div>",NA,null,fixation,2020-06-21T23:46:49Z,NA,NA,NA,NA,NA,sub121
NA,mars-trial,140,341996,0.0-10.0-1.63,"""event"",""trial"",""time""
""fullscreenenter"",""0"",""2975""
""blur"",""3"",""7906""
""focus"",""3"",""10673""
""blur"",""10"",""31776""
""focus"",""11"",""38832""
","""event"",""trial"",""time""
""blur"",""3"",""7906""
""blur"",""10"",""31776""
","""event"",""trial"",""time""
""focus"",""3"",""10673""
""focus"",""11"",""38832""
","""event"",""trial"",""time""
""fullscreenenter"",""0"",""2975""
","
",1511.9149999227375,<img style='border: 4px solid darkgrey;' src='img/tf1_64_M_ss3.jpeg'></img>,2,NA,exp,NA,0,<img src='img/tf1_64_T1_ss3_md.jpeg'></img>,0,TRUE,NA,sub121
NA,html-keyboard-response,141,342497,0.0-10.0-0.64,"""event"",""trial"",""time""
""fullscreenenter"",""0"",""2975""
""blur"",""3"",""7906""
""focus"",""3"",""10673""
""blur"",""10"",""31776""
""focus"",""11"",""38832""
","""event"",""trial"",""time""
""blur"",""3"",""7906""
""blur"",""10"",""31776""
","""event"",""trial"",""time""
""focus"",""3"",""10673""
""focus"",""11"",""38832""
","""event"",""trial"",""time""
""fullscreenenter"",""0"",""2975""
","
",null,"<div style=""font-size:60px;"">+</div>",NA,null,fixation,2020-06-21T23:46:52Z,NA,NA,NA,NA,NA,sub121
NA,mars-trial,142,343862,0.0-10.0-1.64,"""event"",""trial"",""time""
""fullscreenenter"",""0"",""2975""
""blur"",""3"",""7906""
""focus"",""3"",""10673""
""blur"",""10"",""31776""
""focus"",""11"",""38832""
","""event"",""trial"",""time""
""blur"",""3"",""7906""
""blur"",""10"",""31776""
","""event"",""trial"",""time""
""focus"",""3"",""10673""
""focus"",""11"",""38832""
","""event"",""trial"",""time""
""fullscreenenter"",""0"",""2975""
","
",758.5500000277534,<img style='border: 4px solid darkgrey;' src='img/tf1_65_M_ss1.jpeg'></img>,1,NA,exp,NA,2,<img src='img/tf1_65_T1_ss1_md.jpeg'></img>,0,FALSE,NA,sub121
NA,html-keyboard-response,143,344365,0.0-10.0-0.65,"""event"",""trial"",""time""
""fullscreenenter"",""0"",""2975""
""blur"",""3"",""7906""
""focus"",""3"",""10673""
""blur"",""10"",""31776""
""focus"",""11"",""38832""
","""event"",""trial"",""time""
""blur"",""3"",""7906""
""blur"",""10"",""31776""
","""event"",""trial"",""time""
""focus"",""3"",""10673""
""focus"",""11"",""38832""
","""event"",""trial"",""time""
""fullscreenenter"",""0"",""2975""
","
",null,"<div style=""font-size:60px;"">+</div>",NA,null,fixation,2020-06-21T23:46:54Z,NA,NA,NA,NA,NA,sub121
NA,mars-trial,144,345516,0.0-10.0-1.65,"""event"",""trial"",""time""
""fullscreenenter"",""0"",""2975""
""blur"",""3"",""7906""
""focus"",""3"",""10673""
""blur"",""10"",""31776""
""focus"",""11"",""38832""
","""event"",""trial"",""time""
""blur"",""3"",""7906""
""blur"",""10"",""31776""
","""event"",""trial"",""time""
""focus"",""3"",""10673""
""focus"",""11"",""38832""
","""event"",""trial"",""time""
""fullscreenenter"",""0"",""2975""
","
",546.1849999846891,<img style='border: 4px solid darkgrey;' src='img/tf1_66_M_ss2.jpeg'></img>,2,NA,exp,NA,1,<img src='img/tf1_66_T1_ss2_md.jpeg'></img>,0,FALSE,NA,sub121
NA,html-keyboard-response,145,346018,0.0-10.0-0.66,"""event"",""trial"",""time""
""fullscreenenter"",""0"",""2975""
""blur"",""3"",""7906""
""focus"",""3"",""10673""
""blur"",""10"",""31776""
""focus"",""11"",""38832""
","""event"",""trial"",""time""
""blur"",""3"",""7906""
""blur"",""10"",""31776""
","""event"",""trial"",""time""
""focus"",""3"",""10673""
""focus"",""11"",""38832""
","""event"",""trial"",""time""
""fullscreenenter"",""0"",""2975""
","
",null,"<div style=""font-size:60px;"">+</div>",NA,null,fixation,2020-06-21T23:46:55Z,NA,NA,NA,NA,NA,sub121
NA,mars-trial,146,347303,0.0-10.0-1.66,"""event"",""trial"",""time""
""fullscreenenter"",""0"",""2975""
""blur"",""3"",""7906""
""focus"",""3"",""10673""
""blur"",""10"",""31776""
""focus"",""11"",""38832""
","""event"",""trial"",""time""
""blur"",""3"",""7906""
""blur"",""10"",""31776""
","""event"",""trial"",""time""
""focus"",""3"",""10673""
""focus"",""11"",""38832""
","""event"",""trial"",""time""
""fullscreenenter"",""0"",""2975""
","
",678.4300000872463,<img style='border: 4px solid darkgrey;' src='img/tf1_67_M_ss3.jpeg'></img>,0,NA,exp,NA,1,<img src='img/tf1_67_T1_ss3_md.jpeg'></img>,0,FALSE,NA,sub121
NA,html-keyboard-response,147,347806,0.0-10.0-0.67,"""event"",""trial"",""time""
""fullscreenenter"",""0"",""2975""
""blur"",""3"",""7906""
""focus"",""3"",""10673""
""blur"",""10"",""31776""
""focus"",""11"",""38832""
","""event"",""trial"",""time""
""blur"",""3"",""7906""
""blur"",""10"",""31776""
","""event"",""trial"",""time""
""focus"",""3"",""10673""
""focus"",""11"",""38832""
","""event"",""trial"",""time""
""fullscreenenter"",""0"",""2975""
","
",null,"<div style=""font-size:60px;"">+</div>",NA,null,fixation,2020-06-21T23:46:57Z,NA,NA,NA,NA,NA,sub121
NA,mars-trial,148,350060,0.0-10.0-1.67,"""event"",""trial"",""time""
""fullscreenenter"",""0"",""2975""
""blur"",""3"",""7906""
""focus"",""3"",""10673""
""blur"",""10"",""31776""
""focus"",""11"",""38832""
","""event"",""trial"",""time""
""blur"",""3"",""7906""
""blur"",""10"",""31776""
","""event"",""trial"",""time""
""focus"",""3"",""10673""
""focus"",""11"",""38832""
","""event"",""trial"",""time""
""fullscreenenter"",""0"",""2975""
","
",1647.4450000096112,<img style='border: 4px solid darkgrey;' src='img/tf1_68_M_ss1.jpeg'></img>,0,NA,exp,NA,0,<img src='img/tf1_68_T1_ss1_md.jpeg'></img>,0,TRUE,NA,sub121
NA,html-keyboard-response,149,350564,0.0-10.0-0.68,"""event"",""trial"",""time""
""fullscreenenter"",""0"",""2975""
""blur"",""3"",""7906""
""focus"",""3"",""10673""
""blur"",""10"",""31776""
""focus"",""11"",""38832""
","""event"",""trial"",""time""
""blur"",""3"",""7906""
""blur"",""10"",""31776""
","""event"",""trial"",""time""
""focus"",""3"",""10673""
""focus"",""11"",""38832""
","""event"",""trial"",""time""
""fullscreenenter"",""0"",""2975""
","
",null,"<div style=""font-size:60px;"">+</div>",NA,null,fixation,2020-06-21T23:47:00Z,NA,NA,NA,NA,NA,sub121
NA,mars-trial,150,356875,0.0-10.0-1.68,"""event"",""trial"",""time""
""fullscreenenter"",""0"",""2975""
""blur"",""3"",""7906""
""focus"",""3"",""10673""
""blur"",""10"",""31776""
""focus"",""11"",""38832""
","""event"",""trial"",""time""
""blur"",""3"",""7906""
""blur"",""10"",""31776""
","""event"",""trial"",""time""
""focus"",""3"",""10673""
""focus"",""11"",""38832""
","""event"",""trial"",""time""
""fullscreenenter"",""0"",""2975""
","
",5706.690000020899,<img style='border: 4px solid darkgrey;' src='img/tf1_69_M_ss2.jpeg'></img>,2,NA,exp,NA,0,<img src='img/tf1_69_T1_ss2_md.jpeg'></img>,0,TRUE,NA,sub121
NA,html-keyboard-response,151,357377,0.0-10.0-0.69,"""event"",""trial"",""time""
""fullscreenenter"",""0"",""2975""
""blur"",""3"",""7906""
""focus"",""3"",""10673""
""blur"",""10"",""31776""
""focus"",""11"",""38832""
","""event"",""trial"",""time""
""blur"",""3"",""7906""
""blur"",""10"",""31776""
","""event"",""trial"",""time""
""focus"",""3"",""10673""
""focus"",""11"",""38832""
","""event"",""trial"",""time""
""fullscreenenter"",""0"",""2975""
","
",null,"<div style=""font-size:60px;"">+</div>",NA,null,fixation,2020-06-21T23:47:07Z,NA,NA,NA,NA,NA,sub121
NA,mars-trial,152,361875,0.0-10.0-1.69,"""event"",""trial"",""time""
""fullscreenenter"",""0"",""2975""
""blur"",""3"",""7906""
""focus"",""3"",""10673""
""blur"",""10"",""31776""
""focus"",""11"",""38832""
","""event"",""trial"",""time""
""blur"",""3"",""7906""
""blur"",""10"",""31776""
","""event"",""trial"",""time""
""focus"",""3"",""10673""
""focus"",""11"",""38832""
","""event"",""trial"",""time""
""fullscreenenter"",""0"",""2975""
","
",3892.1650000847876,<img style='border: 4px solid darkgrey;' src='img/tf1_70_M_ss3.jpeg'></img>,2,NA,exp,NA,2,<img src='img/tf1_70_T1_ss3_md.jpeg'></img>,0,FALSE,NA,sub121
NA,html-keyboard-response,153,362378,0.0-10.0-0.70,"""event"",""trial"",""time""
""fullscreenenter"",""0"",""2975""
""blur"",""3"",""7906""
""focus"",""3"",""10673""
""blur"",""10"",""31776""
""focus"",""11"",""38832""
","""event"",""trial"",""time""
""blur"",""3"",""7906""
""blur"",""10"",""31776""
","""event"",""trial"",""time""
""focus"",""3"",""10673""
""focus"",""11"",""38832""
","""event"",""trial"",""time""
""fullscreenenter"",""0"",""2975""
","
",null,"<div style=""font-size:60px;"">+</div>",NA,null,fixation,2020-06-21T23:47:12Z,NA,NA,NA,NA,NA,sub121
NA,mars-trial,154,364262,0.0-10.0-1.70,"""event"",""trial"",""time""
""fullscreenenter"",""0"",""2975""
""blur"",""3"",""7906""
""focus"",""3"",""10673""
""blur"",""10"",""31776""
""focus"",""11"",""38832""
","""event"",""trial"",""time""
""blur"",""3"",""7906""
""blur"",""10"",""31776""
","""event"",""trial"",""time""
""focus"",""3"",""10673""
""focus"",""11"",""38832""
","""event"",""trial"",""time""
""fullscreenenter"",""0"",""2975""
","
",1275.954999960959,<img style='border: 4px solid darkgrey;' src='img/tf1_71_M_ss1.jpeg'></img>,2,NA,exp,NA,2,<img src='img/tf1_71_T1_ss1_md.jpeg'></img>,0,FALSE,NA,sub121
NA,html-keyboard-response,155,364766,0.0-10.0-0.71,"""event"",""trial"",""time""
""fullscreenenter"",""0"",""2975""
""blur"",""3"",""7906""
""focus"",""3"",""10673""
""blur"",""10"",""31776""
""focus"",""11"",""38832""
","""event"",""trial"",""time""
""blur"",""3"",""7906""
""blur"",""10"",""31776""
","""event"",""trial"",""time""
""focus"",""3"",""10673""
""focus"",""11"",""38832""
","""event"",""trial"",""time""
""fullscreenenter"",""0"",""2975""
","
",null,"<div style=""font-size:60px;"">+</div>",NA,null,fixation,2020-06-21T23:47:14Z,NA,NA,NA,NA,NA,sub121
NA,mars-trial,156,365834,0.0-10.0-1.71,"""event"",""trial"",""time""
""fullscreenenter"",""0"",""2975""
""blur"",""3"",""7906""
""focus"",""3"",""10673""
""blur"",""10"",""31776""
""focus"",""11"",""38832""
","""event"",""trial"",""time""
""blur"",""3"",""7906""
""blur"",""10"",""31776""
","""event"",""trial"",""time""
""focus"",""3"",""10673""
""focus"",""11"",""38832""
","""event"",""trial"",""time""
""fullscreenenter"",""0"",""2975""
","
",457.4449999490753,<img style='border: 4px solid darkgrey;' src='img/tf1_72_M_ss2.jpeg'></img>,0,NA,exp,NA,0,<img src='img/tf1_72_T1_ss2_md.jpeg'></img>,0,TRUE,NA,sub121
NA,html-keyboard-response,157,366335,0.0-10.0-0.72,"""event"",""trial"",""time""
""fullscreenenter"",""0"",""2975""
""blur"",""3"",""7906""
""focus"",""3"",""10673""
""blur"",""10"",""31776""
""focus"",""11"",""38832""
","""event"",""trial"",""time""
""blur"",""3"",""7906""
""blur"",""10"",""31776""
","""event"",""trial"",""time""
""focus"",""3"",""10673""
""focus"",""11"",""38832""
","""event"",""trial"",""time""
""fullscreenenter"",""0"",""2975""
","
",null,"<div style=""font-size:60px;"">+</div>",NA,null,fixation,2020-06-21T23:47:16Z,NA,NA,NA,NA,NA,sub121
NA,mars-trial,158,367284,0.0-10.0-1.72,"""event"",""trial"",""time""
""fullscreenenter"",""0"",""2975""
""blur"",""3"",""7906""
""focus"",""3"",""10673""
""blur"",""10"",""31776""
""focus"",""11"",""38832""
","""event"",""trial"",""time""
""blur"",""3"",""7906""
""blur"",""10"",""31776""
","""event"",""trial"",""time""
""focus"",""3"",""10673""
""focus"",""11"",""38832""
","""event"",""trial"",""time""
""fullscreenenter"",""0"",""2975""
","
",341.565000009723,<img style='border: 4px solid darkgrey;' src='img/tf1_73_M_ss3.jpeg'></img>,3,NA,exp,NA,3,<img src='img/tf1_73_T1_ss3_md.jpeg'></img>,0,FALSE,NA,sub121
NA,html-keyboard-response,159,367786,0.0-10.0-0.73,"""event"",""trial"",""time""
""fullscreenenter"",""0"",""2975""
""blur"",""3"",""7906""
""focus"",""3"",""10673""
""blur"",""10"",""31776""
""focus"",""11"",""38832""
","""event"",""trial"",""time""
""blur"",""3"",""7906""
""blur"",""10"",""31776""
","""event"",""trial"",""time""
""focus"",""3"",""10673""
""focus"",""11"",""38832""
","""event"",""trial"",""time""
""fullscreenenter"",""0"",""2975""
","
",null,"<div style=""font-size:60px;"">+</div>",NA,null,fixation,2020-06-21T23:47:17Z,NA,NA,NA,NA,NA,sub121
NA,mars-trial,160,370576,0.0-10.0-1.73,"""event"",""trial"",""time""
""fullscreenenter"",""0"",""2975""
""blur"",""3"",""7906""
""focus"",""3"",""10673""
""blur"",""10"",""31776""
""focus"",""11"",""38832""
","""event"",""trial"",""time""
""blur"",""3"",""7906""
""blur"",""10"",""31776""
","""event"",""trial"",""time""
""focus"",""3"",""10673""
""focus"",""11"",""38832""
","""event"",""trial"",""time""
""fullscreenenter"",""0"",""2975""
","
",2182.4999999953434,<img style='border: 4px solid darkgrey;' src='img/tf1_74_M_ss1.jpeg'></img>,1,NA,exp,NA,2,<img src='img/tf1_74_T1_ss1_md.jpeg'></img>,0,FALSE,NA,sub121
NA,html-keyboard-response,161,371078,0.0-10.0-0.74,"""event"",""trial"",""time""
""fullscreenenter"",""0"",""2975""
""blur"",""3"",""7906""
""focus"",""3"",""10673""
""blur"",""10"",""31776""
""focus"",""11"",""38832""
","""event"",""trial"",""time""
""blur"",""3"",""7906""
""blur"",""10"",""31776""
","""event"",""trial"",""time""
""focus"",""3"",""10673""
""focus"",""11"",""38832""
","""event"",""trial"",""time""
""fullscreenenter"",""0"",""2975""
","
",null,"<div style=""font-size:60px;"">+</div>",NA,null,fixation,2020-06-21T23:47:21Z,NA,NA,NA,NA,NA,sub121
NA,mars-trial,162,372517,0.0-10.0-1.74,"""event"",""trial"",""time""
""fullscreenenter"",""0"",""2975""
""blur"",""3"",""7906""
""focus"",""3"",""10673""
""blur"",""10"",""31776""
""focus"",""11"",""38832""
","""event"",""trial"",""time""
""blur"",""3"",""7906""
""blur"",""10"",""31776""
","""event"",""trial"",""time""
""focus"",""3"",""10673""
""focus"",""11"",""38832""
","""event"",""trial"",""time""
""fullscreenenter"",""0"",""2975""
","
",811.6300000110641,<img style='border: 4px solid darkgrey;' src='img/tf1_75_M_ss2.jpeg'></img>,2,NA,exp,NA,0,<img src='img/tf1_75_T1_ss2_md.jpeg'></img>,0,TRUE,NA,sub121
NA,html-keyboard-response,163,373021,0.0-10.0-0.75,"""event"",""trial"",""time""
""fullscreenenter"",""0"",""2975""
""blur"",""3"",""7906""
""focus"",""3"",""10673""
""blur"",""10"",""31776""
""focus"",""11"",""38832""
","""event"",""trial"",""time""
""blur"",""3"",""7906""
""blur"",""10"",""31776""
","""event"",""trial"",""time""
""focus"",""3"",""10673""
""focus"",""11"",""38832""
","""event"",""trial"",""time""
""fullscreenenter"",""0"",""2975""
","
",null,"<div style=""font-size:60px;"">+</div>",NA,null,fixation,2020-06-21T23:47:22Z,NA,NA,NA,NA,NA,sub121
NA,mars-trial,164,374340,0.0-10.0-1.75,"""event"",""trial"",""time""
""fullscreenenter"",""0"",""2975""
""blur"",""3"",""7906""
""focus"",""3"",""10673""
""blur"",""10"",""31776""
""focus"",""11"",""38832""
","""event"",""trial"",""time""
""blur"",""3"",""7906""
""blur"",""10"",""31776""
","""event"",""trial"",""time""
""focus"",""3"",""10673""
""focus"",""11"",""38832""
","""event"",""trial"",""time""
""fullscreenenter"",""0"",""2975""
","
",709.2199999606237,<img style='border: 4px solid darkgrey;' src='img/tf1_76_M_ss3.jpeg'></img>,1,NA,exp,NA,2,<img src='img/tf1_76_T1_ss3_md.jpeg'></img>,0,FALSE,NA,sub121
NA,html-keyboard-response,165,374845,0.0-10.0-0.76,"""event"",""trial"",""time""
""fullscreenenter"",""0"",""2975""
""blur"",""3"",""7906""
""focus"",""3"",""10673""
""blur"",""10"",""31776""
""focus"",""11"",""38832""
","""event"",""trial"",""time""
""blur"",""3"",""7906""
""blur"",""10"",""31776""
","""event"",""trial"",""time""
""focus"",""3"",""10673""
""focus"",""11"",""38832""
","""event"",""trial"",""time""
""fullscreenenter"",""0"",""2975""
","
",null,"<div style=""font-size:60px;"">+</div>",NA,null,fixation,2020-06-21T23:47:24Z,NA,NA,NA,NA,NA,sub121
NA,mars-trial,166,375706,0.0-10.0-1.76,"""event"",""trial"",""time""
""fullscreenenter"",""0"",""2975""
""blur"",""3"",""7906""
""focus"",""3"",""10673""
""blur"",""10"",""31776""
""focus"",""11"",""38832""
","""event"",""trial"",""time""
""blur"",""3"",""7906""
""blur"",""10"",""31776""
","""event"",""trial"",""time""
""focus"",""3"",""10673""
""focus"",""11"",""38832""
","""event"",""trial"",""time""
""fullscreenenter"",""0"",""2975""
","
",253.93499992787838,<img style='border: 4px solid darkgrey;' src='img/tf1_77_M_ss1.jpeg'></img>,0,NA,exp,NA,1,<img src='img/tf1_77_T1_ss1_md.jpeg'></img>,0,FALSE,NA,sub121
NA,html-keyboard-response,167,376212,0.0-10.0-0.77,"""event"",""trial"",""time""
""fullscreenenter"",""0"",""2975""
""blur"",""3"",""7906""
""focus"",""3"",""10673""
""blur"",""10"",""31776""
""focus"",""11"",""38832""
","""event"",""trial"",""time""
""blur"",""3"",""7906""
""blur"",""10"",""31776""
","""event"",""trial"",""time""
""focus"",""3"",""10673""
""focus"",""11"",""38832""
","""event"",""trial"",""time""
""fullscreenenter"",""0"",""2975""
","
",null,"<div style=""font-size:60px;"">+</div>",NA,null,fixation,2020-06-21T23:47:26Z,NA,NA,NA,NA,NA,sub121
NA,mars-trial,168,377183,0.0-10.0-1.77,"""event"",""trial"",""time""
