success,trial_type,trial_index,time_elapsed,internal_node_id,interactions,blur_events,focus_events,fullscreenenter_events,fullscreenexit_events,rt,stimulus,button_pressed,key_press,part,timestamp,unshuffled_button,correct_response,correct_button,correct,value,subject_id
TRUE,fullscreen,0,8403,0.0-0.0,"""event"",""trial"",""time""
""focus"",""0"",""2335""
""fullscreenenter"",""0"",""7409""
","
","""event"",""trial"",""time""
""focus"",""0"",""2335""
","""event"",""trial"",""time""
""fullscreenenter"",""0"",""7409""
","
",NA,NA,NA,NA,NA,NA,NA,NA,NA,NA,NA,sub98
NA,pavlovia,1,8407,0.0-1.0,"""event"",""trial"",""time""
""focus"",""0"",""2335""
""fullscreenenter"",""0"",""7409""
","
","""event"",""trial"",""time""
""focus"",""0"",""2335""
","""event"",""trial"",""time""
""fullscreenenter"",""0"",""7409""
","
",NA,NA,NA,NA,NA,NA,NA,NA,NA,NA,NA,sub98
NA,html-button-response,2,9685,0.0-2.0,"""event"",""trial"",""time""
""focus"",""0"",""2335""
""fullscreenenter"",""0"",""7409""
","
","""event"",""trial"",""time""
""focus"",""0"",""2335""
","""event"",""trial"",""time""
""fullscreenenter"",""0"",""7409""
","
",1277.459999982966,<p>Welcome! Press START to begin.</p><br>,0,NA,NA,NA,NA,NA,NA,NA,NA,sub98
NA,audio-button-response,3,20307,0.0-3.0,"""event"",""trial"",""time""
""focus"",""0"",""2335""
""fullscreenenter"",""0"",""7409""
","
","""event"",""trial"",""time""
""focus"",""0"",""2335""
","""event"",""trial"",""time""
""fullscreenenter"",""0"",""7409""
","
",10620.135000004666,audio/mars_instructions_slide2.wav,0,NA,NA,NA,NA,NA,NA,NA,NA,sub98
NA,audio-button-response,4,30475,0.0-4.0,"""event"",""trial"",""time""
""focus"",""0"",""2335""
""fullscreenenter"",""0"",""7409""
","
","""event"",""trial"",""time""
""focus"",""0"",""2335""
","""event"",""trial"",""time""
""fullscreenenter"",""0"",""7409""
","
",10166.869999986375,audio/mars_instructions_slide3.wav,0,NA,NA,NA,NA,NA,NA,NA,NA,sub98
NA,html-keyboard-response,5,30981,0.0-5.0-0.0,"""event"",""trial"",""time""
""focus"",""0"",""2335""
""fullscreenenter"",""0"",""7409""
","
","""event"",""trial"",""time""
""focus"",""0"",""2335""
","""event"",""trial"",""time""
""fullscreenenter"",""0"",""7409""
","
",null,"<div style=""font-size:60px;"">+</div>",NA,null,fixation,2020-06-25T02:35:28Z,NA,NA,NA,NA,NA,sub98
NA,mars-trial,6,44322,0.0-5.0-1.0,"""event"",""trial"",""time""
""focus"",""0"",""2335""
""fullscreenenter"",""0"",""7409""
","
","""event"",""trial"",""time""
""focus"",""0"",""2335""
","""event"",""trial"",""time""
""fullscreenenter"",""0"",""7409""
","
",11233.5299999977,<img style='border: 4px solid darkgrey;' src='practice/pt1_M1.png'></img>,1,NA,practice,NA,0,<img src='practice/pt1_T1.png'></img>,0,TRUE,NA,sub98
NA,html-keyboard-response,7,44826,0.0-6.0-0.0,"""event"",""trial"",""time""
""focus"",""0"",""2335""
""fullscreenenter"",""0"",""7409""
","
","""event"",""trial"",""time""
""focus"",""0"",""2335""
","""event"",""trial"",""time""
""fullscreenenter"",""0"",""7409""
","
",null,"<div style=""font-size:60px;"">+</div>",NA,null,fixation,2020-06-25T02:35:42Z,NA,NA,NA,NA,NA,sub98
NA,mars-trial,8,49336,0.0-6.0-1.0,"""event"",""trial"",""time""
""focus"",""0"",""2335""
""fullscreenenter"",""0"",""7409""
","
","""event"",""trial"",""time""
""focus"",""0"",""2335""
","""event"",""trial"",""time""
""fullscreenenter"",""0"",""7409""
","
",2400.5699999979697,<img style='border: 4px solid darkgrey;' src='practice/pt2_M1.png'></img>,2,NA,practice,NA,0,<img src='practice/pt2_T1.png'></img>,0,TRUE,NA,sub98
NA,html-keyboard-response,9,49842,0.0-7.0-0.0,"""event"",""trial"",""time""
""focus"",""0"",""2335""
""fullscreenenter"",""0"",""7409""
","
","""event"",""trial"",""time""
""focus"",""0"",""2335""
","""event"",""trial"",""time""
""fullscreenenter"",""0"",""7409""
","
",null,"<div style=""font-size:60px;"">+</div>",NA,null,fixation,2020-06-25T02:35:47Z,NA,NA,NA,NA,NA,sub98
NA,mars-trial,10,53912,0.0-7.0-1.0,"""event"",""trial"",""time""
""focus"",""0"",""2335""
""fullscreenenter"",""0"",""7409""
","
","""event"",""trial"",""time""
""focus"",""0"",""2335""
","""event"",""trial"",""time""
""fullscreenenter"",""0"",""7409""
","
",1961.0300000058487,<img style='border: 4px solid darkgrey;' src='practice/pt3_M1.png'></img>,3,NA,practice,NA,0,<img src='practice/pt3_T1.png'></img>,0,TRUE,NA,sub98
NA,audio-button-response,11,55486,0.0-8.0,"""event"",""trial"",""time""
""focus"",""0"",""2335""
""fullscreenenter"",""0"",""7409""
","
","""event"",""trial"",""time""
""focus"",""0"",""2335""
","""event"",""trial"",""time""
""fullscreenenter"",""0"",""7409""
","
",1572.584999987157,audio/mars_instructions_slide4.wav,0,NA,NA,NA,NA,NA,NA,NA,NA,sub98
NA,call-function,12,55486,0.0-9.0,"""event"",""trial"",""time""
""focus"",""0"",""2335""
""fullscreenenter"",""0"",""7409""
","
","""event"",""trial"",""time""
""focus"",""0"",""2335""
","""event"",""trial"",""time""
""fullscreenenter"",""0"",""7409""
","
",NA,NA,NA,NA,NA,NA,NA,NA,NA,NA,NA,sub98
NA,html-keyboard-response,13,55991,0.0-10.0-0.0,"""event"",""trial"",""time""
""focus"",""0"",""2335""
""fullscreenenter"",""0"",""7409""
","
","""event"",""trial"",""time""
""focus"",""0"",""2335""
","""event"",""trial"",""time""
""fullscreenenter"",""0"",""7409""
","
",null,"<div style=""font-size:60px;"">+</div>",NA,null,fixation,2020-06-25T02:35:53Z,NA,NA,NA,NA,NA,sub98
NA,mars-trial,14,58062,0.0-10.0-1.0,"""event"",""trial"",""time""
""focus"",""0"",""2335""
""fullscreenenter"",""0"",""7409""
","
","""event"",""trial"",""time""
""focus"",""0"",""2335""
","""event"",""trial"",""time""
""fullscreenenter"",""0"",""7409""
","
",1462.360000004992,<img style='border: 4px solid darkgrey;' src='img/tf1_1_M_ss3.jpeg'></img>,1,NA,exp,NA,0,<img src='img/tf1_1_T1_ss3_md.jpeg'></img>,0,TRUE,NA,sub98
NA,html-keyboard-response,15,58567,0.0-10.0-0.1,"""event"",""trial"",""time""
""focus"",""0"",""2335""
""fullscreenenter"",""0"",""7409""
","
","""event"",""trial"",""time""
""focus"",""0"",""2335""
","""event"",""trial"",""time""
""fullscreenenter"",""0"",""7409""
","
",null,"<div style=""font-size:60px;"">+</div>",NA,null,fixation,2020-06-25T02:35:56Z,NA,NA,NA,NA,NA,sub98
NA,mars-trial,16,62235,0.0-10.0-1.1,"""event"",""trial"",""time""
""focus"",""0"",""2335""
""fullscreenenter"",""0"",""7409""
","
","""event"",""trial"",""time""
""focus"",""0"",""2335""
","""event"",""trial"",""time""
""fullscreenenter"",""0"",""7409""
","
",3060.590000008233,<img style='border: 4px solid darkgrey;' src='img/tf1_2_M_ss1.jpeg'></img>,0,NA,exp,NA,0,<img src='img/tf1_2_T1_ss1_md.jpeg'></img>,0,TRUE,NA,sub98
NA,html-keyboard-response,17,62741,0.0-10.0-0.2,"""event"",""trial"",""time""
""focus"",""0"",""2335""
""fullscreenenter"",""0"",""7409""
","
","""event"",""trial"",""time""
""focus"",""0"",""2335""
","""event"",""trial"",""time""
""fullscreenenter"",""0"",""7409""
","
",null,"<div style=""font-size:60px;"">+</div>",NA,null,fixation,2020-06-25T02:36:00Z,NA,NA,NA,NA,NA,sub98
NA,mars-trial,18,65249,0.0-10.0-1.2,"""event"",""trial"",""time""
""focus"",""0"",""2335""
""fullscreenenter"",""0"",""7409""
","
","""event"",""trial"",""time""
""focus"",""0"",""2335""
","""event"",""trial"",""time""
""fullscreenenter"",""0"",""7409""
","
",1898.4099999943282,<img style='border: 4px solid darkgrey;' src='img/tf1_3_M_ss2.jpeg'></img>,1,NA,exp,NA,0,<img src='img/tf1_3_T1_ss2_md.jpeg'></img>,0,TRUE,NA,sub98
NA,html-keyboard-response,19,65753,0.0-10.0-0.3,"""event"",""trial"",""time""
""focus"",""0"",""2335""
""fullscreenenter"",""0"",""7409""
","
","""event"",""trial"",""time""
""focus"",""0"",""2335""
","""event"",""trial"",""time""
""fullscreenenter"",""0"",""7409""
","
",null,"<div style=""font-size:60px;"">+</div>",NA,null,fixation,2020-06-25T02:36:03Z,NA,NA,NA,NA,NA,sub98
NA,mars-trial,20,68940,0.0-10.0-1.3,"""event"",""trial"",""time""
""focus"",""0"",""2335""
""fullscreenenter"",""0"",""7409""
","
","""event"",""trial"",""time""
""focus"",""0"",""2335""
","""event"",""trial"",""time""
""fullscreenenter"",""0"",""7409""
","
",2578.2499999913853,<img style='border: 4px solid darkgrey;' src='img/tf1_4_M_ss3.jpeg'></img>,0,NA,exp,NA,0,<img src='img/tf1_4_T1_ss3_md.jpeg'></img>,0,TRUE,NA,sub98
NA,html-keyboard-response,21,69445,0.0-10.0-0.4,"""event"",""trial"",""time""
""focus"",""0"",""2335""
""fullscreenenter"",""0"",""7409""
","
","""event"",""trial"",""time""
""focus"",""0"",""2335""
","""event"",""trial"",""time""
""fullscreenenter"",""0"",""7409""
","
",null,"<div style=""font-size:60px;"">+</div>",NA,null,fixation,2020-06-25T02:36:07Z,NA,NA,NA,NA,NA,sub98
NA,mars-trial,22,73103,0.0-10.0-1.4,"""event"",""trial"",""time""
""focus"",""0"",""2335""
""fullscreenenter"",""0"",""7409""
","
","""event"",""trial"",""time""
""focus"",""0"",""2335""
","""event"",""trial"",""time""
""fullscreenenter"",""0"",""7409""
","
",3048.0049999896437,<img style='border: 4px solid darkgrey;' src='img/tf1_5_M_ss1.jpeg'></img>,2,NA,exp,NA,0,<img src='img/tf1_5_T1_ss1_md.jpeg'></img>,0,TRUE,NA,sub98
NA,html-keyboard-response,23,73606,0.0-10.0-0.5,"""event"",""trial"",""time""
""focus"",""0"",""2335""
""fullscreenenter"",""0"",""7409""
","
","""event"",""trial"",""time""
""focus"",""0"",""2335""
","""event"",""trial"",""time""
""fullscreenenter"",""0"",""7409""
","
",null,"<div style=""font-size:60px;"">+</div>",NA,null,fixation,2020-06-25T02:36:11Z,NA,NA,NA,NA,NA,sub98
NA,mars-trial,24,88453,0.0-10.0-1.5,"""event"",""trial"",""time""
""focus"",""0"",""2335""
""fullscreenenter"",""0"",""7409""
","
","""event"",""trial"",""time""
""focus"",""0"",""2335""
","""event"",""trial"",""time""
""fullscreenenter"",""0"",""7409""
","
",14240.824999986216,<img style='border: 4px solid darkgrey;' src='img/tf1_6_M_ss2.jpeg'></img>,2,NA,exp,NA,3,<img src='img/tf1_6_T1_ss2_md.jpeg'></img>,0,FALSE,NA,sub98
NA,html-keyboard-response,25,88956,0.0-10.0-0.6,"""event"",""trial"",""time""
""focus"",""0"",""2335""
""fullscreenenter"",""0"",""7409""
","
","""event"",""trial"",""time""
""focus"",""0"",""2335""
","""event"",""trial"",""time""
""fullscreenenter"",""0"",""7409""
","
",null,"<div style=""font-size:60px;"">+</div>",NA,null,fixation,2020-06-25T02:36:26Z,NA,NA,NA,NA,NA,sub98
NA,mars-trial,26,100257,0.0-10.0-1.6,"""event"",""trial"",""time""
""focus"",""0"",""2335""
""fullscreenenter"",""0"",""7409""
","
","""event"",""trial"",""time""
""focus"",""0"",""2335""
","""event"",""trial"",""time""
""fullscreenenter"",""0"",""7409""
","
",10694.779999990715,<img style='border: 4px solid darkgrey;' src='img/tf1_7_M_ss3.jpeg'></img>,2,NA,exp,NA,0,<img src='img/tf1_7_T1_ss3_md.jpeg'></img>,0,TRUE,NA,sub98
NA,html-keyboard-response,27,100763,0.0-10.0-0.7,"""event"",""trial"",""time""
""focus"",""0"",""2335""
""fullscreenenter"",""0"",""7409""
","
","""event"",""trial"",""time""
""focus"",""0"",""2335""
","""event"",""trial"",""time""
""fullscreenenter"",""0"",""7409""
","
",null,"<div style=""font-size:60px;"">+</div>",NA,null,fixation,2020-06-25T02:36:38Z,NA,NA,NA,NA,NA,sub98
NA,mars-trial,28,106592,0.0-10.0-1.7,"""event"",""trial"",""time""
""focus"",""0"",""2335""
""fullscreenenter"",""0"",""7409""
","
","""event"",""trial"",""time""
""focus"",""0"",""2335""
","""event"",""trial"",""time""
""fullscreenenter"",""0"",""7409""
","
",5222.925000009127,<img style='border: 4px solid darkgrey;' src='img/tf1_8_M_ss1.jpeg'></img>,0,NA,exp,NA,0,<img src='img/tf1_8_T1_ss1_md.jpeg'></img>,0,TRUE,NA,sub98
NA,html-keyboard-response,29,107099,0.0-10.0-0.8,"""event"",""trial"",""time""
""focus"",""0"",""2335""
""fullscreenenter"",""0"",""7409""
","
","""event"",""trial"",""time""
""focus"",""0"",""2335""
","""event"",""trial"",""time""
""fullscreenenter"",""0"",""7409""
","
",null,"<div style=""font-size:60px;"">+</div>",NA,null,fixation,2020-06-25T02:36:44Z,NA,NA,NA,NA,NA,sub98
NA,mars-trial,30,113584,0.0-10.0-1.8,"""event"",""trial"",""time""
""focus"",""0"",""2335""
""fullscreenenter"",""0"",""7409""
","
","""event"",""trial"",""time""
""focus"",""0"",""2335""
","""event"",""trial"",""time""
""fullscreenenter"",""0"",""7409""
","
",5875.264999980573,<img style='border: 4px solid darkgrey;' src='img/tf1_9_M_ss2.jpeg'></img>,3,NA,exp,NA,0,<img src='img/tf1_9_T1_ss2_md.jpeg'></img>,0,TRUE,NA,sub98
NA,html-keyboard-response,31,114086,0.0-10.0-0.9,"""event"",""trial"",""time""
""focus"",""0"",""2335""
""fullscreenenter"",""0"",""7409""
","
","""event"",""trial"",""time""
""focus"",""0"",""2335""
","""event"",""trial"",""time""
""fullscreenenter"",""0"",""7409""
","
",null,"<div style=""font-size:60px;"">+</div>",NA,null,fixation,2020-06-25T02:36:51Z,NA,NA,NA,NA,NA,sub98
NA,mars-trial,32,137056,0.0-10.0-1.9,"""event"",""trial"",""time""
""focus"",""0"",""2335""
""fullscreenenter"",""0"",""7409""
","
","""event"",""trial"",""time""
""focus"",""0"",""2335""
","""event"",""trial"",""time""
""fullscreenenter"",""0"",""7409""
","
",22362.854999984847,<img style='border: 4px solid darkgrey;' src='img/tf1_10_M_ss3.jpeg'></img>,1,NA,exp,NA,0,<img src='img/tf1_10_T1_ss3_md.jpeg'></img>,0,TRUE,NA,sub98
NA,html-keyboard-response,33,137563,0.0-10.0-0.10,"""event"",""trial"",""time""
""focus"",""0"",""2335""
""fullscreenenter"",""0"",""7409""
","
","""event"",""trial"",""time""
""focus"",""0"",""2335""
","""event"",""trial"",""time""
""fullscreenenter"",""0"",""7409""
","
",null,"<div style=""font-size:60px;"">+</div>",NA,null,fixation,2020-06-25T02:37:15Z,NA,NA,NA,NA,NA,sub98
NA,mars-trial,34,143403,0.0-10.0-1.10,"""event"",""trial"",""time""
""focus"",""0"",""2335""
""fullscreenenter"",""0"",""7409""
","
","""event"",""trial"",""time""
""focus"",""0"",""2335""
","""event"",""trial"",""time""
""fullscreenenter"",""0"",""7409""
","
",5228.629999997793,<img style='border: 4px solid darkgrey;' src='img/tf1_11_M_ss1.jpeg'></img>,3,NA,exp,NA,2,<img src='img/tf1_11_T1_ss1_md.jpeg'></img>,0,FALSE,NA,sub98
NA,html-keyboard-response,35,143909,0.0-10.0-0.11,"""event"",""trial"",""time""
""focus"",""0"",""2335""
""fullscreenenter"",""0"",""7409""
","
","""event"",""trial"",""time""
""focus"",""0"",""2335""
","""event"",""trial"",""time""
""fullscreenenter"",""0"",""7409""
","
",null,"<div style=""font-size:60px;"">+</div>",NA,null,fixation,2020-06-25T02:37:21Z,NA,NA,NA,NA,NA,sub98
NA,mars-trial,36,148161,0.0-10.0-1.11,"""event"",""trial"",""time""
""focus"",""0"",""2335""
""fullscreenenter"",""0"",""7409""
","
","""event"",""trial"",""time""
""focus"",""0"",""2335""
","""event"",""trial"",""time""
""fullscreenenter"",""0"",""7409""
","
",3640.530000004219,<img style='border: 4px solid darkgrey;' src='img/tf1_12_M_ss2.jpeg'></img>,3,NA,exp,NA,1,<img src='img/tf1_12_T1_ss2_md.jpeg'></img>,0,FALSE,NA,sub98
NA,html-keyboard-response,37,148664,0.0-10.0-0.12,"""event"",""trial"",""time""
""focus"",""0"",""2335""
""fullscreenenter"",""0"",""7409""
","
","""event"",""trial"",""time""
""focus"",""0"",""2335""
","""event"",""trial"",""time""
""fullscreenenter"",""0"",""7409""
","
",null,"<div style=""font-size:60px;"">+</div>",NA,null,fixation,2020-06-25T02:37:26Z,NA,NA,NA,NA,NA,sub98
NA,mars-trial,38,158883,0.0-10.0-1.12,"""event"",""trial"",""time""
""focus"",""0"",""2335""
""fullscreenenter"",""0"",""7409""
","
","""event"",""trial"",""time""
""focus"",""0"",""2335""
","""event"",""trial"",""time""
""fullscreenenter"",""0"",""7409""
","
",9609.729999996489,<img style='border: 4px solid darkgrey;' src='img/tf1_13_M_ss3.jpeg'></img>,2,NA,exp,NA,1,<img src='img/tf1_13_T1_ss3_md.jpeg'></img>,0,FALSE,NA,sub98
NA,html-keyboard-response,39,159386,0.0-10.0-0.13,"""event"",""trial"",""time""
""focus"",""0"",""2335""
""fullscreenenter"",""0"",""7409""
","
","""event"",""trial"",""time""
""focus"",""0"",""2335""
","""event"",""trial"",""time""
""fullscreenenter"",""0"",""7409""
","
",null,"<div style=""font-size:60px;"">+</div>",NA,null,fixation,2020-06-25T02:37:36Z,NA,NA,NA,NA,NA,sub98
NA,mars-trial,40,175620,0.0-10.0-1.13,"""event"",""trial"",""time""
""focus"",""0"",""2335""
""fullscreenenter"",""0"",""7409""
","
","""event"",""trial"",""time""
""focus"",""0"",""2335""
","""event"",""trial"",""time""
""fullscreenenter"",""0"",""7409""
","
",15625.984999991488,<img style='border: 4px solid darkgrey;' src='img/tf1_14_M_ss1.jpeg'></img>,2,NA,exp,NA,2,<img src='img/tf1_14_T1_ss1_md.jpeg'></img>,0,FALSE,NA,sub98
NA,html-keyboard-response,41,176124,0.0-10.0-0.14,"""event"",""trial"",""time""
""focus"",""0"",""2335""
""fullscreenenter"",""0"",""7409""
","
","""event"",""trial"",""time""
""focus"",""0"",""2335""
","""event"",""trial"",""time""
""fullscreenenter"",""0"",""7409""
","
",null,"<div style=""font-size:60px;"">+</div>",NA,null,fixation,2020-06-25T02:37:53Z,NA,NA,NA,NA,NA,sub98
NA,mars-trial,42,182506,0.0-10.0-1.14,"""event"",""trial"",""time""
""focus"",""0"",""2335""
""fullscreenenter"",""0"",""7409""
","
","""event"",""trial"",""time""
""focus"",""0"",""2335""
","""event"",""trial"",""time""
""fullscreenenter"",""0"",""7409""
","
",5774.12000001641,<img style='border: 4px solid darkgrey;' src='img/tf1_15_M_ss2.jpeg'></img>,0,NA,exp,NA,1,<img src='img/tf1_15_T1_ss2_md.jpeg'></img>,0,FALSE,NA,sub98
NA,html-keyboard-response,43,183011,0.0-10.0-0.15,"""event"",""trial"",""time""
""focus"",""0"",""2335""
""fullscreenenter"",""0"",""7409""
","
","""event"",""trial"",""time""
""focus"",""0"",""2335""
","""event"",""trial"",""time""
""fullscreenenter"",""0"",""7409""
","
",null,"<div style=""font-size:60px;"">+</div>",NA,null,fixation,2020-06-25T02:38:00Z,NA,NA,NA,NA,NA,sub98
NA,mars-trial,44,187590,0.0-10.0-1.15,"""event"",""trial"",""time""
""focus"",""0"",""2335""
""fullscreenenter"",""0"",""7409""
","
","""event"",""trial"",""time""
""focus"",""0"",""2335""
","""event"",""trial"",""time""
""fullscreenenter"",""0"",""7409""
","
",3968.105000007199,<img style='border: 4px solid darkgrey;' src='img/tf1_16_M_ss3.jpeg'></img>,1,NA,exp,NA,3,<img src='img/tf1_16_T1_ss3_md.jpeg'></img>,0,FALSE,NA,sub98
NA,html-keyboard-response,45,188095,0.0-10.0-0.16,"""event"",""trial"",""time""
""focus"",""0"",""2335""
""fullscreenenter"",""0"",""7409""
","
","""event"",""trial"",""time""
""focus"",""0"",""2335""
","""event"",""trial"",""time""
""fullscreenenter"",""0"",""7409""
","
",null,"<div style=""font-size:60px;"">+</div>",NA,null,fixation,2020-06-25T02:38:05Z,NA,NA,NA,NA,NA,sub98
NA,mars-trial,46,218203,0.0-10.0-1.16,"""event"",""trial"",""time""
""focus"",""0"",""2335""
""fullscreenenter"",""0"",""7409""
","
","""event"",""trial"",""time""
""focus"",""0"",""2335""
","""event"",""trial"",""time""
""fullscreenenter"",""0"",""7409""
","
",null,<img style='border: 4px solid darkgrey;' src='img/tf1_17_M_ss1.jpeg'></img>,null,NA,exp,NA,null,<img src='img/tf1_17_T1_ss1_md.jpeg'></img>,0,FALSE,NA,sub98
NA,html-keyboard-response,47,218706,0.0-10.0-0.17,"""event"",""trial"",""time""
""focus"",""0"",""2335""
""fullscreenenter"",""0"",""7409""
","
","""event"",""trial"",""time""
""focus"",""0"",""2335""
","""event"",""trial"",""time""
""fullscreenenter"",""0"",""7409""
","
",null,"<div style=""font-size:60px;"">+</div>",NA,null,fixation,2020-06-25T02:38:36Z,NA,NA,NA,NA,NA,sub98
NA,mars-trial,48,227620,0.0-10.0-1.17,"""event"",""trial"",""time""
""focus"",""0"",""2335""
""fullscreenenter"",""0"",""7409""
","
","""event"",""trial"",""time""
""focus"",""0"",""2335""
","""event"",""trial"",""time""
""fullscreenenter"",""0"",""7409""
","
",8302.939999994123,<img style='border: 4px solid darkgrey;' src='img/tf1_18_M_ss2.jpeg'></img>,2,NA,exp,NA,3,<img src='img/tf1_18_T1_ss2_md.jpeg'></img>,0,FALSE,NA,sub98
NA,html-keyboard-response,49,228123,0.0-10.0-0.18,"""event"",""trial"",""time""
""focus"",""0"",""2335""
""fullscreenenter"",""0"",""7409""
","
","""event"",""trial"",""time""
""focus"",""0"",""2335""
","""event"",""trial"",""time""
""fullscreenenter"",""0"",""7409""
","
",null,"<div style=""font-size:60px;"">+</div>",NA,null,fixation,2020-06-25T02:38:45Z,NA,NA,NA,NA,NA,sub98
NA,mars-trial,50,233033,0.0-10.0-1.18,"""event"",""trial"",""time""
""focus"",""0"",""2335""
""fullscreenenter"",""0"",""7409""
","
","""event"",""trial"",""time""
""focus"",""0"",""2335""
","""event"",""trial"",""time""
""fullscreenenter"",""0"",""7409""
","
",4299.100000003818,<img style='border: 4px solid darkgrey;' src='img/tf1_19_M_ss3.jpeg'></img>,2,NA,exp,NA,3,<img src='img/tf1_19_T1_ss3_md.jpeg'></img>,0,FALSE,NA,sub98
NA,html-keyboard-response,51,233538,0.0-10.0-0.19,"""event"",""trial"",""time""
""focus"",""0"",""2335""
""fullscreenenter"",""0"",""7409""
","
","""event"",""trial"",""time""
""focus"",""0"",""2335""
","""event"",""trial"",""time""
""fullscreenenter"",""0"",""7409""
","
",null,"<div style=""font-size:60px;"">+</div>",NA,null,fixation,2020-06-25T02:38:51Z,NA,NA,NA,NA,NA,sub98
NA,mars-trial,52,238240,0.0-10.0-1.19,"""event"",""trial"",""time""
""focus"",""0"",""2335""
""fullscreenenter"",""0"",""7409""
","
","""event"",""trial"",""time""
""focus"",""0"",""2335""
","""event"",""trial"",""time""
""fullscreenenter"",""0"",""7409""
","
",4091.9749999884516,<img style='border: 4px solid darkgrey;' src='img/tf1_20_M_ss1.jpeg'></img>,0,NA,exp,NA,3,<img src='img/tf1_20_T1_ss1_md.jpeg'></img>,0,FALSE,NA,sub98
NA,html-keyboard-response,53,238742,0.0-10.0-0.20,"""event"",""trial"",""time""
""focus"",""0"",""2335""
""fullscreenenter"",""0"",""7409""
","
","""event"",""trial"",""time""
""focus"",""0"",""2335""
","""event"",""trial"",""time""
""fullscreenenter"",""0"",""7409""
","
",null,"<div style=""font-size:60px;"">+</div>",NA,null,fixation,2020-06-25T02:38:56Z,NA,NA,NA,NA,NA,sub98
NA,mars-trial,54,240688,0.0-10.0-1.20,"""event"",""trial"",""time""
""focus"",""0"",""2335""
""fullscreenenter"",""0"",""7409""
","
","""event"",""trial"",""time""
""focus"",""0"",""2335""
","""event"",""trial"",""time""
""fullscreenenter"",""0"",""7409""
","
",1337.0500000019092,<img style='border: 4px solid darkgrey;' src='img/tf1_21_M_ss2.jpeg'></img>,2,NA,exp,NA,1,<img src='img/tf1_21_T1_ss2_md.jpeg'></img>,0,FALSE,NA,sub98
NA,html-keyboard-response,55,241194,0.0-10.0-0.21,"""event"",""trial"",""time""
""focus"",""0"",""2335""
""fullscreenenter"",""0"",""7409""
","
","""event"",""trial"",""time""
""focus"",""0"",""2335""
","""event"",""trial"",""time""
""fullscreenenter"",""0"",""7409""
","
",null,"<div style=""font-size:60px;"">+</div>",NA,null,fixation,2020-06-25T02:38:58Z,NA,NA,NA,NA,NA,sub98
NA,mars-trial,56,246362,0.0-10.0-1.21,"""event"",""trial"",""time""
""focus"",""0"",""2335""
""fullscreenenter"",""0"",""7409""
","
","""event"",""trial"",""time""
""focus"",""0"",""2335""
","""event"",""trial"",""time""
""fullscreenenter"",""0"",""7409""
","
",4561.909999989439,<img style='border: 4px solid darkgrey;' src='img/tf1_22_M_ss3.jpeg'></img>,1,NA,exp,NA,0,<img src='img/tf1_22_T1_ss3_md.jpeg'></img>,0,TRUE,NA,sub98
NA,html-keyboard-response,57,246866,0.0-10.0-0.22,"""event"",""trial"",""time""
""focus"",""0"",""2335""
""fullscreenenter"",""0"",""7409""
","
","""event"",""trial"",""time""
""focus"",""0"",""2335""
","""event"",""trial"",""time""
""fullscreenenter"",""0"",""7409""
","
",null,"<div style=""font-size:60px;"">+</div>",NA,null,fixation,2020-06-25T02:39:04Z,NA,NA,NA,NA,NA,sub98
NA,mars-trial,58,251564,0.0-10.0-1.22,"""event"",""trial"",""time""
""focus"",""0"",""2335""
""fullscreenenter"",""0"",""7409""
","
","""event"",""trial"",""time""
""focus"",""0"",""2335""
","""event"",""trial"",""time""
""fullscreenenter"",""0"",""7409""
","
",4087.265000009211,<img style='border: 4px solid darkgrey;' src='img/tf1_23_M_ss1.jpeg'></img>,2,NA,exp,NA,3,<img src='img/tf1_23_T1_ss1_md.jpeg'></img>,0,FALSE,NA,sub98
NA,html-keyboard-response,59,252069,0.0-10.0-0.23,"""event"",""trial"",""time""
""focus"",""0"",""2335""
""fullscreenenter"",""0"",""7409""
","
","""event"",""trial"",""time""
""focus"",""0"",""2335""
","""event"",""trial"",""time""
""fullscreenenter"",""0"",""7409""
","
",null,"<div style=""font-size:60px;"">+</div>",NA,null,fixation,2020-06-25T02:39:09Z,NA,NA,NA,NA,NA,sub98
NA,mars-trial,60,269508,0.0-10.0-1.23,"""event"",""trial"",""time""
""focus"",""0"",""2335""
""fullscreenenter"",""0"",""7409""
","
","""event"",""trial"",""time""
""focus"",""0"",""2335""
","""event"",""trial"",""time""
""fullscreenenter"",""0"",""7409""
","
",16828.650000010384,<img style='border: 4px solid darkgrey;' src='img/tf1_24_M_ss2.jpeg'></img>,2,NA,exp,NA,2,<img src='img/tf1_24_T1_ss2_md.jpeg'></img>,0,FALSE,NA,sub98
NA,html-keyboard-response,61,270011,0.0-10.0-0.24,"""event"",""trial"",""time""
""focus"",""0"",""2335""
""fullscreenenter"",""0"",""7409""
","
","""event"",""trial"",""time""
""focus"",""0"",""2335""
","""event"",""trial"",""time""
""fullscreenenter"",""0"",""7409""
","
",null,"<div style=""font-size:60px;"">+</div>",NA,null,fixation,2020-06-25T02:39:27Z,NA,NA,NA,NA,NA,sub98
NA,mars-trial,62,284451,0.0-10.0-1.24,"""event"",""trial"",""time""
""focus"",""0"",""2335""
""fullscreenenter"",""0"",""7409""
","
","""event"",""trial"",""time""
""focus"",""0"",""2335""
","""event"",""trial"",""time""
""fullscreenenter"",""0"",""7409""
","
",13830.64000000013,<img style='border: 4px solid darkgrey;' src='img/tf1_25_M_ss3.jpeg'></img>,3,NA,exp,NA,1,<img src='img/tf1_25_T1_ss3_md.jpeg'></img>,0,FALSE,NA,sub98
NA,html-keyboard-response,63,284953,0.0-10.0-0.25,"""event"",""trial"",""time""
""focus"",""0"",""2335""
""fullscreenenter"",""0"",""7409""
","
","""event"",""trial"",""time""
""focus"",""0"",""2335""
","""event"",""trial"",""time""
""fullscreenenter"",""0"",""7409""
","
",null,"<div style=""font-size:60px;"">+</div>",NA,null,fixation,2020-06-25T02:39:42Z,NA,NA,NA,NA,NA,sub98
NA,mars-trial,64,303089,0.0-10.0-1.25,"""event"",""trial"",""time""
""focus"",""0"",""2335""
""fullscreenenter"",""0"",""7409""
","
","""event"",""trial"",""time""
""focus"",""0"",""2335""
","""event"",""trial"",""time""
""fullscreenenter"",""0"",""7409""
","
",17526.819999999134,<img style='border: 4px solid darkgrey;' src='img/tf1_26_M_ss1.jpeg'></img>,1,NA,exp,NA,2,<img src='img/tf1_26_T1_ss1_md.jpeg'></img>,0,FALSE,NA,sub98
NA,html-keyboard-response,65,303596,0.0-10.0-0.26,"""event"",""trial"",""time""
""focus"",""0"",""2335""
""fullscreenenter"",""0"",""7409""
","
","""event"",""trial"",""time""
""focus"",""0"",""2335""
","""event"",""trial"",""time""
""fullscreenenter"",""0"",""7409""
","
",null,"<div style=""font-size:60px;"">+</div>",NA,null,fixation,2020-06-25T02:40:01Z,NA,NA,NA,NA,NA,sub98
NA,mars-trial,66,333704,0.0-10.0-1.26,"""event"",""trial"",""time""
""focus"",""0"",""2335""
""fullscreenenter"",""0"",""7409""
","
","""event"",""trial"",""time""
""focus"",""0"",""2335""
","""event"",""trial"",""time""
""fullscreenenter"",""0"",""7409""
","
",null,<img style='border: 4px solid darkgrey;' src='img/tf1_27_M_ss2.jpeg'></img>,null,NA,exp,NA,null,<img src='img/tf1_27_T1_ss2_md.jpeg'></img>,0,FALSE,NA,sub98
NA,html-keyboard-response,67,334209,0.0-10.0-0.27,"""event"",""trial"",""time""
""focus"",""0"",""2335""
""fullscreenenter"",""0"",""7409""
","
","""event"",""trial"",""time""
""focus"",""0"",""2335""
","""event"",""trial"",""time""
""fullscreenenter"",""0"",""7409""
","
",null,"<div style=""font-size:60px;"">+</div>",NA,null,fixation,2020-06-25T02:40:31Z,NA,NA,NA,NA,NA,sub98
NA,mars-trial,68,339851,0.0-10.0-1.27,"""event"",""trial"",""time""
""focus"",""0"",""2335""
""fullscreenenter"",""0"",""7409""
","
","""event"",""trial"",""time""
""focus"",""0"",""2335""
","""event"",""trial"",""time""
""fullscreenenter"",""0"",""7409""
","
",5028.165000025183,<img style='border: 4px solid darkgrey;' src='img/tf1_28_M_ss3.jpeg'></img>,2,NA,exp,NA,2,<img src='img/tf1_28_T1_ss3_md.jpeg'></img>,0,FALSE,NA,sub98
NA,html-keyboard-response,69,340356,0.0-10.0-0.28,"""event"",""trial"",""time""
""focus"",""0"",""2335""
""fullscreenenter"",""0"",""7409""
","
","""event"",""trial"",""time""
""focus"",""0"",""2335""
","""event"",""trial"",""time""
""fullscreenenter"",""0"",""7409""
","
",null,"<div style=""font-size:60px;"">+</div>",NA,null,fixation,2020-06-25T02:40:37Z,NA,NA,NA,NA,NA,sub98
NA,mars-trial,70,343120,0.0-10.0-1.28,"""event"",""trial"",""time""
""focus"",""0"",""2335""
""fullscreenenter"",""0"",""7409""
","
","""event"",""trial"",""time""
""focus"",""0"",""2335""
","""event"",""trial"",""time""
""fullscreenenter"",""0"",""7409""
","
",2148.829999990994,<img style='border: 4px solid darkgrey;' src='img/tf1_29_M_ss1.jpeg'></img>,3,NA,exp,NA,1,<img src='img/tf1_29_T1_ss1_md.jpeg'></img>,0,FALSE,NA,sub98
NA,html-keyboard-response,71,343622,0.0-10.0-0.29,"""event"",""trial"",""time""
""focus"",""0"",""2335""
""fullscreenenter"",""0"",""7409""
","
","""event"",""trial"",""time""
""focus"",""0"",""2335""
","""event"",""trial"",""time""
""fullscreenenter"",""0"",""7409""
","
",null,"<div style=""font-size:60px;"">+</div>",NA,null,fixation,2020-06-25T02:40:41Z,NA,NA,NA,NA,NA,sub98
NA,mars-trial,72,347671,0.0-10.0-1.29,"""event"",""trial"",""time""
""focus"",""0"",""2335""
""fullscreenenter"",""0"",""7409""
","
","""event"",""trial"",""time""
""focus"",""0"",""2335""
","""event"",""trial"",""time""
""fullscreenenter"",""0"",""7409""
","
",3439.9450000200886,<img style='border: 4px solid darkgrey;' src='img/tf1_30_M_ss2.jpeg'></img>,1,NA,exp,NA,3,<img src='img/tf1_30_T1_ss2_md.jpeg'></img>,0,FALSE,NA,sub98
NA,html-keyboard-response,73,348175,0.0-10.0-0.30,"""event"",""trial"",""time""
""focus"",""0"",""2335""
""fullscreenenter"",""0"",""7409""
","
","""event"",""trial"",""time""
""focus"",""0"",""2335""
","""event"",""trial"",""time""
""fullscreenenter"",""0"",""7409""
","
",null,"<div style=""font-size:60px;"">+</div>",NA,null,fixation,2020-06-25T02:40:45Z,NA,NA,NA,NA,NA,sub98
NA,mars-trial,74,349796,0.0-10.0-1.30,"""event"",""trial"",""time""
""focus"",""0"",""2335""
""fullscreenenter"",""0"",""7409""
","
","""event"",""trial"",""time""
""focus"",""0"",""2335""
","""event"",""trial"",""time""
""fullscreenenter"",""0"",""7409""
","
",1013.0150000040885,<img style='border: 4px solid darkgrey;' src='img/tf1_31_M_ss3.jpeg'></img>,2,NA,exp,NA,0,<img src='img/tf1_31_T1_ss3_md.jpeg'></img>,0,TRUE,NA,sub98
NA,html-keyboard-response,75,350302,0.0-10.0-0.31,"""event"",""trial"",""time""
""focus"",""0"",""2335""
""fullscreenenter"",""0"",""7409""
","
","""event"",""trial"",""time""
""focus"",""0"",""2335""
","""event"",""trial"",""time""
""fullscreenenter"",""0"",""7409""
","
",null,"<div style=""font-size:60px;"">+</div>",NA,null,fixation,2020-06-25T02:40:47Z,NA,NA,NA,NA,NA,sub98
NA,mars-trial,76,355921,0.0-10.0-1.31,"""event"",""trial"",""time""
""focus"",""0"",""2335""
""fullscreenenter"",""0"",""7409""
","
","""event"",""trial"",""time""
""focus"",""0"",""2335""
","""event"",""trial"",""time""
""fullscreenenter"",""0"",""7409""
","
",5012.625000003027,<img style='border: 4px solid darkgrey;' src='img/tf1_32_M_ss1.jpeg'></img>,2,NA,exp,NA,0,<img src='img/tf1_32_T1_ss1_md.jpeg'></img>,0,TRUE,NA,sub98
NA,html-keyboard-response,77,356428,0.0-10.0-0.32,"""event"",""trial"",""time""
""focus"",""0"",""2335""
""fullscreenenter"",""0"",""7409""
","
","""event"",""trial"",""time""
""focus"",""0"",""2335""
","""event"",""trial"",""time""
""fullscreenenter"",""0"",""7409""
","
",null,"<div style=""font-size:60px;"">+</div>",NA,null,fixation,2020-06-25T02:40:54Z,NA,NA,NA,NA,NA,sub98
NA,mars-trial,78,363211,0.0-10.0-1.32,"""event"",""trial"",""time""
""focus"",""0"",""2335""
""fullscreenenter"",""0"",""7409""
","
","""event"",""trial"",""time""
""focus"",""0"",""2335""
","""event"",""trial"",""time""
""fullscreenenter"",""0"",""7409""
","
",6172.205000009853,<img style='border: 4px solid darkgrey;' src='img/tf1_33_M_ss2.jpeg'></img>,1,NA,exp,NA,0,<img src='img/tf1_33_T1_ss2_md.jpeg'></img>,0,TRUE,NA,sub98
NA,html-keyboard-response,79,363713,0.0-10.0-0.33,"""event"",""trial"",""time""
""focus"",""0"",""2335""
""fullscreenenter"",""0"",""7409""
","
","""event"",""trial"",""time""
""focus"",""0"",""2335""
","""event"",""trial"",""time""
""fullscreenenter"",""0"",""7409""
","
",null,"<div style=""font-size:60px;"">+</div>",NA,null,fixation,2020-06-25T02:41:01Z,NA,NA,NA,NA,NA,sub98
NA,mars-trial,80,366073,0.0-10.0-1.33,"""event"",""trial"",""time""
""focus"",""0"",""2335""
""fullscreenenter"",""0"",""7409""
","
","""event"",""trial"",""time""
""focus"",""0"",""2335""
","""event"",""trial"",""time""
""fullscreenenter"",""0"",""7409""
","
",1752.5949999981094,<img style='border: 4px solid darkgrey;' src='img/tf1_34_M_ss3.jpeg'></img>,1,NA,exp,NA,1,<img src='img/tf1_34_T1_ss3_md.jpeg'></img>,0,FALSE,NA,sub98
NA,html-keyboard-response,81,366577,0.0-10.0-0.34,"""event"",""trial"",""time""
""focus"",""0"",""2335""
""fullscreenenter"",""0"",""7409""
","
","""event"",""trial"",""time""
""focus"",""0"",""2335""
","""event"",""trial"",""time""
""fullscreenenter"",""0"",""7409""
","
",null,"<div style=""font-size:60px;"">+</div>",NA,null,fixation,2020-06-25T02:41:04Z,NA,NA,NA,NA,NA,sub98
NA,mars-trial,82,368429,0.0-10.0-1.34,"""event"",""trial"",""time""
""focus"",""0"",""2335""
""fullscreenenter"",""0"",""7409""
","
","""event"",""trial"",""time""
""focus"",""0"",""2335""
","""event"",""trial"",""time""
""fullscreenenter"",""0"",""7409""
","
",1241.1499999871012,<img style='border: 4px solid darkgrey;' src='img/tf1_35_M_ss1.jpeg'></img>,2,NA,exp,NA,0,<img src='img/tf1_35_T1_ss1_md.jpeg'></img>,0,TRUE,NA,sub98
NA,html-keyboard-response,83,368933,0.0-10.0-0.35,"""event"",""trial"",""time""
""focus"",""0"",""2335""
""fullscreenenter"",""0"",""7409""
","
","""event"",""trial"",""time""
""focus"",""0"",""2335""
","""event"",""trial"",""time""
""fullscreenenter"",""0"",""7409""
","
",null,"<div style=""font-size:60px;"">+</div>",NA,null,fixation,2020-06-25T02:41:06Z,NA,NA,NA,NA,NA,sub98
NA,mars-trial,84,372048,0.0-10.0-1.35,"""event"",""trial"",""time""
""focus"",""0"",""2335""
""fullscreenenter"",""0"",""7409""
","
","""event"",""trial"",""time""
""focus"",""0"",""2335""
","""event"",""trial"",""time""
""fullscreenenter"",""0"",""7409""
","
",2504.2350000003353,<img style='border: 4px solid darkgrey;' src='img/tf1_36_M_ss2.jpeg'></img>,2,NA,exp,NA,2,<img src='img/tf1_36_T1_ss2_md.jpeg'></img>,0,FALSE,NA,sub98
NA,html-keyboard-response,85,372551,0.0-10.0-0.36,"""event"",""trial"",""time""
""focus"",""0"",""2335""
""fullscreenenter"",""0"",""7409""
","
","""event"",""trial"",""time""
""focus"",""0"",""2335""
","""event"",""trial"",""time""
""fullscreenenter"",""0"",""7409""
","
",null,"<div style=""font-size:60px;"">+</div>",NA,null,fixation,2020-06-25T02:41:10Z,NA,NA,NA,NA,NA,sub98
NA,mars-trial,86,374163,0.0-10.0-1.36,"""event"",""trial"",""time""
""focus"",""0"",""2335""
""fullscreenenter"",""0"",""7409""
","
","""event"",""trial"",""time""
""focus"",""0"",""2335""
","""event"",""trial"",""time""
""fullscreenenter"",""0"",""7409""
","
",998.3249999932013,<img style='border: 4px solid darkgrey;' src='img/tf1_37_M_ss3.jpeg'></img>,1,NA,exp,NA,1,<img src='img/tf1_37_T1_ss3_md.jpeg'></img>,0,FALSE,NA,sub98
NA,html-keyboard-response,87,374664,0.0-10.0-0.37,"""event"",""trial"",""time""
""focus"",""0"",""2335""
""fullscreenenter"",""0"",""7409""
","
","""event"",""trial"",""time""
""focus"",""0"",""2335""
","""event"",""trial"",""time""
""fullscreenenter"",""0"",""7409""
","
",null,"<div style=""font-size:60px;"">+</div>",NA,null,fixation,2020-06-25T02:41:12Z,NA,NA,NA,NA,NA,sub98
NA,mars-trial,88,376422,0.0-10.0-1.37,"""event"",""trial"",""time""
""focus"",""0"",""2335""
""fullscreenenter"",""0"",""7409""
","
","""event"",""trial"",""time""
""focus"",""0"",""2335""
","""event"",""trial"",""time""
""fullscreenenter"",""0"",""7409""
","
",1147.8400000196416,<img style='border: 4px solid darkgrey;' src='img/tf1_38_M_ss1.jpeg'></img>,1,NA,exp,NA,3,<img src='img/tf1_38_T1_ss1_md.jpeg'></img>,0,FALSE,NA,sub98
NA,html-keyboard-response,89,376925,0.0-10.0-0.38,"""event"",""trial"",""time""
""focus"",""0"",""2335""
""fullscreenenter"",""0"",""7409""
","
","""event"",""trial"",""time""
""focus"",""0"",""2335""
","""event"",""trial"",""time""
""fullscreenenter"",""0"",""7409""
","
",null,"<div style=""font-size:60px;"">+</div>",NA,null,fixation,2020-06-25T02:41:14Z,NA,NA,NA,NA,NA,sub98
NA,mars-trial,90,378914,0.0-10.0-1.38,"""event"",""trial"",""time""
""focus"",""0"",""2335""
""fullscreenenter"",""0"",""7409""
","
","""event"",""trial"",""time""
""focus"",""0"",""2335""
","""event"",""trial"",""time""
""fullscreenenter"",""0"",""7409""
","
",1382.4150000000373,<img style='border: 4px solid darkgrey;' src='img/tf1_39_M_ss2.jpeg'></img>,2,NA,exp,NA,3,<img src='img/tf1_39_T1_ss2_md.jpeg'></img>,0,FALSE,NA,sub98
NA,html-keyboard-response,91,379416,0.0-10.0-0.39,"""event"",""trial"",""time""
""focus"",""0"",""2335""
""fullscreenenter"",""0"",""7409""
","
","""event"",""trial"",""time""
""focus"",""0"",""2335""
","""event"",""trial"",""time""
""fullscreenenter"",""0"",""7409""
","
",null,"<div style=""font-size:60px;"">+</div>",NA,null,fixation,2020-06-25T02:41:16Z,NA,NA,NA,NA,NA,sub98
NA,mars-trial,92,383139,0.0-10.0-1.39,"""event"",""trial"",""time""
""focus"",""0"",""2335""
""fullscreenenter"",""0"",""7409""
","
","""event"",""trial"",""time""
""focus"",""0"",""2335""
","""event"",""trial"",""time""
""fullscreenenter"",""0"",""7409""
","
",3116.299999994226,<img style='border: 4px solid darkgrey;' src='img/tf1_40_M_ss3.jpeg'></img>,2,NA,exp,NA,3,<img src='img/tf1_40_T1_ss3_md.jpeg'></img>,0,FALSE,NA,sub98
NA,html-keyboard-response,93,383645,0.0-10.0-0.40,"""event"",""trial"",""time""
""focus"",""0"",""2335""
""fullscreenenter"",""0"",""7409""
","
","""event"",""trial"",""time""
""focus"",""0"",""2335""
","""event"",""trial"",""time""
""fullscreenenter"",""0"",""7409""
","
",null,"<div style=""font-size:60px;"">+</div>",NA,null,fixation,2020-06-25T02:41:21Z,NA,NA,NA,NA,NA,sub98
NA,mars-trial,94,388308,0.0-10.0-1.40,"""event"",""trial"",""time""
""focus"",""0"",""2335""
""fullscreenenter"",""0"",""7409""
","
","""event"",""trial"",""time""
""focus"",""0"",""2335""
","""event"",""trial"",""time""
""fullscreenenter"",""0"",""7409""
","
",4050.264999998035,<img style='border: 4px solid darkgrey;' src='img/tf1_41_M_ss1.jpeg'></img>,3,NA,exp,NA,0,<img src='img/tf1_41_T1_ss1_md.jpeg'></img>,0,TRUE,NA,sub98
NA,html-keyboard-response,95,388811,0.0-10.0-0.41,"""event"",""trial"",""time""
""focus"",""0"",""2335""
""fullscreenenter"",""0"",""7409""
","
","""event"",""trial"",""time""
""focus"",""0"",""2335""
","""event"",""trial"",""time""
""fullscreenenter"",""0"",""7409""
","
",null,"<div style=""font-size:60px;"">+</div>",NA,null,fixation,2020-06-25T02:41:26Z,NA,NA,NA,NA,NA,sub98
NA,mars-trial,96,397206,0.0-10.0-1.41,"""event"",""trial"",""time""
""focus"",""0"",""2335""
""fullscreenenter"",""0"",""7409""
","
","""event"",""trial"",""time""
""focus"",""0"",""2335""
","""event"",""trial"",""time""
""fullscreenenter"",""0"",""7409""
","
",7785.625000018626,<img style='border: 4px solid darkgrey;' src='img/tf1_42_M_ss2.jpeg'></img>,3,NA,exp,NA,1,<img src='img/tf1_42_T1_ss2_md.jpeg'></img>,0,FALSE,NA,sub98
NA,html-keyboard-response,97,397710,0.0-10.0-0.42,"""event"",""trial"",""time""
""focus"",""0"",""2335""
""fullscreenenter"",""0"",""7409""
","
","""event"",""trial"",""time""
""focus"",""0"",""2335""
","""event"",""trial"",""time""
""fullscreenenter"",""0"",""7409""
","
",null,"<div style=""font-size:60px;"">+</div>",NA,null,fixation,2020-06-25T02:41:35Z,NA,NA,NA,NA,NA,sub98
NA,mars-trial,98,399301,0.0-10.0-1.42,"""event"",""trial"",""time""
""focus"",""0"",""2335""
""fullscreenenter"",""0"",""7409""
","
","""event"",""trial"",""time""
""focus"",""0"",""2335""
","""event"",""trial"",""time""
""fullscreenenter"",""0"",""7409""
","
",978.64000001573,<img style='border: 4px solid darkgrey;' src='img/tf1_43_M_ss3.jpeg'></img>,2,NA,exp,NA,0,<img src='img/tf1_43_T1_ss3_md.jpeg'></img>,0,TRUE,NA,sub98
NA,html-keyboard-response,99,399805,0.0-10.0-0.43,"""event"",""trial"",""time""
""focus"",""0"",""2335""
""fullscreenenter"",""0"",""7409""
","
","""event"",""trial"",""time""
""focus"",""0"",""2335""
","""event"",""trial"",""time""
""fullscreenenter"",""0"",""7409""
","
",null,"<div style=""font-size:60px;"">+</div>",NA,null,fixation,2020-06-25T02:41:37Z,NA,NA,NA,NA,NA,sub98
NA,mars-trial,100,402284,0.0-10.0-1.43,"""event"",""trial"",""time""
""focus"",""0"",""2335""
""fullscreenenter"",""0"",""7409""
","
","""event"",""trial"",""time""
""focus"",""0"",""2335""
","""event"",""trial"",""time""
""fullscreenenter"",""0"",""7409""
","
",1864.7150000033434,<img style='border: 4px solid darkgrey;' src='img/tf1_44_M_ss1.jpeg'></img>,2,NA,exp,NA,0,<img src='img/tf1_44_T1_ss1_md.jpeg'></img>,0,TRUE,NA,sub98
NA,html-keyboard-response,101,402790,0.0-10.0-0.44,"""event"",""trial"",""time""
""focus"",""0"",""2335""
""fullscreenenter"",""0"",""7409""
","
","""event"",""trial"",""time""
""focus"",""0"",""2335""
","""event"",""trial"",""time""
""fullscreenenter"",""0"",""7409""
","
",null,"<div style=""font-size:60px;"">+</div>",NA,null,fixation,2020-06-25T02:41:40Z,NA,NA,NA,NA,NA,sub98
NA,mars-trial,102,406187,0.0-10.0-1.44,"""event"",""trial"",""time""
""focus"",""0"",""2335""
""fullscreenenter"",""0"",""7409""
","
","""event"",""trial"",""time""
""focus"",""0"",""2335""
","""event"",""trial"",""time""
""fullscreenenter"",""0"",""7409""
","
",2786.2050000112504,<img style='border: 4px solid darkgrey;' src='img/tf1_45_M_ss2.jpeg'></img>,2,NA,exp,NA,1,<img src='img/tf1_45_T1_ss2_md.jpeg'></img>,0,FALSE,NA,sub98
NA,html-keyboard-response,103,406690,0.0-10.0-0.45,"""event"",""trial"",""time""
""focus"",""0"",""2335""
""fullscreenenter"",""0"",""7409""
","
","""event"",""trial"",""time""
""focus"",""0"",""2335""
","""event"",""trial"",""time""
""fullscreenenter"",""0"",""7409""
","
",null,"<div style=""font-size:60px;"">+</div>",NA,null,fixation,2020-06-25T02:41:44Z,NA,NA,NA,NA,NA,sub98
NA,mars-trial,104,409196,0.0-10.0-1.45,"""event"",""trial"",""time""
""focus"",""0"",""2335""
""fullscreenenter"",""0"",""7409""
","
","""event"",""trial"",""time""
""focus"",""0"",""2335""
","""event"",""trial"",""time""
""fullscreenenter"",""0"",""7409""
","
",1896.2349999928847,<img style='border: 4px solid darkgrey;' src='img/tf1_46_M_ss3.jpeg'></img>,1,NA,exp,NA,1,<img src='img/tf1_46_T1_ss3_md.jpeg'></img>,0,FALSE,NA,sub98
NA,html-keyboard-response,105,409699,0.0-10.0-0.46,"""event"",""trial"",""time""
""focus"",""0"",""2335""
""fullscreenenter"",""0"",""7409""
","
","""event"",""trial"",""time""
""focus"",""0"",""2335""
","""event"",""trial"",""time""
""fullscreenenter"",""0"",""7409""
","
",null,"<div style=""font-size:60px;"">+</div>",NA,null,fixation,2020-06-25T02:41:47Z,NA,NA,NA,NA,NA,sub98
NA,mars-trial,106,411869,0.0-10.0-1.46,"""event"",""trial"",""time""
""focus"",""0"",""2335""
""fullscreenenter"",""0"",""7409""
","
","""event"",""trial"",""time""
""focus"",""0"",""2335""
","""event"",""trial"",""time""
""fullscreenenter"",""0"",""7409""
","
",1560.864999977639,<img style='border: 4px solid darkgrey;' src='img/tf1_47_M_ss1.jpeg'></img>,2,NA,exp,NA,0,<img src='img/tf1_47_T1_ss1_md.jpeg'></img>,0,TRUE,NA,sub98
NA,html-keyboard-response,107,412374,0.0-10.0-0.47,"""event"",""trial"",""time""
""focus"",""0"",""2335""
""fullscreenenter"",""0"",""7409""
","
","""event"",""trial"",""time""
""focus"",""0"",""2335""
","""event"",""trial"",""time""
""fullscreenenter"",""0"",""7409""
","
",null,"<div style=""font-size:60px;"">+</div>",NA,null,fixation,2020-06-25T02:41:49Z,NA,NA,NA,NA,NA,sub98
NA,mars-trial,108,424350,0.0-10.0-1.47,"""event"",""trial"",""time""
""focus"",""0"",""2335""
""fullscreenenter"",""0"",""7409""
","
","""event"",""trial"",""time""
""focus"",""0"",""2335""
","""event"",""trial"",""time""
""fullscreenenter"",""0"",""7409""
","
",11365.924999990966,<img style='border: 4px solid darkgrey;' src='img/tf1_48_M_ss2.jpeg'></img>,3,NA,exp,NA,0,<img src='img/tf1_48_T1_ss2_md.jpeg'></img>,0,TRUE,NA,sub98
NA,html-keyboard-response,109,424853,0.0-10.0-0.48,"""event"",""trial"",""time""
""focus"",""0"",""2335""
""fullscreenenter"",""0"",""7409""
","
","""event"",""trial"",""time""
""focus"",""0"",""2335""
","""event"",""trial"",""time""
""fullscreenenter"",""0"",""7409""
","
",null,"<div style=""font-size:60px;"">+</div>",NA,null,fixation,2020-06-25T02:42:02Z,NA,NA,NA,NA,NA,sub98
NA,mars-trial,110,434625,0.0-10.0-1.48,"""event"",""trial"",""time""
""focus"",""0"",""2335""
""fullscreenenter"",""0"",""7409""
","
","""event"",""trial"",""time""
""focus"",""0"",""2335""
","""event"",""trial"",""time""
""fullscreenenter"",""0"",""7409""
","
",9163.755000015954,<img style='border: 4px solid darkgrey;' src='img/tf1_49_M_ss3.jpeg'></img>,3,NA,exp,NA,0,<img src='img/tf1_49_T1_ss3_md.jpeg'></img>,0,TRUE,NA,sub98
NA,html-keyboard-response,111,435127,0.0-10.0-0.49,"""event"",""trial"",""time""
""focus"",""0"",""2335""
""fullscreenenter"",""0"",""7409""
","
","""event"",""trial"",""time""
""focus"",""0"",""2335""
","""event"",""trial"",""time""
""fullscreenenter"",""0"",""7409""
","
",null,"<div style=""font-size:60px;"">+</div>",NA,null,fixation,2020-06-25T02:42:12Z,NA,NA,NA,NA,NA,sub98
NA,mars-trial,112,443405,0.0-10.0-1.49,"""event"",""trial"",""time""
""focus"",""0"",""2335""
""fullscreenenter"",""0"",""7409""
","
","""event"",""trial"",""time""
""focus"",""0"",""2335""
","""event"",""trial"",""time""
""fullscreenenter"",""0"",""7409""
","
",7668.4450000175275,<img style='border: 4px solid darkgrey;' src='img/tf1_50_M_ss1.jpeg'></img>,3,NA,exp,NA,2,<img src='img/tf1_50_T1_ss1_md.jpeg'></img>,0,FALSE,NA,sub98
NA,html-keyboard-response,113,443910,0.0-10.0-0.50,"""event"",""trial"",""time""
""focus"",""0"",""2335""
""fullscreenenter"",""0"",""7409""
","
","""event"",""trial"",""time""
""focus"",""0"",""2335""
","""event"",""trial"",""time""
""fullscreenenter"",""0"",""7409""
","
",null,"<div style=""font-size:60px;"">+</div>",NA,null,fixation,2020-06-25T02:42:21Z,NA,NA,NA,NA,NA,sub98
NA,mars-trial,114,445967,0.0-10.0-1.50,"""event"",""trial"",""time""
""focus"",""0"",""2335""
""fullscreenenter"",""0"",""7409""
","
","""event"",""trial"",""time""
""focus"",""0"",""2335""
","""event"",""trial"",""time""
""fullscreenenter"",""0"",""7409""
","
",1448.4600000141654,<img style='border: 4px solid darkgrey;' src='img/tf1_51_M_ss2.jpeg'></img>,1,NA,exp,NA,2,<img src='img/tf1_51_T1_ss2_md.jpeg'></img>,0,FALSE,NA,sub98
NA,html-keyboard-response,115,446473,0.0-10.0-0.51,"""event"",""trial"",""time""
""focus"",""0"",""2335""
""fullscreenenter"",""0"",""7409""
","
","""event"",""trial"",""time""
""focus"",""0"",""2335""
","""event"",""trial"",""time""
""fullscreenenter"",""0"",""7409""
","
",null,"<div style=""font-size:60px;"">+</div>",NA,null,fixation,2020-06-25T02:42:24Z,NA,NA,NA,NA,NA,sub98
NA,mars-trial,116,448251,0.0-10.0-1.51,"""event"",""trial"",""time""
""focus"",""0"",""2335""
""fullscreenenter"",""0"",""7409""
","
","""event"",""trial"",""time""
""focus"",""0"",""2335""
","""event"",""trial"",""time""
""fullscreenenter"",""0"",""7409""
","
",1168.8049999938812,<img style='border: 4px solid darkgrey;' src='img/tf1_52_M_ss3.jpeg'></img>,2,NA,exp,NA,3,<img src='img/tf1_52_T1_ss3_md.jpeg'></img>,0,FALSE,NA,sub98
NA,html-keyboard-response,117,448757,0.0-10.0-0.52,"""event"",""trial"",""time""
""focus"",""0"",""2335""
""fullscreenenter"",""0"",""7409""
","
","""event"",""trial"",""time""
""focus"",""0"",""2335""
","""event"",""trial"",""time""
""fullscreenenter"",""0"",""7409""
","
",null,"<div style=""font-size:60px;"">+</div>",NA,null,fixation,2020-06-25T02:42:26Z,NA,NA,NA,NA,NA,sub98
NA,mars-trial,118,450059,0.0-10.0-1.52,"""event"",""trial"",""time""
""focus"",""0"",""2335""
""fullscreenenter"",""0"",""7409""
","
","""event"",""trial"",""time""
""focus"",""0"",""2335""
","""event"",""trial"",""time""
""fullscreenenter"",""0"",""7409""
","
",691.1200000031386,<img style='border: 4px solid darkgrey;' src='img/tf1_53_M_ss1.jpeg'></img>,2,NA,exp,NA,2,<img src='img/tf1_53_T1_ss1_md.jpeg'></img>,0,FALSE,NA,sub98
NA,html-keyboard-response,119,450564,0.0-10.0-0.53,"""event"",""trial"",""time""
""focus"",""0"",""2335""
""fullscreenenter"",""0"",""7409""
","
","""event"",""trial"",""time""
""focus"",""0"",""2335""
","""event"",""trial"",""time""
""fullscreenenter"",""0"",""7409""
","
",null,"<div style=""font-size:60px;"">+</div>",NA,null,fixation,2020-06-25T02:42:28Z,NA,NA,NA,NA,NA,sub98
NA,mars-trial,120,461256,0.0-10.0-1.53,"""event"",""trial"",""time""
""focus"",""0"",""2335""
""fullscreenenter"",""0"",""7409""
","
","""event"",""trial"",""time""
""focus"",""0"",""2335""
","""event"",""trial"",""time""
""fullscreenenter"",""0"",""7409""
","
",10081.9349999947,<img style='border: 4px solid darkgrey;' src='img/tf1_54_M_ss2.jpeg'></img>,2,NA,exp,NA,1,<img src='img/tf1_54_T1_ss2_md.jpeg'></img>,0,FALSE,NA,sub98
NA,html-keyboard-response,121,461758,0.0-10.0-0.54,"""event"",""trial"",""time""
""focus"",""0"",""2335""
""fullscreenenter"",""0"",""7409""
","
","""event"",""trial"",""time""
""focus"",""0"",""2335""
","""event"",""trial"",""time""
""fullscreenenter"",""0"",""7409""
","
",null,"<div style=""font-size:60px;"">+</div>",NA,null,fixation,2020-06-25T02:42:39Z,NA,NA,NA,NA,NA,sub98
NA,mars-trial,122,462818,0.0-10.0-1.54,"""event"",""trial"",""time""
""focus"",""0"",""2335""
""fullscreenenter"",""0"",""7409""
","
","""event"",""trial"",""time""
""focus"",""0"",""2335""
","""event"",""trial"",""time""
""fullscreenenter"",""0"",""7409""
","
",449.8099999909755,<img style='border: 4px solid darkgrey;' src='img/tf1_55_M_ss3.jpeg'></img>,1,NA,exp,NA,1,<img src='img/tf1_55_T1_ss3_md.jpeg'></img>,0,FALSE,NA,sub98
NA,html-keyboard-response,123,463324,0.0-10.0-0.55,"""event"",""trial"",""time""
""focus"",""0"",""2335""
""fullscreenenter"",""0"",""7409""
","
","""event"",""trial"",""time""
""focus"",""0"",""2335""
","""event"",""trial"",""time""
""fullscreenenter"",""0"",""7409""
","
",null,"<div style=""font-size:60px;"">+</div>",NA,null,fixation,2020-06-25T02:42:40Z,NA,NA,NA,NA,NA,sub98
NA,mars-trial,124,465160,0.0-10.0-1.55,"""event"",""trial"",""time""
""focus"",""0"",""2335""
""fullscreenenter"",""0"",""7409""
","
","""event"",""trial"",""time""
""focus"",""0"",""2335""
","""event"",""trial"",""time""
""fullscreenenter"",""0"",""7409""
","
",1221.3249999913387,<img style='border: 4px solid darkgrey;' src='img/tf1_56_M_ss1.jpeg'></img>,1,NA,exp,NA,0,<img src='img/tf1_56_T1_ss1_md.jpeg'></img>,0,TRUE,NA,sub98
NA,html-keyboard-response,125,465662,0.0-10.0-0.56,"""event"",""trial"",""time""
""focus"",""0"",""2335""
""fullscreenenter"",""0"",""7409""
","
","""event"",""trial"",""time""
""focus"",""0"",""2335""
","""event"",""trial"",""time""
""fullscreenenter"",""0"",""7409""
","
",null,"<div style=""font-size:60px;"">+</div>",NA,null,fixation,2020-06-25T02:42:43Z,NA,NA,NA,NA,NA,sub98
NA,mars-trial,126,475849,0.0-10.0-1.56,"""event"",""trial"",""time""
""focus"",""0"",""2335""
""fullscreenenter"",""0"",""7409""
","
","""event"",""trial"",""time""
""focus"",""0"",""2335""
","""event"",""trial"",""time""
""fullscreenenter"",""0"",""7409""
","
",9581.249999988358,<img style='border: 4px solid darkgrey;' src='img/tf1_57_M_ss2.jpeg'></img>,0,NA,exp,NA,0,<img src='img/tf1_57_T1_ss2_md.jpeg'></img>,0,TRUE,NA,sub98
NA,html-keyboard-response,127,476354,0.0-10.0-0.57,"""event"",""trial"",""time""
""focus"",""0"",""2335""
""fullscreenenter"",""0"",""7409""
","
","""event"",""trial"",""time""
""focus"",""0"",""2335""
","""event"",""trial"",""time""
""fullscreenenter"",""0"",""7409""
","
",null,"<div style=""font-size:60px;"">+</div>",NA,null,fixation,2020-06-25T02:42:53Z,NA,NA,NA,NA,NA,sub98
NA,mars-trial,128,479415,0.0-10.0-1.57,"""event"",""trial"",""time""
""focus"",""0"",""2335""
""fullscreenenter"",""0"",""7409""
","
","""event"",""trial"",""time""
""focus"",""0"",""2335""
","""event"",""trial"",""time""
""fullscreenenter"",""0"",""7409""
","
",2456.1800000083167,<img style='border: 4px solid darkgrey;' src='img/tf1_58_M_ss3.jpeg'></img>,1,NA,exp,NA,1,<img src='img/tf1_58_T1_ss3_md.jpeg'></img>,0,FALSE,NA,sub98
NA,html-keyboard-response,129,479918,0.0-10.0-0.58,"""event"",""trial"",""time""
""focus"",""0"",""2335""
""fullscreenenter"",""0"",""7409""
","
","""event"",""trial"",""time""
""focus"",""0"",""2335""
","""event"",""trial"",""time""
""fullscreenenter"",""0"",""7409""
","
",null,"<div style=""font-size:60px;"">+</div>",NA,null,fixation,2020-06-25T02:42:57Z,NA,NA,NA,NA,NA,sub98
NA,mars-trial,130,482114,0.0-10.0-1.58,"""event"",""trial"",""time""
""focus"",""0"",""2335""
""fullscreenenter"",""0"",""7409""
","
","""event"",""trial"",""time""
""focus"",""0"",""2335""
","""event"",""trial"",""time""
""fullscreenenter"",""0"",""7409""
","
",1587.935000017751,<img style='border: 4px solid darkgrey;' src='img/tf1_59_M_ss1.jpeg'></img>,2,NA,exp,NA,0,<img src='img/tf1_59_T1_ss1_md.jpeg'></img>,0,TRUE,NA,sub98
NA,html-keyboard-response,131,482615,0.0-10.0-0.59,"""event"",""trial"",""time""
""focus"",""0"",""2335""
""fullscreenenter"",""0"",""7409""
","
","""event"",""trial"",""time""
""focus"",""0"",""2335""
","""event"",""trial"",""time""
""fullscreenenter"",""0"",""7409""
","
",null,"<div style=""font-size:60px;"">+</div>",NA,null,fixation,2020-06-25T02:43:00Z,NA,NA,NA,NA,NA,sub98
NA,mars-trial,132,489196,0.0-10.0-1.59,"""event"",""trial"",""time""
""focus"",""0"",""2335""
""fullscreenenter"",""0"",""7409""
","
","""event"",""trial"",""time""
""focus"",""0"",""2335""
","""event"",""trial"",""time""
""fullscreenenter"",""0"",""7409""
","
",5971.195000020089,<img style='border: 4px solid darkgrey;' src='img/tf1_60_M_ss2.jpeg'></img>,2,NA,exp,NA,3,<img src='img/tf1_60_T1_ss2_md.jpeg'></img>,0,FALSE,NA,sub98
NA,html-keyboard-response,133,489702,0.0-10.0-0.60,"""event"",""trial"",""time""
""focus"",""0"",""2335""
""fullscreenenter"",""0"",""7409""
","
","""event"",""trial"",""time""
""focus"",""0"",""2335""
","""event"",""trial"",""time""
""fullscreenenter"",""0"",""7409""
","
",null,"<div style=""font-size:60px;"">+</div>",NA,null,fixation,2020-06-25T02:43:07Z,NA,NA,NA,NA,NA,sub98
NA,mars-trial,134,491014,0.0-10.0-1.60,"""event"",""trial"",""time""
""focus"",""0"",""2335""
""fullscreenenter"",""0"",""7409""
","
","""event"",""trial"",""time""
""focus"",""0"",""2335""
","""event"",""trial"",""time""
""fullscreenenter"",""0"",""7409""
","
",699.5949999836739,<img style='border: 4px solid darkgrey;' src='img/tf1_61_M_ss3.jpeg'></img>,2,NA,exp,NA,2,<img src='img/tf1_61_T1_ss3_md.jpeg'></img>,0,FALSE,NA,sub98
NA,html-keyboard-response,135,491520,0.0-10.0-0.61,"""event"",""trial"",""time""
""focus"",""0"",""2335""
""fullscreenenter"",""0"",""7409""
","
","""event"",""trial"",""time""
""focus"",""0"",""2335""
","""event"",""trial"",""time""
""fullscreenenter"",""0"",""7409""
","
",null,"<div style=""font-size:60px;"">+</div>",NA,null,fixation,2020-06-25T02:43:09Z,NA,NA,NA,NA,NA,sub98
NA,mars-trial,136,492657,0.0-10.0-1.61,"""event"",""trial"",""time""
""focus"",""0"",""2335""
""fullscreenenter"",""0"",""7409""
","
","""event"",""trial"",""time""
""focus"",""0"",""2335""
","""event"",""trial"",""time""
""fullscreenenter"",""0"",""7409""
","
",530.35000001546,<img style='border: 4px solid darkgrey;' src='img/tf1_62_M_ss1.jpeg'></img>,2,NA,exp,NA,1,<img src='img/tf1_62_T1_ss1_md.jpeg'></img>,0,FALSE,NA,sub98
NA,html-keyboard-response,137,493163,0.0-10.0-0.62,"""event"",""trial"",""time""
""focus"",""0"",""2335""
""fullscreenenter"",""0"",""7409""
","
","""event"",""trial"",""time""
""focus"",""0"",""2335""
","""event"",""trial"",""time""
""fullscreenenter"",""0"",""7409""
","
",null,"<div style=""font-size:60px;"">+</div>",NA,null,fixation,2020-06-25T02:43:10Z,NA,NA,NA,NA,NA,sub98
NA,mars-trial,138,494321,0.0-10.0-1.62,"""event"",""trial"",""time""
""focus"",""0"",""2335""
""fullscreenenter"",""0"",""7409""
","
","""event"",""trial"",""time""
""focus"",""0"",""2335""
","""event"",""trial"",""time""
""fullscreenenter"",""0"",""7409""
","
",550.4749999963678,<img style='border: 4px solid darkgrey;' src='img/tf1_63_M_ss2.jpeg'></img>,2,NA,exp,NA,1,<img src='img/tf1_63_T1_ss2_md.jpeg'></img>,0,FALSE,NA,sub98
NA,html-keyboard-response,139,494823,0.0-10.0-0.63,"""event"",""trial"",""time""
""focus"",""0"",""2335""
""fullscreenenter"",""0"",""7409""
","
","""event"",""trial"",""time""
""focus"",""0"",""2335""
","""event"",""trial"",""time""
""fullscreenenter"",""0"",""7409""
","
",null,"<div style=""font-size:60px;"">+</div>",NA,null,fixation,2020-06-25T02:43:12Z,NA,NA,NA,NA,NA,sub98
NA,mars-trial,140,495803,0.0-10.0-1.63,"""event"",""trial"",""time""
""focus"",""0"",""2335""
""fullscreenenter"",""0"",""7409""
","
","""event"",""trial"",""time""
""focus"",""0"",""2335""
","""event"",""trial"",""time""
""fullscreenenter"",""0"",""7409""
","
",370.51499998779036,<img style='border: 4px solid darkgrey;' src='img/tf1_64_M_ss3.jpeg'></img>,2,NA,exp,NA,1,<img src='img/tf1_64_T1_ss3_md.jpeg'></img>,0,FALSE,NA,sub98
NA,html-keyboard-response,141,496307,0.0-10.0-0.64,"""event"",""trial"",""time""
""focus"",""0"",""2335""
""fullscreenenter"",""0"",""7409""
","
","""event"",""trial"",""time""
""focus"",""0"",""2335""
","""event"",""trial"",""time""
""fullscreenenter"",""0"",""7409""
","
",null,"<div style=""font-size:60px;"">+</div>",NA,null,fixation,2020-06-25T02:43:13Z,NA,NA,NA,NA,NA,sub98
NA,mars-trial,142,497178,0.0-10.0-1.64,"""event"",""trial"",""time""
""focus"",""0"",""2335""
""fullscreenenter"",""0"",""7409""
","
","""event"",""trial"",""time""
""focus"",""0"",""2335""
","""event"",""trial"",""time""
""fullscreenenter"",""0"",""7409""
","
",263.43500000075437,<img style='border: 4px solid darkgrey;' src='img/tf1_65_M_ss1.jpeg'></img>,2,NA,exp,NA,0,<img src='img/tf1_65_T1_ss1_md.jpeg'></img>,0,TRUE,NA,sub98
NA,html-keyboard-response,143,497680,0.0-10.0-0.65,"""event"",""trial"",""time""
""focus"",""0"",""2335""
""fullscreenenter"",""0"",""7409""
","
","""event"",""trial"",""time""
""focus"",""0"",""2335""
","""event"",""trial"",""time""
""fullscreenenter"",""0"",""7409""
","
",null,"<div style=""font-size:60px;"">+</div>",NA,null,fixation,2020-06-25T02:43:15Z,NA,NA,NA,NA,NA,sub98
NA,mars-trial,144,506475,0.0-10.0-1.65,"""event"",""trial"",""time""
""focus"",""0"",""2335""
""fullscreenenter"",""0"",""7409""
","
","""event"",""trial"",""time""
""focus"",""0"",""2335""
","""event"",""trial"",""time""
""fullscreenenter"",""0"",""7409""
","
",8184.390000009444,<img style='border: 4px solid darkgrey;' src='img/tf1_66_M_ss2.jpeg'></img>,1,NA,exp,NA,2,<img src='img/tf1_66_T1_ss2_md.jpeg'></img>,0,FALSE,NA,sub98
NA,html-keyboard-response,145,506977,0.0-10.0-0.66,"""event"",""trial"",""time""
""focus"",""0"",""2335""
""fullscreenenter"",""0"",""7409""
","
","""event"",""trial"",""time""
""focus"",""0"",""2335""
","""event"",""trial"",""time""
""fullscreenenter"",""0"",""7409""
","
",null,"<div style=""font-size:60px;"">+</div>",NA,null,fixation,2020-06-25T02:43:24Z,NA,NA,NA,NA,NA,sub98
NA,mars-trial,146,509382,0.0-10.0-1.66,"""event"",""trial"",""time""
""focus"",""0"",""2335""
""fullscreenenter"",""0"",""7409""
","
","""event"",""trial"",""time""
""focus"",""0"",""2335""
","""event"",""trial"",""time""
""fullscreenenter"",""0"",""7409""
","
",1794.4549999956507,<img style='border: 4px solid darkgrey;' src='img/tf1_67_M_ss3.jpeg'></img>,2,NA,exp,NA,2,<img src='img/tf1_67_T1_ss3_md.jpeg'></img>,0,FALSE,NA,sub98
NA,html-keyboard-response,147,509886,0.0-10.0-0.67,"""event"",""trial"",""time""
""focus"",""0"",""2335""
""fullscreenenter"",""0"",""7409""
","
","""event"",""trial"",""time""
""focus"",""0"",""2335""
","""event"",""trial"",""time""
""fullscreenenter"",""0"",""7409""
","
",null,"<div style=""font-size:60px;"">+</div>",NA,null,fixation,2020-06-25T02:43:27Z,NA,NA,NA,NA,NA,sub98
NA,mars-trial,148,512470,0.0-10.0-1.67,"""event"",""trial"",""time""
""focus"",""0"",""2335""
""fullscreenenter"",""0"",""7409""
","
","""event"",""trial"",""time""
""focus"",""0"",""2335""
","""event"",""trial"",""time""
""fullscreenenter"",""0"",""7409""
","
",1973.7699999823235,<img style='border: 4px solid darkgrey;' src='img/tf1_68_M_ss1.jpeg'></img>,1,NA,exp,NA,0,<img src='img/tf1_68_T1_ss1_md.jpeg'></img>,0,TRUE,NA,sub98
NA,html-keyboard-response,149,512975,0.0-10.0-0.68,"""event"",""trial"",""time""
""focus"",""0"",""2335""
""fullscreenenter"",""0"",""7409""
","
","""event"",""trial"",""time""
""focus"",""0"",""2335""
","""event"",""trial"",""time""
""fullscreenenter"",""0"",""7409""
","
",null,"<div style=""font-size:60px;"">+</div>",NA,null,fixation,2020-06-25T02:43:30Z,NA,NA,NA,NA,NA,sub98
NA,mars-trial,150,520623,0.0-10.0-1.68,"""event"",""trial"",""time""
""focus"",""0"",""2335""
""fullscreenenter"",""0"",""7409""
","
","""event"",""trial"",""time""
""focus"",""0"",""2335""
","""event"",""trial"",""time""
""fullscreenenter"",""0"",""7409""
","
",7039.0799999877345,<img style='border: 4px solid darkgrey;' src='img/tf1_69_M_ss2.jpeg'></img>,2,NA,exp,NA,1,<img src='img/tf1_69_T1_ss2_md.jpeg'></img>,0,FALSE,NA,sub98
NA,html-keyboard-response,151,521125,0.0-10.0-0.69,"""event"",""trial"",""time""
""focus"",""0"",""2335""
""fullscreenenter"",""0"",""7409""
","
","""event"",""trial"",""time""
""focus"",""0"",""2335""
","""event"",""trial"",""time""
""fullscreenenter"",""0"",""7409""
","
",null,"<div style=""font-size:60px;"">+</div>",NA,null,fixation,2020-06-25T02:43:38Z,NA,NA,NA,NA,NA,sub98
NA,mars-trial,152,527551,0.0-10.0-1.69,"""event"",""trial"",""time""
""focus"",""0"",""2335""
""fullscreenenter"",""0"",""7409""
","
","""event"",""trial"",""time""
""focus"",""0"",""2335""
","""event"",""trial"",""time""
""fullscreenenter"",""0"",""7409""
","
",5815.870000020368,<img style='border: 4px solid darkgrey;' src='img/tf1_70_M_ss3.jpeg'></img>,3,NA,exp,NA,0,<img src='img/tf1_70_T1_ss3_md.jpeg'></img>,0,TRUE,NA,sub98
NA,html-keyboard-response,153,528058,0.0-10.0-0.70,"""event"",""trial"",""time""
""focus"",""0"",""2335""
""fullscreenenter"",""0"",""7409""
","
","""event"",""trial"",""time""
""focus"",""0"",""2335""
","""event"",""trial"",""time""
""fullscreenenter"",""0"",""7409""
","
",null,"<div style=""font-size:60px;"">+</div>",NA,null,fixation,2020-06-25T02:43:45Z,NA,NA,NA,NA,NA,sub98
NA,mars-trial,154,535494,0.0-10.0-1.70,"""event"",""trial"",""time""
""focus"",""0"",""2335""
""fullscreenenter"",""0"",""7409""
","
","""event"",""trial"",""time""
""focus"",""0"",""2335""
","""event"",""trial"",""time""
""fullscreenenter"",""0"",""7409""
","
",NA,NA,NA,NA,exp,NA,NA,<img src='img/tf1_71_T1_ss1_md.jpeg'></img>,0,FALSE,NA,sub98
NA,html-keyboard-response,155,536000,0.0-10.0-0.71,"""event"",""trial"",""time""
""focus"",""0"",""2335""
""fullscreenenter"",""0"",""7409""
","
","""event"",""trial"",""time""
""focus"",""0"",""2335""
","""event"",""trial"",""time""
""fullscreenenter"",""0"",""7409""
","
",null,"<div style=""font-size:60px;"">+</div>",NA,null,fixation,2020-06-25T02:43:53Z,NA,NA,NA,NA,NA,sub98
NA,audio-button-response,156,538428,0.0-11.0,"""event"",""trial"",""time""
""focus"",""0"",""2335""
""fullscreenenter"",""0"",""7409""
","
","""event"",""trial"",""time""
""focus"",""0"",""2335""
","""event"",""trial"",""time""
""fullscreenenter"",""0"",""7409""
","
",2323.485000000801,audio/mars_instructions_slide5.wav,0,NA,NA,NA,NA,NA,NA,NA,NA,sub98
