success,trial_type,trial_index,time_elapsed,internal_node_id,interactions,blur_events,focus_events,fullscreenenter_events,fullscreenexit_events,rt,stimulus,button_pressed,key_press,part,timestamp,unshuffled_button,correct_response,correct_button,correct,value,subject_id
TRUE,fullscreen,0,3039,0.0-0.0,"""event"",""trial"",""time""
""fullscreenenter"",""0"",""2051""
","
","
","""event"",""trial"",""time""
""fullscreenenter"",""0"",""2051""
","
",NA,NA,NA,NA,NA,NA,NA,NA,NA,NA,NA,sub54
NA,pavlovia,1,3044,0.0-1.0,"""event"",""trial"",""time""
""fullscreenenter"",""0"",""2051""
","
","
","""event"",""trial"",""time""
""fullscreenenter"",""0"",""2051""
","
",NA,NA,NA,NA,NA,NA,NA,NA,NA,NA,NA,sub54
NA,html-button-response,2,9442,0.0-2.0,"""event"",""trial"",""time""
""fullscreenenter"",""0"",""2051""
","
","
","""event"",""trial"",""time""
""fullscreenenter"",""0"",""2051""
","
",6396.924999949988,<p>Welcome! Press START to begin.</p><br>,0,NA,NA,NA,NA,NA,NA,NA,NA,sub54
NA,audio-button-response,3,22152,0.0-3.0,"""event"",""trial"",""time""
""fullscreenenter"",""0"",""2051""
","
","
","""event"",""trial"",""time""
""fullscreenenter"",""0"",""2051""
","
",12707.735000003595,audio/mars_instructions_slide2.wav,0,NA,NA,NA,NA,NA,NA,NA,NA,sub54
NA,audio-button-response,4,38280,0.0-4.0,"""event"",""trial"",""time""
""fullscreenenter"",""0"",""2051""
","
","
","""event"",""trial"",""time""
""fullscreenenter"",""0"",""2051""
","
",16126.975000021048,audio/mars_instructions_slide3.wav,0,NA,NA,NA,NA,NA,NA,NA,NA,sub54
NA,html-keyboard-response,5,38782,0.0-5.0-0.0,"""event"",""trial"",""time""
""fullscreenenter"",""0"",""2051""
","
","
","""event"",""trial"",""time""
""fullscreenenter"",""0"",""2051""
","
",null,"<div style=""font-size:60px;"">+</div>",NA,null,fixation,2020-06-15T22:46:02Z,NA,NA,NA,NA,NA,sub54
NA,mars-trial,6,48902,0.0-5.0-1.0,"""event"",""trial"",""time""
""fullscreenenter"",""0"",""2051""
","
","
","""event"",""trial"",""time""
""fullscreenenter"",""0"",""2051""
","
",8011.729999969248,<img style='border: 4px solid darkgrey;' src='practice/pt1_M1.png'></img>,3,NA,practice,NA,0,<img src='practice/pt1_T1.png'></img>,0,TRUE,NA,sub54
NA,html-keyboard-response,7,49407,0.0-6.0-0.0,"""event"",""trial"",""time""
""fullscreenenter"",""0"",""2051""
","
","
","""event"",""trial"",""time""
""fullscreenenter"",""0"",""2051""
","
",null,"<div style=""font-size:60px;"">+</div>",NA,null,fixation,2020-06-15T22:46:12Z,NA,NA,NA,NA,NA,sub54
NA,mars-trial,8,56468,0.0-6.0-1.0,"""event"",""trial"",""time""
""fullscreenenter"",""0"",""2051""
","
","
","""event"",""trial"",""time""
""fullscreenenter"",""0"",""2051""
","
",4955.239999981131,<img style='border: 4px solid darkgrey;' src='practice/pt2_M1.png'></img>,2,NA,practice,NA,0,<img src='practice/pt2_T1.png'></img>,0,TRUE,NA,sub54
NA,html-keyboard-response,9,56971,0.0-7.0-0.0,"""event"",""trial"",""time""
""fullscreenenter"",""0"",""2051""
","
","
","""event"",""trial"",""time""
""fullscreenenter"",""0"",""2051""
","
",null,"<div style=""font-size:60px;"">+</div>",NA,null,fixation,2020-06-15T22:46:20Z,NA,NA,NA,NA,NA,sub54
NA,mars-trial,10,61325,0.0-7.0-1.0,"""event"",""trial"",""time""
""fullscreenenter"",""0"",""2051""
","
","
","""event"",""trial"",""time""
""fullscreenenter"",""0"",""2051""
","
",2249.739999999292,<img style='border: 4px solid darkgrey;' src='practice/pt3_M1.png'></img>,3,NA,practice,NA,0,<img src='practice/pt3_T1.png'></img>,0,TRUE,NA,sub54
NA,audio-button-response,11,65420,0.0-8.0,"""event"",""trial"",""time""
""fullscreenenter"",""0"",""2051""
","
","
","""event"",""trial"",""time""
""fullscreenenter"",""0"",""2051""
","
",4091.904999979306,audio/mars_instructions_slide4.wav,0,NA,NA,NA,NA,NA,NA,NA,NA,sub54
NA,call-function,12,65421,0.0-9.0,"""event"",""trial"",""time""
""fullscreenenter"",""0"",""2051""
","
","
","""event"",""trial"",""time""
""fullscreenenter"",""0"",""2051""
","
",NA,NA,NA,NA,NA,NA,NA,NA,NA,NA,NA,sub54
NA,html-keyboard-response,13,65922,0.0-10.0-0.0,"""event"",""trial"",""time""
""fullscreenenter"",""0"",""2051""
","
","
","""event"",""trial"",""time""
""fullscreenenter"",""0"",""2051""
","
",null,"<div style=""font-size:60px;"">+</div>",NA,null,fixation,2020-06-15T22:46:29Z,NA,NA,NA,NA,NA,sub54
NA,mars-trial,14,69032,0.0-10.0-1.0,"""event"",""trial"",""time""
""fullscreenenter"",""0"",""2051""
","
","
","""event"",""trial"",""time""
""fullscreenenter"",""0"",""2051""
","
",2500.6300000241026,<img style='border: 4px solid darkgrey;' src='img/tf1_1_M_ss3.jpeg'></img>,3,NA,exp,NA,0,<img src='img/tf1_1_T1_ss3_md.jpeg'></img>,0,TRUE,NA,sub54
NA,html-keyboard-response,15,69535,0.0-10.0-0.1,"""event"",""trial"",""time""
""fullscreenenter"",""0"",""2051""
","
","
","""event"",""trial"",""time""
""fullscreenenter"",""0"",""2051""
","
",null,"<div style=""font-size:60px;"">+</div>",NA,null,fixation,2020-06-15T22:46:32Z,NA,NA,NA,NA,NA,sub54
NA,mars-trial,16,75408,0.0-10.0-1.1,"""event"",""trial"",""time""
""fullscreenenter"",""0"",""2051""
","
","
","""event"",""trial"",""time""
""fullscreenenter"",""0"",""2051""
","
",5266.89000002807,<img style='border: 4px solid darkgrey;' src='img/tf1_2_M_ss1.jpeg'></img>,2,NA,exp,NA,0,<img src='img/tf1_2_T1_ss1_md.jpeg'></img>,0,TRUE,NA,sub54
NA,html-keyboard-response,17,75910,0.0-10.0-0.2,"""event"",""trial"",""time""
""fullscreenenter"",""0"",""2051""
","
","
","""event"",""trial"",""time""
""fullscreenenter"",""0"",""2051""
","
",null,"<div style=""font-size:60px;"">+</div>",NA,null,fixation,2020-06-15T22:46:39Z,NA,NA,NA,NA,NA,sub54
NA,mars-trial,18,78586,0.0-10.0-1.2,"""event"",""trial"",""time""
""fullscreenenter"",""0"",""2051""
","
","
","""event"",""trial"",""time""
""fullscreenenter"",""0"",""2051""
","
",2069.950000033714,<img style='border: 4px solid darkgrey;' src='img/tf1_3_M_ss2.jpeg'></img>,1,NA,exp,NA,0,<img src='img/tf1_3_T1_ss2_md.jpeg'></img>,0,TRUE,NA,sub54
NA,html-keyboard-response,19,79089,0.0-10.0-0.3,"""event"",""trial"",""time""
""fullscreenenter"",""0"",""2051""
","
","
","""event"",""trial"",""time""
""fullscreenenter"",""0"",""2051""
","
",null,"<div style=""font-size:60px;"">+</div>",NA,null,fixation,2020-06-15T22:46:42Z,NA,NA,NA,NA,NA,sub54
NA,mars-trial,20,84258,0.0-10.0-1.3,"""event"",""trial"",""time""
""fullscreenenter"",""0"",""2051""
","
","
","""event"",""trial"",""time""
""fullscreenenter"",""0"",""2051""
","
",4562.310000008438,<img style='border: 4px solid darkgrey;' src='img/tf1_4_M_ss3.jpeg'></img>,0,NA,exp,NA,0,<img src='img/tf1_4_T1_ss3_md.jpeg'></img>,0,TRUE,NA,sub54
NA,html-keyboard-response,21,84761,0.0-10.0-0.4,"""event"",""trial"",""time""
""fullscreenenter"",""0"",""2051""
","
","
","""event"",""trial"",""time""
""fullscreenenter"",""0"",""2051""
","
",null,"<div style=""font-size:60px;"">+</div>",NA,null,fixation,2020-06-15T22:46:48Z,NA,NA,NA,NA,NA,sub54
NA,mars-trial,22,87881,0.0-10.0-1.4,"""event"",""trial"",""time""
""fullscreenenter"",""0"",""2051""
","
","
","""event"",""trial"",""time""
""fullscreenenter"",""0"",""2051""
","
",2512.609999976121,<img style='border: 4px solid darkgrey;' src='img/tf1_5_M_ss1.jpeg'></img>,0,NA,exp,NA,0,<img src='img/tf1_5_T1_ss1_md.jpeg'></img>,0,TRUE,NA,sub54
NA,html-keyboard-response,23,88384,0.0-10.0-0.5,"""event"",""trial"",""time""
""fullscreenenter"",""0"",""2051""
","
","
","""event"",""trial"",""time""
""fullscreenenter"",""0"",""2051""
","
",null,"<div style=""font-size:60px;"">+</div>",NA,null,fixation,2020-06-15T22:46:51Z,NA,NA,NA,NA,NA,sub54
NA,mars-trial,24,98516,0.0-10.0-1.5,"""event"",""trial"",""time""
""fullscreenenter"",""0"",""2051""
","
","
","""event"",""trial"",""time""
""fullscreenenter"",""0"",""2051""
","
",9524.489999981597,<img style='border: 4px solid darkgrey;' src='img/tf1_6_M_ss2.jpeg'></img>,1,NA,exp,NA,2,<img src='img/tf1_6_T1_ss2_md.jpeg'></img>,0,FALSE,NA,sub54
NA,html-keyboard-response,25,99019,0.0-10.0-0.6,"""event"",""trial"",""time""
""fullscreenenter"",""0"",""2051""
","
","
","""event"",""trial"",""time""
""fullscreenenter"",""0"",""2051""
","
",null,"<div style=""font-size:60px;"">+</div>",NA,null,fixation,2020-06-15T22:47:02Z,NA,NA,NA,NA,NA,sub54
NA,mars-trial,26,103356,0.0-10.0-1.6,"""event"",""trial"",""time""
""fullscreenenter"",""0"",""2051""
","
","
","""event"",""trial"",""time""
""fullscreenenter"",""0"",""2051""
","
",3729.700000025332,<img style='border: 4px solid darkgrey;' src='img/tf1_7_M_ss3.jpeg'></img>,1,NA,exp,NA,0,<img src='img/tf1_7_T1_ss3_md.jpeg'></img>,0,TRUE,NA,sub54
NA,html-keyboard-response,27,103860,0.0-10.0-0.7,"""event"",""trial"",""time""
""fullscreenenter"",""0"",""2051""
","
","
","""event"",""trial"",""time""
""fullscreenenter"",""0"",""2051""
","
",null,"<div style=""font-size:60px;"">+</div>",NA,null,fixation,2020-06-15T22:47:07Z,NA,NA,NA,NA,NA,sub54
NA,mars-trial,28,109860,0.0-10.0-1.7,"""event"",""trial"",""time""
""fullscreenenter"",""0"",""2051""
","
","
","""event"",""trial"",""time""
""fullscreenenter"",""0"",""2051""
","
",5391.954999999143,<img style='border: 4px solid darkgrey;' src='img/tf1_8_M_ss1.jpeg'></img>,2,NA,exp,NA,0,<img src='img/tf1_8_T1_ss1_md.jpeg'></img>,0,TRUE,NA,sub54
NA,html-keyboard-response,29,110363,0.0-10.0-0.8,"""event"",""trial"",""time""
""fullscreenenter"",""0"",""2051""
","
","
","""event"",""trial"",""time""
""fullscreenenter"",""0"",""2051""
","
",null,"<div style=""font-size:60px;"">+</div>",NA,null,fixation,2020-06-15T22:47:13Z,NA,NA,NA,NA,NA,sub54
NA,mars-trial,30,115459,0.0-10.0-1.8,"""event"",""trial"",""time""
""fullscreenenter"",""0"",""2051""
","
","
","""event"",""trial"",""time""
""fullscreenenter"",""0"",""2051""
","
",4487.424999999348,<img style='border: 4px solid darkgrey;' src='img/tf1_9_M_ss2.jpeg'></img>,0,NA,exp,NA,0,<img src='img/tf1_9_T1_ss2_md.jpeg'></img>,0,TRUE,NA,sub54
NA,html-keyboard-response,31,115962,0.0-10.0-0.9,"""event"",""trial"",""time""
""fullscreenenter"",""0"",""2051""
","
","
","""event"",""trial"",""time""
""fullscreenenter"",""0"",""2051""
","
",null,"<div style=""font-size:60px;"">+</div>",NA,null,fixation,2020-06-15T22:47:19Z,NA,NA,NA,NA,NA,sub54
NA,mars-trial,32,124198,0.0-10.0-1.9,"""event"",""trial"",""time""
""fullscreenenter"",""0"",""2051""
","
","
","""event"",""trial"",""time""
""fullscreenenter"",""0"",""2051""
","
",7629.8250000108965,<img style='border: 4px solid darkgrey;' src='img/tf1_10_M_ss3.jpeg'></img>,1,NA,exp,NA,0,<img src='img/tf1_10_T1_ss3_md.jpeg'></img>,0,TRUE,NA,sub54
NA,html-keyboard-response,33,124702,0.0-10.0-0.10,"""event"",""trial"",""time""
""fullscreenenter"",""0"",""2051""
","
","
","""event"",""trial"",""time""
""fullscreenenter"",""0"",""2051""
","
",null,"<div style=""font-size:60px;"">+</div>",NA,null,fixation,2020-06-15T22:47:28Z,NA,NA,NA,NA,NA,sub54
NA,mars-trial,34,142340,0.0-10.0-1.10,"""event"",""trial"",""time""
""fullscreenenter"",""0"",""2051""
","
","
","""event"",""trial"",""time""
""fullscreenenter"",""0"",""2051""
","
",17030.229999974836,<img style='border: 4px solid darkgrey;' src='img/tf1_11_M_ss1.jpeg'></img>,1,NA,exp,NA,0,<img src='img/tf1_11_T1_ss1_md.jpeg'></img>,0,TRUE,NA,sub54
NA,html-keyboard-response,35,142842,0.0-10.0-0.11,"""event"",""trial"",""time""
""fullscreenenter"",""0"",""2051""
","
","
","""event"",""trial"",""time""
""fullscreenenter"",""0"",""2051""
","
",null,"<div style=""font-size:60px;"">+</div>",NA,null,fixation,2020-06-15T22:47:46Z,NA,NA,NA,NA,NA,sub54
NA,mars-trial,36,161794,0.0-10.0-1.11,"""event"",""trial"",""time""
""fullscreenenter"",""0"",""2051""
","
","
","""event"",""trial"",""time""
""fullscreenenter"",""0"",""2051""
","
",18344.71500001382,<img style='border: 4px solid darkgrey;' src='img/tf1_12_M_ss2.jpeg'></img>,3,NA,exp,NA,2,<img src='img/tf1_12_T1_ss2_md.jpeg'></img>,0,FALSE,NA,sub54
NA,html-keyboard-response,37,162297,0.0-10.0-0.12,"""event"",""trial"",""time""
""fullscreenenter"",""0"",""2051""
","
","
","""event"",""trial"",""time""
""fullscreenenter"",""0"",""2051""
","
",null,"<div style=""font-size:60px;"">+</div>",NA,null,fixation,2020-06-15T22:48:05Z,NA,NA,NA,NA,NA,sub54
NA,mars-trial,38,176908,0.0-10.0-1.12,"""event"",""trial"",""time""
""fullscreenenter"",""0"",""2051""
","
","
","""event"",""trial"",""time""
""fullscreenenter"",""0"",""2051""
","
",14003.840000019409,<img style='border: 4px solid darkgrey;' src='img/tf1_13_M_ss3.jpeg'></img>,1,NA,exp,NA,1,<img src='img/tf1_13_T1_ss3_md.jpeg'></img>,0,FALSE,NA,sub54
NA,html-keyboard-response,39,177410,0.0-10.0-0.13,"""event"",""trial"",""time""
""fullscreenenter"",""0"",""2051""
","
","
","""event"",""trial"",""time""
""fullscreenenter"",""0"",""2051""
","
",null,"<div style=""font-size:60px;"">+</div>",NA,null,fixation,2020-06-15T22:48:20Z,NA,NA,NA,NA,NA,sub54
NA,mars-trial,40,189044,0.0-10.0-1.13,"""event"",""trial"",""time""
""fullscreenenter"",""0"",""2051""
","
","
","""event"",""trial"",""time""
""fullscreenenter"",""0"",""2051""
","
",11027.065000031143,<img style='border: 4px solid darkgrey;' src='img/tf1_14_M_ss1.jpeg'></img>,3,NA,exp,NA,3,<img src='img/tf1_14_T1_ss1_md.jpeg'></img>,0,FALSE,NA,sub54
NA,html-keyboard-response,41,189547,0.0-10.0-0.14,"""event"",""trial"",""time""
""fullscreenenter"",""0"",""2051""
","
","
","""event"",""trial"",""time""
""fullscreenenter"",""0"",""2051""
","
",null,"<div style=""font-size:60px;"">+</div>",NA,null,fixation,2020-06-15T22:48:32Z,NA,NA,NA,NA,NA,sub54
NA,mars-trial,42,197492,0.0-10.0-1.14,"""event"",""trial"",""time""
""fullscreenenter"",""0"",""2051""
","
","
","""event"",""trial"",""time""
""fullscreenenter"",""0"",""2051""
","
",7336.949999968056,<img style='border: 4px solid darkgrey;' src='img/tf1_15_M_ss2.jpeg'></img>,3,NA,exp,NA,3,<img src='img/tf1_15_T1_ss2_md.jpeg'></img>,0,FALSE,NA,sub54
NA,html-keyboard-response,43,197995,0.0-10.0-0.15,"""event"",""trial"",""time""
""fullscreenenter"",""0"",""2051""
","
","
","""event"",""trial"",""time""
""fullscreenenter"",""0"",""2051""
","
",null,"<div style=""font-size:60px;"">+</div>",NA,null,fixation,2020-06-15T22:48:41Z,NA,NA,NA,NA,NA,sub54
NA,mars-trial,44,205502,0.0-10.0-1.15,"""event"",""trial"",""time""
""fullscreenenter"",""0"",""2051""
","
","
","""event"",""trial"",""time""
""fullscreenenter"",""0"",""2051""
","
",6900.119999947492,<img style='border: 4px solid darkgrey;' src='img/tf1_16_M_ss3.jpeg'></img>,0,NA,exp,NA,3,<img src='img/tf1_16_T1_ss3_md.jpeg'></img>,0,FALSE,NA,sub54
NA,html-keyboard-response,45,206005,0.0-10.0-0.16,"""event"",""trial"",""time""
""fullscreenenter"",""0"",""2051""
","
","
","""event"",""trial"",""time""
""fullscreenenter"",""0"",""2051""
","
",null,"<div style=""font-size:60px;"">+</div>",NA,null,fixation,2020-06-15T22:48:49Z,NA,NA,NA,NA,NA,sub54
NA,mars-trial,46,220740,0.0-10.0-1.16,"""event"",""trial"",""time""
""fullscreenenter"",""0"",""2051""
","
","
","""event"",""trial"",""time""
""fullscreenenter"",""0"",""2051""
","
",14127.71500000963,<img style='border: 4px solid darkgrey;' src='img/tf1_17_M_ss1.jpeg'></img>,1,NA,exp,NA,0,<img src='img/tf1_17_T1_ss1_md.jpeg'></img>,0,TRUE,NA,sub54
NA,html-keyboard-response,47,221244,0.0-10.0-0.17,"""event"",""trial"",""time""
""fullscreenenter"",""0"",""2051""
","
","
","""event"",""trial"",""time""
""fullscreenenter"",""0"",""2051""
","
",null,"<div style=""font-size:60px;"">+</div>",NA,null,fixation,2020-06-15T22:49:04Z,NA,NA,NA,NA,NA,sub54
NA,mars-trial,48,235744,0.0-10.0-1.17,"""event"",""trial"",""time""
""fullscreenenter"",""0"",""2051""
","
","
","""event"",""trial"",""time""
""fullscreenenter"",""0"",""2051""
","
",13893.59999995213,<img style='border: 4px solid darkgrey;' src='img/tf1_18_M_ss2.jpeg'></img>,2,NA,exp,NA,3,<img src='img/tf1_18_T1_ss2_md.jpeg'></img>,0,FALSE,NA,sub54
NA,html-keyboard-response,49,236248,0.0-10.0-0.18,"""event"",""trial"",""time""
""fullscreenenter"",""0"",""2051""
","
","
","""event"",""trial"",""time""
""fullscreenenter"",""0"",""2051""
","
",null,"<div style=""font-size:60px;"">+</div>",NA,null,fixation,2020-06-15T22:49:19Z,NA,NA,NA,NA,NA,sub54
NA,mars-trial,50,240238,0.0-10.0-1.18,"""event"",""trial"",""time""
""fullscreenenter"",""0"",""2051""
","
","
","""event"",""trial"",""time""
""fullscreenenter"",""0"",""2051""
","
",3383.3499999600463,<img style='border: 4px solid darkgrey;' src='img/tf1_19_M_ss3.jpeg'></img>,1,NA,exp,NA,3,<img src='img/tf1_19_T1_ss3_md.jpeg'></img>,0,FALSE,NA,sub54
NA,html-keyboard-response,51,240742,0.0-10.0-0.19,"""event"",""trial"",""time""
""fullscreenenter"",""0"",""2051""
","
","
","""event"",""trial"",""time""
""fullscreenenter"",""0"",""2051""
","
",null,"<div style=""font-size:60px;"">+</div>",NA,null,fixation,2020-06-15T22:49:24Z,NA,NA,NA,NA,NA,sub54
NA,mars-trial,52,249604,0.0-10.0-1.19,"""event"",""trial"",""time""
""fullscreenenter"",""0"",""2051""
","
","
","""event"",""trial"",""time""
""fullscreenenter"",""0"",""2051""
","
",8254.699999990407,<img style='border: 4px solid darkgrey;' src='img/tf1_20_M_ss1.jpeg'></img>,3,NA,exp,NA,0,<img src='img/tf1_20_T1_ss1_md.jpeg'></img>,0,TRUE,NA,sub54
NA,html-keyboard-response,53,250107,0.0-10.0-0.20,"""event"",""trial"",""time""
""fullscreenenter"",""0"",""2051""
","
","
","""event"",""trial"",""time""
""fullscreenenter"",""0"",""2051""
","
",null,"<div style=""font-size:60px;"">+</div>",NA,null,fixation,2020-06-15T22:49:33Z,NA,NA,NA,NA,NA,sub54
NA,mars-trial,54,264752,0.0-10.0-1.20,"""event"",""trial"",""time""
""fullscreenenter"",""0"",""2051""
","
","
","""event"",""trial"",""time""
""fullscreenenter"",""0"",""2051""
","
",14039.034999965224,<img style='border: 4px solid darkgrey;' src='img/tf1_21_M_ss2.jpeg'></img>,2,NA,exp,NA,0,<img src='img/tf1_21_T1_ss2_md.jpeg'></img>,0,TRUE,NA,sub54
NA,html-keyboard-response,55,265254,0.0-10.0-0.21,"""event"",""trial"",""time""
""fullscreenenter"",""0"",""2051""
","
","
","""event"",""trial"",""time""
""fullscreenenter"",""0"",""2051""
","
",null,"<div style=""font-size:60px;"">+</div>",NA,null,fixation,2020-06-15T22:49:48Z,NA,NA,NA,NA,NA,sub54
NA,mars-trial,56,276098,0.0-10.0-1.21,"""event"",""trial"",""time""
""fullscreenenter"",""0"",""2051""
","
","
","""event"",""trial"",""time""
""fullscreenenter"",""0"",""2051""
","
",10236.109999998007,<img style='border: 4px solid darkgrey;' src='img/tf1_22_M_ss3.jpeg'></img>,2,NA,exp,NA,3,<img src='img/tf1_22_T1_ss3_md.jpeg'></img>,0,FALSE,NA,sub54
NA,html-keyboard-response,57,276602,0.0-10.0-0.22,"""event"",""trial"",""time""
""fullscreenenter"",""0"",""2051""
","
","
","""event"",""trial"",""time""
""fullscreenenter"",""0"",""2051""
","
",null,"<div style=""font-size:60px;"">+</div>",NA,null,fixation,2020-06-15T22:49:59Z,NA,NA,NA,NA,NA,sub54
NA,mars-trial,58,286438,0.0-10.0-1.22,"""event"",""trial"",""time""
""fullscreenenter"",""0"",""2051""
","
","
","""event"",""trial"",""time""
""fullscreenenter"",""0"",""2051""
","
",9231.379999953788,<img style='border: 4px solid darkgrey;' src='img/tf1_23_M_ss1.jpeg'></img>,1,NA,exp,NA,0,<img src='img/tf1_23_T1_ss1_md.jpeg'></img>,0,TRUE,NA,sub54
NA,html-keyboard-response,59,286941,0.0-10.0-0.23,"""event"",""trial"",""time""
""fullscreenenter"",""0"",""2051""
","
","
","""event"",""trial"",""time""
""fullscreenenter"",""0"",""2051""
","
",null,"<div style=""font-size:60px;"">+</div>",NA,null,fixation,2020-06-15T22:50:10Z,NA,NA,NA,NA,NA,sub54
NA,mars-trial,60,297692,0.0-10.0-1.23,"""event"",""trial"",""time""
""fullscreenenter"",""0"",""2051""
","
","
","""event"",""trial"",""time""
""fullscreenenter"",""0"",""2051""
","
",10143.464999971911,<img style='border: 4px solid darkgrey;' src='img/tf1_24_M_ss2.jpeg'></img>,0,NA,exp,NA,0,<img src='img/tf1_24_T1_ss2_md.jpeg'></img>,0,TRUE,NA,sub54
NA,html-keyboard-response,61,298193,0.0-10.0-0.24,"""event"",""trial"",""time""
""fullscreenenter"",""0"",""2051""
","
","
","""event"",""trial"",""time""
""fullscreenenter"",""0"",""2051""
","
",null,"<div style=""font-size:60px;"">+</div>",NA,null,fixation,2020-06-15T22:50:21Z,NA,NA,NA,NA,NA,sub54
NA,mars-trial,62,305247,0.0-10.0-1.24,"""event"",""trial"",""time""
""fullscreenenter"",""0"",""2051""
","
","
","""event"",""trial"",""time""
""fullscreenenter"",""0"",""2051""
","
",6442.8099999786355,<img style='border: 4px solid darkgrey;' src='img/tf1_25_M_ss3.jpeg'></img>,2,NA,exp,NA,0,<img src='img/tf1_25_T1_ss3_md.jpeg'></img>,0,TRUE,NA,sub54
NA,html-keyboard-response,63,305750,0.0-10.0-0.25,"""event"",""trial"",""time""
""fullscreenenter"",""0"",""2051""
","
","
","""event"",""trial"",""time""
""fullscreenenter"",""0"",""2051""
","
",null,"<div style=""font-size:60px;"">+</div>",NA,null,fixation,2020-06-15T22:50:29Z,NA,NA,NA,NA,NA,sub54
NA,mars-trial,64,328544,0.0-10.0-1.25,"""event"",""trial"",""time""
""fullscreenenter"",""0"",""2051""
","
","
","""event"",""trial"",""time""
""fullscreenenter"",""0"",""2051""
","
",22186.355000012554,<img style='border: 4px solid darkgrey;' src='img/tf1_26_M_ss1.jpeg'></img>,1,NA,exp,NA,2,<img src='img/tf1_26_T1_ss1_md.jpeg'></img>,0,FALSE,NA,sub54
NA,html-keyboard-response,65,329048,0.0-10.0-0.26,"""event"",""trial"",""time""
""fullscreenenter"",""0"",""2051""
","
","
","""event"",""trial"",""time""
""fullscreenenter"",""0"",""2051""
","
",null,"<div style=""font-size:60px;"">+</div>",NA,null,fixation,2020-06-15T22:50:52Z,NA,NA,NA,NA,NA,sub54
NA,mars-trial,66,332972,0.0-10.0-1.26,"""event"",""trial"",""time""
""fullscreenenter"",""0"",""2051""
","
","
","""event"",""trial"",""time""
""fullscreenenter"",""0"",""2051""
","
",3317.7300000097603,<img style='border: 4px solid darkgrey;' src='img/tf1_27_M_ss2.jpeg'></img>,2,NA,exp,NA,2,<img src='img/tf1_27_T1_ss2_md.jpeg'></img>,0,FALSE,NA,sub54
NA,html-keyboard-response,67,333475,0.0-10.0-0.27,"""event"",""trial"",""time""
""fullscreenenter"",""0"",""2051""
","
","
","""event"",""trial"",""time""
""fullscreenenter"",""0"",""2051""
","
",null,"<div style=""font-size:60px;"">+</div>",NA,null,fixation,2020-06-15T22:50:56Z,NA,NA,NA,NA,NA,sub54
NA,mars-trial,68,343223,0.0-10.0-1.27,"""event"",""trial"",""time""
""fullscreenenter"",""0"",""2051""
","
","
","""event"",""trial"",""time""
""fullscreenenter"",""0"",""2051""
","
",9141.230000008363,<img style='border: 4px solid darkgrey;' src='img/tf1_28_M_ss3.jpeg'></img>,3,NA,exp,NA,1,<img src='img/tf1_28_T1_ss3_md.jpeg'></img>,0,FALSE,NA,sub54
NA,html-keyboard-response,69,343726,0.0-10.0-0.28,"""event"",""trial"",""time""
""fullscreenenter"",""0"",""2051""
","
","
","""event"",""trial"",""time""
""fullscreenenter"",""0"",""2051""
","
",null,"<div style=""font-size:60px;"">+</div>",NA,null,fixation,2020-06-15T22:51:07Z,NA,NA,NA,NA,NA,sub54
NA,mars-trial,70,360531,0.0-10.0-1.28,"""event"",""trial"",""time""
""fullscreenenter"",""0"",""2051""
","
","
","""event"",""trial"",""time""
""fullscreenenter"",""0"",""2051""
","
",16196.9950000057,<img style='border: 4px solid darkgrey;' src='img/tf1_29_M_ss1.jpeg'></img>,0,NA,exp,NA,0,<img src='img/tf1_29_T1_ss1_md.jpeg'></img>,0,TRUE,NA,sub54
NA,html-keyboard-response,71,361033,0.0-10.0-0.29,"""event"",""trial"",""time""
""fullscreenenter"",""0"",""2051""
","
","
","""event"",""trial"",""time""
""fullscreenenter"",""0"",""2051""
","
",null,"<div style=""font-size:60px;"">+</div>",NA,null,fixation,2020-06-15T22:51:24Z,NA,NA,NA,NA,NA,sub54
NA,mars-trial,72,372596,0.0-10.0-1.29,"""event"",""trial"",""time""
""fullscreenenter"",""0"",""2051""
","
","
","""event"",""trial"",""time""
""fullscreenenter"",""0"",""2051""
","
",10956.770000047982,<img style='border: 4px solid darkgrey;' src='img/tf1_30_M_ss2.jpeg'></img>,0,NA,exp,NA,0,<img src='img/tf1_30_T1_ss2_md.jpeg'></img>,0,TRUE,NA,sub54
NA,html-keyboard-response,73,373100,0.0-10.0-0.30,"""event"",""trial"",""time""
""fullscreenenter"",""0"",""2051""
","
","
","""event"",""trial"",""time""
""fullscreenenter"",""0"",""2051""
","
",null,"<div style=""font-size:60px;"">+</div>",NA,null,fixation,2020-06-15T22:51:36Z,NA,NA,NA,NA,NA,sub54
NA,mars-trial,74,385135,0.0-10.0-1.30,"""event"",""trial"",""time""
""fullscreenenter"",""0"",""2051""
","
","
","""event"",""trial"",""time""
""fullscreenenter"",""0"",""2051""
","
",11426.970000029542,<img style='border: 4px solid darkgrey;' src='img/tf1_31_M_ss3.jpeg'></img>,3,NA,exp,NA,0,<img src='img/tf1_31_T1_ss3_md.jpeg'></img>,0,TRUE,NA,sub54
NA,html-keyboard-response,75,385638,0.0-10.0-0.31,"""event"",""trial"",""time""
""fullscreenenter"",""0"",""2051""
","
","
","""event"",""trial"",""time""
""fullscreenenter"",""0"",""2051""
","
",null,"<div style=""font-size:60px;"">+</div>",NA,null,fixation,2020-06-15T22:51:49Z,NA,NA,NA,NA,NA,sub54
NA,mars-trial,76,392982,0.0-10.0-1.31,"""event"",""trial"",""time""
""fullscreenenter"",""0"",""2051""
","
","
","""event"",""trial"",""time""
""fullscreenenter"",""0"",""2051""
","
",6738.260000012815,<img style='border: 4px solid darkgrey;' src='img/tf1_32_M_ss1.jpeg'></img>,1,NA,exp,NA,0,<img src='img/tf1_32_T1_ss1_md.jpeg'></img>,0,TRUE,NA,sub54
NA,html-keyboard-response,77,393485,0.0-10.0-0.32,"""event"",""trial"",""time""
""fullscreenenter"",""0"",""2051""
","
","
","""event"",""trial"",""time""
""fullscreenenter"",""0"",""2051""
","
",null,"<div style=""font-size:60px;"">+</div>",NA,null,fixation,2020-06-15T22:51:56Z,NA,NA,NA,NA,NA,sub54
NA,mars-trial,78,399634,0.0-10.0-1.32,"""event"",""trial"",""time""
""fullscreenenter"",""0"",""2051""
","
","
","""event"",""trial"",""time""
""fullscreenenter"",""0"",""2051""
","
",5542.179999989457,<img style='border: 4px solid darkgrey;' src='img/tf1_33_M_ss2.jpeg'></img>,2,NA,exp,NA,0,<img src='img/tf1_33_T1_ss2_md.jpeg'></img>,0,TRUE,NA,sub54
NA,html-keyboard-response,79,400137,0.0-10.0-0.33,"""event"",""trial"",""time""
""fullscreenenter"",""0"",""2051""
","
","
","""event"",""trial"",""time""
""fullscreenenter"",""0"",""2051""
","
",null,"<div style=""font-size:60px;"">+</div>",NA,null,fixation,2020-06-15T22:52:03Z,NA,NA,NA,NA,NA,sub54
NA,mars-trial,80,418941,0.0-10.0-1.33,"""event"",""trial"",""time""
""fullscreenenter"",""0"",""2051""
","
","
","""event"",""trial"",""time""
""fullscreenenter"",""0"",""2051""
","
",18197.884999972302,<img style='border: 4px solid darkgrey;' src='img/tf1_34_M_ss3.jpeg'></img>,0,NA,exp,NA,3,<img src='img/tf1_34_T1_ss3_md.jpeg'></img>,0,FALSE,NA,sub54
NA,html-keyboard-response,81,419444,0.0-10.0-0.34,"""event"",""trial"",""time""
""fullscreenenter"",""0"",""2051""
","
","
","""event"",""trial"",""time""
""fullscreenenter"",""0"",""2051""
","
",null,"<div style=""font-size:60px;"">+</div>",NA,null,fixation,2020-06-15T22:52:22Z,NA,NA,NA,NA,NA,sub54
NA,mars-trial,82,430477,0.0-10.0-1.34,"""event"",""trial"",""time""
""fullscreenenter"",""0"",""2051""
","
","
","""event"",""trial"",""time""
""fullscreenenter"",""0"",""2051""
","
",10427.850000036415,<img style='border: 4px solid darkgrey;' src='img/tf1_35_M_ss1.jpeg'></img>,2,NA,exp,NA,3,<img src='img/tf1_35_T1_ss1_md.jpeg'></img>,0,FALSE,NA,sub54
NA,html-keyboard-response,83,430980,0.0-10.0-0.35,"""event"",""trial"",""time""
""fullscreenenter"",""0"",""2051""
","
","
","""event"",""trial"",""time""
""fullscreenenter"",""0"",""2051""
","
",null,"<div style=""font-size:60px;"">+</div>",NA,null,fixation,2020-06-15T22:52:34Z,NA,NA,NA,NA,NA,sub54
NA,mars-trial,84,452448,0.0-10.0-1.35,"""event"",""trial"",""time""
""fullscreenenter"",""0"",""2051""
","
","
","""event"",""trial"",""time""
""fullscreenenter"",""0"",""2051""
","
",20862.760000047274,<img style='border: 4px solid darkgrey;' src='img/tf1_36_M_ss2.jpeg'></img>,0,NA,exp,NA,0,<img src='img/tf1_36_T1_ss2_md.jpeg'></img>,0,TRUE,NA,sub54
NA,html-keyboard-response,85,452951,0.0-10.0-0.36,"""event"",""trial"",""time""
""fullscreenenter"",""0"",""2051""
","
","
","""event"",""trial"",""time""
""fullscreenenter"",""0"",""2051""
","
",null,"<div style=""font-size:60px;"">+</div>",NA,null,fixation,2020-06-15T22:52:56Z,NA,NA,NA,NA,NA,sub54
NA,mars-trial,86,475356,0.0-10.0-1.36,"""event"",""trial"",""time""
""fullscreenenter"",""0"",""2051""
","
","
","""event"",""trial"",""time""
""fullscreenenter"",""0"",""2051""
","
",21796.39000003226,<img style='border: 4px solid darkgrey;' src='img/tf1_37_M_ss3.jpeg'></img>,0,NA,exp,NA,0,<img src='img/tf1_37_T1_ss3_md.jpeg'></img>,0,TRUE,NA,sub54
NA,html-keyboard-response,87,475859,0.0-10.0-0.37,"""event"",""trial"",""time""
""fullscreenenter"",""0"",""2051""
","
","
","""event"",""trial"",""time""
""fullscreenenter"",""0"",""2051""
","
",null,"<div style=""font-size:60px;"">+</div>",NA,null,fixation,2020-06-15T22:53:19Z,NA,NA,NA,NA,NA,sub54
NA,mars-trial,88,482431,0.0-10.0-1.37,"""event"",""trial"",""time""
""fullscreenenter"",""0"",""2051""
","
","
","""event"",""trial"",""time""
""fullscreenenter"",""0"",""2051""
","
",5966.320000006817,<img style='border: 4px solid darkgrey;' src='img/tf1_38_M_ss1.jpeg'></img>,2,NA,exp,NA,0,<img src='img/tf1_38_T1_ss1_md.jpeg'></img>,0,TRUE,NA,sub54
NA,html-keyboard-response,89,482934,0.0-10.0-0.38,"""event"",""trial"",""time""
""fullscreenenter"",""0"",""2051""
","
","
","""event"",""trial"",""time""
""fullscreenenter"",""0"",""2051""
","
",null,"<div style=""font-size:60px;"">+</div>",NA,null,fixation,2020-06-15T22:53:26Z,NA,NA,NA,NA,NA,sub54
NA,mars-trial,90,496902,0.0-10.0-1.38,"""event"",""trial"",""time""
""fullscreenenter"",""0"",""2051""
","
","
","""event"",""trial"",""time""
""fullscreenenter"",""0"",""2051""
","
",13361.17499996908,<img style='border: 4px solid darkgrey;' src='img/tf1_39_M_ss2.jpeg'></img>,2,NA,exp,NA,1,<img src='img/tf1_39_T1_ss2_md.jpeg'></img>,0,FALSE,NA,sub54
NA,html-keyboard-response,91,497404,0.0-10.0-0.39,"""event"",""trial"",""time""
""fullscreenenter"",""0"",""2051""
","
","
","""event"",""trial"",""time""
""fullscreenenter"",""0"",""2051""
","
",null,"<div style=""font-size:60px;"">+</div>",NA,null,fixation,2020-06-15T22:53:40Z,NA,NA,NA,NA,NA,sub54
NA,mars-trial,92,509525,0.0-10.0-1.39,"""event"",""trial"",""time""
""fullscreenenter"",""0"",""2051""
","
","
","""event"",""trial"",""time""
""fullscreenenter"",""0"",""2051""
","
",11515.00000001397,<img style='border: 4px solid darkgrey;' src='img/tf1_40_M_ss3.jpeg'></img>,1,NA,exp,NA,0,<img src='img/tf1_40_T1_ss3_md.jpeg'></img>,0,TRUE,NA,sub54
NA,html-keyboard-response,93,510027,0.0-10.0-0.40,"""event"",""trial"",""time""
""fullscreenenter"",""0"",""2051""
","
","
","""event"",""trial"",""time""
""fullscreenenter"",""0"",""2051""
","
",null,"<div style=""font-size:60px;"">+</div>",NA,null,fixation,2020-06-15T22:53:53Z,NA,NA,NA,NA,NA,sub54
NA,mars-trial,94,517970,0.0-10.0-1.40,"""event"",""trial"",""time""
""fullscreenenter"",""0"",""2051""
","
","
","""event"",""trial"",""time""
""fullscreenenter"",""0"",""2051""
","
",7335.750000027474,<img style='border: 4px solid darkgrey;' src='img/tf1_41_M_ss1.jpeg'></img>,1,NA,exp,NA,0,<img src='img/tf1_41_T1_ss1_md.jpeg'></img>,0,TRUE,NA,sub54
NA,html-keyboard-response,95,518473,0.0-10.0-0.41,"""event"",""trial"",""time""
""fullscreenenter"",""0"",""2051""
","
","
","""event"",""trial"",""time""
""fullscreenenter"",""0"",""2051""
","
",null,"<div style=""font-size:60px;"">+</div>",NA,null,fixation,2020-06-15T22:54:01Z,NA,NA,NA,NA,NA,sub54
NA,mars-trial,96,522952,0.0-10.0-1.41,"""event"",""trial"",""time""
""fullscreenenter"",""0"",""2051""
","
","
","""event"",""trial"",""time""
""fullscreenenter"",""0"",""2051""
","
",3872.480000020005,<img style='border: 4px solid darkgrey;' src='img/tf1_42_M_ss2.jpeg'></img>,1,NA,exp,NA,1,<img src='img/tf1_42_T1_ss2_md.jpeg'></img>,0,FALSE,NA,sub54
NA,html-keyboard-response,97,523455,0.0-10.0-0.42,"""event"",""trial"",""time""
""fullscreenenter"",""0"",""2051""
","
","
","""event"",""trial"",""time""
""fullscreenenter"",""0"",""2051""
","
",null,"<div style=""font-size:60px;"">+</div>",NA,null,fixation,2020-06-15T22:54:06Z,NA,NA,NA,NA,NA,sub54
NA,mars-trial,98,532198,0.0-10.0-1.42,"""event"",""trial"",""time""
""fullscreenenter"",""0"",""2051""
","
","
","""event"",""trial"",""time""
""fullscreenenter"",""0"",""2051""
","
",8134.77000000421,<img style='border: 4px solid darkgrey;' src='img/tf1_43_M_ss3.jpeg'></img>,0,NA,exp,NA,0,<img src='img/tf1_43_T1_ss3_md.jpeg'></img>,0,TRUE,NA,sub54
NA,html-keyboard-response,99,532701,0.0-10.0-0.43,"""event"",""trial"",""time""
""fullscreenenter"",""0"",""2051""
","
","
","""event"",""trial"",""time""
""fullscreenenter"",""0"",""2051""
","
",null,"<div style=""font-size:60px;"">+</div>",NA,null,fixation,2020-06-15T22:54:16Z,NA,NA,NA,NA,NA,sub54
NA,mars-trial,100,542866,0.0-10.0-1.43,"""event"",""trial"",""time""
""fullscreenenter"",""0"",""2051""
","
","
","""event"",""trial"",""time""
""fullscreenenter"",""0"",""2051""
","
",9556.130000040866,<img style='border: 4px solid darkgrey;' src='img/tf1_44_M_ss1.jpeg'></img>,0,NA,exp,NA,0,<img src='img/tf1_44_T1_ss1_md.jpeg'></img>,0,TRUE,NA,sub54
NA,html-keyboard-response,101,543368,0.0-10.0-0.44,"""event"",""trial"",""time""
""fullscreenenter"",""0"",""2051""
","
","
","""event"",""trial"",""time""
""fullscreenenter"",""0"",""2051""
","
",null,"<div style=""font-size:60px;"">+</div>",NA,null,fixation,2020-06-15T22:54:26Z,NA,NA,NA,NA,NA,sub54
NA,mars-trial,102,545421,0.0-10.0-1.44,"""event"",""trial"",""time""
""fullscreenenter"",""0"",""2051""
","
","
","""event"",""trial"",""time""
""fullscreenenter"",""0"",""2051""
","
",NA,NA,NA,NA,exp,NA,NA,<img src='img/tf1_45_T1_ss2_md.jpeg'></img>,0,FALSE,NA,sub54
NA,html-keyboard-response,103,545923,0.0-10.0-0.45,"""event"",""trial"",""time""
""fullscreenenter"",""0"",""2051""
","
","
","""event"",""trial"",""time""
""fullscreenenter"",""0"",""2051""
","
",null,"<div style=""font-size:60px;"">+</div>",NA,null,fixation,2020-06-15T22:54:29Z,NA,NA,NA,NA,NA,sub54
NA,audio-button-response,104,549536,0.0-11.0,"""event"",""trial"",""time""
""fullscreenenter"",""0"",""2051""
","
","
","""event"",""trial"",""time""
""fullscreenenter"",""0"",""2051""
","
",3510.3649999946356,audio/mars_instructions_slide5.wav,0,NA,NA,NA,NA,NA,NA,NA,NA,sub54
