success,trial_type,trial_index,time_elapsed,internal_node_id,interactions,blur_events,focus_events,fullscreenenter_events,fullscreenexit_events,rt,stimulus,button_pressed,key_press,part,timestamp,unshuffled_button,correct_response,correct_button,correct,value,subject_id
TRUE,fullscreen,0,5015,0.0-0.0,"""event"",""trial"",""time""
""fullscreenenter"",""0"",""4024""
","
","
","""event"",""trial"",""time""
""fullscreenenter"",""0"",""4024""
","
",NA,NA,NA,NA,NA,NA,NA,NA,NA,NA,NA,sub95
NA,pavlovia,1,5036,0.0-1.0,"""event"",""trial"",""time""
""fullscreenenter"",""0"",""4024""
","
","
","""event"",""trial"",""time""
""fullscreenenter"",""0"",""4024""
","
",NA,NA,NA,NA,NA,NA,NA,NA,NA,NA,NA,sub95
NA,html-button-response,2,6424,0.0-2.0,"""event"",""trial"",""time""
""fullscreenenter"",""0"",""4024""
","
","
","""event"",""trial"",""time""
""fullscreenenter"",""0"",""4024""
","
",1384.1099999990547,<p>Welcome! Press START to begin.</p><br>,0,NA,NA,NA,NA,NA,NA,NA,NA,sub95
NA,audio-button-response,3,23278,0.0-3.0,"""event"",""trial"",""time""
""fullscreenenter"",""0"",""4024""
","
","
","""event"",""trial"",""time""
""fullscreenenter"",""0"",""4024""
","
",16849.279999994906,audio/mars_instructions_slide2.wav,0,NA,NA,NA,NA,NA,NA,NA,NA,sub95
NA,audio-button-response,4,33054,0.0-4.0,"""event"",""trial"",""time""
""fullscreenenter"",""0"",""4024""
","
","
","""event"",""trial"",""time""
""fullscreenenter"",""0"",""4024""
","
",9772.689999997965,audio/mars_instructions_slide3.wav,0,NA,NA,NA,NA,NA,NA,NA,NA,sub95
NA,html-keyboard-response,5,33557,0.0-5.0-0.0,"""event"",""trial"",""time""
""fullscreenenter"",""0"",""4024""
","
","
","""event"",""trial"",""time""
""fullscreenenter"",""0"",""4024""
","
",null,"<div style=""font-size:60px;"">+</div>",NA,null,fixation,2020-06-20T01:00:22Z,NA,NA,NA,NA,NA,sub95
NA,mars-trial,6,35784,0.0-5.0-1.0,"""event"",""trial"",""time""
""fullscreenenter"",""0"",""4024""
","
","
","""event"",""trial"",""time""
""fullscreenenter"",""0"",""4024""
","
",116.30999999761116,<img style='border: 4px solid darkgrey;' src='practice/pt1_M1.png'></img>,2,NA,practice,NA,2,<img src='practice/pt1_T1.png'></img>,0,FALSE,NA,sub95
NA,html-keyboard-response,7,36289,0.0-5.1-0.1,"""event"",""trial"",""time""
""fullscreenenter"",""0"",""4024""
","
","
","""event"",""trial"",""time""
""fullscreenenter"",""0"",""4024""
","
",null,"<div style=""font-size:60px;"">+</div>",NA,null,fixation,2020-06-20T01:00:25Z,NA,NA,NA,NA,NA,sub95
NA,mars-trial,8,41735,0.0-5.1-1.1,"""event"",""trial"",""time""
""fullscreenenter"",""0"",""4024""
","
","
","""event"",""trial"",""time""
""fullscreenenter"",""0"",""4024""
","
",3336.8499999924097,<img style='border: 4px solid darkgrey;' src='practice/pt1_M1.png'></img>,0,NA,practice,NA,0,<img src='practice/pt1_T1.png'></img>,0,TRUE,NA,sub95
NA,html-keyboard-response,9,42239,0.0-6.0-0.0,"""event"",""trial"",""time""
""fullscreenenter"",""0"",""4024""
","
","
","""event"",""trial"",""time""
""fullscreenenter"",""0"",""4024""
","
",null,"<div style=""font-size:60px;"">+</div>",NA,null,fixation,2020-06-20T01:00:31Z,NA,NA,NA,NA,NA,sub95
NA,mars-trial,10,46230,0.0-6.0-1.0,"""event"",""trial"",""time""
""fullscreenenter"",""0"",""4024""
","
","
","""event"",""trial"",""time""
""fullscreenenter"",""0"",""4024""
","
",1878.0899999983376,<img style='border: 4px solid darkgrey;' src='practice/pt2_M1.png'></img>,2,NA,practice,NA,0,<img src='practice/pt2_T1.png'></img>,0,TRUE,NA,sub95
NA,html-keyboard-response,11,46734,0.0-7.0-0.0,"""event"",""trial"",""time""
""fullscreenenter"",""0"",""4024""
","
","
","""event"",""trial"",""time""
""fullscreenenter"",""0"",""4024""
","
",null,"<div style=""font-size:60px;"">+</div>",NA,null,fixation,2020-06-20T01:00:36Z,NA,NA,NA,NA,NA,sub95
NA,mars-trial,12,50120,0.0-7.0-1.0,"""event"",""trial"",""time""
""fullscreenenter"",""0"",""4024""
","
","
","""event"",""trial"",""time""
""fullscreenenter"",""0"",""4024""
","
",1274.1950000054203,<img style='border: 4px solid darkgrey;' src='practice/pt3_M1.png'></img>,3,NA,practice,NA,0,<img src='practice/pt3_T1.png'></img>,0,TRUE,NA,sub95
NA,audio-button-response,13,53752,0.0-8.0,"""event"",""trial"",""time""
""fullscreenenter"",""0"",""4024""
","
","
","""event"",""trial"",""time""
""fullscreenenter"",""0"",""4024""
","
",3625.464999990072,audio/mars_instructions_slide4.wav,0,NA,NA,NA,NA,NA,NA,NA,NA,sub95
NA,call-function,14,53753,0.0-9.0,"""event"",""trial"",""time""
""fullscreenenter"",""0"",""4024""
","
","
","""event"",""trial"",""time""
""fullscreenenter"",""0"",""4024""
","
",NA,NA,NA,NA,NA,NA,NA,NA,NA,NA,NA,sub95
NA,html-keyboard-response,15,54255,0.0-10.0-0.0,"""event"",""trial"",""time""
""fullscreenenter"",""0"",""4024""
","
","
","""event"",""trial"",""time""
""fullscreenenter"",""0"",""4024""
","
",null,"<div style=""font-size:60px;"">+</div>",NA,null,fixation,2020-06-20T01:00:43Z,NA,NA,NA,NA,NA,sub95
NA,mars-trial,16,56470,0.0-10.0-1.0,"""event"",""trial"",""time""
""fullscreenenter"",""0"",""4024""
","
","
","""event"",""trial"",""time""
""fullscreenenter"",""0"",""4024""
","
",1603.6049999966053,<img style='border: 4px solid darkgrey;' src='img/tf1_1_M_ss3.jpeg'></img>,1,NA,exp,NA,3,<img src='img/tf1_1_T1_ss3_md.jpeg'></img>,0,FALSE,NA,sub95
NA,html-keyboard-response,17,56975,0.0-10.0-0.1,"""event"",""trial"",""time""
""fullscreenenter"",""0"",""4024""
","
","
","""event"",""trial"",""time""
""fullscreenenter"",""0"",""4024""
","
",null,"<div style=""font-size:60px;"">+</div>",NA,null,fixation,2020-06-20T01:00:46Z,NA,NA,NA,NA,NA,sub95
NA,mars-trial,18,59430,0.0-10.0-1.1,"""event"",""trial"",""time""
""fullscreenenter"",""0"",""4024""
","
","
","""event"",""trial"",""time""
""fullscreenenter"",""0"",""4024""
","
",1846.19000001112,<img style='border: 4px solid darkgrey;' src='img/tf1_2_M_ss1.jpeg'></img>,3,NA,exp,NA,0,<img src='img/tf1_2_T1_ss1_md.jpeg'></img>,0,TRUE,NA,sub95
NA,html-keyboard-response,19,59934,0.0-10.0-0.2,"""event"",""trial"",""time""
""fullscreenenter"",""0"",""4024""
","
","
","""event"",""trial"",""time""
""fullscreenenter"",""0"",""4024""
","
",null,"<div style=""font-size:60px;"">+</div>",NA,null,fixation,2020-06-20T01:00:49Z,NA,NA,NA,NA,NA,sub95
NA,mars-trial,20,62131,0.0-10.0-1.2,"""event"",""trial"",""time""
""fullscreenenter"",""0"",""4024""
","
","
","""event"",""trial"",""time""
""fullscreenenter"",""0"",""4024""
","
",1584.049999990384,<img style='border: 4px solid darkgrey;' src='img/tf1_3_M_ss2.jpeg'></img>,2,NA,exp,NA,0,<img src='img/tf1_3_T1_ss2_md.jpeg'></img>,0,TRUE,NA,sub95
NA,html-keyboard-response,21,62635,0.0-10.0-0.3,"""event"",""trial"",""time""
""fullscreenenter"",""0"",""4024""
","
","
","""event"",""trial"",""time""
""fullscreenenter"",""0"",""4024""
","
",null,"<div style=""font-size:60px;"">+</div>",NA,null,fixation,2020-06-20T01:00:52Z,NA,NA,NA,NA,NA,sub95
NA,mars-trial,22,64972,0.0-10.0-1.3,"""event"",""trial"",""time""
""fullscreenenter"",""0"",""4024""
","
","
","""event"",""trial"",""time""
""fullscreenenter"",""0"",""4024""
","
",1730.5150000029244,<img style='border: 4px solid darkgrey;' src='img/tf1_4_M_ss3.jpeg'></img>,2,NA,exp,NA,2,<img src='img/tf1_4_T1_ss3_md.jpeg'></img>,0,FALSE,NA,sub95
NA,html-keyboard-response,23,65476,0.0-10.0-0.4,"""event"",""trial"",""time""
""fullscreenenter"",""0"",""4024""
","
","
","""event"",""trial"",""time""
""fullscreenenter"",""0"",""4024""
","
",null,"<div style=""font-size:60px;"">+</div>",NA,null,fixation,2020-06-20T01:00:54Z,NA,NA,NA,NA,NA,sub95
NA,mars-trial,24,67595,0.0-10.0-1.4,"""event"",""trial"",""time""
""fullscreenenter"",""0"",""4024""
","
","
","""event"",""trial"",""time""
""fullscreenenter"",""0"",""4024""
","
",1509.9699999991572,<img style='border: 4px solid darkgrey;' src='img/tf1_5_M_ss1.jpeg'></img>,3,NA,exp,NA,0,<img src='img/tf1_5_T1_ss1_md.jpeg'></img>,0,TRUE,NA,sub95
NA,html-keyboard-response,25,68099,0.0-10.0-0.5,"""event"",""trial"",""time""
""fullscreenenter"",""0"",""4024""
","
","
","""event"",""trial"",""time""
""fullscreenenter"",""0"",""4024""
","
",null,"<div style=""font-size:60px;"">+</div>",NA,null,fixation,2020-06-20T01:00:57Z,NA,NA,NA,NA,NA,sub95
NA,mars-trial,26,77778,0.0-10.0-1.5,"""event"",""trial"",""time""
""fullscreenenter"",""0"",""4024""
","
","
","""event"",""trial"",""time""
""fullscreenenter"",""0"",""4024""
","
",9066.240000000107,<img style='border: 4px solid darkgrey;' src='img/tf1_6_M_ss2.jpeg'></img>,2,NA,exp,NA,0,<img src='img/tf1_6_T1_ss2_md.jpeg'></img>,0,TRUE,NA,sub95
NA,html-keyboard-response,27,78283,0.0-10.0-0.6,"""event"",""trial"",""time""
""fullscreenenter"",""0"",""4024""
","
","
","""event"",""trial"",""time""
""fullscreenenter"",""0"",""4024""
","
",null,"<div style=""font-size:60px;"">+</div>",NA,null,fixation,2020-06-20T01:01:07Z,NA,NA,NA,NA,NA,sub95
NA,mars-trial,28,82730,0.0-10.0-1.6,"""event"",""trial"",""time""
""fullscreenenter"",""0"",""4024""
","
","
","""event"",""trial"",""time""
""fullscreenenter"",""0"",""4024""
","
",3836.120000007213,<img style='border: 4px solid darkgrey;' src='img/tf1_7_M_ss3.jpeg'></img>,1,NA,exp,NA,0,<img src='img/tf1_7_T1_ss3_md.jpeg'></img>,0,TRUE,NA,sub95
NA,html-keyboard-response,29,83233,0.0-10.0-0.7,"""event"",""trial"",""time""
""fullscreenenter"",""0"",""4024""
","
","
","""event"",""trial"",""time""
""fullscreenenter"",""0"",""4024""
","
",null,"<div style=""font-size:60px;"">+</div>",NA,null,fixation,2020-06-20T01:01:12Z,NA,NA,NA,NA,NA,sub95
NA,mars-trial,30,87311,0.0-10.0-1.7,"""event"",""trial"",""time""
""fullscreenenter"",""0"",""4024""
","
","
","""event"",""trial"",""time""
""fullscreenenter"",""0"",""4024""
","
",3466.985000006389,<img style='border: 4px solid darkgrey;' src='img/tf1_8_M_ss1.jpeg'></img>,3,NA,exp,NA,1,<img src='img/tf1_8_T1_ss1_md.jpeg'></img>,0,FALSE,NA,sub95
NA,html-keyboard-response,31,87816,0.0-10.0-0.8,"""event"",""trial"",""time""
""fullscreenenter"",""0"",""4024""
","
","
","""event"",""trial"",""time""
""fullscreenenter"",""0"",""4024""
","
",null,"<div style=""font-size:60px;"">+</div>",NA,null,fixation,2020-06-20T01:01:17Z,NA,NA,NA,NA,NA,sub95
NA,mars-trial,32,91145,0.0-10.0-1.8,"""event"",""trial"",""time""
""fullscreenenter"",""0"",""4024""
","
","
","""event"",""trial"",""time""
""fullscreenenter"",""0"",""4024""
","
",2717.655000000377,<img style='border: 4px solid darkgrey;' src='img/tf1_9_M_ss2.jpeg'></img>,2,NA,exp,NA,2,<img src='img/tf1_9_T1_ss2_md.jpeg'></img>,0,FALSE,NA,sub95
NA,html-keyboard-response,33,91650,0.0-10.0-0.9,"""event"",""trial"",""time""
""fullscreenenter"",""0"",""4024""
","
","
","""event"",""trial"",""time""
""fullscreenenter"",""0"",""4024""
","
",null,"<div style=""font-size:60px;"">+</div>",NA,null,fixation,2020-06-20T01:01:21Z,NA,NA,NA,NA,NA,sub95
NA,mars-trial,34,102970,0.0-10.0-1.9,"""event"",""trial"",""time""
""fullscreenenter"",""0"",""4024""
","
","
","""event"",""trial"",""time""
""fullscreenenter"",""0"",""4024""
","
",10711.945000002743,<img style='border: 4px solid darkgrey;' src='img/tf1_10_M_ss3.jpeg'></img>,1,NA,exp,NA,0,<img src='img/tf1_10_T1_ss3_md.jpeg'></img>,0,TRUE,NA,sub95
NA,html-keyboard-response,35,103474,0.0-10.0-0.10,"""event"",""trial"",""time""
""fullscreenenter"",""0"",""4024""
","
","
","""event"",""trial"",""time""
""fullscreenenter"",""0"",""4024""
","
",null,"<div style=""font-size:60px;"">+</div>",NA,null,fixation,2020-06-20T01:01:32Z,NA,NA,NA,NA,NA,sub95
NA,mars-trial,36,113536,0.0-10.0-1.10,"""event"",""trial"",""time""
""fullscreenenter"",""0"",""4024""
","
","
","""event"",""trial"",""time""
""fullscreenenter"",""0"",""4024""
","
",9450.119999994058,<img style='border: 4px solid darkgrey;' src='img/tf1_11_M_ss1.jpeg'></img>,2,NA,exp,NA,2,<img src='img/tf1_11_T1_ss1_md.jpeg'></img>,0,FALSE,NA,sub95
NA,html-keyboard-response,37,114040,0.0-10.0-0.11,"""event"",""trial"",""time""
""fullscreenenter"",""0"",""4024""
","
","
","""event"",""trial"",""time""
""fullscreenenter"",""0"",""4024""
","
",null,"<div style=""font-size:60px;"">+</div>",NA,null,fixation,2020-06-20T01:01:43Z,NA,NA,NA,NA,NA,sub95
NA,mars-trial,38,124570,0.0-10.0-1.11,"""event"",""trial"",""time""
""fullscreenenter"",""0"",""4024""
","
","
","""event"",""trial"",""time""
""fullscreenenter"",""0"",""4024""
","
",9917.420000012498,<img style='border: 4px solid darkgrey;' src='img/tf1_12_M_ss2.jpeg'></img>,1,NA,exp,NA,2,<img src='img/tf1_12_T1_ss2_md.jpeg'></img>,0,FALSE,NA,sub95
NA,html-keyboard-response,39,125075,0.0-10.0-0.12,"""event"",""trial"",""time""
""fullscreenenter"",""0"",""4024""
","
","
","""event"",""trial"",""time""
""fullscreenenter"",""0"",""4024""
","
",null,"<div style=""font-size:60px;"">+</div>",NA,null,fixation,2020-06-20T01:01:54Z,NA,NA,NA,NA,NA,sub95
NA,mars-trial,40,132885,0.0-10.0-1.12,"""event"",""trial"",""time""
""fullscreenenter"",""0"",""4024""
","
","
","""event"",""trial"",""time""
""fullscreenenter"",""0"",""4024""
","
",7199.045000001206,<img style='border: 4px solid darkgrey;' src='img/tf1_13_M_ss3.jpeg'></img>,1,NA,exp,NA,2,<img src='img/tf1_13_T1_ss3_md.jpeg'></img>,0,FALSE,NA,sub95
NA,html-keyboard-response,41,133389,0.0-10.0-0.13,"""event"",""trial"",""time""
""fullscreenenter"",""0"",""4024""
","
","
","""event"",""trial"",""time""
""fullscreenenter"",""0"",""4024""
","
",null,"<div style=""font-size:60px;"">+</div>",NA,null,fixation,2020-06-20T01:02:02Z,NA,NA,NA,NA,NA,sub95
NA,mars-trial,42,156899,0.0-10.0-1.13,"""event"",""trial"",""time""
""fullscreenenter"",""0"",""4024""
","
","
","""event"",""trial"",""time""
""fullscreenenter"",""0"",""4024""
","
",22899.95999999519,<img style='border: 4px solid darkgrey;' src='img/tf1_14_M_ss1.jpeg'></img>,2,NA,exp,NA,0,<img src='img/tf1_14_T1_ss1_md.jpeg'></img>,0,TRUE,NA,sub95
NA,html-keyboard-response,43,157404,0.0-10.0-0.14,"""event"",""trial"",""time""
""fullscreenenter"",""0"",""4024""
","
","
","""event"",""trial"",""time""
""fullscreenenter"",""0"",""4024""
","
",null,"<div style=""font-size:60px;"">+</div>",NA,null,fixation,2020-06-20T01:02:26Z,NA,NA,NA,NA,NA,sub95
NA,mars-trial,44,173334,0.0-10.0-1.14,"""event"",""trial"",""time""
""fullscreenenter"",""0"",""4024""
","
","
","""event"",""trial"",""time""
""fullscreenenter"",""0"",""4024""
","
",15318.69000000006,<img style='border: 4px solid darkgrey;' src='img/tf1_15_M_ss2.jpeg'></img>,3,NA,exp,NA,0,<img src='img/tf1_15_T1_ss2_md.jpeg'></img>,0,TRUE,NA,sub95
NA,html-keyboard-response,45,173839,0.0-10.0-0.15,"""event"",""trial"",""time""
""fullscreenenter"",""0"",""4024""
","
","
","""event"",""trial"",""time""
""fullscreenenter"",""0"",""4024""
","
",null,"<div style=""font-size:60px;"">+</div>",NA,null,fixation,2020-06-20T01:02:43Z,NA,NA,NA,NA,NA,sub95
NA,mars-trial,46,179341,0.0-10.0-1.15,"""event"",""trial"",""time""
""fullscreenenter"",""0"",""4024""
","
","
","""event"",""trial"",""time""
""fullscreenenter"",""0"",""4024""
","
",4890.784999995958,<img style='border: 4px solid darkgrey;' src='img/tf1_16_M_ss3.jpeg'></img>,3,NA,exp,NA,1,<img src='img/tf1_16_T1_ss3_md.jpeg'></img>,0,FALSE,NA,sub95
NA,html-keyboard-response,47,179845,0.0-10.0-0.16,"""event"",""trial"",""time""
""fullscreenenter"",""0"",""4024""
","
","
","""event"",""trial"",""time""
""fullscreenenter"",""0"",""4024""
","
",null,"<div style=""font-size:60px;"">+</div>",NA,null,fixation,2020-06-20T01:02:49Z,NA,NA,NA,NA,NA,sub95
NA,mars-trial,48,188520,0.0-10.0-1.16,"""event"",""trial"",""time""
""fullscreenenter"",""0"",""4024""
","
","
","""event"",""trial"",""time""
""fullscreenenter"",""0"",""4024""
","
",8063.99500000407,<img style='border: 4px solid darkgrey;' src='img/tf1_17_M_ss1.jpeg'></img>,2,NA,exp,NA,1,<img src='img/tf1_17_T1_ss1_md.jpeg'></img>,0,FALSE,NA,sub95
NA,html-keyboard-response,49,189025,0.0-10.0-0.17,"""event"",""trial"",""time""
""fullscreenenter"",""0"",""4024""
","
","
","""event"",""trial"",""time""
""fullscreenenter"",""0"",""4024""
","
",null,"<div style=""font-size:60px;"">+</div>",NA,null,fixation,2020-06-20T01:02:58Z,NA,NA,NA,NA,NA,sub95
NA,mars-trial,50,210462,0.0-10.0-1.17,"""event"",""trial"",""time""
""fullscreenenter"",""0"",""4024""
","
","
","""event"",""trial"",""time""
""fullscreenenter"",""0"",""4024""
","
",20825.56999998633,<img style='border: 4px solid darkgrey;' src='img/tf1_18_M_ss2.jpeg'></img>,2,NA,exp,NA,0,<img src='img/tf1_18_T1_ss2_md.jpeg'></img>,0,TRUE,NA,sub95
NA,html-keyboard-response,51,210966,0.0-10.0-0.18,"""event"",""trial"",""time""
""fullscreenenter"",""0"",""4024""
","
","
","""event"",""trial"",""time""
""fullscreenenter"",""0"",""4024""
","
",null,"<div style=""font-size:60px;"">+</div>",NA,null,fixation,2020-06-20T01:03:20Z,NA,NA,NA,NA,NA,sub95
NA,mars-trial,52,225913,0.0-10.0-1.18,"""event"",""trial"",""time""
""fullscreenenter"",""0"",""4024""
","
","
","""event"",""trial"",""time""
""fullscreenenter"",""0"",""4024""
","
",14334.900000001653,<img style='border: 4px solid darkgrey;' src='img/tf1_19_M_ss3.jpeg'></img>,1,NA,exp,NA,0,<img src='img/tf1_19_T1_ss3_md.jpeg'></img>,0,TRUE,NA,sub95
NA,html-keyboard-response,53,226417,0.0-10.0-0.19,"""event"",""trial"",""time""
""fullscreenenter"",""0"",""4024""
","
","
","""event"",""trial"",""time""
""fullscreenenter"",""0"",""4024""
","
",null,"<div style=""font-size:60px;"">+</div>",NA,null,fixation,2020-06-20T01:03:35Z,NA,NA,NA,NA,NA,sub95
NA,mars-trial,54,229337,0.0-10.0-1.19,"""event"",""trial"",""time""
""fullscreenenter"",""0"",""4024""
","
","
","""event"",""trial"",""time""
""fullscreenenter"",""0"",""4024""
","
",2307.22999999125,<img style='border: 4px solid darkgrey;' src='img/tf1_20_M_ss1.jpeg'></img>,3,NA,exp,NA,3,<img src='img/tf1_20_T1_ss1_md.jpeg'></img>,0,FALSE,NA,sub95
NA,html-keyboard-response,55,229840,0.0-10.0-0.20,"""event"",""trial"",""time""
""fullscreenenter"",""0"",""4024""
","
","
","""event"",""trial"",""time""
""fullscreenenter"",""0"",""4024""
","
",null,"<div style=""font-size:60px;"">+</div>",NA,null,fixation,2020-06-20T01:03:39Z,NA,NA,NA,NA,NA,sub95
NA,mars-trial,56,241859,0.0-10.0-1.20,"""event"",""trial"",""time""
""fullscreenenter"",""0"",""4024""
","
","
","""event"",""trial"",""time""
""fullscreenenter"",""0"",""4024""
","
",11407.760000001872,<img style='border: 4px solid darkgrey;' src='img/tf1_21_M_ss2.jpeg'></img>,0,NA,exp,NA,2,<img src='img/tf1_21_T1_ss2_md.jpeg'></img>,0,FALSE,NA,sub95
NA,html-keyboard-response,57,242364,0.0-10.0-0.21,"""event"",""trial"",""time""
""fullscreenenter"",""0"",""4024""
","
","
","""event"",""trial"",""time""
""fullscreenenter"",""0"",""4024""
","
",null,"<div style=""font-size:60px;"">+</div>",NA,null,fixation,2020-06-20T01:03:51Z,NA,NA,NA,NA,NA,sub95
NA,mars-trial,58,248002,0.0-10.0-1.21,"""event"",""trial"",""time""
""fullscreenenter"",""0"",""4024""
","
","
","""event"",""trial"",""time""
""fullscreenenter"",""0"",""4024""
","
",5024.599999989732,<img style='border: 4px solid darkgrey;' src='img/tf1_22_M_ss3.jpeg'></img>,3,NA,exp,NA,3,<img src='img/tf1_22_T1_ss3_md.jpeg'></img>,0,FALSE,NA,sub95
NA,html-keyboard-response,59,248507,0.0-10.0-0.22,"""event"",""trial"",""time""
""fullscreenenter"",""0"",""4024""
","
","
","""event"",""trial"",""time""
""fullscreenenter"",""0"",""4024""
","
",null,"<div style=""font-size:60px;"">+</div>",NA,null,fixation,2020-06-20T01:03:57Z,NA,NA,NA,NA,NA,sub95
NA,mars-trial,60,253531,0.0-10.0-1.22,"""event"",""trial"",""time""
""fullscreenenter"",""0"",""4024""
","
","
","""event"",""trial"",""time""
""fullscreenenter"",""0"",""4024""
","
",4406.650000004447,<img style='border: 4px solid darkgrey;' src='img/tf1_23_M_ss1.jpeg'></img>,0,NA,exp,NA,3,<img src='img/tf1_23_T1_ss1_md.jpeg'></img>,0,FALSE,NA,sub95
NA,html-keyboard-response,61,254036,0.0-10.0-0.23,"""event"",""trial"",""time""
""fullscreenenter"",""0"",""4024""
","
","
","""event"",""trial"",""time""
""fullscreenenter"",""0"",""4024""
","
",null,"<div style=""font-size:60px;"">+</div>",NA,null,fixation,2020-06-20T01:04:03Z,NA,NA,NA,NA,NA,sub95
NA,mars-trial,62,267885,0.0-10.0-1.23,"""event"",""trial"",""time""
""fullscreenenter"",""0"",""4024""
","
","
","""event"",""trial"",""time""
""fullscreenenter"",""0"",""4024""
","
",13231.735000008484,<img style='border: 4px solid darkgrey;' src='img/tf1_24_M_ss2.jpeg'></img>,0,NA,exp,NA,2,<img src='img/tf1_24_T1_ss2_md.jpeg'></img>,0,FALSE,NA,sub95
NA,html-keyboard-response,63,268389,0.0-10.0-0.24,"""event"",""trial"",""time""
""fullscreenenter"",""0"",""4024""
","
","
","""event"",""trial"",""time""
""fullscreenenter"",""0"",""4024""
","
",null,"<div style=""font-size:60px;"">+</div>",NA,null,fixation,2020-06-20T01:04:17Z,NA,NA,NA,NA,NA,sub95
NA,mars-trial,64,280339,0.0-10.0-1.24,"""event"",""trial"",""time""
""fullscreenenter"",""0"",""4024""
","
","
","""event"",""trial"",""time""
""fullscreenenter"",""0"",""4024""
","
",11339.610000009998,<img style='border: 4px solid darkgrey;' src='img/tf1_25_M_ss3.jpeg'></img>,0,NA,exp,NA,0,<img src='img/tf1_25_T1_ss3_md.jpeg'></img>,0,TRUE,NA,sub95
NA,html-keyboard-response,65,280843,0.0-10.0-0.25,"""event"",""trial"",""time""
""fullscreenenter"",""0"",""4024""
","
","
","""event"",""trial"",""time""
""fullscreenenter"",""0"",""4024""
","
",null,"<div style=""font-size:60px;"">+</div>",NA,null,fixation,2020-06-20T01:04:30Z,NA,NA,NA,NA,NA,sub95
NA,mars-trial,66,291321,0.0-10.0-1.25,"""event"",""trial"",""time""
""fullscreenenter"",""0"",""4024""
","
","
","""event"",""trial"",""time""
""fullscreenenter"",""0"",""4024""
","
",9867.085000005318,<img style='border: 4px solid darkgrey;' src='img/tf1_26_M_ss1.jpeg'></img>,0,NA,exp,NA,0,<img src='img/tf1_26_T1_ss1_md.jpeg'></img>,0,TRUE,NA,sub95
NA,html-keyboard-response,67,291825,0.0-10.0-0.26,"""event"",""trial"",""time""
""fullscreenenter"",""0"",""4024""
","
","
","""event"",""trial"",""time""
""fullscreenenter"",""0"",""4024""
","
",null,"<div style=""font-size:60px;"">+</div>",NA,null,fixation,2020-06-20T01:04:41Z,NA,NA,NA,NA,NA,sub95
NA,mars-trial,68,318543,0.0-10.0-1.26,"""event"",""trial"",""time""
""fullscreenenter"",""0"",""4024""
","
","
","""event"",""trial"",""time""
""fullscreenenter"",""0"",""4024""
","
",26106.22999999032,<img style='border: 4px solid darkgrey;' src='img/tf1_27_M_ss2.jpeg'></img>,0,NA,exp,NA,2,<img src='img/tf1_27_T1_ss2_md.jpeg'></img>,0,FALSE,NA,sub95
NA,html-keyboard-response,69,319047,0.0-10.0-0.27,"""event"",""trial"",""time""
""fullscreenenter"",""0"",""4024""
","
","
","""event"",""trial"",""time""
""fullscreenenter"",""0"",""4024""
","
",null,"<div style=""font-size:60px;"">+</div>",NA,null,fixation,2020-06-20T01:05:08Z,NA,NA,NA,NA,NA,sub95
NA,mars-trial,70,322490,0.0-10.0-1.27,"""event"",""trial"",""time""
""fullscreenenter"",""0"",""4024""
","
","
","""event"",""trial"",""time""
""fullscreenenter"",""0"",""4024""
","
",2831.259999991744,<img style='border: 4px solid darkgrey;' src='img/tf1_28_M_ss3.jpeg'></img>,2,NA,exp,NA,2,<img src='img/tf1_28_T1_ss3_md.jpeg'></img>,0,FALSE,NA,sub95
NA,html-keyboard-response,71,322994,0.0-10.0-0.28,"""event"",""trial"",""time""
""fullscreenenter"",""0"",""4024""
","
","
","""event"",""trial"",""time""
""fullscreenenter"",""0"",""4024""
","
",null,"<div style=""font-size:60px;"">+</div>",NA,null,fixation,2020-06-20T01:05:12Z,NA,NA,NA,NA,NA,sub95
NA,mars-trial,72,327626,0.0-10.0-1.28,"""event"",""trial"",""time""
""fullscreenenter"",""0"",""4024""
","
","
","""event"",""trial"",""time""
""fullscreenenter"",""0"",""4024""
","
",4021.4300000079675,<img style='border: 4px solid darkgrey;' src='img/tf1_29_M_ss1.jpeg'></img>,3,NA,exp,NA,2,<img src='img/tf1_29_T1_ss1_md.jpeg'></img>,0,FALSE,NA,sub95
NA,html-keyboard-response,73,328131,0.0-10.0-0.29,"""event"",""trial"",""time""
""fullscreenenter"",""0"",""4024""
","
","
","""event"",""trial"",""time""
""fullscreenenter"",""0"",""4024""
","
",null,"<div style=""font-size:60px;"">+</div>",NA,null,fixation,2020-06-20T01:05:17Z,NA,NA,NA,NA,NA,sub95
NA,mars-trial,74,332724,0.0-10.0-1.29,"""event"",""trial"",""time""
""fullscreenenter"",""0"",""4024""
","
","
","""event"",""trial"",""time""
""fullscreenenter"",""0"",""4024""
","
",3987.345000001369,<img style='border: 4px solid darkgrey;' src='img/tf1_30_M_ss2.jpeg'></img>,2,NA,exp,NA,0,<img src='img/tf1_30_T1_ss2_md.jpeg'></img>,0,TRUE,NA,sub95
NA,html-keyboard-response,75,333227,0.0-10.0-0.30,"""event"",""trial"",""time""
""fullscreenenter"",""0"",""4024""
","
","
","""event"",""trial"",""time""
""fullscreenenter"",""0"",""4024""
","
",null,"<div style=""font-size:60px;"">+</div>",NA,null,fixation,2020-06-20T01:05:22Z,NA,NA,NA,NA,NA,sub95
NA,mars-trial,76,337297,0.0-10.0-1.30,"""event"",""trial"",""time""
""fullscreenenter"",""0"",""4024""
","
","
","""event"",""trial"",""time""
""fullscreenenter"",""0"",""4024""
","
",3459.7649999923306,<img style='border: 4px solid darkgrey;' src='img/tf1_31_M_ss3.jpeg'></img>,2,NA,exp,NA,0,<img src='img/tf1_31_T1_ss3_md.jpeg'></img>,0,TRUE,NA,sub95
NA,html-keyboard-response,77,337801,0.0-10.0-0.31,"""event"",""trial"",""time""
""fullscreenenter"",""0"",""4024""
","
","
","""event"",""trial"",""time""
""fullscreenenter"",""0"",""4024""
","
",null,"<div style=""font-size:60px;"">+</div>",NA,null,fixation,2020-06-20T01:05:27Z,NA,NA,NA,NA,NA,sub95
NA,mars-trial,78,342866,0.0-10.0-1.31,"""event"",""trial"",""time""
""fullscreenenter"",""0"",""4024""
","
","
","""event"",""trial"",""time""
""fullscreenenter"",""0"",""4024""
","
",4453.479999996489,<img style='border: 4px solid darkgrey;' src='img/tf1_32_M_ss1.jpeg'></img>,2,NA,exp,NA,3,<img src='img/tf1_32_T1_ss1_md.jpeg'></img>,0,FALSE,NA,sub95
NA,html-keyboard-response,79,343370,0.0-10.0-0.32,"""event"",""trial"",""time""
""fullscreenenter"",""0"",""4024""
","
","
","""event"",""trial"",""time""
""fullscreenenter"",""0"",""4024""
","
",null,"<div style=""font-size:60px;"">+</div>",NA,null,fixation,2020-06-20T01:05:32Z,NA,NA,NA,NA,NA,sub95
NA,mars-trial,80,348453,0.0-10.0-1.32,"""event"",""trial"",""time""
""fullscreenenter"",""0"",""4024""
","
","
","""event"",""trial"",""time""
""fullscreenenter"",""0"",""4024""
","
",4472.124999985681,<img style='border: 4px solid darkgrey;' src='img/tf1_33_M_ss2.jpeg'></img>,3,NA,exp,NA,3,<img src='img/tf1_33_T1_ss2_md.jpeg'></img>,0,FALSE,NA,sub95
NA,html-keyboard-response,81,348957,0.0-10.0-0.33,"""event"",""trial"",""time""
""fullscreenenter"",""0"",""4024""
","
","
","""event"",""trial"",""time""
""fullscreenenter"",""0"",""4024""
","
",null,"<div style=""font-size:60px;"">+</div>",NA,null,fixation,2020-06-20T01:05:38Z,NA,NA,NA,NA,NA,sub95
NA,mars-trial,82,352460,0.0-10.0-1.33,"""event"",""trial"",""time""
""fullscreenenter"",""0"",""4024""
","
","
","""event"",""trial"",""time""
""fullscreenenter"",""0"",""4024""
","
",2892.309999995632,<img style='border: 4px solid darkgrey;' src='img/tf1_34_M_ss3.jpeg'></img>,2,NA,exp,NA,0,<img src='img/tf1_34_T1_ss3_md.jpeg'></img>,0,TRUE,NA,sub95
NA,html-keyboard-response,83,352966,0.0-10.0-0.34,"""event"",""trial"",""time""
""fullscreenenter"",""0"",""4024""
","
","
","""event"",""trial"",""time""
""fullscreenenter"",""0"",""4024""
","
",null,"<div style=""font-size:60px;"">+</div>",NA,null,fixation,2020-06-20T01:05:42Z,NA,NA,NA,NA,NA,sub95
NA,mars-trial,84,362730,0.0-10.0-1.34,"""event"",""trial"",""time""
""fullscreenenter"",""0"",""4024""
","
","
","""event"",""trial"",""time""
""fullscreenenter"",""0"",""4024""
","
",9153.939999989234,<img style='border: 4px solid darkgrey;' src='img/tf1_35_M_ss1.jpeg'></img>,0,NA,exp,NA,3,<img src='img/tf1_35_T1_ss1_md.jpeg'></img>,0,FALSE,NA,sub95
NA,html-keyboard-response,85,363236,0.0-10.0-0.35,"""event"",""trial"",""time""
""fullscreenenter"",""0"",""4024""
","
","
","""event"",""trial"",""time""
""fullscreenenter"",""0"",""4024""
","
",null,"<div style=""font-size:60px;"">+</div>",NA,null,fixation,2020-06-20T01:05:52Z,NA,NA,NA,NA,NA,sub95
NA,mars-trial,86,364869,0.0-10.0-1.35,"""event"",""trial"",""time""
""fullscreenenter"",""0"",""4024""
","
","
","""event"",""trial"",""time""
""fullscreenenter"",""0"",""4024""
","
",1020.8699999930104,<img style='border: 4px solid darkgrey;' src='img/tf1_36_M_ss2.jpeg'></img>,2,NA,exp,NA,3,<img src='img/tf1_36_T1_ss2_md.jpeg'></img>,0,FALSE,NA,sub95
NA,html-keyboard-response,87,365375,0.0-10.0-0.36,"""event"",""trial"",""time""
""fullscreenenter"",""0"",""4024""
","
","
","""event"",""trial"",""time""
""fullscreenenter"",""0"",""4024""
","
",null,"<div style=""font-size:60px;"">+</div>",NA,null,fixation,2020-06-20T01:05:54Z,NA,NA,NA,NA,NA,sub95
NA,mars-trial,88,367215,0.0-10.0-1.36,"""event"",""trial"",""time""
""fullscreenenter"",""0"",""4024""
","
","
","""event"",""trial"",""time""
""fullscreenenter"",""0"",""4024""
","
",1231.7949999996927,<img style='border: 4px solid darkgrey;' src='img/tf1_37_M_ss3.jpeg'></img>,1,NA,exp,NA,2,<img src='img/tf1_37_T1_ss3_md.jpeg'></img>,0,FALSE,NA,sub95
NA,html-keyboard-response,89,367718,0.0-10.0-0.37,"""event"",""trial"",""time""
""fullscreenenter"",""0"",""4024""
","
","
","""event"",""trial"",""time""
""fullscreenenter"",""0"",""4024""
","
",null,"<div style=""font-size:60px;"">+</div>",NA,null,fixation,2020-06-20T01:05:57Z,NA,NA,NA,NA,NA,sub95
NA,mars-trial,90,368921,0.0-10.0-1.37,"""event"",""trial"",""time""
""fullscreenenter"",""0"",""4024""
","
","
","""event"",""trial"",""time""
""fullscreenenter"",""0"",""4024""
","
",594.7549999982584,<img style='border: 4px solid darkgrey;' src='img/tf1_38_M_ss1.jpeg'></img>,0,NA,exp,NA,0,<img src='img/tf1_38_T1_ss1_md.jpeg'></img>,0,TRUE,NA,sub95
NA,html-keyboard-response,91,369425,0.0-10.0-0.38,"""event"",""trial"",""time""
""fullscreenenter"",""0"",""4024""
","
","
","""event"",""trial"",""time""
""fullscreenenter"",""0"",""4024""
","
",null,"<div style=""font-size:60px;"">+</div>",NA,null,fixation,2020-06-20T01:05:58Z,NA,NA,NA,NA,NA,sub95
NA,mars-trial,92,370791,0.0-10.0-1.38,"""event"",""trial"",""time""
""fullscreenenter"",""0"",""4024""
","
","
","""event"",""trial"",""time""
""fullscreenenter"",""0"",""4024""
","
",757.3649999976624,<img style='border: 4px solid darkgrey;' src='img/tf1_39_M_ss2.jpeg'></img>,3,NA,exp,NA,3,<img src='img/tf1_39_T1_ss2_md.jpeg'></img>,0,FALSE,NA,sub95
NA,html-keyboard-response,93,371295,0.0-10.0-0.39,"""event"",""trial"",""time""
""fullscreenenter"",""0"",""4024""
","
","
","""event"",""trial"",""time""
""fullscreenenter"",""0"",""4024""
","
",null,"<div style=""font-size:60px;"">+</div>",NA,null,fixation,2020-06-20T01:06:00Z,NA,NA,NA,NA,NA,sub95
NA,mars-trial,94,372421,0.0-10.0-1.39,"""event"",""trial"",""time""
""fullscreenenter"",""0"",""4024""
","
","
","""event"",""trial"",""time""
""fullscreenenter"",""0"",""4024""
","
",517.3150000046007,<img style='border: 4px solid darkgrey;' src='img/tf1_40_M_ss3.jpeg'></img>,0,NA,exp,NA,0,<img src='img/tf1_40_T1_ss3_md.jpeg'></img>,0,TRUE,NA,sub95
NA,html-keyboard-response,95,372924,0.0-10.0-0.40,"""event"",""trial"",""time""
""fullscreenenter"",""0"",""4024""
","
","
","""event"",""trial"",""time""
""fullscreenenter"",""0"",""4024""
","
",null,"<div style=""font-size:60px;"">+</div>",NA,null,fixation,2020-06-20T01:06:02Z,NA,NA,NA,NA,NA,sub95
NA,mars-trial,96,374280,0.0-10.0-1.40,"""event"",""trial"",""time""
""fullscreenenter"",""0"",""4024""
","
","
","""event"",""trial"",""time""
""fullscreenenter"",""0"",""4024""
","
",747.8849999897648,<img style='border: 4px solid darkgrey;' src='img/tf1_41_M_ss1.jpeg'></img>,1,NA,exp,NA,3,<img src='img/tf1_41_T1_ss1_md.jpeg'></img>,0,FALSE,NA,sub95
NA,html-keyboard-response,97,374784,0.0-10.0-0.41,"""event"",""trial"",""time""
""fullscreenenter"",""0"",""4024""
","
","
","""event"",""trial"",""time""
""fullscreenenter"",""0"",""4024""
","
",null,"<div style=""font-size:60px;"">+</div>",NA,null,fixation,2020-06-20T01:06:04Z,NA,NA,NA,NA,NA,sub95
NA,mars-trial,98,375785,0.0-10.0-1.41,"""event"",""trial"",""time""
""fullscreenenter"",""0"",""4024""
","
","
","""event"",""trial"",""time""
""fullscreenenter"",""0"",""4024""
","
",392.7399999956833,<img style='border: 4px solid darkgrey;' src='img/tf1_42_M_ss2.jpeg'></img>,2,NA,exp,NA,0,<img src='img/tf1_42_T1_ss2_md.jpeg'></img>,0,TRUE,NA,sub95
NA,html-keyboard-response,99,376287,0.0-10.0-0.42,"""event"",""trial"",""time""
""fullscreenenter"",""0"",""4024""
","
","
","""event"",""trial"",""time""
""fullscreenenter"",""0"",""4024""
","
",null,"<div style=""font-size:60px;"">+</div>",NA,null,fixation,2020-06-20T01:06:05Z,NA,NA,NA,NA,NA,sub95
NA,mars-trial,100,377607,0.0-10.0-1.42,"""event"",""trial"",""time""
""fullscreenenter"",""0"",""4024""
","
","
","""event"",""trial"",""time""
""fullscreenenter"",""0"",""4024""
","
",711.3249999965774,<img style='border: 4px solid darkgrey;' src='img/tf1_43_M_ss3.jpeg'></img>,0,NA,exp,NA,2,<img src='img/tf1_43_T1_ss3_md.jpeg'></img>,0,FALSE,NA,sub95
NA,html-keyboard-response,101,378111,0.0-10.0-0.43,"""event"",""trial"",""time""
""fullscreenenter"",""0"",""4024""
","
","
","""event"",""trial"",""time""
""fullscreenenter"",""0"",""4024""
","
",null,"<div style=""font-size:60px;"">+</div>",NA,null,fixation,2020-06-20T01:06:07Z,NA,NA,NA,NA,NA,sub95
NA,mars-trial,102,379157,0.0-10.0-1.43,"""event"",""trial"",""time""
""fullscreenenter"",""0"",""4024""
","
","
","""event"",""trial"",""time""
""fullscreenenter"",""0"",""4024""
","
",433.08999999135267,<img style='border: 4px solid darkgrey;' src='img/tf1_44_M_ss1.jpeg'></img>,1,NA,exp,NA,3,<img src='img/tf1_44_T1_ss1_md.jpeg'></img>,0,FALSE,NA,sub95
NA,html-keyboard-response,103,379661,0.0-10.0-0.44,"""event"",""trial"",""time""
""fullscreenenter"",""0"",""4024""
","
","
","""event"",""trial"",""time""
""fullscreenenter"",""0"",""4024""
","
",null,"<div style=""font-size:60px;"">+</div>",NA,null,fixation,2020-06-20T01:06:09Z,NA,NA,NA,NA,NA,sub95
NA,mars-trial,104,380445,0.0-10.0-1.44,"""event"",""trial"",""time""
""fullscreenenter"",""0"",""4024""
","
","
","""event"",""trial"",""time""
""fullscreenenter"",""0"",""4024""
","
",173.79000000073574,<img style='border: 4px solid darkgrey;' src='img/tf1_45_M_ss2.jpeg'></img>,3,NA,exp,NA,0,<img src='img/tf1_45_T1_ss2_md.jpeg'></img>,0,TRUE,NA,sub95
NA,html-keyboard-response,105,380948,0.0-10.0-0.45,"""event"",""trial"",""time""
""fullscreenenter"",""0"",""4024""
","
","
","""event"",""trial"",""time""
""fullscreenenter"",""0"",""4024""
","
",null,"<div style=""font-size:60px;"">+</div>",NA,null,fixation,2020-06-20T01:06:10Z,NA,NA,NA,NA,NA,sub95
NA,mars-trial,106,382188,0.0-10.0-1.45,"""event"",""trial"",""time""
""fullscreenenter"",""0"",""4024""
","
","
","""event"",""trial"",""time""
""fullscreenenter"",""0"",""4024""
","
",631.0999999986961,<img style='border: 4px solid darkgrey;' src='img/tf1_46_M_ss3.jpeg'></img>,2,NA,exp,NA,3,<img src='img/tf1_46_T1_ss3_md.jpeg'></img>,0,FALSE,NA,sub95
NA,html-keyboard-response,107,382691,0.0-10.0-0.46,"""event"",""trial"",""time""
""fullscreenenter"",""0"",""4024""
","
","
","""event"",""trial"",""time""
""fullscreenenter"",""0"",""4024""
","
",null,"<div style=""font-size:60px;"">+</div>",NA,null,fixation,2020-06-20T01:06:12Z,NA,NA,NA,NA,NA,sub95
NA,mars-trial,108,383731,0.0-10.0-1.46,"""event"",""trial"",""time""
""fullscreenenter"",""0"",""4024""
","
","
","""event"",""trial"",""time""
""fullscreenenter"",""0"",""4024""
","
",431.37999999453314,<img style='border: 4px solid darkgrey;' src='img/tf1_47_M_ss1.jpeg'></img>,0,NA,exp,NA,0,<img src='img/tf1_47_T1_ss1_md.jpeg'></img>,0,TRUE,NA,sub95
NA,html-keyboard-response,109,384233,0.0-10.0-0.47,"""event"",""trial"",""time""
""fullscreenenter"",""0"",""4024""
","
","
","""event"",""trial"",""time""
""fullscreenenter"",""0"",""4024""
","
",null,"<div style=""font-size:60px;"">+</div>",NA,null,fixation,2020-06-20T01:06:13Z,NA,NA,NA,NA,NA,sub95
NA,mars-trial,110,385277,0.0-10.0-1.47,"""event"",""trial"",""time""
""fullscreenenter"",""0"",""4024""
","
","
","""event"",""trial"",""time""
""fullscreenenter"",""0"",""4024""
","
",433.1300000048941,<img style='border: 4px solid darkgrey;' src='img/tf1_48_M_ss2.jpeg'></img>,1,NA,exp,NA,0,<img src='img/tf1_48_T1_ss2_md.jpeg'></img>,0,TRUE,NA,sub95
NA,html-keyboard-response,111,385783,0.0-10.0-0.48,"""event"",""trial"",""time""
""fullscreenenter"",""0"",""4024""
","
","
","""event"",""trial"",""time""
""fullscreenenter"",""0"",""4024""
","
",null,"<div style=""font-size:60px;"">+</div>",NA,null,fixation,2020-06-20T01:06:15Z,NA,NA,NA,NA,NA,sub95
NA,mars-trial,112,386731,0.0-10.0-1.48,"""event"",""trial"",""time""
""fullscreenenter"",""0"",""4024""
","
","
","""event"",""trial"",""time""
""fullscreenenter"",""0"",""4024""
","
",337.2100000124192,<img style='border: 4px solid darkgrey;' src='img/tf1_49_M_ss3.jpeg'></img>,3,NA,exp,NA,2,<img src='img/tf1_49_T1_ss3_md.jpeg'></img>,0,FALSE,NA,sub95
NA,html-keyboard-response,113,387234,0.0-10.0-0.49,"""event"",""trial"",""time""
""fullscreenenter"",""0"",""4024""
","
","
","""event"",""trial"",""time""
""fullscreenenter"",""0"",""4024""
","
",null,"<div style=""font-size:60px;"">+</div>",NA,null,fixation,2020-06-20T01:06:16Z,NA,NA,NA,NA,NA,sub95
NA,mars-trial,114,388284,0.0-10.0-1.49,"""event"",""trial"",""time""
""fullscreenenter"",""0"",""4024""
","
","
","""event"",""trial"",""time""
""fullscreenenter"",""0"",""4024""
","
",441.52500000200234,<img style='border: 4px solid darkgrey;' src='img/tf1_50_M_ss1.jpeg'></img>,2,NA,exp,NA,1,<img src='img/tf1_50_T1_ss1_md.jpeg'></img>,0,FALSE,NA,sub95
NA,html-keyboard-response,115,388787,0.0-10.0-0.50,"""event"",""trial"",""time""
""fullscreenenter"",""0"",""4024""
","
","
","""event"",""trial"",""time""
""fullscreenenter"",""0"",""4024""
","
",null,"<div style=""font-size:60px;"">+</div>",NA,null,fixation,2020-06-20T01:06:18Z,NA,NA,NA,NA,NA,sub95
NA,mars-trial,116,389779,0.0-10.0-1.50,"""event"",""trial"",""time""
""fullscreenenter"",""0"",""4024""
","
","
","""event"",""trial"",""time""
""fullscreenenter"",""0"",""4024""
","
",383.70999999460764,<img style='border: 4px solid darkgrey;' src='img/tf1_51_M_ss2.jpeg'></img>,0,NA,exp,NA,1,<img src='img/tf1_51_T1_ss2_md.jpeg'></img>,0,FALSE,NA,sub95
NA,html-keyboard-response,117,390284,0.0-10.0-0.51,"""event"",""trial"",""time""
""fullscreenenter"",""0"",""4024""
","
","
","""event"",""trial"",""time""
""fullscreenenter"",""0"",""4024""
","
",null,"<div style=""font-size:60px;"">+</div>",NA,null,fixation,2020-06-20T01:06:19Z,NA,NA,NA,NA,NA,sub95
NA,mars-trial,118,390999,0.0-10.0-1.51,"""event"",""trial"",""time""
""fullscreenenter"",""0"",""4024""
","
","
","""event"",""trial"",""time""
""fullscreenenter"",""0"",""4024""
","
",105.05000001285225,<img style='border: 4px solid darkgrey;' src='img/tf1_52_M_ss3.jpeg'></img>,2,NA,exp,NA,1,<img src='img/tf1_52_T1_ss3_md.jpeg'></img>,0,FALSE,NA,sub95
NA,html-keyboard-response,119,391502,0.0-10.0-0.52,"""event"",""trial"",""time""
""fullscreenenter"",""0"",""4024""
","
","
","""event"",""trial"",""time""
""fullscreenenter"",""0"",""4024""
","
",null,"<div style=""font-size:60px;"">+</div>",NA,null,fixation,2020-06-20T01:06:20Z,NA,NA,NA,NA,NA,sub95
NA,mars-trial,120,392579,0.0-10.0-1.52,"""event"",""trial"",""time""
""fullscreenenter"",""0"",""4024""
","
","
","""event"",""trial"",""time""
""fullscreenenter"",""0"",""4024""
","
",468.13000000838656,<img style='border: 4px solid darkgrey;' src='img/tf1_53_M_ss1.jpeg'></img>,1,NA,exp,NA,0,<img src='img/tf1_53_T1_ss1_md.jpeg'></img>,0,TRUE,NA,sub95
NA,html-keyboard-response,121,393082,0.0-10.0-0.53,"""event"",""trial"",""time""
""fullscreenenter"",""0"",""4024""
","
","
","""event"",""trial"",""time""
""fullscreenenter"",""0"",""4024""
","
",null,"<div style=""font-size:60px;"">+</div>",NA,null,fixation,2020-06-20T01:06:22Z,NA,NA,NA,NA,NA,sub95
NA,mars-trial,122,393798,0.0-10.0-1.53,"""event"",""trial"",""time""
""fullscreenenter"",""0"",""4024""
","
","
","""event"",""trial"",""time""
""fullscreenenter"",""0"",""4024""
","
",105.72500000125729,<img style='border: 4px solid darkgrey;' src='img/tf1_54_M_ss2.jpeg'></img>,3,NA,exp,NA,2,<img src='img/tf1_54_T1_ss2_md.jpeg'></img>,0,FALSE,NA,sub95
NA,html-keyboard-response,123,394300,0.0-10.0-0.54,"""event"",""trial"",""time""
""fullscreenenter"",""0"",""4024""
","
","
","""event"",""trial"",""time""
""fullscreenenter"",""0"",""4024""
","
",null,"<div style=""font-size:60px;"">+</div>",NA,null,fixation,2020-06-20T01:06:23Z,NA,NA,NA,NA,NA,sub95
NA,mars-trial,124,395262,0.0-10.0-1.54,"""event"",""trial"",""time""
""fullscreenenter"",""0"",""4024""
","
","
","""event"",""trial"",""time""
""fullscreenenter"",""0"",""4024""
","
",356.44000000320375,<img style='border: 4px solid darkgrey;' src='img/tf1_55_M_ss3.jpeg'></img>,3,NA,exp,NA,0,<img src='img/tf1_55_T1_ss3_md.jpeg'></img>,0,TRUE,NA,sub95
NA,html-keyboard-response,125,395765,0.0-10.0-0.55,"""event"",""trial"",""time""
""fullscreenenter"",""0"",""4024""
","
","
","""event"",""trial"",""time""
""fullscreenenter"",""0"",""4024""
","
",null,"<div style=""font-size:60px;"">+</div>",NA,null,fixation,2020-06-20T01:06:25Z,NA,NA,NA,NA,NA,sub95
NA,mars-trial,126,396863,0.0-10.0-1.55,"""event"",""trial"",""time""
""fullscreenenter"",""0"",""4024""
","
","
","""event"",""trial"",""time""
""fullscreenenter"",""0"",""4024""
","
",487.60500000207685,<img style='border: 4px solid darkgrey;' src='img/tf1_56_M_ss1.jpeg'></img>,2,NA,exp,NA,2,<img src='img/tf1_56_T1_ss1_md.jpeg'></img>,0,FALSE,NA,sub95
NA,html-keyboard-response,127,397366,0.0-10.0-0.56,"""event"",""trial"",""time""
""fullscreenenter"",""0"",""4024""
""blur"",""128"",""400007""
""focus"",""128"",""400011""
""fullscreenexit"",""128"",""400012""
","""event"",""trial"",""time""
""blur"",""128"",""400007""
","""event"",""trial"",""time""
""focus"",""128"",""400011""
","""event"",""trial"",""time""
""fullscreenenter"",""0"",""4024""
","""event"",""trial"",""time""
""fullscreenexit"",""128"",""400012""
",null,"<div style=""font-size:60px;"">+</div>",NA,null,fixation,2020-06-20T01:06:26Z,NA,NA,NA,NA,NA,sub95
NA,mars-trial,128,401167,0.0-10.0-1.56,"""event"",""trial"",""time""
""fullscreenenter"",""0"",""4024""
""blur"",""128"",""400007""
""focus"",""128"",""400011""
""fullscreenexit"",""128"",""400012""
","""event"",""trial"",""time""
""blur"",""128"",""400007""
","""event"",""trial"",""time""
""focus"",""128"",""400011""
","""event"",""trial"",""time""
""fullscreenenter"",""0"",""4024""
","""event"",""trial"",""time""
""fullscreenexit"",""128"",""400012""
",3194.8600000032457,<img style='border: 4px solid darkgrey;' src='img/tf1_57_M_ss2.jpeg'></img>,0,NA,exp,NA,3,<img src='img/tf1_57_T1_ss2_md.jpeg'></img>,0,FALSE,NA,sub95
NA,html-keyboard-response,129,401669,0.0-10.0-0.57,"""event"",""trial"",""time""
""fullscreenenter"",""0"",""4024""
""blur"",""128"",""400007""
""focus"",""128"",""400011""
""fullscreenexit"",""128"",""400012""
","""event"",""trial"",""time""
""blur"",""128"",""400007""
","""event"",""trial"",""time""
""focus"",""128"",""400011""
","""event"",""trial"",""time""
""fullscreenenter"",""0"",""4024""
","""event"",""trial"",""time""
""fullscreenexit"",""128"",""400012""
",null,"<div style=""font-size:60px;"">+</div>",NA,null,fixation,2020-06-20T01:06:31Z,NA,NA,NA,NA,NA,sub95
NA,mars-trial,130,402998,0.0-10.0-1.57,"""event"",""trial"",""time""
""fullscreenenter"",""0"",""4024""
""blur"",""128"",""400007""
""focus"",""128"",""400011""
""fullscreenexit"",""128"",""400012""
","""event"",""trial"",""time""
""blur"",""128"",""400007""
","""event"",""trial"",""time""
""focus"",""128"",""400011""
","""event"",""trial"",""time""
""fullscreenenter"",""0"",""4024""
","""event"",""trial"",""time""
""fullscreenexit"",""128"",""400012""
",719.3750000005821,<img style='border: 4px solid darkgrey;' src='img/tf1_58_M_ss3.jpeg'></img>,1,NA,exp,NA,1,<img src='img/tf1_58_T1_ss3_md.jpeg'></img>,0,FALSE,NA,sub95
NA,html-keyboard-response,131,403501,0.0-10.0-0.58,"""event"",""trial"",""time""
""fullscreenenter"",""0"",""4024""
""blur"",""128"",""400007""
""focus"",""128"",""400011""
""fullscreenexit"",""128"",""400012""
","""event"",""trial"",""time""
""blur"",""128"",""400007""
","""event"",""trial"",""time""
""focus"",""128"",""400011""
","""event"",""trial"",""time""
""fullscreenenter"",""0"",""4024""
","""event"",""trial"",""time""
""fullscreenexit"",""128"",""400012""
",null,"<div style=""font-size:60px;"">+</div>",NA,null,fixation,2020-06-20T01:06:32Z,NA,NA,NA,NA,NA,sub95
NA,mars-trial,132,404301,0.0-10.0-1.58,"""event"",""trial"",""time""
""fullscreenenter"",""0"",""4024""
""blur"",""128"",""400007""
""focus"",""128"",""400011""
""fullscreenexit"",""128"",""400012""
","""event"",""trial"",""time""
""blur"",""128"",""400007""
","""event"",""trial"",""time""
""focus"",""128"",""400011""
","""event"",""trial"",""time""
""fullscreenenter"",""0"",""4024""
","""event"",""trial"",""time""
""fullscreenexit"",""128"",""400012""
",194.15999999910127,<img style='border: 4px solid darkgrey;' src='img/tf1_59_M_ss1.jpeg'></img>,3,NA,exp,NA,1,<img src='img/tf1_59_T1_ss1_md.jpeg'></img>,0,FALSE,NA,sub95
NA,html-keyboard-response,133,404805,0.0-10.0-0.59,"""event"",""trial"",""time""
""fullscreenenter"",""0"",""4024""
""blur"",""128"",""400007""
""focus"",""128"",""400011""
""fullscreenexit"",""128"",""400012""
","""event"",""trial"",""time""
""blur"",""128"",""400007""
","""event"",""trial"",""time""
""focus"",""128"",""400011""
","""event"",""trial"",""time""
""fullscreenenter"",""0"",""4024""
","""event"",""trial"",""time""
""fullscreenexit"",""128"",""400012""
",null,"<div style=""font-size:60px;"">+</div>",NA,null,fixation,2020-06-20T01:06:34Z,NA,NA,NA,NA,NA,sub95
NA,mars-trial,134,405576,0.0-10.0-1.59,"""event"",""trial"",""time""
""fullscreenenter"",""0"",""4024""
""blur"",""128"",""400007""
""focus"",""128"",""400011""
""fullscreenexit"",""128"",""400012""
","""event"",""trial"",""time""
""blur"",""128"",""400007""
","""event"",""trial"",""time""
""focus"",""128"",""400011""
","""event"",""trial"",""time""
""fullscreenenter"",""0"",""4024""
","""event"",""trial"",""time""
""fullscreenexit"",""128"",""400012""
",163.98499999195337,<img style='border: 4px solid darkgrey;' src='img/tf1_60_M_ss2.jpeg'></img>,2,NA,exp,NA,0,<img src='img/tf1_60_T1_ss2_md.jpeg'></img>,0,TRUE,NA,sub95
NA,html-keyboard-response,135,406079,0.0-10.0-0.60,"""event"",""trial"",""time""
""fullscreenenter"",""0"",""4024""
""blur"",""128"",""400007""
""focus"",""128"",""400011""
""fullscreenexit"",""128"",""400012""
","""event"",""trial"",""time""
""blur"",""128"",""400007""
","""event"",""trial"",""time""
""focus"",""128"",""400011""
","""event"",""trial"",""time""
""fullscreenenter"",""0"",""4024""
","""event"",""trial"",""time""
""fullscreenexit"",""128"",""400012""
",null,"<div style=""font-size:60px;"">+</div>",NA,null,fixation,2020-06-20T01:06:35Z,NA,NA,NA,NA,NA,sub95
NA,mars-trial,136,407139,0.0-10.0-1.60,"""event"",""trial"",""time""
""fullscreenenter"",""0"",""4024""
""blur"",""128"",""400007""
""focus"",""128"",""400011""
""fullscreenexit"",""128"",""400012""
","""event"",""trial"",""time""
""blur"",""128"",""400007""
","""event"",""trial"",""time""
""focus"",""128"",""400011""
","""event"",""trial"",""time""
""fullscreenenter"",""0"",""4024""
","""event"",""trial"",""time""
""fullscreenexit"",""128"",""400012""
",454.4400000013411,<img style='border: 4px solid darkgrey;' src='img/tf1_61_M_ss3.jpeg'></img>,1,NA,exp,NA,0,<img src='img/tf1_61_T1_ss3_md.jpeg'></img>,0,TRUE,NA,sub95
NA,html-keyboard-response,137,407643,0.0-10.0-0.61,"""event"",""trial"",""time""
""fullscreenenter"",""0"",""4024""
""blur"",""128"",""400007""
""focus"",""128"",""400011""
""fullscreenexit"",""128"",""400012""
","""event"",""trial"",""time""
""blur"",""128"",""400007""
","""event"",""trial"",""time""
""focus"",""128"",""400011""
","""event"",""trial"",""time""
""fullscreenenter"",""0"",""4024""
","""event"",""trial"",""time""
""fullscreenexit"",""128"",""400012""
",null,"<div style=""font-size:60px;"">+</div>",NA,null,fixation,2020-06-20T01:06:37Z,NA,NA,NA,NA,NA,sub95
NA,mars-trial,138,408462,0.0-10.0-1.61,"""event"",""trial"",""time""
""fullscreenenter"",""0"",""4024""
""blur"",""128"",""400007""
""focus"",""128"",""400011""
""fullscreenexit"",""128"",""400012""
","""event"",""trial"",""time""
""blur"",""128"",""400007""
","""event"",""trial"",""time""
""focus"",""128"",""400011""
","""event"",""trial"",""time""
""fullscreenenter"",""0"",""4024""
","""event"",""trial"",""time""
""fullscreenexit"",""128"",""400012""
",212.42500000516884,<img style='border: 4px solid darkgrey;' src='img/tf1_62_M_ss1.jpeg'></img>,1,NA,exp,NA,2,<img src='img/tf1_62_T1_ss1_md.jpeg'></img>,0,FALSE,NA,sub95
NA,html-keyboard-response,139,408965,0.0-10.0-0.62,"""event"",""trial"",""time""
""fullscreenenter"",""0"",""4024""
""blur"",""128"",""400007""
""focus"",""128"",""400011""
""fullscreenexit"",""128"",""400012""
","""event"",""trial"",""time""
""blur"",""128"",""400007""
","""event"",""trial"",""time""
""focus"",""128"",""400011""
","""event"",""trial"",""time""
""fullscreenenter"",""0"",""4024""
","""event"",""trial"",""time""
""fullscreenexit"",""128"",""400012""
",null,"<div style=""font-size:60px;"">+</div>",NA,null,fixation,2020-06-20T01:06:38Z,NA,NA,NA,NA,NA,sub95
NA,mars-trial,140,409625,0.0-10.0-1.62,"""event"",""trial"",""time""
""fullscreenenter"",""0"",""4024""
""blur"",""128"",""400007""
""focus"",""128"",""400011""
""fullscreenexit"",""128"",""400012""
","""event"",""trial"",""time""
""blur"",""128"",""400007""
","""event"",""trial"",""time""
""focus"",""128"",""400011""
","""event"",""trial"",""time""
""fullscreenenter"",""0"",""4024""
","""event"",""trial"",""time""
""fullscreenexit"",""128"",""400012""
",41.10499999660533,<img style='border: 4px solid darkgrey;' src='img/tf1_63_M_ss2.jpeg'></img>,3,NA,exp,NA,0,<img src='img/tf1_63_T1_ss2_md.jpeg'></img>,0,TRUE,NA,sub95
NA,html-keyboard-response,141,410137,0.0-10.0-0.63,"""event"",""trial"",""time""
""fullscreenenter"",""0"",""4024""
""blur"",""128"",""400007""
""focus"",""128"",""400011""
""fullscreenexit"",""128"",""400012""
","""event"",""trial"",""time""
""blur"",""128"",""400007""
","""event"",""trial"",""time""
""focus"",""128"",""400011""
","""event"",""trial"",""time""
""fullscreenenter"",""0"",""4024""
","""event"",""trial"",""time""
""fullscreenexit"",""128"",""400012""
",null,"<div style=""font-size:60px;"">+</div>",NA,null,fixation,2020-06-20T01:06:39Z,NA,NA,NA,NA,NA,sub95
NA,mars-trial,142,411050,0.0-10.0-1.63,"""event"",""trial"",""time""
""fullscreenenter"",""0"",""4024""
""blur"",""128"",""400007""
""focus"",""128"",""400011""
""fullscreenexit"",""128"",""400012""
","""event"",""trial"",""time""
""blur"",""128"",""400007""
","""event"",""trial"",""time""
""focus"",""128"",""400011""
","""event"",""trial"",""time""
""fullscreenenter"",""0"",""4024""
","""event"",""trial"",""time""
""fullscreenexit"",""128"",""400012""
",303.54999999690335,<img style='border: 4px solid darkgrey;' src='img/tf1_64_M_ss3.jpeg'></img>,0,NA,exp,NA,2,<img src='img/tf1_64_T1_ss3_md.jpeg'></img>,0,FALSE,NA,sub95
NA,html-keyboard-response,143,411553,0.0-10.0-0.64,"""event"",""trial"",""time""
""fullscreenenter"",""0"",""4024""
""blur"",""128"",""400007""
""focus"",""128"",""400011""
""fullscreenexit"",""128"",""400012""
","""event"",""trial"",""time""
""blur"",""128"",""400007""
","""event"",""trial"",""time""
""focus"",""128"",""400011""
","""event"",""trial"",""time""
""fullscreenenter"",""0"",""4024""
","""event"",""trial"",""time""
""fullscreenexit"",""128"",""400012""
",null,"<div style=""font-size:60px;"">+</div>",NA,null,fixation,2020-06-20T01:06:40Z,NA,NA,NA,NA,NA,sub95
NA,mars-trial,144,412296,0.0-10.0-1.64,"""event"",""trial"",""time""
""fullscreenenter"",""0"",""4024""
""blur"",""128"",""400007""
""focus"",""128"",""400011""
""fullscreenexit"",""128"",""400012""
","""event"",""trial"",""time""
""blur"",""128"",""400007""
","""event"",""trial"",""time""
""focus"",""128"",""400011""
","""event"",""trial"",""time""
""fullscreenenter"",""0"",""4024""
","""event"",""trial"",""time""
""fullscreenexit"",""128"",""400012""
",136.7000000027474,<img style='border: 4px solid darkgrey;' src='img/tf1_65_M_ss1.jpeg'></img>,2,NA,exp,NA,3,<img src='img/tf1_65_T1_ss1_md.jpeg'></img>,0,FALSE,NA,sub95
NA,html-keyboard-response,145,412798,0.0-10.0-0.65,"""event"",""trial"",""time""
""fullscreenenter"",""0"",""4024""
""blur"",""128"",""400007""
""focus"",""128"",""400011""
""fullscreenexit"",""128"",""400012""
","""event"",""trial"",""time""
""blur"",""128"",""400007""
","""event"",""trial"",""time""
""focus"",""128"",""400011""
","""event"",""trial"",""time""
""fullscreenenter"",""0"",""4024""
","""event"",""trial"",""time""
""fullscreenexit"",""128"",""400012""
",null,"<div style=""font-size:60px;"">+</div>",NA,null,fixation,2020-06-20T01:06:42Z,NA,NA,NA,NA,NA,sub95
NA,mars-trial,146,413590,0.0-10.0-1.65,"""event"",""trial"",""time""
""fullscreenenter"",""0"",""4024""
""blur"",""128"",""400007""
""focus"",""128"",""400011""
""fullscreenexit"",""128"",""400012""
","""event"",""trial"",""time""
""blur"",""128"",""400007""
","""event"",""trial"",""time""
""focus"",""128"",""400011""
","""event"",""trial"",""time""
""fullscreenenter"",""0"",""4024""
","""event"",""trial"",""time""
""fullscreenexit"",""128"",""400012""
",186.56500001088716,<img style='border: 4px solid darkgrey;' src='img/tf1_66_M_ss2.jpeg'></img>,1,NA,exp,NA,1,<img src='img/tf1_66_T1_ss2_md.jpeg'></img>,0,FALSE,NA,sub95
NA,html-keyboard-response,147,414093,0.0-10.0-0.66,"""event"",""trial"",""time""
""fullscreenenter"",""0"",""4024""
""blur"",""128"",""400007""
""focus"",""128"",""400011""
""fullscreenexit"",""128"",""400012""
","""event"",""trial"",""time""
""blur"",""128"",""400007""
","""event"",""trial"",""time""
""focus"",""128"",""400011""
","""event"",""trial"",""time""
""fullscreenenter"",""0"",""4024""
","""event"",""trial"",""time""
""fullscreenexit"",""128"",""400012""
",null,"<div style=""font-size:60px;"">+</div>",NA,null,fixation,2020-06-20T01:06:43Z,NA,NA,NA,NA,NA,sub95
NA,mars-trial,148,415546,0.0-10.0-1.66,"""event"",""trial"",""time""
""fullscreenenter"",""0"",""4024""
""blur"",""128"",""400007""
""focus"",""128"",""400011""
""fullscreenexit"",""128"",""400012""
","""event"",""trial"",""time""
""blur"",""128"",""400007""
","""event"",""trial"",""time""
""focus"",""128"",""400011""
","""event"",""trial"",""time""
""fullscreenenter"",""0"",""4024""
","""event"",""trial"",""time""
""fullscreenexit"",""128"",""400012""
",847.460000004503,<img style='border: 4px solid darkgrey;' src='img/tf1_67_M_ss3.jpeg'></img>,2,NA,exp,NA,2,<img src='img/tf1_67_T1_ss3_md.jpeg'></img>,0,FALSE,NA,sub95
NA,html-keyboard-response,149,416049,0.0-10.0-0.67,"""event"",""trial"",""time""
""fullscreenenter"",""0"",""4024""
""blur"",""128"",""400007""
""focus"",""128"",""400011""
""fullscreenexit"",""128"",""400012""
","""event"",""trial"",""time""
""blur"",""128"",""400007""
","""event"",""trial"",""time""
""focus"",""128"",""400011""
","""event"",""trial"",""time""
""fullscreenenter"",""0"",""4024""
","""event"",""trial"",""time""
""fullscreenexit"",""128"",""400012""
",null,"<div style=""font-size:60px;"">+</div>",NA,null,fixation,2020-06-20T01:06:45Z,NA,NA,NA,NA,NA,sub95
NA,mars-trial,150,418929,0.0-10.0-1.67,"""event"",""trial"",""time""
""fullscreenenter"",""0"",""4024""
""blur"",""128"",""400007""
""focus"",""128"",""400011""
""fullscreenexit"",""128"",""400012""
","""event"",""trial"",""time""
""blur"",""128"",""400007""
","""event"",""trial"",""time""
""focus"",""128"",""400011""
","""event"",""trial"",""time""
""fullscreenenter"",""0"",""4024""
","""event"",""trial"",""time""
""fullscreenexit"",""128"",""400012""
",2270.844999991823,<img style='border: 4px solid darkgrey;' src='img/tf1_68_M_ss1.jpeg'></img>,0,NA,exp,NA,0,<img src='img/tf1_68_T1_ss1_md.jpeg'></img>,0,TRUE,NA,sub95
NA,html-keyboard-response,151,419432,0.0-10.0-0.68,"""event"",""trial"",""time""
""fullscreenenter"",""0"",""4024""
""blur"",""128"",""400007""
""focus"",""128"",""400011""
""fullscreenexit"",""128"",""400012""
","""event"",""trial"",""time""
""blur"",""128"",""400007""
","""event"",""trial"",""time""
""focus"",""128"",""400011""
","""event"",""trial"",""time""
""fullscreenenter"",""0"",""4024""
","""event"",""trial"",""time""
""fullscreenexit"",""128"",""400012""
",null,"<div style=""font-size:60px;"">+</div>",NA,null,fixation,2020-06-20T01:06:48Z,NA,NA,NA,NA,NA,sub95
NA,mars-trial,152,421699,0.0-10.0-1.68,"""event"",""trial"",""time""
""fullscreenenter"",""0"",""4024""
""blur"",""128"",""400007""
""focus"",""128"",""400011""
""fullscreenexit"",""128"",""400012""
","""event"",""trial"",""time""
""blur"",""128"",""400007""
","""event"",""trial"",""time""
""focus"",""128"",""400011""
","""event"",""trial"",""time""
""fullscreenenter"",""0"",""4024""
","""event"",""trial"",""time""
""fullscreenexit"",""128"",""400012""
",1658.3749999990687,<img style='border: 4px solid darkgrey;' src='img/tf1_69_M_ss2.jpeg'></img>,3,NA,exp,NA,3,<img src='img/tf1_69_T1_ss2_md.jpeg'></img>,0,FALSE,NA,sub95
NA,html-keyboard-response,153,422200,0.0-10.0-0.69,"""event"",""trial"",""time""
""fullscreenenter"",""0"",""4024""
""blur"",""128"",""400007""
""focus"",""128"",""400011""
""fullscreenexit"",""128"",""400012""
","""event"",""trial"",""time""
""blur"",""128"",""400007""
","""event"",""trial"",""time""
""focus"",""128"",""400011""
","""event"",""trial"",""time""
""fullscreenenter"",""0"",""4024""
","""event"",""trial"",""time""
""fullscreenexit"",""128"",""400012""
",null,"<div style=""font-size:60px;"">+</div>",NA,null,fixation,2020-06-20T01:06:51Z,NA,NA,NA,NA,NA,sub95
NA,mars-trial,154,423818,0.0-10.0-1.69,"""event"",""trial"",""time""
""fullscreenenter"",""0"",""4024""
""blur"",""128"",""400007""
""focus"",""128"",""400011""
""fullscreenexit"",""128"",""400012""
","""event"",""trial"",""time""
""blur"",""128"",""400007""
","""event"",""trial"",""time""
""focus"",""128"",""400011""
","""event"",""trial"",""time""
""fullscreenenter"",""0"",""4024""
","""event"",""trial"",""time""
""fullscreenexit"",""128"",""400012""
",1006.6050000023097,<img style='border: 4px solid darkgrey;' src='img/tf1_70_M_ss3.jpeg'></img>,0,NA,exp,NA,3,<img src='img/tf1_70_T1_ss3_md.jpeg'></img>,0,FALSE,NA,sub95
NA,html-keyboard-response,155,424321,0.0-10.0-0.70,"""event"",""trial"",""time""
""fullscreenenter"",""0"",""4024""
""blur"",""128"",""400007""
""focus"",""128"",""400011""
""fullscreenexit"",""128"",""400012""
","""event"",""trial"",""time""
""blur"",""128"",""400007""
","""event"",""trial"",""time""
""focus"",""128"",""400011""
","""event"",""trial"",""time""
""fullscreenenter"",""0"",""4024""
","""event"",""trial"",""time""
""fullscreenexit"",""128"",""400012""
",null,"<div style=""font-size:60px;"">+</div>",NA,null,fixation,2020-06-20T01:06:53Z,NA,NA,NA,NA,NA,sub95
NA,mars-trial,156,425505,0.0-10.0-1.70,"""event"",""trial"",""time""
""fullscreenenter"",""0"",""4024""
""blur"",""128"",""400007""
""focus"",""128"",""400011""
""fullscreenexit"",""128"",""400012""
","""event"",""trial"",""time""
""blur"",""128"",""400007""
","""event"",""trial"",""time""
""focus"",""128"",""400011""
","""event"",""trial"",""time""
""fullscreenenter"",""0"",""4024""
","""event"",""trial"",""time""
""fullscreenexit"",""128"",""400012""
",575.620000003255,<img style='border: 4px solid darkgrey;' src='img/tf1_71_M_ss1.jpeg'></img>,2,NA,exp,NA,2,<img src='img/tf1_71_T1_ss1_md.jpeg'></img>,0,FALSE,NA,sub95
NA,html-keyboard-response,157,426010,0.0-10.0-0.71,"""event"",""trial"",""time""
""fullscreenenter"",""0"",""4024""
""blur"",""128"",""400007""
""focus"",""128"",""400011""
""fullscreenexit"",""128"",""400012""
","""event"",""trial"",""time""
""blur"",""128"",""400007""
","""event"",""trial"",""time""
""focus"",""128"",""400011""
","""event"",""trial"",""time""
""fullscreenenter"",""0"",""4024""
","""event"",""trial"",""time""
""fullscreenexit"",""128"",""400012""
",null,"<div style=""font-size:60px;"">+</div>",NA,null,fixation,2020-06-20T01:06:55Z,NA,NA,NA,NA,NA,sub95
NA,mars-trial,158,427135,0.0-10.0-1.71,"""event"",""trial"",""time""
""fullscreenenter"",""0"",""4024""
""blur"",""128"",""400007""
""focus"",""128"",""400011""
""fullscreenexit"",""128"",""400012""
","""event"",""trial"",""time""
""blur"",""128"",""400007""
","""event"",""trial"",""time""
""focus"",""128"",""400011""
","""event"",""trial"",""time""
""fullscreenenter"",""0"",""4024""
","""event"",""trial"",""time""
""fullscreenexit"",""128"",""400012""
",514.6349999995437,<img style='border: 4px solid darkgrey;' src='img/tf1_72_M_ss2.jpeg'></img>,2,NA,exp,NA,1,<img src='img/tf1_72_T1_ss2_md.jpeg'></img>,0,FALSE,NA,sub95
NA,html-keyboard-response,159,427636,0.0-10.0-0.72,"""event"",""trial"",""time""
""fullscreenenter"",""0"",""4024""
""blur"",""128"",""400007""
""focus"",""128"",""400011""
""fullscreenexit"",""128"",""400012""
","""event"",""trial"",""time""
""blur"",""128"",""400007""
","""event"",""trial"",""time""
""focus"",""128"",""400011""
","""event"",""trial"",""time""
""fullscreenenter"",""0"",""4024""
","""event"",""trial"",""time""
""fullscreenexit"",""128"",""400012""
",null,"<div style=""font-size:60px;"">+</div>",NA,null,fixation,2020-06-20T01:06:57Z,NA,NA,NA,NA,NA,sub95
NA,mars-trial,160,428610,0.0-10.0-1.72,"""event"",""trial"",""time""
""fullscreenenter"",""0"",""4024""
""blur"",""128"",""400007""
""focus"",""128"",""400011""
""fullscreenexit"",""128"",""400012""
","""event"",""trial"",""time""
""blur"",""128"",""400007""
","""event"",""trial"",""time""
""focus"",""128"",""400011""
","""event"",""trial"",""time""
""fullscreenenter"",""0"",""4024""
","""event"",""trial"",""time""
""fullscreenexit"",""128"",""400012""
",369.13999999524094,<img style='border: 4px solid darkgrey;' src='img/tf1_73_M_ss3.jpeg'></img>,0,NA,exp,NA,1,<img src='img/tf1_73_T1_ss3_md.jpeg'></img>,0,FALSE,NA,sub95
NA,html-keyboard-response,161,429112,0.0-10.0-0.73,"""event"",""trial"",""time""
""fullscreenenter"",""0"",""4024""
""blur"",""128"",""400007""
""focus"",""128"",""400011""
""fullscreenexit"",""128"",""400012""
","""event"",""trial"",""time""
""blur"",""128"",""400007""
","""event"",""trial"",""time""
""focus"",""128"",""400011""
","""event"",""trial"",""time""
""fullscreenenter"",""0"",""4024""
","""event"",""trial"",""time""
""fullscreenexit"",""128"",""400012""
",null,"<div style=""font-size:60px;"">+</div>",NA,null,fixation,2020-06-20T01:06:58Z,NA,NA,NA,NA,NA,sub95
NA,mars-trial,162,429847,0.0-10.0-1.73,"""event"",""trial"",""time""
""fullscreenenter"",""0"",""4024""
""blur"",""128"",""400007""
""focus"",""128"",""400011""
""fullscreenexit"",""128"",""400012""
","""event"",""trial"",""time""
""blur"",""128"",""400007""
","""event"",""trial"",""time""
""focus"",""128"",""400011""
","""event"",""trial"",""time""
""fullscreenenter"",""0"",""4024""
","""event"",""trial"",""time""
""fullscreenexit"",""128"",""400012""
",127.17000000702683,<img style='border: 4px solid darkgrey;' src='img/tf1_74_M_ss1.jpeg'></img>,1,NA,exp,NA,1,<img src='img/tf1_74_T1_ss1_md.jpeg'></img>,0,FALSE,NA,sub95
NA,html-keyboard-response,163,430348,0.0-10.0-0.74,"""event"",""trial"",""time""
""fullscreenenter"",""0"",""4024""
""blur"",""128"",""400007""
""focus"",""128"",""400011""
""fullscreenexit"",""128"",""400012""
","""event"",""trial"",""time""
""blur"",""128"",""400007""
","""event"",""trial"",""time""
""focus"",""128"",""400011""
","""event"",""trial"",""time""
""fullscreenenter"",""0"",""4024""
","""event"",""trial"",""time""
""fullscreenexit"",""128"",""400012""
",null,"<div style=""font-size:60px;"">+</div>",NA,null,fixation,2020-06-20T01:06:59Z,NA,NA,NA,NA,NA,sub95
NA,mars-trial,164,431113,0.0-10.0-1.74,"""event"",""trial"",""time""
""fullscreenenter"",""0"",""4024""
""blur"",""128"",""400007""
""focus"",""128"",""400011""
""fullscreenexit"",""128"",""400012""
","""event"",""trial"",""time""
""blur"",""128"",""400007""
","""event"",""trial"",""time""
""focus"",""128"",""400011""
","""event"",""trial"",""time""
""fullscreenenter"",""0"",""4024""
","""event"",""trial"",""time""
""fullscreenexit"",""128"",""400012""
",158.75500001129694,<img style='border: 4px solid darkgrey;' src='img/tf1_75_M_ss2.jpeg'></img>,1,NA,exp,NA,2,<img src='img/tf1_75_T1_ss2_md.jpeg'></img>,0,FALSE,NA,sub95
NA,html-keyboard-response,165,431620,0.0-10.0-0.75,"""event"",""trial"",""time""
""fullscreenenter"",""0"",""4024""
""blur"",""128"",""400007""
""focus"",""128"",""400011""
""fullscreenexit"",""128"",""400012""
","""event"",""trial"",""time""
""blur"",""128"",""400007""
","""event"",""trial"",""time""
""focus"",""128"",""400011""
","""event"",""trial"",""time""
""fullscreenenter"",""0"",""4024""
","""event"",""trial"",""time""
""fullscreenexit"",""128"",""400012""
",null,"<div style=""font-size:60px;"">+</div>",NA,null,fixation,2020-06-20T01:07:01Z,NA,NA,NA,NA,NA,sub95
NA,mars-trial,166,432581,0.0-10.0-1.75,"""event"",""trial"",""time""
""fullscreenenter"",""0"",""4024""
""blur"",""128"",""400007""
""focus"",""128"",""400011""
""fullscreenexit"",""128"",""400012""
","""event"",""trial"",""time""
""blur"",""128"",""400007""
","""event"",""trial"",""time""
""focus"",""128"",""400011""
","""event"",""trial"",""time""
""fullscreenenter"",""0"",""4024""
","""event"",""trial"",""time""
""fullscreenexit"",""128"",""400012""
",351.6950000048382,<img style='border: 4px solid darkgrey;' src='img/tf1_76_M_ss3.jpeg'></img>,1,NA,exp,NA,0,<img src='img/tf1_76_T1_ss3_md.jpeg'></img>,0,TRUE,NA,sub95
NA,html-keyboard-response,167,433085,0.0-10.0-0.76,"""event"",""trial"",""time""
""fullscreenenter"",""0"",""4024""
""blur"",""128"",""400007""
""focus"",""128"",""400011""
""fullscreenexit"",""128"",""400012""
","""event"",""trial"",""time""
""blur"",""128"",""400007""
","""event"",""trial"",""time""
""focus"",""128"",""400011""
","""event"",""trial"",""time""
""fullscreenenter"",""0"",""4024""
","""event"",""trial"",""time""
""fullscreenexit"",""128"",""400012""
",null,"<div style=""font-size:60px;"">+</div>",NA,null,fixation,2020-06-20T01:07:02Z,NA,NA,NA,NA,NA,sub95
NA,mars-trial,168,436001,0.0-10.0-1.76,"""event"",""trial"",""time""
""fullscreenenter"",""0"",""4024""
""blur"",""128"",""400007""
""focus"",""128"",""400011""
""fullscreenexit"",""128"",""400012""
","""event"",""trial"",""time""
""blur"",""128"",""400007""
","""event"",""trial"",""time""
""focus"",""128"",""400011""
","""event"",""trial"",""time""
""fullscreenenter"",""0"",""4024""
","""event"",""trial"",""time""
""fullscreenexit"",""128"",""400012""
",2309.5500000054017,<img style='border: 4px solid darkgrey;' src='img/tf1_77_M_ss1.jpeg'></img>,2,NA,exp,NA,2,<img src='img/tf1_77_T1_ss1_md.jpeg'></img>,0,FALSE,NA,sub95
NA,html-keyboard-response,169,436503,0.0-10.0-0.77,"""event"",""trial"",""time""
""fullscreenenter"",""0"",""4024""
""blur"",""128"",""400007""
""focus"",""128"",""400011""
""fullscreenexit"",""128"",""400012""
","""event"",""trial"",""time""
""blur"",""128"",""400007""
","""event"",""trial"",""time""
""focus"",""128"",""400011""
","""event"",""trial"",""time""
""fullscreenenter"",""0"",""4024""
","""event"",""trial"",""time""
""fullscreenexit"",""128"",""400012""
",null,"<div style=""font-size:60px;"">+</div>",NA,null,fixation,2020-06-20T01:07:05Z,NA,NA,NA,NA,NA,sub95
NA,mars-trial,170,464941,0.0-10.0-1.77,"""event"",""trial"",""time""
""fullscreenenter"",""0"",""4024""
""blur"",""128"",""400007""
""focus"",""128"",""400011""
""fullscreenexit"",""128"",""400012""
","""event"",""trial"",""time""
""blur"",""128"",""400007""
","""event"",""trial"",""time""
""focus"",""128"",""400011""
","""event"",""trial"",""time""
""fullscreenenter"",""0"",""4024""
","""event"",""trial"",""time""
""fullscreenexit"",""128"",""400012""
",27826.02500000212,<img style='border: 4px solid darkgrey;' src='img/tf1_78_M_ss2.jpeg'></img>,1,NA,exp,NA,2,<img src='img/tf1_78_T1_ss2_md.jpeg'></img>,0,FALSE,NA,sub95
NA,html-keyboard-response,171,465445,0.0-10.0-0.78,"""event"",""trial"",""time""
""fullscreenenter"",""0"",""4024""
""blur"",""128"",""400007""
""focus"",""128"",""400011""
""fullscreenexit"",""128"",""400012""
","""event"",""trial"",""time""
""blur"",""128"",""400007""
","""event"",""trial"",""time""
""focus"",""128"",""400011""
","""event"",""trial"",""time""
""fullscreenenter"",""0"",""4024""
","""event"",""trial"",""time""
""fullscreenexit"",""128"",""400012""
",null,"<div style=""font-size:60px;"">+</div>",NA,null,fixation,2020-06-20T01:07:34Z,NA,NA,NA,NA,NA,sub95
NA,mars-trial,172,473082,0.0-10.0-1.78,"""event"",""trial"",""time""
""fullscreenenter"",""0"",""4024""
""blur"",""128"",""400007""
""focus"",""128"",""400011""
""fullscreenexit"",""128"",""400012""
","""event"",""trial"",""time""
""blur"",""128"",""400007""
","""event"",""trial"",""time""
""focus"",""128"",""400011""
","""event"",""trial"",""time""
""fullscreenenter"",""0"",""4024""
","""event"",""trial"",""time""
""fullscreenexit"",""128"",""400012""
",7026.645000005374,<img style='border: 4px solid darkgrey;' src='img/tf1_79_M_ss3.jpeg'></img>,3,NA,exp,NA,0,<img src='img/tf1_79_T1_ss3_md.jpeg'></img>,0,TRUE,NA,sub95
NA,html-keyboard-response,173,473587,0.0-10.0-0.79,"""event"",""trial"",""time""
""fullscreenenter"",""0"",""4024""
""blur"",""128"",""400007""
""focus"",""128"",""400011""
""fullscreenexit"",""128"",""400012""
","""event"",""trial"",""time""
""blur"",""128"",""400007""
","""event"",""trial"",""time""
""focus"",""128"",""400011""
","""event"",""trial"",""time""
""fullscreenenter"",""0"",""4024""
","""event"",""trial"",""time""
""fullscreenexit"",""128"",""400012""
",null,"<div style=""font-size:60px;"">+</div>",NA,null,fixation,2020-06-20T01:07:42Z,NA,NA,NA,NA,NA,sub95
NA,mars-trial,174,488451,0.0-10.0-1.79,"""event"",""trial"",""time""
""fullscreenenter"",""0"",""4024""
""blur"",""128"",""400007""
""focus"",""128"",""400011""
""fullscreenexit"",""128"",""400012""
","""event"",""trial"",""time""
""blur"",""128"",""400007""
","""event"",""trial"",""time""
""focus"",""128"",""400011""
","""event"",""trial"",""time""
""fullscreenenter"",""0"",""4024""
","""event"",""trial"",""time""
""fullscreenexit"",""128"",""400012""
",14257.335000002058,<img style='border: 4px solid darkgrey;' src='img/tf1_80_M_ss1.jpeg'></img>,3,NA,exp,NA,2,<img src='img/tf1_80_T1_ss1_md.jpeg'></img>,0,FALSE,NA,sub95
NA,audio-button-response,175,491033,0.0-11.0,"""event"",""trial"",""time""
""fullscreenenter"",""0"",""4024""
""blur"",""128"",""400007""
""focus"",""128"",""400011""
""fullscreenexit"",""128"",""400012""
","""event"",""trial"",""time""
""blur"",""128"",""400007""
","""event"",""trial"",""time""
""focus"",""128"",""400011""
","""event"",""trial"",""time""
""fullscreenenter"",""0"",""4024""
","""event"",""trial"",""time""
""fullscreenexit"",""128"",""400012""
",2577.7600000001257,audio/mars_instructions_slide5.wav,0,NA,NA,NA,NA,NA,NA,NA,NA,sub95
