success,trial_type,trial_index,time_elapsed,internal_node_id,interactions,blur_events,focus_events,fullscreenenter_events,fullscreenexit_events,rt,stimulus,button_pressed,key_press,part,timestamp,unshuffled_button,correct_response,correct_button,correct,value,subject_id
TRUE,fullscreen,0,20437,0.0-0.0,"""event"",""trial"",""time""
""blur"",""0"",""10524""
""focus"",""0"",""10613""
""fullscreenenter"",""0"",""19448""
","""event"",""trial"",""time""
""blur"",""0"",""10524""
","""event"",""trial"",""time""
""focus"",""0"",""10613""
","""event"",""trial"",""time""
""fullscreenenter"",""0"",""19448""
","
",NA,NA,NA,NA,NA,NA,NA,NA,NA,NA,NA,sub93
NA,pavlovia,1,20442,0.0-1.0,"""event"",""trial"",""time""
""blur"",""0"",""10524""
""focus"",""0"",""10613""
""fullscreenenter"",""0"",""19448""
","""event"",""trial"",""time""
""blur"",""0"",""10524""
","""event"",""trial"",""time""
""focus"",""0"",""10613""
","""event"",""trial"",""time""
""fullscreenenter"",""0"",""19448""
","
",NA,NA,NA,NA,NA,NA,NA,NA,NA,NA,NA,sub93
NA,html-button-response,2,33745,0.0-2.0,"""event"",""trial"",""time""
""blur"",""0"",""10524""
""focus"",""0"",""10613""
""fullscreenenter"",""0"",""19448""
","""event"",""trial"",""time""
""blur"",""0"",""10524""
","""event"",""trial"",""time""
""focus"",""0"",""10613""
","""event"",""trial"",""time""
""fullscreenenter"",""0"",""19448""
","
",13300.534999994852,<p>Welcome! Press START to begin.</p><br>,0,NA,NA,NA,NA,NA,NA,NA,NA,sub93
NA,audio-button-response,3,51714,0.0-3.0,"""event"",""trial"",""time""
""blur"",""0"",""10524""
""focus"",""0"",""10613""
""fullscreenenter"",""0"",""19448""
","""event"",""trial"",""time""
""blur"",""0"",""10524""
","""event"",""trial"",""time""
""focus"",""0"",""10613""
","""event"",""trial"",""time""
""fullscreenenter"",""0"",""19448""
","
",17964.545000002545,audio/mars_instructions_slide2.wav,0,NA,NA,NA,NA,NA,NA,NA,NA,sub93
NA,audio-button-response,4,67981,0.0-4.0,"""event"",""trial"",""time""
""blur"",""0"",""10524""
""focus"",""0"",""10613""
""fullscreenenter"",""0"",""19448""
","""event"",""trial"",""time""
""blur"",""0"",""10524""
","""event"",""trial"",""time""
""focus"",""0"",""10613""
","""event"",""trial"",""time""
""fullscreenenter"",""0"",""19448""
","
",16264.855000001262,audio/mars_instructions_slide3.wav,0,NA,NA,NA,NA,NA,NA,NA,NA,sub93
NA,html-keyboard-response,5,68485,0.0-5.0-0.0,"""event"",""trial"",""time""
""blur"",""0"",""10524""
""focus"",""0"",""10613""
""fullscreenenter"",""0"",""19448""
","""event"",""trial"",""time""
""blur"",""0"",""10524""
","""event"",""trial"",""time""
""focus"",""0"",""10613""
","""event"",""trial"",""time""
""fullscreenenter"",""0"",""19448""
","
",null,"<div style=""font-size:60px;"">+</div>",NA,null,fixation,2020-06-26T21:02:23Z,NA,NA,NA,NA,NA,sub93
NA,mars-trial,6,75929,0.0-5.0-1.0,"""event"",""trial"",""time""
""blur"",""0"",""10524""
""focus"",""0"",""10613""
""fullscreenenter"",""0"",""19448""
","""event"",""trial"",""time""
""blur"",""0"",""10524""
","""event"",""trial"",""time""
""focus"",""0"",""10613""
","""event"",""trial"",""time""
""fullscreenenter"",""0"",""19448""
","
",5334.054999999353,<img style='border: 4px solid darkgrey;' src='practice/pt1_M1.png'></img>,2,NA,practice,NA,0,<img src='practice/pt1_T1.png'></img>,0,TRUE,NA,sub93
NA,html-keyboard-response,7,76434,0.0-6.0-0.0,"""event"",""trial"",""time""
""blur"",""0"",""10524""
""focus"",""0"",""10613""
""fullscreenenter"",""0"",""19448""
","""event"",""trial"",""time""
""blur"",""0"",""10524""
","""event"",""trial"",""time""
""focus"",""0"",""10613""
","""event"",""trial"",""time""
""fullscreenenter"",""0"",""19448""
","
",null,"<div style=""font-size:60px;"">+</div>",NA,null,fixation,2020-06-26T21:02:31Z,NA,NA,NA,NA,NA,sub93
NA,mars-trial,8,80907,0.0-6.0-1.0,"""event"",""trial"",""time""
""blur"",""0"",""10524""
""focus"",""0"",""10613""
""fullscreenenter"",""0"",""19448""
","""event"",""trial"",""time""
""blur"",""0"",""10524""
","""event"",""trial"",""time""
""focus"",""0"",""10613""
","""event"",""trial"",""time""
""fullscreenenter"",""0"",""19448""
","
",2366.1449999999604,<img style='border: 4px solid darkgrey;' src='practice/pt2_M1.png'></img>,3,NA,practice,NA,0,<img src='practice/pt2_T1.png'></img>,0,TRUE,NA,sub93
NA,html-keyboard-response,9,81411,0.0-7.0-0.0,"""event"",""trial"",""time""
""blur"",""0"",""10524""
""focus"",""0"",""10613""
""fullscreenenter"",""0"",""19448""
","""event"",""trial"",""time""
""blur"",""0"",""10524""
","""event"",""trial"",""time""
""focus"",""0"",""10613""
","""event"",""trial"",""time""
""fullscreenenter"",""0"",""19448""
","
",null,"<div style=""font-size:60px;"">+</div>",NA,null,fixation,2020-06-26T21:02:36Z,NA,NA,NA,NA,NA,sub93
NA,mars-trial,10,86047,0.0-7.0-1.0,"""event"",""trial"",""time""
""blur"",""0"",""10524""
""focus"",""0"",""10613""
""fullscreenenter"",""0"",""19448""
","""event"",""trial"",""time""
""blur"",""0"",""10524""
","""event"",""trial"",""time""
""focus"",""0"",""10613""
","""event"",""trial"",""time""
""fullscreenenter"",""0"",""19448""
","
",2527.4700000009034,<img style='border: 4px solid darkgrey;' src='practice/pt3_M1.png'></img>,2,NA,practice,NA,0,<img src='practice/pt3_T1.png'></img>,0,TRUE,NA,sub93
NA,audio-button-response,11,90258,0.0-8.0,"""event"",""trial"",""time""
""blur"",""0"",""10524""
""focus"",""0"",""10613""
""fullscreenenter"",""0"",""19448""
","""event"",""trial"",""time""
""blur"",""0"",""10524""
","""event"",""trial"",""time""
""focus"",""0"",""10613""
","""event"",""trial"",""time""
""fullscreenenter"",""0"",""19448""
","
",4205.839999995078,audio/mars_instructions_slide4.wav,0,NA,NA,NA,NA,NA,NA,NA,NA,sub93
NA,call-function,12,90260,0.0-9.0,"""event"",""trial"",""time""
""blur"",""0"",""10524""
""focus"",""0"",""10613""
""fullscreenenter"",""0"",""19448""
","""event"",""trial"",""time""
""blur"",""0"",""10524""
","""event"",""trial"",""time""
""focus"",""0"",""10613""
","""event"",""trial"",""time""
""fullscreenenter"",""0"",""19448""
","
",NA,NA,NA,NA,NA,NA,NA,NA,NA,NA,NA,sub93
NA,html-keyboard-response,13,90761,0.0-10.0-0.0,"""event"",""trial"",""time""
""blur"",""0"",""10524""
""focus"",""0"",""10613""
""fullscreenenter"",""0"",""19448""
","""event"",""trial"",""time""
""blur"",""0"",""10524""
","""event"",""trial"",""time""
""focus"",""0"",""10613""
","""event"",""trial"",""time""
""fullscreenenter"",""0"",""19448""
","
",null,"<div style=""font-size:60px;"">+</div>",NA,null,fixation,2020-06-26T21:02:45Z,NA,NA,NA,NA,NA,sub93
NA,mars-trial,14,93414,0.0-10.0-1.0,"""event"",""trial"",""time""
""blur"",""0"",""10524""
""focus"",""0"",""10613""
""fullscreenenter"",""0"",""19448""
","""event"",""trial"",""time""
""blur"",""0"",""10524""
","""event"",""trial"",""time""
""focus"",""0"",""10613""
","""event"",""trial"",""time""
""fullscreenenter"",""0"",""19448""
","
",2047.9400000040187,<img style='border: 4px solid darkgrey;' src='img/tf1_1_M_ss3.jpeg'></img>,0,NA,exp,NA,0,<img src='img/tf1_1_T1_ss3_md.jpeg'></img>,0,TRUE,NA,sub93
NA,html-keyboard-response,15,93917,0.0-10.0-0.1,"""event"",""trial"",""time""
""blur"",""0"",""10524""
""focus"",""0"",""10613""
""fullscreenenter"",""0"",""19448""
","""event"",""trial"",""time""
""blur"",""0"",""10524""
","""event"",""trial"",""time""
""focus"",""0"",""10613""
","""event"",""trial"",""time""
""fullscreenenter"",""0"",""19448""
","
",null,"<div style=""font-size:60px;"">+</div>",NA,null,fixation,2020-06-26T21:02:48Z,NA,NA,NA,NA,NA,sub93
NA,mars-trial,16,97808,0.0-10.0-1.1,"""event"",""trial"",""time""
""blur"",""0"",""10524""
""focus"",""0"",""10613""
""fullscreenenter"",""0"",""19448""
","""event"",""trial"",""time""
""blur"",""0"",""10524""
","""event"",""trial"",""time""
""focus"",""0"",""10613""
","""event"",""trial"",""time""
""fullscreenenter"",""0"",""19448""
","
",3284.9199999982375,<img style='border: 4px solid darkgrey;' src='img/tf1_2_M_ss1.jpeg'></img>,2,NA,exp,NA,0,<img src='img/tf1_2_T1_ss1_md.jpeg'></img>,0,TRUE,NA,sub93
NA,html-keyboard-response,17,98311,0.0-10.0-0.2,"""event"",""trial"",""time""
""blur"",""0"",""10524""
""focus"",""0"",""10613""
""fullscreenenter"",""0"",""19448""
","""event"",""trial"",""time""
""blur"",""0"",""10524""
","""event"",""trial"",""time""
""focus"",""0"",""10613""
","""event"",""trial"",""time""
""fullscreenenter"",""0"",""19448""
","
",null,"<div style=""font-size:60px;"">+</div>",NA,null,fixation,2020-06-26T21:02:53Z,NA,NA,NA,NA,NA,sub93
NA,mars-trial,18,102482,0.0-10.0-1.2,"""event"",""trial"",""time""
""blur"",""0"",""10524""
""focus"",""0"",""10613""
""fullscreenenter"",""0"",""19448""
","""event"",""trial"",""time""
""blur"",""0"",""10524""
","""event"",""trial"",""time""
""focus"",""0"",""10613""
","""event"",""trial"",""time""
""fullscreenenter"",""0"",""19448""
","
",3566.639999997278,<img style='border: 4px solid darkgrey;' src='img/tf1_3_M_ss2.jpeg'></img>,0,NA,exp,NA,0,<img src='img/tf1_3_T1_ss2_md.jpeg'></img>,0,TRUE,NA,sub93
NA,html-keyboard-response,19,102986,0.0-10.0-0.3,"""event"",""trial"",""time""
""blur"",""0"",""10524""
""focus"",""0"",""10613""
""fullscreenenter"",""0"",""19448""
","""event"",""trial"",""time""
""blur"",""0"",""10524""
","""event"",""trial"",""time""
""focus"",""0"",""10613""
","""event"",""trial"",""time""
""fullscreenenter"",""0"",""19448""
","
",null,"<div style=""font-size:60px;"">+</div>",NA,null,fixation,2020-06-26T21:02:58Z,NA,NA,NA,NA,NA,sub93
NA,mars-trial,20,106702,0.0-10.0-1.3,"""event"",""trial"",""time""
""blur"",""0"",""10524""
""focus"",""0"",""10613""
""fullscreenenter"",""0"",""19448""
","""event"",""trial"",""time""
""blur"",""0"",""10524""
","""event"",""trial"",""time""
""focus"",""0"",""10613""
","""event"",""trial"",""time""
""fullscreenenter"",""0"",""19448""
","
",3108.809999997902,<img style='border: 4px solid darkgrey;' src='img/tf1_4_M_ss3.jpeg'></img>,2,NA,exp,NA,2,<img src='img/tf1_4_T1_ss3_md.jpeg'></img>,0,FALSE,NA,sub93
NA,html-keyboard-response,21,107205,0.0-10.0-0.4,"""event"",""trial"",""time""
""blur"",""0"",""10524""
""focus"",""0"",""10613""
""fullscreenenter"",""0"",""19448""
","""event"",""trial"",""time""
""blur"",""0"",""10524""
","""event"",""trial"",""time""
""focus"",""0"",""10613""
","""event"",""trial"",""time""
""fullscreenenter"",""0"",""19448""
","
",null,"<div style=""font-size:60px;"">+</div>",NA,null,fixation,2020-06-26T21:03:02Z,NA,NA,NA,NA,NA,sub93
NA,mars-trial,22,110772,0.0-10.0-1.4,"""event"",""trial"",""time""
""blur"",""0"",""10524""
""focus"",""0"",""10613""
""fullscreenenter"",""0"",""19448""
","""event"",""trial"",""time""
""blur"",""0"",""10524""
","""event"",""trial"",""time""
""focus"",""0"",""10613""
","""event"",""trial"",""time""
""fullscreenenter"",""0"",""19448""
","
",2958.999999995285,<img style='border: 4px solid darkgrey;' src='img/tf1_5_M_ss1.jpeg'></img>,3,NA,exp,NA,0,<img src='img/tf1_5_T1_ss1_md.jpeg'></img>,0,TRUE,NA,sub93
NA,html-keyboard-response,23,111274,0.0-10.0-0.5,"""event"",""trial"",""time""
""blur"",""0"",""10524""
""focus"",""0"",""10613""
""fullscreenenter"",""0"",""19448""
","""event"",""trial"",""time""
""blur"",""0"",""10524""
","""event"",""trial"",""time""
""focus"",""0"",""10613""
","""event"",""trial"",""time""
""fullscreenenter"",""0"",""19448""
","
",null,"<div style=""font-size:60px;"">+</div>",NA,null,fixation,2020-06-26T21:03:06Z,NA,NA,NA,NA,NA,sub93
NA,mars-trial,24,118111,0.0-10.0-1.5,"""event"",""trial"",""time""
""blur"",""0"",""10524""
""focus"",""0"",""10613""
""fullscreenenter"",""0"",""19448""
","""event"",""trial"",""time""
""blur"",""0"",""10524""
","""event"",""trial"",""time""
""focus"",""0"",""10613""
","""event"",""trial"",""time""
""fullscreenenter"",""0"",""19448""
","
",6227.415000001201,<img style='border: 4px solid darkgrey;' src='img/tf1_6_M_ss2.jpeg'></img>,3,NA,exp,NA,2,<img src='img/tf1_6_T1_ss2_md.jpeg'></img>,0,FALSE,NA,sub93
NA,html-keyboard-response,25,118613,0.0-10.0-0.6,"""event"",""trial"",""time""
""blur"",""0"",""10524""
""focus"",""0"",""10613""
""fullscreenenter"",""0"",""19448""
","""event"",""trial"",""time""
""blur"",""0"",""10524""
","""event"",""trial"",""time""
""focus"",""0"",""10613""
","""event"",""trial"",""time""
""fullscreenenter"",""0"",""19448""
","
",null,"<div style=""font-size:60px;"">+</div>",NA,null,fixation,2020-06-26T21:03:13Z,NA,NA,NA,NA,NA,sub93
NA,mars-trial,26,124304,0.0-10.0-1.6,"""event"",""trial"",""time""
""blur"",""0"",""10524""
""focus"",""0"",""10613""
""fullscreenenter"",""0"",""19448""
","""event"",""trial"",""time""
""blur"",""0"",""10524""
","""event"",""trial"",""time""
""focus"",""0"",""10613""
","""event"",""trial"",""time""
""fullscreenenter"",""0"",""19448""
","
",5084.28499999718,<img style='border: 4px solid darkgrey;' src='img/tf1_7_M_ss3.jpeg'></img>,1,NA,exp,NA,0,<img src='img/tf1_7_T1_ss3_md.jpeg'></img>,0,TRUE,NA,sub93
NA,html-keyboard-response,27,124809,0.0-10.0-0.7,"""event"",""trial"",""time""
""blur"",""0"",""10524""
""focus"",""0"",""10613""
""fullscreenenter"",""0"",""19448""
","""event"",""trial"",""time""
""blur"",""0"",""10524""
","""event"",""trial"",""time""
""focus"",""0"",""10613""
","""event"",""trial"",""time""
""fullscreenenter"",""0"",""19448""
","
",null,"<div style=""font-size:60px;"">+</div>",NA,null,fixation,2020-06-26T21:03:19Z,NA,NA,NA,NA,NA,sub93
NA,mars-trial,28,130294,0.0-10.0-1.7,"""event"",""trial"",""time""
""blur"",""0"",""10524""
""focus"",""0"",""10613""
""fullscreenenter"",""0"",""19448""
","""event"",""trial"",""time""
""blur"",""0"",""10524""
","""event"",""trial"",""time""
""focus"",""0"",""10613""
","""event"",""trial"",""time""
""fullscreenenter"",""0"",""19448""
","
",4876.430000003893,<img style='border: 4px solid darkgrey;' src='img/tf1_8_M_ss1.jpeg'></img>,3,NA,exp,NA,2,<img src='img/tf1_8_T1_ss1_md.jpeg'></img>,0,FALSE,NA,sub93
NA,html-keyboard-response,29,130799,0.0-10.0-0.8,"""event"",""trial"",""time""
""blur"",""0"",""10524""
""focus"",""0"",""10613""
""fullscreenenter"",""0"",""19448""
","""event"",""trial"",""time""
""blur"",""0"",""10524""
","""event"",""trial"",""time""
""focus"",""0"",""10613""
","""event"",""trial"",""time""
""fullscreenenter"",""0"",""19448""
","
",null,"<div style=""font-size:60px;"">+</div>",NA,null,fixation,2020-06-26T21:03:25Z,NA,NA,NA,NA,NA,sub93
NA,mars-trial,30,139882,0.0-10.0-1.8,"""event"",""trial"",""time""
""blur"",""0"",""10524""
""focus"",""0"",""10613""
""fullscreenenter"",""0"",""19448""
","""event"",""trial"",""time""
""blur"",""0"",""10524""
","""event"",""trial"",""time""
""focus"",""0"",""10613""
","""event"",""trial"",""time""
""fullscreenenter"",""0"",""19448""
","
",8474.584999996296,<img style='border: 4px solid darkgrey;' src='img/tf1_9_M_ss2.jpeg'></img>,0,NA,exp,NA,0,<img src='img/tf1_9_T1_ss2_md.jpeg'></img>,0,TRUE,NA,sub93
NA,html-keyboard-response,31,140385,0.0-10.0-0.9,"""event"",""trial"",""time""
""blur"",""0"",""10524""
""focus"",""0"",""10613""
""fullscreenenter"",""0"",""19448""
","""event"",""trial"",""time""
""blur"",""0"",""10524""
","""event"",""trial"",""time""
""focus"",""0"",""10613""
","""event"",""trial"",""time""
""fullscreenenter"",""0"",""19448""
","
",null,"<div style=""font-size:60px;"">+</div>",NA,null,fixation,2020-06-26T21:03:35Z,NA,NA,NA,NA,NA,sub93
NA,mars-trial,32,144375,0.0-10.0-1.9,"""event"",""trial"",""time""
""blur"",""0"",""10524""
""focus"",""0"",""10613""
""fullscreenenter"",""0"",""19448""
","""event"",""trial"",""time""
""blur"",""0"",""10524""
","""event"",""trial"",""time""
""focus"",""0"",""10613""
","""event"",""trial"",""time""
""fullscreenenter"",""0"",""19448""
","
",3382.4549999990268,<img style='border: 4px solid darkgrey;' src='img/tf1_10_M_ss3.jpeg'></img>,3,NA,exp,NA,1,<img src='img/tf1_10_T1_ss3_md.jpeg'></img>,0,FALSE,NA,sub93
NA,html-keyboard-response,33,144880,0.0-10.0-0.10,"""event"",""trial"",""time""
""blur"",""0"",""10524""
""focus"",""0"",""10613""
""fullscreenenter"",""0"",""19448""
","""event"",""trial"",""time""
""blur"",""0"",""10524""
","""event"",""trial"",""time""
""focus"",""0"",""10613""
","""event"",""trial"",""time""
""fullscreenenter"",""0"",""19448""
","
",null,"<div style=""font-size:60px;"">+</div>",NA,null,fixation,2020-06-26T21:03:39Z,NA,NA,NA,NA,NA,sub93
NA,mars-trial,34,155059,0.0-10.0-1.10,"""event"",""trial"",""time""
""blur"",""0"",""10524""
""focus"",""0"",""10613""
""fullscreenenter"",""0"",""19448""
","""event"",""trial"",""time""
""blur"",""0"",""10524""
","""event"",""trial"",""time""
""focus"",""0"",""10613""
","""event"",""trial"",""time""
""fullscreenenter"",""0"",""19448""
","
",9568.190000005416,<img style='border: 4px solid darkgrey;' src='img/tf1_11_M_ss1.jpeg'></img>,3,NA,exp,NA,2,<img src='img/tf1_11_T1_ss1_md.jpeg'></img>,0,FALSE,NA,sub93
NA,html-keyboard-response,35,155562,0.0-10.0-0.11,"""event"",""trial"",""time""
""blur"",""0"",""10524""
""focus"",""0"",""10613""
""fullscreenenter"",""0"",""19448""
","""event"",""trial"",""time""
""blur"",""0"",""10524""
","""event"",""trial"",""time""
""focus"",""0"",""10613""
","""event"",""trial"",""time""
""fullscreenenter"",""0"",""19448""
","
",null,"<div style=""font-size:60px;"">+</div>",NA,null,fixation,2020-06-26T21:03:50Z,NA,NA,NA,NA,NA,sub93
NA,mars-trial,36,157321,0.0-10.0-1.11,"""event"",""trial"",""time""
""blur"",""0"",""10524""
""focus"",""0"",""10613""
""fullscreenenter"",""0"",""19448""
","""event"",""trial"",""time""
""blur"",""0"",""10524""
","""event"",""trial"",""time""
""focus"",""0"",""10613""
","""event"",""trial"",""time""
""fullscreenenter"",""0"",""19448""
","
",1148.2299999988754,<img style='border: 4px solid darkgrey;' src='img/tf1_12_M_ss2.jpeg'></img>,3,NA,exp,NA,3,<img src='img/tf1_12_T1_ss2_md.jpeg'></img>,0,FALSE,NA,sub93
NA,html-keyboard-response,37,157829,0.0-10.0-0.12,"""event"",""trial"",""time""
""blur"",""0"",""10524""
""focus"",""0"",""10613""
""fullscreenenter"",""0"",""19448""
","""event"",""trial"",""time""
""blur"",""0"",""10524""
","""event"",""trial"",""time""
""focus"",""0"",""10613""
","""event"",""trial"",""time""
""fullscreenenter"",""0"",""19448""
","
",null,"<div style=""font-size:60px;"">+</div>",NA,null,fixation,2020-06-26T21:03:52Z,NA,NA,NA,NA,NA,sub93
NA,mars-trial,38,168536,0.0-10.0-1.12,"""event"",""trial"",""time""
""blur"",""0"",""10524""
""focus"",""0"",""10613""
""fullscreenenter"",""0"",""19448""
","""event"",""trial"",""time""
""blur"",""0"",""10524""
","""event"",""trial"",""time""
""focus"",""0"",""10613""
","""event"",""trial"",""time""
""fullscreenenter"",""0"",""19448""
","
",10101.690000003146,<img style='border: 4px solid darkgrey;' src='img/tf1_13_M_ss3.jpeg'></img>,2,NA,exp,NA,3,<img src='img/tf1_13_T1_ss3_md.jpeg'></img>,0,FALSE,NA,sub93
NA,html-keyboard-response,39,169039,0.0-10.0-0.13,"""event"",""trial"",""time""
""blur"",""0"",""10524""
""focus"",""0"",""10613""
""fullscreenenter"",""0"",""19448""
","""event"",""trial"",""time""
""blur"",""0"",""10524""
","""event"",""trial"",""time""
""focus"",""0"",""10613""
","""event"",""trial"",""time""
""fullscreenenter"",""0"",""19448""
","
",null,"<div style=""font-size:60px;"">+</div>",NA,null,fixation,2020-06-26T21:04:04Z,NA,NA,NA,NA,NA,sub93
NA,mars-trial,40,182043,0.0-10.0-1.13,"""event"",""trial"",""time""
""blur"",""0"",""10524""
""focus"",""0"",""10613""
""fullscreenenter"",""0"",""19448""
","""event"",""trial"",""time""
""blur"",""0"",""10524""
","""event"",""trial"",""time""
""focus"",""0"",""10613""
","""event"",""trial"",""time""
""fullscreenenter"",""0"",""19448""
","
",12394.304999994347,<img style='border: 4px solid darkgrey;' src='img/tf1_14_M_ss1.jpeg'></img>,2,NA,exp,NA,1,<img src='img/tf1_14_T1_ss1_md.jpeg'></img>,0,FALSE,NA,sub93
NA,html-keyboard-response,41,182547,0.0-10.0-0.14,"""event"",""trial"",""time""
""blur"",""0"",""10524""
""focus"",""0"",""10613""
""fullscreenenter"",""0"",""19448""
","""event"",""trial"",""time""
""blur"",""0"",""10524""
","""event"",""trial"",""time""
""focus"",""0"",""10613""
","""event"",""trial"",""time""
""fullscreenenter"",""0"",""19448""
","
",null,"<div style=""font-size:60px;"">+</div>",NA,null,fixation,2020-06-26T21:04:17Z,NA,NA,NA,NA,NA,sub93
NA,mars-trial,42,193384,0.0-10.0-1.14,"""event"",""trial"",""time""
""blur"",""0"",""10524""
""focus"",""0"",""10613""
""fullscreenenter"",""0"",""19448""
","""event"",""trial"",""time""
""blur"",""0"",""10524""
","""event"",""trial"",""time""
""focus"",""0"",""10613""
","""event"",""trial"",""time""
""fullscreenenter"",""0"",""19448""
","
",10229.574999997567,<img style='border: 4px solid darkgrey;' src='img/tf1_15_M_ss2.jpeg'></img>,2,NA,exp,NA,2,<img src='img/tf1_15_T1_ss2_md.jpeg'></img>,0,FALSE,NA,sub93
NA,html-keyboard-response,43,193885,0.0-10.0-0.15,"""event"",""trial"",""time""
""blur"",""0"",""10524""
""focus"",""0"",""10613""
""fullscreenenter"",""0"",""19448""
","""event"",""trial"",""time""
""blur"",""0"",""10524""
","""event"",""trial"",""time""
""focus"",""0"",""10613""
","""event"",""trial"",""time""
""fullscreenenter"",""0"",""19448""
","
",null,"<div style=""font-size:60px;"">+</div>",NA,null,fixation,2020-06-26T21:04:28Z,NA,NA,NA,NA,NA,sub93
NA,mars-trial,44,200291,0.0-10.0-1.15,"""event"",""trial"",""time""
""blur"",""0"",""10524""
""focus"",""0"",""10613""
""fullscreenenter"",""0"",""19448""
","""event"",""trial"",""time""
""blur"",""0"",""10524""
","""event"",""trial"",""time""
""focus"",""0"",""10613""
","""event"",""trial"",""time""
""fullscreenenter"",""0"",""19448""
","
",5800.734999997076,<img style='border: 4px solid darkgrey;' src='img/tf1_16_M_ss3.jpeg'></img>,2,NA,exp,NA,0,<img src='img/tf1_16_T1_ss3_md.jpeg'></img>,0,TRUE,NA,sub93
NA,html-keyboard-response,45,200794,0.0-10.0-0.16,"""event"",""trial"",""time""
""blur"",""0"",""10524""
""focus"",""0"",""10613""
""fullscreenenter"",""0"",""19448""
","""event"",""trial"",""time""
""blur"",""0"",""10524""
","""event"",""trial"",""time""
""focus"",""0"",""10613""
","""event"",""trial"",""time""
""fullscreenenter"",""0"",""19448""
","
",null,"<div style=""font-size:60px;"">+</div>",NA,null,fixation,2020-06-26T21:04:35Z,NA,NA,NA,NA,NA,sub93
NA,mars-trial,46,208307,0.0-10.0-1.16,"""event"",""trial"",""time""
""blur"",""0"",""10524""
""focus"",""0"",""10613""
""fullscreenenter"",""0"",""19448""
","""event"",""trial"",""time""
""blur"",""0"",""10524""
","""event"",""trial"",""time""
""focus"",""0"",""10613""
","""event"",""trial"",""time""
""fullscreenenter"",""0"",""19448""
","
",6904.024999996182,<img style='border: 4px solid darkgrey;' src='img/tf1_17_M_ss1.jpeg'></img>,0,NA,exp,NA,3,<img src='img/tf1_17_T1_ss1_md.jpeg'></img>,0,FALSE,NA,sub93
NA,html-keyboard-response,47,208810,0.0-10.0-0.17,"""event"",""trial"",""time""
""blur"",""0"",""10524""
""focus"",""0"",""10613""
""fullscreenenter"",""0"",""19448""
","""event"",""trial"",""time""
""blur"",""0"",""10524""
","""event"",""trial"",""time""
""focus"",""0"",""10613""
","""event"",""trial"",""time""
""fullscreenenter"",""0"",""19448""
","
",null,"<div style=""font-size:60px;"">+</div>",NA,null,fixation,2020-06-26T21:04:43Z,NA,NA,NA,NA,NA,sub93
NA,mars-trial,48,218368,0.0-10.0-1.17,"""event"",""trial"",""time""
""blur"",""0"",""10524""
""focus"",""0"",""10613""
""fullscreenenter"",""0"",""19448""
","""event"",""trial"",""time""
""blur"",""0"",""10524""
","""event"",""trial"",""time""
""focus"",""0"",""10613""
","""event"",""trial"",""time""
""fullscreenenter"",""0"",""19448""
","
",8947.470000006433,<img style='border: 4px solid darkgrey;' src='img/tf1_18_M_ss2.jpeg'></img>,1,NA,exp,NA,2,<img src='img/tf1_18_T1_ss2_md.jpeg'></img>,0,FALSE,NA,sub93
NA,html-keyboard-response,49,218870,0.0-10.0-0.18,"""event"",""trial"",""time""
""blur"",""0"",""10524""
""focus"",""0"",""10613""
""fullscreenenter"",""0"",""19448""
","""event"",""trial"",""time""
""blur"",""0"",""10524""
","""event"",""trial"",""time""
""focus"",""0"",""10613""
","""event"",""trial"",""time""
""fullscreenenter"",""0"",""19448""
","
",null,"<div style=""font-size:60px;"">+</div>",NA,null,fixation,2020-06-26T21:04:53Z,NA,NA,NA,NA,NA,sub93
NA,mars-trial,50,225307,0.0-10.0-1.18,"""event"",""trial"",""time""
""blur"",""0"",""10524""
""focus"",""0"",""10613""
""fullscreenenter"",""0"",""19448""
","""event"",""trial"",""time""
""blur"",""0"",""10524""
","""event"",""trial"",""time""
""focus"",""0"",""10613""
","""event"",""trial"",""time""
""fullscreenenter"",""0"",""19448""
","
",5829.320000004373,<img style='border: 4px solid darkgrey;' src='img/tf1_19_M_ss3.jpeg'></img>,1,NA,exp,NA,0,<img src='img/tf1_19_T1_ss3_md.jpeg'></img>,0,TRUE,NA,sub93
NA,html-keyboard-response,51,225811,0.0-10.0-0.19,"""event"",""trial"",""time""
""blur"",""0"",""10524""
""focus"",""0"",""10613""
""fullscreenenter"",""0"",""19448""
","""event"",""trial"",""time""
""blur"",""0"",""10524""
","""event"",""trial"",""time""
""focus"",""0"",""10613""
","""event"",""trial"",""time""
""fullscreenenter"",""0"",""19448""
","
",null,"<div style=""font-size:60px;"">+</div>",NA,null,fixation,2020-06-26T21:05:00Z,NA,NA,NA,NA,NA,sub93
NA,mars-trial,52,233345,0.0-10.0-1.19,"""event"",""trial"",""time""
""blur"",""0"",""10524""
""focus"",""0"",""10613""
""fullscreenenter"",""0"",""19448""
","""event"",""trial"",""time""
""blur"",""0"",""10524""
","""event"",""trial"",""time""
""focus"",""0"",""10613""
","""event"",""trial"",""time""
""fullscreenenter"",""0"",""19448""
","
",6923.705000001064,<img style='border: 4px solid darkgrey;' src='img/tf1_20_M_ss1.jpeg'></img>,2,NA,exp,NA,1,<img src='img/tf1_20_T1_ss1_md.jpeg'></img>,0,FALSE,NA,sub93
NA,html-keyboard-response,53,233849,0.0-10.0-0.20,"""event"",""trial"",""time""
""blur"",""0"",""10524""
""focus"",""0"",""10613""
""fullscreenenter"",""0"",""19448""
","""event"",""trial"",""time""
""blur"",""0"",""10524""
","""event"",""trial"",""time""
""focus"",""0"",""10613""
","""event"",""trial"",""time""
""fullscreenenter"",""0"",""19448""
","
",null,"<div style=""font-size:60px;"">+</div>",NA,null,fixation,2020-06-26T21:05:08Z,NA,NA,NA,NA,NA,sub93
NA,mars-trial,54,240770,0.0-10.0-1.20,"""event"",""trial"",""time""
""blur"",""0"",""10524""
""focus"",""0"",""10613""
""fullscreenenter"",""0"",""19448""
","""event"",""trial"",""time""
""blur"",""0"",""10524""
","""event"",""trial"",""time""
""focus"",""0"",""10613""
","""event"",""trial"",""time""
""fullscreenenter"",""0"",""19448""
","
",6314.789999996719,<img style='border: 4px solid darkgrey;' src='img/tf1_21_M_ss2.jpeg'></img>,2,NA,exp,NA,1,<img src='img/tf1_21_T1_ss2_md.jpeg'></img>,0,FALSE,NA,sub93
NA,html-keyboard-response,55,241278,0.0-10.0-0.21,"""event"",""trial"",""time""
""blur"",""0"",""10524""
""focus"",""0"",""10613""
""fullscreenenter"",""0"",""19448""
","""event"",""trial"",""time""
""blur"",""0"",""10524""
","""event"",""trial"",""time""
""focus"",""0"",""10613""
","""event"",""trial"",""time""
""fullscreenenter"",""0"",""19448""
","
",null,"<div style=""font-size:60px;"">+</div>",NA,null,fixation,2020-06-26T21:05:16Z,NA,NA,NA,NA,NA,sub93
NA,mars-trial,56,249162,0.0-10.0-1.21,"""event"",""trial"",""time""
""blur"",""0"",""10524""
""focus"",""0"",""10613""
""fullscreenenter"",""0"",""19448""
","""event"",""trial"",""time""
""blur"",""0"",""10524""
","""event"",""trial"",""time""
""focus"",""0"",""10613""
","""event"",""trial"",""time""
""fullscreenenter"",""0"",""19448""
","
",7273.0199999932665,<img style='border: 4px solid darkgrey;' src='img/tf1_22_M_ss3.jpeg'></img>,2,NA,exp,NA,0,<img src='img/tf1_22_T1_ss3_md.jpeg'></img>,0,TRUE,NA,sub93
NA,html-keyboard-response,57,249665,0.0-10.0-0.22,"""event"",""trial"",""time""
""blur"",""0"",""10524""
""focus"",""0"",""10613""
""fullscreenenter"",""0"",""19448""
","""event"",""trial"",""time""
""blur"",""0"",""10524""
","""event"",""trial"",""time""
""focus"",""0"",""10613""
","""event"",""trial"",""time""
""fullscreenenter"",""0"",""19448""
","
",null,"<div style=""font-size:60px;"">+</div>",NA,null,fixation,2020-06-26T21:05:24Z,NA,NA,NA,NA,NA,sub93
NA,mars-trial,58,255680,0.0-10.0-1.22,"""event"",""trial"",""time""
""blur"",""0"",""10524""
""focus"",""0"",""10613""
""fullscreenenter"",""0"",""19448""
","""event"",""trial"",""time""
""blur"",""0"",""10524""
","""event"",""trial"",""time""
""focus"",""0"",""10613""
","""event"",""trial"",""time""
""fullscreenenter"",""0"",""19448""
","
",5406.560000003083,<img style='border: 4px solid darkgrey;' src='img/tf1_23_M_ss1.jpeg'></img>,1,NA,exp,NA,2,<img src='img/tf1_23_T1_ss1_md.jpeg'></img>,0,FALSE,NA,sub93
NA,html-keyboard-response,59,256182,0.0-10.0-0.23,"""event"",""trial"",""time""
""blur"",""0"",""10524""
""focus"",""0"",""10613""
""fullscreenenter"",""0"",""19448""
","""event"",""trial"",""time""
""blur"",""0"",""10524""
","""event"",""trial"",""time""
""focus"",""0"",""10613""
","""event"",""trial"",""time""
""fullscreenenter"",""0"",""19448""
","
",null,"<div style=""font-size:60px;"">+</div>",NA,null,fixation,2020-06-26T21:05:31Z,NA,NA,NA,NA,NA,sub93
NA,mars-trial,60,268487,0.0-10.0-1.23,"""event"",""trial"",""time""
""blur"",""0"",""10524""
""focus"",""0"",""10613""
""fullscreenenter"",""0"",""19448""
","""event"",""trial"",""time""
""blur"",""0"",""10524""
","""event"",""trial"",""time""
""focus"",""0"",""10613""
","""event"",""trial"",""time""
""fullscreenenter"",""0"",""19448""
","
",11695.424999998068,<img style='border: 4px solid darkgrey;' src='img/tf1_24_M_ss2.jpeg'></img>,3,NA,exp,NA,0,<img src='img/tf1_24_T1_ss2_md.jpeg'></img>,0,TRUE,NA,sub93
NA,html-keyboard-response,61,268989,0.0-10.0-0.24,"""event"",""trial"",""time""
""blur"",""0"",""10524""
""focus"",""0"",""10613""
""fullscreenenter"",""0"",""19448""
","""event"",""trial"",""time""
""blur"",""0"",""10524""
","""event"",""trial"",""time""
""focus"",""0"",""10613""
","""event"",""trial"",""time""
""fullscreenenter"",""0"",""19448""
","
",null,"<div style=""font-size:60px;"">+</div>",NA,null,fixation,2020-06-26T21:05:44Z,NA,NA,NA,NA,NA,sub93
NA,mars-trial,62,274242,0.0-10.0-1.24,"""event"",""trial"",""time""
""blur"",""0"",""10524""
""focus"",""0"",""10613""
""fullscreenenter"",""0"",""19448""
","""event"",""trial"",""time""
""blur"",""0"",""10524""
","""event"",""trial"",""time""
""focus"",""0"",""10613""
","""event"",""trial"",""time""
""fullscreenenter"",""0"",""19448""
","
",4641.4700000023,<img style='border: 4px solid darkgrey;' src='img/tf1_25_M_ss3.jpeg'></img>,2,NA,exp,NA,2,<img src='img/tf1_25_T1_ss3_md.jpeg'></img>,0,FALSE,NA,sub93
NA,html-keyboard-response,63,274745,0.0-10.0-0.25,"""event"",""trial"",""time""
""blur"",""0"",""10524""
""focus"",""0"",""10613""
""fullscreenenter"",""0"",""19448""
","""event"",""trial"",""time""
""blur"",""0"",""10524""
","""event"",""trial"",""time""
""focus"",""0"",""10613""
","""event"",""trial"",""time""
""fullscreenenter"",""0"",""19448""
","
",null,"<div style=""font-size:60px;"">+</div>",NA,null,fixation,2020-06-26T21:05:49Z,NA,NA,NA,NA,NA,sub93
NA,mars-trial,64,284713,0.0-10.0-1.25,"""event"",""trial"",""time""
""blur"",""0"",""10524""
""focus"",""0"",""10613""
""fullscreenenter"",""0"",""19448""
","""event"",""trial"",""time""
""blur"",""0"",""10524""
","""event"",""trial"",""time""
""focus"",""0"",""10613""
","""event"",""trial"",""time""
""fullscreenenter"",""0"",""19448""
","
",9361.485000001267,<img style='border: 4px solid darkgrey;' src='img/tf1_26_M_ss1.jpeg'></img>,3,NA,exp,NA,2,<img src='img/tf1_26_T1_ss1_md.jpeg'></img>,0,FALSE,NA,sub93
NA,html-keyboard-response,65,285215,0.0-10.0-0.26,"""event"",""trial"",""time""
""blur"",""0"",""10524""
""focus"",""0"",""10613""
""fullscreenenter"",""0"",""19448""
","""event"",""trial"",""time""
""blur"",""0"",""10524""
","""event"",""trial"",""time""
""focus"",""0"",""10613""
","""event"",""trial"",""time""
""fullscreenenter"",""0"",""19448""
","
",null,"<div style=""font-size:60px;"">+</div>",NA,null,fixation,2020-06-26T21:06:00Z,NA,NA,NA,NA,NA,sub93
NA,mars-trial,66,289846,0.0-10.0-1.26,"""event"",""trial"",""time""
""blur"",""0"",""10524""
""focus"",""0"",""10613""
""fullscreenenter"",""0"",""19448""
","""event"",""trial"",""time""
""blur"",""0"",""10524""
","""event"",""trial"",""time""
""focus"",""0"",""10613""
","""event"",""trial"",""time""
""fullscreenenter"",""0"",""19448""
","
",4024.584999999206,<img style='border: 4px solid darkgrey;' src='img/tf1_27_M_ss2.jpeg'></img>,2,NA,exp,NA,0,<img src='img/tf1_27_T1_ss2_md.jpeg'></img>,0,TRUE,NA,sub93
NA,html-keyboard-response,67,290350,0.0-10.0-0.27,"""event"",""trial"",""time""
""blur"",""0"",""10524""
""focus"",""0"",""10613""
""fullscreenenter"",""0"",""19448""
","""event"",""trial"",""time""
""blur"",""0"",""10524""
","""event"",""trial"",""time""
""focus"",""0"",""10613""
","""event"",""trial"",""time""
""fullscreenenter"",""0"",""19448""
","
",null,"<div style=""font-size:60px;"">+</div>",NA,null,fixation,2020-06-26T21:06:05Z,NA,NA,NA,NA,NA,sub93
NA,mars-trial,68,306987,0.0-10.0-1.27,"""event"",""trial"",""time""
""blur"",""0"",""10524""
""focus"",""0"",""10613""
""fullscreenenter"",""0"",""19448""
","""event"",""trial"",""time""
""blur"",""0"",""10524""
","""event"",""trial"",""time""
""focus"",""0"",""10613""
","""event"",""trial"",""time""
""fullscreenenter"",""0"",""19448""
","
",16026.83000000252,<img style='border: 4px solid darkgrey;' src='img/tf1_28_M_ss3.jpeg'></img>,0,NA,exp,NA,1,<img src='img/tf1_28_T1_ss3_md.jpeg'></img>,0,FALSE,NA,sub93
NA,html-keyboard-response,69,307489,0.0-10.0-0.28,"""event"",""trial"",""time""
""blur"",""0"",""10524""
""focus"",""0"",""10613""
""fullscreenenter"",""0"",""19448""
","""event"",""trial"",""time""
""blur"",""0"",""10524""
","""event"",""trial"",""time""
""focus"",""0"",""10613""
","""event"",""trial"",""time""
""fullscreenenter"",""0"",""19448""
","
",null,"<div style=""font-size:60px;"">+</div>",NA,null,fixation,2020-06-26T21:06:22Z,NA,NA,NA,NA,NA,sub93
NA,mars-trial,70,312996,0.0-10.0-1.28,"""event"",""trial"",""time""
""blur"",""0"",""10524""
""focus"",""0"",""10613""
""fullscreenenter"",""0"",""19448""
","""event"",""trial"",""time""
""blur"",""0"",""10524""
","""event"",""trial"",""time""
""focus"",""0"",""10613""
","""event"",""trial"",""time""
""fullscreenenter"",""0"",""19448""
","
",4900.780000003579,<img style='border: 4px solid darkgrey;' src='img/tf1_29_M_ss1.jpeg'></img>,1,NA,exp,NA,2,<img src='img/tf1_29_T1_ss1_md.jpeg'></img>,0,FALSE,NA,sub93
NA,html-keyboard-response,71,313502,0.0-10.0-0.29,"""event"",""trial"",""time""
""blur"",""0"",""10524""
""focus"",""0"",""10613""
""fullscreenenter"",""0"",""19448""
","""event"",""trial"",""time""
""blur"",""0"",""10524""
","""event"",""trial"",""time""
""focus"",""0"",""10613""
","""event"",""trial"",""time""
""fullscreenenter"",""0"",""19448""
","
",null,"<div style=""font-size:60px;"">+</div>",NA,null,fixation,2020-06-26T21:06:28Z,NA,NA,NA,NA,NA,sub93
NA,mars-trial,72,324350,0.0-10.0-1.29,"""event"",""trial"",""time""
""blur"",""0"",""10524""
""focus"",""0"",""10613""
""fullscreenenter"",""0"",""19448""
","""event"",""trial"",""time""
""blur"",""0"",""10524""
","""event"",""trial"",""time""
""focus"",""0"",""10613""
","""event"",""trial"",""time""
""fullscreenenter"",""0"",""19448""
","
",10238.180000000284,<img style='border: 4px solid darkgrey;' src='img/tf1_30_M_ss2.jpeg'></img>,3,NA,exp,NA,3,<img src='img/tf1_30_T1_ss2_md.jpeg'></img>,0,FALSE,NA,sub93
NA,html-keyboard-response,73,324853,0.0-10.0-0.30,"""event"",""trial"",""time""
""blur"",""0"",""10524""
""focus"",""0"",""10613""
""fullscreenenter"",""0"",""19448""
","""event"",""trial"",""time""
""blur"",""0"",""10524""
","""event"",""trial"",""time""
""focus"",""0"",""10613""
","""event"",""trial"",""time""
""fullscreenenter"",""0"",""19448""
","
",null,"<div style=""font-size:60px;"">+</div>",NA,null,fixation,2020-06-26T21:06:39Z,NA,NA,NA,NA,NA,sub93
NA,mars-trial,74,329384,0.0-10.0-1.30,"""event"",""trial"",""time""
""blur"",""0"",""10524""
""focus"",""0"",""10613""
""fullscreenenter"",""0"",""19448""
","""event"",""trial"",""time""
""blur"",""0"",""10524""
","""event"",""trial"",""time""
""focus"",""0"",""10613""
","""event"",""trial"",""time""
""fullscreenenter"",""0"",""19448""
","
",3920.3449999986333,<img style='border: 4px solid darkgrey;' src='img/tf1_31_M_ss3.jpeg'></img>,3,NA,exp,NA,2,<img src='img/tf1_31_T1_ss3_md.jpeg'></img>,0,FALSE,NA,sub93
NA,html-keyboard-response,75,329888,0.0-10.0-0.31,"""event"",""trial"",""time""
""blur"",""0"",""10524""
""focus"",""0"",""10613""
""fullscreenenter"",""0"",""19448""
","""event"",""trial"",""time""
""blur"",""0"",""10524""
","""event"",""trial"",""time""
""focus"",""0"",""10613""
","""event"",""trial"",""time""
""fullscreenenter"",""0"",""19448""
","
",null,"<div style=""font-size:60px;"">+</div>",NA,null,fixation,2020-06-26T21:06:44Z,NA,NA,NA,NA,NA,sub93
NA,mars-trial,76,340339,0.0-10.0-1.31,"""event"",""trial"",""time""
""blur"",""0"",""10524""
""focus"",""0"",""10613""
""fullscreenenter"",""0"",""19448""
","""event"",""trial"",""time""
""blur"",""0"",""10524""
","""event"",""trial"",""time""
""focus"",""0"",""10613""
","""event"",""trial"",""time""
""fullscreenenter"",""0"",""19448""
","
",9840.534999995725,<img style='border: 4px solid darkgrey;' src='img/tf1_32_M_ss1.jpeg'></img>,3,NA,exp,NA,1,<img src='img/tf1_32_T1_ss1_md.jpeg'></img>,0,FALSE,NA,sub93
NA,html-keyboard-response,77,340842,0.0-10.0-0.32,"""event"",""trial"",""time""
""blur"",""0"",""10524""
""focus"",""0"",""10613""
""fullscreenenter"",""0"",""19448""
","""event"",""trial"",""time""
""blur"",""0"",""10524""
","""event"",""trial"",""time""
""focus"",""0"",""10613""
","""event"",""trial"",""time""
""fullscreenenter"",""0"",""19448""
","
",null,"<div style=""font-size:60px;"">+</div>",NA,null,fixation,2020-06-26T21:06:55Z,NA,NA,NA,NA,NA,sub93
NA,mars-trial,78,357103,0.0-10.0-1.32,"""event"",""trial"",""time""
""blur"",""0"",""10524""
""focus"",""0"",""10613""
""fullscreenenter"",""0"",""19448""
","""event"",""trial"",""time""
""blur"",""0"",""10524""
","""event"",""trial"",""time""
""focus"",""0"",""10613""
","""event"",""trial"",""time""
""fullscreenenter"",""0"",""19448""
","
",15656.025000003865,<img style='border: 4px solid darkgrey;' src='img/tf1_33_M_ss2.jpeg'></img>,3,NA,exp,NA,3,<img src='img/tf1_33_T1_ss2_md.jpeg'></img>,0,FALSE,NA,sub93
NA,html-keyboard-response,79,357606,0.0-10.0-0.33,"""event"",""trial"",""time""
""blur"",""0"",""10524""
""focus"",""0"",""10613""
""fullscreenenter"",""0"",""19448""
","""event"",""trial"",""time""
""blur"",""0"",""10524""
","""event"",""trial"",""time""
""focus"",""0"",""10613""
","""event"",""trial"",""time""
""fullscreenenter"",""0"",""19448""
","
",null,"<div style=""font-size:60px;"">+</div>",NA,null,fixation,2020-06-26T21:07:12Z,NA,NA,NA,NA,NA,sub93
NA,mars-trial,80,375191,0.0-10.0-1.33,"""event"",""trial"",""time""
""blur"",""0"",""10524""
""focus"",""0"",""10613""
""fullscreenenter"",""0"",""19448""
","""event"",""trial"",""time""
""blur"",""0"",""10524""
","""event"",""trial"",""time""
""focus"",""0"",""10613""
","""event"",""trial"",""time""
""fullscreenenter"",""0"",""19448""
","
",16975.37499999453,<img style='border: 4px solid darkgrey;' src='img/tf1_34_M_ss3.jpeg'></img>,3,NA,exp,NA,2,<img src='img/tf1_34_T1_ss3_md.jpeg'></img>,0,FALSE,NA,sub93
NA,html-keyboard-response,81,375693,0.0-10.0-0.34,"""event"",""trial"",""time""
""blur"",""0"",""10524""
""focus"",""0"",""10613""
""fullscreenenter"",""0"",""19448""
","""event"",""trial"",""time""
""blur"",""0"",""10524""
","""event"",""trial"",""time""
""focus"",""0"",""10613""
","""event"",""trial"",""time""
""fullscreenenter"",""0"",""19448""
","
",null,"<div style=""font-size:60px;"">+</div>",NA,null,fixation,2020-06-26T21:07:30Z,NA,NA,NA,NA,NA,sub93
NA,mars-trial,82,377155,0.0-10.0-1.34,"""event"",""trial"",""time""
""blur"",""0"",""10524""
""focus"",""0"",""10613""
""fullscreenenter"",""0"",""19448""
","""event"",""trial"",""time""
""blur"",""0"",""10524""
","""event"",""trial"",""time""
""focus"",""0"",""10613""
","""event"",""trial"",""time""
""fullscreenenter"",""0"",""19448""
","
",848.31000000122,<img style='border: 4px solid darkgrey;' src='img/tf1_35_M_ss1.jpeg'></img>,3,NA,exp,NA,1,<img src='img/tf1_35_T1_ss1_md.jpeg'></img>,0,FALSE,NA,sub93
NA,html-keyboard-response,83,377660,0.0-10.0-0.35,"""event"",""trial"",""time""
""blur"",""0"",""10524""
""focus"",""0"",""10613""
""fullscreenenter"",""0"",""19448""
","""event"",""trial"",""time""
""blur"",""0"",""10524""
","""event"",""trial"",""time""
""focus"",""0"",""10613""
","""event"",""trial"",""time""
""fullscreenenter"",""0"",""19448""
","
",null,"<div style=""font-size:60px;"">+</div>",NA,null,fixation,2020-06-26T21:07:32Z,NA,NA,NA,NA,NA,sub93
NA,mars-trial,84,401493,0.0-10.0-1.35,"""event"",""trial"",""time""
""blur"",""0"",""10524""
""focus"",""0"",""10613""
""fullscreenenter"",""0"",""19448""
","""event"",""trial"",""time""
""blur"",""0"",""10524""
","""event"",""trial"",""time""
""focus"",""0"",""10613""
","""event"",""trial"",""time""
""fullscreenenter"",""0"",""19448""
","
",23222.68000000622,<img style='border: 4px solid darkgrey;' src='img/tf1_36_M_ss2.jpeg'></img>,0,NA,exp,NA,0,<img src='img/tf1_36_T1_ss2_md.jpeg'></img>,0,TRUE,NA,sub93
NA,html-keyboard-response,85,401997,0.0-10.0-0.36,"""event"",""trial"",""time""
""blur"",""0"",""10524""
""focus"",""0"",""10613""
""fullscreenenter"",""0"",""19448""
","""event"",""trial"",""time""
""blur"",""0"",""10524""
","""event"",""trial"",""time""
""focus"",""0"",""10613""
","""event"",""trial"",""time""
""fullscreenenter"",""0"",""19448""
","
",null,"<div style=""font-size:60px;"">+</div>",NA,null,fixation,2020-06-26T21:07:57Z,NA,NA,NA,NA,NA,sub93
NA,mars-trial,86,423677,0.0-10.0-1.36,"""event"",""trial"",""time""
""blur"",""0"",""10524""
""focus"",""0"",""10613""
""fullscreenenter"",""0"",""19448""
","""event"",""trial"",""time""
""blur"",""0"",""10524""
","""event"",""trial"",""time""
""focus"",""0"",""10613""
","""event"",""trial"",""time""
""fullscreenenter"",""0"",""19448""
","
",21071.72499999433,<img style='border: 4px solid darkgrey;' src='img/tf1_37_M_ss3.jpeg'></img>,0,NA,exp,NA,1,<img src='img/tf1_37_T1_ss3_md.jpeg'></img>,0,FALSE,NA,sub93
NA,html-keyboard-response,87,424180,0.0-10.0-0.37,"""event"",""trial"",""time""
""blur"",""0"",""10524""
""focus"",""0"",""10613""
""fullscreenenter"",""0"",""19448""
","""event"",""trial"",""time""
""blur"",""0"",""10524""
","""event"",""trial"",""time""
""focus"",""0"",""10613""
","""event"",""trial"",""time""
""fullscreenenter"",""0"",""19448""
","
",null,"<div style=""font-size:60px;"">+</div>",NA,null,fixation,2020-06-26T21:08:19Z,NA,NA,NA,NA,NA,sub93
NA,mars-trial,88,432915,0.0-10.0-1.37,"""event"",""trial"",""time""
""blur"",""0"",""10524""
""focus"",""0"",""10613""
""fullscreenenter"",""0"",""19448""
","""event"",""trial"",""time""
""blur"",""0"",""10524""
","""event"",""trial"",""time""
""focus"",""0"",""10613""
","""event"",""trial"",""time""
""fullscreenenter"",""0"",""19448""
","
",8127.029999996012,<img style='border: 4px solid darkgrey;' src='img/tf1_38_M_ss1.jpeg'></img>,3,NA,exp,NA,0,<img src='img/tf1_38_T1_ss1_md.jpeg'></img>,0,TRUE,NA,sub93
NA,html-keyboard-response,89,433417,0.0-10.0-0.38,"""event"",""trial"",""time""
""blur"",""0"",""10524""
""focus"",""0"",""10613""
""fullscreenenter"",""0"",""19448""
","""event"",""trial"",""time""
""blur"",""0"",""10524""
","""event"",""trial"",""time""
""focus"",""0"",""10613""
","""event"",""trial"",""time""
""fullscreenenter"",""0"",""19448""
","
",null,"<div style=""font-size:60px;"">+</div>",NA,null,fixation,2020-06-26T21:08:28Z,NA,NA,NA,NA,NA,sub93
NA,mars-trial,90,461114,0.0-10.0-1.38,"""event"",""trial"",""time""
""blur"",""0"",""10524""
""focus"",""0"",""10613""
""fullscreenenter"",""0"",""19448""
","""event"",""trial"",""time""
""blur"",""0"",""10524""
","""event"",""trial"",""time""
""focus"",""0"",""10613""
","""event"",""trial"",""time""
""fullscreenenter"",""0"",""19448""
","
",27085.734999993292,<img style='border: 4px solid darkgrey;' src='img/tf1_39_M_ss2.jpeg'></img>,3,NA,exp,NA,1,<img src='img/tf1_39_T1_ss2_md.jpeg'></img>,0,FALSE,NA,sub93
NA,html-keyboard-response,91,461616,0.0-10.0-0.39,"""event"",""trial"",""time""
""blur"",""0"",""10524""
""focus"",""0"",""10613""
""fullscreenenter"",""0"",""19448""
","""event"",""trial"",""time""
""blur"",""0"",""10524""
","""event"",""trial"",""time""
""focus"",""0"",""10613""
","""event"",""trial"",""time""
""fullscreenenter"",""0"",""19448""
","
",null,"<div style=""font-size:60px;"">+</div>",NA,null,fixation,2020-06-26T21:08:56Z,NA,NA,NA,NA,NA,sub93
NA,mars-trial,92,469698,0.0-10.0-1.39,"""event"",""trial"",""time""
""blur"",""0"",""10524""
""focus"",""0"",""10613""
""fullscreenenter"",""0"",""19448""
","""event"",""trial"",""time""
""blur"",""0"",""10524""
","""event"",""trial"",""time""
""focus"",""0"",""10613""
","""event"",""trial"",""time""
""fullscreenenter"",""0"",""19448""
","
",7472.085000001243,<img style='border: 4px solid darkgrey;' src='img/tf1_40_M_ss3.jpeg'></img>,2,NA,exp,NA,3,<img src='img/tf1_40_T1_ss3_md.jpeg'></img>,0,FALSE,NA,sub93
NA,html-keyboard-response,93,470202,0.0-10.0-0.40,"""event"",""trial"",""time""
""blur"",""0"",""10524""
""focus"",""0"",""10613""
""fullscreenenter"",""0"",""19448""
","""event"",""trial"",""time""
""blur"",""0"",""10524""
","""event"",""trial"",""time""
""focus"",""0"",""10613""
","""event"",""trial"",""time""
""fullscreenenter"",""0"",""19448""
","
",null,"<div style=""font-size:60px;"">+</div>",NA,null,fixation,2020-06-26T21:09:05Z,NA,NA,NA,NA,NA,sub93
NA,mars-trial,94,477585,0.0-10.0-1.40,"""event"",""trial"",""time""
""blur"",""0"",""10524""
""focus"",""0"",""10613""
""fullscreenenter"",""0"",""19448""
","""event"",""trial"",""time""
""blur"",""0"",""10524""
","""event"",""trial"",""time""
""focus"",""0"",""10613""
","""event"",""trial"",""time""
""fullscreenenter"",""0"",""19448""
","
",6772.949999998673,<img style='border: 4px solid darkgrey;' src='img/tf1_41_M_ss1.jpeg'></img>,3,NA,exp,NA,0,<img src='img/tf1_41_T1_ss1_md.jpeg'></img>,0,TRUE,NA,sub93
NA,html-keyboard-response,95,478089,0.0-10.0-0.41,"""event"",""trial"",""time""
""blur"",""0"",""10524""
""focus"",""0"",""10613""
""fullscreenenter"",""0"",""19448""
","""event"",""trial"",""time""
""blur"",""0"",""10524""
","""event"",""trial"",""time""
""focus"",""0"",""10613""
","""event"",""trial"",""time""
""fullscreenenter"",""0"",""19448""
","
",null,"<div style=""font-size:60px;"">+</div>",NA,null,fixation,2020-06-26T21:09:13Z,NA,NA,NA,NA,NA,sub93
NA,mars-trial,96,493580,0.0-10.0-1.41,"""event"",""trial"",""time""
""blur"",""0"",""10524""
""focus"",""0"",""10613""
""fullscreenenter"",""0"",""19448""
","""event"",""trial"",""time""
""blur"",""0"",""10524""
","""event"",""trial"",""time""
""focus"",""0"",""10613""
","""event"",""trial"",""time""
""fullscreenenter"",""0"",""19448""
","
",14885.129999995115,<img style='border: 4px solid darkgrey;' src='img/tf1_42_M_ss2.jpeg'></img>,1,NA,exp,NA,3,<img src='img/tf1_42_T1_ss2_md.jpeg'></img>,0,FALSE,NA,sub93
NA,html-keyboard-response,97,494082,0.0-10.0-0.42,"""event"",""trial"",""time""
""blur"",""0"",""10524""
""focus"",""0"",""10613""
""fullscreenenter"",""0"",""19448""
","""event"",""trial"",""time""
""blur"",""0"",""10524""
","""event"",""trial"",""time""
""focus"",""0"",""10613""
","""event"",""trial"",""time""
""fullscreenenter"",""0"",""19448""
","
",null,"<div style=""font-size:60px;"">+</div>",NA,null,fixation,2020-06-26T21:09:29Z,NA,NA,NA,NA,NA,sub93
NA,mars-trial,98,515136,0.0-10.0-1.42,"""event"",""trial"",""time""
""blur"",""0"",""10524""
""focus"",""0"",""10613""
""fullscreenenter"",""0"",""19448""
","""event"",""trial"",""time""
""blur"",""0"",""10524""
","""event"",""trial"",""time""
""focus"",""0"",""10613""
","""event"",""trial"",""time""
""fullscreenenter"",""0"",""19448""
","
",20449.035000005097,<img style='border: 4px solid darkgrey;' src='img/tf1_43_M_ss3.jpeg'></img>,3,NA,exp,NA,0,<img src='img/tf1_43_T1_ss3_md.jpeg'></img>,0,TRUE,NA,sub93
NA,html-keyboard-response,99,515638,0.0-10.0-0.43,"""event"",""trial"",""time""
""blur"",""0"",""10524""
""focus"",""0"",""10613""
""fullscreenenter"",""0"",""19448""
","""event"",""trial"",""time""
""blur"",""0"",""10524""
","""event"",""trial"",""time""
""focus"",""0"",""10613""
","""event"",""trial"",""time""
""fullscreenenter"",""0"",""19448""
","
",null,"<div style=""font-size:60px;"">+</div>",NA,null,fixation,2020-06-26T21:09:50Z,NA,NA,NA,NA,NA,sub93
NA,mars-trial,100,543098,0.0-10.0-1.43,"""event"",""trial"",""time""
""blur"",""0"",""10524""
""focus"",""0"",""10613""
""fullscreenenter"",""0"",""19448""
","""event"",""trial"",""time""
""blur"",""0"",""10524""
","""event"",""trial"",""time""
""focus"",""0"",""10613""
","""event"",""trial"",""time""
""fullscreenenter"",""0"",""19448""
","
",26848.43499999988,<img style='border: 4px solid darkgrey;' src='img/tf1_44_M_ss1.jpeg'></img>,3,NA,exp,NA,2,<img src='img/tf1_44_T1_ss1_md.jpeg'></img>,0,FALSE,NA,sub93
NA,html-keyboard-response,101,543602,0.0-10.0-0.44,"""event"",""trial"",""time""
""blur"",""0"",""10524""
""focus"",""0"",""10613""
""fullscreenenter"",""0"",""19448""
","""event"",""trial"",""time""
""blur"",""0"",""10524""
","""event"",""trial"",""time""
""focus"",""0"",""10613""
","""event"",""trial"",""time""
""fullscreenenter"",""0"",""19448""
","
",null,"<div style=""font-size:60px;"">+</div>",NA,null,fixation,2020-06-26T21:10:18Z,NA,NA,NA,NA,NA,sub93
NA,mars-trial,102,561970,0.0-10.0-1.44,"""event"",""trial"",""time""
""blur"",""0"",""10524""
""focus"",""0"",""10613""
""fullscreenenter"",""0"",""19448""
","""event"",""trial"",""time""
""blur"",""0"",""10524""
","""event"",""trial"",""time""
""focus"",""0"",""10613""
","""event"",""trial"",""time""
""fullscreenenter"",""0"",""19448""
","
",17759.360000003595,<img style='border: 4px solid darkgrey;' src='img/tf1_45_M_ss2.jpeg'></img>,1,NA,exp,NA,0,<img src='img/tf1_45_T1_ss2_md.jpeg'></img>,0,TRUE,NA,sub93
NA,html-keyboard-response,103,562473,0.0-10.0-0.45,"""event"",""trial"",""time""
""blur"",""0"",""10524""
""focus"",""0"",""10613""
""fullscreenenter"",""0"",""19448""
","""event"",""trial"",""time""
""blur"",""0"",""10524""
","""event"",""trial"",""time""
""focus"",""0"",""10613""
","""event"",""trial"",""time""
""fullscreenenter"",""0"",""19448""
","
",null,"<div style=""font-size:60px;"">+</div>",NA,null,fixation,2020-06-26T21:10:37Z,NA,NA,NA,NA,NA,sub93
NA,mars-trial,104,570275,0.0-10.0-1.45,"""event"",""trial"",""time""
""blur"",""0"",""10524""
""focus"",""0"",""10613""
""fullscreenenter"",""0"",""19448""
","""event"",""trial"",""time""
""blur"",""0"",""10524""
","""event"",""trial"",""time""
""focus"",""0"",""10613""
","""event"",""trial"",""time""
""fullscreenenter"",""0"",""19448""
","
",NA,NA,NA,NA,exp,NA,NA,<img src='img/tf1_46_T1_ss3_md.jpeg'></img>,0,FALSE,NA,sub93
NA,html-keyboard-response,105,570781,0.0-10.0-0.46,"""event"",""trial"",""time""
""blur"",""0"",""10524""
""focus"",""0"",""10613""
""fullscreenenter"",""0"",""19448""
","""event"",""trial"",""time""
""blur"",""0"",""10524""
","""event"",""trial"",""time""
""focus"",""0"",""10613""
","""event"",""trial"",""time""
""fullscreenenter"",""0"",""19448""
","
",null,"<div style=""font-size:60px;"">+</div>",NA,null,fixation,2020-06-26T21:10:45Z,NA,NA,NA,NA,NA,sub93
NA,audio-button-response,106,576587,0.0-11.0,"""event"",""trial"",""time""
""blur"",""0"",""10524""
""focus"",""0"",""10613""
""fullscreenenter"",""0"",""19448""
","""event"",""trial"",""time""
""blur"",""0"",""10524""
","""event"",""trial"",""time""
""focus"",""0"",""10613""
","""event"",""trial"",""time""
""fullscreenenter"",""0"",""19448""
","
",5701.789999999106,audio/mars_instructions_slide5.wav,0,NA,NA,NA,NA,NA,NA,NA,NA,sub93
