success,trial_type,trial_index,time_elapsed,internal_node_id,interactions,blur_events,focus_events,fullscreenenter_events,fullscreenexit_events,rt,stimulus,button_pressed,key_press,part,timestamp,unshuffled_button,correct_response,correct_button,correct,value,subject_id
TRUE,fullscreen,0,2755,0.0-0.0,"""event"",""trial"",""time""
""fullscreenenter"",""0"",""1769""
","
","
","""event"",""trial"",""time""
""fullscreenenter"",""0"",""1769""
","
",NA,NA,NA,NA,NA,NA,NA,NA,NA,NA,NA,sub30
NA,pavlovia,1,2766,0.0-1.0,"""event"",""trial"",""time""
""fullscreenenter"",""0"",""1769""
","
","
","""event"",""trial"",""time""
""fullscreenenter"",""0"",""1769""
","
",NA,NA,NA,NA,NA,NA,NA,NA,NA,NA,NA,sub30
NA,html-button-response,2,3828,0.0-2.0,"""event"",""trial"",""time""
""fullscreenenter"",""0"",""1769""
","
","
","""event"",""trial"",""time""
""fullscreenenter"",""0"",""1769""
","
",1059.064999979455,<p>Welcome! Press START to begin.</p><br>,0,NA,NA,NA,NA,NA,NA,NA,NA,sub30
NA,audio-button-response,3,11444,0.0-3.0,"""event"",""trial"",""time""
""fullscreenenter"",""0"",""1769""
","
","
","""event"",""trial"",""time""
""fullscreenenter"",""0"",""1769""
","
",7612.180000025546,audio/mars_instructions_slide2.wav,0,NA,NA,NA,NA,NA,NA,NA,NA,sub30
NA,audio-button-response,4,26997,0.0-4.0,"""event"",""trial"",""time""
""fullscreenenter"",""0"",""1769""
","
","
","""event"",""trial"",""time""
""fullscreenenter"",""0"",""1769""
","
",15549.804999987828,audio/mars_instructions_slide3.wav,0,NA,NA,NA,NA,NA,NA,NA,NA,sub30
NA,html-keyboard-response,5,27500,0.0-5.0-0.0,"""event"",""trial"",""time""
""fullscreenenter"",""0"",""1769""
","
","
","""event"",""trial"",""time""
""fullscreenenter"",""0"",""1769""
","
",null,"<div style=""font-size:60px;"">+</div>",NA,null,fixation,2020-06-10T18:22:51Z,NA,NA,NA,NA,NA,sub30
NA,mars-trial,6,41732,0.0-5.0-1.0,"""event"",""trial"",""time""
""fullscreenenter"",""0"",""1769""
","
","
","""event"",""trial"",""time""
""fullscreenenter"",""0"",""1769""
","
",12120.515000016894,<img style='border: 4px solid darkgrey;' src='practice/pt1_M1.png'></img>,1,NA,practice,NA,0,<img src='practice/pt1_T1.png'></img>,0,TRUE,NA,sub30
NA,html-keyboard-response,7,42237,0.0-6.0-0.0,"""event"",""trial"",""time""
""fullscreenenter"",""0"",""1769""
","
","
","""event"",""trial"",""time""
""fullscreenenter"",""0"",""1769""
","
",null,"<div style=""font-size:60px;"">+</div>",NA,null,fixation,2020-06-10T18:23:05Z,NA,NA,NA,NA,NA,sub30
NA,mars-trial,8,46958,0.0-6.0-1.0,"""event"",""trial"",""time""
""fullscreenenter"",""0"",""1769""
","
","
","""event"",""trial"",""time""
""fullscreenenter"",""0"",""1769""
","
",2614.2699999909382,<img style='border: 4px solid darkgrey;' src='practice/pt2_M1.png'></img>,0,NA,practice,NA,0,<img src='practice/pt2_T1.png'></img>,0,TRUE,NA,sub30
NA,html-keyboard-response,9,47462,0.0-7.0-0.0,"""event"",""trial"",""time""
""fullscreenenter"",""0"",""1769""
","
","
","""event"",""trial"",""time""
""fullscreenenter"",""0"",""1769""
","
",null,"<div style=""font-size:60px;"">+</div>",NA,null,fixation,2020-06-10T18:23:11Z,NA,NA,NA,NA,NA,sub30
NA,mars-trial,10,51826,0.0-7.0-1.0,"""event"",""trial"",""time""
""fullscreenenter"",""0"",""1769""
","
","
","""event"",""trial"",""time""
""fullscreenenter"",""0"",""1769""
","
",2258.5799999942537,<img style='border: 4px solid darkgrey;' src='practice/pt3_M1.png'></img>,3,NA,practice,NA,0,<img src='practice/pt3_T1.png'></img>,0,TRUE,NA,sub30
NA,audio-button-response,11,53520,0.0-8.0,"""event"",""trial"",""time""
""fullscreenenter"",""0"",""1769""
","
","
","""event"",""trial"",""time""
""fullscreenenter"",""0"",""1769""
","
",1688.4600000048522,audio/mars_instructions_slide4.wav,0,NA,NA,NA,NA,NA,NA,NA,NA,sub30
NA,call-function,12,53522,0.0-9.0,"""event"",""trial"",""time""
""fullscreenenter"",""0"",""1769""
","
","
","""event"",""trial"",""time""
""fullscreenenter"",""0"",""1769""
","
",NA,NA,NA,NA,NA,NA,NA,NA,NA,NA,NA,sub30
NA,html-keyboard-response,13,54023,0.0-10.0-0.0,"""event"",""trial"",""time""
""fullscreenenter"",""0"",""1769""
","
","
","""event"",""trial"",""time""
""fullscreenenter"",""0"",""1769""
","
",null,"<div style=""font-size:60px;"">+</div>",NA,null,fixation,2020-06-10T18:23:17Z,NA,NA,NA,NA,NA,sub30
NA,mars-trial,14,56337,0.0-10.0-1.0,"""event"",""trial"",""time""
""fullscreenenter"",""0"",""1769""
","
","
","""event"",""trial"",""time""
""fullscreenenter"",""0"",""1769""
","
",1705.660000006901,<img style='border: 4px solid darkgrey;' src='img/tf1_1_M_ss3.jpeg'></img>,1,NA,exp,NA,0,<img src='img/tf1_1_T1_ss3_md.jpeg'></img>,0,TRUE,NA,sub30
NA,html-keyboard-response,15,56839,0.0-10.0-0.1,"""event"",""trial"",""time""
""fullscreenenter"",""0"",""1769""
","
","
","""event"",""trial"",""time""
""fullscreenenter"",""0"",""1769""
","
",null,"<div style=""font-size:60px;"">+</div>",NA,null,fixation,2020-06-10T18:23:20Z,NA,NA,NA,NA,NA,sub30
NA,mars-trial,16,59923,0.0-10.0-1.1,"""event"",""trial"",""time""
""fullscreenenter"",""0"",""1769""
","
","
","""event"",""trial"",""time""
""fullscreenenter"",""0"",""1769""
","
",2477.09999998915,<img style='border: 4px solid darkgrey;' src='img/tf1_2_M_ss1.jpeg'></img>,3,NA,exp,NA,0,<img src='img/tf1_2_T1_ss1_md.jpeg'></img>,0,TRUE,NA,sub30
NA,html-keyboard-response,17,60425,0.0-10.0-0.2,"""event"",""trial"",""time""
""fullscreenenter"",""0"",""1769""
","
","
","""event"",""trial"",""time""
""fullscreenenter"",""0"",""1769""
","
",null,"<div style=""font-size:60px;"">+</div>",NA,null,fixation,2020-06-10T18:23:24Z,NA,NA,NA,NA,NA,sub30
NA,mars-trial,18,63725,0.0-10.0-1.2,"""event"",""trial"",""time""
""fullscreenenter"",""0"",""1769""
","
","
","""event"",""trial"",""time""
""fullscreenenter"",""0"",""1769""
","
",2692.979999992531,<img style='border: 4px solid darkgrey;' src='img/tf1_3_M_ss2.jpeg'></img>,2,NA,exp,NA,0,<img src='img/tf1_3_T1_ss2_md.jpeg'></img>,0,TRUE,NA,sub30
NA,html-keyboard-response,19,64226,0.0-10.0-0.3,"""event"",""trial"",""time""
""fullscreenenter"",""0"",""1769""
","
","
","""event"",""trial"",""time""
""fullscreenenter"",""0"",""1769""
","
",null,"<div style=""font-size:60px;"">+</div>",NA,null,fixation,2020-06-10T18:23:27Z,NA,NA,NA,NA,NA,sub30
NA,mars-trial,20,68224,0.0-10.0-1.3,"""event"",""trial"",""time""
""fullscreenenter"",""0"",""1769""
","
","
","""event"",""trial"",""time""
""fullscreenenter"",""0"",""1769""
","
",3391.590000013821,<img style='border: 4px solid darkgrey;' src='img/tf1_4_M_ss3.jpeg'></img>,1,NA,exp,NA,0,<img src='img/tf1_4_T1_ss3_md.jpeg'></img>,0,TRUE,NA,sub30
NA,html-keyboard-response,21,68727,0.0-10.0-0.4,"""event"",""trial"",""time""
""fullscreenenter"",""0"",""1769""
","
","
","""event"",""trial"",""time""
""fullscreenenter"",""0"",""1769""
","
",null,"<div style=""font-size:60px;"">+</div>",NA,null,fixation,2020-06-10T18:23:32Z,NA,NA,NA,NA,NA,sub30
NA,mars-trial,22,71637,0.0-10.0-1.4,"""event"",""trial"",""time""
""fullscreenenter"",""0"",""1769""
","
","
","""event"",""trial"",""time""
""fullscreenenter"",""0"",""1769""
","
",2303.0199999921024,<img style='border: 4px solid darkgrey;' src='img/tf1_5_M_ss1.jpeg'></img>,1,NA,exp,NA,0,<img src='img/tf1_5_T1_ss1_md.jpeg'></img>,0,TRUE,NA,sub30
NA,html-keyboard-response,23,72139,0.0-10.0-0.5,"""event"",""trial"",""time""
""fullscreenenter"",""0"",""1769""
","
","
","""event"",""trial"",""time""
""fullscreenenter"",""0"",""1769""
","
",null,"<div style=""font-size:60px;"">+</div>",NA,null,fixation,2020-06-10T18:23:35Z,NA,NA,NA,NA,NA,sub30
NA,mars-trial,24,78757,0.0-10.0-1.5,"""event"",""trial"",""time""
""fullscreenenter"",""0"",""1769""
","
","
","""event"",""trial"",""time""
""fullscreenenter"",""0"",""1769""
","
",6009.74499998847,<img style='border: 4px solid darkgrey;' src='img/tf1_6_M_ss2.jpeg'></img>,1,NA,exp,NA,3,<img src='img/tf1_6_T1_ss2_md.jpeg'></img>,0,FALSE,NA,sub30
NA,html-keyboard-response,25,79259,0.0-10.0-0.6,"""event"",""trial"",""time""
""fullscreenenter"",""0"",""1769""
","
","
","""event"",""trial"",""time""
""fullscreenenter"",""0"",""1769""
","
",null,"<div style=""font-size:60px;"">+</div>",NA,null,fixation,2020-06-10T18:23:42Z,NA,NA,NA,NA,NA,sub30
NA,mars-trial,26,82475,0.0-10.0-1.6,"""event"",""trial"",""time""
""fullscreenenter"",""0"",""1769""
","
","
","""event"",""trial"",""time""
""fullscreenenter"",""0"",""1769""
","
",2606.9250000000466,<img style='border: 4px solid darkgrey;' src='img/tf1_7_M_ss3.jpeg'></img>,2,NA,exp,NA,0,<img src='img/tf1_7_T1_ss3_md.jpeg'></img>,0,TRUE,NA,sub30
NA,html-keyboard-response,27,82977,0.0-10.0-0.7,"""event"",""trial"",""time""
""fullscreenenter"",""0"",""1769""
","
","
","""event"",""trial"",""time""
""fullscreenenter"",""0"",""1769""
","
",null,"<div style=""font-size:60px;"">+</div>",NA,null,fixation,2020-06-10T18:23:46Z,NA,NA,NA,NA,NA,sub30
NA,mars-trial,28,89927,0.0-10.0-1.7,"""event"",""trial"",""time""
""fullscreenenter"",""0"",""1769""
","
","
","""event"",""trial"",""time""
""fullscreenenter"",""0"",""1769""
","
",6342.195000004722,<img style='border: 4px solid darkgrey;' src='img/tf1_8_M_ss1.jpeg'></img>,3,NA,exp,NA,0,<img src='img/tf1_8_T1_ss1_md.jpeg'></img>,0,TRUE,NA,sub30
NA,html-keyboard-response,29,90429,0.0-10.0-0.8,"""event"",""trial"",""time""
""fullscreenenter"",""0"",""1769""
","
","
","""event"",""trial"",""time""
""fullscreenenter"",""0"",""1769""
","
",null,"<div style=""font-size:60px;"">+</div>",NA,null,fixation,2020-06-10T18:23:54Z,NA,NA,NA,NA,NA,sub30
NA,mars-trial,30,99110,0.0-10.0-1.8,"""event"",""trial"",""time""
""fullscreenenter"",""0"",""1769""
","
","
","""event"",""trial"",""time""
""fullscreenenter"",""0"",""1769""
","
",8073.945000011008,<img style='border: 4px solid darkgrey;' src='img/tf1_9_M_ss2.jpeg'></img>,3,NA,exp,NA,0,<img src='img/tf1_9_T1_ss2_md.jpeg'></img>,0,TRUE,NA,sub30
NA,html-keyboard-response,31,99612,0.0-10.0-0.9,"""event"",""trial"",""time""
""fullscreenenter"",""0"",""1769""
","
","
","""event"",""trial"",""time""
""fullscreenenter"",""0"",""1769""
","
",null,"<div style=""font-size:60px;"">+</div>",NA,null,fixation,2020-06-10T18:24:03Z,NA,NA,NA,NA,NA,sub30
NA,mars-trial,32,113405,0.0-10.0-1.9,"""event"",""trial"",""time""
""fullscreenenter"",""0"",""1769""
","
","
","""event"",""trial"",""time""
""fullscreenenter"",""0"",""1769""
","
",13186.914999998407,<img style='border: 4px solid darkgrey;' src='img/tf1_10_M_ss3.jpeg'></img>,1,NA,exp,NA,0,<img src='img/tf1_10_T1_ss3_md.jpeg'></img>,0,TRUE,NA,sub30
NA,html-keyboard-response,33,113907,0.0-10.0-0.10,"""event"",""trial"",""time""
""fullscreenenter"",""0"",""1769""
","
","
","""event"",""trial"",""time""
""fullscreenenter"",""0"",""1769""
","
",null,"<div style=""font-size:60px;"">+</div>",NA,null,fixation,2020-06-10T18:24:17Z,NA,NA,NA,NA,NA,sub30
NA,mars-trial,34,121972,0.0-10.0-1.10,"""event"",""trial"",""time""
""fullscreenenter"",""0"",""1769""
","
","
","""event"",""trial"",""time""
""fullscreenenter"",""0"",""1769""
","
",7457.084999972722,<img style='border: 4px solid darkgrey;' src='img/tf1_11_M_ss1.jpeg'></img>,0,NA,exp,NA,0,<img src='img/tf1_11_T1_ss1_md.jpeg'></img>,0,TRUE,NA,sub30
NA,html-keyboard-response,35,122474,0.0-10.0-0.11,"""event"",""trial"",""time""
""fullscreenenter"",""0"",""1769""
","
","
","""event"",""trial"",""time""
""fullscreenenter"",""0"",""1769""
","
",null,"<div style=""font-size:60px;"">+</div>",NA,null,fixation,2020-06-10T18:24:26Z,NA,NA,NA,NA,NA,sub30
NA,mars-trial,36,135198,0.0-10.0-1.11,"""event"",""trial"",""time""
""fullscreenenter"",""0"",""1769""
","
","
","""event"",""trial"",""time""
""fullscreenenter"",""0"",""1769""
","
",12115.85999999079,<img style='border: 4px solid darkgrey;' src='img/tf1_12_M_ss2.jpeg'></img>,1,NA,exp,NA,1,<img src='img/tf1_12_T1_ss2_md.jpeg'></img>,0,FALSE,NA,sub30
NA,html-keyboard-response,37,135700,0.0-10.0-0.12,"""event"",""trial"",""time""
""fullscreenenter"",""0"",""1769""
","
","
","""event"",""trial"",""time""
""fullscreenenter"",""0"",""1769""
","
",null,"<div style=""font-size:60px;"">+</div>",NA,null,fixation,2020-06-10T18:24:39Z,NA,NA,NA,NA,NA,sub30
NA,mars-trial,38,149382,0.0-10.0-1.12,"""event"",""trial"",""time""
""fullscreenenter"",""0"",""1769""
","
","
","""event"",""trial"",""time""
""fullscreenenter"",""0"",""1769""
","
",13075.290000007953,<img style='border: 4px solid darkgrey;' src='img/tf1_13_M_ss3.jpeg'></img>,0,NA,exp,NA,2,<img src='img/tf1_13_T1_ss3_md.jpeg'></img>,0,FALSE,NA,sub30
NA,html-keyboard-response,39,149885,0.0-10.0-0.13,"""event"",""trial"",""time""
""fullscreenenter"",""0"",""1769""
","
","
","""event"",""trial"",""time""
""fullscreenenter"",""0"",""1769""
","
",null,"<div style=""font-size:60px;"">+</div>",NA,null,fixation,2020-06-10T18:24:53Z,NA,NA,NA,NA,NA,sub30
NA,mars-trial,40,165611,0.0-10.0-1.13,"""event"",""trial"",""time""
""fullscreenenter"",""0"",""1769""
","
","
","""event"",""trial"",""time""
""fullscreenenter"",""0"",""1769""
","
",15115.349999978207,<img style='border: 4px solid darkgrey;' src='img/tf1_14_M_ss1.jpeg'></img>,2,NA,exp,NA,0,<img src='img/tf1_14_T1_ss1_md.jpeg'></img>,0,TRUE,NA,sub30
NA,html-keyboard-response,41,166113,0.0-10.0-0.14,"""event"",""trial"",""time""
""fullscreenenter"",""0"",""1769""
","
","
","""event"",""trial"",""time""
""fullscreenenter"",""0"",""1769""
","
",null,"<div style=""font-size:60px;"">+</div>",NA,null,fixation,2020-06-10T18:25:09Z,NA,NA,NA,NA,NA,sub30
NA,mars-trial,42,178848,0.0-10.0-1.14,"""event"",""trial"",""time""
""fullscreenenter"",""0"",""1769""
","
","
","""event"",""trial"",""time""
""fullscreenenter"",""0"",""1769""
","
",12129.229999991367,<img style='border: 4px solid darkgrey;' src='img/tf1_15_M_ss2.jpeg'></img>,1,NA,exp,NA,1,<img src='img/tf1_15_T1_ss2_md.jpeg'></img>,0,FALSE,NA,sub30
NA,html-keyboard-response,43,179351,0.0-10.0-0.15,"""event"",""trial"",""time""
""fullscreenenter"",""0"",""1769""
","
","
","""event"",""trial"",""time""
""fullscreenenter"",""0"",""1769""
","
",null,"<div style=""font-size:60px;"">+</div>",NA,null,fixation,2020-06-10T18:25:23Z,NA,NA,NA,NA,NA,sub30
NA,mars-trial,44,186835,0.0-10.0-1.15,"""event"",""trial"",""time""
""fullscreenenter"",""0"",""1769""
","
","
","""event"",""trial"",""time""
""fullscreenenter"",""0"",""1769""
","
",6876.829999993788,<img style='border: 4px solid darkgrey;' src='img/tf1_16_M_ss3.jpeg'></img>,3,NA,exp,NA,0,<img src='img/tf1_16_T1_ss3_md.jpeg'></img>,0,TRUE,NA,sub30
NA,html-keyboard-response,45,187340,0.0-10.0-0.16,"""event"",""trial"",""time""
""fullscreenenter"",""0"",""1769""
","
","
","""event"",""trial"",""time""
""fullscreenenter"",""0"",""1769""
","
",null,"<div style=""font-size:60px;"">+</div>",NA,null,fixation,2020-06-10T18:25:31Z,NA,NA,NA,NA,NA,sub30
NA,mars-trial,46,199411,0.0-10.0-1.16,"""event"",""trial"",""time""
""fullscreenenter"",""0"",""1769""
","
","
","""event"",""trial"",""time""
""fullscreenenter"",""0"",""1769""
","
",11463.724999979604,<img style='border: 4px solid darkgrey;' src='img/tf1_17_M_ss1.jpeg'></img>,1,NA,exp,NA,3,<img src='img/tf1_17_T1_ss1_md.jpeg'></img>,0,FALSE,NA,sub30
NA,html-keyboard-response,47,199913,0.0-10.0-0.17,"""event"",""trial"",""time""
""fullscreenenter"",""0"",""1769""
","
","
","""event"",""trial"",""time""
""fullscreenenter"",""0"",""1769""
","
",null,"<div style=""font-size:60px;"">+</div>",NA,null,fixation,2020-06-10T18:25:43Z,NA,NA,NA,NA,NA,sub30
NA,mars-trial,48,210728,0.0-10.0-1.17,"""event"",""trial"",""time""
""fullscreenenter"",""0"",""1769""
","
","
","""event"",""trial"",""time""
""fullscreenenter"",""0"",""1769""
","
",10209.340000001248,<img style='border: 4px solid darkgrey;' src='img/tf1_18_M_ss2.jpeg'></img>,1,NA,exp,NA,3,<img src='img/tf1_18_T1_ss2_md.jpeg'></img>,0,FALSE,NA,sub30
NA,html-keyboard-response,49,211231,0.0-10.0-0.18,"""event"",""trial"",""time""
""fullscreenenter"",""0"",""1769""
","
","
","""event"",""trial"",""time""
""fullscreenenter"",""0"",""1769""
","
",null,"<div style=""font-size:60px;"">+</div>",NA,null,fixation,2020-06-10T18:25:54Z,NA,NA,NA,NA,NA,sub30
NA,mars-trial,50,215751,0.0-10.0-1.18,"""event"",""trial"",""time""
""fullscreenenter"",""0"",""1769""
","
","
","""event"",""trial"",""time""
""fullscreenenter"",""0"",""1769""
","
",3911.790000012843,<img style='border: 4px solid darkgrey;' src='img/tf1_19_M_ss3.jpeg'></img>,1,NA,exp,NA,3,<img src='img/tf1_19_T1_ss3_md.jpeg'></img>,0,FALSE,NA,sub30
NA,html-keyboard-response,51,216253,0.0-10.0-0.19,"""event"",""trial"",""time""
""fullscreenenter"",""0"",""1769""
","
","
","""event"",""trial"",""time""
""fullscreenenter"",""0"",""1769""
","
",null,"<div style=""font-size:60px;"">+</div>",NA,null,fixation,2020-06-10T18:25:59Z,NA,NA,NA,NA,NA,sub30
NA,mars-trial,52,228013,0.0-10.0-1.19,"""event"",""trial"",""time""
""fullscreenenter"",""0"",""1769""
","
","
","""event"",""trial"",""time""
""fullscreenenter"",""0"",""1769""
","
",11153.135000000475,<img style='border: 4px solid darkgrey;' src='img/tf1_20_M_ss1.jpeg'></img>,1,NA,exp,NA,2,<img src='img/tf1_20_T1_ss1_md.jpeg'></img>,0,FALSE,NA,sub30
NA,html-keyboard-response,53,228516,0.0-10.0-0.20,"""event"",""trial"",""time""
""fullscreenenter"",""0"",""1769""
","
","
","""event"",""trial"",""time""
""fullscreenenter"",""0"",""1769""
","
",null,"<div style=""font-size:60px;"">+</div>",NA,null,fixation,2020-06-10T18:26:12Z,NA,NA,NA,NA,NA,sub30
NA,mars-trial,54,239057,0.0-10.0-1.20,"""event"",""trial"",""time""
""fullscreenenter"",""0"",""1769""
","
","
","""event"",""trial"",""time""
""fullscreenenter"",""0"",""1769""
","
",9933.805000007851,<img style='border: 4px solid darkgrey;' src='img/tf1_21_M_ss2.jpeg'></img>,2,NA,exp,NA,1,<img src='img/tf1_21_T1_ss2_md.jpeg'></img>,0,FALSE,NA,sub30
NA,html-keyboard-response,55,239561,0.0-10.0-0.21,"""event"",""trial"",""time""
""fullscreenenter"",""0"",""1769""
","
","
","""event"",""trial"",""time""
""fullscreenenter"",""0"",""1769""
","
",null,"<div style=""font-size:60px;"">+</div>",NA,null,fixation,2020-06-10T18:26:23Z,NA,NA,NA,NA,NA,sub30
NA,mars-trial,56,254085,0.0-10.0-1.21,"""event"",""trial"",""time""
""fullscreenenter"",""0"",""1769""
","
","
","""event"",""trial"",""time""
""fullscreenenter"",""0"",""1769""
","
",13916.934999986552,<img style='border: 4px solid darkgrey;' src='img/tf1_22_M_ss3.jpeg'></img>,2,NA,exp,NA,0,<img src='img/tf1_22_T1_ss3_md.jpeg'></img>,0,TRUE,NA,sub30
NA,html-keyboard-response,57,254588,0.0-10.0-0.22,"""event"",""trial"",""time""
""fullscreenenter"",""0"",""1769""
","
","
","""event"",""trial"",""time""
""fullscreenenter"",""0"",""1769""
","
",null,"<div style=""font-size:60px;"">+</div>",NA,null,fixation,2020-06-10T18:26:38Z,NA,NA,NA,NA,NA,sub30
NA,mars-trial,58,263734,0.0-10.0-1.22,"""event"",""trial"",""time""
""fullscreenenter"",""0"",""1769""
","
","
","""event"",""trial"",""time""
""fullscreenenter"",""0"",""1769""
","
",8533.574999979464,<img style='border: 4px solid darkgrey;' src='img/tf1_23_M_ss1.jpeg'></img>,1,NA,exp,NA,0,<img src='img/tf1_23_T1_ss1_md.jpeg'></img>,0,TRUE,NA,sub30
NA,html-keyboard-response,59,264236,0.0-10.0-0.23,"""event"",""trial"",""time""
""fullscreenenter"",""0"",""1769""
","
","
","""event"",""trial"",""time""
""fullscreenenter"",""0"",""1769""
","
",null,"<div style=""font-size:60px;"">+</div>",NA,null,fixation,2020-06-10T18:26:47Z,NA,NA,NA,NA,NA,sub30
NA,mars-trial,60,279581,0.0-10.0-1.23,"""event"",""trial"",""time""
""fullscreenenter"",""0"",""1769""
","
","
","""event"",""trial"",""time""
""fullscreenenter"",""0"",""1769""
","
",14735.639999998966,<img style='border: 4px solid darkgrey;' src='img/tf1_24_M_ss2.jpeg'></img>,1,NA,exp,NA,1,<img src='img/tf1_24_T1_ss2_md.jpeg'></img>,0,FALSE,NA,sub30
NA,html-keyboard-response,61,280083,0.0-10.0-0.24,"""event"",""trial"",""time""
""fullscreenenter"",""0"",""1769""
","
","
","""event"",""trial"",""time""
""fullscreenenter"",""0"",""1769""
","
",null,"<div style=""font-size:60px;"">+</div>",NA,null,fixation,2020-06-10T18:27:03Z,NA,NA,NA,NA,NA,sub30
NA,mars-trial,62,286813,0.0-10.0-1.24,"""event"",""trial"",""time""
""fullscreenenter"",""0"",""1769""
","
","
","""event"",""trial"",""time""
""fullscreenenter"",""0"",""1769""
","
",6118.619999993825,<img style='border: 4px solid darkgrey;' src='img/tf1_25_M_ss3.jpeg'></img>,0,NA,exp,NA,0,<img src='img/tf1_25_T1_ss3_md.jpeg'></img>,0,TRUE,NA,sub30
NA,html-keyboard-response,63,287314,0.0-10.0-0.25,"""event"",""trial"",""time""
""fullscreenenter"",""0"",""1769""
","
","
","""event"",""trial"",""time""
""fullscreenenter"",""0"",""1769""
","
",null,"<div style=""font-size:60px;"">+</div>",NA,null,fixation,2020-06-10T18:27:11Z,NA,NA,NA,NA,NA,sub30
NA,mars-trial,64,305379,0.0-10.0-1.25,"""event"",""trial"",""time""
""fullscreenenter"",""0"",""1769""
","
","
","""event"",""trial"",""time""
""fullscreenenter"",""0"",""1769""
","
",17458.855000004405,<img style='border: 4px solid darkgrey;' src='img/tf1_26_M_ss1.jpeg'></img>,1,NA,exp,NA,0,<img src='img/tf1_26_T1_ss1_md.jpeg'></img>,0,TRUE,NA,sub30
NA,html-keyboard-response,65,305881,0.0-10.0-0.26,"""event"",""trial"",""time""
""fullscreenenter"",""0"",""1769""
","
","
","""event"",""trial"",""time""
""fullscreenenter"",""0"",""1769""
","
",null,"<div style=""font-size:60px;"">+</div>",NA,null,fixation,2020-06-10T18:27:29Z,NA,NA,NA,NA,NA,sub30
NA,mars-trial,66,317436,0.0-10.0-1.26,"""event"",""trial"",""time""
""fullscreenenter"",""0"",""1769""
","
","
","""event"",""trial"",""time""
""fullscreenenter"",""0"",""1769""
","
",10948.954999999842,<img style='border: 4px solid darkgrey;' src='img/tf1_27_M_ss2.jpeg'></img>,3,NA,exp,NA,2,<img src='img/tf1_27_T1_ss2_md.jpeg'></img>,0,FALSE,NA,sub30
NA,html-keyboard-response,67,317938,0.0-10.0-0.27,"""event"",""trial"",""time""
""fullscreenenter"",""0"",""1769""
","
","
","""event"",""trial"",""time""
""fullscreenenter"",""0"",""1769""
","
",null,"<div style=""font-size:60px;"">+</div>",NA,null,fixation,2020-06-10T18:27:41Z,NA,NA,NA,NA,NA,sub30
NA,mars-trial,68,333097,0.0-10.0-1.27,"""event"",""trial"",""time""
""fullscreenenter"",""0"",""1769""
","
","
","""event"",""trial"",""time""
""fullscreenenter"",""0"",""1769""
","
",14552.50999997952,<img style='border: 4px solid darkgrey;' src='img/tf1_28_M_ss3.jpeg'></img>,3,NA,exp,NA,1,<img src='img/tf1_28_T1_ss3_md.jpeg'></img>,0,FALSE,NA,sub30
NA,html-keyboard-response,69,333600,0.0-10.0-0.28,"""event"",""trial"",""time""
""fullscreenenter"",""0"",""1769""
","
","
","""event"",""trial"",""time""
""fullscreenenter"",""0"",""1769""
","
",null,"<div style=""font-size:60px;"">+</div>",NA,null,fixation,2020-06-10T18:27:57Z,NA,NA,NA,NA,NA,sub30
NA,mars-trial,70,351084,0.0-10.0-1.28,"""event"",""trial"",""time""
""fullscreenenter"",""0"",""1769""
","
","
","""event"",""trial"",""time""
""fullscreenenter"",""0"",""1769""
","
",16874.540000018897,<img style='border: 4px solid darkgrey;' src='img/tf1_29_M_ss1.jpeg'></img>,1,NA,exp,NA,0,<img src='img/tf1_29_T1_ss1_md.jpeg'></img>,0,TRUE,NA,sub30
NA,html-keyboard-response,71,351587,0.0-10.0-0.29,"""event"",""trial"",""time""
""fullscreenenter"",""0"",""1769""
","
","
","""event"",""trial"",""time""
""fullscreenenter"",""0"",""1769""
","
",null,"<div style=""font-size:60px;"">+</div>",NA,null,fixation,2020-06-10T18:28:15Z,NA,NA,NA,NA,NA,sub30
NA,mars-trial,72,360409,0.0-10.0-1.29,"""event"",""trial"",""time""
""fullscreenenter"",""0"",""1769""
","
","
","""event"",""trial"",""time""
""fullscreenenter"",""0"",""1769""
","
",8214.975000009872,<img style='border: 4px solid darkgrey;' src='img/tf1_30_M_ss2.jpeg'></img>,1,NA,exp,NA,2,<img src='img/tf1_30_T1_ss2_md.jpeg'></img>,0,FALSE,NA,sub30
NA,html-keyboard-response,73,360912,0.0-10.0-0.30,"""event"",""trial"",""time""
""fullscreenenter"",""0"",""1769""
","
","
","""event"",""trial"",""time""
""fullscreenenter"",""0"",""1769""
","
",null,"<div style=""font-size:60px;"">+</div>",NA,null,fixation,2020-06-10T18:28:24Z,NA,NA,NA,NA,NA,sub30
NA,mars-trial,74,374200,0.0-10.0-1.30,"""event"",""trial"",""time""
""fullscreenenter"",""0"",""1769""
","
","
","""event"",""trial"",""time""
""fullscreenenter"",""0"",""1769""
","
",12679.470000002766,<img style='border: 4px solid darkgrey;' src='img/tf1_31_M_ss3.jpeg'></img>,2,NA,exp,NA,1,<img src='img/tf1_31_T1_ss3_md.jpeg'></img>,0,FALSE,NA,sub30
NA,html-keyboard-response,75,374703,0.0-10.0-0.31,"""event"",""trial"",""time""
""fullscreenenter"",""0"",""1769""
","
","
","""event"",""trial"",""time""
""fullscreenenter"",""0"",""1769""
","
",null,"<div style=""font-size:60px;"">+</div>",NA,null,fixation,2020-06-10T18:28:38Z,NA,NA,NA,NA,NA,sub30
NA,mars-trial,76,380565,0.0-10.0-1.31,"""event"",""trial"",""time""
""fullscreenenter"",""0"",""1769""
","
","
","""event"",""trial"",""time""
""fullscreenenter"",""0"",""1769""
","
",5253.0100000149105,<img style='border: 4px solid darkgrey;' src='img/tf1_32_M_ss1.jpeg'></img>,2,NA,exp,NA,0,<img src='img/tf1_32_T1_ss1_md.jpeg'></img>,0,TRUE,NA,sub30
NA,html-keyboard-response,77,381067,0.0-10.0-0.32,"""event"",""trial"",""time""
""fullscreenenter"",""0"",""1769""
","
","
","""event"",""trial"",""time""
""fullscreenenter"",""0"",""1769""
","
",null,"<div style=""font-size:60px;"">+</div>",NA,null,fixation,2020-06-10T18:28:44Z,NA,NA,NA,NA,NA,sub30
NA,mars-trial,78,387101,0.0-10.0-1.32,"""event"",""trial"",""time""
""fullscreenenter"",""0"",""1769""
","
","
","""event"",""trial"",""time""
""fullscreenenter"",""0"",""1769""
","
",5425.835000001825,<img style='border: 4px solid darkgrey;' src='img/tf1_33_M_ss2.jpeg'></img>,0,NA,exp,NA,3,<img src='img/tf1_33_T1_ss2_md.jpeg'></img>,0,FALSE,NA,sub30
NA,html-keyboard-response,79,387604,0.0-10.0-0.33,"""event"",""trial"",""time""
""fullscreenenter"",""0"",""1769""
","
","
","""event"",""trial"",""time""
""fullscreenenter"",""0"",""1769""
","
",null,"<div style=""font-size:60px;"">+</div>",NA,null,fixation,2020-06-10T18:28:51Z,NA,NA,NA,NA,NA,sub30
NA,mars-trial,80,400213,0.0-10.0-1.33,"""event"",""trial"",""time""
""fullscreenenter"",""0"",""1769""
","
","
","""event"",""trial"",""time""
""fullscreenenter"",""0"",""1769""
","
",11998.70500000543,<img style='border: 4px solid darkgrey;' src='img/tf1_34_M_ss3.jpeg'></img>,3,NA,exp,NA,2,<img src='img/tf1_34_T1_ss3_md.jpeg'></img>,0,FALSE,NA,sub30
NA,html-keyboard-response,81,400718,0.0-10.0-0.34,"""event"",""trial"",""time""
""fullscreenenter"",""0"",""1769""
","
","
","""event"",""trial"",""time""
""fullscreenenter"",""0"",""1769""
","
",null,"<div style=""font-size:60px;"">+</div>",NA,null,fixation,2020-06-10T18:29:04Z,NA,NA,NA,NA,NA,sub30
NA,mars-trial,82,411461,0.0-10.0-1.34,"""event"",""trial"",""time""
""fullscreenenter"",""0"",""1769""
","
","
","""event"",""trial"",""time""
""fullscreenenter"",""0"",""1769""
","
",10137.489999993704,<img style='border: 4px solid darkgrey;' src='img/tf1_35_M_ss1.jpeg'></img>,3,NA,exp,NA,0,<img src='img/tf1_35_T1_ss1_md.jpeg'></img>,0,TRUE,NA,sub30
NA,html-keyboard-response,83,411963,0.0-10.0-0.35,"""event"",""trial"",""time""
""fullscreenenter"",""0"",""1769""
","
","
","""event"",""trial"",""time""
""fullscreenenter"",""0"",""1769""
","
",null,"<div style=""font-size:60px;"">+</div>",NA,null,fixation,2020-06-10T18:29:15Z,NA,NA,NA,NA,NA,sub30
NA,mars-trial,84,416191,0.0-10.0-1.35,"""event"",""trial"",""time""
""fullscreenenter"",""0"",""1769""
","
","
","""event"",""trial"",""time""
""fullscreenenter"",""0"",""1769""
","
",3621.2049999739975,<img style='border: 4px solid darkgrey;' src='img/tf1_36_M_ss2.jpeg'></img>,2,NA,exp,NA,0,<img src='img/tf1_36_T1_ss2_md.jpeg'></img>,0,TRUE,NA,sub30
NA,html-keyboard-response,85,416694,0.0-10.0-0.36,"""event"",""trial"",""time""
""fullscreenenter"",""0"",""1769""
","
","
","""event"",""trial"",""time""
""fullscreenenter"",""0"",""1769""
","
",null,"<div style=""font-size:60px;"">+</div>",NA,null,fixation,2020-06-10T18:29:20Z,NA,NA,NA,NA,NA,sub30
NA,mars-trial,86,428626,0.0-10.0-1.36,"""event"",""trial"",""time""
""fullscreenenter"",""0"",""1769""
","
","
","""event"",""trial"",""time""
""fullscreenenter"",""0"",""1769""
","
",11325.349999999162,<img style='border: 4px solid darkgrey;' src='img/tf1_37_M_ss3.jpeg'></img>,0,NA,exp,NA,2,<img src='img/tf1_37_T1_ss3_md.jpeg'></img>,0,FALSE,NA,sub30
NA,html-keyboard-response,87,429128,0.0-10.0-0.37,"""event"",""trial"",""time""
""fullscreenenter"",""0"",""1769""
","
","
","""event"",""trial"",""time""
""fullscreenenter"",""0"",""1769""
","
",null,"<div style=""font-size:60px;"">+</div>",NA,null,fixation,2020-06-10T18:29:32Z,NA,NA,NA,NA,NA,sub30
NA,mars-trial,88,434124,0.0-10.0-1.37,"""event"",""trial"",""time""
""fullscreenenter"",""0"",""1769""
","
","
","""event"",""trial"",""time""
""fullscreenenter"",""0"",""1769""
","
",4388.28499999363,<img style='border: 4px solid darkgrey;' src='img/tf1_38_M_ss1.jpeg'></img>,3,NA,exp,NA,0,<img src='img/tf1_38_T1_ss1_md.jpeg'></img>,0,TRUE,NA,sub30
NA,html-keyboard-response,89,434627,0.0-10.0-0.38,"""event"",""trial"",""time""
""fullscreenenter"",""0"",""1769""
","
","
","""event"",""trial"",""time""
""fullscreenenter"",""0"",""1769""
","
",null,"<div style=""font-size:60px;"">+</div>",NA,null,fixation,2020-06-10T18:29:38Z,NA,NA,NA,NA,NA,sub30
NA,mars-trial,90,441119,0.0-10.0-1.38,"""event"",""trial"",""time""
""fullscreenenter"",""0"",""1769""
","
","
","""event"",""trial"",""time""
""fullscreenenter"",""0"",""1769""
","
",5885.434999974677,<img style='border: 4px solid darkgrey;' src='img/tf1_39_M_ss2.jpeg'></img>,3,NA,exp,NA,0,<img src='img/tf1_39_T1_ss2_md.jpeg'></img>,0,TRUE,NA,sub30
NA,html-keyboard-response,91,441622,0.0-10.0-0.39,"""event"",""trial"",""time""
""fullscreenenter"",""0"",""1769""
","
","
","""event"",""trial"",""time""
""fullscreenenter"",""0"",""1769""
","
",null,"<div style=""font-size:60px;"">+</div>",NA,null,fixation,2020-06-10T18:29:45Z,NA,NA,NA,NA,NA,sub30
NA,mars-trial,92,446378,0.0-10.0-1.39,"""event"",""trial"",""time""
""fullscreenenter"",""0"",""1769""
","
","
","""event"",""trial"",""time""
""fullscreenenter"",""0"",""1769""
","
",4149.4499999971595,<img style='border: 4px solid darkgrey;' src='img/tf1_40_M_ss3.jpeg'></img>,3,NA,exp,NA,3,<img src='img/tf1_40_T1_ss3_md.jpeg'></img>,0,FALSE,NA,sub30
NA,html-keyboard-response,93,446880,0.0-10.0-0.40,"""event"",""trial"",""time""
""fullscreenenter"",""0"",""1769""
","
","
","""event"",""trial"",""time""
""fullscreenenter"",""0"",""1769""
","
",null,"<div style=""font-size:60px;"">+</div>",NA,null,fixation,2020-06-10T18:29:50Z,NA,NA,NA,NA,NA,sub30
NA,mars-trial,94,451561,0.0-10.0-1.40,"""event"",""trial"",""time""
""fullscreenenter"",""0"",""1769""
","
","
","""event"",""trial"",""time""
""fullscreenenter"",""0"",""1769""
","
",4077.1499999973457,<img style='border: 4px solid darkgrey;' src='img/tf1_41_M_ss1.jpeg'></img>,2,NA,exp,NA,0,<img src='img/tf1_41_T1_ss1_md.jpeg'></img>,0,TRUE,NA,sub30
NA,html-keyboard-response,95,452063,0.0-10.0-0.41,"""event"",""trial"",""time""
""fullscreenenter"",""0"",""1769""
","
","
","""event"",""trial"",""time""
""fullscreenenter"",""0"",""1769""
","
",null,"<div style=""font-size:60px;"">+</div>",NA,null,fixation,2020-06-10T18:29:55Z,NA,NA,NA,NA,NA,sub30
NA,mars-trial,96,456921,0.0-10.0-1.41,"""event"",""trial"",""time""
""fullscreenenter"",""0"",""1769""
","
","
","""event"",""trial"",""time""
""fullscreenenter"",""0"",""1769""
","
",4249.465000000782,<img style='border: 4px solid darkgrey;' src='img/tf1_42_M_ss2.jpeg'></img>,3,NA,exp,NA,2,<img src='img/tf1_42_T1_ss2_md.jpeg'></img>,0,FALSE,NA,sub30
NA,html-keyboard-response,97,457423,0.0-10.0-0.42,"""event"",""trial"",""time""
""fullscreenenter"",""0"",""1769""
","
","
","""event"",""trial"",""time""
""fullscreenenter"",""0"",""1769""
","
",null,"<div style=""font-size:60px;"">+</div>",NA,null,fixation,2020-06-10T18:30:01Z,NA,NA,NA,NA,NA,sub30
NA,mars-trial,98,468100,0.0-10.0-1.42,"""event"",""trial"",""time""
""fullscreenenter"",""0"",""1769""
","
","
","""event"",""trial"",""time""
""fullscreenenter"",""0"",""1769""
","
",10062.769999989541,<img style='border: 4px solid darkgrey;' src='img/tf1_43_M_ss3.jpeg'></img>,3,NA,exp,NA,0,<img src='img/tf1_43_T1_ss3_md.jpeg'></img>,0,TRUE,NA,sub30
NA,html-keyboard-response,99,468603,0.0-10.0-0.43,"""event"",""trial"",""time""
""fullscreenenter"",""0"",""1769""
","
","
","""event"",""trial"",""time""
""fullscreenenter"",""0"",""1769""
","
",null,"<div style=""font-size:60px;"">+</div>",NA,null,fixation,2020-06-10T18:30:12Z,NA,NA,NA,NA,NA,sub30
NA,mars-trial,100,476874,0.0-10.0-1.43,"""event"",""trial"",""time""
""fullscreenenter"",""0"",""1769""
","
","
","""event"",""trial"",""time""
""fullscreenenter"",""0"",""1769""
","
",7665.039999992587,<img style='border: 4px solid darkgrey;' src='img/tf1_44_M_ss1.jpeg'></img>,2,NA,exp,NA,3,<img src='img/tf1_44_T1_ss1_md.jpeg'></img>,0,FALSE,NA,sub30
NA,html-keyboard-response,101,477377,0.0-10.0-0.44,"""event"",""trial"",""time""
""fullscreenenter"",""0"",""1769""
","
","
","""event"",""trial"",""time""
""fullscreenenter"",""0"",""1769""
","
",null,"<div style=""font-size:60px;"">+</div>",NA,null,fixation,2020-06-10T18:30:21Z,NA,NA,NA,NA,NA,sub30
NA,mars-trial,102,487212,0.0-10.0-1.44,"""event"",""trial"",""time""
""fullscreenenter"",""0"",""1769""
","
","
","""event"",""trial"",""time""
""fullscreenenter"",""0"",""1769""
","
",9227.27499998291,<img style='border: 4px solid darkgrey;' src='img/tf1_45_M_ss2.jpeg'></img>,1,NA,exp,NA,0,<img src='img/tf1_45_T1_ss2_md.jpeg'></img>,0,TRUE,NA,sub30
NA,html-keyboard-response,103,487714,0.0-10.0-0.45,"""event"",""trial"",""time""
""fullscreenenter"",""0"",""1769""
","
","
","""event"",""trial"",""time""
""fullscreenenter"",""0"",""1769""
","
",null,"<div style=""font-size:60px;"">+</div>",NA,null,fixation,2020-06-10T18:30:31Z,NA,NA,NA,NA,NA,sub30
NA,mars-trial,104,494464,0.0-10.0-1.45,"""event"",""trial"",""time""
""fullscreenenter"",""0"",""1769""
","
","
","""event"",""trial"",""time""
""fullscreenenter"",""0"",""1769""
","
",6142.655000003288,<img style='border: 4px solid darkgrey;' src='img/tf1_46_M_ss3.jpeg'></img>,3,NA,exp,NA,2,<img src='img/tf1_46_T1_ss3_md.jpeg'></img>,0,FALSE,NA,sub30
NA,html-keyboard-response,105,494966,0.0-10.0-0.46,"""event"",""trial"",""time""
""fullscreenenter"",""0"",""1769""
","
","
","""event"",""trial"",""time""
""fullscreenenter"",""0"",""1769""
","
",null,"<div style=""font-size:60px;"">+</div>",NA,null,fixation,2020-06-10T18:30:38Z,NA,NA,NA,NA,NA,sub30
NA,mars-trial,106,508040,0.0-10.0-1.46,"""event"",""trial"",""time""
""fullscreenenter"",""0"",""1769""
","
","
","""event"",""trial"",""time""
""fullscreenenter"",""0"",""1769""
","
",12466.899999999441,<img style='border: 4px solid darkgrey;' src='img/tf1_47_M_ss1.jpeg'></img>,1,NA,exp,NA,2,<img src='img/tf1_47_T1_ss1_md.jpeg'></img>,0,FALSE,NA,sub30
NA,html-keyboard-response,107,508541,0.0-10.0-0.47,"""event"",""trial"",""time""
""fullscreenenter"",""0"",""1769""
","
","
","""event"",""trial"",""time""
""fullscreenenter"",""0"",""1769""
","
",null,"<div style=""font-size:60px;"">+</div>",NA,null,fixation,2020-06-10T18:30:52Z,NA,NA,NA,NA,NA,sub30
NA,mars-trial,108,514636,0.0-10.0-1.47,"""event"",""trial"",""time""
""fullscreenenter"",""0"",""1769""
","
","
","""event"",""trial"",""time""
""fullscreenenter"",""0"",""1769""
","
",5488.040000025649,<img style='border: 4px solid darkgrey;' src='img/tf1_48_M_ss2.jpeg'></img>,3,NA,exp,NA,0,<img src='img/tf1_48_T1_ss2_md.jpeg'></img>,0,TRUE,NA,sub30
NA,html-keyboard-response,109,515139,0.0-10.0-0.48,"""event"",""trial"",""time""
""fullscreenenter"",""0"",""1769""
","
","
","""event"",""trial"",""time""
""fullscreenenter"",""0"",""1769""
","
",null,"<div style=""font-size:60px;"">+</div>",NA,null,fixation,2020-06-10T18:30:58Z,NA,NA,NA,NA,NA,sub30
NA,mars-trial,110,521958,0.0-10.0-1.48,"""event"",""trial"",""time""
""fullscreenenter"",""0"",""1769""
","
","
","""event"",""trial"",""time""
""fullscreenenter"",""0"",""1769""
","
",6210.690000007162,<img style='border: 4px solid darkgrey;' src='img/tf1_49_M_ss3.jpeg'></img>,1,NA,exp,NA,0,<img src='img/tf1_49_T1_ss3_md.jpeg'></img>,0,TRUE,NA,sub30
NA,html-keyboard-response,111,522467,0.0-10.0-0.49,"""event"",""trial"",""time""
""fullscreenenter"",""0"",""1769""
","
","
","""event"",""trial"",""time""
""fullscreenenter"",""0"",""1769""
","
",null,"<div style=""font-size:60px;"">+</div>",NA,null,fixation,2020-06-10T18:31:06Z,NA,NA,NA,NA,NA,sub30
NA,mars-trial,112,527177,0.0-10.0-1.49,"""event"",""trial"",""time""
""fullscreenenter"",""0"",""1769""
","
","
","""event"",""trial"",""time""
""fullscreenenter"",""0"",""1769""
","
",4104.005000001052,<img style='border: 4px solid darkgrey;' src='img/tf1_50_M_ss1.jpeg'></img>,3,NA,exp,NA,0,<img src='img/tf1_50_T1_ss1_md.jpeg'></img>,0,TRUE,NA,sub30
NA,html-keyboard-response,113,527680,0.0-10.0-0.50,"""event"",""trial"",""time""
""fullscreenenter"",""0"",""1769""
","
","
","""event"",""trial"",""time""
""fullscreenenter"",""0"",""1769""
","
",null,"<div style=""font-size:60px;"">+</div>",NA,null,fixation,2020-06-10T18:31:11Z,NA,NA,NA,NA,NA,sub30
NA,mars-trial,114,529822,0.0-10.0-1.50,"""event"",""trial"",""time""
""fullscreenenter"",""0"",""1769""
","
","
","""event"",""trial"",""time""
""fullscreenenter"",""0"",""1769""
","
",1534.6750000026077,<img style='border: 4px solid darkgrey;' src='img/tf1_51_M_ss2.jpeg'></img>,2,NA,exp,NA,0,<img src='img/tf1_51_T1_ss2_md.jpeg'></img>,0,TRUE,NA,sub30
NA,html-keyboard-response,115,530324,0.0-10.0-0.51,"""event"",""trial"",""time""
""fullscreenenter"",""0"",""1769""
","
","
","""event"",""trial"",""time""
""fullscreenenter"",""0"",""1769""
","
",null,"<div style=""font-size:60px;"">+</div>",NA,null,fixation,2020-06-10T18:31:14Z,NA,NA,NA,NA,NA,sub30
NA,mars-trial,116,533522,0.0-10.0-1.51,"""event"",""trial"",""time""
""fullscreenenter"",""0"",""1769""
","
","
","""event"",""trial"",""time""
""fullscreenenter"",""0"",""1769""
","
",NA,NA,NA,NA,exp,NA,NA,<img src='img/tf1_52_T1_ss3_md.jpeg'></img>,0,FALSE,NA,sub30
NA,html-keyboard-response,117,534024,0.0-10.0-0.52,"""event"",""trial"",""time""
""fullscreenenter"",""0"",""1769""
","
","
","""event"",""trial"",""time""
""fullscreenenter"",""0"",""1769""
","
",null,"<div style=""font-size:60px;"">+</div>",NA,null,fixation,2020-06-10T18:31:17Z,NA,NA,NA,NA,NA,sub30
NA,audio-button-response,118,537231,0.0-11.0,"""event"",""trial"",""time""
""fullscreenenter"",""0"",""1769""
","
","
","""event"",""trial"",""time""
""fullscreenenter"",""0"",""1769""
","
",3104.440000024624,audio/mars_instructions_slide5.wav,0,NA,NA,NA,NA,NA,NA,NA,NA,sub30
