success,trial_type,trial_index,time_elapsed,internal_node_id,interactions,blur_events,focus_events,fullscreenenter_events,fullscreenexit_events,rt,stimulus,button_pressed,key_press,part,timestamp,unshuffled_button,correct_response,correct_button,correct,value,subject_id
TRUE,fullscreen,0,4698,0.0-0.0,"""event"",""trial"",""time""
""fullscreenenter"",""0"",""3716""
","
","
","""event"",""trial"",""time""
""fullscreenenter"",""0"",""3716""
","
",NA,NA,NA,NA,NA,NA,NA,NA,NA,NA,NA,sub94
NA,pavlovia,1,4704,0.0-1.0,"""event"",""trial"",""time""
""fullscreenenter"",""0"",""3716""
","
","
","""event"",""trial"",""time""
""fullscreenenter"",""0"",""3716""
","
",NA,NA,NA,NA,NA,NA,NA,NA,NA,NA,NA,sub94
NA,html-button-response,2,6581,0.0-2.0,"""event"",""trial"",""time""
""fullscreenenter"",""0"",""3716""
","
","
","""event"",""trial"",""time""
""fullscreenenter"",""0"",""3716""
","
",1876.5349999885075,<p>Welcome! Press START to begin.</p><br>,0,NA,NA,NA,NA,NA,NA,NA,NA,sub94
NA,audio-button-response,3,26350,0.0-3.0,"""event"",""trial"",""time""
""fullscreenenter"",""0"",""3716""
","
","
","""event"",""trial"",""time""
""fullscreenenter"",""0"",""3716""
","
",19766.91999999457,audio/mars_instructions_slide2.wav,0,NA,NA,NA,NA,NA,NA,NA,NA,sub94
NA,audio-button-response,4,41170,0.0-4.0,"""event"",""trial"",""time""
""fullscreenenter"",""0"",""3716""
","
","
","""event"",""trial"",""time""
""fullscreenenter"",""0"",""3716""
","
",14818.939999997383,audio/mars_instructions_slide3.wav,0,NA,NA,NA,NA,NA,NA,NA,NA,sub94
NA,html-keyboard-response,5,41674,0.0-5.0-0.0,"""event"",""trial"",""time""
""fullscreenenter"",""0"",""3716""
","
","
","""event"",""trial"",""time""
""fullscreenenter"",""0"",""3716""
","
",null,"<div style=""font-size:60px;"">+</div>",NA,null,fixation,2020-07-06T19:29:10Z,NA,NA,NA,NA,NA,sub94
NA,mars-trial,6,51081,0.0-5.0-1.0,"""event"",""trial"",""time""
""fullscreenenter"",""0"",""3716""
","
","
","""event"",""trial"",""time""
""fullscreenenter"",""0"",""3716""
","
",7295.939999981783,<img style='border: 4px solid darkgrey;' src='practice/pt1_M1.png'></img>,3,NA,practice,NA,2,<img src='practice/pt1_T1.png'></img>,0,FALSE,NA,sub94
NA,html-keyboard-response,7,51586,0.0-5.1-0.1,"""event"",""trial"",""time""
""fullscreenenter"",""0"",""3716""
","
","
","""event"",""trial"",""time""
""fullscreenenter"",""0"",""3716""
","
",null,"<div style=""font-size:60px;"">+</div>",NA,null,fixation,2020-07-06T19:29:20Z,NA,NA,NA,NA,NA,sub94
NA,mars-trial,8,58028,0.0-5.1-1.1,"""event"",""trial"",""time""
""fullscreenenter"",""0"",""3716""
","
","
","""event"",""trial"",""time""
""fullscreenenter"",""0"",""3716""
","
",4332.815000001574,<img style='border: 4px solid darkgrey;' src='practice/pt1_M1.png'></img>,2,NA,practice,NA,0,<img src='practice/pt1_T1.png'></img>,0,TRUE,NA,sub94
NA,html-keyboard-response,9,58530,0.0-6.0-0.0,"""event"",""trial"",""time""
""fullscreenenter"",""0"",""3716""
","
","
","""event"",""trial"",""time""
""fullscreenenter"",""0"",""3716""
","
",null,"<div style=""font-size:60px;"">+</div>",NA,null,fixation,2020-07-06T19:29:27Z,NA,NA,NA,NA,NA,sub94
NA,mars-trial,10,63914,0.0-6.0-1.0,"""event"",""trial"",""time""
""fullscreenenter"",""0"",""3716""
","
","
","""event"",""trial"",""time""
""fullscreenenter"",""0"",""3716""
","
",3274.795000004815,<img style='border: 4px solid darkgrey;' src='practice/pt2_M1.png'></img>,1,NA,practice,NA,0,<img src='practice/pt2_T1.png'></img>,0,TRUE,NA,sub94
NA,html-keyboard-response,11,64417,0.0-7.0-0.0,"""event"",""trial"",""time""
""fullscreenenter"",""0"",""3716""
","
","
","""event"",""trial"",""time""
""fullscreenenter"",""0"",""3716""
","
",null,"<div style=""font-size:60px;"">+</div>",NA,null,fixation,2020-07-06T19:29:33Z,NA,NA,NA,NA,NA,sub94
NA,mars-trial,12,68024,0.0-7.0-1.0,"""event"",""trial"",""time""
""fullscreenenter"",""0"",""3716""
","
","
","""event"",""trial"",""time""
""fullscreenenter"",""0"",""3716""
","
",1497.4100000108592,<img style='border: 4px solid darkgrey;' src='practice/pt3_M1.png'></img>,2,NA,practice,NA,0,<img src='practice/pt3_T1.png'></img>,0,TRUE,NA,sub94
NA,audio-button-response,13,72635,0.0-8.0,"""event"",""trial"",""time""
""fullscreenenter"",""0"",""3716""
","
","
","""event"",""trial"",""time""
""fullscreenenter"",""0"",""3716""
","
",4607.519999990473,audio/mars_instructions_slide4.wav,0,NA,NA,NA,NA,NA,NA,NA,NA,sub94
NA,call-function,14,72637,0.0-9.0,"""event"",""trial"",""time""
""fullscreenenter"",""0"",""3716""
","
","
","""event"",""trial"",""time""
""fullscreenenter"",""0"",""3716""
","
",NA,NA,NA,NA,NA,NA,NA,NA,NA,NA,NA,sub94
NA,html-keyboard-response,15,73138,0.0-10.0-0.0,"""event"",""trial"",""time""
""fullscreenenter"",""0"",""3716""
","
","
","""event"",""trial"",""time""
""fullscreenenter"",""0"",""3716""
","
",null,"<div style=""font-size:60px;"">+</div>",NA,null,fixation,2020-07-06T19:29:42Z,NA,NA,NA,NA,NA,sub94
NA,mars-trial,16,75340,0.0-10.0-1.0,"""event"",""trial"",""time""
""fullscreenenter"",""0"",""3716""
","
","
","""event"",""trial"",""time""
""fullscreenenter"",""0"",""3716""
","
",1596.9200000108685,<img style='border: 4px solid darkgrey;' src='img/tf1_1_M_ss3.jpeg'></img>,2,NA,exp,NA,0,<img src='img/tf1_1_T1_ss3_md.jpeg'></img>,0,TRUE,NA,sub94
NA,html-keyboard-response,17,75842,0.0-10.0-0.1,"""event"",""trial"",""time""
""fullscreenenter"",""0"",""3716""
","
","
","""event"",""trial"",""time""
""fullscreenenter"",""0"",""3716""
","
",null,"<div style=""font-size:60px;"">+</div>",NA,null,fixation,2020-07-06T19:29:44Z,NA,NA,NA,NA,NA,sub94
NA,mars-trial,18,79214,0.0-10.0-1.1,"""event"",""trial"",""time""
""fullscreenenter"",""0"",""3716""
","
","
","""event"",""trial"",""time""
""fullscreenenter"",""0"",""3716""
","
",2764.354999992065,<img style='border: 4px solid darkgrey;' src='img/tf1_2_M_ss1.jpeg'></img>,0,NA,exp,NA,0,<img src='img/tf1_2_T1_ss1_md.jpeg'></img>,0,TRUE,NA,sub94
NA,html-keyboard-response,19,79718,0.0-10.0-0.2,"""event"",""trial"",""time""
""fullscreenenter"",""0"",""3716""
","
","
","""event"",""trial"",""time""
""fullscreenenter"",""0"",""3716""
","
",null,"<div style=""font-size:60px;"">+</div>",NA,null,fixation,2020-07-06T19:29:48Z,NA,NA,NA,NA,NA,sub94
NA,mars-trial,20,83294,0.0-10.0-1.2,"""event"",""trial"",""time""
""fullscreenenter"",""0"",""3716""
","
","
","""event"",""trial"",""time""
""fullscreenenter"",""0"",""3716""
","
",2969.909999985248,<img style='border: 4px solid darkgrey;' src='img/tf1_3_M_ss2.jpeg'></img>,3,NA,exp,NA,2,<img src='img/tf1_3_T1_ss2_md.jpeg'></img>,0,FALSE,NA,sub94
NA,html-keyboard-response,21,83796,0.0-10.0-0.3,"""event"",""trial"",""time""
""fullscreenenter"",""0"",""3716""
","
","
","""event"",""trial"",""time""
""fullscreenenter"",""0"",""3716""
","
",null,"<div style=""font-size:60px;"">+</div>",NA,null,fixation,2020-07-06T19:29:52Z,NA,NA,NA,NA,NA,sub94
NA,mars-trial,22,87480,0.0-10.0-1.3,"""event"",""trial"",""time""
""fullscreenenter"",""0"",""3716""
","
","
","""event"",""trial"",""time""
""fullscreenenter"",""0"",""3716""
","
",3074.28999998956,<img style='border: 4px solid darkgrey;' src='img/tf1_4_M_ss3.jpeg'></img>,1,NA,exp,NA,0,<img src='img/tf1_4_T1_ss3_md.jpeg'></img>,0,TRUE,NA,sub94
NA,html-keyboard-response,23,87984,0.0-10.0-0.4,"""event"",""trial"",""time""
""fullscreenenter"",""0"",""3716""
","
","
","""event"",""trial"",""time""
""fullscreenenter"",""0"",""3716""
","
",null,"<div style=""font-size:60px;"">+</div>",NA,null,fixation,2020-07-06T19:29:56Z,NA,NA,NA,NA,NA,sub94
NA,mars-trial,24,91254,0.0-10.0-1.4,"""event"",""trial"",""time""
""fullscreenenter"",""0"",""3716""
","
","
","""event"",""trial"",""time""
""fullscreenenter"",""0"",""3716""
","
",2663.8550000207033,<img style='border: 4px solid darkgrey;' src='img/tf1_5_M_ss1.jpeg'></img>,0,NA,exp,NA,0,<img src='img/tf1_5_T1_ss1_md.jpeg'></img>,0,TRUE,NA,sub94
NA,html-keyboard-response,25,91756,0.0-10.0-0.5,"""event"",""trial"",""time""
""fullscreenenter"",""0"",""3716""
","
","
","""event"",""trial"",""time""
""fullscreenenter"",""0"",""3716""
","
",null,"<div style=""font-size:60px;"">+</div>",NA,null,fixation,2020-07-06T19:30:00Z,NA,NA,NA,NA,NA,sub94
NA,mars-trial,26,96570,0.0-10.0-1.5,"""event"",""trial"",""time""
""fullscreenenter"",""0"",""3716""
","
","
","""event"",""trial"",""time""
""fullscreenenter"",""0"",""3716""
","
",4207.319999986794,<img style='border: 4px solid darkgrey;' src='img/tf1_6_M_ss2.jpeg'></img>,1,NA,exp,NA,0,<img src='img/tf1_6_T1_ss2_md.jpeg'></img>,0,TRUE,NA,sub94
NA,html-keyboard-response,27,97072,0.0-10.0-0.6,"""event"",""trial"",""time""
""fullscreenenter"",""0"",""3716""
","
","
","""event"",""trial"",""time""
""fullscreenenter"",""0"",""3716""
","
",null,"<div style=""font-size:60px;"">+</div>",NA,null,fixation,2020-07-06T19:30:05Z,NA,NA,NA,NA,NA,sub94
NA,mars-trial,28,101206,0.0-10.0-1.6,"""event"",""trial"",""time""
""fullscreenenter"",""0"",""3716""
","
","
","""event"",""trial"",""time""
""fullscreenenter"",""0"",""3716""
","
",3525.225000019418,<img style='border: 4px solid darkgrey;' src='img/tf1_7_M_ss3.jpeg'></img>,2,NA,exp,NA,2,<img src='img/tf1_7_T1_ss3_md.jpeg'></img>,0,FALSE,NA,sub94
NA,html-keyboard-response,29,101709,0.0-10.0-0.7,"""event"",""trial"",""time""
""fullscreenenter"",""0"",""3716""
","
","
","""event"",""trial"",""time""
""fullscreenenter"",""0"",""3716""
","
",null,"<div style=""font-size:60px;"">+</div>",NA,null,fixation,2020-07-06T19:30:10Z,NA,NA,NA,NA,NA,sub94
NA,mars-trial,30,105224,0.0-10.0-1.7,"""event"",""trial"",""time""
""fullscreenenter"",""0"",""3716""
","
","
","""event"",""trial"",""time""
""fullscreenenter"",""0"",""3716""
","
",2905.9999999881256,<img style='border: 4px solid darkgrey;' src='img/tf1_8_M_ss1.jpeg'></img>,1,NA,exp,NA,2,<img src='img/tf1_8_T1_ss1_md.jpeg'></img>,0,FALSE,NA,sub94
NA,html-keyboard-response,31,105727,0.0-10.0-0.8,"""event"",""trial"",""time""
""fullscreenenter"",""0"",""3716""
","
","
","""event"",""trial"",""time""
""fullscreenenter"",""0"",""3716""
","
",null,"<div style=""font-size:60px;"">+</div>",NA,null,fixation,2020-07-06T19:30:14Z,NA,NA,NA,NA,NA,sub94
NA,mars-trial,32,109779,0.0-10.0-1.8,"""event"",""trial"",""time""
""fullscreenenter"",""0"",""3716""
","
","
","""event"",""trial"",""time""
""fullscreenenter"",""0"",""3716""
","
",3443.8549999904353,<img style='border: 4px solid darkgrey;' src='img/tf1_9_M_ss2.jpeg'></img>,0,NA,exp,NA,0,<img src='img/tf1_9_T1_ss2_md.jpeg'></img>,0,TRUE,NA,sub94
NA,html-keyboard-response,33,110281,0.0-10.0-0.9,"""event"",""trial"",""time""
""fullscreenenter"",""0"",""3716""
","
","
","""event"",""trial"",""time""
""fullscreenenter"",""0"",""3716""
","
",null,"<div style=""font-size:60px;"">+</div>",NA,null,fixation,2020-07-06T19:30:19Z,NA,NA,NA,NA,NA,sub94
NA,mars-trial,34,115032,0.0-10.0-1.9,"""event"",""trial"",""time""
""fullscreenenter"",""0"",""3716""
","
","
","""event"",""trial"",""time""
""fullscreenenter"",""0"",""3716""
","
",4142.39500000258,<img style='border: 4px solid darkgrey;' src='img/tf1_10_M_ss3.jpeg'></img>,3,NA,exp,NA,1,<img src='img/tf1_10_T1_ss3_md.jpeg'></img>,0,FALSE,NA,sub94
NA,html-keyboard-response,35,115536,0.0-10.0-0.10,"""event"",""trial"",""time""
""fullscreenenter"",""0"",""3716""
","
","
","""event"",""trial"",""time""
""fullscreenenter"",""0"",""3716""
","
",null,"<div style=""font-size:60px;"">+</div>",NA,null,fixation,2020-07-06T19:30:24Z,NA,NA,NA,NA,NA,sub94
NA,mars-trial,36,120222,0.0-10.0-1.10,"""event"",""trial"",""time""
""fullscreenenter"",""0"",""3716""
","
","
","""event"",""trial"",""time""
""fullscreenenter"",""0"",""3716""
","
",4079.8650000069756,<img style='border: 4px solid darkgrey;' src='img/tf1_11_M_ss1.jpeg'></img>,0,NA,exp,NA,2,<img src='img/tf1_11_T1_ss1_md.jpeg'></img>,0,FALSE,NA,sub94
NA,html-keyboard-response,37,120728,0.0-10.0-0.11,"""event"",""trial"",""time""
""fullscreenenter"",""0"",""3716""
","
","
","""event"",""trial"",""time""
""fullscreenenter"",""0"",""3716""
","
",null,"<div style=""font-size:60px;"">+</div>",NA,null,fixation,2020-07-06T19:30:29Z,NA,NA,NA,NA,NA,sub94
NA,mars-trial,38,125050,0.0-10.0-1.11,"""event"",""trial"",""time""
""fullscreenenter"",""0"",""3716""
","
","
","""event"",""trial"",""time""
""fullscreenenter"",""0"",""3716""
","
",3715.1650000014342,<img style='border: 4px solid darkgrey;' src='img/tf1_12_M_ss2.jpeg'></img>,0,NA,exp,NA,1,<img src='img/tf1_12_T1_ss2_md.jpeg'></img>,0,FALSE,NA,sub94
NA,html-keyboard-response,39,125553,0.0-10.0-0.12,"""event"",""trial"",""time""
""fullscreenenter"",""0"",""3716""
","
","
","""event"",""trial"",""time""
""fullscreenenter"",""0"",""3716""
","
",null,"<div style=""font-size:60px;"">+</div>",NA,null,fixation,2020-07-06T19:30:34Z,NA,NA,NA,NA,NA,sub94
NA,mars-trial,40,134227,0.0-10.0-1.12,"""event"",""trial"",""time""
""fullscreenenter"",""0"",""3716""
","
","
","""event"",""trial"",""time""
""fullscreenenter"",""0"",""3716""
","
",8065.969999996014,<img style='border: 4px solid darkgrey;' src='img/tf1_13_M_ss3.jpeg'></img>,2,NA,exp,NA,1,<img src='img/tf1_13_T1_ss3_md.jpeg'></img>,0,FALSE,NA,sub94
NA,html-keyboard-response,41,134730,0.0-10.0-0.13,"""event"",""trial"",""time""
""fullscreenenter"",""0"",""3716""
","
","
","""event"",""trial"",""time""
""fullscreenenter"",""0"",""3716""
","
",null,"<div style=""font-size:60px;"">+</div>",NA,null,fixation,2020-07-06T19:30:43Z,NA,NA,NA,NA,NA,sub94
NA,mars-trial,42,144374,0.0-10.0-1.13,"""event"",""trial"",""time""
""fullscreenenter"",""0"",""3716""
","
","
","""event"",""trial"",""time""
""fullscreenenter"",""0"",""3716""
","
",9038.2249999966,<img style='border: 4px solid darkgrey;' src='img/tf1_14_M_ss1.jpeg'></img>,0,NA,exp,NA,1,<img src='img/tf1_14_T1_ss1_md.jpeg'></img>,0,FALSE,NA,sub94
NA,html-keyboard-response,43,144878,0.0-10.0-0.14,"""event"",""trial"",""time""
""fullscreenenter"",""0"",""3716""
","
","
","""event"",""trial"",""time""
""fullscreenenter"",""0"",""3716""
","
",null,"<div style=""font-size:60px;"">+</div>",NA,null,fixation,2020-07-06T19:30:53Z,NA,NA,NA,NA,NA,sub94
NA,mars-trial,44,151059,0.0-10.0-1.14,"""event"",""trial"",""time""
""fullscreenenter"",""0"",""3716""
","
","
","""event"",""trial"",""time""
""fullscreenenter"",""0"",""3716""
","
",5572.010000003502,<img style='border: 4px solid darkgrey;' src='img/tf1_15_M_ss2.jpeg'></img>,2,NA,exp,NA,2,<img src='img/tf1_15_T1_ss2_md.jpeg'></img>,0,FALSE,NA,sub94
NA,html-keyboard-response,45,151561,0.0-10.0-0.15,"""event"",""trial"",""time""
""fullscreenenter"",""0"",""3716""
","
","
","""event"",""trial"",""time""
""fullscreenenter"",""0"",""3716""
","
",null,"<div style=""font-size:60px;"">+</div>",NA,null,fixation,2020-07-06T19:31:00Z,NA,NA,NA,NA,NA,sub94
NA,mars-trial,46,158158,0.0-10.0-1.15,"""event"",""trial"",""time""
""fullscreenenter"",""0"",""3716""
","
","
","""event"",""trial"",""time""
""fullscreenenter"",""0"",""3716""
","
",5989.15500001749,<img style='border: 4px solid darkgrey;' src='img/tf1_16_M_ss3.jpeg'></img>,2,NA,exp,NA,3,<img src='img/tf1_16_T1_ss3_md.jpeg'></img>,0,FALSE,NA,sub94
NA,html-keyboard-response,47,158660,0.0-10.0-0.16,"""event"",""trial"",""time""
""fullscreenenter"",""0"",""3716""
","
","
","""event"",""trial"",""time""
""fullscreenenter"",""0"",""3716""
","
",null,"<div style=""font-size:60px;"">+</div>",NA,null,fixation,2020-07-06T19:31:07Z,NA,NA,NA,NA,NA,sub94
NA,mars-trial,48,166262,0.0-10.0-1.16,"""event"",""trial"",""time""
""fullscreenenter"",""0"",""3716""
","
","
","""event"",""trial"",""time""
""fullscreenenter"",""0"",""3716""
","
",6993.084999994608,<img style='border: 4px solid darkgrey;' src='img/tf1_17_M_ss1.jpeg'></img>,2,NA,exp,NA,1,<img src='img/tf1_17_T1_ss1_md.jpeg'></img>,0,FALSE,NA,sub94
NA,html-keyboard-response,49,166764,0.0-10.0-0.17,"""event"",""trial"",""time""
""fullscreenenter"",""0"",""3716""
","
","
","""event"",""trial"",""time""
""fullscreenenter"",""0"",""3716""
","
",null,"<div style=""font-size:60px;"">+</div>",NA,null,fixation,2020-07-06T19:31:15Z,NA,NA,NA,NA,NA,sub94
NA,mars-trial,50,171607,0.0-10.0-1.17,"""event"",""trial"",""time""
""fullscreenenter"",""0"",""3716""
","
","
","""event"",""trial"",""time""
""fullscreenenter"",""0"",""3716""
","
",4236.9849999959115,<img style='border: 4px solid darkgrey;' src='img/tf1_18_M_ss2.jpeg'></img>,2,NA,exp,NA,3,<img src='img/tf1_18_T1_ss2_md.jpeg'></img>,0,FALSE,NA,sub94
NA,html-keyboard-response,51,172110,0.0-10.0-0.18,"""event"",""trial"",""time""
""fullscreenenter"",""0"",""3716""
","
","
","""event"",""trial"",""time""
""fullscreenenter"",""0"",""3716""
","
",null,"<div style=""font-size:60px;"">+</div>",NA,null,fixation,2020-07-06T19:31:20Z,NA,NA,NA,NA,NA,sub94
NA,mars-trial,52,176213,0.0-10.0-1.18,"""event"",""trial"",""time""
""fullscreenenter"",""0"",""3716""
","
","
","""event"",""trial"",""time""
""fullscreenenter"",""0"",""3716""
","
",3493.285000004107,<img style='border: 4px solid darkgrey;' src='img/tf1_19_M_ss3.jpeg'></img>,2,NA,exp,NA,3,<img src='img/tf1_19_T1_ss3_md.jpeg'></img>,0,FALSE,NA,sub94
NA,html-keyboard-response,53,176717,0.0-10.0-0.19,"""event"",""trial"",""time""
""fullscreenenter"",""0"",""3716""
","
","
","""event"",""trial"",""time""
""fullscreenenter"",""0"",""3716""
","
",null,"<div style=""font-size:60px;"">+</div>",NA,null,fixation,2020-07-06T19:31:25Z,NA,NA,NA,NA,NA,sub94
NA,mars-trial,54,182828,0.0-10.0-1.19,"""event"",""trial"",""time""
""fullscreenenter"",""0"",""3716""
","
","
","""event"",""trial"",""time""
""fullscreenenter"",""0"",""3716""
","
",5500.739999988582,<img style='border: 4px solid darkgrey;' src='img/tf1_20_M_ss1.jpeg'></img>,2,NA,exp,NA,0,<img src='img/tf1_20_T1_ss1_md.jpeg'></img>,0,TRUE,NA,sub94
NA,html-keyboard-response,55,183331,0.0-10.0-0.20,"""event"",""trial"",""time""
""fullscreenenter"",""0"",""3716""
","
","
","""event"",""trial"",""time""
""fullscreenenter"",""0"",""3716""
","
",null,"<div style=""font-size:60px;"">+</div>",NA,null,fixation,2020-07-06T19:31:32Z,NA,NA,NA,NA,NA,sub94
NA,mars-trial,56,187633,0.0-10.0-1.20,"""event"",""trial"",""time""
""fullscreenenter"",""0"",""3716""
","
","
","""event"",""trial"",""time""
""fullscreenenter"",""0"",""3716""
","
",3695.689999993192,<img style='border: 4px solid darkgrey;' src='img/tf1_21_M_ss2.jpeg'></img>,2,NA,exp,NA,1,<img src='img/tf1_21_T1_ss2_md.jpeg'></img>,0,FALSE,NA,sub94
NA,html-keyboard-response,57,188136,0.0-10.0-0.21,"""event"",""trial"",""time""
""fullscreenenter"",""0"",""3716""
","
","
","""event"",""trial"",""time""
""fullscreenenter"",""0"",""3716""
","
",null,"<div style=""font-size:60px;"">+</div>",NA,null,fixation,2020-07-06T19:31:37Z,NA,NA,NA,NA,NA,sub94
NA,mars-trial,58,194506,0.0-10.0-1.21,"""event"",""trial"",""time""
""fullscreenenter"",""0"",""3716""
","
","
","""event"",""trial"",""time""
""fullscreenenter"",""0"",""3716""
","
",5761.135000007926,<img style='border: 4px solid darkgrey;' src='img/tf1_22_M_ss3.jpeg'></img>,1,NA,exp,NA,0,<img src='img/tf1_22_T1_ss3_md.jpeg'></img>,0,TRUE,NA,sub94
NA,html-keyboard-response,59,195010,0.0-10.0-0.22,"""event"",""trial"",""time""
""fullscreenenter"",""0"",""3716""
","
","
","""event"",""trial"",""time""
""fullscreenenter"",""0"",""3716""
","
",null,"<div style=""font-size:60px;"">+</div>",NA,null,fixation,2020-07-06T19:31:43Z,NA,NA,NA,NA,NA,sub94
NA,mars-trial,60,201020,0.0-10.0-1.22,"""event"",""trial"",""time""
""fullscreenenter"",""0"",""3716""
","
","
","""event"",""trial"",""time""
""fullscreenenter"",""0"",""3716""
","
",5400.9749999968335,<img style='border: 4px solid darkgrey;' src='img/tf1_23_M_ss1.jpeg'></img>,0,NA,exp,NA,1,<img src='img/tf1_23_T1_ss1_md.jpeg'></img>,0,FALSE,NA,sub94
NA,html-keyboard-response,61,201523,0.0-10.0-0.23,"""event"",""trial"",""time""
""fullscreenenter"",""0"",""3716""
","
","
","""event"",""trial"",""time""
""fullscreenenter"",""0"",""3716""
","
",null,"<div style=""font-size:60px;"">+</div>",NA,null,fixation,2020-07-06T19:31:50Z,NA,NA,NA,NA,NA,sub94
NA,mars-trial,62,206542,0.0-10.0-1.23,"""event"",""trial"",""time""
""fullscreenenter"",""0"",""3716""
","
","
","""event"",""trial"",""time""
""fullscreenenter"",""0"",""3716""
","
",4408.150000002934,<img style='border: 4px solid darkgrey;' src='img/tf1_24_M_ss2.jpeg'></img>,3,NA,exp,NA,0,<img src='img/tf1_24_T1_ss2_md.jpeg'></img>,0,TRUE,NA,sub94
NA,html-keyboard-response,63,207043,0.0-10.0-0.24,"""event"",""trial"",""time""
""fullscreenenter"",""0"",""3716""
","
","
","""event"",""trial"",""time""
""fullscreenenter"",""0"",""3716""
","
",null,"<div style=""font-size:60px;"">+</div>",NA,null,fixation,2020-07-06T19:31:55Z,NA,NA,NA,NA,NA,sub94
NA,mars-trial,64,215695,0.0-10.0-1.24,"""event"",""trial"",""time""
""fullscreenenter"",""0"",""3716""
","
","
","""event"",""trial"",""time""
""fullscreenenter"",""0"",""3716""
","
",8041.960000002291,<img style='border: 4px solid darkgrey;' src='img/tf1_25_M_ss3.jpeg'></img>,2,NA,exp,NA,3,<img src='img/tf1_25_T1_ss3_md.jpeg'></img>,0,FALSE,NA,sub94
NA,html-keyboard-response,65,216197,0.0-10.0-0.25,"""event"",""trial"",""time""
""fullscreenenter"",""0"",""3716""
","
","
","""event"",""trial"",""time""
""fullscreenenter"",""0"",""3716""
","
",null,"<div style=""font-size:60px;"">+</div>",NA,null,fixation,2020-07-06T19:32:05Z,NA,NA,NA,NA,NA,sub94
NA,mars-trial,66,226767,0.0-10.0-1.25,"""event"",""trial"",""time""
""fullscreenenter"",""0"",""3716""
","
","
","""event"",""trial"",""time""
""fullscreenenter"",""0"",""3716""
","
",9961.804999999003,<img style='border: 4px solid darkgrey;' src='img/tf1_26_M_ss1.jpeg'></img>,0,NA,exp,NA,3,<img src='img/tf1_26_T1_ss1_md.jpeg'></img>,0,FALSE,NA,sub94
NA,html-keyboard-response,67,227269,0.0-10.0-0.26,"""event"",""trial"",""time""
""fullscreenenter"",""0"",""3716""
","
","
","""event"",""trial"",""time""
""fullscreenenter"",""0"",""3716""
","
",null,"<div style=""font-size:60px;"">+</div>",NA,null,fixation,2020-07-06T19:32:16Z,NA,NA,NA,NA,NA,sub94
NA,mars-trial,68,239157,0.0-10.0-1.26,"""event"",""trial"",""time""
""fullscreenenter"",""0"",""3716""
","
","
","""event"",""trial"",""time""
""fullscreenenter"",""0"",""3716""
","
",11280.49999999348,<img style='border: 4px solid darkgrey;' src='img/tf1_27_M_ss2.jpeg'></img>,0,NA,exp,NA,3,<img src='img/tf1_27_T1_ss2_md.jpeg'></img>,0,FALSE,NA,sub94
NA,html-keyboard-response,69,239661,0.0-10.0-0.27,"""event"",""trial"",""time""
""fullscreenenter"",""0"",""3716""
","
","
","""event"",""trial"",""time""
""fullscreenenter"",""0"",""3716""
","
",null,"<div style=""font-size:60px;"">+</div>",NA,null,fixation,2020-07-06T19:32:28Z,NA,NA,NA,NA,NA,sub94
NA,mars-trial,70,247290,0.0-10.0-1.27,"""event"",""trial"",""time""
""fullscreenenter"",""0"",""3716""
","
","
","""event"",""trial"",""time""
""fullscreenenter"",""0"",""3716""
","
",7019.734999979846,<img style='border: 4px solid darkgrey;' src='img/tf1_28_M_ss3.jpeg'></img>,2,NA,exp,NA,0,<img src='img/tf1_28_T1_ss3_md.jpeg'></img>,0,TRUE,NA,sub94
NA,html-keyboard-response,71,247793,0.0-10.0-0.28,"""event"",""trial"",""time""
""fullscreenenter"",""0"",""3716""
","
","
","""event"",""trial"",""time""
""fullscreenenter"",""0"",""3716""
","
",null,"<div style=""font-size:60px;"">+</div>",NA,null,fixation,2020-07-06T19:32:36Z,NA,NA,NA,NA,NA,sub94
NA,mars-trial,72,254384,0.0-10.0-1.28,"""event"",""trial"",""time""
""fullscreenenter"",""0"",""3716""
","
","
","""event"",""trial"",""time""
""fullscreenenter"",""0"",""3716""
","
",5983.77999998047,<img style='border: 4px solid darkgrey;' src='img/tf1_29_M_ss1.jpeg'></img>,0,NA,exp,NA,1,<img src='img/tf1_29_T1_ss1_md.jpeg'></img>,0,FALSE,NA,sub94
NA,html-keyboard-response,73,254885,0.0-10.0-0.29,"""event"",""trial"",""time""
""fullscreenenter"",""0"",""3716""
","
","
","""event"",""trial"",""time""
""fullscreenenter"",""0"",""3716""
","
",null,"<div style=""font-size:60px;"">+</div>",NA,null,fixation,2020-07-06T19:32:43Z,NA,NA,NA,NA,NA,sub94
NA,mars-trial,74,264652,0.0-10.0-1.29,"""event"",""trial"",""time""
""fullscreenenter"",""0"",""3716""
","
","
","""event"",""trial"",""time""
""fullscreenenter"",""0"",""3716""
","
",9157.005000015488,<img style='border: 4px solid darkgrey;' src='img/tf1_30_M_ss2.jpeg'></img>,2,NA,exp,NA,2,<img src='img/tf1_30_T1_ss2_md.jpeg'></img>,0,FALSE,NA,sub94
NA,html-keyboard-response,75,265155,0.0-10.0-0.30,"""event"",""trial"",""time""
""fullscreenenter"",""0"",""3716""
","
","
","""event"",""trial"",""time""
""fullscreenenter"",""0"",""3716""
","
",null,"<div style=""font-size:60px;"">+</div>",NA,null,fixation,2020-07-06T19:32:54Z,NA,NA,NA,NA,NA,sub94
NA,mars-trial,76,277231,0.0-10.0-1.30,"""event"",""trial"",""time""
""fullscreenenter"",""0"",""3716""
","
","
","""event"",""trial"",""time""
""fullscreenenter"",""0"",""3716""
","
",11467.184999986785,<img style='border: 4px solid darkgrey;' src='img/tf1_31_M_ss3.jpeg'></img>,3,NA,exp,NA,3,<img src='img/tf1_31_T1_ss3_md.jpeg'></img>,0,FALSE,NA,sub94
NA,html-keyboard-response,77,277733,0.0-10.0-0.31,"""event"",""trial"",""time""
""fullscreenenter"",""0"",""3716""
","
","
","""event"",""trial"",""time""
""fullscreenenter"",""0"",""3716""
","
",null,"<div style=""font-size:60px;"">+</div>",NA,null,fixation,2020-07-06T19:33:06Z,NA,NA,NA,NA,NA,sub94
NA,mars-trial,78,297144,0.0-10.0-1.31,"""event"",""trial"",""time""
""fullscreenenter"",""0"",""3716""
","
","
","""event"",""trial"",""time""
""fullscreenenter"",""0"",""3716""
","
",18799.884999985807,<img style='border: 4px solid darkgrey;' src='img/tf1_32_M_ss1.jpeg'></img>,1,NA,exp,NA,0,<img src='img/tf1_32_T1_ss1_md.jpeg'></img>,0,TRUE,NA,sub94
NA,html-keyboard-response,79,297647,0.0-10.0-0.32,"""event"",""trial"",""time""
""fullscreenenter"",""0"",""3716""
","
","
","""event"",""trial"",""time""
""fullscreenenter"",""0"",""3716""
","
",null,"<div style=""font-size:60px;"">+</div>",NA,null,fixation,2020-07-06T19:33:26Z,NA,NA,NA,NA,NA,sub94
NA,mars-trial,80,304048,0.0-10.0-1.32,"""event"",""trial"",""time""
""fullscreenenter"",""0"",""3716""
","
","
","""event"",""trial"",""time""
""fullscreenenter"",""0"",""3716""
","
",5792.2599999874365,<img style='border: 4px solid darkgrey;' src='img/tf1_33_M_ss2.jpeg'></img>,3,NA,exp,NA,0,<img src='img/tf1_33_T1_ss2_md.jpeg'></img>,0,TRUE,NA,sub94
NA,html-keyboard-response,81,304550,0.0-10.0-0.33,"""event"",""trial"",""time""
""fullscreenenter"",""0"",""3716""
","
","
","""event"",""trial"",""time""
""fullscreenenter"",""0"",""3716""
","
",null,"<div style=""font-size:60px;"">+</div>",NA,null,fixation,2020-07-06T19:33:33Z,NA,NA,NA,NA,NA,sub94
NA,mars-trial,82,313335,0.0-10.0-1.33,"""event"",""trial"",""time""
""fullscreenenter"",""0"",""3716""
","
","
","""event"",""trial"",""time""
""fullscreenenter"",""0"",""3716""
","
",8177.154999983031,<img style='border: 4px solid darkgrey;' src='img/tf1_34_M_ss3.jpeg'></img>,2,NA,exp,NA,0,<img src='img/tf1_34_T1_ss3_md.jpeg'></img>,0,TRUE,NA,sub94
NA,html-keyboard-response,83,313837,0.0-10.0-0.34,"""event"",""trial"",""time""
""fullscreenenter"",""0"",""3716""
","
","
","""event"",""trial"",""time""
""fullscreenenter"",""0"",""3716""
","
",null,"<div style=""font-size:60px;"">+</div>",NA,null,fixation,2020-07-06T19:33:42Z,NA,NA,NA,NA,NA,sub94
NA,mars-trial,84,319068,0.0-10.0-1.34,"""event"",""trial"",""time""
""fullscreenenter"",""0"",""3716""
","
","
","""event"",""trial"",""time""
""fullscreenenter"",""0"",""3716""
","
",4621.415000001434,<img style='border: 4px solid darkgrey;' src='img/tf1_35_M_ss1.jpeg'></img>,2,NA,exp,NA,3,<img src='img/tf1_35_T1_ss1_md.jpeg'></img>,0,FALSE,NA,sub94
NA,html-keyboard-response,85,319571,0.0-10.0-0.35,"""event"",""trial"",""time""
""fullscreenenter"",""0"",""3716""
","
","
","""event"",""trial"",""time""
""fullscreenenter"",""0"",""3716""
","
",null,"<div style=""font-size:60px;"">+</div>",NA,null,fixation,2020-07-06T19:33:48Z,NA,NA,NA,NA,NA,sub94
NA,mars-trial,86,330255,0.0-10.0-1.35,"""event"",""trial"",""time""
""fullscreenenter"",""0"",""3716""
","
","
","""event"",""trial"",""time""
""fullscreenenter"",""0"",""3716""
","
",10074.679999990622,<img style='border: 4px solid darkgrey;' src='img/tf1_36_M_ss2.jpeg'></img>,1,NA,exp,NA,3,<img src='img/tf1_36_T1_ss2_md.jpeg'></img>,0,FALSE,NA,sub94
NA,html-keyboard-response,87,330758,0.0-10.0-0.36,"""event"",""trial"",""time""
""fullscreenenter"",""0"",""3716""
","
","
","""event"",""trial"",""time""
""fullscreenenter"",""0"",""3716""
","
",null,"<div style=""font-size:60px;"">+</div>",NA,null,fixation,2020-07-06T19:33:59Z,NA,NA,NA,NA,NA,sub94
NA,mars-trial,88,347296,0.0-10.0-1.36,"""event"",""trial"",""time""
""fullscreenenter"",""0"",""3716""
","
","
","""event"",""trial"",""time""
""fullscreenenter"",""0"",""3716""
","
",15931.219999998575,<img style='border: 4px solid darkgrey;' src='img/tf1_37_M_ss3.jpeg'></img>,3,NA,exp,NA,3,<img src='img/tf1_37_T1_ss3_md.jpeg'></img>,0,FALSE,NA,sub94
NA,html-keyboard-response,89,347798,0.0-10.0-0.37,"""event"",""trial"",""time""
""fullscreenenter"",""0"",""3716""
","
","
","""event"",""trial"",""time""
""fullscreenenter"",""0"",""3716""
","
",null,"<div style=""font-size:60px;"">+</div>",NA,null,fixation,2020-07-06T19:34:16Z,NA,NA,NA,NA,NA,sub94
NA,mars-trial,90,353609,0.0-10.0-1.37,"""event"",""trial"",""time""
""fullscreenenter"",""0"",""3716""
","
","
","""event"",""trial"",""time""
""fullscreenenter"",""0"",""3716""
","
",5203.570000012405,<img style='border: 4px solid darkgrey;' src='img/tf1_38_M_ss1.jpeg'></img>,3,NA,exp,NA,3,<img src='img/tf1_38_T1_ss1_md.jpeg'></img>,0,FALSE,NA,sub94
NA,html-keyboard-response,91,354112,0.0-10.0-0.38,"""event"",""trial"",""time""
""fullscreenenter"",""0"",""3716""
","
","
","""event"",""trial"",""time""
""fullscreenenter"",""0"",""3716""
","
",null,"<div style=""font-size:60px;"">+</div>",NA,null,fixation,2020-07-06T19:34:22Z,NA,NA,NA,NA,NA,sub94
NA,mars-trial,92,364203,0.0-10.0-1.38,"""event"",""trial"",""time""
""fullscreenenter"",""0"",""3716""
","
","
","""event"",""trial"",""time""
""fullscreenenter"",""0"",""3716""
","
",9480.500000005122,<img style='border: 4px solid darkgrey;' src='img/tf1_39_M_ss2.jpeg'></img>,2,NA,exp,NA,0,<img src='img/tf1_39_T1_ss2_md.jpeg'></img>,0,TRUE,NA,sub94
NA,html-keyboard-response,93,364706,0.0-10.0-0.39,"""event"",""trial"",""time""
""fullscreenenter"",""0"",""3716""
","
","
","""event"",""trial"",""time""
""fullscreenenter"",""0"",""3716""
","
",null,"<div style=""font-size:60px;"">+</div>",NA,null,fixation,2020-07-06T19:34:33Z,NA,NA,NA,NA,NA,sub94
NA,mars-trial,94,370916,0.0-10.0-1.39,"""event"",""trial"",""time""
""fullscreenenter"",""0"",""3716""
","
","
","""event"",""trial"",""time""
""fullscreenenter"",""0"",""3716""
","
",5600.384999997914,<img style='border: 4px solid darkgrey;' src='img/tf1_40_M_ss3.jpeg'></img>,3,NA,exp,NA,2,<img src='img/tf1_40_T1_ss3_md.jpeg'></img>,0,FALSE,NA,sub94
NA,html-keyboard-response,95,371419,0.0-10.0-0.40,"""event"",""trial"",""time""
""fullscreenenter"",""0"",""3716""
","
","
","""event"",""trial"",""time""
""fullscreenenter"",""0"",""3716""
","
",null,"<div style=""font-size:60px;"">+</div>",NA,null,fixation,2020-07-06T19:34:40Z,NA,NA,NA,NA,NA,sub94
NA,mars-trial,96,388010,0.0-10.0-1.40,"""event"",""trial"",""time""
""fullscreenenter"",""0"",""3716""
","
","
","""event"",""trial"",""time""
""fullscreenenter"",""0"",""3716""
","
",15981.820000015432,<img style='border: 4px solid darkgrey;' src='img/tf1_41_M_ss1.jpeg'></img>,3,NA,exp,NA,2,<img src='img/tf1_41_T1_ss1_md.jpeg'></img>,0,FALSE,NA,sub94
NA,html-keyboard-response,97,388513,0.0-10.0-0.41,"""event"",""trial"",""time""
""fullscreenenter"",""0"",""3716""
","
","
","""event"",""trial"",""time""
""fullscreenenter"",""0"",""3716""
","
",null,"<div style=""font-size:60px;"">+</div>",NA,null,fixation,2020-07-06T19:34:57Z,NA,NA,NA,NA,NA,sub94
NA,mars-trial,98,402723,0.0-10.0-1.41,"""event"",""trial"",""time""
""fullscreenenter"",""0"",""3716""
","
","
","""event"",""trial"",""time""
""fullscreenenter"",""0"",""3716""
","
",13599.2350000015,<img style='border: 4px solid darkgrey;' src='img/tf1_42_M_ss2.jpeg'></img>,3,NA,exp,NA,2,<img src='img/tf1_42_T1_ss2_md.jpeg'></img>,0,FALSE,NA,sub94
NA,html-keyboard-response,99,403225,0.0-10.0-0.42,"""event"",""trial"",""time""
""fullscreenenter"",""0"",""3716""
","
","
","""event"",""trial"",""time""
""fullscreenenter"",""0"",""3716""
","
",null,"<div style=""font-size:60px;"">+</div>",NA,null,fixation,2020-07-06T19:35:12Z,NA,NA,NA,NA,NA,sub94
NA,mars-trial,100,415625,0.0-10.0-1.42,"""event"",""trial"",""time""
""fullscreenenter"",""0"",""3716""
","
","
","""event"",""trial"",""time""
""fullscreenenter"",""0"",""3716""
","
",11791.209999995772,<img style='border: 4px solid darkgrey;' src='img/tf1_43_M_ss3.jpeg'></img>,3,NA,exp,NA,0,<img src='img/tf1_43_T1_ss3_md.jpeg'></img>,0,TRUE,NA,sub94
NA,html-keyboard-response,101,416127,0.0-10.0-0.43,"""event"",""trial"",""time""
""fullscreenenter"",""0"",""3716""
","
","
","""event"",""trial"",""time""
""fullscreenenter"",""0"",""3716""
","
",null,"<div style=""font-size:60px;"">+</div>",NA,null,fixation,2020-07-06T19:35:24Z,NA,NA,NA,NA,NA,sub94
NA,mars-trial,102,428160,0.0-10.0-1.43,"""event"",""trial"",""time""
""fullscreenenter"",""0"",""3716""
","
","
","""event"",""trial"",""time""
""fullscreenenter"",""0"",""3716""
","
",11423.979999992298,<img style='border: 4px solid darkgrey;' src='img/tf1_44_M_ss1.jpeg'></img>,2,NA,exp,NA,2,<img src='img/tf1_44_T1_ss1_md.jpeg'></img>,0,FALSE,NA,sub94
NA,html-keyboard-response,103,428662,0.0-10.0-0.44,"""event"",""trial"",""time""
""fullscreenenter"",""0"",""3716""
","
","
","""event"",""trial"",""time""
""fullscreenenter"",""0"",""3716""
","
",null,"<div style=""font-size:60px;"">+</div>",NA,null,fixation,2020-07-06T19:35:37Z,NA,NA,NA,NA,NA,sub94
NA,mars-trial,104,434111,0.0-10.0-1.44,"""event"",""trial"",""time""
""fullscreenenter"",""0"",""3716""
","
","
","""event"",""trial"",""time""
""fullscreenenter"",""0"",""3716""
","
",4839.955000003101,<img style='border: 4px solid darkgrey;' src='img/tf1_45_M_ss2.jpeg'></img>,2,NA,exp,NA,2,<img src='img/tf1_45_T1_ss2_md.jpeg'></img>,0,FALSE,NA,sub94
NA,html-keyboard-response,105,434615,0.0-10.0-0.45,"""event"",""trial"",""time""
""fullscreenenter"",""0"",""3716""
","
","
","""event"",""trial"",""time""
""fullscreenenter"",""0"",""3716""
","
",null,"<div style=""font-size:60px;"">+</div>",NA,null,fixation,2020-07-06T19:35:43Z,NA,NA,NA,NA,NA,sub94
NA,mars-trial,106,437570,0.0-10.0-1.45,"""event"",""trial"",""time""
""fullscreenenter"",""0"",""3716""
","
","
","""event"",""trial"",""time""
""fullscreenenter"",""0"",""3716""
","
",2345.020000007935,<img style='border: 4px solid darkgrey;' src='img/tf1_46_M_ss3.jpeg'></img>,1,NA,exp,NA,2,<img src='img/tf1_46_T1_ss3_md.jpeg'></img>,0,FALSE,NA,sub94
NA,html-keyboard-response,107,438072,0.0-10.0-0.46,"""event"",""trial"",""time""
""fullscreenenter"",""0"",""3716""
","
","
","""event"",""trial"",""time""
""fullscreenenter"",""0"",""3716""
","
",null,"<div style=""font-size:60px;"">+</div>",NA,null,fixation,2020-07-06T19:35:46Z,NA,NA,NA,NA,NA,sub94
NA,mars-trial,108,439415,0.0-10.0-1.46,"""event"",""trial"",""time""
""fullscreenenter"",""0"",""3716""
","
","
","""event"",""trial"",""time""
""fullscreenenter"",""0"",""3716""
","
",736.2900000007357,<img style='border: 4px solid darkgrey;' src='img/tf1_47_M_ss1.jpeg'></img>,3,NA,exp,NA,1,<img src='img/tf1_47_T1_ss1_md.jpeg'></img>,0,FALSE,NA,sub94
NA,html-keyboard-response,109,439918,0.0-10.0-0.47,"""event"",""trial"",""time""
""fullscreenenter"",""0"",""3716""
","
","
","""event"",""trial"",""time""
""fullscreenenter"",""0"",""3716""
","
",null,"<div style=""font-size:60px;"">+</div>",NA,null,fixation,2020-07-06T19:35:48Z,NA,NA,NA,NA,NA,sub94
NA,mars-trial,110,441703,0.0-10.0-1.47,"""event"",""trial"",""time""
""fullscreenenter"",""0"",""3716""
","
","
","""event"",""trial"",""time""
""fullscreenenter"",""0"",""3716""
","
",1178.155000001425,<img style='border: 4px solid darkgrey;' src='img/tf1_48_M_ss2.jpeg'></img>,0,NA,exp,NA,0,<img src='img/tf1_48_T1_ss2_md.jpeg'></img>,0,TRUE,NA,sub94
NA,html-keyboard-response,111,442206,0.0-10.0-0.48,"""event"",""trial"",""time""
""fullscreenenter"",""0"",""3716""
","
","
","""event"",""trial"",""time""
""fullscreenenter"",""0"",""3716""
","
",null,"<div style=""font-size:60px;"">+</div>",NA,null,fixation,2020-07-06T19:35:51Z,NA,NA,NA,NA,NA,sub94
NA,mars-trial,112,450256,0.0-10.0-1.48,"""event"",""trial"",""time""
""fullscreenenter"",""0"",""3716""
","
","
","""event"",""trial"",""time""
""fullscreenenter"",""0"",""3716""
","
",7441.8900000164285,<img style='border: 4px solid darkgrey;' src='img/tf1_49_M_ss3.jpeg'></img>,3,NA,exp,NA,0,<img src='img/tf1_49_T1_ss3_md.jpeg'></img>,0,TRUE,NA,sub94
NA,html-keyboard-response,113,450759,0.0-10.0-0.49,"""event"",""trial"",""time""
""fullscreenenter"",""0"",""3716""
","
","
","""event"",""trial"",""time""
""fullscreenenter"",""0"",""3716""
","
",null,"<div style=""font-size:60px;"">+</div>",NA,null,fixation,2020-07-06T19:35:59Z,NA,NA,NA,NA,NA,sub94
NA,mars-trial,114,462130,0.0-10.0-1.49,"""event"",""trial"",""time""
""fullscreenenter"",""0"",""3716""
","
","
","""event"",""trial"",""time""
""fullscreenenter"",""0"",""3716""
","
",10763.074999995297,<img style='border: 4px solid darkgrey;' src='img/tf1_50_M_ss1.jpeg'></img>,2,NA,exp,NA,0,<img src='img/tf1_50_T1_ss1_md.jpeg'></img>,0,TRUE,NA,sub94
NA,html-keyboard-response,115,462633,0.0-10.0-0.50,"""event"",""trial"",""time""
""fullscreenenter"",""0"",""3716""
","
","
","""event"",""trial"",""time""
""fullscreenenter"",""0"",""3716""
","
",null,"<div style=""font-size:60px;"">+</div>",NA,null,fixation,2020-07-06T19:36:11Z,NA,NA,NA,NA,NA,sub94
NA,mars-trial,116,476692,0.0-10.0-1.50,"""event"",""trial"",""time""
""fullscreenenter"",""0"",""3716""
","
","
","""event"",""trial"",""time""
""fullscreenenter"",""0"",""3716""
","
",13450.965000025462,<img style='border: 4px solid darkgrey;' src='img/tf1_51_M_ss2.jpeg'></img>,2,NA,exp,NA,3,<img src='img/tf1_51_T1_ss2_md.jpeg'></img>,0,FALSE,NA,sub94
NA,html-keyboard-response,117,477196,0.0-10.0-0.51,"""event"",""trial"",""time""
""fullscreenenter"",""0"",""3716""
","
","
","""event"",""trial"",""time""
""fullscreenenter"",""0"",""3716""
","
",null,"<div style=""font-size:60px;"">+</div>",NA,null,fixation,2020-07-06T19:36:26Z,NA,NA,NA,NA,NA,sub94
NA,mars-trial,118,485001,0.0-10.0-1.51,"""event"",""trial"",""time""
""fullscreenenter"",""0"",""3716""
","
","
","""event"",""trial"",""time""
""fullscreenenter"",""0"",""3716""
","
",7197.404999984428,<img style='border: 4px solid darkgrey;' src='img/tf1_52_M_ss3.jpeg'></img>,3,NA,exp,NA,3,<img src='img/tf1_52_T1_ss3_md.jpeg'></img>,0,FALSE,NA,sub94
NA,html-keyboard-response,119,485504,0.0-10.0-0.52,"""event"",""trial"",""time""
""fullscreenenter"",""0"",""3716""
","
","
","""event"",""trial"",""time""
""fullscreenenter"",""0"",""3716""
","
",null,"<div style=""font-size:60px;"">+</div>",NA,null,fixation,2020-07-06T19:36:34Z,NA,NA,NA,NA,NA,sub94
NA,mars-trial,120,490171,0.0-10.0-1.52,"""event"",""trial"",""time""
""fullscreenenter"",""0"",""3716""
","
","
","""event"",""trial"",""time""
""fullscreenenter"",""0"",""3716""
","
",4059.3300000182353,<img style='border: 4px solid darkgrey;' src='img/tf1_53_M_ss1.jpeg'></img>,3,NA,exp,NA,1,<img src='img/tf1_53_T1_ss1_md.jpeg'></img>,0,FALSE,NA,sub94
NA,html-keyboard-response,121,490673,0.0-10.0-0.53,"""event"",""trial"",""time""
""fullscreenenter"",""0"",""3716""
","
","
","""event"",""trial"",""time""
""fullscreenenter"",""0"",""3716""
","
",null,"<div style=""font-size:60px;"">+</div>",NA,null,fixation,2020-07-06T19:36:39Z,NA,NA,NA,NA,NA,sub94
NA,mars-trial,122,493862,0.0-10.0-1.53,"""event"",""trial"",""time""
""fullscreenenter"",""0"",""3716""
","
","
","""event"",""trial"",""time""
""fullscreenenter"",""0"",""3716""
","
",2582.9349999839906,<img style='border: 4px solid darkgrey;' src='img/tf1_54_M_ss2.jpeg'></img>,3,NA,exp,NA,0,<img src='img/tf1_54_T1_ss2_md.jpeg'></img>,0,TRUE,NA,sub94
NA,html-keyboard-response,123,494364,0.0-10.0-0.54,"""event"",""trial"",""time""
""fullscreenenter"",""0"",""3716""
","
","
","""event"",""trial"",""time""
""fullscreenenter"",""0"",""3716""
","
",null,"<div style=""font-size:60px;"">+</div>",NA,null,fixation,2020-07-06T19:36:43Z,NA,NA,NA,NA,NA,sub94
NA,mars-trial,124,503581,0.0-10.0-1.54,"""event"",""trial"",""time""
""fullscreenenter"",""0"",""3716""
","
","
","""event"",""trial"",""time""
""fullscreenenter"",""0"",""3716""
","
",8607.044999982463,<img style='border: 4px solid darkgrey;' src='img/tf1_55_M_ss3.jpeg'></img>,1,NA,exp,NA,2,<img src='img/tf1_55_T1_ss3_md.jpeg'></img>,0,FALSE,NA,sub94
NA,html-keyboard-response,125,504083,0.0-10.0-0.55,"""event"",""trial"",""time""
""fullscreenenter"",""0"",""3716""
","
","
","""event"",""trial"",""time""
""fullscreenenter"",""0"",""3716""
","
",null,"<div style=""font-size:60px;"">+</div>",NA,null,fixation,2020-07-06T19:36:52Z,NA,NA,NA,NA,NA,sub94
NA,mars-trial,126,512190,0.0-10.0-1.55,"""event"",""trial"",""time""
""fullscreenenter"",""0"",""3716""
","
","
","""event"",""trial"",""time""
""fullscreenenter"",""0"",""3716""
","
",7499.4299999962095,<img style='border: 4px solid darkgrey;' src='img/tf1_56_M_ss1.jpeg'></img>,2,NA,exp,NA,2,<img src='img/tf1_56_T1_ss1_md.jpeg'></img>,0,FALSE,NA,sub94
NA,html-keyboard-response,127,512692,0.0-10.0-0.56,"""event"",""trial"",""time""
""fullscreenenter"",""0"",""3716""
","
","
","""event"",""trial"",""time""
""fullscreenenter"",""0"",""3716""
","
",null,"<div style=""font-size:60px;"">+</div>",NA,null,fixation,2020-07-06T19:37:01Z,NA,NA,NA,NA,NA,sub94
NA,mars-trial,128,519979,0.0-10.0-1.56,"""event"",""trial"",""time""
""fullscreenenter"",""0"",""3716""
","
","
","""event"",""trial"",""time""
""fullscreenenter"",""0"",""3716""
","
",6678.140000003623,<img style='border: 4px solid darkgrey;' src='img/tf1_57_M_ss2.jpeg'></img>,2,NA,exp,NA,0,<img src='img/tf1_57_T1_ss2_md.jpeg'></img>,0,TRUE,NA,sub94
NA,html-keyboard-response,129,520480,0.0-10.0-0.57,"""event"",""trial"",""time""
""fullscreenenter"",""0"",""3716""
","
","
","""event"",""trial"",""time""
""fullscreenenter"",""0"",""3716""
","
",null,"<div style=""font-size:60px;"">+</div>",NA,null,fixation,2020-07-06T19:37:09Z,NA,NA,NA,NA,NA,sub94
NA,mars-trial,130,524366,0.0-10.0-1.57,"""event"",""trial"",""time""
""fullscreenenter"",""0"",""3716""
","
","
","""event"",""trial"",""time""
""fullscreenenter"",""0"",""3716""
","
",3276.205000001937,<img style='border: 4px solid darkgrey;' src='img/tf1_58_M_ss3.jpeg'></img>,3,NA,exp,NA,1,<img src='img/tf1_58_T1_ss3_md.jpeg'></img>,0,FALSE,NA,sub94
NA,html-keyboard-response,131,524868,0.0-10.0-0.58,"""event"",""trial"",""time""
""fullscreenenter"",""0"",""3716""
","
","
","""event"",""trial"",""time""
""fullscreenenter"",""0"",""3716""
","
",null,"<div style=""font-size:60px;"">+</div>",NA,null,fixation,2020-07-06T19:37:13Z,NA,NA,NA,NA,NA,sub94
NA,mars-trial,132,529409,0.0-10.0-1.58,"""event"",""trial"",""time""
""fullscreenenter"",""0"",""3716""
","
","
","""event"",""trial"",""time""
""fullscreenenter"",""0"",""3716""
","
",3931.7399999999907,<img style='border: 4px solid darkgrey;' src='img/tf1_59_M_ss1.jpeg'></img>,3,NA,exp,NA,2,<img src='img/tf1_59_T1_ss1_md.jpeg'></img>,0,FALSE,NA,sub94
NA,html-keyboard-response,133,529911,0.0-10.0-0.59,"""event"",""trial"",""time""
""fullscreenenter"",""0"",""3716""
","
","
","""event"",""trial"",""time""
""fullscreenenter"",""0"",""3716""
","
",null,"<div style=""font-size:60px;"">+</div>",NA,null,fixation,2020-07-06T19:37:18Z,NA,NA,NA,NA,NA,sub94
NA,mars-trial,134,538841,0.0-10.0-1.59,"""event"",""trial"",""time""
""fullscreenenter"",""0"",""3716""
","
","
","""event"",""trial"",""time""
""fullscreenenter"",""0"",""3716""
","
",8319.60000001709,<img style='border: 4px solid darkgrey;' src='img/tf1_60_M_ss2.jpeg'></img>,3,NA,exp,NA,3,<img src='img/tf1_60_T1_ss2_md.jpeg'></img>,0,FALSE,NA,sub94
NA,html-keyboard-response,135,539344,0.0-10.0-0.60,"""event"",""trial"",""time""
""fullscreenenter"",""0"",""3716""
","
","
","""event"",""trial"",""time""
""fullscreenenter"",""0"",""3716""
","
",null,"<div style=""font-size:60px;"">+</div>",NA,null,fixation,2020-07-06T19:37:28Z,NA,NA,NA,NA,NA,sub94
NA,mars-trial,136,546167,0.0-10.0-1.60,"""event"",""trial"",""time""
""fullscreenenter"",""0"",""3716""
","
","
","""event"",""trial"",""time""
""fullscreenenter"",""0"",""3716""
","
",6215.68500000285,<img style='border: 4px solid darkgrey;' src='img/tf1_61_M_ss3.jpeg'></img>,0,NA,exp,NA,2,<img src='img/tf1_61_T1_ss3_md.jpeg'></img>,0,FALSE,NA,sub94
NA,html-keyboard-response,137,546671,0.0-10.0-0.61,"""event"",""trial"",""time""
""fullscreenenter"",""0"",""3716""
","
","
","""event"",""trial"",""time""
""fullscreenenter"",""0"",""3716""
","
",null,"<div style=""font-size:60px;"">+</div>",NA,null,fixation,2020-07-06T19:37:35Z,NA,NA,NA,NA,NA,sub94
NA,mars-trial,138,552637,0.0-10.0-1.61,"""event"",""trial"",""time""
""fullscreenenter"",""0"",""3716""
","
","
","""event"",""trial"",""time""
""fullscreenenter"",""0"",""3716""
","
",NA,NA,NA,NA,exp,NA,NA,<img src='img/tf1_62_T1_ss1_md.jpeg'></img>,0,FALSE,NA,sub94
NA,html-keyboard-response,139,553140,0.0-10.0-0.62,"""event"",""trial"",""time""
""fullscreenenter"",""0"",""3716""
","
","
","""event"",""trial"",""time""
""fullscreenenter"",""0"",""3716""
","
",null,"<div style=""font-size:60px;"">+</div>",NA,null,fixation,2020-07-06T19:37:42Z,NA,NA,NA,NA,NA,sub94
NA,audio-button-response,140,558995,0.0-11.0,"""event"",""trial"",""time""
""fullscreenenter"",""0"",""3716""
","
","
","""event"",""trial"",""time""
""fullscreenenter"",""0"",""3716""
","
",5750.885000015842,audio/mars_instructions_slide5.wav,0,NA,NA,NA,NA,NA,NA,NA,NA,sub94
