success,trial_type,trial_index,time_elapsed,internal_node_id,interactions,blur_events,focus_events,fullscreenenter_events,fullscreenexit_events,rt,stimulus,button_pressed,key_press,part,timestamp,unshuffled_button,correct_response,correct_button,correct,value,subject_id
TRUE,fullscreen,0,4899,0.0-0.0,"""event"",""trial"",""time""
""fullscreenenter"",""0"",""3941""
","
","
","""event"",""trial"",""time""
""fullscreenenter"",""0"",""3941""
","
",NA,NA,NA,NA,NA,NA,NA,NA,NA,NA,NA,sub90
NA,pavlovia,1,4906,0.0-1.0,"""event"",""trial"",""time""
""fullscreenenter"",""0"",""3941""
","
","
","""event"",""trial"",""time""
""fullscreenenter"",""0"",""3941""
","
",NA,NA,NA,NA,NA,NA,NA,NA,NA,NA,NA,sub90
NA,html-button-response,2,6310,0.0-2.0,"""event"",""trial"",""time""
""fullscreenenter"",""0"",""3941""
","
","
","""event"",""trial"",""time""
""fullscreenenter"",""0"",""3941""
","
",1402.2500000428408,<p>Welcome! Press START to begin.</p><br>,0,NA,NA,NA,NA,NA,NA,NA,NA,sub90
NA,audio-button-response,3,60578,0.0-3.0,"""event"",""trial"",""time""
""fullscreenenter"",""0"",""3941""
","
","
","""event"",""trial"",""time""
""fullscreenenter"",""0"",""3941""
","
",54263.6750000529,audio/mars_instructions_slide2.wav,0,NA,NA,NA,NA,NA,NA,NA,NA,sub90
NA,audio-button-response,4,77342,0.0-4.0,"""event"",""trial"",""time""
""fullscreenenter"",""0"",""3941""
","
","
","""event"",""trial"",""time""
""fullscreenenter"",""0"",""3941""
","
",16761.91999996081,audio/mars_instructions_slide3.wav,0,NA,NA,NA,NA,NA,NA,NA,NA,sub90
NA,html-keyboard-response,5,77848,0.0-5.0-0.0,"""event"",""trial"",""time""
""fullscreenenter"",""0"",""3941""
","
","
","""event"",""trial"",""time""
""fullscreenenter"",""0"",""3941""
","
",null,"<div style=""font-size:60px;"">+</div>",NA,null,fixation,2020-07-06T16:58:33Z,NA,NA,NA,NA,NA,sub90
NA,mars-trial,6,107971,0.0-5.0-1.0,"""event"",""trial"",""time""
""fullscreenenter"",""0"",""3941""
","
","
","""event"",""trial"",""time""
""fullscreenenter"",""0"",""3941""
","
",null,<img style='border: 4px solid darkgrey;' src='practice/pt1_M1.png'></img>,null,NA,practice,NA,null,<img src='practice/pt1_T1.png'></img>,0,FALSE,NA,sub90
NA,html-keyboard-response,7,108474,0.0-5.1-0.1,"""event"",""trial"",""time""
""fullscreenenter"",""0"",""3941""
","
","
","""event"",""trial"",""time""
""fullscreenenter"",""0"",""3941""
","
",null,"<div style=""font-size:60px;"">+</div>",NA,null,fixation,2020-07-06T16:59:03Z,NA,NA,NA,NA,NA,sub90
NA,mars-trial,8,117839,0.0-5.1-1.1,"""event"",""trial"",""time""
""fullscreenenter"",""0"",""3941""
","
","
","""event"",""trial"",""time""
""fullscreenenter"",""0"",""3941""
","
",7256.340000079945,<img style='border: 4px solid darkgrey;' src='practice/pt1_M1.png'></img>,1,NA,practice,NA,0,<img src='practice/pt1_T1.png'></img>,0,TRUE,NA,sub90
NA,html-keyboard-response,9,118342,0.0-6.0-0.0,"""event"",""trial"",""time""
""fullscreenenter"",""0"",""3941""
","
","
","""event"",""trial"",""time""
""fullscreenenter"",""0"",""3941""
","
",null,"<div style=""font-size:60px;"">+</div>",NA,null,fixation,2020-07-06T16:59:13Z,NA,NA,NA,NA,NA,sub90
NA,mars-trial,10,128431,0.0-6.0-1.0,"""event"",""trial"",""time""
""fullscreenenter"",""0"",""3941""
","
","
","""event"",""trial"",""time""
""fullscreenenter"",""0"",""3941""
","
",7980.804999941029,<img style='border: 4px solid darkgrey;' src='practice/pt2_M1.png'></img>,2,NA,practice,NA,0,<img src='practice/pt2_T1.png'></img>,0,TRUE,NA,sub90
NA,html-keyboard-response,11,128933,0.0-7.0-0.0,"""event"",""trial"",""time""
""fullscreenenter"",""0"",""3941""
","
","
","""event"",""trial"",""time""
""fullscreenenter"",""0"",""3941""
","
",null,"<div style=""font-size:60px;"">+</div>",NA,null,fixation,2020-07-06T16:59:24Z,NA,NA,NA,NA,NA,sub90
NA,mars-trial,12,133144,0.0-7.0-1.0,"""event"",""trial"",""time""
""fullscreenenter"",""0"",""3941""
","
","
","""event"",""trial"",""time""
""fullscreenenter"",""0"",""3941""
","
",2104.259999934584,<img style='border: 4px solid darkgrey;' src='practice/pt3_M1.png'></img>,1,NA,practice,NA,0,<img src='practice/pt3_T1.png'></img>,0,TRUE,NA,sub90
NA,audio-button-response,13,137517,0.0-8.0,"""event"",""trial"",""time""
""fullscreenenter"",""0"",""3941""
","
","
","""event"",""trial"",""time""
""fullscreenenter"",""0"",""3941""
","
",4371.0500000743195,audio/mars_instructions_slide4.wav,0,NA,NA,NA,NA,NA,NA,NA,NA,sub90
NA,call-function,14,137519,0.0-9.0,"""event"",""trial"",""time""
""fullscreenenter"",""0"",""3941""
","
","
","""event"",""trial"",""time""
""fullscreenenter"",""0"",""3941""
","
",NA,NA,NA,NA,NA,NA,NA,NA,NA,NA,NA,sub90
NA,html-keyboard-response,15,138029,0.0-10.0-0.0,"""event"",""trial"",""time""
""fullscreenenter"",""0"",""3941""
","
","
","""event"",""trial"",""time""
""fullscreenenter"",""0"",""3941""
","
",null,"<div style=""font-size:60px;"">+</div>",NA,null,fixation,2020-07-06T16:59:33Z,NA,NA,NA,NA,NA,sub90
NA,mars-trial,16,142194,0.0-10.0-1.0,"""event"",""trial"",""time""
""fullscreenenter"",""0"",""3941""
","
","
","""event"",""trial"",""time""
""fullscreenenter"",""0"",""3941""
","
",3523.1250000651926,<img style='border: 4px solid darkgrey;' src='img/tf1_1_M_ss3.jpeg'></img>,1,NA,exp,NA,0,<img src='img/tf1_1_T1_ss3_md.jpeg'></img>,0,TRUE,NA,sub90
NA,html-keyboard-response,17,142703,0.0-10.0-0.1,"""event"",""trial"",""time""
""fullscreenenter"",""0"",""3941""
","
","
","""event"",""trial"",""time""
""fullscreenenter"",""0"",""3941""
","
",null,"<div style=""font-size:60px;"">+</div>",NA,null,fixation,2020-07-06T16:59:37Z,NA,NA,NA,NA,NA,sub90
NA,mars-trial,18,146882,0.0-10.0-1.1,"""event"",""trial"",""time""
""fullscreenenter"",""0"",""3941""
","
","
","""event"",""trial"",""time""
""fullscreenenter"",""0"",""3941""
","
",3564.170000026934,<img style='border: 4px solid darkgrey;' src='img/tf1_2_M_ss1.jpeg'></img>,3,NA,exp,NA,0,<img src='img/tf1_2_T1_ss1_md.jpeg'></img>,0,TRUE,NA,sub90
NA,html-keyboard-response,19,147385,0.0-10.0-0.2,"""event"",""trial"",""time""
""fullscreenenter"",""0"",""3941""
","
","
","""event"",""trial"",""time""
""fullscreenenter"",""0"",""3941""
","
",null,"<div style=""font-size:60px;"">+</div>",NA,null,fixation,2020-07-06T16:59:42Z,NA,NA,NA,NA,NA,sub90
NA,mars-trial,20,151723,0.0-10.0-1.2,"""event"",""trial"",""time""
""fullscreenenter"",""0"",""3941""
","
","
","""event"",""trial"",""time""
""fullscreenenter"",""0"",""3941""
","
",3699.5800000149757,<img style='border: 4px solid darkgrey;' src='img/tf1_3_M_ss2.jpeg'></img>,3,NA,exp,NA,0,<img src='img/tf1_3_T1_ss2_md.jpeg'></img>,0,TRUE,NA,sub90
NA,html-keyboard-response,21,152233,0.0-10.0-0.3,"""event"",""trial"",""time""
""fullscreenenter"",""0"",""3941""
","
","
","""event"",""trial"",""time""
""fullscreenenter"",""0"",""3941""
","
",null,"<div style=""font-size:60px;"">+</div>",NA,null,fixation,2020-07-06T16:59:47Z,NA,NA,NA,NA,NA,sub90
NA,mars-trial,22,157298,0.0-10.0-1.3,"""event"",""trial"",""time""
""fullscreenenter"",""0"",""3941""
","
","
","""event"",""trial"",""time""
""fullscreenenter"",""0"",""3941""
","
",4428.970000008121,<img style='border: 4px solid darkgrey;' src='img/tf1_4_M_ss3.jpeg'></img>,0,NA,exp,NA,0,<img src='img/tf1_4_T1_ss3_md.jpeg'></img>,0,TRUE,NA,sub90
NA,html-keyboard-response,23,157803,0.0-10.0-0.4,"""event"",""trial"",""time""
""fullscreenenter"",""0"",""3941""
","
","
","""event"",""trial"",""time""
""fullscreenenter"",""0"",""3941""
","
",null,"<div style=""font-size:60px;"">+</div>",NA,null,fixation,2020-07-06T16:59:53Z,NA,NA,NA,NA,NA,sub90
NA,mars-trial,24,162043,0.0-10.0-1.4,"""event"",""trial"",""time""
""fullscreenenter"",""0"",""3941""
","
","
","""event"",""trial"",""time""
""fullscreenenter"",""0"",""3941""
","
",3595.755000016652,<img style='border: 4px solid darkgrey;' src='img/tf1_5_M_ss1.jpeg'></img>,2,NA,exp,NA,0,<img src='img/tf1_5_T1_ss1_md.jpeg'></img>,0,TRUE,NA,sub90
NA,html-keyboard-response,25,162549,0.0-10.0-0.5,"""event"",""trial"",""time""
""fullscreenenter"",""0"",""3941""
","
","
","""event"",""trial"",""time""
""fullscreenenter"",""0"",""3941""
","
",null,"<div style=""font-size:60px;"">+</div>",NA,null,fixation,2020-07-06T16:59:57Z,NA,NA,NA,NA,NA,sub90
NA,mars-trial,26,182000,0.0-10.0-1.5,"""event"",""trial"",""time""
""fullscreenenter"",""0"",""3941""
","
","
","""event"",""trial"",""time""
""fullscreenenter"",""0"",""3941""
","
",18820.300000021234,<img style='border: 4px solid darkgrey;' src='img/tf1_6_M_ss2.jpeg'></img>,2,NA,exp,NA,0,<img src='img/tf1_6_T1_ss2_md.jpeg'></img>,0,TRUE,NA,sub90
NA,html-keyboard-response,27,182502,0.0-10.0-0.6,"""event"",""trial"",""time""
""fullscreenenter"",""0"",""3941""
","
","
","""event"",""trial"",""time""
""fullscreenenter"",""0"",""3941""
","
",null,"<div style=""font-size:60px;"">+</div>",NA,null,fixation,2020-07-06T17:00:17Z,NA,NA,NA,NA,NA,sub90
NA,mars-trial,28,188855,0.0-10.0-1.6,"""event"",""trial"",""time""
""fullscreenenter"",""0"",""3941""
","
","
","""event"",""trial"",""time""
""fullscreenenter"",""0"",""3941""
","
",5745.614999905229,<img style='border: 4px solid darkgrey;' src='img/tf1_7_M_ss3.jpeg'></img>,1,NA,exp,NA,0,<img src='img/tf1_7_T1_ss3_md.jpeg'></img>,0,TRUE,NA,sub90
NA,html-keyboard-response,29,189357,0.0-10.0-0.7,"""event"",""trial"",""time""
""fullscreenenter"",""0"",""3941""
","
","
","""event"",""trial"",""time""
""fullscreenenter"",""0"",""3941""
","
",null,"<div style=""font-size:60px;"">+</div>",NA,null,fixation,2020-07-06T17:00:24Z,NA,NA,NA,NA,NA,sub90
NA,mars-trial,30,193700,0.0-10.0-1.7,"""event"",""trial"",""time""
""fullscreenenter"",""0"",""3941""
","
","
","""event"",""trial"",""time""
""fullscreenenter"",""0"",""3941""
","
",3736.0650000628084,<img style='border: 4px solid darkgrey;' src='img/tf1_8_M_ss1.jpeg'></img>,3,NA,exp,NA,0,<img src='img/tf1_8_T1_ss1_md.jpeg'></img>,0,TRUE,NA,sub90
NA,html-keyboard-response,31,194202,0.0-10.0-0.8,"""event"",""trial"",""time""
""fullscreenenter"",""0"",""3941""
","
","
","""event"",""trial"",""time""
""fullscreenenter"",""0"",""3941""
","
",null,"<div style=""font-size:60px;"">+</div>",NA,null,fixation,2020-07-06T17:00:29Z,NA,NA,NA,NA,NA,sub90
NA,mars-trial,32,201293,0.0-10.0-1.8,"""event"",""trial"",""time""
""fullscreenenter"",""0"",""3941""
","
","
","""event"",""trial"",""time""
""fullscreenenter"",""0"",""3941""
","
",6482.239999924786,<img style='border: 4px solid darkgrey;' src='img/tf1_9_M_ss2.jpeg'></img>,3,NA,exp,NA,0,<img src='img/tf1_9_T1_ss2_md.jpeg'></img>,0,TRUE,NA,sub90
NA,html-keyboard-response,33,201796,0.0-10.0-0.9,"""event"",""trial"",""time""
""fullscreenenter"",""0"",""3941""
","
","
","""event"",""trial"",""time""
""fullscreenenter"",""0"",""3941""
","
",null,"<div style=""font-size:60px;"">+</div>",NA,null,fixation,2020-07-06T17:00:37Z,NA,NA,NA,NA,NA,sub90
NA,mars-trial,34,208080,0.0-10.0-1.9,"""event"",""trial"",""time""
""fullscreenenter"",""0"",""3941""
","
","
","""event"",""trial"",""time""
""fullscreenenter"",""0"",""3941""
","
",5676.6399999614805,<img style='border: 4px solid darkgrey;' src='img/tf1_10_M_ss3.jpeg'></img>,2,NA,exp,NA,1,<img src='img/tf1_10_T1_ss3_md.jpeg'></img>,0,FALSE,NA,sub90
NA,html-keyboard-response,35,208583,0.0-10.0-0.10,"""event"",""trial"",""time""
""fullscreenenter"",""0"",""3941""
","
","
","""event"",""trial"",""time""
""fullscreenenter"",""0"",""3941""
","
",null,"<div style=""font-size:60px;"">+</div>",NA,null,fixation,2020-07-06T17:00:43Z,NA,NA,NA,NA,NA,sub90
NA,mars-trial,36,223878,0.0-10.0-1.10,"""event"",""trial"",""time""
""fullscreenenter"",""0"",""3941""
","
","
","""event"",""trial"",""time""
""fullscreenenter"",""0"",""3941""
","
",14686.985000036657,<img style='border: 4px solid darkgrey;' src='img/tf1_11_M_ss1.jpeg'></img>,3,NA,exp,NA,2,<img src='img/tf1_11_T1_ss1_md.jpeg'></img>,0,FALSE,NA,sub90
NA,html-keyboard-response,37,224381,0.0-10.0-0.11,"""event"",""trial"",""time""
""fullscreenenter"",""0"",""3941""
","
","
","""event"",""trial"",""time""
""fullscreenenter"",""0"",""3941""
","
",null,"<div style=""font-size:60px;"">+</div>",NA,null,fixation,2020-07-06T17:00:59Z,NA,NA,NA,NA,NA,sub90
NA,mars-trial,38,229707,0.0-10.0-1.11,"""event"",""trial"",""time""
""fullscreenenter"",""0"",""3941""
","
","
","""event"",""trial"",""time""
""fullscreenenter"",""0"",""3941""
","
",4719.154999940656,<img style='border: 4px solid darkgrey;' src='img/tf1_12_M_ss2.jpeg'></img>,0,NA,exp,NA,1,<img src='img/tf1_12_T1_ss2_md.jpeg'></img>,0,FALSE,NA,sub90
NA,html-keyboard-response,39,230209,0.0-10.0-0.12,"""event"",""trial"",""time""
""fullscreenenter"",""0"",""3941""
","
","
","""event"",""trial"",""time""
""fullscreenenter"",""0"",""3941""
","
",null,"<div style=""font-size:60px;"">+</div>",NA,null,fixation,2020-07-06T17:01:05Z,NA,NA,NA,NA,NA,sub90
NA,mars-trial,40,241424,0.0-10.0-1.12,"""event"",""trial"",""time""
""fullscreenenter"",""0"",""3941""
","
","
","""event"",""trial"",""time""
""fullscreenenter"",""0"",""3941""
","
",10607.644999981858,<img style='border: 4px solid darkgrey;' src='img/tf1_13_M_ss3.jpeg'></img>,1,NA,exp,NA,3,<img src='img/tf1_13_T1_ss3_md.jpeg'></img>,0,FALSE,NA,sub90
NA,html-keyboard-response,41,241928,0.0-10.0-0.13,"""event"",""trial"",""time""
""fullscreenenter"",""0"",""3941""
","
","
","""event"",""trial"",""time""
""fullscreenenter"",""0"",""3941""
","
",null,"<div style=""font-size:60px;"">+</div>",NA,null,fixation,2020-07-06T17:01:17Z,NA,NA,NA,NA,NA,sub90
NA,mars-trial,42,249173,0.0-10.0-1.13,"""event"",""trial"",""time""
""fullscreenenter"",""0"",""3941""
","
","
","""event"",""trial"",""time""
""fullscreenenter"",""0"",""3941""
","
",6636.810000054538,<img style='border: 4px solid darkgrey;' src='img/tf1_14_M_ss1.jpeg'></img>,2,NA,exp,NA,3,<img src='img/tf1_14_T1_ss1_md.jpeg'></img>,0,FALSE,NA,sub90
NA,html-keyboard-response,43,249676,0.0-10.0-0.14,"""event"",""trial"",""time""
""fullscreenenter"",""0"",""3941""
","
","
","""event"",""trial"",""time""
""fullscreenenter"",""0"",""3941""
","
",null,"<div style=""font-size:60px;"">+</div>",NA,null,fixation,2020-07-06T17:01:24Z,NA,NA,NA,NA,NA,sub90
NA,mars-trial,44,257794,0.0-10.0-1.14,"""event"",""trial"",""time""
""fullscreenenter"",""0"",""3941""
","
","
","""event"",""trial"",""time""
""fullscreenenter"",""0"",""3941""
","
",7511.330000008456,<img style='border: 4px solid darkgrey;' src='img/tf1_15_M_ss2.jpeg'></img>,1,NA,exp,NA,2,<img src='img/tf1_15_T1_ss2_md.jpeg'></img>,0,FALSE,NA,sub90
NA,html-keyboard-response,45,258296,0.0-10.0-0.15,"""event"",""trial"",""time""
""fullscreenenter"",""0"",""3941""
","
","
","""event"",""trial"",""time""
""fullscreenenter"",""0"",""3941""
","
",null,"<div style=""font-size:60px;"">+</div>",NA,null,fixation,2020-07-06T17:01:33Z,NA,NA,NA,NA,NA,sub90
NA,mars-trial,46,267410,0.0-10.0-1.15,"""event"",""trial"",""time""
""fullscreenenter"",""0"",""3941""
","
","
","""event"",""trial"",""time""
""fullscreenenter"",""0"",""3941""
","
",8507.439999957569,<img style='border: 4px solid darkgrey;' src='img/tf1_16_M_ss3.jpeg'></img>,2,NA,exp,NA,1,<img src='img/tf1_16_T1_ss3_md.jpeg'></img>,0,FALSE,NA,sub90
NA,html-keyboard-response,47,267912,0.0-10.0-0.16,"""event"",""trial"",""time""
""fullscreenenter"",""0"",""3941""
","
","
","""event"",""trial"",""time""
""fullscreenenter"",""0"",""3941""
","
",null,"<div style=""font-size:60px;"">+</div>",NA,null,fixation,2020-07-06T17:01:43Z,NA,NA,NA,NA,NA,sub90
NA,mars-trial,48,279589,0.0-10.0-1.16,"""event"",""trial"",""time""
""fullscreenenter"",""0"",""3941""
","
","
","""event"",""trial"",""time""
""fullscreenenter"",""0"",""3941""
","
",11068.534999969415,<img style='border: 4px solid darkgrey;' src='img/tf1_17_M_ss1.jpeg'></img>,3,NA,exp,NA,1,<img src='img/tf1_17_T1_ss1_md.jpeg'></img>,0,FALSE,NA,sub90
NA,html-keyboard-response,49,280091,0.0-10.0-0.17,"""event"",""trial"",""time""
""fullscreenenter"",""0"",""3941""
","
","
","""event"",""trial"",""time""
""fullscreenenter"",""0"",""3941""
","
",null,"<div style=""font-size:60px;"">+</div>",NA,null,fixation,2020-07-06T17:01:55Z,NA,NA,NA,NA,NA,sub90
NA,mars-trial,50,291529,0.0-10.0-1.17,"""event"",""trial"",""time""
""fullscreenenter"",""0"",""3941""
","
","
","""event"",""trial"",""time""
""fullscreenenter"",""0"",""3941""
","
",10829.695000080392,<img style='border: 4px solid darkgrey;' src='img/tf1_18_M_ss2.jpeg'></img>,2,NA,exp,NA,1,<img src='img/tf1_18_T1_ss2_md.jpeg'></img>,0,FALSE,NA,sub90
NA,html-keyboard-response,51,292030,0.0-10.0-0.18,"""event"",""trial"",""time""
""fullscreenenter"",""0"",""3941""
","
","
","""event"",""trial"",""time""
""fullscreenenter"",""0"",""3941""
","
",null,"<div style=""font-size:60px;"">+</div>",NA,null,fixation,2020-07-06T17:02:07Z,NA,NA,NA,NA,NA,sub90
NA,mars-trial,52,305613,0.0-10.0-1.18,"""event"",""trial"",""time""
""fullscreenenter"",""0"",""3941""
","
","
","""event"",""trial"",""time""
""fullscreenenter"",""0"",""3941""
","
",12975.435000029393,<img style='border: 4px solid darkgrey;' src='img/tf1_19_M_ss3.jpeg'></img>,0,NA,exp,NA,0,<img src='img/tf1_19_T1_ss3_md.jpeg'></img>,0,TRUE,NA,sub90
NA,html-keyboard-response,53,306116,0.0-10.0-0.19,"""event"",""trial"",""time""
""fullscreenenter"",""0"",""3941""
","
","
","""event"",""trial"",""time""
""fullscreenenter"",""0"",""3941""
","
",null,"<div style=""font-size:60px;"">+</div>",NA,null,fixation,2020-07-06T17:02:21Z,NA,NA,NA,NA,NA,sub90
NA,mars-trial,54,314374,0.0-10.0-1.19,"""event"",""trial"",""time""
""fullscreenenter"",""0"",""3941""
","
","
","""event"",""trial"",""time""
""fullscreenenter"",""0"",""3941""
","
",7650.765000027604,<img style='border: 4px solid darkgrey;' src='img/tf1_20_M_ss1.jpeg'></img>,1,NA,exp,NA,2,<img src='img/tf1_20_T1_ss1_md.jpeg'></img>,0,FALSE,NA,sub90
NA,html-keyboard-response,55,314877,0.0-10.0-0.20,"""event"",""trial"",""time""
""fullscreenenter"",""0"",""3941""
","
","
","""event"",""trial"",""time""
""fullscreenenter"",""0"",""3941""
","
",null,"<div style=""font-size:60px;"">+</div>",NA,null,fixation,2020-07-06T17:02:30Z,NA,NA,NA,NA,NA,sub90
NA,mars-trial,56,324928,0.0-10.0-1.20,"""event"",""trial"",""time""
""fullscreenenter"",""0"",""3941""
","
","
","""event"",""trial"",""time""
""fullscreenenter"",""0"",""3941""
","
",9441.209999960847,<img style='border: 4px solid darkgrey;' src='img/tf1_21_M_ss2.jpeg'></img>,3,NA,exp,NA,1,<img src='img/tf1_21_T1_ss2_md.jpeg'></img>,0,FALSE,NA,sub90
NA,html-keyboard-response,57,325431,0.0-10.0-0.21,"""event"",""trial"",""time""
""fullscreenenter"",""0"",""3941""
","
","
","""event"",""trial"",""time""
""fullscreenenter"",""0"",""3941""
","
",null,"<div style=""font-size:60px;"">+</div>",NA,null,fixation,2020-07-06T17:02:40Z,NA,NA,NA,NA,NA,sub90
NA,mars-trial,58,335249,0.0-10.0-1.21,"""event"",""trial"",""time""
""fullscreenenter"",""0"",""3941""
","
","
","""event"",""trial"",""time""
""fullscreenenter"",""0"",""3941""
","
",9210.480000008829,<img style='border: 4px solid darkgrey;' src='img/tf1_22_M_ss3.jpeg'></img>,3,NA,exp,NA,2,<img src='img/tf1_22_T1_ss3_md.jpeg'></img>,0,FALSE,NA,sub90
NA,html-keyboard-response,59,335752,0.0-10.0-0.22,"""event"",""trial"",""time""
""fullscreenenter"",""0"",""3941""
","
","
","""event"",""trial"",""time""
""fullscreenenter"",""0"",""3941""
","
",null,"<div style=""font-size:60px;"">+</div>",NA,null,fixation,2020-07-06T17:02:50Z,NA,NA,NA,NA,NA,sub90
NA,mars-trial,60,340906,0.0-10.0-1.22,"""event"",""trial"",""time""
""fullscreenenter"",""0"",""3941""
","
","
","""event"",""trial"",""time""
""fullscreenenter"",""0"",""3941""
","
",4548.32499998156,<img style='border: 4px solid darkgrey;' src='img/tf1_23_M_ss1.jpeg'></img>,2,NA,exp,NA,0,<img src='img/tf1_23_T1_ss1_md.jpeg'></img>,0,TRUE,NA,sub90
NA,html-keyboard-response,61,341408,0.0-10.0-0.23,"""event"",""trial"",""time""
""fullscreenenter"",""0"",""3941""
","
","
","""event"",""trial"",""time""
""fullscreenenter"",""0"",""3941""
","
",null,"<div style=""font-size:60px;"">+</div>",NA,null,fixation,2020-07-06T17:02:56Z,NA,NA,NA,NA,NA,sub90
NA,mars-trial,62,347993,0.0-10.0-1.23,"""event"",""trial"",""time""
""fullscreenenter"",""0"",""3941""
","
","
","""event"",""trial"",""time""
""fullscreenenter"",""0"",""3941""
","
",5976.52000002563,<img style='border: 4px solid darkgrey;' src='img/tf1_24_M_ss2.jpeg'></img>,0,NA,exp,NA,1,<img src='img/tf1_24_T1_ss2_md.jpeg'></img>,0,FALSE,NA,sub90
NA,html-keyboard-response,63,348496,0.0-10.0-0.24,"""event"",""trial"",""time""
""fullscreenenter"",""0"",""3941""
","
","
","""event"",""trial"",""time""
""fullscreenenter"",""0"",""3941""
","
",null,"<div style=""font-size:60px;"">+</div>",NA,null,fixation,2020-07-06T17:03:03Z,NA,NA,NA,NA,NA,sub90
NA,mars-trial,64,353378,0.0-10.0-1.24,"""event"",""trial"",""time""
""fullscreenenter"",""0"",""3941""
","
","
","""event"",""trial"",""time""
""fullscreenenter"",""0"",""3941""
","
",4276.124999974854,<img style='border: 4px solid darkgrey;' src='img/tf1_25_M_ss3.jpeg'></img>,0,NA,exp,NA,0,<img src='img/tf1_25_T1_ss3_md.jpeg'></img>,0,TRUE,NA,sub90
NA,html-keyboard-response,65,353880,0.0-10.0-0.25,"""event"",""trial"",""time""
""fullscreenenter"",""0"",""3941""
","
","
","""event"",""trial"",""time""
""fullscreenenter"",""0"",""3941""
","
",null,"<div style=""font-size:60px;"">+</div>",NA,null,fixation,2020-07-06T17:03:09Z,NA,NA,NA,NA,NA,sub90
NA,mars-trial,66,369737,0.0-10.0-1.25,"""event"",""trial"",""time""
""fullscreenenter"",""0"",""3941""
","
","
","""event"",""trial"",""time""
""fullscreenenter"",""0"",""3941""
","
",15249.29000006523,<img style='border: 4px solid darkgrey;' src='img/tf1_26_M_ss1.jpeg'></img>,3,NA,exp,NA,1,<img src='img/tf1_26_T1_ss1_md.jpeg'></img>,0,FALSE,NA,sub90
NA,html-keyboard-response,67,370240,0.0-10.0-0.26,"""event"",""trial"",""time""
""fullscreenenter"",""0"",""3941""
","
","
","""event"",""trial"",""time""
""fullscreenenter"",""0"",""3941""
","
",null,"<div style=""font-size:60px;"">+</div>",NA,null,fixation,2020-07-06T17:03:25Z,NA,NA,NA,NA,NA,sub90
NA,mars-trial,68,378139,0.0-10.0-1.26,"""event"",""trial"",""time""
""fullscreenenter"",""0"",""3941""
","
","
","""event"",""trial"",""time""
""fullscreenenter"",""0"",""3941""
","
",7292.439999990165,<img style='border: 4px solid darkgrey;' src='img/tf1_27_M_ss2.jpeg'></img>,2,NA,exp,NA,0,<img src='img/tf1_27_T1_ss2_md.jpeg'></img>,0,TRUE,NA,sub90
NA,html-keyboard-response,69,378641,0.0-10.0-0.27,"""event"",""trial"",""time""
""fullscreenenter"",""0"",""3941""
","
","
","""event"",""trial"",""time""
""fullscreenenter"",""0"",""3941""
","
",null,"<div style=""font-size:60px;"">+</div>",NA,null,fixation,2020-07-06T17:03:33Z,NA,NA,NA,NA,NA,sub90
NA,mars-trial,70,386587,0.0-10.0-1.27,"""event"",""trial"",""time""
""fullscreenenter"",""0"",""3941""
","
","
","""event"",""trial"",""time""
""fullscreenenter"",""0"",""3941""
","
",7338.649999932386,<img style='border: 4px solid darkgrey;' src='img/tf1_28_M_ss3.jpeg'></img>,0,NA,exp,NA,0,<img src='img/tf1_28_T1_ss3_md.jpeg'></img>,0,TRUE,NA,sub90
NA,html-keyboard-response,71,387090,0.0-10.0-0.28,"""event"",""trial"",""time""
""fullscreenenter"",""0"",""3941""
","
","
","""event"",""trial"",""time""
""fullscreenenter"",""0"",""3941""
","
",null,"<div style=""font-size:60px;"">+</div>",NA,null,fixation,2020-07-06T17:03:42Z,NA,NA,NA,NA,NA,sub90
NA,mars-trial,72,401667,0.0-10.0-1.28,"""event"",""trial"",""time""
""fullscreenenter"",""0"",""3941""
","
","
","""event"",""trial"",""time""
""fullscreenenter"",""0"",""3941""
","
",13969.834999996237,<img style='border: 4px solid darkgrey;' src='img/tf1_29_M_ss1.jpeg'></img>,2,NA,exp,NA,0,<img src='img/tf1_29_T1_ss1_md.jpeg'></img>,0,TRUE,NA,sub90
NA,html-keyboard-response,73,402170,0.0-10.0-0.29,"""event"",""trial"",""time""
""fullscreenenter"",""0"",""3941""
","
","
","""event"",""trial"",""time""
""fullscreenenter"",""0"",""3941""
","
",null,"<div style=""font-size:60px;"">+</div>",NA,null,fixation,2020-07-06T17:03:57Z,NA,NA,NA,NA,NA,sub90
NA,mars-trial,74,417092,0.0-10.0-1.29,"""event"",""trial"",""time""
""fullscreenenter"",""0"",""3941""
","
","
","""event"",""trial"",""time""
""fullscreenenter"",""0"",""3941""
","
",14314.920000033453,<img style='border: 4px solid darkgrey;' src='img/tf1_30_M_ss2.jpeg'></img>,2,NA,exp,NA,2,<img src='img/tf1_30_T1_ss2_md.jpeg'></img>,0,FALSE,NA,sub90
NA,html-keyboard-response,75,417593,0.0-10.0-0.30,"""event"",""trial"",""time""
""fullscreenenter"",""0"",""3941""
","
","
","""event"",""trial"",""time""
""fullscreenenter"",""0"",""3941""
","
",null,"<div style=""font-size:60px;"">+</div>",NA,null,fixation,2020-07-06T17:04:12Z,NA,NA,NA,NA,NA,sub90
NA,mars-trial,76,425759,0.0-10.0-1.30,"""event"",""trial"",""time""
""fullscreenenter"",""0"",""3941""
","
","
","""event"",""trial"",""time""
""fullscreenenter"",""0"",""3941""
","
",7558.829999994487,<img style='border: 4px solid darkgrey;' src='img/tf1_31_M_ss3.jpeg'></img>,3,NA,exp,NA,1,<img src='img/tf1_31_T1_ss3_md.jpeg'></img>,0,FALSE,NA,sub90
NA,html-keyboard-response,77,426261,0.0-10.0-0.31,"""event"",""trial"",""time""
""fullscreenenter"",""0"",""3941""
","
","
","""event"",""trial"",""time""
""fullscreenenter"",""0"",""3941""
","
",null,"<div style=""font-size:60px;"">+</div>",NA,null,fixation,2020-07-06T17:04:21Z,NA,NA,NA,NA,NA,sub90
NA,mars-trial,78,436374,0.0-10.0-1.31,"""event"",""trial"",""time""
""fullscreenenter"",""0"",""3941""
","
","
","""event"",""trial"",""time""
""fullscreenenter"",""0"",""3941""
","
",9507.525000022724,<img style='border: 4px solid darkgrey;' src='img/tf1_32_M_ss1.jpeg'></img>,1,NA,exp,NA,0,<img src='img/tf1_32_T1_ss1_md.jpeg'></img>,0,TRUE,NA,sub90
NA,html-keyboard-response,79,436877,0.0-10.0-0.32,"""event"",""trial"",""time""
""fullscreenenter"",""0"",""3941""
","
","
","""event"",""trial"",""time""
""fullscreenenter"",""0"",""3941""
","
",null,"<div style=""font-size:60px;"">+</div>",NA,null,fixation,2020-07-06T17:04:32Z,NA,NA,NA,NA,NA,sub90
NA,mars-trial,80,444526,0.0-10.0-1.32,"""event"",""trial"",""time""
""fullscreenenter"",""0"",""3941""
","
","
","""event"",""trial"",""time""
""fullscreenenter"",""0"",""3941""
","
",7042.299999971874,<img style='border: 4px solid darkgrey;' src='img/tf1_33_M_ss2.jpeg'></img>,3,NA,exp,NA,0,<img src='img/tf1_33_T1_ss2_md.jpeg'></img>,0,TRUE,NA,sub90
NA,html-keyboard-response,81,445028,0.0-10.0-0.33,"""event"",""trial"",""time""
""fullscreenenter"",""0"",""3941""
","
","
","""event"",""trial"",""time""
""fullscreenenter"",""0"",""3941""
","
",null,"<div style=""font-size:60px;"">+</div>",NA,null,fixation,2020-07-06T17:04:40Z,NA,NA,NA,NA,NA,sub90
NA,mars-trial,82,450082,0.0-10.0-1.33,"""event"",""trial"",""time""
""fullscreenenter"",""0"",""3941""
","
","
","""event"",""trial"",""time""
""fullscreenenter"",""0"",""3941""
","
",4447.69499998074,<img style='border: 4px solid darkgrey;' src='img/tf1_34_M_ss3.jpeg'></img>,2,NA,exp,NA,2,<img src='img/tf1_34_T1_ss3_md.jpeg'></img>,0,FALSE,NA,sub90
NA,html-keyboard-response,83,450584,0.0-10.0-0.34,"""event"",""trial"",""time""
""fullscreenenter"",""0"",""3941""
","
","
","""event"",""trial"",""time""
""fullscreenenter"",""0"",""3941""
","
",null,"<div style=""font-size:60px;"">+</div>",NA,null,fixation,2020-07-06T17:04:45Z,NA,NA,NA,NA,NA,sub90
NA,mars-trial,84,454789,0.0-10.0-1.34,"""event"",""trial"",""time""
""fullscreenenter"",""0"",""3941""
","
","
","""event"",""trial"",""time""
""fullscreenenter"",""0"",""3941""
","
",3598.2749999966472,<img style='border: 4px solid darkgrey;' src='img/tf1_35_M_ss1.jpeg'></img>,2,NA,exp,NA,1,<img src='img/tf1_35_T1_ss1_md.jpeg'></img>,0,FALSE,NA,sub90
NA,html-keyboard-response,85,455292,0.0-10.0-0.35,"""event"",""trial"",""time""
""fullscreenenter"",""0"",""3941""
","
","
","""event"",""trial"",""time""
""fullscreenenter"",""0"",""3941""
","
",null,"<div style=""font-size:60px;"">+</div>",NA,null,fixation,2020-07-06T17:04:50Z,NA,NA,NA,NA,NA,sub90
NA,mars-trial,86,461486,0.0-10.0-1.35,"""event"",""trial"",""time""
""fullscreenenter"",""0"",""3941""
","
","
","""event"",""trial"",""time""
""fullscreenenter"",""0"",""3941""
","
",5586.099999956787,<img style='border: 4px solid darkgrey;' src='img/tf1_36_M_ss2.jpeg'></img>,1,NA,exp,NA,3,<img src='img/tf1_36_T1_ss2_md.jpeg'></img>,0,FALSE,NA,sub90
NA,html-keyboard-response,87,461989,0.0-10.0-0.36,"""event"",""trial"",""time""
""fullscreenenter"",""0"",""3941""
","
","
","""event"",""trial"",""time""
""fullscreenenter"",""0"",""3941""
","
",null,"<div style=""font-size:60px;"">+</div>",NA,null,fixation,2020-07-06T17:04:57Z,NA,NA,NA,NA,NA,sub90
NA,mars-trial,88,472420,0.0-10.0-1.36,"""event"",""trial"",""time""
""fullscreenenter"",""0"",""3941""
","
","
","""event"",""trial"",""time""
""fullscreenenter"",""0"",""3941""
","
",9823.609999963082,<img style='border: 4px solid darkgrey;' src='img/tf1_37_M_ss3.jpeg'></img>,2,NA,exp,NA,0,<img src='img/tf1_37_T1_ss3_md.jpeg'></img>,0,TRUE,NA,sub90
NA,html-keyboard-response,89,472923,0.0-10.0-0.37,"""event"",""trial"",""time""
""fullscreenenter"",""0"",""3941""
","
","
","""event"",""trial"",""time""
""fullscreenenter"",""0"",""3941""
","
",null,"<div style=""font-size:60px;"">+</div>",NA,null,fixation,2020-07-06T17:05:08Z,NA,NA,NA,NA,NA,sub90
NA,mars-trial,90,478975,0.0-10.0-1.37,"""event"",""trial"",""time""
""fullscreenenter"",""0"",""3941""
","
","
","""event"",""trial"",""time""
""fullscreenenter"",""0"",""3941""
","
",5445.515000028536,<img style='border: 4px solid darkgrey;' src='img/tf1_38_M_ss1.jpeg'></img>,3,NA,exp,NA,0,<img src='img/tf1_38_T1_ss1_md.jpeg'></img>,0,TRUE,NA,sub90
NA,html-keyboard-response,91,479477,0.0-10.0-0.38,"""event"",""trial"",""time""
""fullscreenenter"",""0"",""3941""
","
","
","""event"",""trial"",""time""
""fullscreenenter"",""0"",""3941""
","
",null,"<div style=""font-size:60px;"">+</div>",NA,null,fixation,2020-07-06T17:05:14Z,NA,NA,NA,NA,NA,sub90
NA,mars-trial,92,490331,0.0-10.0-1.38,"""event"",""trial"",""time""
""fullscreenenter"",""0"",""3941""
","
","
","""event"",""trial"",""time""
""fullscreenenter"",""0"",""3941""
","
",10247.179999947548,<img style='border: 4px solid darkgrey;' src='img/tf1_39_M_ss2.jpeg'></img>,2,NA,exp,NA,0,<img src='img/tf1_39_T1_ss2_md.jpeg'></img>,0,TRUE,NA,sub90
NA,html-keyboard-response,93,490834,0.0-10.0-0.39,"""event"",""trial"",""time""
""fullscreenenter"",""0"",""3941""
","
","
","""event"",""trial"",""time""
""fullscreenenter"",""0"",""3941""
","
",null,"<div style=""font-size:60px;"">+</div>",NA,null,fixation,2020-07-06T17:05:26Z,NA,NA,NA,NA,NA,sub90
NA,mars-trial,94,498477,0.0-10.0-1.39,"""event"",""trial"",""time""
""fullscreenenter"",""0"",""3941""
","
","
","""event"",""trial"",""time""
""fullscreenenter"",""0"",""3941""
","
",7034.570000017993,<img style='border: 4px solid darkgrey;' src='img/tf1_40_M_ss3.jpeg'></img>,1,NA,exp,NA,0,<img src='img/tf1_40_T1_ss3_md.jpeg'></img>,0,TRUE,NA,sub90
NA,html-keyboard-response,95,498979,0.0-10.0-0.40,"""event"",""trial"",""time""
""fullscreenenter"",""0"",""3941""
","
","
","""event"",""trial"",""time""
""fullscreenenter"",""0"",""3941""
","
",null,"<div style=""font-size:60px;"">+</div>",NA,null,fixation,2020-07-06T17:05:34Z,NA,NA,NA,NA,NA,sub90
NA,mars-trial,96,509624,0.0-10.0-1.40,"""event"",""trial"",""time""
""fullscreenenter"",""0"",""3941""
","
","
","""event"",""trial"",""time""
""fullscreenenter"",""0"",""3941""
","
",10034.869999974035,<img style='border: 4px solid darkgrey;' src='img/tf1_41_M_ss1.jpeg'></img>,3,NA,exp,NA,2,<img src='img/tf1_41_T1_ss1_md.jpeg'></img>,0,FALSE,NA,sub90
NA,html-keyboard-response,97,510126,0.0-10.0-0.41,"""event"",""trial"",""time""
""fullscreenenter"",""0"",""3941""
","
","
","""event"",""trial"",""time""
""fullscreenenter"",""0"",""3941""
","
",null,"<div style=""font-size:60px;"">+</div>",NA,null,fixation,2020-07-06T17:05:45Z,NA,NA,NA,NA,NA,sub90
NA,mars-trial,98,520002,0.0-10.0-1.41,"""event"",""trial"",""time""
""fullscreenenter"",""0"",""3941""
","
","
","""event"",""trial"",""time""
""fullscreenenter"",""0"",""3941""
","
",9268.079999950714,<img style='border: 4px solid darkgrey;' src='img/tf1_42_M_ss2.jpeg'></img>,1,NA,exp,NA,1,<img src='img/tf1_42_T1_ss2_md.jpeg'></img>,0,FALSE,NA,sub90
NA,html-keyboard-response,99,520505,0.0-10.0-0.42,"""event"",""trial"",""time""
""fullscreenenter"",""0"",""3941""
","
","
","""event"",""trial"",""time""
""fullscreenenter"",""0"",""3941""
","
",null,"<div style=""font-size:60px;"">+</div>",NA,null,fixation,2020-07-06T17:05:55Z,NA,NA,NA,NA,NA,sub90
NA,mars-trial,100,526177,0.0-10.0-1.42,"""event"",""trial"",""time""
""fullscreenenter"",""0"",""3941""
","
","
","""event"",""trial"",""time""
""fullscreenenter"",""0"",""3941""
","
",5063.969999901019,<img style='border: 4px solid darkgrey;' src='img/tf1_43_M_ss3.jpeg'></img>,2,NA,exp,NA,1,<img src='img/tf1_43_T1_ss3_md.jpeg'></img>,0,FALSE,NA,sub90
NA,html-keyboard-response,101,526679,0.0-10.0-0.43,"""event"",""trial"",""time""
""fullscreenenter"",""0"",""3941""
","
","
","""event"",""trial"",""time""
""fullscreenenter"",""0"",""3941""
","
",null,"<div style=""font-size:60px;"">+</div>",NA,null,fixation,2020-07-06T17:06:01Z,NA,NA,NA,NA,NA,sub90
NA,mars-trial,102,534570,0.0-10.0-1.43,"""event"",""trial"",""time""
""fullscreenenter"",""0"",""3941""
","
","
","""event"",""trial"",""time""
""fullscreenenter"",""0"",""3941""
","
",7283.710000105202,<img style='border: 4px solid darkgrey;' src='img/tf1_44_M_ss1.jpeg'></img>,2,NA,exp,NA,3,<img src='img/tf1_44_T1_ss1_md.jpeg'></img>,0,FALSE,NA,sub90
NA,html-keyboard-response,103,535074,0.0-10.0-0.44,"""event"",""trial"",""time""
""fullscreenenter"",""0"",""3941""
","
","
","""event"",""trial"",""time""
""fullscreenenter"",""0"",""3941""
","
",null,"<div style=""font-size:60px;"">+</div>",NA,null,fixation,2020-07-06T17:06:10Z,NA,NA,NA,NA,NA,sub90
NA,mars-trial,104,539730,0.0-10.0-1.44,"""event"",""trial"",""time""
""fullscreenenter"",""0"",""3941""
","
","
","""event"",""trial"",""time""
""fullscreenenter"",""0"",""3941""
","
",4048.3049999456853,<img style='border: 4px solid darkgrey;' src='img/tf1_45_M_ss2.jpeg'></img>,1,NA,exp,NA,3,<img src='img/tf1_45_T1_ss2_md.jpeg'></img>,0,FALSE,NA,sub90
NA,html-keyboard-response,105,540232,0.0-10.0-0.45,"""event"",""trial"",""time""
""fullscreenenter"",""0"",""3941""
","
","
","""event"",""trial"",""time""
""fullscreenenter"",""0"",""3941""
","
",null,"<div style=""font-size:60px;"">+</div>",NA,null,fixation,2020-07-06T17:06:15Z,NA,NA,NA,NA,NA,sub90
NA,mars-trial,106,544100,0.0-10.0-1.45,"""event"",""trial"",""time""
""fullscreenenter"",""0"",""3941""
","
","
","""event"",""trial"",""time""
""fullscreenenter"",""0"",""3941""
","
",3261.545000015758,<img style='border: 4px solid darkgrey;' src='img/tf1_46_M_ss3.jpeg'></img>,2,NA,exp,NA,1,<img src='img/tf1_46_T1_ss3_md.jpeg'></img>,0,FALSE,NA,sub90
NA,html-keyboard-response,107,544603,0.0-10.0-0.46,"""event"",""trial"",""time""
""fullscreenenter"",""0"",""3941""
","
","
","""event"",""trial"",""time""
""fullscreenenter"",""0"",""3941""
","
",null,"<div style=""font-size:60px;"">+</div>",NA,null,fixation,2020-07-06T17:06:19Z,NA,NA,NA,NA,NA,sub90
NA,mars-trial,108,548491,0.0-10.0-1.46,"""event"",""trial"",""time""
""fullscreenenter"",""0"",""3941""
","
","
","""event"",""trial"",""time""
""fullscreenenter"",""0"",""3941""
","
",3280.034999945201,<img style='border: 4px solid darkgrey;' src='img/tf1_47_M_ss1.jpeg'></img>,2,NA,exp,NA,3,<img src='img/tf1_47_T1_ss1_md.jpeg'></img>,0,FALSE,NA,sub90
NA,html-keyboard-response,109,548993,0.0-10.0-0.47,"""event"",""trial"",""time""
""fullscreenenter"",""0"",""3941""
","
","
","""event"",""trial"",""time""
""fullscreenenter"",""0"",""3941""
","
",null,"<div style=""font-size:60px;"">+</div>",NA,null,fixation,2020-07-06T17:06:24Z,NA,NA,NA,NA,NA,sub90
NA,mars-trial,110,565298,0.0-10.0-1.47,"""event"",""trial"",""time""
""fullscreenenter"",""0"",""3941""
","
","
","""event"",""trial"",""time""
""fullscreenenter"",""0"",""3941""
","
",15698.134999955073,<img style='border: 4px solid darkgrey;' src='img/tf1_48_M_ss2.jpeg'></img>,1,NA,exp,NA,0,<img src='img/tf1_48_T1_ss2_md.jpeg'></img>,0,TRUE,NA,sub90
NA,html-keyboard-response,111,565800,0.0-10.0-0.48,"""event"",""trial"",""time""
""fullscreenenter"",""0"",""3941""
","
","
","""event"",""trial"",""time""
""fullscreenenter"",""0"",""3941""
","
",null,"<div style=""font-size:60px;"">+</div>",NA,null,fixation,2020-07-06T17:06:41Z,NA,NA,NA,NA,NA,sub90
NA,mars-trial,112,570037,0.0-10.0-1.48,"""event"",""trial"",""time""
""fullscreenenter"",""0"",""3941""
","
","
","""event"",""trial"",""time""
""fullscreenenter"",""0"",""3941""
","
",3629.9300000537187,<img style='border: 4px solid darkgrey;' src='img/tf1_49_M_ss3.jpeg'></img>,0,NA,exp,NA,2,<img src='img/tf1_49_T1_ss3_md.jpeg'></img>,0,FALSE,NA,sub90
NA,html-keyboard-response,113,570539,0.0-10.0-0.49,"""event"",""trial"",""time""
""fullscreenenter"",""0"",""3941""
","
","
","""event"",""trial"",""time""
""fullscreenenter"",""0"",""3941""
","
",null,"<div style=""font-size:60px;"">+</div>",NA,null,fixation,2020-07-06T17:06:45Z,NA,NA,NA,NA,NA,sub90
NA,mars-trial,114,578398,0.0-10.0-1.49,"""event"",""trial"",""time""
""fullscreenenter"",""0"",""3941""
","
","
","""event"",""trial"",""time""
""fullscreenenter"",""0"",""3941""
","
",7252.704999991693,<img style='border: 4px solid darkgrey;' src='img/tf1_50_M_ss1.jpeg'></img>,2,NA,exp,NA,1,<img src='img/tf1_50_T1_ss1_md.jpeg'></img>,0,FALSE,NA,sub90
NA,html-keyboard-response,115,578900,0.0-10.0-0.50,"""event"",""trial"",""time""
""fullscreenenter"",""0"",""3941""
","
","
","""event"",""trial"",""time""
""fullscreenenter"",""0"",""3941""
","
",null,"<div style=""font-size:60px;"">+</div>",NA,null,fixation,2020-07-06T17:06:54Z,NA,NA,NA,NA,NA,sub90
NA,mars-trial,116,583160,0.0-10.0-1.50,"""event"",""trial"",""time""
""fullscreenenter"",""0"",""3941""
","
","
","""event"",""trial"",""time""
""fullscreenenter"",""0"",""3941""
","
",3652.73500001058,<img style='border: 4px solid darkgrey;' src='img/tf1_51_M_ss2.jpeg'></img>,0,NA,exp,NA,0,<img src='img/tf1_51_T1_ss2_md.jpeg'></img>,0,TRUE,NA,sub90
NA,html-keyboard-response,117,583662,0.0-10.0-0.51,"""event"",""trial"",""time""
""fullscreenenter"",""0"",""3941""
","
","
","""event"",""trial"",""time""
""fullscreenenter"",""0"",""3941""
","
",null,"<div style=""font-size:60px;"">+</div>",NA,null,fixation,2020-07-06T17:06:58Z,NA,NA,NA,NA,NA,sub90
NA,mars-trial,118,586778,0.0-10.0-1.51,"""event"",""trial"",""time""
""fullscreenenter"",""0"",""3941""
","
","
","""event"",""trial"",""time""
""fullscreenenter"",""0"",""3941""
","
",2510.484999977052,<img style='border: 4px solid darkgrey;' src='img/tf1_52_M_ss3.jpeg'></img>,0,NA,exp,NA,3,<img src='img/tf1_52_T1_ss3_md.jpeg'></img>,0,FALSE,NA,sub90
NA,html-keyboard-response,119,587280,0.0-10.0-0.52,"""event"",""trial"",""time""
""fullscreenenter"",""0"",""3941""
","
","
","""event"",""trial"",""time""
""fullscreenenter"",""0"",""3941""
","
",null,"<div style=""font-size:60px;"">+</div>",NA,null,fixation,2020-07-06T17:07:02Z,NA,NA,NA,NA,NA,sub90
NA,mars-trial,120,590299,0.0-10.0-1.52,"""event"",""trial"",""time""
""fullscreenenter"",""0"",""3941""
","
","
","""event"",""trial"",""time""
""fullscreenenter"",""0"",""3941""
","
",2413.759999908507,<img style='border: 4px solid darkgrey;' src='img/tf1_53_M_ss1.jpeg'></img>,0,NA,exp,NA,3,<img src='img/tf1_53_T1_ss1_md.jpeg'></img>,0,FALSE,NA,sub90
NA,html-keyboard-response,121,590801,0.0-10.0-0.53,"""event"",""trial"",""time""
""fullscreenenter"",""0"",""3941""
","
","
","""event"",""trial"",""time""
""fullscreenenter"",""0"",""3941""
","
",null,"<div style=""font-size:60px;"">+</div>",NA,null,fixation,2020-07-06T17:07:06Z,NA,NA,NA,NA,NA,sub90
NA,mars-trial,122,592497,0.0-10.0-1.53,"""event"",""trial"",""time""
""fullscreenenter"",""0"",""3941""
","
","
","""event"",""trial"",""time""
""fullscreenenter"",""0"",""3941""
","
",1089.964999933727,<img style='border: 4px solid darkgrey;' src='img/tf1_54_M_ss2.jpeg'></img>,1,NA,exp,NA,2,<img src='img/tf1_54_T1_ss2_md.jpeg'></img>,0,FALSE,NA,sub90
NA,html-keyboard-response,123,592999,0.0-10.0-0.54,"""event"",""trial"",""time""
""fullscreenenter"",""0"",""3941""
","
","
","""event"",""trial"",""time""
""fullscreenenter"",""0"",""3941""
","
",null,"<div style=""font-size:60px;"">+</div>",NA,null,fixation,2020-07-06T17:07:08Z,NA,NA,NA,NA,NA,sub90
NA,mars-trial,124,594640,0.0-10.0-1.54,"""event"",""trial"",""time""
""fullscreenenter"",""0"",""3941""
","
","
","""event"",""trial"",""time""
""fullscreenenter"",""0"",""3941""
","
",1034.3899999279529,<img style='border: 4px solid darkgrey;' src='img/tf1_55_M_ss3.jpeg'></img>,0,NA,exp,NA,3,<img src='img/tf1_55_T1_ss3_md.jpeg'></img>,0,FALSE,NA,sub90
NA,html-keyboard-response,125,595143,0.0-10.0-0.55,"""event"",""trial"",""time""
""fullscreenenter"",""0"",""3941""
","
","
","""event"",""trial"",""time""
""fullscreenenter"",""0"",""3941""
","
",null,"<div style=""font-size:60px;"">+</div>",NA,null,fixation,2020-07-06T17:07:10Z,NA,NA,NA,NA,NA,sub90
NA,mars-trial,126,596573,0.0-10.0-1.55,"""event"",""trial"",""time""
""fullscreenenter"",""0"",""3941""
","
","
","""event"",""trial"",""time""
""fullscreenenter"",""0"",""3941""
","
",823.5400000121444,<img style='border: 4px solid darkgrey;' src='img/tf1_56_M_ss1.jpeg'></img>,1,NA,exp,NA,0,<img src='img/tf1_56_T1_ss1_md.jpeg'></img>,0,TRUE,NA,sub90
NA,html-keyboard-response,127,597075,0.0-10.0-0.56,"""event"",""trial"",""time""
""fullscreenenter"",""0"",""3941""
","
","
","""event"",""trial"",""time""
""fullscreenenter"",""0"",""3941""
","
",null,"<div style=""font-size:60px;"">+</div>",NA,null,fixation,2020-07-06T17:07:12Z,NA,NA,NA,NA,NA,sub90
NA,mars-trial,128,599114,0.0-10.0-1.56,"""event"",""trial"",""time""
""fullscreenenter"",""0"",""3941""
","
","
","""event"",""trial"",""time""
""fullscreenenter"",""0"",""3941""
","
",1433.2050000084564,<img style='border: 4px solid darkgrey;' src='img/tf1_57_M_ss2.jpeg'></img>,1,NA,exp,NA,3,<img src='img/tf1_57_T1_ss2_md.jpeg'></img>,0,FALSE,NA,sub90
NA,html-keyboard-response,129,599616,0.0-10.0-0.57,"""event"",""trial"",""time""
""fullscreenenter"",""0"",""3941""
","
","
","""event"",""trial"",""time""
""fullscreenenter"",""0"",""3941""
","
",null,"<div style=""font-size:60px;"">+</div>",NA,null,fixation,2020-07-06T17:07:14Z,NA,NA,NA,NA,NA,sub90
NA,mars-trial,130,600898,0.0-10.0-1.57,"""event"",""trial"",""time""
""fullscreenenter"",""0"",""3941""
","
","
","""event"",""trial"",""time""
""fullscreenenter"",""0"",""3941""
","
",675.6400000303984,<img style='border: 4px solid darkgrey;' src='img/tf1_58_M_ss3.jpeg'></img>,1,NA,exp,NA,2,<img src='img/tf1_58_T1_ss3_md.jpeg'></img>,0,FALSE,NA,sub90
NA,html-keyboard-response,131,601401,0.0-10.0-0.58,"""event"",""trial"",""time""
""fullscreenenter"",""0"",""3941""
","
","
","""event"",""trial"",""time""
""fullscreenenter"",""0"",""3941""
","
",null,"<div style=""font-size:60px;"">+</div>",NA,null,fixation,2020-07-06T17:07:16Z,NA,NA,NA,NA,NA,sub90
NA,mars-trial,132,606291,0.0-10.0-1.58,"""event"",""trial"",""time""
""fullscreenenter"",""0"",""3941""
","
","
","""event"",""trial"",""time""
""fullscreenenter"",""0"",""3941""
","
",4284.809999982826,<img style='border: 4px solid darkgrey;' src='img/tf1_59_M_ss1.jpeg'></img>,1,NA,exp,NA,0,<img src='img/tf1_59_T1_ss1_md.jpeg'></img>,0,TRUE,NA,sub90
NA,html-keyboard-response,133,606794,0.0-10.0-0.59,"""event"",""trial"",""time""
""fullscreenenter"",""0"",""3941""
","
","
","""event"",""trial"",""time""
""fullscreenenter"",""0"",""3941""
","
",null,"<div style=""font-size:60px;"">+</div>",NA,null,fixation,2020-07-06T17:07:22Z,NA,NA,NA,NA,NA,sub90
NA,mars-trial,134,608559,0.0-10.0-1.59,"""event"",""trial"",""time""
""fullscreenenter"",""0"",""3941""
","
","
","""event"",""trial"",""time""
""fullscreenenter"",""0"",""3941""
","
",1159.2800000216812,<img style='border: 4px solid darkgrey;' src='img/tf1_60_M_ss2.jpeg'></img>,1,NA,exp,NA,0,<img src='img/tf1_60_T1_ss2_md.jpeg'></img>,0,TRUE,NA,sub90
NA,html-keyboard-response,135,609062,0.0-10.0-0.60,"""event"",""trial"",""time""
""fullscreenenter"",""0"",""3941""
","
","
","""event"",""trial"",""time""
""fullscreenenter"",""0"",""3941""
","
",null,"<div style=""font-size:60px;"">+</div>",NA,null,fixation,2020-07-06T17:07:24Z,NA,NA,NA,NA,NA,sub90
NA,mars-trial,136,610484,0.0-10.0-1.60,"""event"",""trial"",""time""
""fullscreenenter"",""0"",""3941""
","
","
","""event"",""trial"",""time""
""fullscreenenter"",""0"",""3941""
","
",815.4099999228492,<img style='border: 4px solid darkgrey;' src='img/tf1_61_M_ss3.jpeg'></img>,1,NA,exp,NA,3,<img src='img/tf1_61_T1_ss3_md.jpeg'></img>,0,FALSE,NA,sub90
NA,html-keyboard-response,137,610985,0.0-10.0-0.61,"""event"",""trial"",""time""
""fullscreenenter"",""0"",""3941""
","
","
","""event"",""trial"",""time""
""fullscreenenter"",""0"",""3941""
","
",null,"<div style=""font-size:60px;"">+</div>",NA,null,fixation,2020-07-06T17:07:26Z,NA,NA,NA,NA,NA,sub90
NA,mars-trial,138,612291,0.0-10.0-1.61,"""event"",""trial"",""time""
""fullscreenenter"",""0"",""3941""
","
","
","""event"",""trial"",""time""
""fullscreenenter"",""0"",""3941""
","
",699.9800000339746,<img style='border: 4px solid darkgrey;' src='img/tf1_62_M_ss1.jpeg'></img>,1,NA,exp,NA,1,<img src='img/tf1_62_T1_ss1_md.jpeg'></img>,0,FALSE,NA,sub90
NA,html-keyboard-response,139,612794,0.0-10.0-0.62,"""event"",""trial"",""time""
""fullscreenenter"",""0"",""3941""
","
","
","""event"",""trial"",""time""
""fullscreenenter"",""0"",""3941""
","
",null,"<div style=""font-size:60px;"">+</div>",NA,null,fixation,2020-07-06T17:07:28Z,NA,NA,NA,NA,NA,sub90
NA,mars-trial,140,614273,0.0-10.0-1.62,"""event"",""trial"",""time""
""fullscreenenter"",""0"",""3941""
","
","
","""event"",""trial"",""time""
""fullscreenenter"",""0"",""3941""
","
",872.3799999570474,<img style='border: 4px solid darkgrey;' src='img/tf1_63_M_ss2.jpeg'></img>,2,NA,exp,NA,1,<img src='img/tf1_63_T1_ss2_md.jpeg'></img>,0,FALSE,NA,sub90
NA,html-keyboard-response,141,614776,0.0-10.0-0.63,"""event"",""trial"",""time""
""fullscreenenter"",""0"",""3941""
","
","
","""event"",""trial"",""time""
""fullscreenenter"",""0"",""3941""
","
",null,"<div style=""font-size:60px;"">+</div>",NA,null,fixation,2020-07-06T17:07:30Z,NA,NA,NA,NA,NA,sub90
NA,mars-trial,142,617520,0.0-10.0-1.63,"""event"",""trial"",""time""
""fullscreenenter"",""0"",""3941""
","
","
","""event"",""trial"",""time""
""fullscreenenter"",""0"",""3941""
","
",NA,NA,NA,NA,exp,NA,NA,<img src='img/tf1_64_T1_ss3_md.jpeg'></img>,0,FALSE,NA,sub90
NA,html-keyboard-response,143,618021,0.0-10.0-0.64,"""event"",""trial"",""time""
""fullscreenenter"",""0"",""3941""
","
","
","""event"",""trial"",""time""
""fullscreenenter"",""0"",""3941""
","
",null,"<div style=""font-size:60px;"">+</div>",NA,null,fixation,2020-07-06T17:07:33Z,NA,NA,NA,NA,NA,sub90
NA,audio-button-response,144,620713,0.0-11.0,"""event"",""trial"",""time""
""fullscreenenter"",""0"",""3941""
","
","
","""event"",""trial"",""time""
""fullscreenenter"",""0"",""3941""
","
",2588.2099999580532,audio/mars_instructions_slide5.wav,0,NA,NA,NA,NA,NA,NA,NA,NA,sub90
