success,trial_type,trial_index,time_elapsed,internal_node_id,interactions,blur_events,focus_events,fullscreenenter_events,fullscreenexit_events,rt,stimulus,button_pressed,key_press,part,timestamp,unshuffled_button,correct_response,correct_button,correct,value,subject_id
TRUE,fullscreen,0,6076,0.0-0.0,"""event"",""trial"",""time""
""focus"",""0"",""2872""
""fullscreenenter"",""0"",""5104""
","
","""event"",""trial"",""time""
""focus"",""0"",""2872""
","""event"",""trial"",""time""
""fullscreenenter"",""0"",""5104""
","
",NA,NA,NA,NA,NA,NA,NA,NA,NA,NA,NA,sub114
NA,pavlovia,1,6078,0.0-1.0,"""event"",""trial"",""time""
""focus"",""0"",""2872""
""fullscreenenter"",""0"",""5104""
","
","""event"",""trial"",""time""
""focus"",""0"",""2872""
","""event"",""trial"",""time""
""fullscreenenter"",""0"",""5104""
","
",NA,NA,NA,NA,NA,NA,NA,NA,NA,NA,NA,sub114
NA,html-button-response,2,9155,0.0-2.0,"""event"",""trial"",""time""
""focus"",""0"",""2872""
""fullscreenenter"",""0"",""5104""
","
","""event"",""trial"",""time""
""focus"",""0"",""2872""
","""event"",""trial"",""time""
""fullscreenenter"",""0"",""5104""
","
",3076,<p>Welcome! Press START to begin.</p><br>,0,NA,NA,NA,NA,NA,NA,NA,NA,sub114
NA,audio-button-response,3,24937,0.0-3.0,"""event"",""trial"",""time""
""focus"",""0"",""2872""
""fullscreenenter"",""0"",""5104""
","
","""event"",""trial"",""time""
""focus"",""0"",""2872""
","""event"",""trial"",""time""
""fullscreenenter"",""0"",""5104""
","
",15775.999999999996,audio/mars_instructions_slide2.wav,0,NA,NA,NA,NA,NA,NA,NA,NA,sub114
NA,audio-button-response,4,29784,0.0-4.0,"""event"",""trial"",""time""
""focus"",""0"",""2872""
""fullscreenenter"",""0"",""5104""
","
","""event"",""trial"",""time""
""focus"",""0"",""2872""
","""event"",""trial"",""time""
""fullscreenenter"",""0"",""5104""
","
",4847.000000000004,audio/mars_instructions_slide3.wav,0,NA,NA,NA,NA,NA,NA,NA,NA,sub114
NA,html-keyboard-response,5,30287,0.0-5.0-0.0,"""event"",""trial"",""time""
""focus"",""0"",""2872""
""fullscreenenter"",""0"",""5104""
","
","""event"",""trial"",""time""
""focus"",""0"",""2872""
","""event"",""trial"",""time""
""fullscreenenter"",""0"",""5104""
","
",null,"<div style=""font-size:60px;"">+</div>",NA,null,fixation,2020-06-21T06:23:44Z,NA,NA,NA,NA,NA,sub114
NA,mars-trial,6,35126,0.0-5.0-1.0,"""event"",""trial"",""time""
""focus"",""0"",""2872""
""fullscreenenter"",""0"",""5104""
","
","""event"",""trial"",""time""
""focus"",""0"",""2872""
","""event"",""trial"",""time""
""fullscreenenter"",""0"",""5104""
","
",2735,<img style='border: 4px solid darkgrey;' src='practice/pt1_M1.png'></img>,1,NA,practice,NA,0,<img src='practice/pt1_T1.png'></img>,0,TRUE,NA,sub114
NA,html-keyboard-response,7,35628,0.0-6.0-0.0,"""event"",""trial"",""time""
""focus"",""0"",""2872""
""fullscreenenter"",""0"",""5104""
","
","""event"",""trial"",""time""
""focus"",""0"",""2872""
","""event"",""trial"",""time""
""fullscreenenter"",""0"",""5104""
","
",null,"<div style=""font-size:60px;"">+</div>",NA,null,fixation,2020-06-21T06:23:49Z,NA,NA,NA,NA,NA,sub114
NA,mars-trial,8,39689,0.0-6.0-1.0,"""event"",""trial"",""time""
""focus"",""0"",""2872""
""fullscreenenter"",""0"",""5104""
","
","""event"",""trial"",""time""
""focus"",""0"",""2872""
","""event"",""trial"",""time""
""fullscreenenter"",""0"",""5104""
","
",1956,<img style='border: 4px solid darkgrey;' src='practice/pt2_M1.png'></img>,3,NA,practice,NA,0,<img src='practice/pt2_T1.png'></img>,0,TRUE,NA,sub114
NA,html-keyboard-response,9,40190,0.0-7.0-0.0,"""event"",""trial"",""time""
""focus"",""0"",""2872""
""fullscreenenter"",""0"",""5104""
","
","""event"",""trial"",""time""
""focus"",""0"",""2872""
","""event"",""trial"",""time""
""fullscreenenter"",""0"",""5104""
","
",null,"<div style=""font-size:60px;"">+</div>",NA,null,fixation,2020-06-21T06:23:53Z,NA,NA,NA,NA,NA,sub114
NA,mars-trial,10,43750,0.0-7.0-1.0,"""event"",""trial"",""time""
""focus"",""0"",""2872""
""fullscreenenter"",""0"",""5104""
","
","""event"",""trial"",""time""
""focus"",""0"",""2872""
","""event"",""trial"",""time""
""fullscreenenter"",""0"",""5104""
","
",1457,<img style='border: 4px solid darkgrey;' src='practice/pt3_M1.png'></img>,2,NA,practice,NA,0,<img src='practice/pt3_T1.png'></img>,0,TRUE,NA,sub114
NA,audio-button-response,11,51436,0.0-8.0,"""event"",""trial"",""time""
""focus"",""0"",""2872""
""fullscreenenter"",""0"",""5104""
","
","""event"",""trial"",""time""
""focus"",""0"",""2872""
","""event"",""trial"",""time""
""fullscreenenter"",""0"",""5104""
","
",7685,audio/mars_instructions_slide4.wav,0,NA,NA,NA,NA,NA,NA,NA,NA,sub114
NA,call-function,12,51437,0.0-9.0,"""event"",""trial"",""time""
""focus"",""0"",""2872""
""fullscreenenter"",""0"",""5104""
","
","""event"",""trial"",""time""
""focus"",""0"",""2872""
","""event"",""trial"",""time""
""fullscreenenter"",""0"",""5104""
","
",NA,NA,NA,NA,NA,NA,NA,NA,NA,NA,NA,sub114
NA,html-keyboard-response,13,51938,0.0-10.0-0.0,"""event"",""trial"",""time""
""focus"",""0"",""2872""
""fullscreenenter"",""0"",""5104""
","
","""event"",""trial"",""time""
""focus"",""0"",""2872""
","""event"",""trial"",""time""
""fullscreenenter"",""0"",""5104""
","
",null,"<div style=""font-size:60px;"">+</div>",NA,null,fixation,2020-06-21T06:24:05Z,NA,NA,NA,NA,NA,sub114
NA,mars-trial,14,53877,0.0-10.0-1.0,"""event"",""trial"",""time""
""focus"",""0"",""2872""
""fullscreenenter"",""0"",""5104""
","
","""event"",""trial"",""time""
""focus"",""0"",""2872""
","""event"",""trial"",""time""
""fullscreenenter"",""0"",""5104""
","
",1335,<img style='border: 4px solid darkgrey;' src='img/tf1_1_M_ss3.jpeg'></img>,2,NA,exp,NA,0,<img src='img/tf1_1_T1_ss3_md.jpeg'></img>,0,TRUE,NA,sub114
NA,html-keyboard-response,15,54378,0.0-10.0-0.1,"""event"",""trial"",""time""
""focus"",""0"",""2872""
""fullscreenenter"",""0"",""5104""
","
","""event"",""trial"",""time""
""focus"",""0"",""2872""
","""event"",""trial"",""time""
""fullscreenenter"",""0"",""5104""
","
",null,"<div style=""font-size:60px;"">+</div>",NA,null,fixation,2020-06-21T06:24:08Z,NA,NA,NA,NA,NA,sub114
NA,mars-trial,16,57013,0.0-10.0-1.1,"""event"",""trial"",""time""
""focus"",""0"",""2872""
""fullscreenenter"",""0"",""5104""
","
","""event"",""trial"",""time""
""focus"",""0"",""2872""
","""event"",""trial"",""time""
""fullscreenenter"",""0"",""5104""
","
",2030,<img style='border: 4px solid darkgrey;' src='img/tf1_2_M_ss1.jpeg'></img>,0,NA,exp,NA,0,<img src='img/tf1_2_T1_ss1_md.jpeg'></img>,0,TRUE,NA,sub114
NA,html-keyboard-response,17,57514,0.0-10.0-0.2,"""event"",""trial"",""time""
""focus"",""0"",""2872""
""fullscreenenter"",""0"",""5104""
","
","""event"",""trial"",""time""
""focus"",""0"",""2872""
","""event"",""trial"",""time""
""fullscreenenter"",""0"",""5104""
","
",null,"<div style=""font-size:60px;"">+</div>",NA,null,fixation,2020-06-21T06:24:11Z,NA,NA,NA,NA,NA,sub114
NA,mars-trial,18,59603,0.0-10.0-1.2,"""event"",""trial"",""time""
""focus"",""0"",""2872""
""fullscreenenter"",""0"",""5104""
","
","""event"",""trial"",""time""
""focus"",""0"",""2872""
","""event"",""trial"",""time""
""fullscreenenter"",""0"",""5104""
","
",1487.0000000000073,<img style='border: 4px solid darkgrey;' src='img/tf1_3_M_ss2.jpeg'></img>,2,NA,exp,NA,0,<img src='img/tf1_3_T1_ss2_md.jpeg'></img>,0,TRUE,NA,sub114
NA,html-keyboard-response,19,60105,0.0-10.0-0.3,"""event"",""trial"",""time""
""focus"",""0"",""2872""
""fullscreenenter"",""0"",""5104""
","
","""event"",""trial"",""time""
""focus"",""0"",""2872""
","""event"",""trial"",""time""
""fullscreenenter"",""0"",""5104""
","
",null,"<div style=""font-size:60px;"">+</div>",NA,null,fixation,2020-06-21T06:24:13Z,NA,NA,NA,NA,NA,sub114
NA,mars-trial,20,63911,0.0-10.0-1.3,"""event"",""trial"",""time""
""focus"",""0"",""2872""
""fullscreenenter"",""0"",""5104""
","
","""event"",""trial"",""time""
""focus"",""0"",""2872""
","""event"",""trial"",""time""
""fullscreenenter"",""0"",""5104""
","
",3200.9999999999854,<img style='border: 4px solid darkgrey;' src='img/tf1_4_M_ss3.jpeg'></img>,1,NA,exp,NA,0,<img src='img/tf1_4_T1_ss3_md.jpeg'></img>,0,TRUE,NA,sub114
NA,html-keyboard-response,21,64412,0.0-10.0-0.4,"""event"",""trial"",""time""
""focus"",""0"",""2872""
""fullscreenenter"",""0"",""5104""
","
","""event"",""trial"",""time""
""focus"",""0"",""2872""
","""event"",""trial"",""time""
""fullscreenenter"",""0"",""5104""
","
",null,"<div style=""font-size:60px;"">+</div>",NA,null,fixation,2020-06-21T06:24:18Z,NA,NA,NA,NA,NA,sub114
NA,mars-trial,22,67911,0.0-10.0-1.4,"""event"",""trial"",""time""
""focus"",""0"",""2872""
""fullscreenenter"",""0"",""5104""
","
","""event"",""trial"",""time""
""focus"",""0"",""2872""
","""event"",""trial"",""time""
""fullscreenenter"",""0"",""5104""
","
",2896,<img style='border: 4px solid darkgrey;' src='img/tf1_5_M_ss1.jpeg'></img>,1,NA,exp,NA,0,<img src='img/tf1_5_T1_ss1_md.jpeg'></img>,0,TRUE,NA,sub114
NA,html-keyboard-response,23,68413,0.0-10.0-0.5,"""event"",""trial"",""time""
""focus"",""0"",""2872""
""fullscreenenter"",""0"",""5104""
","
","""event"",""trial"",""time""
""focus"",""0"",""2872""
","""event"",""trial"",""time""
""fullscreenenter"",""0"",""5104""
","
",null,"<div style=""font-size:60px;"">+</div>",NA,null,fixation,2020-06-21T06:24:22Z,NA,NA,NA,NA,NA,sub114
NA,mars-trial,24,72430,0.0-10.0-1.5,"""event"",""trial"",""time""
""focus"",""0"",""2872""
""fullscreenenter"",""0"",""5104""
","
","""event"",""trial"",""time""
""focus"",""0"",""2872""
","""event"",""trial"",""time""
""fullscreenenter"",""0"",""5104""
","
",3413,<img style='border: 4px solid darkgrey;' src='img/tf1_6_M_ss2.jpeg'></img>,0,NA,exp,NA,0,<img src='img/tf1_6_T1_ss2_md.jpeg'></img>,0,TRUE,NA,sub114
NA,html-keyboard-response,25,72932,0.0-10.0-0.6,"""event"",""trial"",""time""
""focus"",""0"",""2872""
""fullscreenenter"",""0"",""5104""
","
","""event"",""trial"",""time""
""focus"",""0"",""2872""
","""event"",""trial"",""time""
""fullscreenenter"",""0"",""5104""
","
",null,"<div style=""font-size:60px;"">+</div>",NA,null,fixation,2020-06-21T06:24:26Z,NA,NA,NA,NA,NA,sub114
NA,mars-trial,26,76647,0.0-10.0-1.6,"""event"",""trial"",""time""
""focus"",""0"",""2872""
""fullscreenenter"",""0"",""5104""
","
","""event"",""trial"",""time""
""focus"",""0"",""2872""
","""event"",""trial"",""time""
""fullscreenenter"",""0"",""5104""
","
",3111,<img style='border: 4px solid darkgrey;' src='img/tf1_7_M_ss3.jpeg'></img>,2,NA,exp,NA,0,<img src='img/tf1_7_T1_ss3_md.jpeg'></img>,0,TRUE,NA,sub114
NA,html-keyboard-response,27,77149,0.0-10.0-0.7,"""event"",""trial"",""time""
""focus"",""0"",""2872""
""fullscreenenter"",""0"",""5104""
","
","""event"",""trial"",""time""
""focus"",""0"",""2872""
","""event"",""trial"",""time""
""fullscreenenter"",""0"",""5104""
","
",null,"<div style=""font-size:60px;"">+</div>",NA,null,fixation,2020-06-21T06:24:30Z,NA,NA,NA,NA,NA,sub114
NA,mars-trial,28,80824,0.0-10.0-1.7,"""event"",""trial"",""time""
""focus"",""0"",""2872""
""fullscreenenter"",""0"",""5104""
","
","""event"",""trial"",""time""
""focus"",""0"",""2872""
","""event"",""trial"",""time""
""fullscreenenter"",""0"",""5104""
","
",3070,<img style='border: 4px solid darkgrey;' src='img/tf1_8_M_ss1.jpeg'></img>,1,NA,exp,NA,0,<img src='img/tf1_8_T1_ss1_md.jpeg'></img>,0,TRUE,NA,sub114
NA,html-keyboard-response,29,81326,0.0-10.0-0.8,"""event"",""trial"",""time""
""focus"",""0"",""2872""
""fullscreenenter"",""0"",""5104""
","
","""event"",""trial"",""time""
""focus"",""0"",""2872""
","""event"",""trial"",""time""
""fullscreenenter"",""0"",""5104""
","
",null,"<div style=""font-size:60px;"">+</div>",NA,null,fixation,2020-06-21T06:24:35Z,NA,NA,NA,NA,NA,sub114
NA,mars-trial,30,86189,0.0-10.0-1.8,"""event"",""trial"",""time""
""focus"",""0"",""2872""
""fullscreenenter"",""0"",""5104""
","
","""event"",""trial"",""time""
""focus"",""0"",""2872""
","""event"",""trial"",""time""
""fullscreenenter"",""0"",""5104""
","
",4259,<img style='border: 4px solid darkgrey;' src='img/tf1_9_M_ss2.jpeg'></img>,0,NA,exp,NA,0,<img src='img/tf1_9_T1_ss2_md.jpeg'></img>,0,TRUE,NA,sub114
NA,html-keyboard-response,31,86690,0.0-10.0-0.9,"""event"",""trial"",""time""
""focus"",""0"",""2872""
""fullscreenenter"",""0"",""5104""
","
","""event"",""trial"",""time""
""focus"",""0"",""2872""
","""event"",""trial"",""time""
""fullscreenenter"",""0"",""5104""
","
",null,"<div style=""font-size:60px;"">+</div>",NA,null,fixation,2020-06-21T06:24:40Z,NA,NA,NA,NA,NA,sub114
NA,mars-trial,32,99925,0.0-10.0-1.9,"""event"",""trial"",""time""
""focus"",""0"",""2872""
""fullscreenenter"",""0"",""5104""
","
","""event"",""trial"",""time""
""focus"",""0"",""2872""
","""event"",""trial"",""time""
""fullscreenenter"",""0"",""5104""
","
",12630,<img style='border: 4px solid darkgrey;' src='img/tf1_10_M_ss3.jpeg'></img>,3,NA,exp,NA,0,<img src='img/tf1_10_T1_ss3_md.jpeg'></img>,0,TRUE,NA,sub114
NA,html-keyboard-response,33,100427,0.0-10.0-0.10,"""event"",""trial"",""time""
""focus"",""0"",""2872""
""fullscreenenter"",""0"",""5104""
","
","""event"",""trial"",""time""
""focus"",""0"",""2872""
","""event"",""trial"",""time""
""fullscreenenter"",""0"",""5104""
","
",null,"<div style=""font-size:60px;"">+</div>",NA,null,fixation,2020-06-21T06:24:54Z,NA,NA,NA,NA,NA,sub114
NA,mars-trial,34,108592,0.0-10.0-1.10,"""event"",""trial"",""time""
""focus"",""0"",""2872""
""fullscreenenter"",""0"",""5104""
","
","""event"",""trial"",""time""
""focus"",""0"",""2872""
","""event"",""trial"",""time""
""fullscreenenter"",""0"",""5104""
","
",7560.000000000015,<img style='border: 4px solid darkgrey;' src='img/tf1_11_M_ss1.jpeg'></img>,1,NA,exp,NA,0,<img src='img/tf1_11_T1_ss1_md.jpeg'></img>,0,TRUE,NA,sub114
NA,html-keyboard-response,35,109094,0.0-10.0-0.11,"""event"",""trial"",""time""
""focus"",""0"",""2872""
""fullscreenenter"",""0"",""5104""
","
","""event"",""trial"",""time""
""focus"",""0"",""2872""
","""event"",""trial"",""time""
""fullscreenenter"",""0"",""5104""
","
",null,"<div style=""font-size:60px;"">+</div>",NA,null,fixation,2020-06-21T06:25:02Z,NA,NA,NA,NA,NA,sub114
NA,mars-trial,36,125924,0.0-10.0-1.11,"""event"",""trial"",""time""
""focus"",""0"",""2872""
""fullscreenenter"",""0"",""5104""
","
","""event"",""trial"",""time""
""focus"",""0"",""2872""
","""event"",""trial"",""time""
""fullscreenenter"",""0"",""5104""
","
",16226.00000000003,<img style='border: 4px solid darkgrey;' src='img/tf1_12_M_ss2.jpeg'></img>,3,NA,exp,NA,2,<img src='img/tf1_12_T1_ss2_md.jpeg'></img>,0,FALSE,NA,sub114
NA,html-keyboard-response,37,126426,0.0-10.0-0.12,"""event"",""trial"",""time""
""focus"",""0"",""2872""
""fullscreenenter"",""0"",""5104""
","
","""event"",""trial"",""time""
""focus"",""0"",""2872""
","""event"",""trial"",""time""
""fullscreenenter"",""0"",""5104""
","
",null,"<div style=""font-size:60px;"">+</div>",NA,null,fixation,2020-06-21T06:25:20Z,NA,NA,NA,NA,NA,sub114
NA,mars-trial,38,143018,0.0-10.0-1.12,"""event"",""trial"",""time""
""focus"",""0"",""2872""
""fullscreenenter"",""0"",""5104""
","
","""event"",""trial"",""time""
""focus"",""0"",""2872""
","""event"",""trial"",""time""
""fullscreenenter"",""0"",""5104""
","
",15987,<img style='border: 4px solid darkgrey;' src='img/tf1_13_M_ss3.jpeg'></img>,3,NA,exp,NA,0,<img src='img/tf1_13_T1_ss3_md.jpeg'></img>,0,TRUE,NA,sub114
NA,html-keyboard-response,39,143520,0.0-10.0-0.13,"""event"",""trial"",""time""
""focus"",""0"",""2872""
""fullscreenenter"",""0"",""5104""
","
","""event"",""trial"",""time""
""focus"",""0"",""2872""
","""event"",""trial"",""time""
""fullscreenenter"",""0"",""5104""
","
",null,"<div style=""font-size:60px;"">+</div>",NA,null,fixation,2020-06-21T06:25:37Z,NA,NA,NA,NA,NA,sub114
NA,mars-trial,40,153654,0.0-10.0-1.13,"""event"",""trial"",""time""
""focus"",""0"",""2872""
""fullscreenenter"",""0"",""5104""
","
","""event"",""trial"",""time""
""focus"",""0"",""2872""
","""event"",""trial"",""time""
""fullscreenenter"",""0"",""5104""
","
",9530,<img style='border: 4px solid darkgrey;' src='img/tf1_14_M_ss1.jpeg'></img>,0,NA,exp,NA,0,<img src='img/tf1_14_T1_ss1_md.jpeg'></img>,0,TRUE,NA,sub114
NA,html-keyboard-response,41,154155,0.0-10.0-0.14,"""event"",""trial"",""time""
""focus"",""0"",""2872""
""fullscreenenter"",""0"",""5104""
","
","""event"",""trial"",""time""
""focus"",""0"",""2872""
","""event"",""trial"",""time""
""fullscreenenter"",""0"",""5104""
","
",null,"<div style=""font-size:60px;"">+</div>",NA,null,fixation,2020-06-21T06:25:47Z,NA,NA,NA,NA,NA,sub114
NA,mars-trial,42,172782,0.0-10.0-1.14,"""event"",""trial"",""time""
""focus"",""0"",""2872""
""fullscreenenter"",""0"",""5104""
","
","""event"",""trial"",""time""
""focus"",""0"",""2872""
","""event"",""trial"",""time""
""fullscreenenter"",""0"",""5104""
","
",18024,<img style='border: 4px solid darkgrey;' src='img/tf1_15_M_ss2.jpeg'></img>,3,NA,exp,NA,0,<img src='img/tf1_15_T1_ss2_md.jpeg'></img>,0,TRUE,NA,sub114
NA,html-keyboard-response,43,173283,0.0-10.0-0.15,"""event"",""trial"",""time""
""focus"",""0"",""2872""
""fullscreenenter"",""0"",""5104""
","
","""event"",""trial"",""time""
""focus"",""0"",""2872""
","""event"",""trial"",""time""
""fullscreenenter"",""0"",""5104""
","
",null,"<div style=""font-size:60px;"">+</div>",NA,null,fixation,2020-06-21T06:26:07Z,NA,NA,NA,NA,NA,sub114
NA,mars-trial,44,191088,0.0-10.0-1.15,"""event"",""trial"",""time""
""focus"",""0"",""2872""
""fullscreenenter"",""0"",""5104""
","
","""event"",""trial"",""time""
""focus"",""0"",""2872""
","""event"",""trial"",""time""
""fullscreenenter"",""0"",""5104""
","
",17202,<img style='border: 4px solid darkgrey;' src='img/tf1_16_M_ss3.jpeg'></img>,0,NA,exp,NA,3,<img src='img/tf1_16_T1_ss3_md.jpeg'></img>,0,FALSE,NA,sub114
NA,html-keyboard-response,45,191589,0.0-10.0-0.16,"""event"",""trial"",""time""
""focus"",""0"",""2872""
""fullscreenenter"",""0"",""5104""
","
","""event"",""trial"",""time""
""focus"",""0"",""2872""
","""event"",""trial"",""time""
""fullscreenenter"",""0"",""5104""
","
",null,"<div style=""font-size:60px;"">+</div>",NA,null,fixation,2020-06-21T06:26:25Z,NA,NA,NA,NA,NA,sub114
NA,mars-trial,46,201201,0.0-10.0-1.16,"""event"",""trial"",""time""
""focus"",""0"",""2872""
""fullscreenenter"",""0"",""5104""
","
","""event"",""trial"",""time""
""focus"",""0"",""2872""
","""event"",""trial"",""time""
""fullscreenenter"",""0"",""5104""
","
",9009,<img style='border: 4px solid darkgrey;' src='img/tf1_17_M_ss1.jpeg'></img>,1,NA,exp,NA,0,<img src='img/tf1_17_T1_ss1_md.jpeg'></img>,0,TRUE,NA,sub114
NA,html-keyboard-response,47,201702,0.0-10.0-0.17,"""event"",""trial"",""time""
""focus"",""0"",""2872""
""fullscreenenter"",""0"",""5104""
","
","""event"",""trial"",""time""
""focus"",""0"",""2872""
","""event"",""trial"",""time""
""fullscreenenter"",""0"",""5104""
","
",null,"<div style=""font-size:60px;"">+</div>",NA,null,fixation,2020-06-21T06:26:35Z,NA,NA,NA,NA,NA,sub114
NA,mars-trial,48,216916,0.0-10.0-1.17,"""event"",""trial"",""time""
""focus"",""0"",""2872""
""fullscreenenter"",""0"",""5104""
","
","""event"",""trial"",""time""
""focus"",""0"",""2872""
","""event"",""trial"",""time""
""fullscreenenter"",""0"",""5104""
","
",14610,<img style='border: 4px solid darkgrey;' src='img/tf1_18_M_ss2.jpeg'></img>,0,NA,exp,NA,0,<img src='img/tf1_18_T1_ss2_md.jpeg'></img>,0,TRUE,NA,sub114
NA,html-keyboard-response,49,217417,0.0-10.0-0.18,"""event"",""trial"",""time""
""focus"",""0"",""2872""
""fullscreenenter"",""0"",""5104""
","
","""event"",""trial"",""time""
""focus"",""0"",""2872""
","""event"",""trial"",""time""
""fullscreenenter"",""0"",""5104""
","
",null,"<div style=""font-size:60px;"">+</div>",NA,null,fixation,2020-06-21T06:26:51Z,NA,NA,NA,NA,NA,sub114
NA,mars-trial,50,226261,0.0-10.0-1.18,"""event"",""trial"",""time""
""focus"",""0"",""2872""
""fullscreenenter"",""0"",""5104""
","
","""event"",""trial"",""time""
""focus"",""0"",""2872""
","""event"",""trial"",""time""
""fullscreenenter"",""0"",""5104""
","
",8241,<img style='border: 4px solid darkgrey;' src='img/tf1_19_M_ss3.jpeg'></img>,1,NA,exp,NA,0,<img src='img/tf1_19_T1_ss3_md.jpeg'></img>,0,TRUE,NA,sub114
NA,html-keyboard-response,51,226763,0.0-10.0-0.19,"""event"",""trial"",""time""
""focus"",""0"",""2872""
""fullscreenenter"",""0"",""5104""
","
","""event"",""trial"",""time""
""focus"",""0"",""2872""
","""event"",""trial"",""time""
""fullscreenenter"",""0"",""5104""
","
",null,"<div style=""font-size:60px;"">+</div>",NA,null,fixation,2020-06-21T06:27:00Z,NA,NA,NA,NA,NA,sub114
NA,mars-trial,52,239829,0.0-10.0-1.19,"""event"",""trial"",""time""
""focus"",""0"",""2872""
""fullscreenenter"",""0"",""5104""
","
","""event"",""trial"",""time""
""focus"",""0"",""2872""
","""event"",""trial"",""time""
""fullscreenenter"",""0"",""5104""
","
",12462,<img style='border: 4px solid darkgrey;' src='img/tf1_20_M_ss1.jpeg'></img>,2,NA,exp,NA,0,<img src='img/tf1_20_T1_ss1_md.jpeg'></img>,0,TRUE,NA,sub114
NA,html-keyboard-response,53,240330,0.0-10.0-0.20,"""event"",""trial"",""time""
""focus"",""0"",""2872""
""fullscreenenter"",""0"",""5104""
","
","""event"",""trial"",""time""
""focus"",""0"",""2872""
","""event"",""trial"",""time""
""fullscreenenter"",""0"",""5104""
","
",null,"<div style=""font-size:60px;"">+</div>",NA,null,fixation,2020-06-21T06:27:14Z,NA,NA,NA,NA,NA,sub114
NA,mars-trial,54,256590,0.0-10.0-1.20,"""event"",""trial"",""time""
""focus"",""0"",""2872""
""fullscreenenter"",""0"",""5104""
","
","""event"",""trial"",""time""
""focus"",""0"",""2872""
","""event"",""trial"",""time""
""fullscreenenter"",""0"",""5104""
","
",15656.99999999997,<img style='border: 4px solid darkgrey;' src='img/tf1_21_M_ss2.jpeg'></img>,0,NA,exp,NA,0,<img src='img/tf1_21_T1_ss2_md.jpeg'></img>,0,TRUE,NA,sub114
NA,html-keyboard-response,55,257092,0.0-10.0-0.21,"""event"",""trial"",""time""
""focus"",""0"",""2872""
""fullscreenenter"",""0"",""5104""
","
","""event"",""trial"",""time""
""focus"",""0"",""2872""
","""event"",""trial"",""time""
""fullscreenenter"",""0"",""5104""
","
",null,"<div style=""font-size:60px;"">+</div>",NA,null,fixation,2020-06-21T06:27:30Z,NA,NA,NA,NA,NA,sub114
NA,mars-trial,56,268360,0.0-10.0-1.21,"""event"",""trial"",""time""
""focus"",""0"",""2872""
""fullscreenenter"",""0"",""5104""
","
","""event"",""trial"",""time""
""focus"",""0"",""2872""
","""event"",""trial"",""time""
""fullscreenenter"",""0"",""5104""
","
",10665,<img style='border: 4px solid darkgrey;' src='img/tf1_22_M_ss3.jpeg'></img>,1,NA,exp,NA,0,<img src='img/tf1_22_T1_ss3_md.jpeg'></img>,0,TRUE,NA,sub114
NA,html-keyboard-response,57,268861,0.0-10.0-0.22,"""event"",""trial"",""time""
""focus"",""0"",""2872""
""fullscreenenter"",""0"",""5104""
","
","""event"",""trial"",""time""
""focus"",""0"",""2872""
","""event"",""trial"",""time""
""fullscreenenter"",""0"",""5104""
","
",null,"<div style=""font-size:60px;"">+</div>",NA,null,fixation,2020-06-21T06:27:42Z,NA,NA,NA,NA,NA,sub114
NA,mars-trial,58,279060,0.0-10.0-1.22,"""event"",""trial"",""time""
""focus"",""0"",""2872""
""fullscreenenter"",""0"",""5104""
","
","""event"",""trial"",""time""
""focus"",""0"",""2872""
","""event"",""trial"",""time""
""fullscreenenter"",""0"",""5104""
","
",9596,<img style='border: 4px solid darkgrey;' src='img/tf1_23_M_ss1.jpeg'></img>,3,NA,exp,NA,0,<img src='img/tf1_23_T1_ss1_md.jpeg'></img>,0,TRUE,NA,sub114
NA,html-keyboard-response,59,279561,0.0-10.0-0.23,"""event"",""trial"",""time""
""focus"",""0"",""2872""
""fullscreenenter"",""0"",""5104""
","
","""event"",""trial"",""time""
""focus"",""0"",""2872""
","""event"",""trial"",""time""
""fullscreenenter"",""0"",""5104""
","
",null,"<div style=""font-size:60px;"">+</div>",NA,null,fixation,2020-06-21T06:27:53Z,NA,NA,NA,NA,NA,sub114
NA,mars-trial,60,288774,0.0-10.0-1.23,"""event"",""trial"",""time""
""focus"",""0"",""2872""
""fullscreenenter"",""0"",""5104""
","
","""event"",""trial"",""time""
""focus"",""0"",""2872""
","""event"",""trial"",""time""
""fullscreenenter"",""0"",""5104""
","
",8608,<img style='border: 4px solid darkgrey;' src='img/tf1_24_M_ss2.jpeg'></img>,2,NA,exp,NA,1,<img src='img/tf1_24_T1_ss2_md.jpeg'></img>,0,FALSE,NA,sub114
NA,html-keyboard-response,61,289276,0.0-10.0-0.24,"""event"",""trial"",""time""
""focus"",""0"",""2872""
""fullscreenenter"",""0"",""5104""
","
","""event"",""trial"",""time""
""focus"",""0"",""2872""
","""event"",""trial"",""time""
""fullscreenenter"",""0"",""5104""
","
",null,"<div style=""font-size:60px;"">+</div>",NA,null,fixation,2020-06-21T06:28:03Z,NA,NA,NA,NA,NA,sub114
NA,mars-trial,62,298127,0.0-10.0-1.24,"""event"",""trial"",""time""
""focus"",""0"",""2872""
""fullscreenenter"",""0"",""5104""
","
","""event"",""trial"",""time""
""focus"",""0"",""2872""
","""event"",""trial"",""time""
""fullscreenenter"",""0"",""5104""
","
",8247,<img style='border: 4px solid darkgrey;' src='img/tf1_25_M_ss3.jpeg'></img>,0,NA,exp,NA,0,<img src='img/tf1_25_T1_ss3_md.jpeg'></img>,0,TRUE,NA,sub114
NA,html-keyboard-response,63,298628,0.0-10.0-0.25,"""event"",""trial"",""time""
""focus"",""0"",""2872""
""fullscreenenter"",""0"",""5104""
","
","""event"",""trial"",""time""
""focus"",""0"",""2872""
","""event"",""trial"",""time""
""fullscreenenter"",""0"",""5104""
","
",null,"<div style=""font-size:60px;"">+</div>",NA,null,fixation,2020-06-21T06:28:12Z,NA,NA,NA,NA,NA,sub114
NA,mars-trial,64,312741,0.0-10.0-1.25,"""event"",""trial"",""time""
""focus"",""0"",""2872""
""fullscreenenter"",""0"",""5104""
","
","""event"",""trial"",""time""
""focus"",""0"",""2872""
","""event"",""trial"",""time""
""fullscreenenter"",""0"",""5104""
","
",13508,<img style='border: 4px solid darkgrey;' src='img/tf1_26_M_ss1.jpeg'></img>,2,NA,exp,NA,0,<img src='img/tf1_26_T1_ss1_md.jpeg'></img>,0,TRUE,NA,sub114
NA,html-keyboard-response,65,313242,0.0-10.0-0.26,"""event"",""trial"",""time""
""focus"",""0"",""2872""
""fullscreenenter"",""0"",""5104""
","
","""event"",""trial"",""time""
""focus"",""0"",""2872""
","""event"",""trial"",""time""
""fullscreenenter"",""0"",""5104""
","
",null,"<div style=""font-size:60px;"">+</div>",NA,null,fixation,2020-06-21T06:28:27Z,NA,NA,NA,NA,NA,sub114
NA,mars-trial,66,323938,0.0-10.0-1.26,"""event"",""trial"",""time""
""focus"",""0"",""2872""
""fullscreenenter"",""0"",""5104""
","
","""event"",""trial"",""time""
""focus"",""0"",""2872""
","""event"",""trial"",""time""
""fullscreenenter"",""0"",""5104""
","
",10093,<img style='border: 4px solid darkgrey;' src='img/tf1_27_M_ss2.jpeg'></img>,1,NA,exp,NA,0,<img src='img/tf1_27_T1_ss2_md.jpeg'></img>,0,TRUE,NA,sub114
NA,html-keyboard-response,67,324439,0.0-10.0-0.27,"""event"",""trial"",""time""
""focus"",""0"",""2872""
""fullscreenenter"",""0"",""5104""
","
","""event"",""trial"",""time""
""focus"",""0"",""2872""
","""event"",""trial"",""time""
""fullscreenenter"",""0"",""5104""
","
",null,"<div style=""font-size:60px;"">+</div>",NA,null,fixation,2020-06-21T06:28:38Z,NA,NA,NA,NA,NA,sub114
NA,mars-trial,68,338163,0.0-10.0-1.27,"""event"",""trial"",""time""
""focus"",""0"",""2872""
""fullscreenenter"",""0"",""5104""
","
","""event"",""trial"",""time""
""focus"",""0"",""2872""
","""event"",""trial"",""time""
""fullscreenenter"",""0"",""5104""
","
",13120,<img style='border: 4px solid darkgrey;' src='img/tf1_28_M_ss3.jpeg'></img>,2,NA,exp,NA,2,<img src='img/tf1_28_T1_ss3_md.jpeg'></img>,0,FALSE,NA,sub114
NA,html-keyboard-response,69,338663,0.0-10.0-0.28,"""event"",""trial"",""time""
""focus"",""0"",""2872""
""fullscreenenter"",""0"",""5104""
","
","""event"",""trial"",""time""
""focus"",""0"",""2872""
","""event"",""trial"",""time""
""fullscreenenter"",""0"",""5104""
","
",null,"<div style=""font-size:60px;"">+</div>",NA,null,fixation,2020-06-21T06:28:52Z,NA,NA,NA,NA,NA,sub114
NA,mars-trial,70,352047,0.0-10.0-1.28,"""event"",""trial"",""time""
""focus"",""0"",""2872""
""fullscreenenter"",""0"",""5104""
","
","""event"",""trial"",""time""
""focus"",""0"",""2872""
","""event"",""trial"",""time""
""fullscreenenter"",""0"",""5104""
","
",12779.999999999942,<img style='border: 4px solid darkgrey;' src='img/tf1_29_M_ss1.jpeg'></img>,2,NA,exp,NA,0,<img src='img/tf1_29_T1_ss1_md.jpeg'></img>,0,TRUE,NA,sub114
NA,html-keyboard-response,71,352548,0.0-10.0-0.29,"""event"",""trial"",""time""
""focus"",""0"",""2872""
""fullscreenenter"",""0"",""5104""
","
","""event"",""trial"",""time""
""focus"",""0"",""2872""
","""event"",""trial"",""time""
""fullscreenenter"",""0"",""5104""
","
",null,"<div style=""font-size:60px;"">+</div>",NA,null,fixation,2020-06-21T06:29:06Z,NA,NA,NA,NA,NA,sub114
NA,mars-trial,72,364840,0.0-10.0-1.29,"""event"",""trial"",""time""
""focus"",""0"",""2872""
""fullscreenenter"",""0"",""5104""
","
","""event"",""trial"",""time""
""focus"",""0"",""2872""
","""event"",""trial"",""time""
""fullscreenenter"",""0"",""5104""
","
",11689,<img style='border: 4px solid darkgrey;' src='img/tf1_30_M_ss2.jpeg'></img>,0,NA,exp,NA,0,<img src='img/tf1_30_T1_ss2_md.jpeg'></img>,0,TRUE,NA,sub114
NA,html-keyboard-response,73,365341,0.0-10.0-0.30,"""event"",""trial"",""time""
""focus"",""0"",""2872""
""fullscreenenter"",""0"",""5104""
","
","""event"",""trial"",""time""
""focus"",""0"",""2872""
","""event"",""trial"",""time""
""fullscreenenter"",""0"",""5104""
","
",null,"<div style=""font-size:60px;"">+</div>",NA,null,fixation,2020-06-21T06:29:19Z,NA,NA,NA,NA,NA,sub114
NA,mars-trial,74,382485,0.0-10.0-1.30,"""event"",""trial"",""time""
""focus"",""0"",""2872""
""fullscreenenter"",""0"",""5104""
","
","""event"",""trial"",""time""
""focus"",""0"",""2872""
","""event"",""trial"",""time""
""fullscreenenter"",""0"",""5104""
","
",16540,<img style='border: 4px solid darkgrey;' src='img/tf1_31_M_ss3.jpeg'></img>,0,NA,exp,NA,0,<img src='img/tf1_31_T1_ss3_md.jpeg'></img>,0,TRUE,NA,sub114
NA,html-keyboard-response,75,382986,0.0-10.0-0.31,"""event"",""trial"",""time""
""focus"",""0"",""2872""
""fullscreenenter"",""0"",""5104""
","
","""event"",""trial"",""time""
""focus"",""0"",""2872""
","""event"",""trial"",""time""
""fullscreenenter"",""0"",""5104""
","
",null,"<div style=""font-size:60px;"">+</div>",NA,null,fixation,2020-06-21T06:29:36Z,NA,NA,NA,NA,NA,sub114
NA,mars-trial,76,393193,0.0-10.0-1.31,"""event"",""trial"",""time""
""focus"",""0"",""2872""
""fullscreenenter"",""0"",""5104""
","
","""event"",""trial"",""time""
""focus"",""0"",""2872""
","""event"",""trial"",""time""
""fullscreenenter"",""0"",""5104""
","
",9603,<img style='border: 4px solid darkgrey;' src='img/tf1_32_M_ss1.jpeg'></img>,2,NA,exp,NA,0,<img src='img/tf1_32_T1_ss1_md.jpeg'></img>,0,TRUE,NA,sub114
NA,html-keyboard-response,77,393694,0.0-10.0-0.32,"""event"",""trial"",""time""
""focus"",""0"",""2872""
""fullscreenenter"",""0"",""5104""
","
","""event"",""trial"",""time""
""focus"",""0"",""2872""
","""event"",""trial"",""time""
""fullscreenenter"",""0"",""5104""
","
",null,"<div style=""font-size:60px;"">+</div>",NA,null,fixation,2020-06-21T06:29:47Z,NA,NA,NA,NA,NA,sub114
NA,mars-trial,78,401235,0.0-10.0-1.32,"""event"",""trial"",""time""
""focus"",""0"",""2872""
""fullscreenenter"",""0"",""5104""
","
","""event"",""trial"",""time""
""focus"",""0"",""2872""
","""event"",""trial"",""time""
""fullscreenenter"",""0"",""5104""
","
",6935,<img style='border: 4px solid darkgrey;' src='img/tf1_33_M_ss2.jpeg'></img>,2,NA,exp,NA,0,<img src='img/tf1_33_T1_ss2_md.jpeg'></img>,0,TRUE,NA,sub114
NA,html-keyboard-response,79,401737,0.0-10.0-0.33,"""event"",""trial"",""time""
""focus"",""0"",""2872""
""fullscreenenter"",""0"",""5104""
","
","""event"",""trial"",""time""
""focus"",""0"",""2872""
","""event"",""trial"",""time""
""fullscreenenter"",""0"",""5104""
","
",null,"<div style=""font-size:60px;"">+</div>",NA,null,fixation,2020-06-21T06:29:55Z,NA,NA,NA,NA,NA,sub114
NA,mars-trial,80,426772,0.0-10.0-1.33,"""event"",""trial"",""time""
""focus"",""0"",""2872""
""fullscreenenter"",""0"",""5104""
","
","""event"",""trial"",""time""
""focus"",""0"",""2872""
","""event"",""trial"",""time""
""fullscreenenter"",""0"",""5104""
","
",24420.00000000006,<img style='border: 4px solid darkgrey;' src='img/tf1_34_M_ss3.jpeg'></img>,3,NA,exp,NA,0,<img src='img/tf1_34_T1_ss3_md.jpeg'></img>,0,TRUE,NA,sub114
NA,html-keyboard-response,81,427274,0.0-10.0-0.34,"""event"",""trial"",""time""
""focus"",""0"",""2872""
""fullscreenenter"",""0"",""5104""
","
","""event"",""trial"",""time""
""focus"",""0"",""2872""
","""event"",""trial"",""time""
""fullscreenenter"",""0"",""5104""
","
",null,"<div style=""font-size:60px;"">+</div>",NA,null,fixation,2020-06-21T06:30:21Z,NA,NA,NA,NA,NA,sub114
NA,mars-trial,82,433512,0.0-10.0-1.34,"""event"",""trial"",""time""
""focus"",""0"",""2872""
""fullscreenenter"",""0"",""5104""
","
","""event"",""trial"",""time""
""focus"",""0"",""2872""
","""event"",""trial"",""time""
""fullscreenenter"",""0"",""5104""
","
",5633.000000000058,<img style='border: 4px solid darkgrey;' src='img/tf1_35_M_ss1.jpeg'></img>,3,NA,exp,NA,0,<img src='img/tf1_35_T1_ss1_md.jpeg'></img>,0,TRUE,NA,sub114
NA,html-keyboard-response,83,434013,0.0-10.0-0.35,"""event"",""trial"",""time""
""focus"",""0"",""2872""
""fullscreenenter"",""0"",""5104""
","
","""event"",""trial"",""time""
""focus"",""0"",""2872""
","""event"",""trial"",""time""
""fullscreenenter"",""0"",""5104""
","
",null,"<div style=""font-size:60px;"">+</div>",NA,null,fixation,2020-06-21T06:30:27Z,NA,NA,NA,NA,NA,sub114
NA,mars-trial,84,449259,0.0-10.0-1.35,"""event"",""trial"",""time""
""focus"",""0"",""2872""
""fullscreenenter"",""0"",""5104""
","
","""event"",""trial"",""time""
""focus"",""0"",""2872""
","""event"",""trial"",""time""
""fullscreenenter"",""0"",""5104""
","
",14640.000000000058,<img style='border: 4px solid darkgrey;' src='img/tf1_36_M_ss2.jpeg'></img>,1,NA,exp,NA,0,<img src='img/tf1_36_T1_ss2_md.jpeg'></img>,0,TRUE,NA,sub114
NA,html-keyboard-response,85,449759,0.0-10.0-0.36,"""event"",""trial"",""time""
""focus"",""0"",""2872""
""fullscreenenter"",""0"",""5104""
","
","""event"",""trial"",""time""
""focus"",""0"",""2872""
","""event"",""trial"",""time""
""fullscreenenter"",""0"",""5104""
","
",null,"<div style=""font-size:60px;"">+</div>",NA,null,fixation,2020-06-21T06:30:43Z,NA,NA,NA,NA,NA,sub114
NA,mars-trial,86,466304,0.0-10.0-1.36,"""event"",""trial"",""time""
""focus"",""0"",""2872""
""fullscreenenter"",""0"",""5104""
","
","""event"",""trial"",""time""
""focus"",""0"",""2872""
","""event"",""trial"",""time""
""fullscreenenter"",""0"",""5104""
","
",15940,<img style='border: 4px solid darkgrey;' src='img/tf1_37_M_ss3.jpeg'></img>,1,NA,exp,NA,0,<img src='img/tf1_37_T1_ss3_md.jpeg'></img>,0,TRUE,NA,sub114
NA,html-keyboard-response,87,466805,0.0-10.0-0.37,"""event"",""trial"",""time""
""focus"",""0"",""2872""
""fullscreenenter"",""0"",""5104""
","
","""event"",""trial"",""time""
""focus"",""0"",""2872""
","""event"",""trial"",""time""
""fullscreenenter"",""0"",""5104""
","
",null,"<div style=""font-size:60px;"">+</div>",NA,null,fixation,2020-06-21T06:31:00Z,NA,NA,NA,NA,NA,sub114
NA,mars-trial,88,471931,0.0-10.0-1.37,"""event"",""trial"",""time""
""focus"",""0"",""2872""
""fullscreenenter"",""0"",""5104""
","
","""event"",""trial"",""time""
""focus"",""0"",""2872""
","""event"",""trial"",""time""
""fullscreenenter"",""0"",""5104""
","
",4522.999999999942,<img style='border: 4px solid darkgrey;' src='img/tf1_38_M_ss1.jpeg'></img>,3,NA,exp,NA,0,<img src='img/tf1_38_T1_ss1_md.jpeg'></img>,0,TRUE,NA,sub114
NA,html-keyboard-response,89,472432,0.0-10.0-0.38,"""event"",""trial"",""time""
""focus"",""0"",""2872""
""fullscreenenter"",""0"",""5104""
","
","""event"",""trial"",""time""
""focus"",""0"",""2872""
","""event"",""trial"",""time""
""fullscreenenter"",""0"",""5104""
","
",null,"<div style=""font-size:60px;"">+</div>",NA,null,fixation,2020-06-21T06:31:06Z,NA,NA,NA,NA,NA,sub114
NA,mars-trial,90,489216,0.0-10.0-1.38,"""event"",""trial"",""time""
""focus"",""0"",""2872""
""fullscreenenter"",""0"",""5104""
","
","""event"",""trial"",""time""
""focus"",""0"",""2872""
","""event"",""trial"",""time""
""fullscreenenter"",""0"",""5104""
","
",16180,<img style='border: 4px solid darkgrey;' src='img/tf1_39_M_ss2.jpeg'></img>,0,NA,exp,NA,0,<img src='img/tf1_39_T1_ss2_md.jpeg'></img>,0,TRUE,NA,sub114
NA,html-keyboard-response,91,489717,0.0-10.0-0.39,"""event"",""trial"",""time""
""focus"",""0"",""2872""
""fullscreenenter"",""0"",""5104""
","
","""event"",""trial"",""time""
""focus"",""0"",""2872""
","""event"",""trial"",""time""
""fullscreenenter"",""0"",""5104""
","
",null,"<div style=""font-size:60px;"">+</div>",NA,null,fixation,2020-06-21T06:31:23Z,NA,NA,NA,NA,NA,sub114
NA,mars-trial,92,498326,0.0-10.0-1.39,"""event"",""trial"",""time""
""focus"",""0"",""2872""
""fullscreenenter"",""0"",""5104""
","
","""event"",""trial"",""time""
""focus"",""0"",""2872""
","""event"",""trial"",""time""
""fullscreenenter"",""0"",""5104""
","
",8006,<img style='border: 4px solid darkgrey;' src='img/tf1_40_M_ss3.jpeg'></img>,1,NA,exp,NA,2,<img src='img/tf1_40_T1_ss3_md.jpeg'></img>,0,FALSE,NA,sub114
NA,html-keyboard-response,93,498826,0.0-10.0-0.40,"""event"",""trial"",""time""
""focus"",""0"",""2872""
""fullscreenenter"",""0"",""5104""
","
","""event"",""trial"",""time""
""focus"",""0"",""2872""
","""event"",""trial"",""time""
""fullscreenenter"",""0"",""5104""
","
",null,"<div style=""font-size:60px;"">+</div>",NA,null,fixation,2020-06-21T06:31:32Z,NA,NA,NA,NA,NA,sub114
NA,mars-trial,94,503198,0.0-10.0-1.40,"""event"",""trial"",""time""
""focus"",""0"",""2872""
""fullscreenenter"",""0"",""5104""
","
","""event"",""trial"",""time""
""focus"",""0"",""2872""
","""event"",""trial"",""time""
""fullscreenenter"",""0"",""5104""
","
",3769,<img style='border: 4px solid darkgrey;' src='img/tf1_41_M_ss1.jpeg'></img>,2,NA,exp,NA,0,<img src='img/tf1_41_T1_ss1_md.jpeg'></img>,0,TRUE,NA,sub114
NA,html-keyboard-response,95,503699,0.0-10.0-0.41,"""event"",""trial"",""time""
""focus"",""0"",""2872""
""fullscreenenter"",""0"",""5104""
","
","""event"",""trial"",""time""
""focus"",""0"",""2872""
","""event"",""trial"",""time""
""fullscreenenter"",""0"",""5104""
","
",null,"<div style=""font-size:60px;"">+</div>",NA,null,fixation,2020-06-21T06:31:37Z,NA,NA,NA,NA,NA,sub114
NA,mars-trial,96,510840,0.0-10.0-1.41,"""event"",""trial"",""time""
""focus"",""0"",""2872""
""fullscreenenter"",""0"",""5104""
","
","""event"",""trial"",""time""
""focus"",""0"",""2872""
","""event"",""trial"",""time""
""fullscreenenter"",""0"",""5104""
","
",6538.999999999884,<img style='border: 4px solid darkgrey;' src='img/tf1_42_M_ss2.jpeg'></img>,1,NA,exp,NA,0,<img src='img/tf1_42_T1_ss2_md.jpeg'></img>,0,TRUE,NA,sub114
NA,html-keyboard-response,97,511341,0.0-10.0-0.42,"""event"",""trial"",""time""
""focus"",""0"",""2872""
""fullscreenenter"",""0"",""5104""
","
","""event"",""trial"",""time""
""focus"",""0"",""2872""
","""event"",""trial"",""time""
""fullscreenenter"",""0"",""5104""
","
",null,"<div style=""font-size:60px;"">+</div>",NA,null,fixation,2020-06-21T06:31:45Z,NA,NA,NA,NA,NA,sub114
NA,mars-trial,98,523182,0.0-10.0-1.42,"""event"",""trial"",""time""
""focus"",""0"",""2872""
""fullscreenenter"",""0"",""5104""
","
","""event"",""trial"",""time""
""focus"",""0"",""2872""
","""event"",""trial"",""time""
""fullscreenenter"",""0"",""5104""
","
",11237,<img style='border: 4px solid darkgrey;' src='img/tf1_43_M_ss3.jpeg'></img>,0,NA,exp,NA,0,<img src='img/tf1_43_T1_ss3_md.jpeg'></img>,0,TRUE,NA,sub114
NA,html-keyboard-response,99,523683,0.0-10.0-0.43,"""event"",""trial"",""time""
""focus"",""0"",""2872""
""fullscreenenter"",""0"",""5104""
","
","""event"",""trial"",""time""
""focus"",""0"",""2872""
","""event"",""trial"",""time""
""fullscreenenter"",""0"",""5104""
","
",null,"<div style=""font-size:60px;"">+</div>",NA,null,fixation,2020-06-21T06:31:57Z,NA,NA,NA,NA,NA,sub114
NA,mars-trial,100,530682,0.0-10.0-1.43,"""event"",""trial"",""time""
""focus"",""0"",""2872""
""fullscreenenter"",""0"",""5104""
","
","""event"",""trial"",""time""
""focus"",""0"",""2872""
","""event"",""trial"",""time""
""fullscreenenter"",""0"",""5104""
","
",6397.000000000116,<img style='border: 4px solid darkgrey;' src='img/tf1_44_M_ss1.jpeg'></img>,0,NA,exp,NA,0,<img src='img/tf1_44_T1_ss1_md.jpeg'></img>,0,TRUE,NA,sub114
NA,html-keyboard-response,101,531183,0.0-10.0-0.44,"""event"",""trial"",""time""
""focus"",""0"",""2872""
""fullscreenenter"",""0"",""5104""
","
","""event"",""trial"",""time""
""focus"",""0"",""2872""
","""event"",""trial"",""time""
""fullscreenenter"",""0"",""5104""
","
",null,"<div style=""font-size:60px;"">+</div>",NA,null,fixation,2020-06-21T06:32:04Z,NA,NA,NA,NA,NA,sub114
NA,mars-trial,102,531470,0.0-10.0-1.44,"""event"",""trial"",""time""
""focus"",""0"",""2872""
""fullscreenenter"",""0"",""5104""
","
","""event"",""trial"",""time""
""focus"",""0"",""2872""
","""event"",""trial"",""time""
""fullscreenenter"",""0"",""5104""
","
",NA,NA,NA,NA,exp,NA,NA,<img src='img/tf1_45_T1_ss2_md.jpeg'></img>,0,FALSE,NA,sub114
NA,html-keyboard-response,103,531971,0.0-10.0-0.45,"""event"",""trial"",""time""
""focus"",""0"",""2872""
""fullscreenenter"",""0"",""5104""
","
","""event"",""trial"",""time""
""focus"",""0"",""2872""
","""event"",""trial"",""time""
""fullscreenenter"",""0"",""5104""
","
",null,"<div style=""font-size:60px;"">+</div>",NA,null,fixation,2020-06-21T06:32:05Z,NA,NA,NA,NA,NA,sub114
NA,audio-button-response,104,534051,0.0-11.0,"""event"",""trial"",""time""
""focus"",""0"",""2872""
""fullscreenenter"",""0"",""5104""
","
","""event"",""trial"",""time""
""focus"",""0"",""2872""
","""event"",""trial"",""time""
""fullscreenenter"",""0"",""5104""
","
",1979,audio/mars_instructions_slide5.wav,0,NA,NA,NA,NA,NA,NA,NA,NA,sub114
