success,trial_type,trial_index,time_elapsed,internal_node_id,interactions,blur_events,focus_events,fullscreenenter_events,fullscreenexit_events,rt,stimulus,button_pressed,key_press,part,timestamp,unshuffled_button,correct_response,correct_button,correct,value,subject_id
TRUE,fullscreen,0,4423,0.0-0.0,"""event"",""trial"",""time""
""fullscreenenter"",""0"",""3467""
","
","
","""event"",""trial"",""time""
""fullscreenenter"",""0"",""3467""
","
",NA,NA,NA,NA,NA,NA,NA,NA,NA,NA,NA,sub117
NA,pavlovia,1,4442,0.0-1.0,"""event"",""trial"",""time""
""fullscreenenter"",""0"",""3467""
","
","
","""event"",""trial"",""time""
""fullscreenenter"",""0"",""3467""
","
",NA,NA,NA,NA,NA,NA,NA,NA,NA,NA,NA,sub117
NA,html-button-response,2,5761,0.0-2.0,"""event"",""trial"",""time""
""fullscreenenter"",""0"",""3467""
","
","
","""event"",""trial"",""time""
""fullscreenenter"",""0"",""3467""
","
",1309.3250000383705,<p>Welcome! Press START to begin.</p><br>,0,NA,NA,NA,NA,NA,NA,NA,NA,sub117
NA,audio-button-response,3,17004,0.0-3.0,"""event"",""trial"",""time""
""fullscreenenter"",""0"",""3467""
","
","
","""event"",""trial"",""time""
""fullscreenenter"",""0"",""3467""
","
",11230.30000005383,audio/mars_instructions_slide2.wav,0,NA,NA,NA,NA,NA,NA,NA,NA,sub117
NA,audio-button-response,4,24028,0.0-4.0,"""event"",""trial"",""time""
""fullscreenenter"",""0"",""3467""
","
","
","""event"",""trial"",""time""
""fullscreenenter"",""0"",""3467""
","
",7014.815000002272,audio/mars_instructions_slide3.wav,0,NA,NA,NA,NA,NA,NA,NA,NA,sub117
NA,html-keyboard-response,5,24536,0.0-5.0-0.0,"""event"",""trial"",""time""
""fullscreenenter"",""0"",""3467""
","
","
","""event"",""trial"",""time""
""fullscreenenter"",""0"",""3467""
","
",null,"<div style=""font-size:60px;"">+</div>",NA,null,fixation,2020-06-20T19:00:58Z,NA,NA,NA,NA,NA,sub117
NA,mars-trial,6,35204,0.0-5.0-1.0,"""event"",""trial"",""time""
""fullscreenenter"",""0"",""3467""
","
","
","""event"",""trial"",""time""
""fullscreenenter"",""0"",""3467""
","
",8542.19499998726,<img style='border: 4px solid darkgrey;' src='practice/pt1_M1.png'></img>,3,NA,practice,NA,0,<img src='practice/pt1_T1.png'></img>,0,TRUE,NA,sub117
NA,html-keyboard-response,7,35718,0.0-6.0-0.0,"""event"",""trial"",""time""
""fullscreenenter"",""0"",""3467""
","
","
","""event"",""trial"",""time""
""fullscreenenter"",""0"",""3467""
","
",null,"<div style=""font-size:60px;"">+</div>",NA,null,fixation,2020-06-20T19:01:09Z,NA,NA,NA,NA,NA,sub117
NA,mars-trial,8,40247,0.0-6.0-1.0,"""event"",""trial"",""time""
""fullscreenenter"",""0"",""3467""
","
","
","""event"",""trial"",""time""
""fullscreenenter"",""0"",""3467""
","
",2405.3749999729916,<img style='border: 4px solid darkgrey;' src='practice/pt2_M1.png'></img>,0,NA,practice,NA,0,<img src='practice/pt2_T1.png'></img>,0,TRUE,NA,sub117
NA,html-keyboard-response,9,40757,0.0-7.0-0.0,"""event"",""trial"",""time""
""fullscreenenter"",""0"",""3467""
","
","
","""event"",""trial"",""time""
""fullscreenenter"",""0"",""3467""
","
",null,"<div style=""font-size:60px;"">+</div>",NA,null,fixation,2020-06-20T19:01:14Z,NA,NA,NA,NA,NA,sub117
NA,mars-trial,10,44532,0.0-7.0-1.0,"""event"",""trial"",""time""
""fullscreenenter"",""0"",""3467""
","
","
","""event"",""trial"",""time""
""fullscreenenter"",""0"",""3467""
","
",1644.3200000794604,<img style='border: 4px solid darkgrey;' src='practice/pt3_M1.png'></img>,3,NA,practice,NA,0,<img src='practice/pt3_T1.png'></img>,0,TRUE,NA,sub117
NA,audio-button-response,11,47367,0.0-8.0,"""event"",""trial"",""time""
""fullscreenenter"",""0"",""3467""
","
","
","""event"",""trial"",""time""
""fullscreenenter"",""0"",""3467""
","
",2828.529999940656,audio/mars_instructions_slide4.wav,0,NA,NA,NA,NA,NA,NA,NA,NA,sub117
NA,call-function,12,47372,0.0-9.0,"""event"",""trial"",""time""
""fullscreenenter"",""0"",""3467""
","
","
","""event"",""trial"",""time""
""fullscreenenter"",""0"",""3467""
","
",NA,NA,NA,NA,NA,NA,NA,NA,NA,NA,NA,sub117
NA,html-keyboard-response,13,47877,0.0-10.0-0.0,"""event"",""trial"",""time""
""fullscreenenter"",""0"",""3467""
","
","
","""event"",""trial"",""time""
""fullscreenenter"",""0"",""3467""
","
",null,"<div style=""font-size:60px;"">+</div>",NA,null,fixation,2020-06-20T19:01:21Z,NA,NA,NA,NA,NA,sub117
NA,mars-trial,14,50078,0.0-10.0-1.0,"""event"",""trial"",""time""
""fullscreenenter"",""0"",""3467""
","
","
","""event"",""trial"",""time""
""fullscreenenter"",""0"",""3467""
","
",1574.350000009872,<img style='border: 4px solid darkgrey;' src='img/tf1_1_M_ss3.jpeg'></img>,1,NA,exp,NA,0,<img src='img/tf1_1_T1_ss3_md.jpeg'></img>,0,TRUE,NA,sub117
NA,html-keyboard-response,15,50584,0.0-10.0-0.1,"""event"",""trial"",""time""
""fullscreenenter"",""0"",""3467""
","
","
","""event"",""trial"",""time""
""fullscreenenter"",""0"",""3467""
","
",null,"<div style=""font-size:60px;"">+</div>",NA,null,fixation,2020-06-20T19:01:24Z,NA,NA,NA,NA,NA,sub117
NA,mars-trial,16,52928,0.0-10.0-1.1,"""event"",""trial"",""time""
""fullscreenenter"",""0"",""3467""
","
","
","""event"",""trial"",""time""
""fullscreenenter"",""0"",""3467""
","
",1722.8599999798462,<img style='border: 4px solid darkgrey;' src='img/tf1_2_M_ss1.jpeg'></img>,3,NA,exp,NA,0,<img src='img/tf1_2_T1_ss1_md.jpeg'></img>,0,TRUE,NA,sub117
NA,html-keyboard-response,17,53434,0.0-10.0-0.2,"""event"",""trial"",""time""
""fullscreenenter"",""0"",""3467""
","
","
","""event"",""trial"",""time""
""fullscreenenter"",""0"",""3467""
","
",null,"<div style=""font-size:60px;"">+</div>",NA,null,fixation,2020-06-20T19:01:27Z,NA,NA,NA,NA,NA,sub117
NA,mars-trial,18,56008,0.0-10.0-1.2,"""event"",""trial"",""time""
""fullscreenenter"",""0"",""3467""
","
","
","""event"",""trial"",""time""
""fullscreenenter"",""0"",""3467""
","
",1948.9999999059364,<img style='border: 4px solid darkgrey;' src='img/tf1_3_M_ss2.jpeg'></img>,1,NA,exp,NA,0,<img src='img/tf1_3_T1_ss2_md.jpeg'></img>,0,TRUE,NA,sub117
NA,html-keyboard-response,19,56516,0.0-10.0-0.3,"""event"",""trial"",""time""
""fullscreenenter"",""0"",""3467""
","
","
","""event"",""trial"",""time""
""fullscreenenter"",""0"",""3467""
","
",null,"<div style=""font-size:60px;"">+</div>",NA,null,fixation,2020-06-20T19:01:30Z,NA,NA,NA,NA,NA,sub117
NA,mars-trial,20,60969,0.0-10.0-1.3,"""event"",""trial"",""time""
""fullscreenenter"",""0"",""3467""
","
","
","""event"",""trial"",""time""
""fullscreenenter"",""0"",""3467""
","
",3831.359999952838,<img style='border: 4px solid darkgrey;' src='img/tf1_4_M_ss3.jpeg'></img>,3,NA,exp,NA,0,<img src='img/tf1_4_T1_ss3_md.jpeg'></img>,0,TRUE,NA,sub117
NA,html-keyboard-response,21,61474,0.0-10.0-0.4,"""event"",""trial"",""time""
""fullscreenenter"",""0"",""3467""
","
","
","""event"",""trial"",""time""
""fullscreenenter"",""0"",""3467""
","
",null,"<div style=""font-size:60px;"">+</div>",NA,null,fixation,2020-06-20T19:01:35Z,NA,NA,NA,NA,NA,sub117
NA,mars-trial,22,67166,0.0-10.0-1.4,"""event"",""trial"",""time""
""fullscreenenter"",""0"",""3467""
","
","
","""event"",""trial"",""time""
""fullscreenenter"",""0"",""3467""
","
",5061.150000081398,<img style='border: 4px solid darkgrey;' src='img/tf1_5_M_ss1.jpeg'></img>,1,NA,exp,NA,0,<img src='img/tf1_5_T1_ss1_md.jpeg'></img>,0,TRUE,NA,sub117
NA,html-keyboard-response,23,67673,0.0-10.0-0.5,"""event"",""trial"",""time""
""fullscreenenter"",""0"",""3467""
","
","
","""event"",""trial"",""time""
""fullscreenenter"",""0"",""3467""
","
",null,"<div style=""font-size:60px;"">+</div>",NA,null,fixation,2020-06-20T19:01:41Z,NA,NA,NA,NA,NA,sub117
NA,mars-trial,24,75913,0.0-10.0-1.5,"""event"",""trial"",""time""
""fullscreenenter"",""0"",""3467""
","
","
","""event"",""trial"",""time""
""fullscreenenter"",""0"",""3467""
","
",7620.480000041425,<img style='border: 4px solid darkgrey;' src='img/tf1_6_M_ss2.jpeg'></img>,2,NA,exp,NA,0,<img src='img/tf1_6_T1_ss2_md.jpeg'></img>,0,TRUE,NA,sub117
NA,html-keyboard-response,25,76418,0.0-10.0-0.6,"""event"",""trial"",""time""
""fullscreenenter"",""0"",""3467""
","
","
","""event"",""trial"",""time""
""fullscreenenter"",""0"",""3467""
","
",null,"<div style=""font-size:60px;"">+</div>",NA,null,fixation,2020-06-20T19:01:50Z,NA,NA,NA,NA,NA,sub117
NA,mars-trial,26,80886,0.0-10.0-1.6,"""event"",""trial"",""time""
""fullscreenenter"",""0"",""3467""
","
","
","""event"",""trial"",""time""
""fullscreenenter"",""0"",""3467""
","
",3843.0600001011044,<img style='border: 4px solid darkgrey;' src='img/tf1_7_M_ss3.jpeg'></img>,0,NA,exp,NA,0,<img src='img/tf1_7_T1_ss3_md.jpeg'></img>,0,TRUE,NA,sub117
NA,html-keyboard-response,27,81395,0.0-10.0-0.7,"""event"",""trial"",""time""
""fullscreenenter"",""0"",""3467""
","
","
","""event"",""trial"",""time""
""fullscreenenter"",""0"",""3467""
","
",null,"<div style=""font-size:60px;"">+</div>",NA,null,fixation,2020-06-20T19:01:55Z,NA,NA,NA,NA,NA,sub117
NA,mars-trial,28,88034,0.0-10.0-1.7,"""event"",""trial"",""time""
""fullscreenenter"",""0"",""3467""
","
","
","""event"",""trial"",""time""
""fullscreenenter"",""0"",""3467""
","
",6012.415000004694,<img style='border: 4px solid darkgrey;' src='img/tf1_8_M_ss1.jpeg'></img>,2,NA,exp,NA,0,<img src='img/tf1_8_T1_ss1_md.jpeg'></img>,0,TRUE,NA,sub117
NA,html-keyboard-response,29,88538,0.0-10.0-0.8,"""event"",""trial"",""time""
""fullscreenenter"",""0"",""3467""
","
","
","""event"",""trial"",""time""
""fullscreenenter"",""0"",""3467""
","
",null,"<div style=""font-size:60px;"">+</div>",NA,null,fixation,2020-06-20T19:02:02Z,NA,NA,NA,NA,NA,sub117
NA,mars-trial,30,92858,0.0-10.0-1.8,"""event"",""trial"",""time""
""fullscreenenter"",""0"",""3467""
","
","
","""event"",""trial"",""time""
""fullscreenenter"",""0"",""3467""
","
",3689.970000064932,<img style='border: 4px solid darkgrey;' src='img/tf1_9_M_ss2.jpeg'></img>,1,NA,exp,NA,0,<img src='img/tf1_9_T1_ss2_md.jpeg'></img>,0,TRUE,NA,sub117
NA,html-keyboard-response,31,93370,0.0-10.0-0.9,"""event"",""trial"",""time""
""fullscreenenter"",""0"",""3467""
","
","
","""event"",""trial"",""time""
""fullscreenenter"",""0"",""3467""
","
",null,"<div style=""font-size:60px;"">+</div>",NA,null,fixation,2020-06-20T19:02:07Z,NA,NA,NA,NA,NA,sub117
NA,mars-trial,32,106538,0.0-10.0-1.9,"""event"",""trial"",""time""
""fullscreenenter"",""0"",""3467""
","
","
","""event"",""trial"",""time""
""fullscreenenter"",""0"",""3467""
","
",12540.46000004746,<img style='border: 4px solid darkgrey;' src='img/tf1_10_M_ss3.jpeg'></img>,2,NA,exp,NA,0,<img src='img/tf1_10_T1_ss3_md.jpeg'></img>,0,TRUE,NA,sub117
NA,html-keyboard-response,33,107050,0.0-10.0-0.10,"""event"",""trial"",""time""
""fullscreenenter"",""0"",""3467""
","
","
","""event"",""trial"",""time""
""fullscreenenter"",""0"",""3467""
","
",null,"<div style=""font-size:60px;"">+</div>",NA,null,fixation,2020-06-20T19:02:20Z,NA,NA,NA,NA,NA,sub117
NA,mars-trial,34,119056,0.0-10.0-1.10,"""event"",""trial"",""time""
""fullscreenenter"",""0"",""3467""
","
","
","""event"",""trial"",""time""
""fullscreenenter"",""0"",""3467""
","
",11369.810000061989,<img style='border: 4px solid darkgrey;' src='img/tf1_11_M_ss1.jpeg'></img>,2,NA,exp,NA,1,<img src='img/tf1_11_T1_ss1_md.jpeg'></img>,0,FALSE,NA,sub117
NA,html-keyboard-response,35,119566,0.0-10.0-0.11,"""event"",""trial"",""time""
""fullscreenenter"",""0"",""3467""
","
","
","""event"",""trial"",""time""
""fullscreenenter"",""0"",""3467""
","
",null,"<div style=""font-size:60px;"">+</div>",NA,null,fixation,2020-06-20T19:02:33Z,NA,NA,NA,NA,NA,sub117
NA,mars-trial,36,147994,0.0-10.0-1.11,"""event"",""trial"",""time""
""fullscreenenter"",""0"",""3467""
","
","
","""event"",""trial"",""time""
""fullscreenenter"",""0"",""3467""
","
",27789.014999987558,<img style='border: 4px solid darkgrey;' src='img/tf1_12_M_ss2.jpeg'></img>,1,NA,exp,NA,1,<img src='img/tf1_12_T1_ss2_md.jpeg'></img>,0,FALSE,NA,sub117
NA,html-keyboard-response,37,148503,0.0-10.0-0.12,"""event"",""trial"",""time""
""fullscreenenter"",""0"",""3467""
","
","
","""event"",""trial"",""time""
""fullscreenenter"",""0"",""3467""
","
",null,"<div style=""font-size:60px;"">+</div>",NA,null,fixation,2020-06-20T19:03:02Z,NA,NA,NA,NA,NA,sub117
NA,mars-trial,38,163894,0.0-10.0-1.12,"""event"",""trial"",""time""
""fullscreenenter"",""0"",""3467""
","
","
","""event"",""trial"",""time""
""fullscreenenter"",""0"",""3467""
","
",14758.189999964088,<img style='border: 4px solid darkgrey;' src='img/tf1_13_M_ss3.jpeg'></img>,2,NA,exp,NA,0,<img src='img/tf1_13_T1_ss3_md.jpeg'></img>,0,TRUE,NA,sub117
NA,html-keyboard-response,39,164404,0.0-10.0-0.13,"""event"",""trial"",""time""
""fullscreenenter"",""0"",""3467""
","
","
","""event"",""trial"",""time""
""fullscreenenter"",""0"",""3467""
","
",null,"<div style=""font-size:60px;"">+</div>",NA,null,fixation,2020-06-20T19:03:18Z,NA,NA,NA,NA,NA,sub117
NA,mars-trial,40,190968,0.0-10.0-1.13,"""event"",""trial"",""time""
""fullscreenenter"",""0"",""3467""
","
","
","""event"",""trial"",""time""
""fullscreenenter"",""0"",""3467""
","
",25937.76500003878,<img style='border: 4px solid darkgrey;' src='img/tf1_14_M_ss1.jpeg'></img>,2,NA,exp,NA,0,<img src='img/tf1_14_T1_ss1_md.jpeg'></img>,0,TRUE,NA,sub117
NA,html-keyboard-response,41,191471,0.0-10.0-0.14,"""event"",""trial"",""time""
""fullscreenenter"",""0"",""3467""
","
","
","""event"",""trial"",""time""
""fullscreenenter"",""0"",""3467""
","
",null,"<div style=""font-size:60px;"">+</div>",NA,null,fixation,2020-06-20T19:03:45Z,NA,NA,NA,NA,NA,sub117
NA,mars-trial,42,206749,0.0-10.0-1.14,"""event"",""trial"",""time""
""fullscreenenter"",""0"",""3467""
","
","
","""event"",""trial"",""time""
""fullscreenenter"",""0"",""3467""
","
",14650.54499998223,<img style='border: 4px solid darkgrey;' src='img/tf1_15_M_ss2.jpeg'></img>,2,NA,exp,NA,1,<img src='img/tf1_15_T1_ss2_md.jpeg'></img>,0,FALSE,NA,sub117
NA,html-keyboard-response,43,207254,0.0-10.0-0.15,"""event"",""trial"",""time""
""fullscreenenter"",""0"",""3467""
","
","
","""event"",""trial"",""time""
""fullscreenenter"",""0"",""3467""
","
",null,"<div style=""font-size:60px;"">+</div>",NA,null,fixation,2020-06-20T19:04:01Z,NA,NA,NA,NA,NA,sub117
NA,mars-trial,44,213854,0.0-10.0-1.15,"""event"",""trial"",""time""
""fullscreenenter"",""0"",""3467""
","
","
","""event"",""trial"",""time""
""fullscreenenter"",""0"",""3467""
","
",5961.300000082701,<img style='border: 4px solid darkgrey;' src='img/tf1_16_M_ss3.jpeg'></img>,2,NA,exp,NA,0,<img src='img/tf1_16_T1_ss3_md.jpeg'></img>,0,TRUE,NA,sub117
NA,html-keyboard-response,45,214365,0.0-10.0-0.16,"""event"",""trial"",""time""
""fullscreenenter"",""0"",""3467""
","
","
","""event"",""trial"",""time""
""fullscreenenter"",""0"",""3467""
","
",null,"<div style=""font-size:60px;"">+</div>",NA,null,fixation,2020-06-20T19:04:08Z,NA,NA,NA,NA,NA,sub117
NA,mars-trial,46,226276,0.0-10.0-1.16,"""event"",""trial"",""time""
""fullscreenenter"",""0"",""3467""
","
","
","""event"",""trial"",""time""
""fullscreenenter"",""0"",""3467""
","
",11274.47500010021,<img style='border: 4px solid darkgrey;' src='img/tf1_17_M_ss1.jpeg'></img>,3,NA,exp,NA,3,<img src='img/tf1_17_T1_ss1_md.jpeg'></img>,0,FALSE,NA,sub117
NA,html-keyboard-response,47,226787,0.0-10.0-0.17,"""event"",""trial"",""time""
""fullscreenenter"",""0"",""3467""
","
","
","""event"",""trial"",""time""
""fullscreenenter"",""0"",""3467""
","
",null,"<div style=""font-size:60px;"">+</div>",NA,null,fixation,2020-06-20T19:04:20Z,NA,NA,NA,NA,NA,sub117
NA,mars-trial,48,241544,0.0-10.0-1.17,"""event"",""trial"",""time""
""fullscreenenter"",""0"",""3467""
","
","
","""event"",""trial"",""time""
""fullscreenenter"",""0"",""3467""
","
",14134.01999999769,<img style='border: 4px solid darkgrey;' src='img/tf1_18_M_ss2.jpeg'></img>,3,NA,exp,NA,3,<img src='img/tf1_18_T1_ss2_md.jpeg'></img>,0,FALSE,NA,sub117
NA,html-keyboard-response,49,242051,0.0-10.0-0.18,"""event"",""trial"",""time""
""fullscreenenter"",""0"",""3467""
","
","
","""event"",""trial"",""time""
""fullscreenenter"",""0"",""3467""
","
",null,"<div style=""font-size:60px;"">+</div>",NA,null,fixation,2020-06-20T19:04:35Z,NA,NA,NA,NA,NA,sub117
NA,mars-trial,50,249930,0.0-10.0-1.18,"""event"",""trial"",""time""
""fullscreenenter"",""0"",""3467""
","
","
","""event"",""trial"",""time""
""fullscreenenter"",""0"",""3467""
","
",7246.84499995783,<img style='border: 4px solid darkgrey;' src='img/tf1_19_M_ss3.jpeg'></img>,0,NA,exp,NA,3,<img src='img/tf1_19_T1_ss3_md.jpeg'></img>,0,FALSE,NA,sub117
NA,html-keyboard-response,51,250439,0.0-10.0-0.19,"""event"",""trial"",""time""
""fullscreenenter"",""0"",""3467""
","
","
","""event"",""trial"",""time""
""fullscreenenter"",""0"",""3467""
","
",null,"<div style=""font-size:60px;"">+</div>",NA,null,fixation,2020-06-20T19:04:44Z,NA,NA,NA,NA,NA,sub117
NA,mars-trial,52,270769,0.0-10.0-1.19,"""event"",""trial"",""time""
""fullscreenenter"",""0"",""3467""
","
","
","""event"",""trial"",""time""
""fullscreenenter"",""0"",""3467""
","
",19694.240000098944,<img style='border: 4px solid darkgrey;' src='img/tf1_20_M_ss1.jpeg'></img>,3,NA,exp,NA,2,<img src='img/tf1_20_T1_ss1_md.jpeg'></img>,0,FALSE,NA,sub117
NA,html-keyboard-response,53,271273,0.0-10.0-0.20,"""event"",""trial"",""time""
""fullscreenenter"",""0"",""3467""
","
","
","""event"",""trial"",""time""
""fullscreenenter"",""0"",""3467""
","
",null,"<div style=""font-size:60px;"">+</div>",NA,null,fixation,2020-06-20T19:05:05Z,NA,NA,NA,NA,NA,sub117
NA,mars-trial,54,288188,0.0-10.0-1.20,"""event"",""trial"",""time""
""fullscreenenter"",""0"",""3467""
","
","
","""event"",""trial"",""time""
""fullscreenenter"",""0"",""3467""
","
",16277.724999934435,<img style='border: 4px solid darkgrey;' src='img/tf1_21_M_ss2.jpeg'></img>,2,NA,exp,NA,3,<img src='img/tf1_21_T1_ss2_md.jpeg'></img>,0,FALSE,NA,sub117
NA,html-keyboard-response,55,288699,0.0-10.0-0.21,"""event"",""trial"",""time""
""fullscreenenter"",""0"",""3467""
","
","
","""event"",""trial"",""time""
""fullscreenenter"",""0"",""3467""
","
",null,"<div style=""font-size:60px;"">+</div>",NA,null,fixation,2020-06-20T19:05:22Z,NA,NA,NA,NA,NA,sub117
NA,mars-trial,56,307059,0.0-10.0-1.21,"""event"",""trial"",""time""
""fullscreenenter"",""0"",""3467""
","
","
","""event"",""trial"",""time""
""fullscreenenter"",""0"",""3467""
","
",17728.409999981523,<img style='border: 4px solid darkgrey;' src='img/tf1_22_M_ss3.jpeg'></img>,3,NA,exp,NA,3,<img src='img/tf1_22_T1_ss3_md.jpeg'></img>,0,FALSE,NA,sub117
NA,html-keyboard-response,57,307567,0.0-10.0-0.22,"""event"",""trial"",""time""
""fullscreenenter"",""0"",""3467""
","
","
","""event"",""trial"",""time""
""fullscreenenter"",""0"",""3467""
","
",null,"<div style=""font-size:60px;"">+</div>",NA,null,fixation,2020-06-20T19:05:41Z,NA,NA,NA,NA,NA,sub117
NA,mars-trial,58,317825,0.0-10.0-1.22,"""event"",""trial"",""time""
""fullscreenenter"",""0"",""3467""
","
","
","""event"",""trial"",""time""
""fullscreenenter"",""0"",""3467""
","
",9624.285000027157,<img style='border: 4px solid darkgrey;' src='img/tf1_23_M_ss1.jpeg'></img>,3,NA,exp,NA,1,<img src='img/tf1_23_T1_ss1_md.jpeg'></img>,0,FALSE,NA,sub117
NA,html-keyboard-response,59,318336,0.0-10.0-0.23,"""event"",""trial"",""time""
""fullscreenenter"",""0"",""3467""
","
","
","""event"",""trial"",""time""
""fullscreenenter"",""0"",""3467""
","
",null,"<div style=""font-size:60px;"">+</div>",NA,null,fixation,2020-06-20T19:05:52Z,NA,NA,NA,NA,NA,sub117
NA,mars-trial,60,332864,0.0-10.0-1.23,"""event"",""trial"",""time""
""fullscreenenter"",""0"",""3467""
","
","
","""event"",""trial"",""time""
""fullscreenenter"",""0"",""3467""
","
",13903.449999983422,<img style='border: 4px solid darkgrey;' src='img/tf1_24_M_ss2.jpeg'></img>,3,NA,exp,NA,0,<img src='img/tf1_24_T1_ss2_md.jpeg'></img>,0,TRUE,NA,sub117
NA,html-keyboard-response,61,333373,0.0-10.0-0.24,"""event"",""trial"",""time""
""fullscreenenter"",""0"",""3467""
","
","
","""event"",""trial"",""time""
""fullscreenenter"",""0"",""3467""
","
",null,"<div style=""font-size:60px;"">+</div>",NA,null,fixation,2020-06-20T19:06:07Z,NA,NA,NA,NA,NA,sub117
NA,mars-trial,62,345056,0.0-10.0-1.24,"""event"",""trial"",""time""
""fullscreenenter"",""0"",""3467""
","
","
","""event"",""trial"",""time""
""fullscreenenter"",""0"",""3467""
","
",11026.255000033416,<img style='border: 4px solid darkgrey;' src='img/tf1_25_M_ss3.jpeg'></img>,2,NA,exp,NA,0,<img src='img/tf1_25_T1_ss3_md.jpeg'></img>,0,TRUE,NA,sub117
NA,html-keyboard-response,63,345563,0.0-10.0-0.25,"""event"",""trial"",""time""
""fullscreenenter"",""0"",""3467""
","
","
","""event"",""trial"",""time""
""fullscreenenter"",""0"",""3467""
","
",null,"<div style=""font-size:60px;"">+</div>",NA,null,fixation,2020-06-20T19:06:19Z,NA,NA,NA,NA,NA,sub117
NA,mars-trial,64,362934,0.0-10.0-1.25,"""event"",""trial"",""time""
""fullscreenenter"",""0"",""3467""
","
","
","""event"",""trial"",""time""
""fullscreenenter"",""0"",""3467""
","
",16740.529999951832,<img style='border: 4px solid darkgrey;' src='img/tf1_26_M_ss1.jpeg'></img>,1,NA,exp,NA,0,<img src='img/tf1_26_T1_ss1_md.jpeg'></img>,0,TRUE,NA,sub117
NA,html-keyboard-response,65,363442,0.0-10.0-0.26,"""event"",""trial"",""time""
""fullscreenenter"",""0"",""3467""
","
","
","""event"",""trial"",""time""
""fullscreenenter"",""0"",""3467""
","
",null,"<div style=""font-size:60px;"">+</div>",NA,null,fixation,2020-06-20T19:06:37Z,NA,NA,NA,NA,NA,sub117
NA,mars-trial,66,382734,0.0-10.0-1.26,"""event"",""trial"",""time""
""fullscreenenter"",""0"",""3467""
","
","
","""event"",""trial"",""time""
""fullscreenenter"",""0"",""3467""
","
",18660.650000092573,<img style='border: 4px solid darkgrey;' src='img/tf1_27_M_ss2.jpeg'></img>,0,NA,exp,NA,0,<img src='img/tf1_27_T1_ss2_md.jpeg'></img>,0,TRUE,NA,sub117
NA,html-keyboard-response,67,383241,0.0-10.0-0.27,"""event"",""trial"",""time""
""fullscreenenter"",""0"",""3467""
","
","
","""event"",""trial"",""time""
""fullscreenenter"",""0"",""3467""
","
",null,"<div style=""font-size:60px;"">+</div>",NA,null,fixation,2020-06-20T19:06:57Z,NA,NA,NA,NA,NA,sub117
NA,mars-trial,68,392788,0.0-10.0-1.27,"""event"",""trial"",""time""
""fullscreenenter"",""0"",""3467""
","
","
","""event"",""trial"",""time""
""fullscreenenter"",""0"",""3467""
","
",8913.74500002712,<img style='border: 4px solid darkgrey;' src='img/tf1_28_M_ss3.jpeg'></img>,3,NA,exp,NA,1,<img src='img/tf1_28_T1_ss3_md.jpeg'></img>,0,FALSE,NA,sub117
NA,html-keyboard-response,69,393294,0.0-10.0-0.28,"""event"",""trial"",""time""
""fullscreenenter"",""0"",""3467""
","
","
","""event"",""trial"",""time""
""fullscreenenter"",""0"",""3467""
","
",null,"<div style=""font-size:60px;"">+</div>",NA,null,fixation,2020-06-20T19:07:07Z,NA,NA,NA,NA,NA,sub117
NA,mars-trial,70,421425,0.0-10.0-1.28,"""event"",""trial"",""time""
""fullscreenenter"",""0"",""3467""
","
","
","""event"",""trial"",""time""
""fullscreenenter"",""0"",""3467""
","
",27490.84500002209,<img style='border: 4px solid darkgrey;' src='img/tf1_29_M_ss1.jpeg'></img>,2,NA,exp,NA,0,<img src='img/tf1_29_T1_ss1_md.jpeg'></img>,0,TRUE,NA,sub117
NA,html-keyboard-response,71,421934,0.0-10.0-0.29,"""event"",""trial"",""time""
""fullscreenenter"",""0"",""3467""
","
","
","""event"",""trial"",""time""
""fullscreenenter"",""0"",""3467""
","
",null,"<div style=""font-size:60px;"">+</div>",NA,null,fixation,2020-06-20T19:07:35Z,NA,NA,NA,NA,NA,sub117
NA,mars-trial,72,439746,0.0-10.0-1.29,"""event"",""trial"",""time""
""fullscreenenter"",""0"",""3467""
","
","
","""event"",""trial"",""time""
""fullscreenenter"",""0"",""3467""
","
",17181.260000099428,<img style='border: 4px solid darkgrey;' src='img/tf1_30_M_ss2.jpeg'></img>,0,NA,exp,NA,0,<img src='img/tf1_30_T1_ss2_md.jpeg'></img>,0,TRUE,NA,sub117
NA,html-keyboard-response,73,440256,0.0-10.0-0.30,"""event"",""trial"",""time""
""fullscreenenter"",""0"",""3467""
","
","
","""event"",""trial"",""time""
""fullscreenenter"",""0"",""3467""
","
",null,"<div style=""font-size:60px;"">+</div>",NA,null,fixation,2020-06-20T19:07:54Z,NA,NA,NA,NA,NA,sub117
NA,mars-trial,74,468337,0.0-10.0-1.30,"""event"",""trial"",""time""
""fullscreenenter"",""0"",""3467""
","
","
","""event"",""trial"",""time""
""fullscreenenter"",""0"",""3467""
","
",27444.825000013225,<img style='border: 4px solid darkgrey;' src='img/tf1_31_M_ss3.jpeg'></img>,2,NA,exp,NA,0,<img src='img/tf1_31_T1_ss3_md.jpeg'></img>,0,TRUE,NA,sub117
NA,html-keyboard-response,75,468845,0.0-10.0-0.31,"""event"",""trial"",""time""
""fullscreenenter"",""0"",""3467""
","
","
","""event"",""trial"",""time""
""fullscreenenter"",""0"",""3467""
","
",null,"<div style=""font-size:60px;"">+</div>",NA,null,fixation,2020-06-20T19:08:22Z,NA,NA,NA,NA,NA,sub117
NA,mars-trial,76,478246,0.0-10.0-1.31,"""event"",""trial"",""time""
""fullscreenenter"",""0"",""3467""
","
","
","""event"",""trial"",""time""
""fullscreenenter"",""0"",""3467""
","
",8762.149999965914,<img style='border: 4px solid darkgrey;' src='img/tf1_32_M_ss1.jpeg'></img>,2,NA,exp,NA,0,<img src='img/tf1_32_T1_ss1_md.jpeg'></img>,0,TRUE,NA,sub117
NA,html-keyboard-response,77,478757,0.0-10.0-0.32,"""event"",""trial"",""time""
""fullscreenenter"",""0"",""3467""
","
","
","""event"",""trial"",""time""
""fullscreenenter"",""0"",""3467""
","
",null,"<div style=""font-size:60px;"">+</div>",NA,null,fixation,2020-06-20T19:08:32Z,NA,NA,NA,NA,NA,sub117
NA,mars-trial,78,490955,0.0-10.0-1.32,"""event"",""trial"",""time""
""fullscreenenter"",""0"",""3467""
","
","
","""event"",""trial"",""time""
""fullscreenenter"",""0"",""3467""
","
",11570.835000020452,<img style='border: 4px solid darkgrey;' src='img/tf1_33_M_ss2.jpeg'></img>,0,NA,exp,NA,0,<img src='img/tf1_33_T1_ss2_md.jpeg'></img>,0,TRUE,NA,sub117
NA,html-keyboard-response,79,491461,0.0-10.0-0.33,"""event"",""trial"",""time""
""fullscreenenter"",""0"",""3467""
","
","
","""event"",""trial"",""time""
""fullscreenenter"",""0"",""3467""
","
",null,"<div style=""font-size:60px;"">+</div>",NA,null,fixation,2020-06-20T19:08:45Z,NA,NA,NA,NA,NA,sub117
NA,mars-trial,80,508783,0.0-10.0-1.33,"""event"",""trial"",""time""
""fullscreenenter"",""0"",""3467""
","
","
","""event"",""trial"",""time""
""fullscreenenter"",""0"",""3467""
","
",16687.129999976605,<img style='border: 4px solid darkgrey;' src='img/tf1_34_M_ss3.jpeg'></img>,2,NA,exp,NA,1,<img src='img/tf1_34_T1_ss3_md.jpeg'></img>,0,FALSE,NA,sub117
NA,html-keyboard-response,81,509293,0.0-10.0-0.34,"""event"",""trial"",""time""
""fullscreenenter"",""0"",""3467""
","
","
","""event"",""trial"",""time""
""fullscreenenter"",""0"",""3467""
","
",null,"<div style=""font-size:60px;"">+</div>",NA,null,fixation,2020-06-20T19:09:03Z,NA,NA,NA,NA,NA,sub117
NA,mars-trial,82,525535,0.0-10.0-1.34,"""event"",""trial"",""time""
""fullscreenenter"",""0"",""3467""
","
","
","""event"",""trial"",""time""
""fullscreenenter"",""0"",""3467""
","
",15604.700000025332,<img style='border: 4px solid darkgrey;' src='img/tf1_35_M_ss1.jpeg'></img>,0,NA,exp,NA,0,<img src='img/tf1_35_T1_ss1_md.jpeg'></img>,0,TRUE,NA,sub117
NA,html-keyboard-response,83,526044,0.0-10.0-0.35,"""event"",""trial"",""time""
""fullscreenenter"",""0"",""3467""
","
","
","""event"",""trial"",""time""
""fullscreenenter"",""0"",""3467""
","
",null,"<div style=""font-size:60px;"">+</div>",NA,null,fixation,2020-06-20T19:09:19Z,NA,NA,NA,NA,NA,sub117
NA,mars-trial,84,527372,0.0-10.0-1.35,"""event"",""trial"",""time""
""fullscreenenter"",""0"",""3467""
","
","
","""event"",""trial"",""time""
""fullscreenenter"",""0"",""3467""
","
",NA,NA,NA,NA,exp,NA,NA,<img src='img/tf1_36_T1_ss2_md.jpeg'></img>,0,FALSE,NA,sub117
NA,html-keyboard-response,85,527881,0.0-10.0-0.36,"""event"",""trial"",""time""
""fullscreenenter"",""0"",""3467""
","
","
","""event"",""trial"",""time""
""fullscreenenter"",""0"",""3467""
","
",null,"<div style=""font-size:60px;"">+</div>",NA,null,fixation,2020-06-20T19:09:21Z,NA,NA,NA,NA,NA,sub117
NA,audio-button-response,86,531464,0.0-11.0,"""event"",""trial"",""time""
""fullscreenenter"",""0"",""3467""
","
","
","""event"",""trial"",""time""
""fullscreenenter"",""0"",""3467""
","
",3473.020000034012,audio/mars_instructions_slide5.wav,0,NA,NA,NA,NA,NA,NA,NA,NA,sub117
