success,trial_type,trial_index,time_elapsed,internal_node_id,interactions,blur_events,focus_events,fullscreenenter_events,fullscreenexit_events,rt,stimulus,button_pressed,key_press,part,timestamp,unshuffled_button,correct_response,correct_button,correct,value,subject_id
TRUE,fullscreen,0,16094,0.0-0.0,"""event"",""trial"",""time""
""focus"",""0"",""12721""
""fullscreenenter"",""0"",""15126""
","
","""event"",""trial"",""time""
""focus"",""0"",""12721""
","""event"",""trial"",""time""
""fullscreenenter"",""0"",""15126""
","
",NA,NA,NA,NA,NA,NA,NA,NA,NA,NA,NA,sub115
NA,pavlovia,1,16099,0.0-1.0,"""event"",""trial"",""time""
""focus"",""0"",""12721""
""fullscreenenter"",""0"",""15126""
","
","""event"",""trial"",""time""
""focus"",""0"",""12721""
","""event"",""trial"",""time""
""fullscreenenter"",""0"",""15126""
","
",NA,NA,NA,NA,NA,NA,NA,NA,NA,NA,NA,sub115
NA,html-button-response,2,18215,0.0-2.0,"""event"",""trial"",""time""
""focus"",""0"",""12721""
""fullscreenenter"",""0"",""15126""
","
","""event"",""trial"",""time""
""focus"",""0"",""12721""
","""event"",""trial"",""time""
""fullscreenenter"",""0"",""15126""
","
",2114.609999996901,<p>Welcome! Press START to begin.</p><br>,0,NA,NA,NA,NA,NA,NA,NA,NA,sub115
NA,audio-button-response,3,32425,0.0-3.0,"""event"",""trial"",""time""
""focus"",""0"",""12721""
""fullscreenenter"",""0"",""15126""
","
","""event"",""trial"",""time""
""focus"",""0"",""12721""
","""event"",""trial"",""time""
""fullscreenenter"",""0"",""15126""
","
",14207.885000003444,audio/mars_instructions_slide2.wav,0,NA,NA,NA,NA,NA,NA,NA,NA,sub115
NA,audio-button-response,4,41751,0.0-4.0,"""event"",""trial"",""time""
""focus"",""0"",""12721""
""fullscreenenter"",""0"",""15126""
","
","""event"",""trial"",""time""
""focus"",""0"",""12721""
","""event"",""trial"",""time""
""fullscreenenter"",""0"",""15126""
","
",9324.760000003153,audio/mars_instructions_slide3.wav,0,NA,NA,NA,NA,NA,NA,NA,NA,sub115
NA,html-keyboard-response,5,42253,0.0-5.0-0.0,"""event"",""trial"",""time""
""focus"",""0"",""12721""
""fullscreenenter"",""0"",""15126""
","
","""event"",""trial"",""time""
""focus"",""0"",""12721""
","""event"",""trial"",""time""
""fullscreenenter"",""0"",""15126""
","
",null,"<div style=""font-size:60px;"">+</div>",NA,null,fixation,2020-06-23T17:41:06Z,NA,NA,NA,NA,NA,sub115
NA,mars-trial,6,49076,0.0-5.0-1.0,"""event"",""trial"",""time""
""focus"",""0"",""12721""
""fullscreenenter"",""0"",""15126""
","
","""event"",""trial"",""time""
""focus"",""0"",""12721""
","""event"",""trial"",""time""
""fullscreenenter"",""0"",""15126""
","
",4716.334999997343,<img style='border: 4px solid darkgrey;' src='practice/pt1_M1.png'></img>,1,NA,practice,NA,0,<img src='practice/pt1_T1.png'></img>,0,TRUE,NA,sub115
NA,html-keyboard-response,7,49579,0.0-6.0-0.0,"""event"",""trial"",""time""
""focus"",""0"",""12721""
""fullscreenenter"",""0"",""15126""
","
","""event"",""trial"",""time""
""focus"",""0"",""12721""
","""event"",""trial"",""time""
""fullscreenenter"",""0"",""15126""
","
",null,"<div style=""font-size:60px;"">+</div>",NA,null,fixation,2020-06-23T17:41:13Z,NA,NA,NA,NA,NA,sub115
NA,mars-trial,8,55657,0.0-6.0-1.0,"""event"",""trial"",""time""
""focus"",""0"",""12721""
""fullscreenenter"",""0"",""15126""
","
","""event"",""trial"",""time""
""focus"",""0"",""12721""
","""event"",""trial"",""time""
""fullscreenenter"",""0"",""15126""
","
",3965.860000003886,<img style='border: 4px solid darkgrey;' src='practice/pt2_M1.png'></img>,3,NA,practice,NA,0,<img src='practice/pt2_T1.png'></img>,0,TRUE,NA,sub115
NA,html-keyboard-response,9,56162,0.0-7.0-0.0,"""event"",""trial"",""time""
""focus"",""0"",""12721""
""fullscreenenter"",""0"",""15126""
","
","""event"",""trial"",""time""
""focus"",""0"",""12721""
","""event"",""trial"",""time""
""fullscreenenter"",""0"",""15126""
","
",null,"<div style=""font-size:60px;"">+</div>",NA,null,fixation,2020-06-23T17:41:20Z,NA,NA,NA,NA,NA,sub115
NA,mars-trial,10,61535,0.0-7.0-1.0,"""event"",""trial"",""time""
""focus"",""0"",""12721""
""fullscreenenter"",""0"",""15126""
","
","""event"",""trial"",""time""
""focus"",""0"",""12721""
","""event"",""trial"",""time""
""fullscreenenter"",""0"",""15126""
","
",3264.8150000022724,<img style='border: 4px solid darkgrey;' src='practice/pt3_M1.png'></img>,0,NA,practice,NA,0,<img src='practice/pt3_T1.png'></img>,0,TRUE,NA,sub115
NA,audio-button-response,11,66293,0.0-8.0,"""event"",""trial"",""time""
""focus"",""0"",""12721""
""fullscreenenter"",""0"",""15126""
","
","""event"",""trial"",""time""
""focus"",""0"",""12721""
","""event"",""trial"",""time""
""fullscreenenter"",""0"",""15126""
","
",4756.120000005467,audio/mars_instructions_slide4.wav,0,NA,NA,NA,NA,NA,NA,NA,NA,sub115
NA,call-function,12,66294,0.0-9.0,"""event"",""trial"",""time""
""focus"",""0"",""12721""
""fullscreenenter"",""0"",""15126""
","
","""event"",""trial"",""time""
""focus"",""0"",""12721""
","""event"",""trial"",""time""
""fullscreenenter"",""0"",""15126""
","
",NA,NA,NA,NA,NA,NA,NA,NA,NA,NA,NA,sub115
NA,html-keyboard-response,13,66795,0.0-10.0-0.0,"""event"",""trial"",""time""
""focus"",""0"",""12721""
""fullscreenenter"",""0"",""15126""
","
","""event"",""trial"",""time""
""focus"",""0"",""12721""
","""event"",""trial"",""time""
""fullscreenenter"",""0"",""15126""
","
",null,"<div style=""font-size:60px;"">+</div>",NA,null,fixation,2020-06-23T17:41:30Z,NA,NA,NA,NA,NA,sub115
NA,mars-trial,14,69644,0.0-10.0-1.0,"""event"",""trial"",""time""
""focus"",""0"",""12721""
""fullscreenenter"",""0"",""15126""
","
","""event"",""trial"",""time""
""focus"",""0"",""12721""
","""event"",""trial"",""time""
""fullscreenenter"",""0"",""15126""
","
",2240.1500000050873,<img style='border: 4px solid darkgrey;' src='img/tf1_1_M_ss3.jpeg'></img>,0,NA,exp,NA,0,<img src='img/tf1_1_T1_ss3_md.jpeg'></img>,0,TRUE,NA,sub115
NA,html-keyboard-response,15,70146,0.0-10.0-0.1,"""event"",""trial"",""time""
""focus"",""0"",""12721""
""fullscreenenter"",""0"",""15126""
","
","""event"",""trial"",""time""
""focus"",""0"",""12721""
","""event"",""trial"",""time""
""fullscreenenter"",""0"",""15126""
","
",null,"<div style=""font-size:60px;"">+</div>",NA,null,fixation,2020-06-23T17:41:34Z,NA,NA,NA,NA,NA,sub115
NA,mars-trial,16,74882,0.0-10.0-1.1,"""event"",""trial"",""time""
""focus"",""0"",""12721""
""fullscreenenter"",""0"",""15126""
","
","""event"",""trial"",""time""
""focus"",""0"",""12721""
","""event"",""trial"",""time""
""fullscreenenter"",""0"",""15126""
","
",4130.454999998619,<img style='border: 4px solid darkgrey;' src='img/tf1_2_M_ss1.jpeg'></img>,2,NA,exp,NA,0,<img src='img/tf1_2_T1_ss1_md.jpeg'></img>,0,TRUE,NA,sub115
NA,html-keyboard-response,17,75383,0.0-10.0-0.2,"""event"",""trial"",""time""
""focus"",""0"",""12721""
""fullscreenenter"",""0"",""15126""
","
","""event"",""trial"",""time""
""focus"",""0"",""12721""
","""event"",""trial"",""time""
""fullscreenenter"",""0"",""15126""
","
",null,"<div style=""font-size:60px;"">+</div>",NA,null,fixation,2020-06-23T17:41:39Z,NA,NA,NA,NA,NA,sub115
NA,mars-trial,18,79576,0.0-10.0-1.2,"""event"",""trial"",""time""
""focus"",""0"",""12721""
""fullscreenenter"",""0"",""15126""
","
","""event"",""trial"",""time""
""focus"",""0"",""12721""
","""event"",""trial"",""time""
""fullscreenenter"",""0"",""15126""
","
",3582.575000000361,<img style='border: 4px solid darkgrey;' src='img/tf1_3_M_ss2.jpeg'></img>,3,NA,exp,NA,0,<img src='img/tf1_3_T1_ss2_md.jpeg'></img>,0,TRUE,NA,sub115
NA,html-keyboard-response,19,80078,0.0-10.0-0.3,"""event"",""trial"",""time""
""focus"",""0"",""12721""
""fullscreenenter"",""0"",""15126""
","
","""event"",""trial"",""time""
""focus"",""0"",""12721""
","""event"",""trial"",""time""
""fullscreenenter"",""0"",""15126""
","
",null,"<div style=""font-size:60px;"">+</div>",NA,null,fixation,2020-06-23T17:41:44Z,NA,NA,NA,NA,NA,sub115
NA,mars-trial,20,84060,0.0-10.0-1.3,"""event"",""trial"",""time""
""focus"",""0"",""12721""
""fullscreenenter"",""0"",""15126""
","
","""event"",""trial"",""time""
""focus"",""0"",""12721""
","""event"",""trial"",""time""
""fullscreenenter"",""0"",""15126""
","
",3373.5450000021956,<img style='border: 4px solid darkgrey;' src='img/tf1_4_M_ss3.jpeg'></img>,3,NA,exp,NA,0,<img src='img/tf1_4_T1_ss3_md.jpeg'></img>,0,TRUE,NA,sub115
NA,html-keyboard-response,21,84562,0.0-10.0-0.4,"""event"",""trial"",""time""
""focus"",""0"",""12721""
""fullscreenenter"",""0"",""15126""
","
","""event"",""trial"",""time""
""focus"",""0"",""12721""
","""event"",""trial"",""time""
""fullscreenenter"",""0"",""15126""
","
",null,"<div style=""font-size:60px;"">+</div>",NA,null,fixation,2020-06-23T17:41:48Z,NA,NA,NA,NA,NA,sub115
NA,mars-trial,22,87637,0.0-10.0-1.4,"""event"",""trial"",""time""
""focus"",""0"",""12721""
""fullscreenenter"",""0"",""15126""
","
","""event"",""trial"",""time""
""focus"",""0"",""12721""
","""event"",""trial"",""time""
""fullscreenenter"",""0"",""15126""
","
",2468.7550000016927,<img style='border: 4px solid darkgrey;' src='img/tf1_5_M_ss1.jpeg'></img>,3,NA,exp,NA,0,<img src='img/tf1_5_T1_ss1_md.jpeg'></img>,0,TRUE,NA,sub115
NA,html-keyboard-response,23,88138,0.0-10.0-0.5,"""event"",""trial"",""time""
""focus"",""0"",""12721""
""fullscreenenter"",""0"",""15126""
","
","""event"",""trial"",""time""
""focus"",""0"",""12721""
","""event"",""trial"",""time""
""fullscreenenter"",""0"",""15126""
","
",null,"<div style=""font-size:60px;"">+</div>",NA,null,fixation,2020-06-23T17:41:52Z,NA,NA,NA,NA,NA,sub115
NA,mars-trial,24,99989,0.0-10.0-1.5,"""event"",""trial"",""time""
""focus"",""0"",""12721""
""fullscreenenter"",""0"",""15126""
","
","""event"",""trial"",""time""
""focus"",""0"",""12721""
","""event"",""trial"",""time""
""fullscreenenter"",""0"",""15126""
","
",11246.390000000247,<img style='border: 4px solid darkgrey;' src='img/tf1_6_M_ss2.jpeg'></img>,1,NA,exp,NA,0,<img src='img/tf1_6_T1_ss2_md.jpeg'></img>,0,TRUE,NA,sub115
NA,html-keyboard-response,25,100492,0.0-10.0-0.6,"""event"",""trial"",""time""
""focus"",""0"",""12721""
""fullscreenenter"",""0"",""15126""
","
","""event"",""trial"",""time""
""focus"",""0"",""12721""
","""event"",""trial"",""time""
""fullscreenenter"",""0"",""15126""
","
",null,"<div style=""font-size:60px;"">+</div>",NA,null,fixation,2020-06-23T17:42:04Z,NA,NA,NA,NA,NA,sub115
NA,mars-trial,26,106280,0.0-10.0-1.6,"""event"",""trial"",""time""
""focus"",""0"",""12721""
""fullscreenenter"",""0"",""15126""
","
","""event"",""trial"",""time""
""focus"",""0"",""12721""
","""event"",""trial"",""time""
""fullscreenenter"",""0"",""15126""
","
",5181.069999998726,<img style='border: 4px solid darkgrey;' src='img/tf1_7_M_ss3.jpeg'></img>,3,NA,exp,NA,0,<img src='img/tf1_7_T1_ss3_md.jpeg'></img>,0,TRUE,NA,sub115
NA,html-keyboard-response,27,106782,0.0-10.0-0.7,"""event"",""trial"",""time""
""focus"",""0"",""12721""
""fullscreenenter"",""0"",""15126""
","
","""event"",""trial"",""time""
""focus"",""0"",""12721""
","""event"",""trial"",""time""
""fullscreenenter"",""0"",""15126""
","
",null,"<div style=""font-size:60px;"">+</div>",NA,null,fixation,2020-06-23T17:42:10Z,NA,NA,NA,NA,NA,sub115
NA,mars-trial,28,111480,0.0-10.0-1.7,"""event"",""trial"",""time""
""focus"",""0"",""12721""
""fullscreenenter"",""0"",""15126""
","
","""event"",""trial"",""time""
""focus"",""0"",""12721""
","""event"",""trial"",""time""
""fullscreenenter"",""0"",""15126""
","
",4087.9300000015064,<img style='border: 4px solid darkgrey;' src='img/tf1_8_M_ss1.jpeg'></img>,1,NA,exp,NA,0,<img src='img/tf1_8_T1_ss1_md.jpeg'></img>,0,TRUE,NA,sub115
NA,html-keyboard-response,29,111982,0.0-10.0-0.8,"""event"",""trial"",""time""
""focus"",""0"",""12721""
""fullscreenenter"",""0"",""15126""
","
","""event"",""trial"",""time""
""focus"",""0"",""12721""
","""event"",""trial"",""time""
""fullscreenenter"",""0"",""15126""
","
",null,"<div style=""font-size:60px;"">+</div>",NA,null,fixation,2020-06-23T17:42:15Z,NA,NA,NA,NA,NA,sub115
NA,mars-trial,30,119508,0.0-10.0-1.8,"""event"",""trial"",""time""
""focus"",""0"",""12721""
""fullscreenenter"",""0"",""15126""
","
","""event"",""trial"",""time""
""focus"",""0"",""12721""
","""event"",""trial"",""time""
""fullscreenenter"",""0"",""15126""
","
",6921.53999999573,<img style='border: 4px solid darkgrey;' src='img/tf1_9_M_ss2.jpeg'></img>,2,NA,exp,NA,0,<img src='img/tf1_9_T1_ss2_md.jpeg'></img>,0,TRUE,NA,sub115
NA,html-keyboard-response,31,120012,0.0-10.0-0.9,"""event"",""trial"",""time""
""focus"",""0"",""12721""
""fullscreenenter"",""0"",""15126""
","
","""event"",""trial"",""time""
""focus"",""0"",""12721""
","""event"",""trial"",""time""
""fullscreenenter"",""0"",""15126""
","
",null,"<div style=""font-size:60px;"">+</div>",NA,null,fixation,2020-06-23T17:42:23Z,NA,NA,NA,NA,NA,sub115
NA,mars-trial,32,131231,0.0-10.0-1.9,"""event"",""trial"",""time""
""focus"",""0"",""12721""
""fullscreenenter"",""0"",""15126""
","
","""event"",""trial"",""time""
""focus"",""0"",""12721""
","""event"",""trial"",""time""
""fullscreenenter"",""0"",""15126""
","
",10610.619999999471,<img style='border: 4px solid darkgrey;' src='img/tf1_10_M_ss3.jpeg'></img>,1,NA,exp,NA,0,<img src='img/tf1_10_T1_ss3_md.jpeg'></img>,0,TRUE,NA,sub115
NA,html-keyboard-response,33,131732,0.0-10.0-0.10,"""event"",""trial"",""time""
""focus"",""0"",""12721""
""fullscreenenter"",""0"",""15126""
","
","""event"",""trial"",""time""
""focus"",""0"",""12721""
","""event"",""trial"",""time""
""fullscreenenter"",""0"",""15126""
","
",null,"<div style=""font-size:60px;"">+</div>",NA,null,fixation,2020-06-23T17:42:35Z,NA,NA,NA,NA,NA,sub115
NA,mars-trial,34,153984,0.0-10.0-1.10,"""event"",""trial"",""time""
""focus"",""0"",""12721""
""fullscreenenter"",""0"",""15126""
","
","""event"",""trial"",""time""
""focus"",""0"",""12721""
","""event"",""trial"",""time""
""fullscreenenter"",""0"",""15126""
","
",21644.885000001523,<img style='border: 4px solid darkgrey;' src='img/tf1_11_M_ss1.jpeg'></img>,0,NA,exp,NA,0,<img src='img/tf1_11_T1_ss1_md.jpeg'></img>,0,TRUE,NA,sub115
NA,html-keyboard-response,35,154486,0.0-10.0-0.11,"""event"",""trial"",""time""
""focus"",""0"",""12721""
""fullscreenenter"",""0"",""15126""
","
","""event"",""trial"",""time""
""focus"",""0"",""12721""
","""event"",""trial"",""time""
""fullscreenenter"",""0"",""15126""
","
",null,"<div style=""font-size:60px;"">+</div>",NA,null,fixation,2020-06-23T17:42:58Z,NA,NA,NA,NA,NA,sub115
NA,mars-trial,36,174848,0.0-10.0-1.11,"""event"",""trial"",""time""
""focus"",""0"",""12721""
""fullscreenenter"",""0"",""15126""
","
","""event"",""trial"",""time""
""focus"",""0"",""12721""
","""event"",""trial"",""time""
""fullscreenenter"",""0"",""15126""
","
",19754.390000001877,<img style='border: 4px solid darkgrey;' src='img/tf1_12_M_ss2.jpeg'></img>,2,NA,exp,NA,0,<img src='img/tf1_12_T1_ss2_md.jpeg'></img>,0,TRUE,NA,sub115
NA,html-keyboard-response,37,175351,0.0-10.0-0.12,"""event"",""trial"",""time""
""focus"",""0"",""12721""
""fullscreenenter"",""0"",""15126""
","
","""event"",""trial"",""time""
""focus"",""0"",""12721""
","""event"",""trial"",""time""
""fullscreenenter"",""0"",""15126""
","
",null,"<div style=""font-size:60px;"">+</div>",NA,null,fixation,2020-06-23T17:43:19Z,NA,NA,NA,NA,NA,sub115
NA,mars-trial,38,188319,0.0-10.0-1.12,"""event"",""trial"",""time""
""focus"",""0"",""12721""
""fullscreenenter"",""0"",""15126""
","
","""event"",""trial"",""time""
""focus"",""0"",""12721""
","""event"",""trial"",""time""
""fullscreenenter"",""0"",""15126""
","
",12362.495000001218,<img style='border: 4px solid darkgrey;' src='img/tf1_13_M_ss3.jpeg'></img>,1,NA,exp,NA,0,<img src='img/tf1_13_T1_ss3_md.jpeg'></img>,0,TRUE,NA,sub115
NA,html-keyboard-response,39,188821,0.0-10.0-0.13,"""event"",""trial"",""time""
""focus"",""0"",""12721""
""fullscreenenter"",""0"",""15126""
","
","""event"",""trial"",""time""
""focus"",""0"",""12721""
","""event"",""trial"",""time""
""fullscreenenter"",""0"",""15126""
","
",null,"<div style=""font-size:60px;"">+</div>",NA,null,fixation,2020-06-23T17:43:32Z,NA,NA,NA,NA,NA,sub115
NA,mars-trial,40,203246,0.0-10.0-1.13,"""event"",""trial"",""time""
""focus"",""0"",""12721""
""fullscreenenter"",""0"",""15126""
","
","""event"",""trial"",""time""
""focus"",""0"",""12721""
","""event"",""trial"",""time""
""fullscreenenter"",""0"",""15126""
","
",13814.51499999821,<img style='border: 4px solid darkgrey;' src='img/tf1_14_M_ss1.jpeg'></img>,0,NA,exp,NA,0,<img src='img/tf1_14_T1_ss1_md.jpeg'></img>,0,TRUE,NA,sub115
NA,html-keyboard-response,41,203748,0.0-10.0-0.14,"""event"",""trial"",""time""
""focus"",""0"",""12721""
""fullscreenenter"",""0"",""15126""
","
","""event"",""trial"",""time""
""focus"",""0"",""12721""
","""event"",""trial"",""time""
""fullscreenenter"",""0"",""15126""
","
",null,"<div style=""font-size:60px;"">+</div>",NA,null,fixation,2020-06-23T17:43:47Z,NA,NA,NA,NA,NA,sub115
NA,mars-trial,42,215946,0.0-10.0-1.14,"""event"",""trial"",""time""
""focus"",""0"",""12721""
""fullscreenenter"",""0"",""15126""
","
","""event"",""trial"",""time""
""focus"",""0"",""12721""
","""event"",""trial"",""time""
""fullscreenenter"",""0"",""15126""
","
",11593.1700000001,<img style='border: 4px solid darkgrey;' src='img/tf1_15_M_ss2.jpeg'></img>,3,NA,exp,NA,0,<img src='img/tf1_15_T1_ss2_md.jpeg'></img>,0,TRUE,NA,sub115
NA,html-keyboard-response,43,216447,0.0-10.0-0.15,"""event"",""trial"",""time""
""focus"",""0"",""12721""
""fullscreenenter"",""0"",""15126""
","
","""event"",""trial"",""time""
""focus"",""0"",""12721""
","""event"",""trial"",""time""
""fullscreenenter"",""0"",""15126""
","
",null,"<div style=""font-size:60px;"">+</div>",NA,null,fixation,2020-06-23T17:44:00Z,NA,NA,NA,NA,NA,sub115
NA,mars-trial,44,231284,0.0-10.0-1.15,"""event"",""trial"",""time""
""focus"",""0"",""12721""
""fullscreenenter"",""0"",""15126""
","
","""event"",""trial"",""time""
""focus"",""0"",""12721""
","""event"",""trial"",""time""
""fullscreenenter"",""0"",""15126""
","
",14231.915000003937,<img style='border: 4px solid darkgrey;' src='img/tf1_16_M_ss3.jpeg'></img>,2,NA,exp,NA,0,<img src='img/tf1_16_T1_ss3_md.jpeg'></img>,0,TRUE,NA,sub115
NA,html-keyboard-response,45,231786,0.0-10.0-0.16,"""event"",""trial"",""time""
""focus"",""0"",""12721""
""fullscreenenter"",""0"",""15126""
","
","""event"",""trial"",""time""
""focus"",""0"",""12721""
","""event"",""trial"",""time""
""fullscreenenter"",""0"",""15126""
","
",null,"<div style=""font-size:60px;"">+</div>",NA,null,fixation,2020-06-23T17:44:15Z,NA,NA,NA,NA,NA,sub115
NA,mars-trial,46,242674,0.0-10.0-1.16,"""event"",""trial"",""time""
""focus"",""0"",""12721""
""fullscreenenter"",""0"",""15126""
","
","""event"",""trial"",""time""
""focus"",""0"",""12721""
","""event"",""trial"",""time""
""fullscreenenter"",""0"",""15126""
","
",10280.015000003914,<img style='border: 4px solid darkgrey;' src='img/tf1_17_M_ss1.jpeg'></img>,1,NA,exp,NA,0,<img src='img/tf1_17_T1_ss1_md.jpeg'></img>,0,TRUE,NA,sub115
NA,html-keyboard-response,47,243176,0.0-10.0-0.17,"""event"",""trial"",""time""
""focus"",""0"",""12721""
""fullscreenenter"",""0"",""15126""
","
","""event"",""trial"",""time""
""focus"",""0"",""12721""
","""event"",""trial"",""time""
""fullscreenenter"",""0"",""15126""
","
",null,"<div style=""font-size:60px;"">+</div>",NA,null,fixation,2020-06-23T17:44:27Z,NA,NA,NA,NA,NA,sub115
NA,mars-trial,48,256840,0.0-10.0-1.17,"""event"",""trial"",""time""
""focus"",""0"",""12721""
""fullscreenenter"",""0"",""15126""
","
","""event"",""trial"",""time""
""focus"",""0"",""12721""
","""event"",""trial"",""time""
""fullscreenenter"",""0"",""15126""
","
",13058.31500000204,<img style='border: 4px solid darkgrey;' src='img/tf1_18_M_ss2.jpeg'></img>,2,NA,exp,NA,0,<img src='img/tf1_18_T1_ss2_md.jpeg'></img>,0,TRUE,NA,sub115
NA,html-keyboard-response,49,257342,0.0-10.0-0.18,"""event"",""trial"",""time""
""focus"",""0"",""12721""
""fullscreenenter"",""0"",""15126""
","
","""event"",""trial"",""time""
""focus"",""0"",""12721""
","""event"",""trial"",""time""
""fullscreenenter"",""0"",""15126""
","
",null,"<div style=""font-size:60px;"">+</div>",NA,null,fixation,2020-06-23T17:44:41Z,NA,NA,NA,NA,NA,sub115
NA,mars-trial,50,264818,0.0-10.0-1.18,"""event"",""trial"",""time""
""focus"",""0"",""12721""
""fullscreenenter"",""0"",""15126""
","
","""event"",""trial"",""time""
""focus"",""0"",""12721""
","""event"",""trial"",""time""
""fullscreenenter"",""0"",""15126""
","
",6868.514999994659,<img style='border: 4px solid darkgrey;' src='img/tf1_19_M_ss3.jpeg'></img>,2,NA,exp,NA,0,<img src='img/tf1_19_T1_ss3_md.jpeg'></img>,0,TRUE,NA,sub115
NA,html-keyboard-response,51,265320,0.0-10.0-0.19,"""event"",""trial"",""time""
""focus"",""0"",""12721""
""fullscreenenter"",""0"",""15126""
","
","""event"",""trial"",""time""
""focus"",""0"",""12721""
","""event"",""trial"",""time""
""fullscreenenter"",""0"",""15126""
","
",null,"<div style=""font-size:60px;"">+</div>",NA,null,fixation,2020-06-23T17:44:49Z,NA,NA,NA,NA,NA,sub115
NA,mars-trial,52,272989,0.0-10.0-1.19,"""event"",""trial"",""time""
""focus"",""0"",""12721""
""fullscreenenter"",""0"",""15126""
","
","""event"",""trial"",""time""
""focus"",""0"",""12721""
","""event"",""trial"",""time""
""fullscreenenter"",""0"",""15126""
","
",7061.525000004622,<img style='border: 4px solid darkgrey;' src='img/tf1_20_M_ss1.jpeg'></img>,3,NA,exp,NA,0,<img src='img/tf1_20_T1_ss1_md.jpeg'></img>,0,TRUE,NA,sub115
NA,html-keyboard-response,53,273490,0.0-10.0-0.20,"""event"",""trial"",""time""
""focus"",""0"",""12721""
""fullscreenenter"",""0"",""15126""
","
","""event"",""trial"",""time""
""focus"",""0"",""12721""
","""event"",""trial"",""time""
""fullscreenenter"",""0"",""15126""
","
",null,"<div style=""font-size:60px;"">+</div>",NA,null,fixation,2020-06-23T17:44:57Z,NA,NA,NA,NA,NA,sub115
NA,mars-trial,54,291233,0.0-10.0-1.20,"""event"",""trial"",""time""
""focus"",""0"",""12721""
""fullscreenenter"",""0"",""15126""
","
","""event"",""trial"",""time""
""focus"",""0"",""12721""
","""event"",""trial"",""time""
""fullscreenenter"",""0"",""15126""
","
",17136.704999997164,<img style='border: 4px solid darkgrey;' src='img/tf1_21_M_ss2.jpeg'></img>,0,NA,exp,NA,0,<img src='img/tf1_21_T1_ss2_md.jpeg'></img>,0,TRUE,NA,sub115
NA,html-keyboard-response,55,291735,0.0-10.0-0.21,"""event"",""trial"",""time""
""focus"",""0"",""12721""
""fullscreenenter"",""0"",""15126""
","
","""event"",""trial"",""time""
""focus"",""0"",""12721""
","""event"",""trial"",""time""
""fullscreenenter"",""0"",""15126""
","
",null,"<div style=""font-size:60px;"">+</div>",NA,null,fixation,2020-06-23T17:45:15Z,NA,NA,NA,NA,NA,sub115
NA,mars-trial,56,302620,0.0-10.0-1.21,"""event"",""trial"",""time""
""focus"",""0"",""12721""
""fullscreenenter"",""0"",""15126""
","
","""event"",""trial"",""time""
""focus"",""0"",""12721""
","""event"",""trial"",""time""
""fullscreenenter"",""0"",""15126""
","
",10277.949999996054,<img style='border: 4px solid darkgrey;' src='img/tf1_22_M_ss3.jpeg'></img>,3,NA,exp,NA,0,<img src='img/tf1_22_T1_ss3_md.jpeg'></img>,0,TRUE,NA,sub115
NA,html-keyboard-response,57,303122,0.0-10.0-0.22,"""event"",""trial"",""time""
""focus"",""0"",""12721""
""fullscreenenter"",""0"",""15126""
","
","""event"",""trial"",""time""
""focus"",""0"",""12721""
","""event"",""trial"",""time""
""fullscreenenter"",""0"",""15126""
","
",null,"<div style=""font-size:60px;"">+</div>",NA,null,fixation,2020-06-23T17:45:27Z,NA,NA,NA,NA,NA,sub115
NA,mars-trial,58,317350,0.0-10.0-1.22,"""event"",""trial"",""time""
""focus"",""0"",""12721""
""fullscreenenter"",""0"",""15126""
","
","""event"",""trial"",""time""
""focus"",""0"",""12721""
","""event"",""trial"",""time""
""fullscreenenter"",""0"",""15126""
","
",13619.694999993953,<img style='border: 4px solid darkgrey;' src='img/tf1_23_M_ss1.jpeg'></img>,3,NA,exp,NA,0,<img src='img/tf1_23_T1_ss1_md.jpeg'></img>,0,TRUE,NA,sub115
NA,html-keyboard-response,59,317855,0.0-10.0-0.23,"""event"",""trial"",""time""
""focus"",""0"",""12721""
""fullscreenenter"",""0"",""15126""
","
","""event"",""trial"",""time""
""focus"",""0"",""12721""
","""event"",""trial"",""time""
""fullscreenenter"",""0"",""15126""
","
",null,"<div style=""font-size:60px;"">+</div>",NA,null,fixation,2020-06-23T17:45:41Z,NA,NA,NA,NA,NA,sub115
NA,mars-trial,60,334363,0.0-10.0-1.23,"""event"",""trial"",""time""
""focus"",""0"",""12721""
""fullscreenenter"",""0"",""15126""
","
","""event"",""trial"",""time""
""focus"",""0"",""12721""
","""event"",""trial"",""time""
""fullscreenenter"",""0"",""15126""
","
",15898.314999998547,<img style='border: 4px solid darkgrey;' src='img/tf1_24_M_ss2.jpeg'></img>,3,NA,exp,NA,0,<img src='img/tf1_24_T1_ss2_md.jpeg'></img>,0,TRUE,NA,sub115
NA,html-keyboard-response,61,334866,0.0-10.0-0.24,"""event"",""trial"",""time""
""focus"",""0"",""12721""
""fullscreenenter"",""0"",""15126""
","
","""event"",""trial"",""time""
""focus"",""0"",""12721""
","""event"",""trial"",""time""
""fullscreenenter"",""0"",""15126""
","
",null,"<div style=""font-size:60px;"">+</div>",NA,null,fixation,2020-06-23T17:45:58Z,NA,NA,NA,NA,NA,sub115
NA,mars-trial,62,342235,0.0-10.0-1.24,"""event"",""trial"",""time""
""focus"",""0"",""12721""
""fullscreenenter"",""0"",""15126""
","
","""event"",""trial"",""time""
""focus"",""0"",""12721""
","""event"",""trial"",""time""
""fullscreenenter"",""0"",""15126""
","
",6762.730000002193,<img style='border: 4px solid darkgrey;' src='img/tf1_25_M_ss3.jpeg'></img>,1,NA,exp,NA,0,<img src='img/tf1_25_T1_ss3_md.jpeg'></img>,0,TRUE,NA,sub115
NA,html-keyboard-response,63,342737,0.0-10.0-0.25,"""event"",""trial"",""time""
""focus"",""0"",""12721""
""fullscreenenter"",""0"",""15126""
","
","""event"",""trial"",""time""
""focus"",""0"",""12721""
","""event"",""trial"",""time""
""fullscreenenter"",""0"",""15126""
","
",null,"<div style=""font-size:60px;"">+</div>",NA,null,fixation,2020-06-23T17:46:06Z,NA,NA,NA,NA,NA,sub115
NA,mars-trial,64,370647,0.0-10.0-1.25,"""event"",""trial"",""time""
""focus"",""0"",""12721""
""fullscreenenter"",""0"",""15126""
","
","""event"",""trial"",""time""
""focus"",""0"",""12721""
","""event"",""trial"",""time""
""fullscreenenter"",""0"",""15126""
","
",27302.915000000212,<img style='border: 4px solid darkgrey;' src='img/tf1_26_M_ss1.jpeg'></img>,3,NA,exp,NA,0,<img src='img/tf1_26_T1_ss1_md.jpeg'></img>,0,TRUE,NA,sub115
NA,html-keyboard-response,65,371149,0.0-10.0-0.26,"""event"",""trial"",""time""
""focus"",""0"",""12721""
""fullscreenenter"",""0"",""15126""
","
","""event"",""trial"",""time""
""focus"",""0"",""12721""
","""event"",""trial"",""time""
""fullscreenenter"",""0"",""15126""
","
",null,"<div style=""font-size:60px;"">+</div>",NA,null,fixation,2020-06-23T17:46:35Z,NA,NA,NA,NA,NA,sub115
NA,mars-trial,66,381832,0.0-10.0-1.26,"""event"",""trial"",""time""
""focus"",""0"",""12721""
""fullscreenenter"",""0"",""15126""
","
","""event"",""trial"",""time""
""focus"",""0"",""12721""
","""event"",""trial"",""time""
""fullscreenenter"",""0"",""15126""
","
",10073.834999995597,<img style='border: 4px solid darkgrey;' src='img/tf1_27_M_ss2.jpeg'></img>,3,NA,exp,NA,0,<img src='img/tf1_27_T1_ss2_md.jpeg'></img>,0,TRUE,NA,sub115
NA,html-keyboard-response,67,382335,0.0-10.0-0.27,"""event"",""trial"",""time""
""focus"",""0"",""12721""
""fullscreenenter"",""0"",""15126""
","
","""event"",""trial"",""time""
""focus"",""0"",""12721""
","""event"",""trial"",""time""
""fullscreenenter"",""0"",""15126""
","
",null,"<div style=""font-size:60px;"">+</div>",NA,null,fixation,2020-06-23T17:46:46Z,NA,NA,NA,NA,NA,sub115
NA,mars-trial,68,395154,0.0-10.0-1.27,"""event"",""trial"",""time""
""focus"",""0"",""12721""
""fullscreenenter"",""0"",""15126""
","
","""event"",""trial"",""time""
""focus"",""0"",""12721""
","""event"",""trial"",""time""
""fullscreenenter"",""0"",""15126""
","
",12211.504999999306,<img style='border: 4px solid darkgrey;' src='img/tf1_28_M_ss3.jpeg'></img>,3,NA,exp,NA,0,<img src='img/tf1_28_T1_ss3_md.jpeg'></img>,0,TRUE,NA,sub115
NA,html-keyboard-response,69,395657,0.0-10.0-0.28,"""event"",""trial"",""time""
""focus"",""0"",""12721""
""fullscreenenter"",""0"",""15126""
","
","""event"",""trial"",""time""
""focus"",""0"",""12721""
","""event"",""trial"",""time""
""fullscreenenter"",""0"",""15126""
","
",null,"<div style=""font-size:60px;"">+</div>",NA,null,fixation,2020-06-23T17:46:59Z,NA,NA,NA,NA,NA,sub115
NA,mars-trial,70,412561,0.0-10.0-1.28,"""event"",""trial"",""time""
""focus"",""0"",""12721""
""fullscreenenter"",""0"",""15126""
","
","""event"",""trial"",""time""
""focus"",""0"",""12721""
","""event"",""trial"",""time""
""fullscreenenter"",""0"",""15126""
","
",16295.445000003383,<img style='border: 4px solid darkgrey;' src='img/tf1_29_M_ss1.jpeg'></img>,1,NA,exp,NA,0,<img src='img/tf1_29_T1_ss1_md.jpeg'></img>,0,TRUE,NA,sub115
NA,html-keyboard-response,71,413064,0.0-10.0-0.29,"""event"",""trial"",""time""
""focus"",""0"",""12721""
""fullscreenenter"",""0"",""15126""
","
","""event"",""trial"",""time""
""focus"",""0"",""12721""
","""event"",""trial"",""time""
""fullscreenenter"",""0"",""15126""
","
",null,"<div style=""font-size:60px;"">+</div>",NA,null,fixation,2020-06-23T17:47:16Z,NA,NA,NA,NA,NA,sub115
NA,mars-trial,72,425040,0.0-10.0-1.29,"""event"",""trial"",""time""
""focus"",""0"",""12721""
""fullscreenenter"",""0"",""15126""
","
","""event"",""trial"",""time""
""focus"",""0"",""12721""
","""event"",""trial"",""time""
""fullscreenenter"",""0"",""15126""
","
",11369.989999999234,<img style='border: 4px solid darkgrey;' src='img/tf1_30_M_ss2.jpeg'></img>,2,NA,exp,NA,0,<img src='img/tf1_30_T1_ss2_md.jpeg'></img>,0,TRUE,NA,sub115
NA,html-keyboard-response,73,425542,0.0-10.0-0.30,"""event"",""trial"",""time""
""focus"",""0"",""12721""
""fullscreenenter"",""0"",""15126""
","
","""event"",""trial"",""time""
""focus"",""0"",""12721""
","""event"",""trial"",""time""
""fullscreenenter"",""0"",""15126""
","
",null,"<div style=""font-size:60px;"">+</div>",NA,null,fixation,2020-06-23T17:47:29Z,NA,NA,NA,NA,NA,sub115
NA,mars-trial,74,444950,0.0-10.0-1.30,"""event"",""trial"",""time""
""focus"",""0"",""12721""
""fullscreenenter"",""0"",""15126""
","
","""event"",""trial"",""time""
""focus"",""0"",""12721""
","""event"",""trial"",""time""
""fullscreenenter"",""0"",""15126""
","
",18799.059999997553,<img style='border: 4px solid darkgrey;' src='img/tf1_31_M_ss3.jpeg'></img>,2,NA,exp,NA,0,<img src='img/tf1_31_T1_ss3_md.jpeg'></img>,0,TRUE,NA,sub115
NA,html-keyboard-response,75,445452,0.0-10.0-0.31,"""event"",""trial"",""time""
""focus"",""0"",""12721""
""fullscreenenter"",""0"",""15126""
","
","""event"",""trial"",""time""
""focus"",""0"",""12721""
","""event"",""trial"",""time""
""fullscreenenter"",""0"",""15126""
","
",null,"<div style=""font-size:60px;"">+</div>",NA,null,fixation,2020-06-23T17:47:49Z,NA,NA,NA,NA,NA,sub115
NA,mars-trial,76,457724,0.0-10.0-1.31,"""event"",""trial"",""time""
""focus"",""0"",""12721""
""fullscreenenter"",""0"",""15126""
","
","""event"",""trial"",""time""
""focus"",""0"",""12721""
","""event"",""trial"",""time""
""fullscreenenter"",""0"",""15126""
","
",11663.990000000922,<img style='border: 4px solid darkgrey;' src='img/tf1_32_M_ss1.jpeg'></img>,1,NA,exp,NA,0,<img src='img/tf1_32_T1_ss1_md.jpeg'></img>,0,TRUE,NA,sub115
NA,html-keyboard-response,77,458226,0.0-10.0-0.32,"""event"",""trial"",""time""
""focus"",""0"",""12721""
""fullscreenenter"",""0"",""15126""
","
","""event"",""trial"",""time""
""focus"",""0"",""12721""
","""event"",""trial"",""time""
""fullscreenenter"",""0"",""15126""
","
",null,"<div style=""font-size:60px;"">+</div>",NA,null,fixation,2020-06-23T17:48:02Z,NA,NA,NA,NA,NA,sub115
NA,mars-trial,78,464722,0.0-10.0-1.32,"""event"",""trial"",""time""
""focus"",""0"",""12721""
""fullscreenenter"",""0"",""15126""
","
","""event"",""trial"",""time""
""focus"",""0"",""12721""
","""event"",""trial"",""time""
""fullscreenenter"",""0"",""15126""
","
",5888.489999997546,<img style='border: 4px solid darkgrey;' src='img/tf1_33_M_ss2.jpeg'></img>,3,NA,exp,NA,0,<img src='img/tf1_33_T1_ss2_md.jpeg'></img>,0,TRUE,NA,sub115
NA,html-keyboard-response,79,465225,0.0-10.0-0.33,"""event"",""trial"",""time""
""focus"",""0"",""12721""
""fullscreenenter"",""0"",""15126""
","
","""event"",""trial"",""time""
""focus"",""0"",""12721""
","""event"",""trial"",""time""
""fullscreenenter"",""0"",""15126""
","
",null,"<div style=""font-size:60px;"">+</div>",NA,null,fixation,2020-06-23T17:48:09Z,NA,NA,NA,NA,NA,sub115
NA,mars-trial,80,484344,0.0-10.0-1.33,"""event"",""trial"",""time""
""focus"",""0"",""12721""
""fullscreenenter"",""0"",""15126""
","
","""event"",""trial"",""time""
""focus"",""0"",""12721""
","""event"",""trial"",""time""
""fullscreenenter"",""0"",""15126""
","
",18511.350000000675,<img style='border: 4px solid darkgrey;' src='img/tf1_34_M_ss3.jpeg'></img>,3,NA,exp,NA,0,<img src='img/tf1_34_T1_ss3_md.jpeg'></img>,0,TRUE,NA,sub115
NA,html-keyboard-response,81,484845,0.0-10.0-0.34,"""event"",""trial"",""time""
""focus"",""0"",""12721""
""fullscreenenter"",""0"",""15126""
","
","""event"",""trial"",""time""
""focus"",""0"",""12721""
","""event"",""trial"",""time""
""fullscreenenter"",""0"",""15126""
","
",null,"<div style=""font-size:60px;"">+</div>",NA,null,fixation,2020-06-23T17:48:28Z,NA,NA,NA,NA,NA,sub115
NA,mars-trial,82,497530,0.0-10.0-1.34,"""event"",""trial"",""time""
""focus"",""0"",""12721""
""fullscreenenter"",""0"",""15126""
","
","""event"",""trial"",""time""
""focus"",""0"",""12721""
","""event"",""trial"",""time""
""fullscreenenter"",""0"",""15126""
","
",12075.320000003558,<img style='border: 4px solid darkgrey;' src='img/tf1_35_M_ss1.jpeg'></img>,2,NA,exp,NA,0,<img src='img/tf1_35_T1_ss1_md.jpeg'></img>,0,TRUE,NA,sub115
NA,html-keyboard-response,83,498032,0.0-10.0-0.35,"""event"",""trial"",""time""
""focus"",""0"",""12721""
""fullscreenenter"",""0"",""15126""
","
","""event"",""trial"",""time""
""focus"",""0"",""12721""
","""event"",""trial"",""time""
""fullscreenenter"",""0"",""15126""
","
",null,"<div style=""font-size:60px;"">+</div>",NA,null,fixation,2020-06-23T17:48:41Z,NA,NA,NA,NA,NA,sub115
NA,mars-trial,84,509420,0.0-10.0-1.35,"""event"",""trial"",""time""
""focus"",""0"",""12721""
""fullscreenenter"",""0"",""15126""
","
","""event"",""trial"",""time""
""focus"",""0"",""12721""
","""event"",""trial"",""time""
""fullscreenenter"",""0"",""15126""
","
",10782.155000000785,<img style='border: 4px solid darkgrey;' src='img/tf1_36_M_ss2.jpeg'></img>,3,NA,exp,NA,0,<img src='img/tf1_36_T1_ss2_md.jpeg'></img>,0,TRUE,NA,sub115
NA,html-keyboard-response,85,509923,0.0-10.0-0.36,"""event"",""trial"",""time""
""focus"",""0"",""12721""
""fullscreenenter"",""0"",""15126""
","
","""event"",""trial"",""time""
""focus"",""0"",""12721""
","""event"",""trial"",""time""
""fullscreenenter"",""0"",""15126""
","
",null,"<div style=""font-size:60px;"">+</div>",NA,null,fixation,2020-06-23T17:48:53Z,NA,NA,NA,NA,NA,sub115
NA,mars-trial,86,538791,0.0-10.0-1.36,"""event"",""trial"",""time""
""focus"",""0"",""12721""
""fullscreenenter"",""0"",""15126""
","
","""event"",""trial"",""time""
""focus"",""0"",""12721""
","""event"",""trial"",""time""
""fullscreenenter"",""0"",""15126""
","
",28259.09999999561,<img style='border: 4px solid darkgrey;' src='img/tf1_37_M_ss3.jpeg'></img>,3,NA,exp,NA,1,<img src='img/tf1_37_T1_ss3_md.jpeg'></img>,0,FALSE,NA,sub115
NA,html-keyboard-response,87,539296,0.0-10.0-0.37,"""event"",""trial"",""time""
""focus"",""0"",""12721""
""fullscreenenter"",""0"",""15126""
","
","""event"",""trial"",""time""
""focus"",""0"",""12721""
","""event"",""trial"",""time""
""fullscreenenter"",""0"",""15126""
","
",null,"<div style=""font-size:60px;"">+</div>",NA,null,fixation,2020-06-23T17:49:23Z,NA,NA,NA,NA,NA,sub115
NA,mars-trial,88,543294,0.0-10.0-1.37,"""event"",""trial"",""time""
""focus"",""0"",""12721""
""fullscreenenter"",""0"",""15126""
","
","""event"",""trial"",""time""
""focus"",""0"",""12721""
","""event"",""trial"",""time""
""fullscreenenter"",""0"",""15126""
","
",3389.215000002878,<img style='border: 4px solid darkgrey;' src='img/tf1_38_M_ss1.jpeg'></img>,3,NA,exp,NA,0,<img src='img/tf1_38_T1_ss1_md.jpeg'></img>,0,TRUE,NA,sub115
NA,html-keyboard-response,89,543797,0.0-10.0-0.38,"""event"",""trial"",""time""
""focus"",""0"",""12721""
""fullscreenenter"",""0"",""15126""
","
","""event"",""trial"",""time""
""focus"",""0"",""12721""
","""event"",""trial"",""time""
""fullscreenenter"",""0"",""15126""
","
",null,"<div style=""font-size:60px;"">+</div>",NA,null,fixation,2020-06-23T17:49:27Z,NA,NA,NA,NA,NA,sub115
NA,mars-trial,90,546292,0.0-10.0-1.38,"""event"",""trial"",""time""
""focus"",""0"",""12721""
""fullscreenenter"",""0"",""15126""
","
","""event"",""trial"",""time""
""focus"",""0"",""12721""
","""event"",""trial"",""time""
""fullscreenenter"",""0"",""15126""
","
",NA,NA,NA,NA,exp,NA,NA,<img src='img/tf1_39_T1_ss2_md.jpeg'></img>,0,FALSE,NA,sub115
NA,html-keyboard-response,91,546794,0.0-10.0-0.39,"""event"",""trial"",""time""
""focus"",""0"",""12721""
""fullscreenenter"",""0"",""15126""
","
","""event"",""trial"",""time""
""focus"",""0"",""12721""
","""event"",""trial"",""time""
""fullscreenenter"",""0"",""15126""
","
",null,"<div style=""font-size:60px;"">+</div>",NA,null,fixation,2020-06-23T17:49:30Z,NA,NA,NA,NA,NA,sub115
NA,audio-button-response,92,549428,0.0-11.0,"""event"",""trial"",""time""
""focus"",""0"",""12721""
""fullscreenenter"",""0"",""15126""
","
","""event"",""trial"",""time""
""focus"",""0"",""12721""
","""event"",""trial"",""time""
""fullscreenenter"",""0"",""15126""
","
",2532.55999999959,audio/mars_instructions_slide5.wav,0,NA,NA,NA,NA,NA,NA,NA,NA,sub115
