success,trial_type,trial_index,time_elapsed,internal_node_id,interactions,blur_events,focus_events,fullscreenenter_events,fullscreenexit_events,rt,stimulus,button_pressed,key_press,part,timestamp,unshuffled_button,correct_response,correct_button,correct,value,subject_id
TRUE,fullscreen,0,2355,0.0-0.0,"""event"",""trial"",""time""
""fullscreenenter"",""0"",""1369""
","
","
","""event"",""trial"",""time""
""fullscreenenter"",""0"",""1369""
","
",NA,NA,NA,NA,NA,NA,NA,NA,NA,NA,NA,sub116
NA,pavlovia,1,2366,0.0-1.0,"""event"",""trial"",""time""
""fullscreenenter"",""0"",""1369""
","
","
","""event"",""trial"",""time""
""fullscreenenter"",""0"",""1369""
","
",NA,NA,NA,NA,NA,NA,NA,NA,NA,NA,NA,sub116
NA,html-button-response,2,3135,0.0-2.0,"""event"",""trial"",""time""
""fullscreenenter"",""0"",""1369""
","
","
","""event"",""trial"",""time""
""fullscreenenter"",""0"",""1369""
","
",766.5050000068732,<p>Welcome! Press START to begin.</p><br>,0,NA,NA,NA,NA,NA,NA,NA,NA,sub116
NA,audio-button-response,3,9420,0.0-3.0,"""event"",""trial"",""time""
""fullscreenenter"",""0"",""1369""
","
","
","""event"",""trial"",""time""
""fullscreenenter"",""0"",""1369""
","
",6282.654999988154,audio/mars_instructions_slide2.wav,0,NA,NA,NA,NA,NA,NA,NA,NA,sub116
NA,audio-button-response,4,12852,0.0-4.0,"""event"",""trial"",""time""
""fullscreenenter"",""0"",""1369""
","
","
","""event"",""trial"",""time""
""fullscreenenter"",""0"",""1369""
","
",3431.4099999610335,audio/mars_instructions_slide3.wav,0,NA,NA,NA,NA,NA,NA,NA,NA,sub116
NA,html-keyboard-response,5,13355,0.0-5.0-0.0,"""event"",""trial"",""time""
""fullscreenenter"",""0"",""1369""
","
","
","""event"",""trial"",""time""
""fullscreenenter"",""0"",""1369""
","
",null,"<div style=""font-size:60px;"">+</div>",NA,null,fixation,2020-07-07T21:00:59Z,NA,NA,NA,NA,NA,sub116
NA,mars-trial,6,27199,0.0-5.0-1.0,"""event"",""trial"",""time""
""fullscreenenter"",""0"",""1369""
","
","
","""event"",""trial"",""time""
""fullscreenenter"",""0"",""1369""
","
",11736.0650000046,<img style='border: 4px solid darkgrey;' src='practice/pt1_M1.png'></img>,3,NA,practice,NA,0,<img src='practice/pt1_T1.png'></img>,0,TRUE,NA,sub116
NA,html-keyboard-response,7,27707,0.0-6.0-0.0,"""event"",""trial"",""time""
""fullscreenenter"",""0"",""1369""
","
","
","""event"",""trial"",""time""
""fullscreenenter"",""0"",""1369""
","
",null,"<div style=""font-size:60px;"">+</div>",NA,null,fixation,2020-07-07T21:01:14Z,NA,NA,NA,NA,NA,sub116
NA,mars-trial,8,32912,0.0-6.0-1.0,"""event"",""trial"",""time""
""fullscreenenter"",""0"",""1369""
","
","
","""event"",""trial"",""time""
""fullscreenenter"",""0"",""1369""
","
",3099.6649999869987,<img style='border: 4px solid darkgrey;' src='practice/pt2_M1.png'></img>,2,NA,practice,NA,0,<img src='practice/pt2_T1.png'></img>,0,TRUE,NA,sub116
NA,html-keyboard-response,9,33415,0.0-7.0-0.0,"""event"",""trial"",""time""
""fullscreenenter"",""0"",""1369""
","
","
","""event"",""trial"",""time""
""fullscreenenter"",""0"",""1369""
","
",null,"<div style=""font-size:60px;"">+</div>",NA,null,fixation,2020-07-07T21:01:19Z,NA,NA,NA,NA,NA,sub116
NA,mars-trial,10,38528,0.0-7.0-1.0,"""event"",""trial"",""time""
""fullscreenenter"",""0"",""1369""
","
","
","""event"",""trial"",""time""
""fullscreenenter"",""0"",""1369""
","
",3006.219999981113,<img style='border: 4px solid darkgrey;' src='practice/pt3_M1.png'></img>,1,NA,practice,NA,0,<img src='practice/pt3_T1.png'></img>,0,TRUE,NA,sub116
NA,audio-button-response,11,40797,0.0-8.0,"""event"",""trial"",""time""
""fullscreenenter"",""0"",""1369""
","
","
","""event"",""trial"",""time""
""fullscreenenter"",""0"",""1369""
","
",2265.6499999575317,audio/mars_instructions_slide4.wav,0,NA,NA,NA,NA,NA,NA,NA,NA,sub116
NA,call-function,12,40798,0.0-9.0,"""event"",""trial"",""time""
""fullscreenenter"",""0"",""1369""
","
","
","""event"",""trial"",""time""
""fullscreenenter"",""0"",""1369""
","
",NA,NA,NA,NA,NA,NA,NA,NA,NA,NA,NA,sub116
NA,html-keyboard-response,13,41300,0.0-10.0-0.0,"""event"",""trial"",""time""
""fullscreenenter"",""0"",""1369""
","
","
","""event"",""trial"",""time""
""fullscreenenter"",""0"",""1369""
","
",null,"<div style=""font-size:60px;"">+</div>",NA,null,fixation,2020-07-07T21:01:27Z,NA,NA,NA,NA,NA,sub116
NA,mars-trial,14,43483,0.0-10.0-1.0,"""event"",""trial"",""time""
""fullscreenenter"",""0"",""1369""
","
","
","""event"",""trial"",""time""
""fullscreenenter"",""0"",""1369""
","
",1575.379999994766,<img style='border: 4px solid darkgrey;' src='img/tf1_1_M_ss3.jpeg'></img>,1,NA,exp,NA,0,<img src='img/tf1_1_T1_ss3_md.jpeg'></img>,0,TRUE,NA,sub116
NA,html-keyboard-response,15,43986,0.0-10.0-0.1,"""event"",""trial"",""time""
""fullscreenenter"",""0"",""1369""
","
","
","""event"",""trial"",""time""
""fullscreenenter"",""0"",""1369""
","
",null,"<div style=""font-size:60px;"">+</div>",NA,null,fixation,2020-07-07T21:01:30Z,NA,NA,NA,NA,NA,sub116
NA,mars-trial,16,50054,0.0-10.0-1.1,"""event"",""trial"",""time""
""fullscreenenter"",""0"",""1369""
","
","
","""event"",""trial"",""time""
""fullscreenenter"",""0"",""1369""
","
",5462.390000000596,<img style='border: 4px solid darkgrey;' src='img/tf1_2_M_ss1.jpeg'></img>,3,NA,exp,NA,0,<img src='img/tf1_2_T1_ss1_md.jpeg'></img>,0,TRUE,NA,sub116
NA,html-keyboard-response,17,50557,0.0-10.0-0.2,"""event"",""trial"",""time""
""fullscreenenter"",""0"",""1369""
","
","
","""event"",""trial"",""time""
""fullscreenenter"",""0"",""1369""
","
",null,"<div style=""font-size:60px;"">+</div>",NA,null,fixation,2020-07-07T21:01:36Z,NA,NA,NA,NA,NA,sub116
NA,mars-trial,18,53889,0.0-10.0-1.2,"""event"",""trial"",""time""
""fullscreenenter"",""0"",""1369""
","
","
","""event"",""trial"",""time""
""fullscreenenter"",""0"",""1369""
","
",2726.2549999868497,<img style='border: 4px solid darkgrey;' src='img/tf1_3_M_ss2.jpeg'></img>,0,NA,exp,NA,0,<img src='img/tf1_3_T1_ss2_md.jpeg'></img>,0,TRUE,NA,sub116
NA,html-keyboard-response,19,54390,0.0-10.0-0.3,"""event"",""trial"",""time""
""fullscreenenter"",""0"",""1369""
","
","
","""event"",""trial"",""time""
""fullscreenenter"",""0"",""1369""
","
",null,"<div style=""font-size:60px;"">+</div>",NA,null,fixation,2020-07-07T21:01:40Z,NA,NA,NA,NA,NA,sub116
NA,mars-trial,20,57783,0.0-10.0-1.3,"""event"",""trial"",""time""
""fullscreenenter"",""0"",""1369""
","
","
","""event"",""trial"",""time""
""fullscreenenter"",""0"",""1369""
","
",2784.299999999348,<img style='border: 4px solid darkgrey;' src='img/tf1_4_M_ss3.jpeg'></img>,2,NA,exp,NA,0,<img src='img/tf1_4_T1_ss3_md.jpeg'></img>,0,TRUE,NA,sub116
NA,html-keyboard-response,21,58287,0.0-10.0-0.4,"""event"",""trial"",""time""
""fullscreenenter"",""0"",""1369""
","
","
","""event"",""trial"",""time""
""fullscreenenter"",""0"",""1369""
","
",null,"<div style=""font-size:60px;"">+</div>",NA,null,fixation,2020-07-07T21:01:44Z,NA,NA,NA,NA,NA,sub116
NA,mars-trial,22,60332,0.0-10.0-1.4,"""event"",""trial"",""time""
""fullscreenenter"",""0"",""1369""
","
","
","""event"",""trial"",""time""
""fullscreenenter"",""0"",""1369""
","
",1439.4000000320375,<img style='border: 4px solid darkgrey;' src='img/tf1_5_M_ss1.jpeg'></img>,3,NA,exp,NA,0,<img src='img/tf1_5_T1_ss1_md.jpeg'></img>,0,TRUE,NA,sub116
NA,html-keyboard-response,23,60835,0.0-10.0-0.5,"""event"",""trial"",""time""
""fullscreenenter"",""0"",""1369""
","
","
","""event"",""trial"",""time""
""fullscreenenter"",""0"",""1369""
","
",null,"<div style=""font-size:60px;"">+</div>",NA,null,fixation,2020-07-07T21:01:47Z,NA,NA,NA,NA,NA,sub116
NA,mars-trial,24,67562,0.0-10.0-1.5,"""event"",""trial"",""time""
""fullscreenenter"",""0"",""1369""
","
","
","""event"",""trial"",""time""
""fullscreenenter"",""0"",""1369""
","
",6121.319999976549,<img style='border: 4px solid darkgrey;' src='img/tf1_6_M_ss2.jpeg'></img>,0,NA,exp,NA,2,<img src='img/tf1_6_T1_ss2_md.jpeg'></img>,0,FALSE,NA,sub116
NA,html-keyboard-response,25,68067,0.0-10.0-0.6,"""event"",""trial"",""time""
""fullscreenenter"",""0"",""1369""
","
","
","""event"",""trial"",""time""
""fullscreenenter"",""0"",""1369""
","
",null,"<div style=""font-size:60px;"">+</div>",NA,null,fixation,2020-07-07T21:01:54Z,NA,NA,NA,NA,NA,sub116
NA,mars-trial,26,73728,0.0-10.0-1.6,"""event"",""trial"",""time""
""fullscreenenter"",""0"",""1369""
","
","
","""event"",""trial"",""time""
""fullscreenenter"",""0"",""1369""
","
",5054.185000015423,<img style='border: 4px solid darkgrey;' src='img/tf1_7_M_ss3.jpeg'></img>,1,NA,exp,NA,0,<img src='img/tf1_7_T1_ss3_md.jpeg'></img>,0,TRUE,NA,sub116
NA,html-keyboard-response,27,74233,0.0-10.0-0.7,"""event"",""trial"",""time""
""fullscreenenter"",""0"",""1369""
","
","
","""event"",""trial"",""time""
""fullscreenenter"",""0"",""1369""
","
",null,"<div style=""font-size:60px;"">+</div>",NA,null,fixation,2020-07-07T21:02:00Z,NA,NA,NA,NA,NA,sub116
NA,mars-trial,28,78562,0.0-10.0-1.7,"""event"",""trial"",""time""
""fullscreenenter"",""0"",""1369""
","
","
","""event"",""trial"",""time""
""fullscreenenter"",""0"",""1369""
","
",3725.0500000081956,<img style='border: 4px solid darkgrey;' src='img/tf1_8_M_ss1.jpeg'></img>,2,NA,exp,NA,0,<img src='img/tf1_8_T1_ss1_md.jpeg'></img>,0,TRUE,NA,sub116
NA,html-keyboard-response,29,79065,0.0-10.0-0.8,"""event"",""trial"",""time""
""fullscreenenter"",""0"",""1369""
","
","
","""event"",""trial"",""time""
""fullscreenenter"",""0"",""1369""
","
",null,"<div style=""font-size:60px;"">+</div>",NA,null,fixation,2020-07-07T21:02:05Z,NA,NA,NA,NA,NA,sub116
NA,mars-trial,30,83109,0.0-10.0-1.8,"""event"",""trial"",""time""
""fullscreenenter"",""0"",""1369""
","
","
","""event"",""trial"",""time""
""fullscreenenter"",""0"",""1369""
","
",3434.4549999805167,<img style='border: 4px solid darkgrey;' src='img/tf1_9_M_ss2.jpeg'></img>,1,NA,exp,NA,0,<img src='img/tf1_9_T1_ss2_md.jpeg'></img>,0,TRUE,NA,sub116
NA,html-keyboard-response,31,83611,0.0-10.0-0.9,"""event"",""trial"",""time""
""fullscreenenter"",""0"",""1369""
","
","
","""event"",""trial"",""time""
""fullscreenenter"",""0"",""1369""
","
",null,"<div style=""font-size:60px;"">+</div>",NA,null,fixation,2020-07-07T21:02:10Z,NA,NA,NA,NA,NA,sub116
NA,mars-trial,32,88259,0.0-10.0-1.9,"""event"",""trial"",""time""
""fullscreenenter"",""0"",""1369""
","
","
","""event"",""trial"",""time""
""fullscreenenter"",""0"",""1369""
","
",4038.624999986496,<img style='border: 4px solid darkgrey;' src='img/tf1_10_M_ss3.jpeg'></img>,3,NA,exp,NA,1,<img src='img/tf1_10_T1_ss3_md.jpeg'></img>,0,FALSE,NA,sub116
NA,html-keyboard-response,33,88760,0.0-10.0-0.10,"""event"",""trial"",""time""
""fullscreenenter"",""0"",""1369""
","
","
","""event"",""trial"",""time""
""fullscreenenter"",""0"",""1369""
","
",null,"<div style=""font-size:60px;"">+</div>",NA,null,fixation,2020-07-07T21:02:15Z,NA,NA,NA,NA,NA,sub116
NA,mars-trial,34,96322,0.0-10.0-1.10,"""event"",""trial"",""time""
""fullscreenenter"",""0"",""1369""
","
","
","""event"",""trial"",""time""
""fullscreenenter"",""0"",""1369""
","
",6955.409999995027,<img style='border: 4px solid darkgrey;' src='img/tf1_11_M_ss1.jpeg'></img>,2,NA,exp,NA,3,<img src='img/tf1_11_T1_ss1_md.jpeg'></img>,0,FALSE,NA,sub116
NA,html-keyboard-response,35,96825,0.0-10.0-0.11,"""event"",""trial"",""time""
""fullscreenenter"",""0"",""1369""
","
","
","""event"",""trial"",""time""
""fullscreenenter"",""0"",""1369""
","
",null,"<div style=""font-size:60px;"">+</div>",NA,null,fixation,2020-07-07T21:02:23Z,NA,NA,NA,NA,NA,sub116
NA,mars-trial,36,108685,0.0-10.0-1.11,"""event"",""trial"",""time""
""fullscreenenter"",""0"",""1369""
","
","
","""event"",""trial"",""time""
""fullscreenenter"",""0"",""1369""
","
",11252.5499999756,<img style='border: 4px solid darkgrey;' src='img/tf1_12_M_ss2.jpeg'></img>,1,NA,exp,NA,2,<img src='img/tf1_12_T1_ss2_md.jpeg'></img>,0,FALSE,NA,sub116
NA,html-keyboard-response,37,109189,0.0-10.0-0.12,"""event"",""trial"",""time""
""fullscreenenter"",""0"",""1369""
","
","
","""event"",""trial"",""time""
""fullscreenenter"",""0"",""1369""
","
",null,"<div style=""font-size:60px;"">+</div>",NA,null,fixation,2020-07-07T21:02:35Z,NA,NA,NA,NA,NA,sub116
NA,mars-trial,38,119104,0.0-10.0-1.12,"""event"",""trial"",""time""
""fullscreenenter"",""0"",""1369""
","
","
","""event"",""trial"",""time""
""fullscreenenter"",""0"",""1369""
","
",9311.719999997877,<img style='border: 4px solid darkgrey;' src='img/tf1_13_M_ss3.jpeg'></img>,2,NA,exp,NA,1,<img src='img/tf1_13_T1_ss3_md.jpeg'></img>,0,FALSE,NA,sub116
NA,html-keyboard-response,39,119606,0.0-10.0-0.13,"""event"",""trial"",""time""
""fullscreenenter"",""0"",""1369""
","
","
","""event"",""trial"",""time""
""fullscreenenter"",""0"",""1369""
","
",null,"<div style=""font-size:60px;"">+</div>",NA,null,fixation,2020-07-07T21:02:46Z,NA,NA,NA,NA,NA,sub116
NA,mars-trial,40,130211,0.0-10.0-1.13,"""event"",""trial"",""time""
""fullscreenenter"",""0"",""1369""
","
","
","""event"",""trial"",""time""
""fullscreenenter"",""0"",""1369""
","
",9998.245000024326,<img style='border: 4px solid darkgrey;' src='img/tf1_14_M_ss1.jpeg'></img>,3,NA,exp,NA,3,<img src='img/tf1_14_T1_ss1_md.jpeg'></img>,0,FALSE,NA,sub116
NA,html-keyboard-response,41,130714,0.0-10.0-0.14,"""event"",""trial"",""time""
""fullscreenenter"",""0"",""1369""
","
","
","""event"",""trial"",""time""
""fullscreenenter"",""0"",""1369""
","
",null,"<div style=""font-size:60px;"">+</div>",NA,null,fixation,2020-07-07T21:02:57Z,NA,NA,NA,NA,NA,sub116
NA,mars-trial,42,144705,0.0-10.0-1.14,"""event"",""trial"",""time""
""fullscreenenter"",""0"",""1369""
","
","
","""event"",""trial"",""time""
""fullscreenenter"",""0"",""1369""
","
",13385.064999980386,<img style='border: 4px solid darkgrey;' src='img/tf1_15_M_ss2.jpeg'></img>,1,NA,exp,NA,1,<img src='img/tf1_15_T1_ss2_md.jpeg'></img>,0,FALSE,NA,sub116
NA,html-keyboard-response,43,145209,0.0-10.0-0.15,"""event"",""trial"",""time""
""fullscreenenter"",""0"",""1369""
","
","
","""event"",""trial"",""time""
""fullscreenenter"",""0"",""1369""
","
",null,"<div style=""font-size:60px;"">+</div>",NA,null,fixation,2020-07-07T21:03:11Z,NA,NA,NA,NA,NA,sub116
NA,mars-trial,44,155492,0.0-10.0-1.15,"""event"",""trial"",""time""
""fullscreenenter"",""0"",""1369""
","
","
","""event"",""trial"",""time""
""fullscreenenter"",""0"",""1369""
","
",9676.999999966938,<img style='border: 4px solid darkgrey;' src='img/tf1_16_M_ss3.jpeg'></img>,2,NA,exp,NA,1,<img src='img/tf1_16_T1_ss3_md.jpeg'></img>,0,FALSE,NA,sub116
NA,html-keyboard-response,45,155994,0.0-10.0-0.16,"""event"",""trial"",""time""
""fullscreenenter"",""0"",""1369""
","
","
","""event"",""trial"",""time""
""fullscreenenter"",""0"",""1369""
","
",null,"<div style=""font-size:60px;"">+</div>",NA,null,fixation,2020-07-07T21:03:22Z,NA,NA,NA,NA,NA,sub116
NA,mars-trial,46,174323,0.0-10.0-1.16,"""event"",""trial"",""time""
""fullscreenenter"",""0"",""1369""
","
","
","""event"",""trial"",""time""
""fullscreenenter"",""0"",""1369""
","
",17719.57499999553,<img style='border: 4px solid darkgrey;' src='img/tf1_17_M_ss1.jpeg'></img>,2,NA,exp,NA,0,<img src='img/tf1_17_T1_ss1_md.jpeg'></img>,0,TRUE,NA,sub116
NA,html-keyboard-response,47,174825,0.0-10.0-0.17,"""event"",""trial"",""time""
""fullscreenenter"",""0"",""1369""
","
","
","""event"",""trial"",""time""
""fullscreenenter"",""0"",""1369""
","
",null,"<div style=""font-size:60px;"">+</div>",NA,null,fixation,2020-07-07T21:03:41Z,NA,NA,NA,NA,NA,sub116
NA,mars-trial,48,190630,0.0-10.0-1.17,"""event"",""trial"",""time""
""fullscreenenter"",""0"",""1369""
","
","
","""event"",""trial"",""time""
""fullscreenenter"",""0"",""1369""
","
",15196.664999995846,<img style='border: 4px solid darkgrey;' src='img/tf1_18_M_ss2.jpeg'></img>,2,NA,exp,NA,1,<img src='img/tf1_18_T1_ss2_md.jpeg'></img>,0,FALSE,NA,sub116
NA,html-keyboard-response,49,191132,0.0-10.0-0.18,"""event"",""trial"",""time""
""fullscreenenter"",""0"",""1369""
","
","
","""event"",""trial"",""time""
""fullscreenenter"",""0"",""1369""
","
",null,"<div style=""font-size:60px;"">+</div>",NA,null,fixation,2020-07-07T21:03:57Z,NA,NA,NA,NA,NA,sub116
NA,mars-trial,50,202482,0.0-10.0-1.18,"""event"",""trial"",""time""
""fullscreenenter"",""0"",""1369""
","
","
","""event"",""trial"",""time""
""fullscreenenter"",""0"",""1369""
","
",10743.75499994494,<img style='border: 4px solid darkgrey;' src='img/tf1_19_M_ss3.jpeg'></img>,1,NA,exp,NA,0,<img src='img/tf1_19_T1_ss3_md.jpeg'></img>,0,TRUE,NA,sub116
NA,html-keyboard-response,51,202983,0.0-10.0-0.19,"""event"",""trial"",""time""
""fullscreenenter"",""0"",""1369""
","
","
","""event"",""trial"",""time""
""fullscreenenter"",""0"",""1369""
","
",null,"<div style=""font-size:60px;"">+</div>",NA,null,fixation,2020-07-07T21:04:09Z,NA,NA,NA,NA,NA,sub116
NA,mars-trial,52,209066,0.0-10.0-1.19,"""event"",""trial"",""time""
""fullscreenenter"",""0"",""1369""
","
","
","""event"",""trial"",""time""
""fullscreenenter"",""0"",""1369""
","
",5476.4049999648705,<img style='border: 4px solid darkgrey;' src='img/tf1_20_M_ss1.jpeg'></img>,2,NA,exp,NA,0,<img src='img/tf1_20_T1_ss1_md.jpeg'></img>,0,TRUE,NA,sub116
NA,html-keyboard-response,53,209569,0.0-10.0-0.20,"""event"",""trial"",""time""
""fullscreenenter"",""0"",""1369""
","
","
","""event"",""trial"",""time""
""fullscreenenter"",""0"",""1369""
","
",null,"<div style=""font-size:60px;"">+</div>",NA,null,fixation,2020-07-07T21:04:15Z,NA,NA,NA,NA,NA,sub116
NA,mars-trial,54,223643,0.0-10.0-1.20,"""event"",""trial"",""time""
""fullscreenenter"",""0"",""1369""
","
","
","""event"",""trial"",""time""
""fullscreenenter"",""0"",""1369""
","
",13468.854999984615,<img style='border: 4px solid darkgrey;' src='img/tf1_21_M_ss2.jpeg'></img>,1,NA,exp,NA,0,<img src='img/tf1_21_T1_ss2_md.jpeg'></img>,0,TRUE,NA,sub116
NA,html-keyboard-response,55,224146,0.0-10.0-0.21,"""event"",""trial"",""time""
""fullscreenenter"",""0"",""1369""
","
","
","""event"",""trial"",""time""
""fullscreenenter"",""0"",""1369""
","
",null,"<div style=""font-size:60px;"">+</div>",NA,null,fixation,2020-07-07T21:04:30Z,NA,NA,NA,NA,NA,sub116
NA,mars-trial,56,236355,0.0-10.0-1.21,"""event"",""trial"",""time""
""fullscreenenter"",""0"",""1369""
","
","
","""event"",""trial"",""time""
""fullscreenenter"",""0"",""1369""
","
",11600.864999985788,<img style='border: 4px solid darkgrey;' src='img/tf1_22_M_ss3.jpeg'></img>,1,NA,exp,NA,0,<img src='img/tf1_22_T1_ss3_md.jpeg'></img>,0,TRUE,NA,sub116
NA,html-keyboard-response,57,236857,0.0-10.0-0.22,"""event"",""trial"",""time""
""fullscreenenter"",""0"",""1369""
","
","
","""event"",""trial"",""time""
""fullscreenenter"",""0"",""1369""
","
",null,"<div style=""font-size:60px;"">+</div>",NA,null,fixation,2020-07-07T21:04:43Z,NA,NA,NA,NA,NA,sub116
NA,mars-trial,58,243901,0.0-10.0-1.22,"""event"",""trial"",""time""
""fullscreenenter"",""0"",""1369""
","
","
","""event"",""trial"",""time""
""fullscreenenter"",""0"",""1369""
","
",6438.354999991134,<img style='border: 4px solid darkgrey;' src='img/tf1_23_M_ss1.jpeg'></img>,3,NA,exp,NA,0,<img src='img/tf1_23_T1_ss1_md.jpeg'></img>,0,TRUE,NA,sub116
NA,html-keyboard-response,59,244403,0.0-10.0-0.23,"""event"",""trial"",""time""
""fullscreenenter"",""0"",""1369""
","
","
","""event"",""trial"",""time""
""fullscreenenter"",""0"",""1369""
","
",null,"<div style=""font-size:60px;"">+</div>",NA,null,fixation,2020-07-07T21:04:50Z,NA,NA,NA,NA,NA,sub116
NA,mars-trial,60,266064,0.0-10.0-1.23,"""event"",""trial"",""time""
""fullscreenenter"",""0"",""1369""
","
","
","""event"",""trial"",""time""
""fullscreenenter"",""0"",""1369""
","
",21053.919999976642,<img style='border: 4px solid darkgrey;' src='img/tf1_24_M_ss2.jpeg'></img>,3,NA,exp,NA,0,<img src='img/tf1_24_T1_ss2_md.jpeg'></img>,0,TRUE,NA,sub116
NA,html-keyboard-response,61,266566,0.0-10.0-0.24,"""event"",""trial"",""time""
""fullscreenenter"",""0"",""1369""
","
","
","""event"",""trial"",""time""
""fullscreenenter"",""0"",""1369""
","
",null,"<div style=""font-size:60px;"">+</div>",NA,null,fixation,2020-07-07T21:05:12Z,NA,NA,NA,NA,NA,sub116
NA,mars-trial,62,279360,0.0-10.0-1.24,"""event"",""trial"",""time""
""fullscreenenter"",""0"",""1369""
","
","
","""event"",""trial"",""time""
""fullscreenenter"",""0"",""1369""
","
",12188.094999990426,<img style='border: 4px solid darkgrey;' src='img/tf1_25_M_ss3.jpeg'></img>,1,NA,exp,NA,0,<img src='img/tf1_25_T1_ss3_md.jpeg'></img>,0,TRUE,NA,sub116
NA,html-keyboard-response,63,279861,0.0-10.0-0.25,"""event"",""trial"",""time""
""fullscreenenter"",""0"",""1369""
","
","
","""event"",""trial"",""time""
""fullscreenenter"",""0"",""1369""
","
",null,"<div style=""font-size:60px;"">+</div>",NA,null,fixation,2020-07-07T21:05:26Z,NA,NA,NA,NA,NA,sub116
NA,mars-trial,64,298987,0.0-10.0-1.25,"""event"",""trial"",""time""
""fullscreenenter"",""0"",""1369""
","
","
","""event"",""trial"",""time""
""fullscreenenter"",""0"",""1369""
","
",18517.24000001559,<img style='border: 4px solid darkgrey;' src='img/tf1_26_M_ss1.jpeg'></img>,1,NA,exp,NA,0,<img src='img/tf1_26_T1_ss1_md.jpeg'></img>,0,TRUE,NA,sub116
NA,html-keyboard-response,65,299491,0.0-10.0-0.26,"""event"",""trial"",""time""
""fullscreenenter"",""0"",""1369""
","
","
","""event"",""trial"",""time""
""fullscreenenter"",""0"",""1369""
","
",null,"<div style=""font-size:60px;"">+</div>",NA,null,fixation,2020-07-07T21:05:45Z,NA,NA,NA,NA,NA,sub116
NA,mars-trial,66,314126,0.0-10.0-1.26,"""event"",""trial"",""time""
""fullscreenenter"",""0"",""1369""
","
","
","""event"",""trial"",""time""
""fullscreenenter"",""0"",""1369""
","
",14028.0849999981,<img style='border: 4px solid darkgrey;' src='img/tf1_27_M_ss2.jpeg'></img>,1,NA,exp,NA,0,<img src='img/tf1_27_T1_ss2_md.jpeg'></img>,0,TRUE,NA,sub116
NA,html-keyboard-response,67,314627,0.0-10.0-0.27,"""event"",""trial"",""time""
""fullscreenenter"",""0"",""1369""
","
","
","""event"",""trial"",""time""
""fullscreenenter"",""0"",""1369""
","
",null,"<div style=""font-size:60px;"">+</div>",NA,null,fixation,2020-07-07T21:06:01Z,NA,NA,NA,NA,NA,sub116
NA,mars-trial,68,335028,0.0-10.0-1.27,"""event"",""trial"",""time""
""fullscreenenter"",""0"",""1369""
","
","
","""event"",""trial"",""time""
""fullscreenenter"",""0"",""1369""
","
",19792.75999998208,<img style='border: 4px solid darkgrey;' src='img/tf1_28_M_ss3.jpeg'></img>,0,NA,exp,NA,0,<img src='img/tf1_28_T1_ss3_md.jpeg'></img>,0,TRUE,NA,sub116
NA,html-keyboard-response,69,335531,0.0-10.0-0.28,"""event"",""trial"",""time""
""fullscreenenter"",""0"",""1369""
","
","
","""event"",""trial"",""time""
""fullscreenenter"",""0"",""1369""
","
",null,"<div style=""font-size:60px;"">+</div>",NA,null,fixation,2020-07-07T21:06:21Z,NA,NA,NA,NA,NA,sub116
NA,mars-trial,70,348288,0.0-10.0-1.28,"""event"",""trial"",""time""
""fullscreenenter"",""0"",""1369""
","
","
","""event"",""trial"",""time""
""fullscreenenter"",""0"",""1369""
","
",12150.74499999173,<img style='border: 4px solid darkgrey;' src='img/tf1_29_M_ss1.jpeg'></img>,1,NA,exp,NA,0,<img src='img/tf1_29_T1_ss1_md.jpeg'></img>,0,TRUE,NA,sub116
NA,html-keyboard-response,71,348791,0.0-10.0-0.29,"""event"",""trial"",""time""
""fullscreenenter"",""0"",""1369""
","
","
","""event"",""trial"",""time""
""fullscreenenter"",""0"",""1369""
","
",null,"<div style=""font-size:60px;"">+</div>",NA,null,fixation,2020-07-07T21:06:35Z,NA,NA,NA,NA,NA,sub116
NA,mars-trial,72,360867,0.0-10.0-1.29,"""event"",""trial"",""time""
""fullscreenenter"",""0"",""1369""
","
","
","""event"",""trial"",""time""
""fullscreenenter"",""0"",""1369""
","
",11471.88999998616,<img style='border: 4px solid darkgrey;' src='img/tf1_30_M_ss2.jpeg'></img>,0,NA,exp,NA,0,<img src='img/tf1_30_T1_ss2_md.jpeg'></img>,0,TRUE,NA,sub116
NA,html-keyboard-response,73,361371,0.0-10.0-0.30,"""event"",""trial"",""time""
""fullscreenenter"",""0"",""1369""
","
","
","""event"",""trial"",""time""
""fullscreenenter"",""0"",""1369""
","
",null,"<div style=""font-size:60px;"">+</div>",NA,null,fixation,2020-07-07T21:06:47Z,NA,NA,NA,NA,NA,sub116
NA,mars-trial,74,375977,0.0-10.0-1.30,"""event"",""trial"",""time""
""fullscreenenter"",""0"",""1369""
","
","
","""event"",""trial"",""time""
""fullscreenenter"",""0"",""1369""
","
",13998.665000020992,<img style='border: 4px solid darkgrey;' src='img/tf1_31_M_ss3.jpeg'></img>,3,NA,exp,NA,1,<img src='img/tf1_31_T1_ss3_md.jpeg'></img>,0,FALSE,NA,sub116
NA,html-keyboard-response,75,376481,0.0-10.0-0.31,"""event"",""trial"",""time""
""fullscreenenter"",""0"",""1369""
","
","
","""event"",""trial"",""time""
""fullscreenenter"",""0"",""1369""
","
",null,"<div style=""font-size:60px;"">+</div>",NA,null,fixation,2020-07-07T21:07:02Z,NA,NA,NA,NA,NA,sub116
NA,mars-trial,76,386089,0.0-10.0-1.31,"""event"",""trial"",""time""
""fullscreenenter"",""0"",""1369""
","
","
","""event"",""trial"",""time""
""fullscreenenter"",""0"",""1369""
","
",8999.859999981709,<img style='border: 4px solid darkgrey;' src='img/tf1_32_M_ss1.jpeg'></img>,3,NA,exp,NA,0,<img src='img/tf1_32_T1_ss1_md.jpeg'></img>,0,TRUE,NA,sub116
NA,html-keyboard-response,77,386592,0.0-10.0-0.32,"""event"",""trial"",""time""
""fullscreenenter"",""0"",""1369""
","
","
","""event"",""trial"",""time""
""fullscreenenter"",""0"",""1369""
","
",null,"<div style=""font-size:60px;"">+</div>",NA,null,fixation,2020-07-07T21:07:13Z,NA,NA,NA,NA,NA,sub116
NA,mars-trial,78,398821,0.0-10.0-1.32,"""event"",""trial"",""time""
""fullscreenenter"",""0"",""1369""
","
","
","""event"",""trial"",""time""
""fullscreenenter"",""0"",""1369""
","
",11621.595000033267,<img style='border: 4px solid darkgrey;' src='img/tf1_33_M_ss2.jpeg'></img>,2,NA,exp,NA,0,<img src='img/tf1_33_T1_ss2_md.jpeg'></img>,0,TRUE,NA,sub116
NA,html-keyboard-response,79,399324,0.0-10.0-0.33,"""event"",""trial"",""time""
""fullscreenenter"",""0"",""1369""
","
","
","""event"",""trial"",""time""
""fullscreenenter"",""0"",""1369""
","
",null,"<div style=""font-size:60px;"">+</div>",NA,null,fixation,2020-07-07T21:07:25Z,NA,NA,NA,NA,NA,sub116
NA,mars-trial,80,412080,0.0-10.0-1.33,"""event"",""trial"",""time""
""fullscreenenter"",""0"",""1369""
","
","
","""event"",""trial"",""time""
""fullscreenenter"",""0"",""1369""
","
",12150.549999962095,<img style='border: 4px solid darkgrey;' src='img/tf1_34_M_ss3.jpeg'></img>,0,NA,exp,NA,0,<img src='img/tf1_34_T1_ss3_md.jpeg'></img>,0,TRUE,NA,sub116
NA,html-keyboard-response,81,412582,0.0-10.0-0.34,"""event"",""trial"",""time""
""fullscreenenter"",""0"",""1369""
","
","
","""event"",""trial"",""time""
""fullscreenenter"",""0"",""1369""
","
",null,"<div style=""font-size:60px;"">+</div>",NA,null,fixation,2020-07-07T21:07:39Z,NA,NA,NA,NA,NA,sub116
NA,mars-trial,82,432250,0.0-10.0-1.34,"""event"",""trial"",""time""
""fullscreenenter"",""0"",""1369""
","
","
","""event"",""trial"",""time""
""fullscreenenter"",""0"",""1369""
","
",19060.44999998994,<img style='border: 4px solid darkgrey;' src='img/tf1_35_M_ss1.jpeg'></img>,1,NA,exp,NA,0,<img src='img/tf1_35_T1_ss1_md.jpeg'></img>,0,TRUE,NA,sub116
NA,html-keyboard-response,83,432752,0.0-10.0-0.35,"""event"",""trial"",""time""
""fullscreenenter"",""0"",""1369""
","
","
","""event"",""trial"",""time""
""fullscreenenter"",""0"",""1369""
","
",null,"<div style=""font-size:60px;"">+</div>",NA,null,fixation,2020-07-07T21:07:59Z,NA,NA,NA,NA,NA,sub116
NA,mars-trial,84,452676,0.0-10.0-1.35,"""event"",""trial"",""time""
""fullscreenenter"",""0"",""1369""
","
","
","""event"",""trial"",""time""
""fullscreenenter"",""0"",""1369""
","
",19317.075000028126,<img style='border: 4px solid darkgrey;' src='img/tf1_36_M_ss2.jpeg'></img>,2,NA,exp,NA,0,<img src='img/tf1_36_T1_ss2_md.jpeg'></img>,0,TRUE,NA,sub116
NA,html-keyboard-response,85,453180,0.0-10.0-0.36,"""event"",""trial"",""time""
""fullscreenenter"",""0"",""1369""
","
","
","""event"",""trial"",""time""
""fullscreenenter"",""0"",""1369""
","
",null,"<div style=""font-size:60px;"">+</div>",NA,null,fixation,2020-07-07T21:08:19Z,NA,NA,NA,NA,NA,sub116
NA,mars-trial,86,476734,0.0-10.0-1.36,"""event"",""trial"",""time""
""fullscreenenter"",""0"",""1369""
","
","
","""event"",""trial"",""time""
""fullscreenenter"",""0"",""1369""
","
",22947.150000021793,<img style='border: 4px solid darkgrey;' src='img/tf1_37_M_ss3.jpeg'></img>,2,NA,exp,NA,0,<img src='img/tf1_37_T1_ss3_md.jpeg'></img>,0,TRUE,NA,sub116
NA,html-keyboard-response,87,477236,0.0-10.0-0.37,"""event"",""trial"",""time""
""fullscreenenter"",""0"",""1369""
","
","
","""event"",""trial"",""time""
""fullscreenenter"",""0"",""1369""
","
",null,"<div style=""font-size:60px;"">+</div>",NA,null,fixation,2020-07-07T21:08:43Z,NA,NA,NA,NA,NA,sub116
NA,mars-trial,88,484302,0.0-10.0-1.37,"""event"",""trial"",""time""
""fullscreenenter"",""0"",""1369""
","
","
","""event"",""trial"",""time""
""fullscreenenter"",""0"",""1369""
","
",6457.65500003472,<img style='border: 4px solid darkgrey;' src='img/tf1_38_M_ss1.jpeg'></img>,3,NA,exp,NA,0,<img src='img/tf1_38_T1_ss1_md.jpeg'></img>,0,TRUE,NA,sub116
NA,html-keyboard-response,89,484804,0.0-10.0-0.38,"""event"",""trial"",""time""
""fullscreenenter"",""0"",""1369""
","
","
","""event"",""trial"",""time""
""fullscreenenter"",""0"",""1369""
","
",null,"<div style=""font-size:60px;"">+</div>",NA,null,fixation,2020-07-07T21:08:51Z,NA,NA,NA,NA,NA,sub116
NA,mars-trial,90,501968,0.0-10.0-1.38,"""event"",""trial"",""time""
""fullscreenenter"",""0"",""1369""
","
","
","""event"",""trial"",""time""
""fullscreenenter"",""0"",""1369""
","
",16555.740000039805,<img style='border: 4px solid darkgrey;' src='img/tf1_39_M_ss2.jpeg'></img>,2,NA,exp,NA,0,<img src='img/tf1_39_T1_ss2_md.jpeg'></img>,0,TRUE,NA,sub116
NA,html-keyboard-response,91,502470,0.0-10.0-0.39,"""event"",""trial"",""time""
""fullscreenenter"",""0"",""1369""
","
","
","""event"",""trial"",""time""
""fullscreenenter"",""0"",""1369""
","
",null,"<div style=""font-size:60px;"">+</div>",NA,null,fixation,2020-07-07T21:09:08Z,NA,NA,NA,NA,NA,sub116
NA,mars-trial,92,520799,0.0-10.0-1.39,"""event"",""trial"",""time""
""fullscreenenter"",""0"",""1369""
","
","
","""event"",""trial"",""time""
""fullscreenenter"",""0"",""1369""
","
",NA,NA,NA,NA,exp,NA,NA,<img src='img/tf1_40_T1_ss3_md.jpeg'></img>,0,FALSE,NA,sub116
NA,html-keyboard-response,93,521302,0.0-10.0-0.40,"""event"",""trial"",""time""
""fullscreenenter"",""0"",""1369""
","
","
","""event"",""trial"",""time""
""fullscreenenter"",""0"",""1369""
","
",null,"<div style=""font-size:60px;"">+</div>",NA,null,fixation,2020-07-07T21:09:27Z,NA,NA,NA,NA,NA,sub116
NA,audio-button-response,94,524800,0.0-11.0,"""event"",""trial"",""time""
""fullscreenenter"",""0"",""1369""
","
","
","""event"",""trial"",""time""
""fullscreenenter"",""0"",""1369""
","
",3394.7299999999814,audio/mars_instructions_slide5.wav,0,NA,NA,NA,NA,NA,NA,NA,NA,sub116
