success,trial_type,trial_index,time_elapsed,internal_node_id,interactions,blur_events,focus_events,fullscreenenter_events,fullscreenexit_events,rt,stimulus,button_pressed,key_press,part,timestamp,unshuffled_button,correct_response,correct_button,correct,value,subject_id
TRUE,fullscreen,0,5821,0.0-0.0,"""event"",""trial"",""time""
""fullscreenenter"",""0"",""4868""
","
","
","""event"",""trial"",""time""
""fullscreenenter"",""0"",""4868""
","
",NA,NA,NA,NA,NA,NA,NA,NA,NA,NA,NA,sub91
NA,pavlovia,1,5824,0.0-1.0,"""event"",""trial"",""time""
""fullscreenenter"",""0"",""4868""
","
","
","""event"",""trial"",""time""
""fullscreenenter"",""0"",""4868""
","
",NA,NA,NA,NA,NA,NA,NA,NA,NA,NA,NA,sub91
NA,html-button-response,2,8062,0.0-2.0,"""event"",""trial"",""time""
""fullscreenenter"",""0"",""4868""
","
","
","""event"",""trial"",""time""
""fullscreenenter"",""0"",""4868""
","
",2237.6099999964936,<p>Welcome! Press START to begin.</p><br>,0,NA,NA,NA,NA,NA,NA,NA,NA,sub91
NA,audio-button-response,3,19037,0.0-3.0,"""event"",""trial"",""time""
""fullscreenenter"",""0"",""4868""
","
","
","""event"",""trial"",""time""
""fullscreenenter"",""0"",""4868""
","
",10973.01499999594,audio/mars_instructions_slide2.wav,0,NA,NA,NA,NA,NA,NA,NA,NA,sub91
NA,audio-button-response,4,21492,0.0-4.0,"""event"",""trial"",""time""
""fullscreenenter"",""0"",""4868""
","
","
","""event"",""trial"",""time""
""fullscreenenter"",""0"",""4868""
","
",2453.314999991562,audio/mars_instructions_slide3.wav,0,NA,NA,NA,NA,NA,NA,NA,NA,sub91
NA,html-keyboard-response,5,21995,0.0-5.0-0.0,"""event"",""trial"",""time""
""fullscreenenter"",""0"",""4868""
","
","
","""event"",""trial"",""time""
""fullscreenenter"",""0"",""4868""
","
",null,"<div style=""font-size:60px;"">+</div>",NA,null,fixation,2020-06-23T19:56:06Z,NA,NA,NA,NA,NA,sub91
NA,mars-trial,6,29245,0.0-5.0-1.0,"""event"",""trial"",""time""
""fullscreenenter"",""0"",""4868""
","
","
","""event"",""trial"",""time""
""fullscreenenter"",""0"",""4868""
","
",5144.410000008065,<img style='border: 4px solid darkgrey;' src='practice/pt1_M1.png'></img>,2,NA,practice,NA,3,<img src='practice/pt1_T1.png'></img>,0,FALSE,NA,sub91
NA,html-keyboard-response,7,29748,0.0-5.1-0.1,"""event"",""trial"",""time""
""fullscreenenter"",""0"",""4868""
","
","
","""event"",""trial"",""time""
""fullscreenenter"",""0"",""4868""
","
",null,"<div style=""font-size:60px;"">+</div>",NA,null,fixation,2020-06-23T19:56:14Z,NA,NA,NA,NA,NA,sub91
NA,mars-trial,8,36639,0.0-5.1-1.1,"""event"",""trial"",""time""
""fullscreenenter"",""0"",""4868""
","
","
","""event"",""trial"",""time""
""fullscreenenter"",""0"",""4868""
","
",4785.900000002584,<img style='border: 4px solid darkgrey;' src='practice/pt1_M1.png'></img>,3,NA,practice,NA,2,<img src='practice/pt1_T1.png'></img>,0,FALSE,NA,sub91
NA,html-keyboard-response,9,37142,0.0-5.2-0.2,"""event"",""trial"",""time""
""fullscreenenter"",""0"",""4868""
","
","
","""event"",""trial"",""time""
""fullscreenenter"",""0"",""4868""
","
",null,"<div style=""font-size:60px;"">+</div>",NA,null,fixation,2020-06-23T19:56:21Z,NA,NA,NA,NA,NA,sub91
NA,mars-trial,10,46852,0.0-5.2-1.2,"""event"",""trial"",""time""
""fullscreenenter"",""0"",""4868""
","
","
","""event"",""trial"",""time""
""fullscreenenter"",""0"",""4868""
","
",7605.360000001383,<img style='border: 4px solid darkgrey;' src='practice/pt1_M1.png'></img>,1,NA,practice,NA,2,<img src='practice/pt1_T1.png'></img>,0,FALSE,NA,sub91
NA,html-keyboard-response,11,47352,0.0-5.3-0.3,"""event"",""trial"",""time""
""fullscreenenter"",""0"",""4868""
","
","
","""event"",""trial"",""time""
""fullscreenenter"",""0"",""4868""
","
",null,"<div style=""font-size:60px;"">+</div>",NA,null,fixation,2020-06-23T19:56:31Z,NA,NA,NA,NA,NA,sub91
NA,mars-trial,12,58754,0.0-5.3-1.3,"""event"",""trial"",""time""
""fullscreenenter"",""0"",""4868""
","
","
","""event"",""trial"",""time""
""fullscreenenter"",""0"",""4868""
","
",9297.269999995478,<img style='border: 4px solid darkgrey;' src='practice/pt1_M1.png'></img>,0,NA,practice,NA,0,<img src='practice/pt1_T1.png'></img>,0,TRUE,NA,sub91
NA,html-keyboard-response,13,59256,0.0-6.0-0.0,"""event"",""trial"",""time""
""fullscreenenter"",""0"",""4868""
","
","
","""event"",""trial"",""time""
""fullscreenenter"",""0"",""4868""
","
",null,"<div style=""font-size:60px;"">+</div>",NA,null,fixation,2020-06-23T19:56:43Z,NA,NA,NA,NA,NA,sub91
NA,mars-trial,14,65274,0.0-6.0-1.0,"""event"",""trial"",""time""
""fullscreenenter"",""0"",""4868""
","
","
","""event"",""trial"",""time""
""fullscreenenter"",""0"",""4868""
","
",3914.2250000004424,<img style='border: 4px solid darkgrey;' src='practice/pt2_M1.png'></img>,2,NA,practice,NA,0,<img src='practice/pt2_T1.png'></img>,0,TRUE,NA,sub91
NA,html-keyboard-response,15,65777,0.0-7.0-0.0,"""event"",""trial"",""time""
""fullscreenenter"",""0"",""4868""
","
","
","""event"",""trial"",""time""
""fullscreenenter"",""0"",""4868""
","
",null,"<div style=""font-size:60px;"">+</div>",NA,null,fixation,2020-06-23T19:56:50Z,NA,NA,NA,NA,NA,sub91
NA,mars-trial,16,70546,0.0-7.0-1.0,"""event"",""trial"",""time""
""fullscreenenter"",""0"",""4868""
","
","
","""event"",""trial"",""time""
""fullscreenenter"",""0"",""4868""
","
",2664.14999999688,<img style='border: 4px solid darkgrey;' src='practice/pt3_M1.png'></img>,0,NA,practice,NA,0,<img src='practice/pt3_T1.png'></img>,0,TRUE,NA,sub91
NA,audio-button-response,17,72127,0.0-8.0,"""event"",""trial"",""time""
""fullscreenenter"",""0"",""4868""
","
","
","""event"",""trial"",""time""
""fullscreenenter"",""0"",""4868""
","
",1579.089999999269,audio/mars_instructions_slide4.wav,0,NA,NA,NA,NA,NA,NA,NA,NA,sub91
NA,call-function,18,72128,0.0-9.0,"""event"",""trial"",""time""
""fullscreenenter"",""0"",""4868""
","
","
","""event"",""trial"",""time""
""fullscreenenter"",""0"",""4868""
","
",NA,NA,NA,NA,NA,NA,NA,NA,NA,NA,NA,sub91
NA,html-keyboard-response,19,72630,0.0-10.0-0.0,"""event"",""trial"",""time""
""fullscreenenter"",""0"",""4868""
","
","
","""event"",""trial"",""time""
""fullscreenenter"",""0"",""4868""
","
",null,"<div style=""font-size:60px;"">+</div>",NA,null,fixation,2020-06-23T19:56:57Z,NA,NA,NA,NA,NA,sub91
NA,mars-trial,20,75600,0.0-10.0-1.0,"""event"",""trial"",""time""
""fullscreenenter"",""0"",""4868""
","
","
","""event"",""trial"",""time""
""fullscreenenter"",""0"",""4868""
","
",2363.420000008773,<img style='border: 4px solid darkgrey;' src='img/tf1_1_M_ss3.jpeg'></img>,0,NA,exp,NA,0,<img src='img/tf1_1_T1_ss3_md.jpeg'></img>,0,TRUE,NA,sub91
NA,html-keyboard-response,21,76102,0.0-10.0-0.1,"""event"",""trial"",""time""
""fullscreenenter"",""0"",""4868""
","
","
","""event"",""trial"",""time""
""fullscreenenter"",""0"",""4868""
","
",null,"<div style=""font-size:60px;"">+</div>",NA,null,fixation,2020-06-23T19:57:00Z,NA,NA,NA,NA,NA,sub91
NA,mars-trial,22,81439,0.0-10.0-1.1,"""event"",""trial"",""time""
""fullscreenenter"",""0"",""4868""
","
","
","""event"",""trial"",""time""
""fullscreenenter"",""0"",""4868""
","
",4732.4550000048475,<img style='border: 4px solid darkgrey;' src='img/tf1_2_M_ss1.jpeg'></img>,2,NA,exp,NA,0,<img src='img/tf1_2_T1_ss1_md.jpeg'></img>,0,TRUE,NA,sub91
NA,html-keyboard-response,23,81941,0.0-10.0-0.2,"""event"",""trial"",""time""
""fullscreenenter"",""0"",""4868""
","
","
","""event"",""trial"",""time""
""fullscreenenter"",""0"",""4868""
","
",null,"<div style=""font-size:60px;"">+</div>",NA,null,fixation,2020-06-23T19:57:06Z,NA,NA,NA,NA,NA,sub91
NA,mars-trial,24,84328,0.0-10.0-1.2,"""event"",""trial"",""time""
""fullscreenenter"",""0"",""4868""
","
","
","""event"",""trial"",""time""
""fullscreenenter"",""0"",""4868""
","
",1781.5750000008848,<img style='border: 4px solid darkgrey;' src='img/tf1_3_M_ss2.jpeg'></img>,3,NA,exp,NA,0,<img src='img/tf1_3_T1_ss2_md.jpeg'></img>,0,TRUE,NA,sub91
NA,html-keyboard-response,25,84829,0.0-10.0-0.3,"""event"",""trial"",""time""
""fullscreenenter"",""0"",""4868""
","
","
","""event"",""trial"",""time""
""fullscreenenter"",""0"",""4868""
","
",null,"<div style=""font-size:60px;"">+</div>",NA,null,fixation,2020-06-23T19:57:09Z,NA,NA,NA,NA,NA,sub91
NA,mars-trial,26,88942,0.0-10.0-1.3,"""event"",""trial"",""time""
""fullscreenenter"",""0"",""4868""
","
","
","""event"",""trial"",""time""
""fullscreenenter"",""0"",""4868""
","
",3507.689999998547,<img style='border: 4px solid darkgrey;' src='img/tf1_4_M_ss3.jpeg'></img>,1,NA,exp,NA,0,<img src='img/tf1_4_T1_ss3_md.jpeg'></img>,0,TRUE,NA,sub91
NA,html-keyboard-response,27,89445,0.0-10.0-0.4,"""event"",""trial"",""time""
""fullscreenenter"",""0"",""4868""
","
","
","""event"",""trial"",""time""
""fullscreenenter"",""0"",""4868""
","
",null,"<div style=""font-size:60px;"">+</div>",NA,null,fixation,2020-06-23T19:57:13Z,NA,NA,NA,NA,NA,sub91
NA,mars-trial,28,92099,0.0-10.0-1.4,"""event"",""trial"",""time""
""fullscreenenter"",""0"",""4868""
","
","
","""event"",""trial"",""time""
""fullscreenenter"",""0"",""4868""
","
",2048.9700000034645,<img style='border: 4px solid darkgrey;' src='img/tf1_5_M_ss1.jpeg'></img>,0,NA,exp,NA,0,<img src='img/tf1_5_T1_ss1_md.jpeg'></img>,0,TRUE,NA,sub91
NA,html-keyboard-response,29,92600,0.0-10.0-0.5,"""event"",""trial"",""time""
""fullscreenenter"",""0"",""4868""
","
","
","""event"",""trial"",""time""
""fullscreenenter"",""0"",""4868""
","
",null,"<div style=""font-size:60px;"">+</div>",NA,null,fixation,2020-06-23T19:57:17Z,NA,NA,NA,NA,NA,sub91
NA,mars-trial,30,106098,0.0-10.0-1.5,"""event"",""trial"",""time""
""fullscreenenter"",""0"",""4868""
","
","
","""event"",""trial"",""time""
""fullscreenenter"",""0"",""4868""
","
",12892.43500000157,<img style='border: 4px solid darkgrey;' src='img/tf1_6_M_ss2.jpeg'></img>,3,NA,exp,NA,0,<img src='img/tf1_6_T1_ss2_md.jpeg'></img>,0,TRUE,NA,sub91
NA,html-keyboard-response,31,106600,0.0-10.0-0.6,"""event"",""trial"",""time""
""fullscreenenter"",""0"",""4868""
","
","
","""event"",""trial"",""time""
""fullscreenenter"",""0"",""4868""
","
",null,"<div style=""font-size:60px;"">+</div>",NA,null,fixation,2020-06-23T19:57:31Z,NA,NA,NA,NA,NA,sub91
NA,mars-trial,32,111813,0.0-10.0-1.6,"""event"",""trial"",""time""
""fullscreenenter"",""0"",""4868""
","
","
","""event"",""trial"",""time""
""fullscreenenter"",""0"",""4868""
","
",4609.159999992698,<img style='border: 4px solid darkgrey;' src='img/tf1_7_M_ss3.jpeg'></img>,0,NA,exp,NA,0,<img src='img/tf1_7_T1_ss3_md.jpeg'></img>,0,TRUE,NA,sub91
NA,html-keyboard-response,33,112316,0.0-10.0-0.7,"""event"",""trial"",""time""
""fullscreenenter"",""0"",""4868""
","
","
","""event"",""trial"",""time""
""fullscreenenter"",""0"",""4868""
","
",null,"<div style=""font-size:60px;"">+</div>",NA,null,fixation,2020-06-23T19:57:36Z,NA,NA,NA,NA,NA,sub91
NA,mars-trial,34,118399,0.0-10.0-1.7,"""event"",""trial"",""time""
""fullscreenenter"",""0"",""4868""
","
","
","""event"",""trial"",""time""
""fullscreenenter"",""0"",""4868""
","
",5478.8100000005215,<img style='border: 4px solid darkgrey;' src='img/tf1_8_M_ss1.jpeg'></img>,1,NA,exp,NA,0,<img src='img/tf1_8_T1_ss1_md.jpeg'></img>,0,TRUE,NA,sub91
NA,html-keyboard-response,35,118902,0.0-10.0-0.8,"""event"",""trial"",""time""
""fullscreenenter"",""0"",""4868""
","
","
","""event"",""trial"",""time""
""fullscreenenter"",""0"",""4868""
","
",null,"<div style=""font-size:60px;"">+</div>",NA,null,fixation,2020-06-23T19:57:43Z,NA,NA,NA,NA,NA,sub91
NA,mars-trial,36,125901,0.0-10.0-1.8,"""event"",""trial"",""time""
""fullscreenenter"",""0"",""4868""
","
","
","""event"",""trial"",""time""
""fullscreenenter"",""0"",""4868""
","
",6392.915000003995,<img style='border: 4px solid darkgrey;' src='img/tf1_9_M_ss2.jpeg'></img>,1,NA,exp,NA,0,<img src='img/tf1_9_T1_ss2_md.jpeg'></img>,0,TRUE,NA,sub91
NA,html-keyboard-response,37,126403,0.0-10.0-0.9,"""event"",""trial"",""time""
""fullscreenenter"",""0"",""4868""
","
","
","""event"",""trial"",""time""
""fullscreenenter"",""0"",""4868""
","
",null,"<div style=""font-size:60px;"">+</div>",NA,null,fixation,2020-06-23T19:57:50Z,NA,NA,NA,NA,NA,sub91
NA,mars-trial,38,142102,0.0-10.0-1.9,"""event"",""trial"",""time""
""fullscreenenter"",""0"",""4868""
","
","
","""event"",""trial"",""time""
""fullscreenenter"",""0"",""4868""
","
",15095.239999995101,<img style='border: 4px solid darkgrey;' src='img/tf1_10_M_ss3.jpeg'></img>,3,NA,exp,NA,1,<img src='img/tf1_10_T1_ss3_md.jpeg'></img>,0,FALSE,NA,sub91
NA,html-keyboard-response,39,142604,0.0-10.0-0.10,"""event"",""trial"",""time""
""fullscreenenter"",""0"",""4868""
","
","
","""event"",""trial"",""time""
""fullscreenenter"",""0"",""4868""
","
",null,"<div style=""font-size:60px;"">+</div>",NA,null,fixation,2020-06-23T19:58:07Z,NA,NA,NA,NA,NA,sub91
NA,mars-trial,40,156497,0.0-10.0-1.10,"""event"",""trial"",""time""
""fullscreenenter"",""0"",""4868""
","
","
","""event"",""trial"",""time""
""fullscreenenter"",""0"",""4868""
","
",13288.279999993392,<img style='border: 4px solid darkgrey;' src='img/tf1_11_M_ss1.jpeg'></img>,3,NA,exp,NA,2,<img src='img/tf1_11_T1_ss1_md.jpeg'></img>,0,FALSE,NA,sub91
NA,html-keyboard-response,41,157000,0.0-10.0-0.11,"""event"",""trial"",""time""
""fullscreenenter"",""0"",""4868""
","
","
","""event"",""trial"",""time""
""fullscreenenter"",""0"",""4868""
","
",null,"<div style=""font-size:60px;"">+</div>",NA,null,fixation,2020-06-23T19:58:21Z,NA,NA,NA,NA,NA,sub91
NA,mars-trial,42,166611,0.0-10.0-1.11,"""event"",""trial"",""time""
""fullscreenenter"",""0"",""4868""
","
","
","""event"",""trial"",""time""
""fullscreenenter"",""0"",""4868""
","
",9005.700000008801,<img style='border: 4px solid darkgrey;' src='img/tf1_12_M_ss2.jpeg'></img>,1,NA,exp,NA,1,<img src='img/tf1_12_T1_ss2_md.jpeg'></img>,0,FALSE,NA,sub91
NA,html-keyboard-response,43,167112,0.0-10.0-0.12,"""event"",""trial"",""time""
""fullscreenenter"",""0"",""4868""
","
","
","""event"",""trial"",""time""
""fullscreenenter"",""0"",""4868""
","
",null,"<div style=""font-size:60px;"">+</div>",NA,null,fixation,2020-06-23T19:58:31Z,NA,NA,NA,NA,NA,sub91
NA,mars-trial,44,180139,0.0-10.0-1.12,"""event"",""trial"",""time""
""fullscreenenter"",""0"",""4868""
","
","
","""event"",""trial"",""time""
""fullscreenenter"",""0"",""4868""
","
",12421.675000005052,<img style='border: 4px solid darkgrey;' src='img/tf1_13_M_ss3.jpeg'></img>,3,NA,exp,NA,2,<img src='img/tf1_13_T1_ss3_md.jpeg'></img>,0,FALSE,NA,sub91
NA,html-keyboard-response,45,180640,0.0-10.0-0.13,"""event"",""trial"",""time""
""fullscreenenter"",""0"",""4868""
","
","
","""event"",""trial"",""time""
""fullscreenenter"",""0"",""4868""
","
",null,"<div style=""font-size:60px;"">+</div>",NA,null,fixation,2020-06-23T19:58:45Z,NA,NA,NA,NA,NA,sub91
NA,mars-trial,46,192169,0.0-10.0-1.13,"""event"",""trial"",""time""
""fullscreenenter"",""0"",""4868""
","
","
","""event"",""trial"",""time""
""fullscreenenter"",""0"",""4868""
","
",10925.11499999091,<img style='border: 4px solid darkgrey;' src='img/tf1_14_M_ss1.jpeg'></img>,0,NA,exp,NA,0,<img src='img/tf1_14_T1_ss1_md.jpeg'></img>,0,TRUE,NA,sub91
NA,html-keyboard-response,47,192671,0.0-10.0-0.14,"""event"",""trial"",""time""
""fullscreenenter"",""0"",""4868""
","
","
","""event"",""trial"",""time""
""fullscreenenter"",""0"",""4868""
","
",null,"<div style=""font-size:60px;"">+</div>",NA,null,fixation,2020-06-23T19:58:57Z,NA,NA,NA,NA,NA,sub91
NA,mars-trial,48,201764,0.0-10.0-1.14,"""event"",""trial"",""time""
""fullscreenenter"",""0"",""4868""
","
","
","""event"",""trial"",""time""
""fullscreenenter"",""0"",""4868""
","
",8486.739999993006,<img style='border: 4px solid darkgrey;' src='img/tf1_15_M_ss2.jpeg'></img>,3,NA,exp,NA,0,<img src='img/tf1_15_T1_ss2_md.jpeg'></img>,0,TRUE,NA,sub91
NA,html-keyboard-response,49,202266,0.0-10.0-0.15,"""event"",""trial"",""time""
""fullscreenenter"",""0"",""4868""
","
","
","""event"",""trial"",""time""
""fullscreenenter"",""0"",""4868""
","
",null,"<div style=""font-size:60px;"">+</div>",NA,null,fixation,2020-06-23T19:59:06Z,NA,NA,NA,NA,NA,sub91
NA,mars-trial,50,211103,0.0-10.0-1.15,"""event"",""trial"",""time""
""fullscreenenter"",""0"",""4868""
","
","
","""event"",""trial"",""time""
""fullscreenenter"",""0"",""4868""
","
",8231.700000003912,<img style='border: 4px solid darkgrey;' src='img/tf1_16_M_ss3.jpeg'></img>,0,NA,exp,NA,3,<img src='img/tf1_16_T1_ss3_md.jpeg'></img>,0,FALSE,NA,sub91
NA,html-keyboard-response,51,211604,0.0-10.0-0.16,"""event"",""trial"",""time""
""fullscreenenter"",""0"",""4868""
","
","
","""event"",""trial"",""time""
""fullscreenenter"",""0"",""4868""
","
",null,"<div style=""font-size:60px;"">+</div>",NA,null,fixation,2020-06-23T19:59:16Z,NA,NA,NA,NA,NA,sub91
NA,mars-trial,52,223840,0.0-10.0-1.16,"""event"",""trial"",""time""
""fullscreenenter"",""0"",""4868""
","
","
","""event"",""trial"",""time""
""fullscreenenter"",""0"",""4868""
","
",11630.82000000577,<img style='border: 4px solid darkgrey;' src='img/tf1_17_M_ss1.jpeg'></img>,1,NA,exp,NA,2,<img src='img/tf1_17_T1_ss1_md.jpeg'></img>,0,FALSE,NA,sub91
NA,html-keyboard-response,53,224341,0.0-10.0-0.17,"""event"",""trial"",""time""
""fullscreenenter"",""0"",""4868""
","
","
","""event"",""trial"",""time""
""fullscreenenter"",""0"",""4868""
","
",null,"<div style=""font-size:60px;"">+</div>",NA,null,fixation,2020-06-23T19:59:28Z,NA,NA,NA,NA,NA,sub91
NA,mars-trial,54,234062,0.0-10.0-1.17,"""event"",""trial"",""time""
""fullscreenenter"",""0"",""4868""
","
","
","""event"",""trial"",""time""
""fullscreenenter"",""0"",""4868""
","
",9116.064999994705,<img style='border: 4px solid darkgrey;' src='img/tf1_18_M_ss2.jpeg'></img>,2,NA,exp,NA,3,<img src='img/tf1_18_T1_ss2_md.jpeg'></img>,0,FALSE,NA,sub91
NA,html-keyboard-response,55,234564,0.0-10.0-0.18,"""event"",""trial"",""time""
""fullscreenenter"",""0"",""4868""
","
","
","""event"",""trial"",""time""
""fullscreenenter"",""0"",""4868""
","
",null,"<div style=""font-size:60px;"">+</div>",NA,null,fixation,2020-06-23T19:59:39Z,NA,NA,NA,NA,NA,sub91
NA,mars-trial,56,243353,0.0-10.0-1.18,"""event"",""trial"",""time""
""fullscreenenter"",""0"",""4868""
","
","
","""event"",""trial"",""time""
""fullscreenenter"",""0"",""4868""
","
",8183.974999992643,<img style='border: 4px solid darkgrey;' src='img/tf1_19_M_ss3.jpeg'></img>,1,NA,exp,NA,0,<img src='img/tf1_19_T1_ss3_md.jpeg'></img>,0,TRUE,NA,sub91
NA,html-keyboard-response,57,243855,0.0-10.0-0.19,"""event"",""trial"",""time""
""fullscreenenter"",""0"",""4868""
","
","
","""event"",""trial"",""time""
""fullscreenenter"",""0"",""4868""
","
",null,"<div style=""font-size:60px;"">+</div>",NA,null,fixation,2020-06-23T19:59:48Z,NA,NA,NA,NA,NA,sub91
NA,mars-trial,58,254511,0.0-10.0-1.19,"""event"",""trial"",""time""
""fullscreenenter"",""0"",""4868""
","
","
","""event"",""trial"",""time""
""fullscreenenter"",""0"",""4868""
","
",10051.59500001173,<img style='border: 4px solid darkgrey;' src='img/tf1_20_M_ss1.jpeg'></img>,0,NA,exp,NA,0,<img src='img/tf1_20_T1_ss1_md.jpeg'></img>,0,TRUE,NA,sub91
NA,html-keyboard-response,59,255012,0.0-10.0-0.20,"""event"",""trial"",""time""
""fullscreenenter"",""0"",""4868""
","
","
","""event"",""trial"",""time""
""fullscreenenter"",""0"",""4868""
","
",null,"<div style=""font-size:60px;"">+</div>",NA,null,fixation,2020-06-23T19:59:59Z,NA,NA,NA,NA,NA,sub91
NA,mars-trial,60,263355,0.0-10.0-1.20,"""event"",""trial"",""time""
""fullscreenenter"",""0"",""4868""
","
","
","""event"",""trial"",""time""
""fullscreenenter"",""0"",""4868""
","
",7737.039999992703,<img style='border: 4px solid darkgrey;' src='img/tf1_21_M_ss2.jpeg'></img>,3,NA,exp,NA,2,<img src='img/tf1_21_T1_ss2_md.jpeg'></img>,0,FALSE,NA,sub91
NA,html-keyboard-response,61,263857,0.0-10.0-0.21,"""event"",""trial"",""time""
""fullscreenenter"",""0"",""4868""
","
","
","""event"",""trial"",""time""
""fullscreenenter"",""0"",""4868""
","
",null,"<div style=""font-size:60px;"">+</div>",NA,null,fixation,2020-06-23T20:00:08Z,NA,NA,NA,NA,NA,sub91
NA,mars-trial,62,269296,0.0-10.0-1.21,"""event"",""trial"",""time""
""fullscreenenter"",""0"",""4868""
","
","
","""event"",""trial"",""time""
""fullscreenenter"",""0"",""4868""
","
",4831.510000003618,<img style='border: 4px solid darkgrey;' src='img/tf1_22_M_ss3.jpeg'></img>,3,NA,exp,NA,2,<img src='img/tf1_22_T1_ss3_md.jpeg'></img>,0,FALSE,NA,sub91
NA,html-keyboard-response,63,269798,0.0-10.0-0.22,"""event"",""trial"",""time""
""fullscreenenter"",""0"",""4868""
","
","
","""event"",""trial"",""time""
""fullscreenenter"",""0"",""4868""
","
",null,"<div style=""font-size:60px;"">+</div>",NA,null,fixation,2020-06-23T20:00:14Z,NA,NA,NA,NA,NA,sub91
NA,mars-trial,64,275827,0.0-10.0-1.22,"""event"",""trial"",""time""
""fullscreenenter"",""0"",""4868""
","
","
","""event"",""trial"",""time""
""fullscreenenter"",""0"",""4868""
","
",5423.689999995986,<img style='border: 4px solid darkgrey;' src='img/tf1_23_M_ss1.jpeg'></img>,2,NA,exp,NA,0,<img src='img/tf1_23_T1_ss1_md.jpeg'></img>,0,TRUE,NA,sub91
NA,html-keyboard-response,65,276330,0.0-10.0-0.23,"""event"",""trial"",""time""
""fullscreenenter"",""0"",""4868""
","
","
","""event"",""trial"",""time""
""fullscreenenter"",""0"",""4868""
","
",null,"<div style=""font-size:60px;"">+</div>",NA,null,fixation,2020-06-23T20:00:20Z,NA,NA,NA,NA,NA,sub91
NA,mars-trial,66,282991,0.0-10.0-1.23,"""event"",""trial"",""time""
""fullscreenenter"",""0"",""4868""
","
","
","""event"",""trial"",""time""
""fullscreenenter"",""0"",""4868""
","
",6056.590000007418,<img style='border: 4px solid darkgrey;' src='img/tf1_24_M_ss2.jpeg'></img>,0,NA,exp,NA,2,<img src='img/tf1_24_T1_ss2_md.jpeg'></img>,0,FALSE,NA,sub91
NA,html-keyboard-response,67,283493,0.0-10.0-0.24,"""event"",""trial"",""time""
""fullscreenenter"",""0"",""4868""
","
","
","""event"",""trial"",""time""
""fullscreenenter"",""0"",""4868""
","
",null,"<div style=""font-size:60px;"">+</div>",NA,null,fixation,2020-06-23T20:00:27Z,NA,NA,NA,NA,NA,sub91
NA,mars-trial,68,291414,0.0-10.0-1.24,"""event"",""trial"",""time""
""fullscreenenter"",""0"",""4868""
","
","
","""event"",""trial"",""time""
""fullscreenenter"",""0"",""4868""
","
",7316.260000006878,<img style='border: 4px solid darkgrey;' src='img/tf1_25_M_ss3.jpeg'></img>,3,NA,exp,NA,0,<img src='img/tf1_25_T1_ss3_md.jpeg'></img>,0,TRUE,NA,sub91
NA,html-keyboard-response,69,291916,0.0-10.0-0.25,"""event"",""trial"",""time""
""fullscreenenter"",""0"",""4868""
","
","
","""event"",""trial"",""time""
""fullscreenenter"",""0"",""4868""
","
",null,"<div style=""font-size:60px;"">+</div>",NA,null,fixation,2020-06-23T20:00:36Z,NA,NA,NA,NA,NA,sub91
NA,mars-trial,70,295523,0.0-10.0-1.25,"""event"",""trial"",""time""
""fullscreenenter"",""0"",""4868""
","
","
","""event"",""trial"",""time""
""fullscreenenter"",""0"",""4868""
","
",3002.8049999964423,<img style='border: 4px solid darkgrey;' src='img/tf1_26_M_ss1.jpeg'></img>,2,NA,exp,NA,1,<img src='img/tf1_26_T1_ss1_md.jpeg'></img>,0,FALSE,NA,sub91
NA,html-keyboard-response,71,296024,0.0-10.0-0.26,"""event"",""trial"",""time""
""fullscreenenter"",""0"",""4868""
","
","
","""event"",""trial"",""time""
""fullscreenenter"",""0"",""4868""
","
",null,"<div style=""font-size:60px;"">+</div>",NA,null,fixation,2020-06-23T20:00:40Z,NA,NA,NA,NA,NA,sub91
NA,mars-trial,72,303316,0.0-10.0-1.26,"""event"",""trial"",""time""
""fullscreenenter"",""0"",""4868""
","
","
","""event"",""trial"",""time""
""fullscreenenter"",""0"",""4868""
","
",6687.330000000657,<img style='border: 4px solid darkgrey;' src='img/tf1_27_M_ss2.jpeg'></img>,1,NA,exp,NA,0,<img src='img/tf1_27_T1_ss2_md.jpeg'></img>,0,TRUE,NA,sub91
NA,html-keyboard-response,73,303818,0.0-10.0-0.27,"""event"",""trial"",""time""
""fullscreenenter"",""0"",""4868""
","
","
","""event"",""trial"",""time""
""fullscreenenter"",""0"",""4868""
","
",null,"<div style=""font-size:60px;"">+</div>",NA,null,fixation,2020-06-23T20:00:48Z,NA,NA,NA,NA,NA,sub91
NA,mars-trial,74,312529,0.0-10.0-1.27,"""event"",""trial"",""time""
""fullscreenenter"",""0"",""4868""
","
","
","""event"",""trial"",""time""
""fullscreenenter"",""0"",""4868""
","
",8107.384999995702,<img style='border: 4px solid darkgrey;' src='img/tf1_28_M_ss3.jpeg'></img>,3,NA,exp,NA,3,<img src='img/tf1_28_T1_ss3_md.jpeg'></img>,0,FALSE,NA,sub91
NA,html-keyboard-response,75,313031,0.0-10.0-0.28,"""event"",""trial"",""time""
""fullscreenenter"",""0"",""4868""
","
","
","""event"",""trial"",""time""
""fullscreenenter"",""0"",""4868""
","
",null,"<div style=""font-size:60px;"">+</div>",NA,null,fixation,2020-06-23T20:00:57Z,NA,NA,NA,NA,NA,sub91
NA,mars-trial,76,319024,0.0-10.0-1.28,"""event"",""trial"",""time""
""fullscreenenter"",""0"",""4868""
","
","
","""event"",""trial"",""time""
""fullscreenenter"",""0"",""4868""
","
",5386.9399999966845,<img style='border: 4px solid darkgrey;' src='img/tf1_29_M_ss1.jpeg'></img>,2,NA,exp,NA,2,<img src='img/tf1_29_T1_ss1_md.jpeg'></img>,0,FALSE,NA,sub91
NA,html-keyboard-response,77,319525,0.0-10.0-0.29,"""event"",""trial"",""time""
""fullscreenenter"",""0"",""4868""
","
","
","""event"",""trial"",""time""
""fullscreenenter"",""0"",""4868""
","
",null,"<div style=""font-size:60px;"">+</div>",NA,null,fixation,2020-06-23T20:01:03Z,NA,NA,NA,NA,NA,sub91
NA,mars-trial,78,326748,0.0-10.0-1.29,"""event"",""trial"",""time""
""fullscreenenter"",""0"",""4868""
","
","
","""event"",""trial"",""time""
""fullscreenenter"",""0"",""4868""
","
",6617.534999997588,<img style='border: 4px solid darkgrey;' src='img/tf1_30_M_ss2.jpeg'></img>,2,NA,exp,NA,2,<img src='img/tf1_30_T1_ss2_md.jpeg'></img>,0,FALSE,NA,sub91
NA,html-keyboard-response,79,327251,0.0-10.0-0.30,"""event"",""trial"",""time""
""fullscreenenter"",""0"",""4868""
","
","
","""event"",""trial"",""time""
""fullscreenenter"",""0"",""4868""
","
",null,"<div style=""font-size:60px;"">+</div>",NA,null,fixation,2020-06-23T20:01:11Z,NA,NA,NA,NA,NA,sub91
NA,mars-trial,80,337438,0.0-10.0-1.30,"""event"",""trial"",""time""
""fullscreenenter"",""0"",""4868""
","
","
","""event"",""trial"",""time""
""fullscreenenter"",""0"",""4868""
","
",9580.30499999586,<img style='border: 4px solid darkgrey;' src='img/tf1_31_M_ss3.jpeg'></img>,2,NA,exp,NA,0,<img src='img/tf1_31_T1_ss3_md.jpeg'></img>,0,TRUE,NA,sub91
NA,html-keyboard-response,81,337940,0.0-10.0-0.31,"""event"",""trial"",""time""
""fullscreenenter"",""0"",""4868""
","
","
","""event"",""trial"",""time""
""fullscreenenter"",""0"",""4868""
","
",null,"<div style=""font-size:60px;"">+</div>",NA,null,fixation,2020-06-23T20:01:22Z,NA,NA,NA,NA,NA,sub91
NA,mars-trial,82,346629,0.0-10.0-1.31,"""event"",""trial"",""time""
""fullscreenenter"",""0"",""4868""
","
","
","""event"",""trial"",""time""
""fullscreenenter"",""0"",""4868""
","
",8083.370000007562,<img style='border: 4px solid darkgrey;' src='img/tf1_32_M_ss1.jpeg'></img>,1,NA,exp,NA,0,<img src='img/tf1_32_T1_ss1_md.jpeg'></img>,0,TRUE,NA,sub91
NA,html-keyboard-response,83,347131,0.0-10.0-0.32,"""event"",""trial"",""time""
""fullscreenenter"",""0"",""4868""
","
","
","""event"",""trial"",""time""
""fullscreenenter"",""0"",""4868""
","
",null,"<div style=""font-size:60px;"">+</div>",NA,null,fixation,2020-06-23T20:01:31Z,NA,NA,NA,NA,NA,sub91
NA,mars-trial,84,354463,0.0-10.0-1.32,"""event"",""trial"",""time""
""fullscreenenter"",""0"",""4868""
","
","
","""event"",""trial"",""time""
""fullscreenenter"",""0"",""4868""
","
",6727.359999989858,<img style='border: 4px solid darkgrey;' src='img/tf1_33_M_ss2.jpeg'></img>,0,NA,exp,NA,0,<img src='img/tf1_33_T1_ss2_md.jpeg'></img>,0,TRUE,NA,sub91
NA,html-keyboard-response,85,354966,0.0-10.0-0.33,"""event"",""trial"",""time""
""fullscreenenter"",""0"",""4868""
","
","
","""event"",""trial"",""time""
""fullscreenenter"",""0"",""4868""
","
",null,"<div style=""font-size:60px;"">+</div>",NA,null,fixation,2020-06-23T20:01:39Z,NA,NA,NA,NA,NA,sub91
NA,mars-trial,86,361489,0.0-10.0-1.33,"""event"",""trial"",""time""
""fullscreenenter"",""0"",""4868""
","
","
","""event"",""trial"",""time""
""fullscreenenter"",""0"",""4868""
","
",5919.1049999935785,<img style='border: 4px solid darkgrey;' src='img/tf1_34_M_ss3.jpeg'></img>,3,NA,exp,NA,1,<img src='img/tf1_34_T1_ss3_md.jpeg'></img>,0,FALSE,NA,sub91
NA,html-keyboard-response,87,361991,0.0-10.0-0.34,"""event"",""trial"",""time""
""fullscreenenter"",""0"",""4868""
","
","
","""event"",""trial"",""time""
""fullscreenenter"",""0"",""4868""
","
",null,"<div style=""font-size:60px;"">+</div>",NA,null,fixation,2020-06-23T20:01:46Z,NA,NA,NA,NA,NA,sub91
NA,mars-trial,88,368078,0.0-10.0-1.34,"""event"",""trial"",""time""
""fullscreenenter"",""0"",""4868""
","
","
","""event"",""trial"",""time""
""fullscreenenter"",""0"",""4868""
","
",5482.009999992442,<img style='border: 4px solid darkgrey;' src='img/tf1_35_M_ss1.jpeg'></img>,0,NA,exp,NA,1,<img src='img/tf1_35_T1_ss1_md.jpeg'></img>,0,FALSE,NA,sub91
NA,html-keyboard-response,89,368579,0.0-10.0-0.35,"""event"",""trial"",""time""
""fullscreenenter"",""0"",""4868""
","
","
","""event"",""trial"",""time""
""fullscreenenter"",""0"",""4868""
","
",null,"<div style=""font-size:60px;"">+</div>",NA,null,fixation,2020-06-23T20:01:53Z,NA,NA,NA,NA,NA,sub91
NA,mars-trial,90,375451,0.0-10.0-1.35,"""event"",""trial"",""time""
""fullscreenenter"",""0"",""4868""
","
","
","""event"",""trial"",""time""
""fullscreenenter"",""0"",""4868""
","
",6268.559999996796,<img style='border: 4px solid darkgrey;' src='img/tf1_36_M_ss2.jpeg'></img>,2,NA,exp,NA,1,<img src='img/tf1_36_T1_ss2_md.jpeg'></img>,0,FALSE,NA,sub91
NA,html-keyboard-response,91,375953,0.0-10.0-0.36,"""event"",""trial"",""time""
""fullscreenenter"",""0"",""4868""
","
","
","""event"",""trial"",""time""
""fullscreenenter"",""0"",""4868""
","
",null,"<div style=""font-size:60px;"">+</div>",NA,null,fixation,2020-06-23T20:02:00Z,NA,NA,NA,NA,NA,sub91
NA,mars-trial,92,380790,0.0-10.0-1.36,"""event"",""trial"",""time""
""fullscreenenter"",""0"",""4868""
","
","
","""event"",""trial"",""time""
""fullscreenenter"",""0"",""4868""
","
",4231.849999996484,<img style='border: 4px solid darkgrey;' src='img/tf1_37_M_ss3.jpeg'></img>,2,NA,exp,NA,3,<img src='img/tf1_37_T1_ss3_md.jpeg'></img>,0,FALSE,NA,sub91
NA,html-keyboard-response,93,381292,0.0-10.0-0.37,"""event"",""trial"",""time""
""fullscreenenter"",""0"",""4868""
","
","
","""event"",""trial"",""time""
""fullscreenenter"",""0"",""4868""
","
",null,"<div style=""font-size:60px;"">+</div>",NA,null,fixation,2020-06-23T20:02:05Z,NA,NA,NA,NA,NA,sub91
NA,mars-trial,94,387317,0.0-10.0-1.37,"""event"",""trial"",""time""
""fullscreenenter"",""0"",""4868""
","
","
","""event"",""trial"",""time""
""fullscreenenter"",""0"",""4868""
","
",5419.404999993276,<img style='border: 4px solid darkgrey;' src='img/tf1_38_M_ss1.jpeg'></img>,1,NA,exp,NA,0,<img src='img/tf1_38_T1_ss1_md.jpeg'></img>,0,TRUE,NA,sub91
NA,html-keyboard-response,95,387820,0.0-10.0-0.38,"""event"",""trial"",""time""
""fullscreenenter"",""0"",""4868""
","
","
","""event"",""trial"",""time""
""fullscreenenter"",""0"",""4868""
","
",null,"<div style=""font-size:60px;"">+</div>",NA,null,fixation,2020-06-23T20:02:12Z,NA,NA,NA,NA,NA,sub91
NA,mars-trial,96,398419,0.0-10.0-1.38,"""event"",""trial"",""time""
""fullscreenenter"",""0"",""4868""
""blur"",""97"",""398685""
","""event"",""trial"",""time""
""blur"",""97"",""398685""
","
","""event"",""trial"",""time""
""fullscreenenter"",""0"",""4868""
","
",9993.289999998524,<img style='border: 4px solid darkgrey;' src='img/tf1_39_M_ss2.jpeg'></img>,2,NA,exp,NA,0,<img src='img/tf1_39_T1_ss2_md.jpeg'></img>,0,TRUE,NA,sub91
NA,html-keyboard-response,97,398920,0.0-10.0-0.39,"""event"",""trial"",""time""
""fullscreenenter"",""0"",""4868""
""blur"",""97"",""398685""
""focus"",""98"",""411553""
","""event"",""trial"",""time""
""blur"",""97"",""398685""
","""event"",""trial"",""time""
""focus"",""98"",""411553""
","""event"",""trial"",""time""
""fullscreenenter"",""0"",""4868""
","
",null,"<div style=""font-size:60px;"">+</div>",NA,null,fixation,2020-06-23T20:02:23Z,NA,NA,NA,NA,NA,sub91
NA,mars-trial,98,412162,0.0-10.0-1.39,"""event"",""trial"",""time""
""fullscreenenter"",""0"",""4868""
""blur"",""97"",""398685""
""focus"",""98"",""411553""
","""event"",""trial"",""time""
""blur"",""97"",""398685""
","""event"",""trial"",""time""
""focus"",""98"",""411553""
","""event"",""trial"",""time""
""fullscreenenter"",""0"",""4868""
","
",12635.03999999375,<img style='border: 4px solid darkgrey;' src='img/tf1_40_M_ss3.jpeg'></img>,2,NA,exp,NA,3,<img src='img/tf1_40_T1_ss3_md.jpeg'></img>,0,FALSE,NA,sub91
NA,html-keyboard-response,99,412663,0.0-10.0-0.40,"""event"",""trial"",""time""
""fullscreenenter"",""0"",""4868""
""blur"",""97"",""398685""
""focus"",""98"",""411553""
","""event"",""trial"",""time""
""blur"",""97"",""398685""
","""event"",""trial"",""time""
""focus"",""98"",""411553""
","""event"",""trial"",""time""
""fullscreenenter"",""0"",""4868""
","
",null,"<div style=""font-size:60px;"">+</div>",NA,null,fixation,2020-06-23T20:02:37Z,NA,NA,NA,NA,NA,sub91
NA,mars-trial,100,417113,0.0-10.0-1.40,"""event"",""trial"",""time""
""fullscreenenter"",""0"",""4868""
""blur"",""97"",""398685""
""focus"",""98"",""411553""
","""event"",""trial"",""time""
""blur"",""97"",""398685""
","""event"",""trial"",""time""
""focus"",""98"",""411553""
","""event"",""trial"",""time""
""fullscreenenter"",""0"",""4868""
","
",3847.330000004149,<img style='border: 4px solid darkgrey;' src='img/tf1_41_M_ss1.jpeg'></img>,1,NA,exp,NA,0,<img src='img/tf1_41_T1_ss1_md.jpeg'></img>,0,TRUE,NA,sub91
NA,html-keyboard-response,101,417616,0.0-10.0-0.41,"""event"",""trial"",""time""
""fullscreenenter"",""0"",""4868""
""blur"",""97"",""398685""
""focus"",""98"",""411553""
","""event"",""trial"",""time""
""blur"",""97"",""398685""
","""event"",""trial"",""time""
""focus"",""98"",""411553""
","""event"",""trial"",""time""
""fullscreenenter"",""0"",""4868""
","
",null,"<div style=""font-size:60px;"">+</div>",NA,null,fixation,2020-06-23T20:02:42Z,NA,NA,NA,NA,NA,sub91
NA,mars-trial,102,427649,0.0-10.0-1.41,"""event"",""trial"",""time""
""fullscreenenter"",""0"",""4868""
""blur"",""97"",""398685""
""focus"",""98"",""411553""
","""event"",""trial"",""time""
""blur"",""97"",""398685""
","""event"",""trial"",""time""
""focus"",""98"",""411553""
","""event"",""trial"",""time""
""fullscreenenter"",""0"",""4868""
","
",9428.749999991851,<img style='border: 4px solid darkgrey;' src='img/tf1_42_M_ss2.jpeg'></img>,1,NA,exp,NA,0,<img src='img/tf1_42_T1_ss2_md.jpeg'></img>,0,TRUE,NA,sub91
NA,html-keyboard-response,103,428152,0.0-10.0-0.42,"""event"",""trial"",""time""
""fullscreenenter"",""0"",""4868""
""blur"",""97"",""398685""
""focus"",""98"",""411553""
","""event"",""trial"",""time""
""blur"",""97"",""398685""
","""event"",""trial"",""time""
""focus"",""98"",""411553""
","""event"",""trial"",""time""
""fullscreenenter"",""0"",""4868""
","
",null,"<div style=""font-size:60px;"">+</div>",NA,null,fixation,2020-06-23T20:02:52Z,NA,NA,NA,NA,NA,sub91
NA,mars-trial,104,448063,0.0-10.0-1.42,"""event"",""trial"",""time""
""fullscreenenter"",""0"",""4868""
""blur"",""97"",""398685""
""focus"",""98"",""411553""
","""event"",""trial"",""time""
""blur"",""97"",""398685""
","""event"",""trial"",""time""
""focus"",""98"",""411553""
","""event"",""trial"",""time""
""fullscreenenter"",""0"",""4868""
","
",19305.554999999003,<img style='border: 4px solid darkgrey;' src='img/tf1_43_M_ss3.jpeg'></img>,0,NA,exp,NA,1,<img src='img/tf1_43_T1_ss3_md.jpeg'></img>,0,FALSE,NA,sub91
NA,html-keyboard-response,105,448565,0.0-10.0-0.43,"""event"",""trial"",""time""
""fullscreenenter"",""0"",""4868""
""blur"",""97"",""398685""
""focus"",""98"",""411553""
","""event"",""trial"",""time""
""blur"",""97"",""398685""
","""event"",""trial"",""time""
""focus"",""98"",""411553""
","""event"",""trial"",""time""
""fullscreenenter"",""0"",""4868""
","
",null,"<div style=""font-size:60px;"">+</div>",NA,null,fixation,2020-06-23T20:03:13Z,NA,NA,NA,NA,NA,sub91
NA,mars-trial,106,460096,0.0-10.0-1.43,"""event"",""trial"",""time""
""fullscreenenter"",""0"",""4868""
""blur"",""97"",""398685""
""focus"",""98"",""411553""
","""event"",""trial"",""time""
""blur"",""97"",""398685""
","""event"",""trial"",""time""
""focus"",""98"",""411553""
","""event"",""trial"",""time""
""fullscreenenter"",""0"",""4868""
","
",10926.480000009178,<img style='border: 4px solid darkgrey;' src='img/tf1_44_M_ss1.jpeg'></img>,0,NA,exp,NA,1,<img src='img/tf1_44_T1_ss1_md.jpeg'></img>,0,FALSE,NA,sub91
NA,html-keyboard-response,107,460598,0.0-10.0-0.44,"""event"",""trial"",""time""
""fullscreenenter"",""0"",""4868""
""blur"",""97"",""398685""
""focus"",""98"",""411553""
","""event"",""trial"",""time""
""blur"",""97"",""398685""
","""event"",""trial"",""time""
""focus"",""98"",""411553""
","""event"",""trial"",""time""
""fullscreenenter"",""0"",""4868""
","
",null,"<div style=""font-size:60px;"">+</div>",NA,null,fixation,2020-06-23T20:03:25Z,NA,NA,NA,NA,NA,sub91
NA,mars-trial,108,479449,0.0-10.0-1.44,"""event"",""trial"",""time""
""fullscreenenter"",""0"",""4868""
""blur"",""97"",""398685""
""focus"",""98"",""411553""
","""event"",""trial"",""time""
""blur"",""97"",""398685""
","""event"",""trial"",""time""
""focus"",""98"",""411553""
","""event"",""trial"",""time""
""fullscreenenter"",""0"",""4868""
","
",18247.340000001714,<img style='border: 4px solid darkgrey;' src='img/tf1_45_M_ss2.jpeg'></img>,1,NA,exp,NA,3,<img src='img/tf1_45_T1_ss2_md.jpeg'></img>,0,FALSE,NA,sub91
NA,html-keyboard-response,109,479956,0.0-10.0-0.45,"""event"",""trial"",""time""
""fullscreenenter"",""0"",""4868""
""blur"",""97"",""398685""
""focus"",""98"",""411553""
","""event"",""trial"",""time""
""blur"",""97"",""398685""
","""event"",""trial"",""time""
""focus"",""98"",""411553""
","""event"",""trial"",""time""
""fullscreenenter"",""0"",""4868""
","
",null,"<div style=""font-size:60px;"">+</div>",NA,null,fixation,2020-06-23T20:03:44Z,NA,NA,NA,NA,NA,sub91
NA,mars-trial,110,502666,0.0-10.0-1.45,"""event"",""trial"",""time""
""fullscreenenter"",""0"",""4868""
""blur"",""97"",""398685""
""focus"",""98"",""411553""
","""event"",""trial"",""time""
""blur"",""97"",""398685""
","""event"",""trial"",""time""
""focus"",""98"",""411553""
","""event"",""trial"",""time""
""fullscreenenter"",""0"",""4868""
","
",22105.040000009467,<img style='border: 4px solid darkgrey;' src='img/tf1_46_M_ss3.jpeg'></img>,0,NA,exp,NA,2,<img src='img/tf1_46_T1_ss3_md.jpeg'></img>,0,FALSE,NA,sub91
NA,html-keyboard-response,111,503168,0.0-10.0-0.46,"""event"",""trial"",""time""
""fullscreenenter"",""0"",""4868""
""blur"",""97"",""398685""
""focus"",""98"",""411553""
","""event"",""trial"",""time""
""blur"",""97"",""398685""
","""event"",""trial"",""time""
""focus"",""98"",""411553""
","""event"",""trial"",""time""
""fullscreenenter"",""0"",""4868""
","
",null,"<div style=""font-size:60px;"">+</div>",NA,null,fixation,2020-06-23T20:04:07Z,NA,NA,NA,NA,NA,sub91
NA,mars-trial,112,520301,0.0-10.0-1.46,"""event"",""trial"",""time""
""fullscreenenter"",""0"",""4868""
""blur"",""97"",""398685""
""focus"",""98"",""411553""
","""event"",""trial"",""time""
""blur"",""97"",""398685""
","""event"",""trial"",""time""
""focus"",""98"",""411553""
","""event"",""trial"",""time""
""fullscreenenter"",""0"",""4868""
","
",16527.784999998403,<img style='border: 4px solid darkgrey;' src='img/tf1_47_M_ss1.jpeg'></img>,3,NA,exp,NA,3,<img src='img/tf1_47_T1_ss1_md.jpeg'></img>,0,FALSE,NA,sub91
NA,html-keyboard-response,113,520802,0.0-10.0-0.47,"""event"",""trial"",""time""
""fullscreenenter"",""0"",""4868""
""blur"",""97"",""398685""
""focus"",""98"",""411553""
","""event"",""trial"",""time""
""blur"",""97"",""398685""
","""event"",""trial"",""time""
""focus"",""98"",""411553""
","""event"",""trial"",""time""
""fullscreenenter"",""0"",""4868""
","
",null,"<div style=""font-size:60px;"">+</div>",NA,null,fixation,2020-06-23T20:04:25Z,NA,NA,NA,NA,NA,sub91
NA,mars-trial,114,530182,0.0-10.0-1.47,"""event"",""trial"",""time""
""fullscreenenter"",""0"",""4868""
""blur"",""97"",""398685""
""focus"",""98"",""411553""
","""event"",""trial"",""time""
""blur"",""97"",""398685""
","""event"",""trial"",""time""
""focus"",""98"",""411553""
","""event"",""trial"",""time""
""fullscreenenter"",""0"",""4868""
","
",8773.914999997942,<img style='border: 4px solid darkgrey;' src='img/tf1_48_M_ss2.jpeg'></img>,0,NA,exp,NA,2,<img src='img/tf1_48_T1_ss2_md.jpeg'></img>,0,FALSE,NA,sub91
NA,html-keyboard-response,115,530685,0.0-10.0-0.48,"""event"",""trial"",""time""
""fullscreenenter"",""0"",""4868""
""blur"",""97"",""398685""
""focus"",""98"",""411553""
","""event"",""trial"",""time""
""blur"",""97"",""398685""
","""event"",""trial"",""time""
""focus"",""98"",""411553""
","""event"",""trial"",""time""
""fullscreenenter"",""0"",""4868""
","
",null,"<div style=""font-size:60px;"">+</div>",NA,null,fixation,2020-06-23T20:04:35Z,NA,NA,NA,NA,NA,sub91
NA,mars-trial,116,543790,0.0-10.0-1.48,"""event"",""trial"",""time""
""fullscreenenter"",""0"",""4868""
""blur"",""97"",""398685""
""focus"",""98"",""411553""
","""event"",""trial"",""time""
""blur"",""97"",""398685""
","""event"",""trial"",""time""
""focus"",""98"",""411553""
","""event"",""trial"",""time""
""fullscreenenter"",""0"",""4868""
","
",12501.015000001644,<img style='border: 4px solid darkgrey;' src='img/tf1_49_M_ss3.jpeg'></img>,2,NA,exp,NA,0,<img src='img/tf1_49_T1_ss3_md.jpeg'></img>,0,TRUE,NA,sub91
NA,html-keyboard-response,117,544292,0.0-10.0-0.49,"""event"",""trial"",""time""
""fullscreenenter"",""0"",""4868""
""blur"",""97"",""398685""
""focus"",""98"",""411553""
","""event"",""trial"",""time""
""blur"",""97"",""398685""
","""event"",""trial"",""time""
""focus"",""98"",""411553""
","""event"",""trial"",""time""
""fullscreenenter"",""0"",""4868""
","
",null,"<div style=""font-size:60px;"">+</div>",NA,null,fixation,2020-06-23T20:04:48Z,NA,NA,NA,NA,NA,sub91
NA,mars-trial,118,552130,0.0-10.0-1.49,"""event"",""trial"",""time""
""fullscreenenter"",""0"",""4868""
""blur"",""97"",""398685""
""focus"",""98"",""411553""
","""event"",""trial"",""time""
""blur"",""97"",""398685""
","""event"",""trial"",""time""
""focus"",""98"",""411553""
","""event"",""trial"",""time""
""fullscreenenter"",""0"",""4868""
","
",NA,NA,NA,NA,exp,NA,NA,<img src='img/tf1_50_T1_ss1_md.jpeg'></img>,0,FALSE,NA,sub91
NA,html-keyboard-response,119,552632,0.0-10.0-0.50,"""event"",""trial"",""time""
""fullscreenenter"",""0"",""4868""
""blur"",""97"",""398685""
""focus"",""98"",""411553""
","""event"",""trial"",""time""
""blur"",""97"",""398685""
","""event"",""trial"",""time""
""focus"",""98"",""411553""
","""event"",""trial"",""time""
""fullscreenenter"",""0"",""4868""
","
",null,"<div style=""font-size:60px;"">+</div>",NA,null,fixation,2020-06-23T20:04:57Z,NA,NA,NA,NA,NA,sub91
NA,audio-button-response,120,556257,0.0-11.0,"""event"",""trial"",""time""
""fullscreenenter"",""0"",""4868""
""blur"",""97"",""398685""
""focus"",""98"",""411553""
","""event"",""trial"",""time""
""blur"",""97"",""398685""
","""event"",""trial"",""time""
""focus"",""98"",""411553""
","""event"",""trial"",""time""
""fullscreenenter"",""0"",""4868""
","
",3522.484999994049,audio/mars_instructions_slide5.wav,0,NA,NA,NA,NA,NA,NA,NA,NA,sub91
