success,trial_type,trial_index,time_elapsed,internal_node_id,interactions,blur_events,focus_events,fullscreenenter_events,fullscreenexit_events,rt,stimulus,button_pressed,key_press,part,timestamp,unshuffled_button,correct_response,correct_button,correct,value,subject_id
TRUE,fullscreen,0,3813,0.0-0.0,"""event"",""trial"",""time""
""fullscreenenter"",""0"",""2829""
","
","
","""event"",""trial"",""time""
""fullscreenenter"",""0"",""2829""
","
",NA,NA,NA,NA,NA,NA,NA,NA,NA,NA,NA,sub23
NA,pavlovia,1,3824,0.0-1.0,"""event"",""trial"",""time""
""fullscreenenter"",""0"",""2829""
","
","
","""event"",""trial"",""time""
""fullscreenenter"",""0"",""2829""
","
",NA,NA,NA,NA,NA,NA,NA,NA,NA,NA,NA,sub23
NA,html-button-response,2,6642,0.0-2.0,"""event"",""trial"",""time""
""fullscreenenter"",""0"",""2829""
","
","
","""event"",""trial"",""time""
""fullscreenenter"",""0"",""2829""
","
",2814.9799999955576,<p>Welcome! Press START to begin.</p><br>,0,NA,NA,NA,NA,NA,NA,NA,NA,sub23
NA,audio-button-response,3,23563,0.0-3.0,"""event"",""trial"",""time""
""fullscreenenter"",""0"",""2829""
","
","
","""event"",""trial"",""time""
""fullscreenenter"",""0"",""2829""
","
",16919.309999997495,audio/mars_instructions_slide2.wav,0,NA,NA,NA,NA,NA,NA,NA,NA,sub23
NA,audio-button-response,4,40234,0.0-4.0,"""event"",""trial"",""time""
""fullscreenenter"",""0"",""2829""
","
","
","""event"",""trial"",""time""
""fullscreenenter"",""0"",""2829""
","
",16669.43499998888,audio/mars_instructions_slide3.wav,0,NA,NA,NA,NA,NA,NA,NA,NA,sub23
NA,html-keyboard-response,5,40737,0.0-5.0-0.0,"""event"",""trial"",""time""
""fullscreenenter"",""0"",""2829""
","
","
","""event"",""trial"",""time""
""fullscreenenter"",""0"",""2829""
","
",null,"<div style=""font-size:60px;"">+</div>",NA,null,fixation,2020-06-12T18:59:04Z,NA,NA,NA,NA,NA,sub23
NA,mars-trial,6,47676,0.0-5.0-1.0,"""event"",""trial"",""time""
""fullscreenenter"",""0"",""2829""
","
","
","""event"",""trial"",""time""
""fullscreenenter"",""0"",""2829""
","
",4827.644999983022,<img style='border: 4px solid darkgrey;' src='practice/pt1_M1.png'></img>,0,NA,practice,NA,0,<img src='practice/pt1_T1.png'></img>,0,TRUE,NA,sub23
NA,html-keyboard-response,7,48181,0.0-6.0-0.0,"""event"",""trial"",""time""
""fullscreenenter"",""0"",""2829""
","
","
","""event"",""trial"",""time""
""fullscreenenter"",""0"",""2829""
","
",null,"<div style=""font-size:60px;"">+</div>",NA,null,fixation,2020-06-12T18:59:11Z,NA,NA,NA,NA,NA,sub23
NA,mars-trial,8,52922,0.0-6.0-1.0,"""event"",""trial"",""time""
""fullscreenenter"",""0"",""2829""
","
","
","""event"",""trial"",""time""
""fullscreenenter"",""0"",""2829""
","
",2632.0549999945797,<img style='border: 4px solid darkgrey;' src='practice/pt2_M1.png'></img>,2,NA,practice,NA,0,<img src='practice/pt2_T1.png'></img>,0,TRUE,NA,sub23
NA,html-keyboard-response,9,53427,0.0-7.0-0.0,"""event"",""trial"",""time""
""fullscreenenter"",""0"",""2829""
","
","
","""event"",""trial"",""time""
""fullscreenenter"",""0"",""2829""
","
",null,"<div style=""font-size:60px;"">+</div>",NA,null,fixation,2020-06-12T18:59:16Z,NA,NA,NA,NA,NA,sub23
NA,mars-trial,10,59797,0.0-7.0-1.0,"""event"",""trial"",""time""
""fullscreenenter"",""0"",""2829""
","
","
","""event"",""trial"",""time""
""fullscreenenter"",""0"",""2829""
","
",4262.575000000652,<img style='border: 4px solid darkgrey;' src='practice/pt3_M1.png'></img>,3,NA,practice,NA,0,<img src='practice/pt3_T1.png'></img>,0,TRUE,NA,sub23
NA,audio-button-response,11,64735,0.0-8.0,"""event"",""trial"",""time""
""fullscreenenter"",""0"",""2829""
","
","
","""event"",""trial"",""time""
""fullscreenenter"",""0"",""2829""
","
",4936.285000003409,audio/mars_instructions_slide4.wav,0,NA,NA,NA,NA,NA,NA,NA,NA,sub23
NA,call-function,12,64736,0.0-9.0,"""event"",""trial"",""time""
""fullscreenenter"",""0"",""2829""
","
","
","""event"",""trial"",""time""
""fullscreenenter"",""0"",""2829""
","
",NA,NA,NA,NA,NA,NA,NA,NA,NA,NA,NA,sub23
NA,html-keyboard-response,13,65238,0.0-10.0-0.0,"""event"",""trial"",""time""
""fullscreenenter"",""0"",""2829""
","
","
","""event"",""trial"",""time""
""fullscreenenter"",""0"",""2829""
","
",null,"<div style=""font-size:60px;"">+</div>",NA,null,fixation,2020-06-12T18:59:28Z,NA,NA,NA,NA,NA,sub23
NA,mars-trial,14,67507,0.0-10.0-1.0,"""event"",""trial"",""time""
""fullscreenenter"",""0"",""2829""
","
","
","""event"",""trial"",""time""
""fullscreenenter"",""0"",""2829""
","
",1662.1049999957904,<img style='border: 4px solid darkgrey;' src='img/tf1_1_M_ss3.jpeg'></img>,2,NA,exp,NA,0,<img src='img/tf1_1_T1_ss3_md.jpeg'></img>,0,TRUE,NA,sub23
NA,html-keyboard-response,15,68009,0.0-10.0-0.1,"""event"",""trial"",""time""
""fullscreenenter"",""0"",""2829""
","
","
","""event"",""trial"",""time""
""fullscreenenter"",""0"",""2829""
","
",null,"<div style=""font-size:60px;"">+</div>",NA,null,fixation,2020-06-12T18:59:31Z,NA,NA,NA,NA,NA,sub23
NA,mars-trial,16,71394,0.0-10.0-1.1,"""event"",""trial"",""time""
""fullscreenenter"",""0"",""2829""
","
","
","""event"",""trial"",""time""
""fullscreenenter"",""0"",""2829""
","
",2779.510000022128,<img style='border: 4px solid darkgrey;' src='img/tf1_2_M_ss1.jpeg'></img>,0,NA,exp,NA,0,<img src='img/tf1_2_T1_ss1_md.jpeg'></img>,0,TRUE,NA,sub23
NA,html-keyboard-response,17,71897,0.0-10.0-0.2,"""event"",""trial"",""time""
""fullscreenenter"",""0"",""2829""
","
","
","""event"",""trial"",""time""
""fullscreenenter"",""0"",""2829""
","
",null,"<div style=""font-size:60px;"">+</div>",NA,null,fixation,2020-06-12T18:59:35Z,NA,NA,NA,NA,NA,sub23
NA,mars-trial,18,76226,0.0-10.0-1.2,"""event"",""trial"",""time""
""fullscreenenter"",""0"",""2829""
","
","
","""event"",""trial"",""time""
""fullscreenenter"",""0"",""2829""
","
",3721.7949999903794,<img style='border: 4px solid darkgrey;' src='img/tf1_3_M_ss2.jpeg'></img>,0,NA,exp,NA,0,<img src='img/tf1_3_T1_ss2_md.jpeg'></img>,0,TRUE,NA,sub23
NA,html-keyboard-response,19,76728,0.0-10.0-0.3,"""event"",""trial"",""time""
""fullscreenenter"",""0"",""2829""
","
","
","""event"",""trial"",""time""
""fullscreenenter"",""0"",""2829""
","
",null,"<div style=""font-size:60px;"">+</div>",NA,null,fixation,2020-06-12T18:59:40Z,NA,NA,NA,NA,NA,sub23
NA,mars-trial,20,80548,0.0-10.0-1.3,"""event"",""trial"",""time""
""fullscreenenter"",""0"",""2829""
","
","
","""event"",""trial"",""time""
""fullscreenenter"",""0"",""2829""
","
",3213.4899999946356,<img style='border: 4px solid darkgrey;' src='img/tf1_4_M_ss3.jpeg'></img>,1,NA,exp,NA,0,<img src='img/tf1_4_T1_ss3_md.jpeg'></img>,0,TRUE,NA,sub23
NA,html-keyboard-response,21,81051,0.0-10.0-0.4,"""event"",""trial"",""time""
""fullscreenenter"",""0"",""2829""
","
","
","""event"",""trial"",""time""
""fullscreenenter"",""0"",""2829""
","
",null,"<div style=""font-size:60px;"">+</div>",NA,null,fixation,2020-06-12T18:59:44Z,NA,NA,NA,NA,NA,sub23
NA,mars-trial,22,85395,0.0-10.0-1.4,"""event"",""trial"",""time""
""fullscreenenter"",""0"",""2829""
","
","
","""event"",""trial"",""time""
""fullscreenenter"",""0"",""2829""
","
",3735.935000004247,<img style='border: 4px solid darkgrey;' src='img/tf1_5_M_ss1.jpeg'></img>,1,NA,exp,NA,0,<img src='img/tf1_5_T1_ss1_md.jpeg'></img>,0,TRUE,NA,sub23
NA,html-keyboard-response,23,85898,0.0-10.0-0.5,"""event"",""trial"",""time""
""fullscreenenter"",""0"",""2829""
","
","
","""event"",""trial"",""time""
""fullscreenenter"",""0"",""2829""
","
",null,"<div style=""font-size:60px;"">+</div>",NA,null,fixation,2020-06-12T18:59:49Z,NA,NA,NA,NA,NA,sub23
NA,mars-trial,24,95291,0.0-10.0-1.5,"""event"",""trial"",""time""
""fullscreenenter"",""0"",""2829""
","
","
","""event"",""trial"",""time""
""fullscreenenter"",""0"",""2829""
","
",8783.565000019735,<img style='border: 4px solid darkgrey;' src='img/tf1_6_M_ss2.jpeg'></img>,2,NA,exp,NA,0,<img src='img/tf1_6_T1_ss2_md.jpeg'></img>,0,TRUE,NA,sub23
NA,html-keyboard-response,25,95794,0.0-10.0-0.6,"""event"",""trial"",""time""
""fullscreenenter"",""0"",""2829""
","
","
","""event"",""trial"",""time""
""fullscreenenter"",""0"",""2829""
","
",null,"<div style=""font-size:60px;"">+</div>",NA,null,fixation,2020-06-12T18:59:59Z,NA,NA,NA,NA,NA,sub23
NA,mars-trial,26,99764,0.0-10.0-1.6,"""event"",""trial"",""time""
""fullscreenenter"",""0"",""2829""
","
","
","""event"",""trial"",""time""
""fullscreenenter"",""0"",""2829""
","
",3360.4249999916647,<img style='border: 4px solid darkgrey;' src='img/tf1_7_M_ss3.jpeg'></img>,2,NA,exp,NA,0,<img src='img/tf1_7_T1_ss3_md.jpeg'></img>,0,TRUE,NA,sub23
NA,html-keyboard-response,27,100267,0.0-10.0-0.7,"""event"",""trial"",""time""
""fullscreenenter"",""0"",""2829""
","
","
","""event"",""trial"",""time""
""fullscreenenter"",""0"",""2829""
","
",null,"<div style=""font-size:60px;"">+</div>",NA,null,fixation,2020-06-12T19:00:03Z,NA,NA,NA,NA,NA,sub23
NA,mars-trial,28,105464,0.0-10.0-1.7,"""event"",""trial"",""time""
""fullscreenenter"",""0"",""2829""
","
","
","""event"",""trial"",""time""
""fullscreenenter"",""0"",""2829""
","
",4587.739999988116,<img style='border: 4px solid darkgrey;' src='img/tf1_8_M_ss1.jpeg'></img>,3,NA,exp,NA,0,<img src='img/tf1_8_T1_ss1_md.jpeg'></img>,0,TRUE,NA,sub23
NA,html-keyboard-response,29,105966,0.0-10.0-0.8,"""event"",""trial"",""time""
""fullscreenenter"",""0"",""2829""
","
","
","""event"",""trial"",""time""
""fullscreenenter"",""0"",""2829""
","
",null,"<div style=""font-size:60px;"">+</div>",NA,null,fixation,2020-06-12T19:00:09Z,NA,NA,NA,NA,NA,sub23
NA,mars-trial,30,111371,0.0-10.0-1.8,"""event"",""trial"",""time""
""fullscreenenter"",""0"",""2829""
","
","
","""event"",""trial"",""time""
""fullscreenenter"",""0"",""2829""
","
",4796.200000011595,<img style='border: 4px solid darkgrey;' src='img/tf1_9_M_ss2.jpeg'></img>,1,NA,exp,NA,0,<img src='img/tf1_9_T1_ss2_md.jpeg'></img>,0,TRUE,NA,sub23
NA,html-keyboard-response,31,111873,0.0-10.0-0.9,"""event"",""trial"",""time""
""fullscreenenter"",""0"",""2829""
","
","
","""event"",""trial"",""time""
""fullscreenenter"",""0"",""2829""
","
",null,"<div style=""font-size:60px;"">+</div>",NA,null,fixation,2020-06-12T19:00:15Z,NA,NA,NA,NA,NA,sub23
NA,mars-trial,32,122502,0.0-10.0-1.9,"""event"",""trial"",""time""
""fullscreenenter"",""0"",""2829""
","
","
","""event"",""trial"",""time""
""fullscreenenter"",""0"",""2829""
","
",10022.04999999958,<img style='border: 4px solid darkgrey;' src='img/tf1_10_M_ss3.jpeg'></img>,1,NA,exp,NA,0,<img src='img/tf1_10_T1_ss3_md.jpeg'></img>,0,TRUE,NA,sub23
NA,html-keyboard-response,33,123005,0.0-10.0-0.10,"""event"",""trial"",""time""
""fullscreenenter"",""0"",""2829""
","
","
","""event"",""trial"",""time""
""fullscreenenter"",""0"",""2829""
","
",null,"<div style=""font-size:60px;"">+</div>",NA,null,fixation,2020-06-12T19:00:26Z,NA,NA,NA,NA,NA,sub23
NA,mars-trial,34,134042,0.0-10.0-1.10,"""event"",""trial"",""time""
""fullscreenenter"",""0"",""2829""
","
","
","""event"",""trial"",""time""
""fullscreenenter"",""0"",""2829""
","
",10429.269999993267,<img style='border: 4px solid darkgrey;' src='img/tf1_11_M_ss1.jpeg'></img>,1,NA,exp,NA,2,<img src='img/tf1_11_T1_ss1_md.jpeg'></img>,0,FALSE,NA,sub23
NA,html-keyboard-response,35,134544,0.0-10.0-0.11,"""event"",""trial"",""time""
""fullscreenenter"",""0"",""2829""
","
","
","""event"",""trial"",""time""
""fullscreenenter"",""0"",""2829""
","
",null,"<div style=""font-size:60px;"">+</div>",NA,null,fixation,2020-06-12T19:00:37Z,NA,NA,NA,NA,NA,sub23
NA,mars-trial,36,145931,0.0-10.0-1.11,"""event"",""trial"",""time""
""fullscreenenter"",""0"",""2829""
","
","
","""event"",""trial"",""time""
""fullscreenenter"",""0"",""2829""
","
",10781.489999993937,<img style='border: 4px solid darkgrey;' src='img/tf1_12_M_ss2.jpeg'></img>,1,NA,exp,NA,0,<img src='img/tf1_12_T1_ss2_md.jpeg'></img>,0,TRUE,NA,sub23
NA,html-keyboard-response,37,146434,0.0-10.0-0.12,"""event"",""trial"",""time""
""fullscreenenter"",""0"",""2829""
","
","
","""event"",""trial"",""time""
""fullscreenenter"",""0"",""2829""
","
",null,"<div style=""font-size:60px;"">+</div>",NA,null,fixation,2020-06-12T19:00:49Z,NA,NA,NA,NA,NA,sub23
NA,mars-trial,38,154743,0.0-10.0-1.12,"""event"",""trial"",""time""
""fullscreenenter"",""0"",""2829""
","
","
","""event"",""trial"",""time""
""fullscreenenter"",""0"",""2829""
","
",7701.149999978952,<img style='border: 4px solid darkgrey;' src='img/tf1_13_M_ss3.jpeg'></img>,2,NA,exp,NA,1,<img src='img/tf1_13_T1_ss3_md.jpeg'></img>,0,FALSE,NA,sub23
NA,html-keyboard-response,39,155247,0.0-10.0-0.13,"""event"",""trial"",""time""
""fullscreenenter"",""0"",""2829""
","
","
","""event"",""trial"",""time""
""fullscreenenter"",""0"",""2829""
","
",null,"<div style=""font-size:60px;"">+</div>",NA,null,fixation,2020-06-12T19:00:58Z,NA,NA,NA,NA,NA,sub23
NA,mars-trial,40,170253,0.0-10.0-1.13,"""event"",""trial"",""time""
""fullscreenenter"",""0"",""2829""
","
","
","""event"",""trial"",""time""
""fullscreenenter"",""0"",""2829""
","
",14395.940000016708,<img style='border: 4px solid darkgrey;' src='img/tf1_14_M_ss1.jpeg'></img>,0,NA,exp,NA,3,<img src='img/tf1_14_T1_ss1_md.jpeg'></img>,0,FALSE,NA,sub23
NA,html-keyboard-response,41,170756,0.0-10.0-0.14,"""event"",""trial"",""time""
""fullscreenenter"",""0"",""2829""
","
","
","""event"",""trial"",""time""
""fullscreenenter"",""0"",""2829""
","
",null,"<div style=""font-size:60px;"">+</div>",NA,null,fixation,2020-06-12T19:01:14Z,NA,NA,NA,NA,NA,sub23
NA,mars-trial,42,181710,0.0-10.0-1.14,"""event"",""trial"",""time""
""fullscreenenter"",""0"",""2829""
","
","
","""event"",""trial"",""time""
""fullscreenenter"",""0"",""2829""
","
",10345.624999987194,<img style='border: 4px solid darkgrey;' src='img/tf1_15_M_ss2.jpeg'></img>,1,NA,exp,NA,0,<img src='img/tf1_15_T1_ss2_md.jpeg'></img>,0,TRUE,NA,sub23
NA,html-keyboard-response,43,182212,0.0-10.0-0.15,"""event"",""trial"",""time""
""fullscreenenter"",""0"",""2829""
","
","
","""event"",""trial"",""time""
""fullscreenenter"",""0"",""2829""
","
",null,"<div style=""font-size:60px;"">+</div>",NA,null,fixation,2020-06-12T19:01:25Z,NA,NA,NA,NA,NA,sub23
NA,mars-trial,44,192000,0.0-10.0-1.15,"""event"",""trial"",""time""
""fullscreenenter"",""0"",""2829""
","
","
","""event"",""trial"",""time""
""fullscreenenter"",""0"",""2829""
","
",9179.865000012796,<img style='border: 4px solid darkgrey;' src='img/tf1_16_M_ss3.jpeg'></img>,3,NA,exp,NA,0,<img src='img/tf1_16_T1_ss3_md.jpeg'></img>,0,TRUE,NA,sub23
NA,html-keyboard-response,45,192504,0.0-10.0-0.16,"""event"",""trial"",""time""
""fullscreenenter"",""0"",""2829""
","
","
","""event"",""trial"",""time""
""fullscreenenter"",""0"",""2829""
","
",null,"<div style=""font-size:60px;"">+</div>",NA,null,fixation,2020-06-12T19:01:35Z,NA,NA,NA,NA,NA,sub23
NA,mars-trial,46,208441,0.0-10.0-1.16,"""event"",""trial"",""time""
""fullscreenenter"",""0"",""2829""
","
","
","""event"",""trial"",""time""
""fullscreenenter"",""0"",""2829""
","
",15329.239999991842,<img style='border: 4px solid darkgrey;' src='img/tf1_17_M_ss1.jpeg'></img>,2,NA,exp,NA,0,<img src='img/tf1_17_T1_ss1_md.jpeg'></img>,0,TRUE,NA,sub23
NA,html-keyboard-response,47,208943,0.0-10.0-0.17,"""event"",""trial"",""time""
""fullscreenenter"",""0"",""2829""
","
","
","""event"",""trial"",""time""
""fullscreenenter"",""0"",""2829""
","
",null,"<div style=""font-size:60px;"">+</div>",NA,null,fixation,2020-06-12T19:01:52Z,NA,NA,NA,NA,NA,sub23
NA,mars-trial,48,216986,0.0-10.0-1.17,"""event"",""trial"",""time""
""fullscreenenter"",""0"",""2829""
","
","
","""event"",""trial"",""time""
""fullscreenenter"",""0"",""2829""
","
",7435.254999989411,<img style='border: 4px solid darkgrey;' src='img/tf1_18_M_ss2.jpeg'></img>,1,NA,exp,NA,3,<img src='img/tf1_18_T1_ss2_md.jpeg'></img>,0,FALSE,NA,sub23
NA,html-keyboard-response,49,217489,0.0-10.0-0.18,"""event"",""trial"",""time""
""fullscreenenter"",""0"",""2829""
","
","
","""event"",""trial"",""time""
""fullscreenenter"",""0"",""2829""
","
",null,"<div style=""font-size:60px;"">+</div>",NA,null,fixation,2020-06-12T19:02:00Z,NA,NA,NA,NA,NA,sub23
NA,mars-trial,50,226780,0.0-10.0-1.18,"""event"",""trial"",""time""
""fullscreenenter"",""0"",""2829""
","
","
","""event"",""trial"",""time""
""fullscreenenter"",""0"",""2829""
","
",8683.055000001332,<img style='border: 4px solid darkgrey;' src='img/tf1_19_M_ss3.jpeg'></img>,3,NA,exp,NA,0,<img src='img/tf1_19_T1_ss3_md.jpeg'></img>,0,TRUE,NA,sub23
NA,html-keyboard-response,51,227282,0.0-10.0-0.19,"""event"",""trial"",""time""
""fullscreenenter"",""0"",""2829""
","
","
","""event"",""trial"",""time""
""fullscreenenter"",""0"",""2829""
","
",null,"<div style=""font-size:60px;"">+</div>",NA,null,fixation,2020-06-12T19:02:10Z,NA,NA,NA,NA,NA,sub23
NA,mars-trial,52,234779,0.0-10.0-1.19,"""event"",""trial"",""time""
""fullscreenenter"",""0"",""2829""
","
","
","""event"",""trial"",""time""
""fullscreenenter"",""0"",""2829""
","
",6888.839999999618,<img style='border: 4px solid darkgrey;' src='img/tf1_20_M_ss1.jpeg'></img>,3,NA,exp,NA,0,<img src='img/tf1_20_T1_ss1_md.jpeg'></img>,0,TRUE,NA,sub23
NA,html-keyboard-response,53,235282,0.0-10.0-0.20,"""event"",""trial"",""time""
""fullscreenenter"",""0"",""2829""
","
","
","""event"",""trial"",""time""
""fullscreenenter"",""0"",""2829""
","
",null,"<div style=""font-size:60px;"">+</div>",NA,null,fixation,2020-06-12T19:02:18Z,NA,NA,NA,NA,NA,sub23
NA,mars-trial,54,246818,0.0-10.0-1.20,"""event"",""trial"",""time""
""fullscreenenter"",""0"",""2829""
","
","
","""event"",""trial"",""time""
""fullscreenenter"",""0"",""2829""
","
",10931.66500001098,<img style='border: 4px solid darkgrey;' src='img/tf1_21_M_ss2.jpeg'></img>,0,NA,exp,NA,0,<img src='img/tf1_21_T1_ss2_md.jpeg'></img>,0,TRUE,NA,sub23
NA,html-keyboard-response,55,247320,0.0-10.0-0.21,"""event"",""trial"",""time""
""fullscreenenter"",""0"",""2829""
","
","
","""event"",""trial"",""time""
""fullscreenenter"",""0"",""2829""
","
",null,"<div style=""font-size:60px;"">+</div>",NA,null,fixation,2020-06-12T19:02:30Z,NA,NA,NA,NA,NA,sub23
NA,mars-trial,56,252108,0.0-10.0-1.21,"""event"",""trial"",""time""
""fullscreenenter"",""0"",""2829""
","
","
","""event"",""trial"",""time""
""fullscreenenter"",""0"",""2829""
","
",4179.745000001276,<img style='border: 4px solid darkgrey;' src='img/tf1_22_M_ss3.jpeg'></img>,3,NA,exp,NA,0,<img src='img/tf1_22_T1_ss3_md.jpeg'></img>,0,TRUE,NA,sub23
NA,html-keyboard-response,57,252615,0.0-10.0-0.22,"""event"",""trial"",""time""
""fullscreenenter"",""0"",""2829""
","
","
","""event"",""trial"",""time""
""fullscreenenter"",""0"",""2829""
","
",null,"<div style=""font-size:60px;"">+</div>",NA,null,fixation,2020-06-12T19:02:35Z,NA,NA,NA,NA,NA,sub23
NA,mars-trial,58,265661,0.0-10.0-1.22,"""event"",""trial"",""time""
""fullscreenenter"",""0"",""2829""
","
","
","""event"",""trial"",""time""
""fullscreenenter"",""0"",""2829""
","
",12437.735000014072,<img style='border: 4px solid darkgrey;' src='img/tf1_23_M_ss1.jpeg'></img>,1,NA,exp,NA,0,<img src='img/tf1_23_T1_ss1_md.jpeg'></img>,0,TRUE,NA,sub23
NA,html-keyboard-response,59,266163,0.0-10.0-0.23,"""event"",""trial"",""time""
""fullscreenenter"",""0"",""2829""
","
","
","""event"",""trial"",""time""
""fullscreenenter"",""0"",""2829""
","
",null,"<div style=""font-size:60px;"">+</div>",NA,null,fixation,2020-06-12T19:02:49Z,NA,NA,NA,NA,NA,sub23
NA,mars-trial,60,269386,0.0-10.0-1.23,"""event"",""trial"",""time""
""fullscreenenter"",""0"",""2829""
","
","
","""event"",""trial"",""time""
""fullscreenenter"",""0"",""2829""
","
",2617.2549999901094,<img style='border: 4px solid darkgrey;' src='img/tf1_24_M_ss2.jpeg'></img>,2,NA,exp,NA,3,<img src='img/tf1_24_T1_ss2_md.jpeg'></img>,0,FALSE,NA,sub23
NA,html-keyboard-response,61,269889,0.0-10.0-0.24,"""event"",""trial"",""time""
""fullscreenenter"",""0"",""2829""
","
","
","""event"",""trial"",""time""
""fullscreenenter"",""0"",""2829""
","
",null,"<div style=""font-size:60px;"">+</div>",NA,null,fixation,2020-06-12T19:02:53Z,NA,NA,NA,NA,NA,sub23
NA,mars-trial,62,276519,0.0-10.0-1.24,"""event"",""trial"",""time""
""fullscreenenter"",""0"",""2829""
","
","
","""event"",""trial"",""time""
""fullscreenenter"",""0"",""2829""
","
",6022.135000006529,<img style='border: 4px solid darkgrey;' src='img/tf1_25_M_ss3.jpeg'></img>,1,NA,exp,NA,0,<img src='img/tf1_25_T1_ss3_md.jpeg'></img>,0,TRUE,NA,sub23
NA,html-keyboard-response,63,277021,0.0-10.0-0.25,"""event"",""trial"",""time""
""fullscreenenter"",""0"",""2829""
","
","
","""event"",""trial"",""time""
""fullscreenenter"",""0"",""2829""
","
",null,"<div style=""font-size:60px;"">+</div>",NA,null,fixation,2020-06-12T19:03:00Z,NA,NA,NA,NA,NA,sub23
NA,mars-trial,64,283512,0.0-10.0-1.25,"""event"",""trial"",""time""
""fullscreenenter"",""0"",""2829""
","
","
","""event"",""trial"",""time""
""fullscreenenter"",""0"",""2829""
","
",5880.825000000186,<img style='border: 4px solid darkgrey;' src='img/tf1_26_M_ss1.jpeg'></img>,2,NA,exp,NA,3,<img src='img/tf1_26_T1_ss1_md.jpeg'></img>,0,FALSE,NA,sub23
NA,html-keyboard-response,65,284016,0.0-10.0-0.26,"""event"",""trial"",""time""
""fullscreenenter"",""0"",""2829""
","
","
","""event"",""trial"",""time""
""fullscreenenter"",""0"",""2829""
","
",null,"<div style=""font-size:60px;"">+</div>",NA,null,fixation,2020-06-12T19:03:07Z,NA,NA,NA,NA,NA,sub23
NA,mars-trial,66,298980,0.0-10.0-1.26,"""event"",""trial"",""time""
""fullscreenenter"",""0"",""2829""
","
","
","""event"",""trial"",""time""
""fullscreenenter"",""0"",""2829""
","
",14358.074999996461,<img style='border: 4px solid darkgrey;' src='img/tf1_27_M_ss2.jpeg'></img>,3,NA,exp,NA,3,<img src='img/tf1_27_T1_ss2_md.jpeg'></img>,0,FALSE,NA,sub23
NA,html-keyboard-response,67,299482,0.0-10.0-0.27,"""event"",""trial"",""time""
""fullscreenenter"",""0"",""2829""
","
","
","""event"",""trial"",""time""
""fullscreenenter"",""0"",""2829""
","
",null,"<div style=""font-size:60px;"">+</div>",NA,null,fixation,2020-06-12T19:03:22Z,NA,NA,NA,NA,NA,sub23
NA,mars-trial,68,303923,0.0-10.0-1.27,"""event"",""trial"",""time""
""fullscreenenter"",""0"",""2829""
","
","
","""event"",""trial"",""time""
""fullscreenenter"",""0"",""2829""
","
",3830.820000002859,<img style='border: 4px solid darkgrey;' src='img/tf1_28_M_ss3.jpeg'></img>,1,NA,exp,NA,0,<img src='img/tf1_28_T1_ss3_md.jpeg'></img>,0,TRUE,NA,sub23
NA,html-keyboard-response,69,304425,0.0-10.0-0.28,"""event"",""trial"",""time""
""fullscreenenter"",""0"",""2829""
","
","
","""event"",""trial"",""time""
""fullscreenenter"",""0"",""2829""
","
",null,"<div style=""font-size:60px;"">+</div>",NA,null,fixation,2020-06-12T19:03:27Z,NA,NA,NA,NA,NA,sub23
NA,mars-trial,70,310544,0.0-10.0-1.28,"""event"",""trial"",""time""
""fullscreenenter"",""0"",""2829""
","
","
","""event"",""trial"",""time""
""fullscreenenter"",""0"",""2829""
","
",5512.499999982538,<img style='border: 4px solid darkgrey;' src='img/tf1_29_M_ss1.jpeg'></img>,3,NA,exp,NA,0,<img src='img/tf1_29_T1_ss1_md.jpeg'></img>,0,TRUE,NA,sub23
NA,html-keyboard-response,71,311046,0.0-10.0-0.29,"""event"",""trial"",""time""
""fullscreenenter"",""0"",""2829""
","
","
","""event"",""trial"",""time""
""fullscreenenter"",""0"",""2829""
","
",null,"<div style=""font-size:60px;"">+</div>",NA,null,fixation,2020-06-12T19:03:34Z,NA,NA,NA,NA,NA,sub23
NA,mars-trial,72,314787,0.0-10.0-1.29,"""event"",""trial"",""time""
""fullscreenenter"",""0"",""2829""
","
","
","""event"",""trial"",""time""
""fullscreenenter"",""0"",""2829""
","
",3134.525000001304,<img style='border: 4px solid darkgrey;' src='img/tf1_30_M_ss2.jpeg'></img>,2,NA,exp,NA,0,<img src='img/tf1_30_T1_ss2_md.jpeg'></img>,0,TRUE,NA,sub23
NA,html-keyboard-response,73,315291,0.0-10.0-0.30,"""event"",""trial"",""time""
""fullscreenenter"",""0"",""2829""
","
","
","""event"",""trial"",""time""
""fullscreenenter"",""0"",""2829""
","
",null,"<div style=""font-size:60px;"">+</div>",NA,null,fixation,2020-06-12T19:03:38Z,NA,NA,NA,NA,NA,sub23
NA,mars-trial,74,318506,0.0-10.0-1.30,"""event"",""trial"",""time""
""fullscreenenter"",""0"",""2829""
","
","
","""event"",""trial"",""time""
""fullscreenenter"",""0"",""2829""
","
",2606.1200000112876,<img style='border: 4px solid darkgrey;' src='img/tf1_31_M_ss3.jpeg'></img>,1,NA,exp,NA,0,<img src='img/tf1_31_T1_ss3_md.jpeg'></img>,0,TRUE,NA,sub23
NA,html-keyboard-response,75,319008,0.0-10.0-0.31,"""event"",""trial"",""time""
""fullscreenenter"",""0"",""2829""
","
","
","""event"",""trial"",""time""
""fullscreenenter"",""0"",""2829""
","
",null,"<div style=""font-size:60px;"">+</div>",NA,null,fixation,2020-06-12T19:03:42Z,NA,NA,NA,NA,NA,sub23
NA,mars-trial,76,322737,0.0-10.0-1.31,"""event"",""trial"",""time""
""fullscreenenter"",""0"",""2829""
","
","
","""event"",""trial"",""time""
""fullscreenenter"",""0"",""2829""
","
",3123.5349999915343,<img style='border: 4px solid darkgrey;' src='img/tf1_32_M_ss1.jpeg'></img>,2,NA,exp,NA,3,<img src='img/tf1_32_T1_ss1_md.jpeg'></img>,0,FALSE,NA,sub23
NA,html-keyboard-response,77,323239,0.0-10.0-0.32,"""event"",""trial"",""time""
""fullscreenenter"",""0"",""2829""
","
","
","""event"",""trial"",""time""
""fullscreenenter"",""0"",""2829""
","
",null,"<div style=""font-size:60px;"">+</div>",NA,null,fixation,2020-06-12T19:03:46Z,NA,NA,NA,NA,NA,sub23
NA,mars-trial,78,329925,0.0-10.0-1.32,"""event"",""trial"",""time""
""fullscreenenter"",""0"",""2829""
","
","
","""event"",""trial"",""time""
""fullscreenenter"",""0"",""2829""
","
",6081.165000010515,<img style='border: 4px solid darkgrey;' src='img/tf1_33_M_ss2.jpeg'></img>,3,NA,exp,NA,0,<img src='img/tf1_33_T1_ss2_md.jpeg'></img>,0,TRUE,NA,sub23
NA,html-keyboard-response,79,330427,0.0-10.0-0.33,"""event"",""trial"",""time""
""fullscreenenter"",""0"",""2829""
","
","
","""event"",""trial"",""time""
""fullscreenenter"",""0"",""2829""
","
",null,"<div style=""font-size:60px;"">+</div>",NA,null,fixation,2020-06-12T19:03:53Z,NA,NA,NA,NA,NA,sub23
NA,mars-trial,80,333413,0.0-10.0-1.33,"""event"",""trial"",""time""
""fullscreenenter"",""0"",""2829""
","
","
","""event"",""trial"",""time""
""fullscreenenter"",""0"",""2829""
","
",2377.7849999896716,<img style='border: 4px solid darkgrey;' src='img/tf1_34_M_ss3.jpeg'></img>,2,NA,exp,NA,2,<img src='img/tf1_34_T1_ss3_md.jpeg'></img>,0,FALSE,NA,sub23
NA,html-keyboard-response,81,333915,0.0-10.0-0.34,"""event"",""trial"",""time""
""fullscreenenter"",""0"",""2829""
","
","
","""event"",""trial"",""time""
""fullscreenenter"",""0"",""2829""
","
",null,"<div style=""font-size:60px;"">+</div>",NA,null,fixation,2020-06-12T19:03:57Z,NA,NA,NA,NA,NA,sub23
NA,mars-trial,82,338085,0.0-10.0-1.34,"""event"",""trial"",""time""
""fullscreenenter"",""0"",""2829""
","
","
","""event"",""trial"",""time""
""fullscreenenter"",""0"",""2829""
","
",3558.244999992894,<img style='border: 4px solid darkgrey;' src='img/tf1_35_M_ss1.jpeg'></img>,1,NA,exp,NA,3,<img src='img/tf1_35_T1_ss1_md.jpeg'></img>,0,FALSE,NA,sub23
NA,html-keyboard-response,83,338587,0.0-10.0-0.35,"""event"",""trial"",""time""
""fullscreenenter"",""0"",""2829""
","
","
","""event"",""trial"",""time""
""fullscreenenter"",""0"",""2829""
","
",null,"<div style=""font-size:60px;"">+</div>",NA,null,fixation,2020-06-12T19:04:01Z,NA,NA,NA,NA,NA,sub23
NA,mars-trial,84,351374,0.0-10.0-1.35,"""event"",""trial"",""time""
""fullscreenenter"",""0"",""2829""
","
","
","""event"",""trial"",""time""
""fullscreenenter"",""0"",""2829""
","
",12179.680000001099,<img style='border: 4px solid darkgrey;' src='img/tf1_36_M_ss2.jpeg'></img>,0,NA,exp,NA,3,<img src='img/tf1_36_T1_ss2_md.jpeg'></img>,0,FALSE,NA,sub23
NA,html-keyboard-response,85,351877,0.0-10.0-0.36,"""event"",""trial"",""time""
""fullscreenenter"",""0"",""2829""
","
","
","""event"",""trial"",""time""
""fullscreenenter"",""0"",""2829""
","
",null,"<div style=""font-size:60px;"">+</div>",NA,null,fixation,2020-06-12T19:04:15Z,NA,NA,NA,NA,NA,sub23
NA,mars-trial,86,355098,0.0-10.0-1.36,"""event"",""trial"",""time""
""fullscreenenter"",""0"",""2829""
","
","
","""event"",""trial"",""time""
""fullscreenenter"",""0"",""2829""
","
",2613.1549999990966,<img style='border: 4px solid darkgrey;' src='img/tf1_37_M_ss3.jpeg'></img>,2,NA,exp,NA,1,<img src='img/tf1_37_T1_ss3_md.jpeg'></img>,0,FALSE,NA,sub23
NA,html-keyboard-response,87,355601,0.0-10.0-0.37,"""event"",""trial"",""time""
""fullscreenenter"",""0"",""2829""
","
","
","""event"",""trial"",""time""
""fullscreenenter"",""0"",""2829""
","
",null,"<div style=""font-size:60px;"">+</div>",NA,null,fixation,2020-06-12T19:04:18Z,NA,NA,NA,NA,NA,sub23
NA,mars-trial,88,362585,0.0-10.0-1.37,"""event"",""trial"",""time""
""fullscreenenter"",""0"",""2829""
","
","
","""event"",""trial"",""time""
""fullscreenenter"",""0"",""2829""
","
",6376.49500000407,<img style='border: 4px solid darkgrey;' src='img/tf1_38_M_ss1.jpeg'></img>,1,NA,exp,NA,0,<img src='img/tf1_38_T1_ss1_md.jpeg'></img>,0,TRUE,NA,sub23
NA,html-keyboard-response,89,363087,0.0-10.0-0.38,"""event"",""trial"",""time""
""fullscreenenter"",""0"",""2829""
","
","
","""event"",""trial"",""time""
""fullscreenenter"",""0"",""2829""
","
",null,"<div style=""font-size:60px;"">+</div>",NA,null,fixation,2020-06-12T19:04:26Z,NA,NA,NA,NA,NA,sub23
NA,mars-trial,90,368342,0.0-10.0-1.38,"""event"",""trial"",""time""
""fullscreenenter"",""0"",""2829""
","
","
","""event"",""trial"",""time""
""fullscreenenter"",""0"",""2829""
","
",4646.390000008978,<img style='border: 4px solid darkgrey;' src='img/tf1_39_M_ss2.jpeg'></img>,2,NA,exp,NA,1,<img src='img/tf1_39_T1_ss2_md.jpeg'></img>,0,FALSE,NA,sub23
NA,html-keyboard-response,91,368845,0.0-10.0-0.39,"""event"",""trial"",""time""
""fullscreenenter"",""0"",""2829""
","
","
","""event"",""trial"",""time""
""fullscreenenter"",""0"",""2829""
","
",null,"<div style=""font-size:60px;"">+</div>",NA,null,fixation,2020-06-12T19:04:32Z,NA,NA,NA,NA,NA,sub23
NA,mars-trial,92,374122,0.0-10.0-1.39,"""event"",""trial"",""time""
""fullscreenenter"",""0"",""2829""
","
","
","""event"",""trial"",""time""
""fullscreenenter"",""0"",""2829""
","
",4669.914999976754,<img style='border: 4px solid darkgrey;' src='img/tf1_40_M_ss3.jpeg'></img>,2,NA,exp,NA,3,<img src='img/tf1_40_T1_ss3_md.jpeg'></img>,0,FALSE,NA,sub23
NA,html-keyboard-response,93,374624,0.0-10.0-0.40,"""event"",""trial"",""time""
""fullscreenenter"",""0"",""2829""
","
","
","""event"",""trial"",""time""
""fullscreenenter"",""0"",""2829""
","
",null,"<div style=""font-size:60px;"">+</div>",NA,null,fixation,2020-06-12T19:04:37Z,NA,NA,NA,NA,NA,sub23
NA,mars-trial,94,378548,0.0-10.0-1.40,"""event"",""trial"",""time""
""fullscreenenter"",""0"",""2829""
","
","
","""event"",""trial"",""time""
""fullscreenenter"",""0"",""2829""
","
",3316.1199999740347,<img style='border: 4px solid darkgrey;' src='img/tf1_41_M_ss1.jpeg'></img>,0,NA,exp,NA,0,<img src='img/tf1_41_T1_ss1_md.jpeg'></img>,0,TRUE,NA,sub23
NA,html-keyboard-response,95,379049,0.0-10.0-0.41,"""event"",""trial"",""time""
""fullscreenenter"",""0"",""2829""
","
","
","""event"",""trial"",""time""
""fullscreenenter"",""0"",""2829""
","
",null,"<div style=""font-size:60px;"">+</div>",NA,null,fixation,2020-06-12T19:04:42Z,NA,NA,NA,NA,NA,sub23
NA,mars-trial,96,389498,0.0-10.0-1.41,"""event"",""trial"",""time""
""fullscreenenter"",""0"",""2829""
","
","
","""event"",""trial"",""time""
""fullscreenenter"",""0"",""2829""
","
",9841.849999997066,<img style='border: 4px solid darkgrey;' src='img/tf1_42_M_ss2.jpeg'></img>,3,NA,exp,NA,3,<img src='img/tf1_42_T1_ss2_md.jpeg'></img>,0,FALSE,NA,sub23
NA,html-keyboard-response,97,389999,0.0-10.0-0.42,"""event"",""trial"",""time""
""fullscreenenter"",""0"",""2829""
","
","
","""event"",""trial"",""time""
""fullscreenenter"",""0"",""2829""
","
",null,"<div style=""font-size:60px;"">+</div>",NA,null,fixation,2020-06-12T19:04:53Z,NA,NA,NA,NA,NA,sub23
NA,mars-trial,98,394739,0.0-10.0-1.42,"""event"",""trial"",""time""
""fullscreenenter"",""0"",""2829""
","
","
","""event"",""trial"",""time""
""fullscreenenter"",""0"",""2829""
","
",4134.859999991022,<img style='border: 4px solid darkgrey;' src='img/tf1_43_M_ss3.jpeg'></img>,2,NA,exp,NA,0,<img src='img/tf1_43_T1_ss3_md.jpeg'></img>,0,TRUE,NA,sub23
NA,html-keyboard-response,99,395241,0.0-10.0-0.43,"""event"",""trial"",""time""
""fullscreenenter"",""0"",""2829""
","
","
","""event"",""trial"",""time""
""fullscreenenter"",""0"",""2829""
","
",null,"<div style=""font-size:60px;"">+</div>",NA,null,fixation,2020-06-12T19:04:58Z,NA,NA,NA,NA,NA,sub23
NA,mars-trial,100,402624,0.0-10.0-1.43,"""event"",""trial"",""time""
""fullscreenenter"",""0"",""2829""
","
","
","""event"",""trial"",""time""
""fullscreenenter"",""0"",""2829""
","
",6774.214999983087,<img style='border: 4px solid darkgrey;' src='img/tf1_44_M_ss1.jpeg'></img>,2,NA,exp,NA,0,<img src='img/tf1_44_T1_ss1_md.jpeg'></img>,0,TRUE,NA,sub23
NA,html-keyboard-response,101,403125,0.0-10.0-0.44,"""event"",""trial"",""time""
""fullscreenenter"",""0"",""2829""
","
","
","""event"",""trial"",""time""
""fullscreenenter"",""0"",""2829""
","
",null,"<div style=""font-size:60px;"">+</div>",NA,null,fixation,2020-06-12T19:05:06Z,NA,NA,NA,NA,NA,sub23
NA,mars-trial,102,411916,0.0-10.0-1.44,"""event"",""trial"",""time""
""fullscreenenter"",""0"",""2829""
","
","
","""event"",""trial"",""time""
""fullscreenenter"",""0"",""2829""
","
",8182.455000001937,<img style='border: 4px solid darkgrey;' src='img/tf1_45_M_ss2.jpeg'></img>,0,NA,exp,NA,2,<img src='img/tf1_45_T1_ss2_md.jpeg'></img>,0,FALSE,NA,sub23
NA,html-keyboard-response,103,412418,0.0-10.0-0.45,"""event"",""trial"",""time""
""fullscreenenter"",""0"",""2829""
","
","
","""event"",""trial"",""time""
""fullscreenenter"",""0"",""2829""
","
",null,"<div style=""font-size:60px;"">+</div>",NA,null,fixation,2020-06-12T19:05:15Z,NA,NA,NA,NA,NA,sub23
NA,mars-trial,104,421253,0.0-10.0-1.45,"""event"",""trial"",""time""
""fullscreenenter"",""0"",""2829""
","
","
","""event"",""trial"",""time""
""fullscreenenter"",""0"",""2829""
","
",8228.200000012293,<img style='border: 4px solid darkgrey;' src='img/tf1_46_M_ss3.jpeg'></img>,2,NA,exp,NA,0,<img src='img/tf1_46_T1_ss3_md.jpeg'></img>,0,TRUE,NA,sub23
NA,html-keyboard-response,105,421756,0.0-10.0-0.46,"""event"",""trial"",""time""
""fullscreenenter"",""0"",""2829""
","
","
","""event"",""trial"",""time""
""fullscreenenter"",""0"",""2829""
","
",null,"<div style=""font-size:60px;"">+</div>",NA,null,fixation,2020-06-12T19:05:25Z,NA,NA,NA,NA,NA,sub23
NA,mars-trial,106,424670,0.0-10.0-1.46,"""event"",""trial"",""time""
""fullscreenenter"",""0"",""2829""
","
","
","""event"",""trial"",""time""
""fullscreenenter"",""0"",""2829""
","
",2306.089999998221,<img style='border: 4px solid darkgrey;' src='img/tf1_47_M_ss1.jpeg'></img>,2,NA,exp,NA,2,<img src='img/tf1_47_T1_ss1_md.jpeg'></img>,0,FALSE,NA,sub23
NA,html-keyboard-response,107,425171,0.0-10.0-0.47,"""event"",""trial"",""time""
""fullscreenenter"",""0"",""2829""
","
","
","""event"",""trial"",""time""
""fullscreenenter"",""0"",""2829""
","
",null,"<div style=""font-size:60px;"">+</div>",NA,null,fixation,2020-06-12T19:05:28Z,NA,NA,NA,NA,NA,sub23
NA,mars-trial,108,427472,0.0-10.0-1.47,"""event"",""trial"",""time""
""fullscreenenter"",""0"",""2829""
","
","
","""event"",""trial"",""time""
""fullscreenenter"",""0"",""2829""
","
",1694.6100000059232,<img style='border: 4px solid darkgrey;' src='img/tf1_48_M_ss2.jpeg'></img>,1,NA,exp,NA,1,<img src='img/tf1_48_T1_ss2_md.jpeg'></img>,0,FALSE,NA,sub23
NA,html-keyboard-response,109,427975,0.0-10.0-0.48,"""event"",""trial"",""time""
""fullscreenenter"",""0"",""2829""
","
","
","""event"",""trial"",""time""
""fullscreenenter"",""0"",""2829""
","
",null,"<div style=""font-size:60px;"">+</div>",NA,null,fixation,2020-06-12T19:05:31Z,NA,NA,NA,NA,NA,sub23
NA,mars-trial,110,436091,0.0-10.0-1.48,"""event"",""trial"",""time""
""fullscreenenter"",""0"",""2829""
","
","
","""event"",""trial"",""time""
""fullscreenenter"",""0"",""2829""
","
",7509.904999984428,<img style='border: 4px solid darkgrey;' src='img/tf1_49_M_ss3.jpeg'></img>,1,NA,exp,NA,0,<img src='img/tf1_49_T1_ss3_md.jpeg'></img>,0,TRUE,NA,sub23
NA,html-keyboard-response,111,436593,0.0-10.0-0.49,"""event"",""trial"",""time""
""fullscreenenter"",""0"",""2829""
","
","
","""event"",""trial"",""time""
""fullscreenenter"",""0"",""2829""
","
",null,"<div style=""font-size:60px;"">+</div>",NA,null,fixation,2020-06-12T19:05:39Z,NA,NA,NA,NA,NA,sub23
NA,mars-trial,112,446653,0.0-10.0-1.49,"""event"",""trial"",""time""
""fullscreenenter"",""0"",""2829""
","
","
","""event"",""trial"",""time""
""fullscreenenter"",""0"",""2829""
","
",9451.539999980014,<img style='border: 4px solid darkgrey;' src='img/tf1_50_M_ss1.jpeg'></img>,1,NA,exp,NA,0,<img src='img/tf1_50_T1_ss1_md.jpeg'></img>,0,TRUE,NA,sub23
NA,html-keyboard-response,113,447155,0.0-10.0-0.50,"""event"",""trial"",""time""
""fullscreenenter"",""0"",""2829""
","
","
","""event"",""trial"",""time""
""fullscreenenter"",""0"",""2829""
","
",null,"<div style=""font-size:60px;"">+</div>",NA,null,fixation,2020-06-12T19:05:50Z,NA,NA,NA,NA,NA,sub23
NA,mars-trial,114,456187,0.0-10.0-1.50,"""event"",""trial"",""time""
""fullscreenenter"",""0"",""2829""
","
","
","""event"",""trial"",""time""
""fullscreenenter"",""0"",""2829""
","
",8425.775000010617,<img style='border: 4px solid darkgrey;' src='img/tf1_51_M_ss2.jpeg'></img>,3,NA,exp,NA,0,<img src='img/tf1_51_T1_ss2_md.jpeg'></img>,0,TRUE,NA,sub23
NA,html-keyboard-response,115,456688,0.0-10.0-0.51,"""event"",""trial"",""time""
""fullscreenenter"",""0"",""2829""
","
","
","""event"",""trial"",""time""
""fullscreenenter"",""0"",""2829""
","
",null,"<div style=""font-size:60px;"">+</div>",NA,null,fixation,2020-06-12T19:06:00Z,NA,NA,NA,NA,NA,sub23
NA,mars-trial,116,461208,0.0-10.0-1.51,"""event"",""trial"",""time""
""fullscreenenter"",""0"",""2829""
","
","
","""event"",""trial"",""time""
""fullscreenenter"",""0"",""2829""
","
",3911.8599999928847,<img style='border: 4px solid darkgrey;' src='img/tf1_52_M_ss3.jpeg'></img>,2,NA,exp,NA,3,<img src='img/tf1_52_T1_ss3_md.jpeg'></img>,0,FALSE,NA,sub23
NA,html-keyboard-response,117,461710,0.0-10.0-0.52,"""event"",""trial"",""time""
""fullscreenenter"",""0"",""2829""
","
","
","""event"",""trial"",""time""
""fullscreenenter"",""0"",""2829""
","
",null,"<div style=""font-size:60px;"">+</div>",NA,null,fixation,2020-06-12T19:06:05Z,NA,NA,NA,NA,NA,sub23
NA,mars-trial,118,464499,0.0-10.0-1.52,"""event"",""trial"",""time""
""fullscreenenter"",""0"",""2829""
","
","
","""event"",""trial"",""time""
""fullscreenenter"",""0"",""2829""
","
",2180.3249999939,<img style='border: 4px solid darkgrey;' src='img/tf1_53_M_ss1.jpeg'></img>,1,NA,exp,NA,3,<img src='img/tf1_53_T1_ss1_md.jpeg'></img>,0,FALSE,NA,sub23
NA,html-keyboard-response,119,465000,0.0-10.0-0.53,"""event"",""trial"",""time""
""fullscreenenter"",""0"",""2829""
","
","
","""event"",""trial"",""time""
""fullscreenenter"",""0"",""2829""
","
",null,"<div style=""font-size:60px;"">+</div>",NA,null,fixation,2020-06-12T19:06:08Z,NA,NA,NA,NA,NA,sub23
NA,mars-trial,120,468621,0.0-10.0-1.53,"""event"",""trial"",""time""
""fullscreenenter"",""0"",""2829""
","
","
","""event"",""trial"",""time""
""fullscreenenter"",""0"",""2829""
","
",3011.6649999981746,<img style='border: 4px solid darkgrey;' src='img/tf1_54_M_ss2.jpeg'></img>,2,NA,exp,NA,2,<img src='img/tf1_54_T1_ss2_md.jpeg'></img>,0,FALSE,NA,sub23
NA,html-keyboard-response,121,469124,0.0-10.0-0.54,"""event"",""trial"",""time""
""fullscreenenter"",""0"",""2829""
","
","
","""event"",""trial"",""time""
""fullscreenenter"",""0"",""2829""
","
",null,"<div style=""font-size:60px;"">+</div>",NA,null,fixation,2020-06-12T19:06:12Z,NA,NA,NA,NA,NA,sub23
NA,mars-trial,122,471905,0.0-10.0-1.54,"""event"",""trial"",""time""
""fullscreenenter"",""0"",""2829""
","
","
","""event"",""trial"",""time""
""fullscreenenter"",""0"",""2829""
","
",2170.3249999845866,<img style='border: 4px solid darkgrey;' src='img/tf1_55_M_ss3.jpeg'></img>,3,NA,exp,NA,0,<img src='img/tf1_55_T1_ss3_md.jpeg'></img>,0,TRUE,NA,sub23
NA,html-keyboard-response,123,472408,0.0-10.0-0.55,"""event"",""trial"",""time""
""fullscreenenter"",""0"",""2829""
","
","
","""event"",""trial"",""time""
""fullscreenenter"",""0"",""2829""
","
",null,"<div style=""font-size:60px;"">+</div>",NA,null,fixation,2020-06-12T19:06:15Z,NA,NA,NA,NA,NA,sub23
NA,mars-trial,124,478824,0.0-10.0-1.55,"""event"",""trial"",""time""
""fullscreenenter"",""0"",""2829""
","
","
","""event"",""trial"",""time""
""fullscreenenter"",""0"",""2829""
","
",5806.09500000719,<img style='border: 4px solid darkgrey;' src='img/tf1_56_M_ss1.jpeg'></img>,3,NA,exp,NA,0,<img src='img/tf1_56_T1_ss1_md.jpeg'></img>,0,TRUE,NA,sub23
NA,html-keyboard-response,125,479327,0.0-10.0-0.56,"""event"",""trial"",""time""
""fullscreenenter"",""0"",""2829""
","
","
","""event"",""trial"",""time""
""fullscreenenter"",""0"",""2829""
","
",null,"<div style=""font-size:60px;"">+</div>",NA,null,fixation,2020-06-12T19:06:22Z,NA,NA,NA,NA,NA,sub23
NA,mars-trial,126,487240,0.0-10.0-1.56,"""event"",""trial"",""time""
""fullscreenenter"",""0"",""2829""
","
","
","""event"",""trial"",""time""
""fullscreenenter"",""0"",""2829""
","
",7304.884999990463,<img style='border: 4px solid darkgrey;' src='img/tf1_57_M_ss2.jpeg'></img>,0,NA,exp,NA,0,<img src='img/tf1_57_T1_ss2_md.jpeg'></img>,0,TRUE,NA,sub23
NA,html-keyboard-response,127,487743,0.0-10.0-0.57,"""event"",""trial"",""time""
""fullscreenenter"",""0"",""2829""
","
","
","""event"",""trial"",""time""
""fullscreenenter"",""0"",""2829""
","
",null,"<div style=""font-size:60px;"">+</div>",NA,null,fixation,2020-06-12T19:06:31Z,NA,NA,NA,NA,NA,sub23
NA,mars-trial,128,498177,0.0-10.0-1.57,"""event"",""trial"",""time""
""fullscreenenter"",""0"",""2829""
","
","
","""event"",""trial"",""time""
""fullscreenenter"",""0"",""2829""
","
",9827.689999976428,<img style='border: 4px solid darkgrey;' src='img/tf1_58_M_ss3.jpeg'></img>,1,NA,exp,NA,0,<img src='img/tf1_58_T1_ss3_md.jpeg'></img>,0,TRUE,NA,sub23
NA,html-keyboard-response,129,498680,0.0-10.0-0.58,"""event"",""trial"",""time""
""fullscreenenter"",""0"",""2829""
","
","
","""event"",""trial"",""time""
""fullscreenenter"",""0"",""2829""
","
",null,"<div style=""font-size:60px;"">+</div>",NA,null,fixation,2020-06-12T19:06:42Z,NA,NA,NA,NA,NA,sub23
NA,mars-trial,130,501773,0.0-10.0-1.58,"""event"",""trial"",""time""
""fullscreenenter"",""0"",""2829""
","
","
","""event"",""trial"",""time""
""fullscreenenter"",""0"",""2829""
","
",2484.230000001844,<img style='border: 4px solid darkgrey;' src='img/tf1_59_M_ss1.jpeg'></img>,2,NA,exp,NA,0,<img src='img/tf1_59_T1_ss1_md.jpeg'></img>,0,TRUE,NA,sub23
NA,html-keyboard-response,131,502275,0.0-10.0-0.59,"""event"",""trial"",""time""
""fullscreenenter"",""0"",""2829""
","
","
","""event"",""trial"",""time""
""fullscreenenter"",""0"",""2829""
","
",null,"<div style=""font-size:60px;"">+</div>",NA,null,fixation,2020-06-12T19:06:45Z,NA,NA,NA,NA,NA,sub23
NA,mars-trial,132,515741,0.0-10.0-1.59,"""event"",""trial"",""time""
""fullscreenenter"",""0"",""2829""
","
","
","""event"",""trial"",""time""
""fullscreenenter"",""0"",""2829""
","
",12860.879999992903,<img style='border: 4px solid darkgrey;' src='img/tf1_60_M_ss2.jpeg'></img>,0,NA,exp,NA,3,<img src='img/tf1_60_T1_ss2_md.jpeg'></img>,0,FALSE,NA,sub23
NA,html-keyboard-response,133,516243,0.0-10.0-0.60,"""event"",""trial"",""time""
""fullscreenenter"",""0"",""2829""
","
","
","""event"",""trial"",""time""
""fullscreenenter"",""0"",""2829""
","
",null,"<div style=""font-size:60px;"">+</div>",NA,null,fixation,2020-06-12T19:06:59Z,NA,NA,NA,NA,NA,sub23
NA,mars-trial,134,518525,0.0-10.0-1.60,"""event"",""trial"",""time""
""fullscreenenter"",""0"",""2829""
","
","
","""event"",""trial"",""time""
""fullscreenenter"",""0"",""2829""
","
",1675.3150000004098,<img style='border: 4px solid darkgrey;' src='img/tf1_61_M_ss3.jpeg'></img>,1,NA,exp,NA,2,<img src='img/tf1_61_T1_ss3_md.jpeg'></img>,0,FALSE,NA,sub23
NA,html-keyboard-response,135,519027,0.0-10.0-0.61,"""event"",""trial"",""time""
""fullscreenenter"",""0"",""2829""
","
","
","""event"",""trial"",""time""
""fullscreenenter"",""0"",""2829""
","
",null,"<div style=""font-size:60px;"">+</div>",NA,null,fixation,2020-06-12T19:07:02Z,NA,NA,NA,NA,NA,sub23
NA,mars-trial,136,527598,0.0-10.0-1.61,"""event"",""trial"",""time""
""fullscreenenter"",""0"",""2829""
","
","
","""event"",""trial"",""time""
""fullscreenenter"",""0"",""2829""
","
",7961.609999998473,<img style='border: 4px solid darkgrey;' src='img/tf1_62_M_ss1.jpeg'></img>,2,NA,exp,NA,0,<img src='img/tf1_62_T1_ss1_md.jpeg'></img>,0,TRUE,NA,sub23
NA,html-keyboard-response,137,528101,0.0-10.0-0.62,"""event"",""trial"",""time""
""fullscreenenter"",""0"",""2829""
","
","
","""event"",""trial"",""time""
""fullscreenenter"",""0"",""2829""
","
",null,"<div style=""font-size:60px;"">+</div>",NA,null,fixation,2020-06-12T19:07:11Z,NA,NA,NA,NA,NA,sub23
NA,mars-trial,138,532562,0.0-10.0-1.62,"""event"",""trial"",""time""
""fullscreenenter"",""0"",""2829""
","
","
","""event"",""trial"",""time""
""fullscreenenter"",""0"",""2829""
","
",3853.6200000089593,<img style='border: 4px solid darkgrey;' src='img/tf1_63_M_ss2.jpeg'></img>,1,NA,exp,NA,0,<img src='img/tf1_63_T1_ss2_md.jpeg'></img>,0,TRUE,NA,sub23
NA,html-keyboard-response,139,533066,0.0-10.0-0.63,"""event"",""trial"",""time""
""fullscreenenter"",""0"",""2829""
","
","
","""event"",""trial"",""time""
""fullscreenenter"",""0"",""2829""
","
",null,"<div style=""font-size:60px;"">+</div>",NA,null,fixation,2020-06-12T19:07:16Z,NA,NA,NA,NA,NA,sub23
NA,mars-trial,140,535686,0.0-10.0-1.63,"""event"",""trial"",""time""
""fullscreenenter"",""0"",""2829""
","
","
","""event"",""trial"",""time""
""fullscreenenter"",""0"",""2829""
","
",2011.2799999769777,<img style='border: 4px solid darkgrey;' src='img/tf1_64_M_ss3.jpeg'></img>,2,NA,exp,NA,0,<img src='img/tf1_64_T1_ss3_md.jpeg'></img>,0,TRUE,NA,sub23
NA,html-keyboard-response,141,536188,0.0-10.0-0.64,"""event"",""trial"",""time""
""fullscreenenter"",""0"",""2829""
","
","
","""event"",""trial"",""time""
""fullscreenenter"",""0"",""2829""
","
",null,"<div style=""font-size:60px;"">+</div>",NA,null,fixation,2020-06-12T19:07:19Z,NA,NA,NA,NA,NA,sub23
NA,mars-trial,142,544737,0.0-10.0-1.64,"""event"",""trial"",""time""
""fullscreenenter"",""0"",""2829""
","
","
","""event"",""trial"",""time""
""fullscreenenter"",""0"",""2829""
","
",NA,NA,NA,NA,exp,NA,NA,<img src='img/tf1_65_T1_ss1_md.jpeg'></img>,0,FALSE,NA,sub23
NA,html-keyboard-response,143,545239,0.0-10.0-0.65,"""event"",""trial"",""time""
""fullscreenenter"",""0"",""2829""
","
","
","""event"",""trial"",""time""
""fullscreenenter"",""0"",""2829""
","
",null,"<div style=""font-size:60px;"">+</div>",NA,null,fixation,2020-06-12T19:07:28Z,NA,NA,NA,NA,NA,sub23
NA,audio-button-response,144,549090,0.0-11.0,"""event"",""trial"",""time""
""fullscreenenter"",""0"",""2829""
","
","
","""event"",""trial"",""time""
""fullscreenenter"",""0"",""2829""
","
",3747.799999982817,audio/mars_instructions_slide5.wav,0,NA,NA,NA,NA,NA,NA,NA,NA,sub23
