success,trial_type,trial_index,time_elapsed,internal_node_id,interactions,blur_events,focus_events,fullscreenenter_events,fullscreenexit_events,rt,stimulus,button_pressed,key_press,part,timestamp,unshuffled_button,correct_response,correct_button,correct,value,subject_id
TRUE,fullscreen,0,5357,0.0-0.0,"""event"",""trial"",""time""
""focus"",""0"",""1788""
""fullscreenenter"",""0"",""4384""
","
","""event"",""trial"",""time""
""focus"",""0"",""1788""
","""event"",""trial"",""time""
""fullscreenenter"",""0"",""4384""
","
",NA,NA,NA,NA,NA,NA,NA,NA,NA,NA,NA,sub118
NA,pavlovia,1,5361,0.0-1.0,"""event"",""trial"",""time""
""focus"",""0"",""1788""
""fullscreenenter"",""0"",""4384""
","
","""event"",""trial"",""time""
""focus"",""0"",""1788""
","""event"",""trial"",""time""
""fullscreenenter"",""0"",""4384""
","
",NA,NA,NA,NA,NA,NA,NA,NA,NA,NA,NA,sub118
NA,html-button-response,2,6476,0.0-2.0,"""event"",""trial"",""time""
""focus"",""0"",""1788""
""fullscreenenter"",""0"",""4384""
","
","""event"",""trial"",""time""
""focus"",""0"",""1788""
","""event"",""trial"",""time""
""fullscreenenter"",""0"",""4384""
","
",1113.969999991241,<p>Welcome! Press START to begin.</p><br>,0,NA,NA,NA,NA,NA,NA,NA,NA,sub118
NA,audio-button-response,3,15308,0.0-3.0,"""event"",""trial"",""time""
""focus"",""0"",""1788""
""fullscreenenter"",""0"",""4384""
","
","""event"",""trial"",""time""
""focus"",""0"",""1788""
","""event"",""trial"",""time""
""fullscreenenter"",""0"",""4384""
","
",8830.289999998058,audio/mars_instructions_slide2.wav,0,NA,NA,NA,NA,NA,NA,NA,NA,sub118
NA,audio-button-response,4,22812,0.0-4.0,"""event"",""trial"",""time""
""focus"",""0"",""1788""
""fullscreenenter"",""0"",""4384""
","
","""event"",""trial"",""time""
""focus"",""0"",""1788""
","""event"",""trial"",""time""
""fullscreenenter"",""0"",""4384""
","
",7502.225000003818,audio/mars_instructions_slide3.wav,0,NA,NA,NA,NA,NA,NA,NA,NA,sub118
NA,html-keyboard-response,5,23315,0.0-5.0-0.0,"""event"",""trial"",""time""
""focus"",""0"",""1788""
""fullscreenenter"",""0"",""4384""
","
","""event"",""trial"",""time""
""focus"",""0"",""1788""
","""event"",""trial"",""time""
""fullscreenenter"",""0"",""4384""
","
",null,"<div style=""font-size:60px;"">+</div>",NA,null,fixation,2020-06-22T15:03:10Z,NA,NA,NA,NA,NA,sub118
NA,mars-trial,6,29585,0.0-5.0-1.0,"""event"",""trial"",""time""
""focus"",""0"",""1788""
""fullscreenenter"",""0"",""4384""
","
","""event"",""trial"",""time""
""focus"",""0"",""1788""
","""event"",""trial"",""time""
""fullscreenenter"",""0"",""4384""
","
",4160.779999991064,<img style='border: 4px solid darkgrey;' src='practice/pt1_M1.png'></img>,2,NA,practice,NA,0,<img src='practice/pt1_T1.png'></img>,0,TRUE,NA,sub118
NA,html-keyboard-response,7,30087,0.0-6.0-0.0,"""event"",""trial"",""time""
""focus"",""0"",""1788""
""fullscreenenter"",""0"",""4384""
","
","""event"",""trial"",""time""
""focus"",""0"",""1788""
","""event"",""trial"",""time""
""fullscreenenter"",""0"",""4384""
","
",null,"<div style=""font-size:60px;"">+</div>",NA,null,fixation,2020-06-22T15:03:17Z,NA,NA,NA,NA,NA,sub118
NA,mars-trial,8,33670,0.0-6.0-1.0,"""event"",""trial"",""time""
""focus"",""0"",""1788""
""fullscreenenter"",""0"",""4384""
","
","""event"",""trial"",""time""
""focus"",""0"",""1788""
","""event"",""trial"",""time""
""fullscreenenter"",""0"",""4384""
","
",1478.7349999969592,<img style='border: 4px solid darkgrey;' src='practice/pt2_M1.png'></img>,1,NA,practice,NA,0,<img src='practice/pt2_T1.png'></img>,0,TRUE,NA,sub118
NA,html-keyboard-response,9,34172,0.0-7.0-0.0,"""event"",""trial"",""time""
""focus"",""0"",""1788""
""fullscreenenter"",""0"",""4384""
","
","""event"",""trial"",""time""
""focus"",""0"",""1788""
","""event"",""trial"",""time""
""fullscreenenter"",""0"",""4384""
","
",null,"<div style=""font-size:60px;"">+</div>",NA,null,fixation,2020-06-22T15:03:21Z,NA,NA,NA,NA,NA,sub118
NA,mars-trial,10,37280,0.0-7.0-1.0,"""event"",""trial"",""time""
""focus"",""0"",""1788""
""fullscreenenter"",""0"",""4384""
","
","""event"",""trial"",""time""
""focus"",""0"",""1788""
","""event"",""trial"",""time""
""fullscreenenter"",""0"",""4384""
","
",1002.055000004475,<img style='border: 4px solid darkgrey;' src='practice/pt3_M1.png'></img>,0,NA,practice,NA,0,<img src='practice/pt3_T1.png'></img>,0,TRUE,NA,sub118
NA,audio-button-response,11,39549,0.0-8.0,"""event"",""trial"",""time""
""focus"",""0"",""1788""
""fullscreenenter"",""0"",""4384""
","
","""event"",""trial"",""time""
""focus"",""0"",""1788""
","""event"",""trial"",""time""
""fullscreenenter"",""0"",""4384""
","
",2267.4499999993714,audio/mars_instructions_slide4.wav,0,NA,NA,NA,NA,NA,NA,NA,NA,sub118
NA,call-function,12,39550,0.0-9.0,"""event"",""trial"",""time""
""focus"",""0"",""1788""
""fullscreenenter"",""0"",""4384""
","
","""event"",""trial"",""time""
""focus"",""0"",""1788""
","""event"",""trial"",""time""
""fullscreenenter"",""0"",""4384""
","
",NA,NA,NA,NA,NA,NA,NA,NA,NA,NA,NA,sub118
NA,html-keyboard-response,13,40051,0.0-10.0-0.0,"""event"",""trial"",""time""
""focus"",""0"",""1788""
""fullscreenenter"",""0"",""4384""
","
","""event"",""trial"",""time""
""focus"",""0"",""1788""
","""event"",""trial"",""time""
""fullscreenenter"",""0"",""4384""
","
",null,"<div style=""font-size:60px;"">+</div>",NA,null,fixation,2020-06-22T15:03:27Z,NA,NA,NA,NA,NA,sub118
NA,mars-trial,14,41651,0.0-10.0-1.0,"""event"",""trial"",""time""
""focus"",""0"",""1788""
""fullscreenenter"",""0"",""4384""
","
","""event"",""trial"",""time""
""focus"",""0"",""1788""
","""event"",""trial"",""time""
""fullscreenenter"",""0"",""4384""
","
",993.4749999956694,<img style='border: 4px solid darkgrey;' src='img/tf1_1_M_ss3.jpeg'></img>,1,NA,exp,NA,0,<img src='img/tf1_1_T1_ss3_md.jpeg'></img>,0,TRUE,NA,sub118
NA,html-keyboard-response,15,42153,0.0-10.0-0.1,"""event"",""trial"",""time""
""focus"",""0"",""1788""
""fullscreenenter"",""0"",""4384""
","
","""event"",""trial"",""time""
""focus"",""0"",""1788""
","""event"",""trial"",""time""
""fullscreenenter"",""0"",""4384""
","
",null,"<div style=""font-size:60px;"">+</div>",NA,null,fixation,2020-06-22T15:03:29Z,NA,NA,NA,NA,NA,sub118
NA,mars-trial,16,43898,0.0-10.0-1.1,"""event"",""trial"",""time""
""focus"",""0"",""1788""
""fullscreenenter"",""0"",""4384""
","
","""event"",""trial"",""time""
""focus"",""0"",""1788""
","""event"",""trial"",""time""
""fullscreenenter"",""0"",""4384""
","
",1140.4599999950733,<img style='border: 4px solid darkgrey;' src='img/tf1_2_M_ss1.jpeg'></img>,3,NA,exp,NA,0,<img src='img/tf1_2_T1_ss1_md.jpeg'></img>,0,TRUE,NA,sub118
NA,html-keyboard-response,17,44403,0.0-10.0-0.2,"""event"",""trial"",""time""
""focus"",""0"",""1788""
""fullscreenenter"",""0"",""4384""
","
","""event"",""trial"",""time""
""focus"",""0"",""1788""
","""event"",""trial"",""time""
""fullscreenenter"",""0"",""4384""
","
",null,"<div style=""font-size:60px;"">+</div>",NA,null,fixation,2020-06-22T15:03:31Z,NA,NA,NA,NA,NA,sub118
NA,mars-trial,18,46121,0.0-10.0-1.2,"""event"",""trial"",""time""
""focus"",""0"",""1788""
""fullscreenenter"",""0"",""4384""
","
","""event"",""trial"",""time""
""focus"",""0"",""1788""
","""event"",""trial"",""time""
""fullscreenenter"",""0"",""4384""
","
",1111.9899999903282,<img style='border: 4px solid darkgrey;' src='img/tf1_3_M_ss2.jpeg'></img>,1,NA,exp,NA,0,<img src='img/tf1_3_T1_ss2_md.jpeg'></img>,0,TRUE,NA,sub118
NA,html-keyboard-response,19,46626,0.0-10.0-0.3,"""event"",""trial"",""time""
""focus"",""0"",""1788""
""fullscreenenter"",""0"",""4384""
","
","""event"",""trial"",""time""
""focus"",""0"",""1788""
","""event"",""trial"",""time""
""fullscreenenter"",""0"",""4384""
","
",null,"<div style=""font-size:60px;"">+</div>",NA,null,fixation,2020-06-22T15:03:33Z,NA,NA,NA,NA,NA,sub118
NA,mars-trial,20,49235,0.0-10.0-1.3,"""event"",""trial"",""time""
""focus"",""0"",""1788""
""fullscreenenter"",""0"",""4384""
","
","""event"",""trial"",""time""
""focus"",""0"",""1788""
","""event"",""trial"",""time""
""fullscreenenter"",""0"",""4384""
","
",2000.8099999977276,<img style='border: 4px solid darkgrey;' src='img/tf1_4_M_ss3.jpeg'></img>,0,NA,exp,NA,0,<img src='img/tf1_4_T1_ss3_md.jpeg'></img>,0,TRUE,NA,sub118
NA,html-keyboard-response,21,49737,0.0-10.0-0.4,"""event"",""trial"",""time""
""focus"",""0"",""1788""
""fullscreenenter"",""0"",""4384""
","
","""event"",""trial"",""time""
""focus"",""0"",""1788""
","""event"",""trial"",""time""
""fullscreenenter"",""0"",""4384""
","
",null,"<div style=""font-size:60px;"">+</div>",NA,null,fixation,2020-06-22T15:03:36Z,NA,NA,NA,NA,NA,sub118
NA,mars-trial,22,51221,0.0-10.0-1.4,"""event"",""trial"",""time""
""focus"",""0"",""1788""
""fullscreenenter"",""0"",""4384""
","
","""event"",""trial"",""time""
""focus"",""0"",""1788""
","""event"",""trial"",""time""
""fullscreenenter"",""0"",""4384""
","
",878.1549999985145,<img style='border: 4px solid darkgrey;' src='img/tf1_5_M_ss1.jpeg'></img>,2,NA,exp,NA,0,<img src='img/tf1_5_T1_ss1_md.jpeg'></img>,0,TRUE,NA,sub118
NA,html-keyboard-response,23,51723,0.0-10.0-0.5,"""event"",""trial"",""time""
""focus"",""0"",""1788""
""fullscreenenter"",""0"",""4384""
","
","""event"",""trial"",""time""
""focus"",""0"",""1788""
","""event"",""trial"",""time""
""fullscreenenter"",""0"",""4384""
","
",null,"<div style=""font-size:60px;"">+</div>",NA,null,fixation,2020-06-22T15:03:38Z,NA,NA,NA,NA,NA,sub118
NA,mars-trial,24,61226,0.0-10.0-1.5,"""event"",""trial"",""time""
""focus"",""0"",""1788""
""fullscreenenter"",""0"",""4384""
","
","""event"",""trial"",""time""
""focus"",""0"",""1788""
","""event"",""trial"",""time""
""fullscreenenter"",""0"",""4384""
","
",8895.934999993187,<img style='border: 4px solid darkgrey;' src='img/tf1_6_M_ss2.jpeg'></img>,1,NA,exp,NA,0,<img src='img/tf1_6_T1_ss2_md.jpeg'></img>,0,TRUE,NA,sub118
NA,html-keyboard-response,25,61727,0.0-10.0-0.6,"""event"",""trial"",""time""
""focus"",""0"",""1788""
""fullscreenenter"",""0"",""4384""
","
","""event"",""trial"",""time""
""focus"",""0"",""1788""
","""event"",""trial"",""time""
""fullscreenenter"",""0"",""4384""
","
",null,"<div style=""font-size:60px;"">+</div>",NA,null,fixation,2020-06-22T15:03:48Z,NA,NA,NA,NA,NA,sub118
NA,mars-trial,26,64837,0.0-10.0-1.6,"""event"",""trial"",""time""
""focus"",""0"",""1788""
""fullscreenenter"",""0"",""4384""
","
","""event"",""trial"",""time""
""focus"",""0"",""1788""
","""event"",""trial"",""time""
""fullscreenenter"",""0"",""4384""
","
",2501.6000000032363,<img style='border: 4px solid darkgrey;' src='img/tf1_7_M_ss3.jpeg'></img>,1,NA,exp,NA,0,<img src='img/tf1_7_T1_ss3_md.jpeg'></img>,0,TRUE,NA,sub118
NA,html-keyboard-response,27,65338,0.0-10.0-0.7,"""event"",""trial"",""time""
""focus"",""0"",""1788""
""fullscreenenter"",""0"",""4384""
","
","""event"",""trial"",""time""
""focus"",""0"",""1788""
","""event"",""trial"",""time""
""fullscreenenter"",""0"",""4384""
","
",null,"<div style=""font-size:60px;"">+</div>",NA,null,fixation,2020-06-22T15:03:52Z,NA,NA,NA,NA,NA,sub118
NA,mars-trial,28,69379,0.0-10.0-1.7,"""event"",""trial"",""time""
""focus"",""0"",""1788""
""fullscreenenter"",""0"",""4384""
","
","""event"",""trial"",""time""
""focus"",""0"",""1788""
","""event"",""trial"",""time""
""fullscreenenter"",""0"",""4384""
","
",3434.9199999996927,<img style='border: 4px solid darkgrey;' src='img/tf1_8_M_ss1.jpeg'></img>,3,NA,exp,NA,0,<img src='img/tf1_8_T1_ss1_md.jpeg'></img>,0,TRUE,NA,sub118
NA,html-keyboard-response,29,69882,0.0-10.0-0.8,"""event"",""trial"",""time""
""focus"",""0"",""1788""
""fullscreenenter"",""0"",""4384""
","
","""event"",""trial"",""time""
""focus"",""0"",""1788""
","""event"",""trial"",""time""
""fullscreenenter"",""0"",""4384""
","
",null,"<div style=""font-size:60px;"">+</div>",NA,null,fixation,2020-06-22T15:03:56Z,NA,NA,NA,NA,NA,sub118
NA,mars-trial,30,75724,0.0-10.0-1.8,"""event"",""trial"",""time""
""focus"",""0"",""1788""
""fullscreenenter"",""0"",""4384""
","
","""event"",""trial"",""time""
""focus"",""0"",""1788""
","""event"",""trial"",""time""
""fullscreenenter"",""0"",""4384""
","
",5231.644999992568,<img style='border: 4px solid darkgrey;' src='img/tf1_9_M_ss2.jpeg'></img>,3,NA,exp,NA,0,<img src='img/tf1_9_T1_ss2_md.jpeg'></img>,0,TRUE,NA,sub118
NA,html-keyboard-response,31,76227,0.0-10.0-0.9,"""event"",""trial"",""time""
""focus"",""0"",""1788""
""fullscreenenter"",""0"",""4384""
","
","""event"",""trial"",""time""
""focus"",""0"",""1788""
","""event"",""trial"",""time""
""fullscreenenter"",""0"",""4384""
","
",null,"<div style=""font-size:60px;"">+</div>",NA,null,fixation,2020-06-22T15:04:03Z,NA,NA,NA,NA,NA,sub118
NA,mars-trial,32,86196,0.0-10.0-1.9,"""event"",""trial"",""time""
""focus"",""0"",""1788""
""fullscreenenter"",""0"",""4384""
","
","""event"",""trial"",""time""
""focus"",""0"",""1788""
","""event"",""trial"",""time""
""fullscreenenter"",""0"",""4384""
","
",9364.494999987073,<img style='border: 4px solid darkgrey;' src='img/tf1_10_M_ss3.jpeg'></img>,1,NA,exp,NA,2,<img src='img/tf1_10_T1_ss3_md.jpeg'></img>,0,FALSE,NA,sub118
NA,html-keyboard-response,33,86699,0.0-10.0-0.10,"""event"",""trial"",""time""
""focus"",""0"",""1788""
""fullscreenenter"",""0"",""4384""
","
","""event"",""trial"",""time""
""focus"",""0"",""1788""
","""event"",""trial"",""time""
""fullscreenenter"",""0"",""4384""
","
",null,"<div style=""font-size:60px;"">+</div>",NA,null,fixation,2020-06-22T15:04:13Z,NA,NA,NA,NA,NA,sub118
NA,mars-trial,34,105829,0.0-10.0-1.10,"""event"",""trial"",""time""
""focus"",""0"",""1788""
""fullscreenenter"",""0"",""4384""
","
","""event"",""trial"",""time""
""focus"",""0"",""1788""
","""event"",""trial"",""time""
""fullscreenenter"",""0"",""4384""
","
",18525.07499999774,<img style='border: 4px solid darkgrey;' src='img/tf1_11_M_ss1.jpeg'></img>,2,NA,exp,NA,0,<img src='img/tf1_11_T1_ss1_md.jpeg'></img>,0,TRUE,NA,sub118
NA,html-keyboard-response,35,106331,0.0-10.0-0.11,"""event"",""trial"",""time""
""focus"",""0"",""1788""
""fullscreenenter"",""0"",""4384""
","
","""event"",""trial"",""time""
""focus"",""0"",""1788""
","""event"",""trial"",""time""
""fullscreenenter"",""0"",""4384""
","
",null,"<div style=""font-size:60px;"">+</div>",NA,null,fixation,2020-06-22T15:04:33Z,NA,NA,NA,NA,NA,sub118
NA,mars-trial,36,126373,0.0-10.0-1.11,"""event"",""trial"",""time""
""focus"",""0"",""1788""
""fullscreenenter"",""0"",""4384""
","
","""event"",""trial"",""time""
""focus"",""0"",""1788""
","""event"",""trial"",""time""
""fullscreenenter"",""0"",""4384""
","
",19436.579999994137,<img style='border: 4px solid darkgrey;' src='img/tf1_12_M_ss2.jpeg'></img>,1,NA,exp,NA,0,<img src='img/tf1_12_T1_ss2_md.jpeg'></img>,0,TRUE,NA,sub118
NA,html-keyboard-response,37,126878,0.0-10.0-0.12,"""event"",""trial"",""time""
""focus"",""0"",""1788""
""fullscreenenter"",""0"",""4384""
","
","""event"",""trial"",""time""
""focus"",""0"",""1788""
","""event"",""trial"",""time""
""fullscreenenter"",""0"",""4384""
","
",null,"<div style=""font-size:60px;"">+</div>",NA,null,fixation,2020-06-22T15:04:53Z,NA,NA,NA,NA,NA,sub118
NA,mars-trial,38,147014,0.0-10.0-1.12,"""event"",""trial"",""time""
""focus"",""0"",""1788""
""fullscreenenter"",""0"",""4384""
","
","""event"",""trial"",""time""
""focus"",""0"",""1788""
","""event"",""trial"",""time""
""fullscreenenter"",""0"",""4384""
","
",19529.89499999967,<img style='border: 4px solid darkgrey;' src='img/tf1_13_M_ss3.jpeg'></img>,1,NA,exp,NA,0,<img src='img/tf1_13_T1_ss3_md.jpeg'></img>,0,TRUE,NA,sub118
NA,html-keyboard-response,39,147518,0.0-10.0-0.13,"""event"",""trial"",""time""
""focus"",""0"",""1788""
""fullscreenenter"",""0"",""4384""
","
","""event"",""trial"",""time""
""focus"",""0"",""1788""
","""event"",""trial"",""time""
""fullscreenenter"",""0"",""4384""
","
",null,"<div style=""font-size:60px;"">+</div>",NA,null,fixation,2020-06-22T15:05:14Z,NA,NA,NA,NA,NA,sub118
NA,mars-trial,40,170966,0.0-10.0-1.13,"""event"",""trial"",""time""
""focus"",""0"",""1788""
""fullscreenenter"",""0"",""4384""
","
","""event"",""trial"",""time""
""focus"",""0"",""1788""
","""event"",""trial"",""time""
""fullscreenenter"",""0"",""4384""
","
",22843.974999996135,<img style='border: 4px solid darkgrey;' src='img/tf1_14_M_ss1.jpeg'></img>,0,NA,exp,NA,3,<img src='img/tf1_14_T1_ss1_md.jpeg'></img>,0,FALSE,NA,sub118
NA,html-keyboard-response,41,171469,0.0-10.0-0.14,"""event"",""trial"",""time""
""focus"",""0"",""1788""
""fullscreenenter"",""0"",""4384""
","
","""event"",""trial"",""time""
""focus"",""0"",""1788""
","""event"",""trial"",""time""
""fullscreenenter"",""0"",""4384""
","
",null,"<div style=""font-size:60px;"">+</div>",NA,null,fixation,2020-06-22T15:05:38Z,NA,NA,NA,NA,NA,sub118
NA,mars-trial,42,188284,0.0-10.0-1.14,"""event"",""trial"",""time""
""focus"",""0"",""1788""
""fullscreenenter"",""0"",""4384""
","
","""event"",""trial"",""time""
""focus"",""0"",""1788""
","""event"",""trial"",""time""
""fullscreenenter"",""0"",""4384""
","
",16205.159999997704,<img style='border: 4px solid darkgrey;' src='img/tf1_15_M_ss2.jpeg'></img>,2,NA,exp,NA,0,<img src='img/tf1_15_T1_ss2_md.jpeg'></img>,0,TRUE,NA,sub118
NA,html-keyboard-response,43,188786,0.0-10.0-0.15,"""event"",""trial"",""time""
""focus"",""0"",""1788""
""fullscreenenter"",""0"",""4384""
","
","""event"",""trial"",""time""
""focus"",""0"",""1788""
","""event"",""trial"",""time""
""fullscreenenter"",""0"",""4384""
","
",null,"<div style=""font-size:60px;"">+</div>",NA,null,fixation,2020-06-22T15:05:55Z,NA,NA,NA,NA,NA,sub118
NA,mars-trial,44,198393,0.0-10.0-1.15,"""event"",""trial"",""time""
""focus"",""0"",""1788""
""fullscreenenter"",""0"",""4384""
","
","""event"",""trial"",""time""
""focus"",""0"",""1788""
","""event"",""trial"",""time""
""fullscreenenter"",""0"",""4384""
","
",8998.955000002752,<img style='border: 4px solid darkgrey;' src='img/tf1_16_M_ss3.jpeg'></img>,0,NA,exp,NA,0,<img src='img/tf1_16_T1_ss3_md.jpeg'></img>,0,TRUE,NA,sub118
NA,html-keyboard-response,45,198895,0.0-10.0-0.16,"""event"",""trial"",""time""
""focus"",""0"",""1788""
""fullscreenenter"",""0"",""4384""
","
","""event"",""trial"",""time""
""focus"",""0"",""1788""
","""event"",""trial"",""time""
""fullscreenenter"",""0"",""4384""
","
",null,"<div style=""font-size:60px;"">+</div>",NA,null,fixation,2020-06-22T15:06:05Z,NA,NA,NA,NA,NA,sub118
NA,mars-trial,46,216242,0.0-10.0-1.16,"""event"",""trial"",""time""
""focus"",""0"",""1788""
""fullscreenenter"",""0"",""4384""
","
","""event"",""trial"",""time""
""focus"",""0"",""1788""
","""event"",""trial"",""time""
""fullscreenenter"",""0"",""4384""
","
",16736.754999990808,<img style='border: 4px solid darkgrey;' src='img/tf1_17_M_ss1.jpeg'></img>,2,NA,exp,NA,0,<img src='img/tf1_17_T1_ss1_md.jpeg'></img>,0,TRUE,NA,sub118
NA,html-keyboard-response,47,216744,0.0-10.0-0.17,"""event"",""trial"",""time""
""focus"",""0"",""1788""
""fullscreenenter"",""0"",""4384""
","
","""event"",""trial"",""time""
""focus"",""0"",""1788""
","""event"",""trial"",""time""
""fullscreenenter"",""0"",""4384""
","
",null,"<div style=""font-size:60px;"">+</div>",NA,null,fixation,2020-06-22T15:06:23Z,NA,NA,NA,NA,NA,sub118
NA,mars-trial,48,231218,0.0-10.0-1.17,"""event"",""trial"",""time""
""focus"",""0"",""1788""
""fullscreenenter"",""0"",""4384""
","
","""event"",""trial"",""time""
""focus"",""0"",""1788""
","""event"",""trial"",""time""
""fullscreenenter"",""0"",""4384""
","
",13866.304999988643,<img style='border: 4px solid darkgrey;' src='img/tf1_18_M_ss2.jpeg'></img>,2,NA,exp,NA,0,<img src='img/tf1_18_T1_ss2_md.jpeg'></img>,0,TRUE,NA,sub118
NA,html-keyboard-response,49,231719,0.0-10.0-0.18,"""event"",""trial"",""time""
""focus"",""0"",""1788""
""fullscreenenter"",""0"",""4384""
","
","""event"",""trial"",""time""
""focus"",""0"",""1788""
","""event"",""trial"",""time""
""fullscreenenter"",""0"",""4384""
","
",null,"<div style=""font-size:60px;"">+</div>",NA,null,fixation,2020-06-22T15:06:38Z,NA,NA,NA,NA,NA,sub118
NA,mars-trial,50,238569,0.0-10.0-1.18,"""event"",""trial"",""time""
""focus"",""0"",""1788""
""fullscreenenter"",""0"",""4384""
","
","""event"",""trial"",""time""
""focus"",""0"",""1788""
","""event"",""trial"",""time""
""fullscreenenter"",""0"",""4384""
","
",6241.959999999381,<img style='border: 4px solid darkgrey;' src='img/tf1_19_M_ss3.jpeg'></img>,3,NA,exp,NA,0,<img src='img/tf1_19_T1_ss3_md.jpeg'></img>,0,TRUE,NA,sub118
NA,html-keyboard-response,51,239072,0.0-10.0-0.19,"""event"",""trial"",""time""
""focus"",""0"",""1788""
""fullscreenenter"",""0"",""4384""
","
","""event"",""trial"",""time""
""focus"",""0"",""1788""
","""event"",""trial"",""time""
""fullscreenenter"",""0"",""4384""
","
",null,"<div style=""font-size:60px;"">+</div>",NA,null,fixation,2020-06-22T15:06:46Z,NA,NA,NA,NA,NA,sub118
NA,mars-trial,52,246648,0.0-10.0-1.19,"""event"",""trial"",""time""
""focus"",""0"",""1788""
""fullscreenenter"",""0"",""4384""
","
","""event"",""trial"",""time""
""focus"",""0"",""1788""
","""event"",""trial"",""time""
""fullscreenenter"",""0"",""4384""
","
",6971.730000004754,<img style='border: 4px solid darkgrey;' src='img/tf1_20_M_ss1.jpeg'></img>,2,NA,exp,NA,0,<img src='img/tf1_20_T1_ss1_md.jpeg'></img>,0,TRUE,NA,sub118
NA,html-keyboard-response,53,247149,0.0-10.0-0.20,"""event"",""trial"",""time""
""focus"",""0"",""1788""
""fullscreenenter"",""0"",""4384""
","
","""event"",""trial"",""time""
""focus"",""0"",""1788""
","""event"",""trial"",""time""
""fullscreenenter"",""0"",""4384""
","
",null,"<div style=""font-size:60px;"">+</div>",NA,null,fixation,2020-06-22T15:06:54Z,NA,NA,NA,NA,NA,sub118
NA,mars-trial,54,272355,0.0-10.0-1.20,"""event"",""trial"",""time""
""focus"",""0"",""1788""
""fullscreenenter"",""0"",""4384""
","
","""event"",""trial"",""time""
""focus"",""0"",""1788""
","""event"",""trial"",""time""
""fullscreenenter"",""0"",""4384""
","
",24595.170000000508,<img style='border: 4px solid darkgrey;' src='img/tf1_21_M_ss2.jpeg'></img>,2,NA,exp,NA,1,<img src='img/tf1_21_T1_ss2_md.jpeg'></img>,0,FALSE,NA,sub118
NA,html-keyboard-response,55,272856,0.0-10.0-0.21,"""event"",""trial"",""time""
""focus"",""0"",""1788""
""fullscreenenter"",""0"",""4384""
","
","""event"",""trial"",""time""
""focus"",""0"",""1788""
","""event"",""trial"",""time""
""fullscreenenter"",""0"",""4384""
","
",null,"<div style=""font-size:60px;"">+</div>",NA,null,fixation,2020-06-22T15:07:19Z,NA,NA,NA,NA,NA,sub118
NA,mars-trial,56,279108,0.0-10.0-1.21,"""event"",""trial"",""time""
""focus"",""0"",""1788""
""fullscreenenter"",""0"",""4384""
","
","""event"",""trial"",""time""
""focus"",""0"",""1788""
","""event"",""trial"",""time""
""fullscreenenter"",""0"",""4384""
","
",5644.839999993565,<img style='border: 4px solid darkgrey;' src='img/tf1_22_M_ss3.jpeg'></img>,0,NA,exp,NA,0,<img src='img/tf1_22_T1_ss3_md.jpeg'></img>,0,TRUE,NA,sub118
NA,html-keyboard-response,57,279609,0.0-10.0-0.22,"""event"",""trial"",""time""
""focus"",""0"",""1788""
""fullscreenenter"",""0"",""4384""
","
","""event"",""trial"",""time""
""focus"",""0"",""1788""
","""event"",""trial"",""time""
""fullscreenenter"",""0"",""4384""
","
",null,"<div style=""font-size:60px;"">+</div>",NA,null,fixation,2020-06-22T15:07:26Z,NA,NA,NA,NA,NA,sub118
NA,mars-trial,58,291819,0.0-10.0-1.22,"""event"",""trial"",""time""
""focus"",""0"",""1788""
""fullscreenenter"",""0"",""4384""
","
","""event"",""trial"",""time""
""focus"",""0"",""1788""
","""event"",""trial"",""time""
""fullscreenenter"",""0"",""4384""
","
",11603.484999999637,<img style='border: 4px solid darkgrey;' src='img/tf1_23_M_ss1.jpeg'></img>,0,NA,exp,NA,0,<img src='img/tf1_23_T1_ss1_md.jpeg'></img>,0,TRUE,NA,sub118
NA,html-keyboard-response,59,292323,0.0-10.0-0.23,"""event"",""trial"",""time""
""focus"",""0"",""1788""
""fullscreenenter"",""0"",""4384""
","
","""event"",""trial"",""time""
""focus"",""0"",""1788""
","""event"",""trial"",""time""
""fullscreenenter"",""0"",""4384""
","
",null,"<div style=""font-size:60px;"">+</div>",NA,null,fixation,2020-06-22T15:07:39Z,NA,NA,NA,NA,NA,sub118
NA,mars-trial,60,305131,0.0-10.0-1.23,"""event"",""trial"",""time""
""focus"",""0"",""1788""
""fullscreenenter"",""0"",""4384""
","
","""event"",""trial"",""time""
""focus"",""0"",""1788""
","""event"",""trial"",""time""
""fullscreenenter"",""0"",""4384""
","
",12202.19999999972,<img style='border: 4px solid darkgrey;' src='img/tf1_24_M_ss2.jpeg'></img>,2,NA,exp,NA,1,<img src='img/tf1_24_T1_ss2_md.jpeg'></img>,0,FALSE,NA,sub118
NA,html-keyboard-response,61,305632,0.0-10.0-0.24,"""event"",""trial"",""time""
""focus"",""0"",""1788""
""fullscreenenter"",""0"",""4384""
","
","""event"",""trial"",""time""
""focus"",""0"",""1788""
","""event"",""trial"",""time""
""fullscreenenter"",""0"",""4384""
","
",null,"<div style=""font-size:60px;"">+</div>",NA,null,fixation,2020-06-22T15:07:52Z,NA,NA,NA,NA,NA,sub118
NA,mars-trial,62,315332,0.0-10.0-1.24,"""event"",""trial"",""time""
""focus"",""0"",""1788""
""fullscreenenter"",""0"",""4384""
","
","""event"",""trial"",""time""
""focus"",""0"",""1788""
","""event"",""trial"",""time""
""fullscreenenter"",""0"",""4384""
","
",9092.249999986961,<img style='border: 4px solid darkgrey;' src='img/tf1_25_M_ss3.jpeg'></img>,0,NA,exp,NA,0,<img src='img/tf1_25_T1_ss3_md.jpeg'></img>,0,TRUE,NA,sub118
NA,html-keyboard-response,63,315833,0.0-10.0-0.25,"""event"",""trial"",""time""
""focus"",""0"",""1788""
""fullscreenenter"",""0"",""4384""
","
","""event"",""trial"",""time""
""focus"",""0"",""1788""
","""event"",""trial"",""time""
""fullscreenenter"",""0"",""4384""
","
",null,"<div style=""font-size:60px;"">+</div>",NA,null,fixation,2020-06-22T15:08:02Z,NA,NA,NA,NA,NA,sub118
NA,mars-trial,64,343936,0.0-10.0-1.25,"""event"",""trial"",""time""
""focus"",""0"",""1788""
""fullscreenenter"",""0"",""4384""
","
","""event"",""trial"",""time""
""focus"",""0"",""1788""
","""event"",""trial"",""time""
""fullscreenenter"",""0"",""4384""
","
",27492.895000003045,<img style='border: 4px solid darkgrey;' src='img/tf1_26_M_ss1.jpeg'></img>,2,NA,exp,NA,2,<img src='img/tf1_26_T1_ss1_md.jpeg'></img>,0,FALSE,NA,sub118
NA,html-keyboard-response,65,344439,0.0-10.0-0.26,"""event"",""trial"",""time""
""focus"",""0"",""1788""
""fullscreenenter"",""0"",""4384""
","
","""event"",""trial"",""time""
""focus"",""0"",""1788""
","""event"",""trial"",""time""
""fullscreenenter"",""0"",""4384""
","
",null,"<div style=""font-size:60px;"">+</div>",NA,null,fixation,2020-06-22T15:08:31Z,NA,NA,NA,NA,NA,sub118
NA,mars-trial,66,358787,0.0-10.0-1.26,"""event"",""trial"",""time""
""focus"",""0"",""1788""
""fullscreenenter"",""0"",""4384""
","
","""event"",""trial"",""time""
""focus"",""0"",""1788""
","""event"",""trial"",""time""
""fullscreenenter"",""0"",""4384""
","
",13738.775000005262,<img style='border: 4px solid darkgrey;' src='img/tf1_27_M_ss2.jpeg'></img>,3,NA,exp,NA,0,<img src='img/tf1_27_T1_ss2_md.jpeg'></img>,0,TRUE,NA,sub118
NA,html-keyboard-response,67,359289,0.0-10.0-0.27,"""event"",""trial"",""time""
""focus"",""0"",""1788""
""fullscreenenter"",""0"",""4384""
","
","""event"",""trial"",""time""
""focus"",""0"",""1788""
","""event"",""trial"",""time""
""fullscreenenter"",""0"",""4384""
","
",null,"<div style=""font-size:60px;"">+</div>",NA,null,fixation,2020-06-22T15:08:46Z,NA,NA,NA,NA,NA,sub118
NA,mars-trial,68,375276,0.0-10.0-1.27,"""event"",""trial"",""time""
""focus"",""0"",""1788""
""fullscreenenter"",""0"",""4384""
","
","""event"",""trial"",""time""
""focus"",""0"",""1788""
","""event"",""trial"",""time""
""fullscreenenter"",""0"",""4384""
","
",15377.569999996922,<img style='border: 4px solid darkgrey;' src='img/tf1_28_M_ss3.jpeg'></img>,0,NA,exp,NA,0,<img src='img/tf1_28_T1_ss3_md.jpeg'></img>,0,TRUE,NA,sub118
NA,html-keyboard-response,69,375777,0.0-10.0-0.28,"""event"",""trial"",""time""
""focus"",""0"",""1788""
""fullscreenenter"",""0"",""4384""
","
","""event"",""trial"",""time""
""focus"",""0"",""1788""
","""event"",""trial"",""time""
""fullscreenenter"",""0"",""4384""
","
",null,"<div style=""font-size:60px;"">+</div>",NA,null,fixation,2020-06-22T15:09:02Z,NA,NA,NA,NA,NA,sub118
NA,mars-trial,70,400477,0.0-10.0-1.28,"""event"",""trial"",""time""
""focus"",""0"",""1788""
""fullscreenenter"",""0"",""4384""
","
","""event"",""trial"",""time""
""focus"",""0"",""1788""
","""event"",""trial"",""time""
""fullscreenenter"",""0"",""4384""
","
",24094.15999999328,<img style='border: 4px solid darkgrey;' src='img/tf1_29_M_ss1.jpeg'></img>,3,NA,exp,NA,0,<img src='img/tf1_29_T1_ss1_md.jpeg'></img>,0,TRUE,NA,sub118
NA,html-keyboard-response,71,400980,0.0-10.0-0.29,"""event"",""trial"",""time""
""focus"",""0"",""1788""
""fullscreenenter"",""0"",""4384""
","
","""event"",""trial"",""time""
""focus"",""0"",""1788""
","""event"",""trial"",""time""
""fullscreenenter"",""0"",""4384""
","
",null,"<div style=""font-size:60px;"">+</div>",NA,null,fixation,2020-06-22T15:09:27Z,NA,NA,NA,NA,NA,sub118
NA,mars-trial,72,411354,0.0-10.0-1.29,"""event"",""trial"",""time""
""focus"",""0"",""1788""
""fullscreenenter"",""0"",""4384""
","
","""event"",""trial"",""time""
""focus"",""0"",""1788""
","""event"",""trial"",""time""
""fullscreenenter"",""0"",""4384""
","
",9762.48000000487,<img style='border: 4px solid darkgrey;' src='img/tf1_30_M_ss2.jpeg'></img>,1,NA,exp,NA,0,<img src='img/tf1_30_T1_ss2_md.jpeg'></img>,0,TRUE,NA,sub118
NA,html-keyboard-response,73,411855,0.0-10.0-0.30,"""event"",""trial"",""time""
""focus"",""0"",""1788""
""fullscreenenter"",""0"",""4384""
","
","""event"",""trial"",""time""
""focus"",""0"",""1788""
","""event"",""trial"",""time""
""fullscreenenter"",""0"",""4384""
","
",null,"<div style=""font-size:60px;"">+</div>",NA,null,fixation,2020-06-22T15:09:38Z,NA,NA,NA,NA,NA,sub118
NA,mars-trial,74,433834,0.0-10.0-1.30,"""event"",""trial"",""time""
""focus"",""0"",""1788""
""fullscreenenter"",""0"",""4384""
","
","""event"",""trial"",""time""
""focus"",""0"",""1788""
","""event"",""trial"",""time""
""fullscreenenter"",""0"",""4384""
","
",21368.170000001555,<img style='border: 4px solid darkgrey;' src='img/tf1_31_M_ss3.jpeg'></img>,3,NA,exp,NA,0,<img src='img/tf1_31_T1_ss3_md.jpeg'></img>,0,TRUE,NA,sub118
NA,html-keyboard-response,75,434335,0.0-10.0-0.31,"""event"",""trial"",""time""
""focus"",""0"",""1788""
""fullscreenenter"",""0"",""4384""
","
","""event"",""trial"",""time""
""focus"",""0"",""1788""
","""event"",""trial"",""time""
""fullscreenenter"",""0"",""4384""
","
",null,"<div style=""font-size:60px;"">+</div>",NA,null,fixation,2020-06-22T15:10:01Z,NA,NA,NA,NA,NA,sub118
NA,mars-trial,76,441107,0.0-10.0-1.31,"""event"",""trial"",""time""
""focus"",""0"",""1788""
""fullscreenenter"",""0"",""4384""
","
","""event"",""trial"",""time""
""focus"",""0"",""1788""
","""event"",""trial"",""time""
""fullscreenenter"",""0"",""4384""
","
",6160.919999994803,<img style='border: 4px solid darkgrey;' src='img/tf1_32_M_ss1.jpeg'></img>,0,NA,exp,NA,0,<img src='img/tf1_32_T1_ss1_md.jpeg'></img>,0,TRUE,NA,sub118
NA,html-keyboard-response,77,441608,0.0-10.0-0.32,"""event"",""trial"",""time""
""focus"",""0"",""1788""
""fullscreenenter"",""0"",""4384""
","
","""event"",""trial"",""time""
""focus"",""0"",""1788""
","""event"",""trial"",""time""
""fullscreenenter"",""0"",""4384""
","
",null,"<div style=""font-size:60px;"">+</div>",NA,null,fixation,2020-06-22T15:10:08Z,NA,NA,NA,NA,NA,sub118
NA,mars-trial,78,448160,0.0-10.0-1.32,"""event"",""trial"",""time""
""focus"",""0"",""1788""
""fullscreenenter"",""0"",""4384""
","
","""event"",""trial"",""time""
""focus"",""0"",""1788""
","""event"",""trial"",""time""
""fullscreenenter"",""0"",""4384""
","
",5943.204999988666,<img style='border: 4px solid darkgrey;' src='img/tf1_33_M_ss2.jpeg'></img>,0,NA,exp,NA,0,<img src='img/tf1_33_T1_ss2_md.jpeg'></img>,0,TRUE,NA,sub118
NA,html-keyboard-response,79,448661,0.0-10.0-0.33,"""event"",""trial"",""time""
""focus"",""0"",""1788""
""fullscreenenter"",""0"",""4384""
","
","""event"",""trial"",""time""
""focus"",""0"",""1788""
","""event"",""trial"",""time""
""fullscreenenter"",""0"",""4384""
","
",null,"<div style=""font-size:60px;"">+</div>",NA,null,fixation,2020-06-22T15:10:15Z,NA,NA,NA,NA,NA,sub118
NA,mars-trial,80,467998,0.0-10.0-1.33,"""event"",""trial"",""time""
""focus"",""0"",""1788""
""fullscreenenter"",""0"",""4384""
","
","""event"",""trial"",""time""
""focus"",""0"",""1788""
","""event"",""trial"",""time""
""fullscreenenter"",""0"",""4384""
","
",18733.15499999444,<img style='border: 4px solid darkgrey;' src='img/tf1_34_M_ss3.jpeg'></img>,1,NA,exp,NA,0,<img src='img/tf1_34_T1_ss3_md.jpeg'></img>,0,TRUE,NA,sub118
NA,html-keyboard-response,81,468500,0.0-10.0-0.34,"""event"",""trial"",""time""
""focus"",""0"",""1788""
""fullscreenenter"",""0"",""4384""
","
","""event"",""trial"",""time""
""focus"",""0"",""1788""
","""event"",""trial"",""time""
""fullscreenenter"",""0"",""4384""
","
",null,"<div style=""font-size:60px;"">+</div>",NA,null,fixation,2020-06-22T15:10:35Z,NA,NA,NA,NA,NA,sub118
NA,mars-trial,82,487825,0.0-10.0-1.34,"""event"",""trial"",""time""
""focus"",""0"",""1788""
""fullscreenenter"",""0"",""4384""
","
","""event"",""trial"",""time""
""focus"",""0"",""1788""
","""event"",""trial"",""time""
""fullscreenenter"",""0"",""4384""
","
",18717.655000000377,<img style='border: 4px solid darkgrey;' src='img/tf1_35_M_ss1.jpeg'></img>,3,NA,exp,NA,0,<img src='img/tf1_35_T1_ss1_md.jpeg'></img>,0,TRUE,NA,sub118
NA,html-keyboard-response,83,488327,0.0-10.0-0.35,"""event"",""trial"",""time""
""focus"",""0"",""1788""
""fullscreenenter"",""0"",""4384""
","
","""event"",""trial"",""time""
""focus"",""0"",""1788""
","""event"",""trial"",""time""
""fullscreenenter"",""0"",""4384""
","
",null,"<div style=""font-size:60px;"">+</div>",NA,null,fixation,2020-06-22T15:10:55Z,NA,NA,NA,NA,NA,sub118
NA,mars-trial,84,500760,0.0-10.0-1.35,"""event"",""trial"",""time""
""focus"",""0"",""1788""
""fullscreenenter"",""0"",""4384""
","
","""event"",""trial"",""time""
""focus"",""0"",""1788""
","""event"",""trial"",""time""
""fullscreenenter"",""0"",""4384""
","
",11826.384999993024,<img style='border: 4px solid darkgrey;' src='img/tf1_36_M_ss2.jpeg'></img>,2,NA,exp,NA,0,<img src='img/tf1_36_T1_ss2_md.jpeg'></img>,0,TRUE,NA,sub118
NA,html-keyboard-response,85,501261,0.0-10.0-0.36,"""event"",""trial"",""time""
""focus"",""0"",""1788""
""fullscreenenter"",""0"",""4384""
","
","""event"",""trial"",""time""
""focus"",""0"",""1788""
","""event"",""trial"",""time""
""fullscreenenter"",""0"",""4384""
","
",null,"<div style=""font-size:60px;"">+</div>",NA,null,fixation,2020-06-22T15:11:08Z,NA,NA,NA,NA,NA,sub118
NA,mars-trial,86,519566,0.0-10.0-1.36,"""event"",""trial"",""time""
""focus"",""0"",""1788""
""fullscreenenter"",""0"",""4384""
","
","""event"",""trial"",""time""
""focus"",""0"",""1788""
","""event"",""trial"",""time""
""fullscreenenter"",""0"",""4384""
","
",NA,NA,NA,NA,exp,NA,NA,<img src='img/tf1_37_T1_ss3_md.jpeg'></img>,0,FALSE,NA,sub118
NA,html-keyboard-response,87,520067,0.0-10.0-0.37,"""event"",""trial"",""time""
""focus"",""0"",""1788""
""fullscreenenter"",""0"",""4384""
","
","""event"",""trial"",""time""
""focus"",""0"",""1788""
","""event"",""trial"",""time""
""fullscreenenter"",""0"",""4384""
","
",null,"<div style=""font-size:60px;"">+</div>",NA,null,fixation,2020-06-22T15:11:27Z,NA,NA,NA,NA,NA,sub118
NA,audio-button-response,88,524394,0.0-11.0,"""event"",""trial"",""time""
""focus"",""0"",""1788""
""fullscreenenter"",""0"",""4384""
","
","""event"",""trial"",""time""
""focus"",""0"",""1788""
","""event"",""trial"",""time""
""fullscreenenter"",""0"",""4384""
","
",4225.464999995893,audio/mars_instructions_slide5.wav,0,NA,NA,NA,NA,NA,NA,NA,NA,sub118
