success,trial_type,trial_index,time_elapsed,internal_node_id,interactions,blur_events,focus_events,fullscreenenter_events,fullscreenexit_events,rt,stimulus,button_pressed,key_press,part,timestamp,unshuffled_button,correct_response,correct_button,correct,value,subject_id
TRUE,fullscreen,0,38311,0.0-0.0,"""event"",""trial"",""time""
""blur"",""0"",""0""
""focus"",""0"",""29181""
""fullscreenenter"",""0"",""37373""
","""event"",""trial"",""time""
""blur"",""0"",""0""
","""event"",""trial"",""time""
""focus"",""0"",""29181""
","""event"",""trial"",""time""
""fullscreenenter"",""0"",""37373""
","
",NA,NA,NA,NA,NA,NA,NA,NA,NA,NA,NA,sub29
NA,pavlovia,1,38321,0.0-1.0,"""event"",""trial"",""time""
""blur"",""0"",""0""
""focus"",""0"",""29181""
""fullscreenenter"",""0"",""37373""
","""event"",""trial"",""time""
""blur"",""0"",""0""
","""event"",""trial"",""time""
""focus"",""0"",""29181""
","""event"",""trial"",""time""
""fullscreenenter"",""0"",""37373""
","
",NA,NA,NA,NA,NA,NA,NA,NA,NA,NA,NA,sub29
NA,html-button-response,2,41570,0.0-2.0,"""event"",""trial"",""time""
""blur"",""0"",""0""
""focus"",""0"",""29181""
""fullscreenenter"",""0"",""37373""
","""event"",""trial"",""time""
""blur"",""0"",""0""
","""event"",""trial"",""time""
""focus"",""0"",""29181""
","""event"",""trial"",""time""
""fullscreenenter"",""0"",""37373""
","
",3244.1400000243448,<p>Welcome! Press START to begin.</p><br>,0,NA,NA,NA,NA,NA,NA,NA,NA,sub29
NA,audio-button-response,3,55574,0.0-3.0,"""event"",""trial"",""time""
""blur"",""0"",""0""
""focus"",""0"",""29181""
""fullscreenenter"",""0"",""37373""
","""event"",""trial"",""time""
""blur"",""0"",""0""
","""event"",""trial"",""time""
""focus"",""0"",""29181""
","""event"",""trial"",""time""
""fullscreenenter"",""0"",""37373""
","
",13997.444999986328,audio/mars_instructions_slide2.wav,0,NA,NA,NA,NA,NA,NA,NA,NA,sub29
NA,audio-button-response,4,72626,0.0-4.0,"""event"",""trial"",""time""
""blur"",""0"",""0""
""focus"",""0"",""29181""
""fullscreenenter"",""0"",""37373""
","""event"",""trial"",""time""
""blur"",""0"",""0""
","""event"",""trial"",""time""
""focus"",""0"",""29181""
","""event"",""trial"",""time""
""fullscreenenter"",""0"",""37373""
","
",17050.03000004217,audio/mars_instructions_slide3.wav,0,NA,NA,NA,NA,NA,NA,NA,NA,sub29
NA,html-keyboard-response,5,73132,0.0-5.0-0.0,"""event"",""trial"",""time""
""blur"",""0"",""0""
""focus"",""0"",""29181""
""fullscreenenter"",""0"",""37373""
","""event"",""trial"",""time""
""blur"",""0"",""0""
","""event"",""trial"",""time""
""focus"",""0"",""29181""
","""event"",""trial"",""time""
""fullscreenenter"",""0"",""37373""
","
",null,"<div style=""font-size:60px;"">+</div>",NA,null,fixation,2020-06-12T20:32:49Z,NA,NA,NA,NA,NA,sub29
NA,mars-trial,6,77965,0.0-5.0-1.0,"""event"",""trial"",""time""
""blur"",""0"",""0""
""focus"",""0"",""29181""
""fullscreenenter"",""0"",""37373""
","""event"",""trial"",""time""
""blur"",""0"",""0""
","""event"",""trial"",""time""
""focus"",""0"",""29181""
","""event"",""trial"",""time""
""fullscreenenter"",""0"",""37373""
","
",2720.7000000053085,<img style='border: 4px solid darkgrey;' src='practice/pt1_M1.png'></img>,0,NA,practice,NA,2,<img src='practice/pt1_T1.png'></img>,0,FALSE,NA,sub29
NA,html-keyboard-response,7,78471,0.0-5.1-0.1,"""event"",""trial"",""time""
""blur"",""0"",""0""
""focus"",""0"",""29181""
""fullscreenenter"",""0"",""37373""
","""event"",""trial"",""time""
""blur"",""0"",""0""
","""event"",""trial"",""time""
""focus"",""0"",""29181""
","""event"",""trial"",""time""
""fullscreenenter"",""0"",""37373""
","
",null,"<div style=""font-size:60px;"">+</div>",NA,null,fixation,2020-06-12T20:32:55Z,NA,NA,NA,NA,NA,sub29
NA,mars-trial,8,86580,0.0-5.1-1.1,"""event"",""trial"",""time""
""blur"",""0"",""0""
""focus"",""0"",""29181""
""fullscreenenter"",""0"",""37373""
","""event"",""trial"",""time""
""blur"",""0"",""0""
","""event"",""trial"",""time""
""focus"",""0"",""29181""
","""event"",""trial"",""time""
""fullscreenenter"",""0"",""37373""
","
",6001.685000024736,<img style='border: 4px solid darkgrey;' src='practice/pt1_M1.png'></img>,3,NA,practice,NA,3,<img src='practice/pt1_T1.png'></img>,0,FALSE,NA,sub29
NA,html-keyboard-response,9,87082,0.0-5.2-0.2,"""event"",""trial"",""time""
""blur"",""0"",""0""
""focus"",""0"",""29181""
""fullscreenenter"",""0"",""37373""
","""event"",""trial"",""time""
""blur"",""0"",""0""
","""event"",""trial"",""time""
""focus"",""0"",""29181""
","""event"",""trial"",""time""
""fullscreenenter"",""0"",""37373""
","
",null,"<div style=""font-size:60px;"">+</div>",NA,null,fixation,2020-06-12T20:33:03Z,NA,NA,NA,NA,NA,sub29
NA,mars-trial,10,96387,0.0-5.2-1.2,"""event"",""trial"",""time""
""blur"",""0"",""0""
""focus"",""0"",""29181""
""fullscreenenter"",""0"",""37373""
","""event"",""trial"",""time""
""blur"",""0"",""0""
","""event"",""trial"",""time""
""focus"",""0"",""29181""
","""event"",""trial"",""time""
""fullscreenenter"",""0"",""37373""
","
",7194.614999985788,<img style='border: 4px solid darkgrey;' src='practice/pt1_M1.png'></img>,0,NA,practice,NA,2,<img src='practice/pt1_T1.png'></img>,0,FALSE,NA,sub29
NA,html-keyboard-response,11,96888,0.0-5.3-0.3,"""event"",""trial"",""time""
""blur"",""0"",""0""
""focus"",""0"",""29181""
""fullscreenenter"",""0"",""37373""
","""event"",""trial"",""time""
""blur"",""0"",""0""
","""event"",""trial"",""time""
""focus"",""0"",""29181""
","""event"",""trial"",""time""
""fullscreenenter"",""0"",""37373""
","
",null,"<div style=""font-size:60px;"">+</div>",NA,null,fixation,2020-06-12T20:33:13Z,NA,NA,NA,NA,NA,sub29
NA,mars-trial,12,102725,0.0-5.3-1.3,"""event"",""trial"",""time""
""blur"",""0"",""0""
""focus"",""0"",""29181""
""fullscreenenter"",""0"",""37373""
","""event"",""trial"",""time""
""blur"",""0"",""0""
","""event"",""trial"",""time""
""focus"",""0"",""29181""
","""event"",""trial"",""time""
""fullscreenenter"",""0"",""37373""
","
",3726.9049999886192,<img style='border: 4px solid darkgrey;' src='practice/pt1_M1.png'></img>,3,NA,practice,NA,0,<img src='practice/pt1_T1.png'></img>,0,TRUE,NA,sub29
NA,html-keyboard-response,13,103229,0.0-6.0-0.0,"""event"",""trial"",""time""
""blur"",""0"",""0""
""focus"",""0"",""29181""
""fullscreenenter"",""0"",""37373""
","""event"",""trial"",""time""
""blur"",""0"",""0""
","""event"",""trial"",""time""
""focus"",""0"",""29181""
","""event"",""trial"",""time""
""fullscreenenter"",""0"",""37373""
","
",null,"<div style=""font-size:60px;"">+</div>",NA,null,fixation,2020-06-12T20:33:19Z,NA,NA,NA,NA,NA,sub29
NA,mars-trial,14,108162,0.0-6.0-1.0,"""event"",""trial"",""time""
""blur"",""0"",""0""
""focus"",""0"",""29181""
""fullscreenenter"",""0"",""37373""
","""event"",""trial"",""time""
""blur"",""0"",""0""
","""event"",""trial"",""time""
""focus"",""0"",""29181""
","""event"",""trial"",""time""
""fullscreenenter"",""0"",""37373""
","
",2824.900000006892,<img style='border: 4px solid darkgrey;' src='practice/pt2_M1.png'></img>,0,NA,practice,NA,0,<img src='practice/pt2_T1.png'></img>,0,TRUE,NA,sub29
NA,html-keyboard-response,15,108665,0.0-7.0-0.0,"""event"",""trial"",""time""
""blur"",""0"",""0""
""focus"",""0"",""29181""
""fullscreenenter"",""0"",""37373""
","""event"",""trial"",""time""
""blur"",""0"",""0""
","""event"",""trial"",""time""
""focus"",""0"",""29181""
","""event"",""trial"",""time""
""fullscreenenter"",""0"",""37373""
","
",null,"<div style=""font-size:60px;"">+</div>",NA,null,fixation,2020-06-12T20:33:25Z,NA,NA,NA,NA,NA,sub29
NA,mars-trial,16,112379,0.0-7.0-1.0,"""event"",""trial"",""time""
""blur"",""0"",""0""
""focus"",""0"",""29181""
""fullscreenenter"",""0"",""37373""
","""event"",""trial"",""time""
""blur"",""0"",""0""
","""event"",""trial"",""time""
""focus"",""0"",""29181""
","""event"",""trial"",""time""
""fullscreenenter"",""0"",""37373""
","
",1605.504999984987,<img style='border: 4px solid darkgrey;' src='practice/pt3_M1.png'></img>,2,NA,practice,NA,0,<img src='practice/pt3_T1.png'></img>,0,TRUE,NA,sub29
NA,audio-button-response,17,117302,0.0-8.0,"""event"",""trial"",""time""
""blur"",""0"",""0""
""focus"",""0"",""29181""
""fullscreenenter"",""0"",""37373""
","""event"",""trial"",""time""
""blur"",""0"",""0""
","""event"",""trial"",""time""
""focus"",""0"",""29181""
","""event"",""trial"",""time""
""fullscreenenter"",""0"",""37373""
","
",4918.405000003986,audio/mars_instructions_slide4.wav,0,NA,NA,NA,NA,NA,NA,NA,NA,sub29
NA,call-function,18,117306,0.0-9.0,"""event"",""trial"",""time""
""blur"",""0"",""0""
""focus"",""0"",""29181""
""fullscreenenter"",""0"",""37373""
","""event"",""trial"",""time""
""blur"",""0"",""0""
","""event"",""trial"",""time""
""focus"",""0"",""29181""
","""event"",""trial"",""time""
""fullscreenenter"",""0"",""37373""
","
",NA,NA,NA,NA,NA,NA,NA,NA,NA,NA,NA,sub29
NA,html-keyboard-response,19,117808,0.0-10.0-0.0,"""event"",""trial"",""time""
""blur"",""0"",""0""
""focus"",""0"",""29181""
""fullscreenenter"",""0"",""37373""
","""event"",""trial"",""time""
""blur"",""0"",""0""
","""event"",""trial"",""time""
""focus"",""0"",""29181""
","""event"",""trial"",""time""
""fullscreenenter"",""0"",""37373""
","
",null,"<div style=""font-size:60px;"">+</div>",NA,null,fixation,2020-06-12T20:33:34Z,NA,NA,NA,NA,NA,sub29
NA,mars-trial,20,119956,0.0-10.0-1.0,"""event"",""trial"",""time""
""blur"",""0"",""0""
""focus"",""0"",""29181""
""fullscreenenter"",""0"",""37373""
","""event"",""trial"",""time""
""blur"",""0"",""0""
","""event"",""trial"",""time""
""focus"",""0"",""29181""
","""event"",""trial"",""time""
""fullscreenenter"",""0"",""37373""
","
",1535.4650000226684,<img style='border: 4px solid darkgrey;' src='img/tf1_1_M_ss3.jpeg'></img>,3,NA,exp,NA,0,<img src='img/tf1_1_T1_ss3_md.jpeg'></img>,0,TRUE,NA,sub29
NA,html-keyboard-response,21,120459,0.0-10.0-0.1,"""event"",""trial"",""time""
""blur"",""0"",""0""
""focus"",""0"",""29181""
""fullscreenenter"",""0"",""37373""
","""event"",""trial"",""time""
""blur"",""0"",""0""
","""event"",""trial"",""time""
""focus"",""0"",""29181""
","""event"",""trial"",""time""
""fullscreenenter"",""0"",""37373""
","
",null,"<div style=""font-size:60px;"">+</div>",NA,null,fixation,2020-06-12T20:33:36Z,NA,NA,NA,NA,NA,sub29
NA,mars-trial,22,122902,0.0-10.0-1.1,"""event"",""trial"",""time""
""blur"",""0"",""0""
""focus"",""0"",""29181""
""fullscreenenter"",""0"",""37373""
","""event"",""trial"",""time""
""blur"",""0"",""0""
","""event"",""trial"",""time""
""focus"",""0"",""29181""
","""event"",""trial"",""time""
""fullscreenenter"",""0"",""37373""
","
",1836.1799999838695,<img style='border: 4px solid darkgrey;' src='img/tf1_2_M_ss1.jpeg'></img>,3,NA,exp,NA,0,<img src='img/tf1_2_T1_ss1_md.jpeg'></img>,0,TRUE,NA,sub29
NA,html-keyboard-response,23,123405,0.0-10.0-0.2,"""event"",""trial"",""time""
""blur"",""0"",""0""
""focus"",""0"",""29181""
""fullscreenenter"",""0"",""37373""
","""event"",""trial"",""time""
""blur"",""0"",""0""
","""event"",""trial"",""time""
""focus"",""0"",""29181""
","""event"",""trial"",""time""
""fullscreenenter"",""0"",""37373""
","
",null,"<div style=""font-size:60px;"">+</div>",NA,null,fixation,2020-06-12T20:33:39Z,NA,NA,NA,NA,NA,sub29
NA,mars-trial,24,126708,0.0-10.0-1.2,"""event"",""trial"",""time""
""blur"",""0"",""0""
""focus"",""0"",""29181""
""fullscreenenter"",""0"",""37373""
","""event"",""trial"",""time""
""blur"",""0"",""0""
","""event"",""trial"",""time""
""focus"",""0"",""29181""
","""event"",""trial"",""time""
""fullscreenenter"",""0"",""37373""
","
",2692.5300000002608,<img style='border: 4px solid darkgrey;' src='img/tf1_3_M_ss2.jpeg'></img>,0,NA,exp,NA,0,<img src='img/tf1_3_T1_ss2_md.jpeg'></img>,0,TRUE,NA,sub29
NA,html-keyboard-response,25,127211,0.0-10.0-0.3,"""event"",""trial"",""time""
""blur"",""0"",""0""
""focus"",""0"",""29181""
""fullscreenenter"",""0"",""37373""
","""event"",""trial"",""time""
""blur"",""0"",""0""
","""event"",""trial"",""time""
""focus"",""0"",""29181""
","""event"",""trial"",""time""
""fullscreenenter"",""0"",""37373""
","
",null,"<div style=""font-size:60px;"">+</div>",NA,null,fixation,2020-06-12T20:33:43Z,NA,NA,NA,NA,NA,sub29
NA,mars-trial,26,130767,0.0-10.0-1.3,"""event"",""trial"",""time""
""blur"",""0"",""0""
""focus"",""0"",""29181""
""fullscreenenter"",""0"",""37373""
","""event"",""trial"",""time""
""blur"",""0"",""0""
","""event"",""trial"",""time""
""focus"",""0"",""29181""
","""event"",""trial"",""time""
""fullscreenenter"",""0"",""37373""
","
",2945.5650000018068,<img style='border: 4px solid darkgrey;' src='img/tf1_4_M_ss3.jpeg'></img>,2,NA,exp,NA,0,<img src='img/tf1_4_T1_ss3_md.jpeg'></img>,0,TRUE,NA,sub29
NA,html-keyboard-response,27,131270,0.0-10.0-0.4,"""event"",""trial"",""time""
""blur"",""0"",""0""
""focus"",""0"",""29181""
""fullscreenenter"",""0"",""37373""
","""event"",""trial"",""time""
""blur"",""0"",""0""
","""event"",""trial"",""time""
""focus"",""0"",""29181""
","""event"",""trial"",""time""
""fullscreenenter"",""0"",""37373""
","
",null,"<div style=""font-size:60px;"">+</div>",NA,null,fixation,2020-06-12T20:33:47Z,NA,NA,NA,NA,NA,sub29
NA,mars-trial,28,135207,0.0-10.0-1.4,"""event"",""trial"",""time""
""blur"",""0"",""0""
""focus"",""0"",""29181""
""fullscreenenter"",""0"",""37373""
","""event"",""trial"",""time""
""blur"",""0"",""0""
","""event"",""trial"",""time""
""focus"",""0"",""29181""
","""event"",""trial"",""time""
""fullscreenenter"",""0"",""37373""
","
",3328.5499999765307,<img style='border: 4px solid darkgrey;' src='img/tf1_5_M_ss1.jpeg'></img>,2,NA,exp,NA,0,<img src='img/tf1_5_T1_ss1_md.jpeg'></img>,0,TRUE,NA,sub29
NA,html-keyboard-response,29,135710,0.0-10.0-0.5,"""event"",""trial"",""time""
""blur"",""0"",""0""
""focus"",""0"",""29181""
""fullscreenenter"",""0"",""37373""
","""event"",""trial"",""time""
""blur"",""0"",""0""
","""event"",""trial"",""time""
""focus"",""0"",""29181""
","""event"",""trial"",""time""
""fullscreenenter"",""0"",""37373""
","
",null,"<div style=""font-size:60px;"">+</div>",NA,null,fixation,2020-06-12T20:33:52Z,NA,NA,NA,NA,NA,sub29
NA,mars-trial,30,144745,0.0-10.0-1.5,"""event"",""trial"",""time""
""blur"",""0"",""0""
""focus"",""0"",""29181""
""fullscreenenter"",""0"",""37373""
","""event"",""trial"",""time""
""blur"",""0"",""0""
","""event"",""trial"",""time""
""focus"",""0"",""29181""
","""event"",""trial"",""time""
""fullscreenenter"",""0"",""37373""
","
",8425.175000040326,<img style='border: 4px solid darkgrey;' src='img/tf1_6_M_ss2.jpeg'></img>,2,NA,exp,NA,0,<img src='img/tf1_6_T1_ss2_md.jpeg'></img>,0,TRUE,NA,sub29
NA,html-keyboard-response,31,145248,0.0-10.0-0.6,"""event"",""trial"",""time""
""blur"",""0"",""0""
""focus"",""0"",""29181""
""fullscreenenter"",""0"",""37373""
","""event"",""trial"",""time""
""blur"",""0"",""0""
","""event"",""trial"",""time""
""focus"",""0"",""29181""
","""event"",""trial"",""time""
""fullscreenenter"",""0"",""37373""
","
",null,"<div style=""font-size:60px;"">+</div>",NA,null,fixation,2020-06-12T20:34:01Z,NA,NA,NA,NA,NA,sub29
NA,mars-trial,32,150313,0.0-10.0-1.6,"""event"",""trial"",""time""
""blur"",""0"",""0""
""focus"",""0"",""29181""
""fullscreenenter"",""0"",""37373""
","""event"",""trial"",""time""
""blur"",""0"",""0""
","""event"",""trial"",""time""
""focus"",""0"",""29181""
","""event"",""trial"",""time""
""fullscreenenter"",""0"",""37373""
","
",4454.264999949373,<img style='border: 4px solid darkgrey;' src='img/tf1_7_M_ss3.jpeg'></img>,3,NA,exp,NA,0,<img src='img/tf1_7_T1_ss3_md.jpeg'></img>,0,TRUE,NA,sub29
NA,html-keyboard-response,33,150817,0.0-10.0-0.7,"""event"",""trial"",""time""
""blur"",""0"",""0""
""focus"",""0"",""29181""
""fullscreenenter"",""0"",""37373""
","""event"",""trial"",""time""
""blur"",""0"",""0""
","""event"",""trial"",""time""
""focus"",""0"",""29181""
","""event"",""trial"",""time""
""fullscreenenter"",""0"",""37373""
","
",null,"<div style=""font-size:60px;"">+</div>",NA,null,fixation,2020-06-12T20:34:07Z,NA,NA,NA,NA,NA,sub29
NA,mars-trial,34,158330,0.0-10.0-1.7,"""event"",""trial"",""time""
""blur"",""0"",""0""
""focus"",""0"",""29181""
""fullscreenenter"",""0"",""37373""
","""event"",""trial"",""time""
""blur"",""0"",""0""
","""event"",""trial"",""time""
""focus"",""0"",""29181""
","""event"",""trial"",""time""
""fullscreenenter"",""0"",""37373""
","
",6902.694999997038,<img style='border: 4px solid darkgrey;' src='img/tf1_8_M_ss1.jpeg'></img>,2,NA,exp,NA,0,<img src='img/tf1_8_T1_ss1_md.jpeg'></img>,0,TRUE,NA,sub29
NA,html-keyboard-response,35,158832,0.0-10.0-0.8,"""event"",""trial"",""time""
""blur"",""0"",""0""
""focus"",""0"",""29181""
""fullscreenenter"",""0"",""37373""
","""event"",""trial"",""time""
""blur"",""0"",""0""
","""event"",""trial"",""time""
""focus"",""0"",""29181""
","""event"",""trial"",""time""
""fullscreenenter"",""0"",""37373""
","
",null,"<div style=""font-size:60px;"">+</div>",NA,null,fixation,2020-06-12T20:34:15Z,NA,NA,NA,NA,NA,sub29
NA,mars-trial,36,164613,0.0-10.0-1.8,"""event"",""trial"",""time""
""blur"",""0"",""0""
""focus"",""0"",""29181""
""fullscreenenter"",""0"",""37373""
","""event"",""trial"",""time""
""blur"",""0"",""0""
","""event"",""trial"",""time""
""focus"",""0"",""29181""
","""event"",""trial"",""time""
""fullscreenenter"",""0"",""37373""
","
",5168.349999992643,<img style='border: 4px solid darkgrey;' src='img/tf1_9_M_ss2.jpeg'></img>,2,NA,exp,NA,0,<img src='img/tf1_9_T1_ss2_md.jpeg'></img>,0,TRUE,NA,sub29
NA,html-keyboard-response,37,165116,0.0-10.0-0.9,"""event"",""trial"",""time""
""blur"",""0"",""0""
""focus"",""0"",""29181""
""fullscreenenter"",""0"",""37373""
","""event"",""trial"",""time""
""blur"",""0"",""0""
","""event"",""trial"",""time""
""focus"",""0"",""29181""
","""event"",""trial"",""time""
""fullscreenenter"",""0"",""37373""
","
",null,"<div style=""font-size:60px;"">+</div>",NA,null,fixation,2020-06-12T20:34:21Z,NA,NA,NA,NA,NA,sub29
NA,mars-trial,38,168370,0.0-10.0-1.9,"""event"",""trial"",""time""
""blur"",""0"",""0""
""focus"",""0"",""29181""
""fullscreenenter"",""0"",""37373""
","""event"",""trial"",""time""
""blur"",""0"",""0""
","""event"",""trial"",""time""
""focus"",""0"",""29181""
","""event"",""trial"",""time""
""fullscreenenter"",""0"",""37373""
","
",2646.739999996498,<img style='border: 4px solid darkgrey;' src='img/tf1_10_M_ss3.jpeg'></img>,0,NA,exp,NA,1,<img src='img/tf1_10_T1_ss3_md.jpeg'></img>,0,FALSE,NA,sub29
NA,html-keyboard-response,39,168872,0.0-10.0-0.10,"""event"",""trial"",""time""
""blur"",""0"",""0""
""focus"",""0"",""29181""
""fullscreenenter"",""0"",""37373""
","""event"",""trial"",""time""
""blur"",""0"",""0""
","""event"",""trial"",""time""
""focus"",""0"",""29181""
","""event"",""trial"",""time""
""fullscreenenter"",""0"",""37373""
","
",null,"<div style=""font-size:60px;"">+</div>",NA,null,fixation,2020-06-12T20:34:25Z,NA,NA,NA,NA,NA,sub29
NA,mars-trial,40,181642,0.0-10.0-1.10,"""event"",""trial"",""time""
""blur"",""0"",""0""
""focus"",""0"",""29181""
""fullscreenenter"",""0"",""37373""
","""event"",""trial"",""time""
""blur"",""0"",""0""
","""event"",""trial"",""time""
""focus"",""0"",""29181""
","""event"",""trial"",""time""
""fullscreenenter"",""0"",""37373""
","
",12160.435000027064,<img style='border: 4px solid darkgrey;' src='img/tf1_11_M_ss1.jpeg'></img>,2,NA,exp,NA,2,<img src='img/tf1_11_T1_ss1_md.jpeg'></img>,0,FALSE,NA,sub29
NA,html-keyboard-response,41,182146,0.0-10.0-0.11,"""event"",""trial"",""time""
""blur"",""0"",""0""
""focus"",""0"",""29181""
""fullscreenenter"",""0"",""37373""
","""event"",""trial"",""time""
""blur"",""0"",""0""
","""event"",""trial"",""time""
""focus"",""0"",""29181""
","""event"",""trial"",""time""
""fullscreenenter"",""0"",""37373""
","
",null,"<div style=""font-size:60px;"">+</div>",NA,null,fixation,2020-06-12T20:34:38Z,NA,NA,NA,NA,NA,sub29
NA,mars-trial,42,191615,0.0-10.0-1.11,"""event"",""trial"",""time""
""blur"",""0"",""0""
""focus"",""0"",""29181""
""fullscreenenter"",""0"",""37373""
","""event"",""trial"",""time""
""blur"",""0"",""0""
","""event"",""trial"",""time""
""focus"",""0"",""29181""
","""event"",""trial"",""time""
""fullscreenenter"",""0"",""37373""
","
",8860.910000046715,<img style='border: 4px solid darkgrey;' src='img/tf1_12_M_ss2.jpeg'></img>,0,NA,exp,NA,1,<img src='img/tf1_12_T1_ss2_md.jpeg'></img>,0,FALSE,NA,sub29
NA,html-keyboard-response,43,192118,0.0-10.0-0.12,"""event"",""trial"",""time""
""blur"",""0"",""0""
""focus"",""0"",""29181""
""fullscreenenter"",""0"",""37373""
","""event"",""trial"",""time""
""blur"",""0"",""0""
","""event"",""trial"",""time""
""focus"",""0"",""29181""
","""event"",""trial"",""time""
""fullscreenenter"",""0"",""37373""
","
",null,"<div style=""font-size:60px;"">+</div>",NA,null,fixation,2020-06-12T20:34:48Z,NA,NA,NA,NA,NA,sub29
NA,mars-trial,44,202046,0.0-10.0-1.12,"""event"",""trial"",""time""
""blur"",""0"",""0""
""focus"",""0"",""29181""
""fullscreenenter"",""0"",""37373""
","""event"",""trial"",""time""
""blur"",""0"",""0""
","""event"",""trial"",""time""
""focus"",""0"",""29181""
","""event"",""trial"",""time""
""fullscreenenter"",""0"",""37373""
","
",9318.304999964312,<img style='border: 4px solid darkgrey;' src='img/tf1_13_M_ss3.jpeg'></img>,1,NA,exp,NA,2,<img src='img/tf1_13_T1_ss3_md.jpeg'></img>,0,FALSE,NA,sub29
NA,html-keyboard-response,45,202548,0.0-10.0-0.13,"""event"",""trial"",""time""
""blur"",""0"",""0""
""focus"",""0"",""29181""
""fullscreenenter"",""0"",""37373""
","""event"",""trial"",""time""
""blur"",""0"",""0""
","""event"",""trial"",""time""
""focus"",""0"",""29181""
","""event"",""trial"",""time""
""fullscreenenter"",""0"",""37373""
","
",null,"<div style=""font-size:60px;"">+</div>",NA,null,fixation,2020-06-12T20:34:59Z,NA,NA,NA,NA,NA,sub29
NA,mars-trial,46,214724,0.0-10.0-1.13,"""event"",""trial"",""time""
""blur"",""0"",""0""
""focus"",""0"",""29181""
""fullscreenenter"",""0"",""37373""
","""event"",""trial"",""time""
""blur"",""0"",""0""
","""event"",""trial"",""time""
""focus"",""0"",""29181""
","""event"",""trial"",""time""
""fullscreenenter"",""0"",""37373""
","
",11567.310000013094,<img style='border: 4px solid darkgrey;' src='img/tf1_14_M_ss1.jpeg'></img>,1,NA,exp,NA,3,<img src='img/tf1_14_T1_ss1_md.jpeg'></img>,0,FALSE,NA,sub29
NA,html-keyboard-response,47,215228,0.0-10.0-0.14,"""event"",""trial"",""time""
""blur"",""0"",""0""
""focus"",""0"",""29181""
""fullscreenenter"",""0"",""37373""
","""event"",""trial"",""time""
""blur"",""0"",""0""
","""event"",""trial"",""time""
""focus"",""0"",""29181""
","""event"",""trial"",""time""
""fullscreenenter"",""0"",""37373""
","
",null,"<div style=""font-size:60px;"">+</div>",NA,null,fixation,2020-06-12T20:35:11Z,NA,NA,NA,NA,NA,sub29
NA,mars-trial,48,232359,0.0-10.0-1.14,"""event"",""trial"",""time""
""blur"",""0"",""0""
""focus"",""0"",""29181""
""fullscreenenter"",""0"",""37373""
","""event"",""trial"",""time""
""blur"",""0"",""0""
","""event"",""trial"",""time""
""focus"",""0"",""29181""
","""event"",""trial"",""time""
""fullscreenenter"",""0"",""37373""
","
",16520.750000025146,<img style='border: 4px solid darkgrey;' src='img/tf1_15_M_ss2.jpeg'></img>,2,NA,exp,NA,0,<img src='img/tf1_15_T1_ss2_md.jpeg'></img>,0,TRUE,NA,sub29
NA,html-keyboard-response,49,232862,0.0-10.0-0.15,"""event"",""trial"",""time""
""blur"",""0"",""0""
""focus"",""0"",""29181""
""fullscreenenter"",""0"",""37373""
","""event"",""trial"",""time""
""blur"",""0"",""0""
","""event"",""trial"",""time""
""focus"",""0"",""29181""
","""event"",""trial"",""time""
""fullscreenenter"",""0"",""37373""
","
",null,"<div style=""font-size:60px;"">+</div>",NA,null,fixation,2020-06-12T20:35:29Z,NA,NA,NA,NA,NA,sub29
NA,mars-trial,50,241581,0.0-10.0-1.15,"""event"",""trial"",""time""
""blur"",""0"",""0""
""focus"",""0"",""29181""
""fullscreenenter"",""0"",""37373""
","""event"",""trial"",""time""
""blur"",""0"",""0""
","""event"",""trial"",""time""
""focus"",""0"",""29181""
","""event"",""trial"",""time""
""fullscreenenter"",""0"",""37373""
","
",8109.890000021551,<img style='border: 4px solid darkgrey;' src='img/tf1_16_M_ss3.jpeg'></img>,0,NA,exp,NA,3,<img src='img/tf1_16_T1_ss3_md.jpeg'></img>,0,FALSE,NA,sub29
NA,html-keyboard-response,51,242084,0.0-10.0-0.16,"""event"",""trial"",""time""
""blur"",""0"",""0""
""focus"",""0"",""29181""
""fullscreenenter"",""0"",""37373""
","""event"",""trial"",""time""
""blur"",""0"",""0""
","""event"",""trial"",""time""
""focus"",""0"",""29181""
","""event"",""trial"",""time""
""fullscreenenter"",""0"",""37373""
","
",null,"<div style=""font-size:60px;"">+</div>",NA,null,fixation,2020-06-12T20:35:38Z,NA,NA,NA,NA,NA,sub29
NA,mars-trial,52,249304,0.0-10.0-1.16,"""event"",""trial"",""time""
""blur"",""0"",""0""
""focus"",""0"",""29181""
""fullscreenenter"",""0"",""37373""
","""event"",""trial"",""time""
""blur"",""0"",""0""
","""event"",""trial"",""time""
""focus"",""0"",""29181""
","""event"",""trial"",""time""
""fullscreenenter"",""0"",""37373""
","
",6610.34999997355,<img style='border: 4px solid darkgrey;' src='img/tf1_17_M_ss1.jpeg'></img>,1,NA,exp,NA,0,<img src='img/tf1_17_T1_ss1_md.jpeg'></img>,0,TRUE,NA,sub29
NA,html-keyboard-response,53,249808,0.0-10.0-0.17,"""event"",""trial"",""time""
""blur"",""0"",""0""
""focus"",""0"",""29181""
""fullscreenenter"",""0"",""37373""
","""event"",""trial"",""time""
""blur"",""0"",""0""
","""event"",""trial"",""time""
""focus"",""0"",""29181""
","""event"",""trial"",""time""
""fullscreenenter"",""0"",""37373""
","
",null,"<div style=""font-size:60px;"">+</div>",NA,null,fixation,2020-06-12T20:35:46Z,NA,NA,NA,NA,NA,sub29
NA,mars-trial,54,256502,0.0-10.0-1.17,"""event"",""trial"",""time""
""blur"",""0"",""0""
""focus"",""0"",""29181""
""fullscreenenter"",""0"",""37373""
","""event"",""trial"",""time""
""blur"",""0"",""0""
","""event"",""trial"",""time""
""focus"",""0"",""29181""
","""event"",""trial"",""time""
""fullscreenenter"",""0"",""37373""
","
",6085.755000007339,<img style='border: 4px solid darkgrey;' src='img/tf1_18_M_ss2.jpeg'></img>,1,NA,exp,NA,0,<img src='img/tf1_18_T1_ss2_md.jpeg'></img>,0,TRUE,NA,sub29
NA,html-keyboard-response,55,257010,0.0-10.0-0.18,"""event"",""trial"",""time""
""blur"",""0"",""0""
""focus"",""0"",""29181""
""fullscreenenter"",""0"",""37373""
","""event"",""trial"",""time""
""blur"",""0"",""0""
","""event"",""trial"",""time""
""focus"",""0"",""29181""
","""event"",""trial"",""time""
""fullscreenenter"",""0"",""37373""
","
",null,"<div style=""font-size:60px;"">+</div>",NA,null,fixation,2020-06-12T20:35:53Z,NA,NA,NA,NA,NA,sub29
NA,mars-trial,56,264321,0.0-10.0-1.18,"""event"",""trial"",""time""
""blur"",""0"",""0""
""focus"",""0"",""29181""
""fullscreenenter"",""0"",""37373""
","""event"",""trial"",""time""
""blur"",""0"",""0""
","""event"",""trial"",""time""
""focus"",""0"",""29181""
","""event"",""trial"",""time""
""fullscreenenter"",""0"",""37373""
","
",6700.7400000002235,<img style='border: 4px solid darkgrey;' src='img/tf1_19_M_ss3.jpeg'></img>,2,NA,exp,NA,0,<img src='img/tf1_19_T1_ss3_md.jpeg'></img>,0,TRUE,NA,sub29
NA,html-keyboard-response,57,264824,0.0-10.0-0.19,"""event"",""trial"",""time""
""blur"",""0"",""0""
""focus"",""0"",""29181""
""fullscreenenter"",""0"",""37373""
","""event"",""trial"",""time""
""blur"",""0"",""0""
","""event"",""trial"",""time""
""focus"",""0"",""29181""
","""event"",""trial"",""time""
""fullscreenenter"",""0"",""37373""
","
",null,"<div style=""font-size:60px;"">+</div>",NA,null,fixation,2020-06-12T20:36:01Z,NA,NA,NA,NA,NA,sub29
NA,mars-trial,58,272703,0.0-10.0-1.19,"""event"",""trial"",""time""
""blur"",""0"",""0""
""focus"",""0"",""29181""
""fullscreenenter"",""0"",""37373""
","""event"",""trial"",""time""
""blur"",""0"",""0""
","""event"",""trial"",""time""
""focus"",""0"",""29181""
","""event"",""trial"",""time""
""fullscreenenter"",""0"",""37373""
","
",7270.484999986365,<img style='border: 4px solid darkgrey;' src='img/tf1_20_M_ss1.jpeg'></img>,1,NA,exp,NA,2,<img src='img/tf1_20_T1_ss1_md.jpeg'></img>,0,FALSE,NA,sub29
NA,html-keyboard-response,59,273206,0.0-10.0-0.20,"""event"",""trial"",""time""
""blur"",""0"",""0""
""focus"",""0"",""29181""
""fullscreenenter"",""0"",""37373""
","""event"",""trial"",""time""
""blur"",""0"",""0""
","""event"",""trial"",""time""
""focus"",""0"",""29181""
","""event"",""trial"",""time""
""fullscreenenter"",""0"",""37373""
","
",null,"<div style=""font-size:60px;"">+</div>",NA,null,fixation,2020-06-12T20:36:09Z,NA,NA,NA,NA,NA,sub29
NA,mars-trial,60,287029,0.0-10.0-1.20,"""event"",""trial"",""time""
""blur"",""0"",""0""
""focus"",""0"",""29181""
""fullscreenenter"",""0"",""37373""
","""event"",""trial"",""time""
""blur"",""0"",""0""
","""event"",""trial"",""time""
""focus"",""0"",""29181""
","""event"",""trial"",""time""
""fullscreenenter"",""0"",""37373""
","
",13214.559999993071,<img style='border: 4px solid darkgrey;' src='img/tf1_21_M_ss2.jpeg'></img>,0,NA,exp,NA,1,<img src='img/tf1_21_T1_ss2_md.jpeg'></img>,0,FALSE,NA,sub29
NA,html-keyboard-response,61,287531,0.0-10.0-0.21,"""event"",""trial"",""time""
""blur"",""0"",""0""
""focus"",""0"",""29181""
""fullscreenenter"",""0"",""37373""
","""event"",""trial"",""time""
""blur"",""0"",""0""
","""event"",""trial"",""time""
""focus"",""0"",""29181""
","""event"",""trial"",""time""
""fullscreenenter"",""0"",""37373""
","
",null,"<div style=""font-size:60px;"">+</div>",NA,null,fixation,2020-06-12T20:36:24Z,NA,NA,NA,NA,NA,sub29
NA,mars-trial,62,290125,0.0-10.0-1.21,"""event"",""trial"",""time""
""blur"",""0"",""0""
""focus"",""0"",""29181""
""fullscreenenter"",""0"",""37373""
","""event"",""trial"",""time""
""blur"",""0"",""0""
","""event"",""trial"",""time""
""focus"",""0"",""29181""
","""event"",""trial"",""time""
""fullscreenenter"",""0"",""37373""
","
",1984.9950000061654,<img style='border: 4px solid darkgrey;' src='img/tf1_22_M_ss3.jpeg'></img>,0,NA,exp,NA,3,<img src='img/tf1_22_T1_ss3_md.jpeg'></img>,0,FALSE,NA,sub29
NA,html-keyboard-response,63,290628,0.0-10.0-0.22,"""event"",""trial"",""time""
""blur"",""0"",""0""
""focus"",""0"",""29181""
""fullscreenenter"",""0"",""37373""
","""event"",""trial"",""time""
""blur"",""0"",""0""
","""event"",""trial"",""time""
""focus"",""0"",""29181""
","""event"",""trial"",""time""
""fullscreenenter"",""0"",""37373""
","
",null,"<div style=""font-size:60px;"">+</div>",NA,null,fixation,2020-06-12T20:36:27Z,NA,NA,NA,NA,NA,sub29
NA,mars-trial,64,295668,0.0-10.0-1.22,"""event"",""trial"",""time""
""blur"",""0"",""0""
""focus"",""0"",""29181""
""fullscreenenter"",""0"",""37373""
","""event"",""trial"",""time""
""blur"",""0"",""0""
","""event"",""trial"",""time""
""focus"",""0"",""29181""
","""event"",""trial"",""time""
""fullscreenenter"",""0"",""37373""
","
",4433.140000037383,<img style='border: 4px solid darkgrey;' src='img/tf1_23_M_ss1.jpeg'></img>,1,NA,exp,NA,1,<img src='img/tf1_23_T1_ss1_md.jpeg'></img>,0,FALSE,NA,sub29
NA,html-keyboard-response,65,296171,0.0-10.0-0.23,"""event"",""trial"",""time""
""blur"",""0"",""0""
""focus"",""0"",""29181""
""fullscreenenter"",""0"",""37373""
","""event"",""trial"",""time""
""blur"",""0"",""0""
","""event"",""trial"",""time""
""focus"",""0"",""29181""
","""event"",""trial"",""time""
""fullscreenenter"",""0"",""37373""
","
",null,"<div style=""font-size:60px;"">+</div>",NA,null,fixation,2020-06-12T20:36:32Z,NA,NA,NA,NA,NA,sub29
NA,mars-trial,66,310205,0.0-10.0-1.23,"""event"",""trial"",""time""
""blur"",""0"",""0""
""focus"",""0"",""29181""
""fullscreenenter"",""0"",""37373""
","""event"",""trial"",""time""
""blur"",""0"",""0""
","""event"",""trial"",""time""
""focus"",""0"",""29181""
","""event"",""trial"",""time""
""fullscreenenter"",""0"",""37373""
","
",13424.005000037141,<img style='border: 4px solid darkgrey;' src='img/tf1_24_M_ss2.jpeg'></img>,2,NA,exp,NA,1,<img src='img/tf1_24_T1_ss2_md.jpeg'></img>,0,FALSE,NA,sub29
NA,html-keyboard-response,67,310708,0.0-10.0-0.24,"""event"",""trial"",""time""
""blur"",""0"",""0""
""focus"",""0"",""29181""
""fullscreenenter"",""0"",""37373""
","""event"",""trial"",""time""
""blur"",""0"",""0""
","""event"",""trial"",""time""
""focus"",""0"",""29181""
","""event"",""trial"",""time""
""fullscreenenter"",""0"",""37373""
","
",null,"<div style=""font-size:60px;"">+</div>",NA,null,fixation,2020-06-12T20:36:47Z,NA,NA,NA,NA,NA,sub29
NA,mars-trial,68,316908,0.0-10.0-1.24,"""event"",""trial"",""time""
""blur"",""0"",""0""
""focus"",""0"",""29181""
""fullscreenenter"",""0"",""37373""
","""event"",""trial"",""time""
""blur"",""0"",""0""
","""event"",""trial"",""time""
""focus"",""0"",""29181""
","""event"",""trial"",""time""
""fullscreenenter"",""0"",""37373""
","
",5589.479999965988,<img style='border: 4px solid darkgrey;' src='img/tf1_25_M_ss3.jpeg'></img>,1,NA,exp,NA,3,<img src='img/tf1_25_T1_ss3_md.jpeg'></img>,0,FALSE,NA,sub29
NA,html-keyboard-response,69,317411,0.0-10.0-0.25,"""event"",""trial"",""time""
""blur"",""0"",""0""
""focus"",""0"",""29181""
""fullscreenenter"",""0"",""37373""
","""event"",""trial"",""time""
""blur"",""0"",""0""
","""event"",""trial"",""time""
""focus"",""0"",""29181""
","""event"",""trial"",""time""
""fullscreenenter"",""0"",""37373""
","
",null,"<div style=""font-size:60px;"">+</div>",NA,null,fixation,2020-06-12T20:36:53Z,NA,NA,NA,NA,NA,sub29
NA,mars-trial,70,326359,0.0-10.0-1.25,"""event"",""trial"",""time""
""blur"",""0"",""0""
""focus"",""0"",""29181""
""fullscreenenter"",""0"",""37373""
","""event"",""trial"",""time""
""blur"",""0"",""0""
","""event"",""trial"",""time""
""focus"",""0"",""29181""
","""event"",""trial"",""time""
""fullscreenenter"",""0"",""37373""
","
",8335.610000009183,<img style='border: 4px solid darkgrey;' src='img/tf1_26_M_ss1.jpeg'></img>,0,NA,exp,NA,2,<img src='img/tf1_26_T1_ss1_md.jpeg'></img>,0,FALSE,NA,sub29
NA,html-keyboard-response,71,326861,0.0-10.0-0.26,"""event"",""trial"",""time""
""blur"",""0"",""0""
""focus"",""0"",""29181""
""fullscreenenter"",""0"",""37373""
","""event"",""trial"",""time""
""blur"",""0"",""0""
","""event"",""trial"",""time""
""focus"",""0"",""29181""
","""event"",""trial"",""time""
""fullscreenenter"",""0"",""37373""
","
",null,"<div style=""font-size:60px;"">+</div>",NA,null,fixation,2020-06-12T20:37:03Z,NA,NA,NA,NA,NA,sub29
NA,mars-trial,72,332316,0.0-10.0-1.26,"""event"",""trial"",""time""
""blur"",""0"",""0""
""focus"",""0"",""29181""
""fullscreenenter"",""0"",""37373""
","""event"",""trial"",""time""
""blur"",""0"",""0""
","""event"",""trial"",""time""
""focus"",""0"",""29181""
","""event"",""trial"",""time""
""fullscreenenter"",""0"",""37373""
","
",4845.695000025444,<img style='border: 4px solid darkgrey;' src='img/tf1_27_M_ss2.jpeg'></img>,1,NA,exp,NA,0,<img src='img/tf1_27_T1_ss2_md.jpeg'></img>,0,TRUE,NA,sub29
NA,html-keyboard-response,73,332818,0.0-10.0-0.27,"""event"",""trial"",""time""
""blur"",""0"",""0""
""focus"",""0"",""29181""
""fullscreenenter"",""0"",""37373""
","""event"",""trial"",""time""
""blur"",""0"",""0""
","""event"",""trial"",""time""
""focus"",""0"",""29181""
","""event"",""trial"",""time""
""fullscreenenter"",""0"",""37373""
","
",null,"<div style=""font-size:60px;"">+</div>",NA,null,fixation,2020-06-12T20:37:09Z,NA,NA,NA,NA,NA,sub29
NA,mars-trial,74,342400,0.0-10.0-1.27,"""event"",""trial"",""time""
""blur"",""0"",""0""
""focus"",""0"",""29181""
""fullscreenenter"",""0"",""37373""
","""event"",""trial"",""time""
""blur"",""0"",""0""
","""event"",""trial"",""time""
""focus"",""0"",""29181""
","""event"",""trial"",""time""
""fullscreenenter"",""0"",""37373""
","
",8973.53999997722,<img style='border: 4px solid darkgrey;' src='img/tf1_28_M_ss3.jpeg'></img>,1,NA,exp,NA,2,<img src='img/tf1_28_T1_ss3_md.jpeg'></img>,0,FALSE,NA,sub29
NA,html-keyboard-response,75,342903,0.0-10.0-0.28,"""event"",""trial"",""time""
""blur"",""0"",""0""
""focus"",""0"",""29181""
""fullscreenenter"",""0"",""37373""
","""event"",""trial"",""time""
""blur"",""0"",""0""
","""event"",""trial"",""time""
""focus"",""0"",""29181""
","""event"",""trial"",""time""
""fullscreenenter"",""0"",""37373""
","
",null,"<div style=""font-size:60px;"">+</div>",NA,null,fixation,2020-06-12T20:37:19Z,NA,NA,NA,NA,NA,sub29
NA,mars-trial,76,348216,0.0-10.0-1.28,"""event"",""trial"",""time""
""blur"",""0"",""0""
""focus"",""0"",""29181""
""fullscreenenter"",""0"",""37373""
","""event"",""trial"",""time""
""blur"",""0"",""0""
","""event"",""trial"",""time""
""focus"",""0"",""29181""
","""event"",""trial"",""time""
""fullscreenenter"",""0"",""37373""
","
",4703.154999995604,<img style='border: 4px solid darkgrey;' src='img/tf1_29_M_ss1.jpeg'></img>,2,NA,exp,NA,0,<img src='img/tf1_29_T1_ss1_md.jpeg'></img>,0,TRUE,NA,sub29
NA,html-keyboard-response,77,348719,0.0-10.0-0.29,"""event"",""trial"",""time""
""blur"",""0"",""0""
""focus"",""0"",""29181""
""fullscreenenter"",""0"",""37373""
","""event"",""trial"",""time""
""blur"",""0"",""0""
","""event"",""trial"",""time""
""focus"",""0"",""29181""
","""event"",""trial"",""time""
""fullscreenenter"",""0"",""37373""
","
",null,"<div style=""font-size:60px;"">+</div>",NA,null,fixation,2020-06-12T20:37:25Z,NA,NA,NA,NA,NA,sub29
NA,mars-trial,78,353375,0.0-10.0-1.29,"""event"",""trial"",""time""
""blur"",""0"",""0""
""focus"",""0"",""29181""
""fullscreenenter"",""0"",""37373""
","""event"",""trial"",""time""
""blur"",""0"",""0""
","""event"",""trial"",""time""
""focus"",""0"",""29181""
","""event"",""trial"",""time""
""fullscreenenter"",""0"",""37373""
","
",4047.1550000365824,<img style='border: 4px solid darkgrey;' src='img/tf1_30_M_ss2.jpeg'></img>,0,NA,exp,NA,1,<img src='img/tf1_30_T1_ss2_md.jpeg'></img>,0,FALSE,NA,sub29
NA,html-keyboard-response,79,353877,0.0-10.0-0.30,"""event"",""trial"",""time""
""blur"",""0"",""0""
""focus"",""0"",""29181""
""fullscreenenter"",""0"",""37373""
","""event"",""trial"",""time""
""blur"",""0"",""0""
","""event"",""trial"",""time""
""focus"",""0"",""29181""
","""event"",""trial"",""time""
""fullscreenenter"",""0"",""37373""
","
",null,"<div style=""font-size:60px;"">+</div>",NA,null,fixation,2020-06-12T20:37:30Z,NA,NA,NA,NA,NA,sub29
NA,mars-trial,80,364107,0.0-10.0-1.30,"""event"",""trial"",""time""
""blur"",""0"",""0""
""focus"",""0"",""29181""
""fullscreenenter"",""0"",""37373""
","""event"",""trial"",""time""
""blur"",""0"",""0""
","""event"",""trial"",""time""
""focus"",""0"",""29181""
","""event"",""trial"",""time""
""fullscreenenter"",""0"",""37373""
","
",9621.890000009444,<img style='border: 4px solid darkgrey;' src='img/tf1_31_M_ss3.jpeg'></img>,2,NA,exp,NA,1,<img src='img/tf1_31_T1_ss3_md.jpeg'></img>,0,FALSE,NA,sub29
NA,html-keyboard-response,81,364610,0.0-10.0-0.31,"""event"",""trial"",""time""
""blur"",""0"",""0""
""focus"",""0"",""29181""
""fullscreenenter"",""0"",""37373""
","""event"",""trial"",""time""
""blur"",""0"",""0""
","""event"",""trial"",""time""
""focus"",""0"",""29181""
","""event"",""trial"",""time""
""fullscreenenter"",""0"",""37373""
","
",null,"<div style=""font-size:60px;"">+</div>",NA,null,fixation,2020-06-12T20:37:41Z,NA,NA,NA,NA,NA,sub29
NA,mars-trial,82,373972,0.0-10.0-1.31,"""event"",""trial"",""time""
""blur"",""0"",""0""
""focus"",""0"",""29181""
""fullscreenenter"",""0"",""37373""
","""event"",""trial"",""time""
""blur"",""0"",""0""
","""event"",""trial"",""time""
""focus"",""0"",""29181""
","""event"",""trial"",""time""
""fullscreenenter"",""0"",""37373""
","
",8751.404999988154,<img style='border: 4px solid darkgrey;' src='img/tf1_32_M_ss1.jpeg'></img>,3,NA,exp,NA,0,<img src='img/tf1_32_T1_ss1_md.jpeg'></img>,0,TRUE,NA,sub29
NA,html-keyboard-response,83,374475,0.0-10.0-0.32,"""event"",""trial"",""time""
""blur"",""0"",""0""
""focus"",""0"",""29181""
""fullscreenenter"",""0"",""37373""
","""event"",""trial"",""time""
""blur"",""0"",""0""
","""event"",""trial"",""time""
""focus"",""0"",""29181""
","""event"",""trial"",""time""
""fullscreenenter"",""0"",""37373""
","
",null,"<div style=""font-size:60px;"">+</div>",NA,null,fixation,2020-06-12T20:37:51Z,NA,NA,NA,NA,NA,sub29
NA,mars-trial,84,384019,0.0-10.0-1.32,"""event"",""trial"",""time""
""blur"",""0"",""0""
""focus"",""0"",""29181""
""fullscreenenter"",""0"",""37373""
","""event"",""trial"",""time""
""blur"",""0"",""0""
","""event"",""trial"",""time""
""focus"",""0"",""29181""
","""event"",""trial"",""time""
""fullscreenenter"",""0"",""37373""
","
",8933.790000039153,<img style='border: 4px solid darkgrey;' src='img/tf1_33_M_ss2.jpeg'></img>,0,NA,exp,NA,0,<img src='img/tf1_33_T1_ss2_md.jpeg'></img>,0,TRUE,NA,sub29
NA,html-keyboard-response,85,384521,0.0-10.0-0.33,"""event"",""trial"",""time""
""blur"",""0"",""0""
""focus"",""0"",""29181""
""fullscreenenter"",""0"",""37373""
","""event"",""trial"",""time""
""blur"",""0"",""0""
","""event"",""trial"",""time""
""focus"",""0"",""29181""
","""event"",""trial"",""time""
""fullscreenenter"",""0"",""37373""
","
",null,"<div style=""font-size:60px;"">+</div>",NA,null,fixation,2020-06-12T20:38:01Z,NA,NA,NA,NA,NA,sub29
NA,mars-trial,86,392992,0.0-10.0-1.33,"""event"",""trial"",""time""
""blur"",""0"",""0""
""focus"",""0"",""29181""
""fullscreenenter"",""0"",""37373""
","""event"",""trial"",""time""
""blur"",""0"",""0""
","""event"",""trial"",""time""
""focus"",""0"",""29181""
","""event"",""trial"",""time""
""fullscreenenter"",""0"",""37373""
","
",7859.569999971427,<img style='border: 4px solid darkgrey;' src='img/tf1_34_M_ss3.jpeg'></img>,2,NA,exp,NA,3,<img src='img/tf1_34_T1_ss3_md.jpeg'></img>,0,FALSE,NA,sub29
NA,html-keyboard-response,87,393494,0.0-10.0-0.34,"""event"",""trial"",""time""
""blur"",""0"",""0""
""focus"",""0"",""29181""
""fullscreenenter"",""0"",""37373""
","""event"",""trial"",""time""
""blur"",""0"",""0""
","""event"",""trial"",""time""
""focus"",""0"",""29181""
","""event"",""trial"",""time""
""fullscreenenter"",""0"",""37373""
","
",null,"<div style=""font-size:60px;"">+</div>",NA,null,fixation,2020-06-12T20:38:10Z,NA,NA,NA,NA,NA,sub29
NA,mars-trial,88,403110,0.0-10.0-1.34,"""event"",""trial"",""time""
""blur"",""0"",""0""
""focus"",""0"",""29181""
""fullscreenenter"",""0"",""37373""
","""event"",""trial"",""time""
""blur"",""0"",""0""
","""event"",""trial"",""time""
""focus"",""0"",""29181""
","""event"",""trial"",""time""
""fullscreenenter"",""0"",""37373""
","
",9007.600000011735,<img style='border: 4px solid darkgrey;' src='img/tf1_35_M_ss1.jpeg'></img>,0,NA,exp,NA,1,<img src='img/tf1_35_T1_ss1_md.jpeg'></img>,0,FALSE,NA,sub29
NA,html-keyboard-response,89,403613,0.0-10.0-0.35,"""event"",""trial"",""time""
""blur"",""0"",""0""
""focus"",""0"",""29181""
""fullscreenenter"",""0"",""37373""
","""event"",""trial"",""time""
""blur"",""0"",""0""
","""event"",""trial"",""time""
""focus"",""0"",""29181""
","""event"",""trial"",""time""
""fullscreenenter"",""0"",""37373""
","
",null,"<div style=""font-size:60px;"">+</div>",NA,null,fixation,2020-06-12T20:38:20Z,NA,NA,NA,NA,NA,sub29
NA,mars-trial,90,416323,0.0-10.0-1.35,"""event"",""trial"",""time""
""blur"",""0"",""0""
""focus"",""0"",""29181""
""fullscreenenter"",""0"",""37373""
","""event"",""trial"",""time""
""blur"",""0"",""0""
","""event"",""trial"",""time""
""focus"",""0"",""29181""
","""event"",""trial"",""time""
""fullscreenenter"",""0"",""37373""
","
",12099.365000030957,<img style='border: 4px solid darkgrey;' src='img/tf1_36_M_ss2.jpeg'></img>,3,NA,exp,NA,0,<img src='img/tf1_36_T1_ss2_md.jpeg'></img>,0,TRUE,NA,sub29
NA,html-keyboard-response,91,416826,0.0-10.0-0.36,"""event"",""trial"",""time""
""blur"",""0"",""0""
""focus"",""0"",""29181""
""fullscreenenter"",""0"",""37373""
","""event"",""trial"",""time""
""blur"",""0"",""0""
","""event"",""trial"",""time""
""focus"",""0"",""29181""
","""event"",""trial"",""time""
""fullscreenenter"",""0"",""37373""
","
",null,"<div style=""font-size:60px;"">+</div>",NA,null,fixation,2020-06-12T20:38:33Z,NA,NA,NA,NA,NA,sub29
NA,mars-trial,92,424090,0.0-10.0-1.36,"""event"",""trial"",""time""
""blur"",""0"",""0""
""focus"",""0"",""29181""
""fullscreenenter"",""0"",""37373""
","""event"",""trial"",""time""
""blur"",""0"",""0""
","""event"",""trial"",""time""
""focus"",""0"",""29181""
","""event"",""trial"",""time""
""fullscreenenter"",""0"",""37373""
","
",6654.429999995045,<img style='border: 4px solid darkgrey;' src='img/tf1_37_M_ss3.jpeg'></img>,3,NA,exp,NA,2,<img src='img/tf1_37_T1_ss3_md.jpeg'></img>,0,FALSE,NA,sub29
NA,html-keyboard-response,93,424593,0.0-10.0-0.37,"""event"",""trial"",""time""
""blur"",""0"",""0""
""focus"",""0"",""29181""
""fullscreenenter"",""0"",""37373""
","""event"",""trial"",""time""
""blur"",""0"",""0""
","""event"",""trial"",""time""
""focus"",""0"",""29181""
","""event"",""trial"",""time""
""fullscreenenter"",""0"",""37373""
","
",null,"<div style=""font-size:60px;"">+</div>",NA,null,fixation,2020-06-12T20:38:41Z,NA,NA,NA,NA,NA,sub29
NA,mars-trial,94,430839,0.0-10.0-1.37,"""event"",""trial"",""time""
""blur"",""0"",""0""
""focus"",""0"",""29181""
""fullscreenenter"",""0"",""37373""
","""event"",""trial"",""time""
""blur"",""0"",""0""
","""event"",""trial"",""time""
""focus"",""0"",""29181""
","""event"",""trial"",""time""
""fullscreenenter"",""0"",""37373""
","
",5636.999999987893,<img style='border: 4px solid darkgrey;' src='img/tf1_38_M_ss1.jpeg'></img>,3,NA,exp,NA,0,<img src='img/tf1_38_T1_ss1_md.jpeg'></img>,0,TRUE,NA,sub29
NA,html-keyboard-response,95,431343,0.0-10.0-0.38,"""event"",""trial"",""time""
""blur"",""0"",""0""
""focus"",""0"",""29181""
""fullscreenenter"",""0"",""37373""
","""event"",""trial"",""time""
""blur"",""0"",""0""
","""event"",""trial"",""time""
""focus"",""0"",""29181""
","""event"",""trial"",""time""
""fullscreenenter"",""0"",""37373""
","
",null,"<div style=""font-size:60px;"">+</div>",NA,null,fixation,2020-06-12T20:38:47Z,NA,NA,NA,NA,NA,sub29
NA,mars-trial,96,439929,0.0-10.0-1.38,"""event"",""trial"",""time""
""blur"",""0"",""0""
""focus"",""0"",""29181""
""fullscreenenter"",""0"",""37373""
","""event"",""trial"",""time""
""blur"",""0"",""0""
","""event"",""trial"",""time""
""focus"",""0"",""29181""
","""event"",""trial"",""time""
""fullscreenenter"",""0"",""37373""
","
",7978.739999991376,<img style='border: 4px solid darkgrey;' src='img/tf1_39_M_ss2.jpeg'></img>,2,NA,exp,NA,0,<img src='img/tf1_39_T1_ss2_md.jpeg'></img>,0,TRUE,NA,sub29
NA,html-keyboard-response,97,440432,0.0-10.0-0.39,"""event"",""trial"",""time""
""blur"",""0"",""0""
""focus"",""0"",""29181""
""fullscreenenter"",""0"",""37373""
","""event"",""trial"",""time""
""blur"",""0"",""0""
","""event"",""trial"",""time""
""focus"",""0"",""29181""
","""event"",""trial"",""time""
""fullscreenenter"",""0"",""37373""
","
",null,"<div style=""font-size:60px;"">+</div>",NA,null,fixation,2020-06-12T20:38:56Z,NA,NA,NA,NA,NA,sub29
NA,mars-trial,98,447892,0.0-10.0-1.39,"""event"",""trial"",""time""
""blur"",""0"",""0""
""focus"",""0"",""29181""
""fullscreenenter"",""0"",""37373""
","""event"",""trial"",""time""
""blur"",""0"",""0""
","""event"",""trial"",""time""
""focus"",""0"",""29181""
","""event"",""trial"",""time""
""fullscreenenter"",""0"",""37373""
","
",6851.729999994859,<img style='border: 4px solid darkgrey;' src='img/tf1_40_M_ss3.jpeg'></img>,3,NA,exp,NA,2,<img src='img/tf1_40_T1_ss3_md.jpeg'></img>,0,FALSE,NA,sub29
NA,html-keyboard-response,99,448395,0.0-10.0-0.40,"""event"",""trial"",""time""
""blur"",""0"",""0""
""focus"",""0"",""29181""
""fullscreenenter"",""0"",""37373""
","""event"",""trial"",""time""
""blur"",""0"",""0""
","""event"",""trial"",""time""
""focus"",""0"",""29181""
","""event"",""trial"",""time""
""fullscreenenter"",""0"",""37373""
","
",null,"<div style=""font-size:60px;"">+</div>",NA,null,fixation,2020-06-12T20:39:04Z,NA,NA,NA,NA,NA,sub29
NA,mars-trial,100,455239,0.0-10.0-1.40,"""event"",""trial"",""time""
""blur"",""0"",""0""
""focus"",""0"",""29181""
""fullscreenenter"",""0"",""37373""
","""event"",""trial"",""time""
""blur"",""0"",""0""
","""event"",""trial"",""time""
""focus"",""0"",""29181""
","""event"",""trial"",""time""
""fullscreenenter"",""0"",""37373""
","
",6237.88999998942,<img style='border: 4px solid darkgrey;' src='img/tf1_41_M_ss1.jpeg'></img>,0,NA,exp,NA,0,<img src='img/tf1_41_T1_ss1_md.jpeg'></img>,0,TRUE,NA,sub29
NA,html-keyboard-response,101,455742,0.0-10.0-0.41,"""event"",""trial"",""time""
""blur"",""0"",""0""
""focus"",""0"",""29181""
""fullscreenenter"",""0"",""37373""
","""event"",""trial"",""time""
""blur"",""0"",""0""
","""event"",""trial"",""time""
""focus"",""0"",""29181""
","""event"",""trial"",""time""
""fullscreenenter"",""0"",""37373""
","
",null,"<div style=""font-size:60px;"">+</div>",NA,null,fixation,2020-06-12T20:39:12Z,NA,NA,NA,NA,NA,sub29
NA,mars-trial,102,465172,0.0-10.0-1.41,"""event"",""trial"",""time""
""blur"",""0"",""0""
""focus"",""0"",""29181""
""fullscreenenter"",""0"",""37373""
","""event"",""trial"",""time""
""blur"",""0"",""0""
","""event"",""trial"",""time""
""focus"",""0"",""29181""
","""event"",""trial"",""time""
""fullscreenenter"",""0"",""37373""
","
",8819.675000035204,<img style='border: 4px solid darkgrey;' src='img/tf1_42_M_ss2.jpeg'></img>,3,NA,exp,NA,3,<img src='img/tf1_42_T1_ss2_md.jpeg'></img>,0,FALSE,NA,sub29
NA,html-keyboard-response,103,465674,0.0-10.0-0.42,"""event"",""trial"",""time""
""blur"",""0"",""0""
""focus"",""0"",""29181""
""fullscreenenter"",""0"",""37373""
","""event"",""trial"",""time""
""blur"",""0"",""0""
","""event"",""trial"",""time""
""focus"",""0"",""29181""
","""event"",""trial"",""time""
""fullscreenenter"",""0"",""37373""
","
",null,"<div style=""font-size:60px;"">+</div>",NA,null,fixation,2020-06-12T20:39:22Z,NA,NA,NA,NA,NA,sub29
NA,mars-trial,104,470606,0.0-10.0-1.42,"""event"",""trial"",""time""
""blur"",""0"",""0""
""focus"",""0"",""29181""
""fullscreenenter"",""0"",""37373""
","""event"",""trial"",""time""
""blur"",""0"",""0""
","""event"",""trial"",""time""
""focus"",""0"",""29181""
","""event"",""trial"",""time""
""fullscreenenter"",""0"",""37373""
","
",4323.220000020228,<img style='border: 4px solid darkgrey;' src='img/tf1_43_M_ss3.jpeg'></img>,3,NA,exp,NA,0,<img src='img/tf1_43_T1_ss3_md.jpeg'></img>,0,TRUE,NA,sub29
NA,html-keyboard-response,105,471111,0.0-10.0-0.43,"""event"",""trial"",""time""
""blur"",""0"",""0""
""focus"",""0"",""29181""
""fullscreenenter"",""0"",""37373""
","""event"",""trial"",""time""
""blur"",""0"",""0""
","""event"",""trial"",""time""
""focus"",""0"",""29181""
","""event"",""trial"",""time""
""fullscreenenter"",""0"",""37373""
","
",null,"<div style=""font-size:60px;"">+</div>",NA,null,fixation,2020-06-12T20:39:27Z,NA,NA,NA,NA,NA,sub29
NA,mars-trial,106,480245,0.0-10.0-1.43,"""event"",""trial"",""time""
""blur"",""0"",""0""
""focus"",""0"",""29181""
""fullscreenenter"",""0"",""37373""
","""event"",""trial"",""time""
""blur"",""0"",""0""
","""event"",""trial"",""time""
""focus"",""0"",""29181""
","""event"",""trial"",""time""
""fullscreenenter"",""0"",""37373""
","
",8527.184999955352,<img style='border: 4px solid darkgrey;' src='img/tf1_44_M_ss1.jpeg'></img>,2,NA,exp,NA,2,<img src='img/tf1_44_T1_ss1_md.jpeg'></img>,0,FALSE,NA,sub29
NA,html-keyboard-response,107,480748,0.0-10.0-0.44,"""event"",""trial"",""time""
""blur"",""0"",""0""
""focus"",""0"",""29181""
""fullscreenenter"",""0"",""37373""
","""event"",""trial"",""time""
""blur"",""0"",""0""
","""event"",""trial"",""time""
""focus"",""0"",""29181""
","""event"",""trial"",""time""
""fullscreenenter"",""0"",""37373""
","
",null,"<div style=""font-size:60px;"">+</div>",NA,null,fixation,2020-06-12T20:39:37Z,NA,NA,NA,NA,NA,sub29
NA,mars-trial,108,494673,0.0-10.0-1.44,"""event"",""trial"",""time""
""blur"",""0"",""0""
""focus"",""0"",""29181""
""fullscreenenter"",""0"",""37373""
","""event"",""trial"",""time""
""blur"",""0"",""0""
","""event"",""trial"",""time""
""focus"",""0"",""29181""
","""event"",""trial"",""time""
""fullscreenenter"",""0"",""37373""
","
",13316.359999997076,<img style='border: 4px solid darkgrey;' src='img/tf1_45_M_ss2.jpeg'></img>,2,NA,exp,NA,0,<img src='img/tf1_45_T1_ss2_md.jpeg'></img>,0,TRUE,NA,sub29
NA,html-keyboard-response,109,495176,0.0-10.0-0.45,"""event"",""trial"",""time""
""blur"",""0"",""0""
""focus"",""0"",""29181""
""fullscreenenter"",""0"",""37373""
","""event"",""trial"",""time""
""blur"",""0"",""0""
","""event"",""trial"",""time""
""focus"",""0"",""29181""
","""event"",""trial"",""time""
""fullscreenenter"",""0"",""37373""
","
",null,"<div style=""font-size:60px;"">+</div>",NA,null,fixation,2020-06-12T20:39:51Z,NA,NA,NA,NA,NA,sub29
NA,mars-trial,110,506578,0.0-10.0-1.45,"""event"",""trial"",""time""
""blur"",""0"",""0""
""focus"",""0"",""29181""
""fullscreenenter"",""0"",""37373""
","""event"",""trial"",""time""
""blur"",""0"",""0""
","""event"",""trial"",""time""
""focus"",""0"",""29181""
","""event"",""trial"",""time""
""fullscreenenter"",""0"",""37373""
","
",10792.880000022706,<img style='border: 4px solid darkgrey;' src='img/tf1_46_M_ss3.jpeg'></img>,1,NA,exp,NA,2,<img src='img/tf1_46_T1_ss3_md.jpeg'></img>,0,FALSE,NA,sub29
NA,html-keyboard-response,111,507082,0.0-10.0-0.46,"""event"",""trial"",""time""
""blur"",""0"",""0""
""focus"",""0"",""29181""
""fullscreenenter"",""0"",""37373""
","""event"",""trial"",""time""
""blur"",""0"",""0""
","""event"",""trial"",""time""
""focus"",""0"",""29181""
","""event"",""trial"",""time""
""fullscreenenter"",""0"",""37373""
","
",null,"<div style=""font-size:60px;"">+</div>",NA,null,fixation,2020-06-12T20:40:03Z,NA,NA,NA,NA,NA,sub29
NA,mars-trial,112,511406,0.0-10.0-1.46,"""event"",""trial"",""time""
""blur"",""0"",""0""
""focus"",""0"",""29181""
""fullscreenenter"",""0"",""37373""
","""event"",""trial"",""time""
""blur"",""0"",""0""
","""event"",""trial"",""time""
""focus"",""0"",""29181""
","""event"",""trial"",""time""
""fullscreenenter"",""0"",""37373""
","
",3714.1750000300817,<img style='border: 4px solid darkgrey;' src='img/tf1_47_M_ss1.jpeg'></img>,2,NA,exp,NA,1,<img src='img/tf1_47_T1_ss1_md.jpeg'></img>,0,FALSE,NA,sub29
NA,html-keyboard-response,113,511908,0.0-10.0-0.47,"""event"",""trial"",""time""
""blur"",""0"",""0""
""focus"",""0"",""29181""
""fullscreenenter"",""0"",""37373""
","""event"",""trial"",""time""
""blur"",""0"",""0""
","""event"",""trial"",""time""
""focus"",""0"",""29181""
","""event"",""trial"",""time""
""fullscreenenter"",""0"",""37373""
","
",null,"<div style=""font-size:60px;"">+</div>",NA,null,fixation,2020-06-12T20:40:08Z,NA,NA,NA,NA,NA,sub29
NA,mars-trial,114,518840,0.0-10.0-1.47,"""event"",""trial"",""time""
""blur"",""0"",""0""
""focus"",""0"",""29181""
""fullscreenenter"",""0"",""37373""
","""event"",""trial"",""time""
""blur"",""0"",""0""
","""event"",""trial"",""time""
""focus"",""0"",""29181""
","""event"",""trial"",""time""
""fullscreenenter"",""0"",""37373""
","
",6324.68499999959,<img style='border: 4px solid darkgrey;' src='img/tf1_48_M_ss2.jpeg'></img>,3,NA,exp,NA,0,<img src='img/tf1_48_T1_ss2_md.jpeg'></img>,0,TRUE,NA,sub29
NA,html-keyboard-response,115,519344,0.0-10.0-0.48,"""event"",""trial"",""time""
""blur"",""0"",""0""
""focus"",""0"",""29181""
""fullscreenenter"",""0"",""37373""
","""event"",""trial"",""time""
""blur"",""0"",""0""
","""event"",""trial"",""time""
""focus"",""0"",""29181""
","""event"",""trial"",""time""
""fullscreenenter"",""0"",""37373""
","
",null,"<div style=""font-size:60px;"">+</div>",NA,null,fixation,2020-06-12T20:40:15Z,NA,NA,NA,NA,NA,sub29
NA,mars-trial,116,533821,0.0-10.0-1.48,"""event"",""trial"",""time""
""blur"",""0"",""0""
""focus"",""0"",""29181""
""fullscreenenter"",""0"",""37373""
","""event"",""trial"",""time""
""blur"",""0"",""0""
","""event"",""trial"",""time""
""focus"",""0"",""29181""
","""event"",""trial"",""time""
""fullscreenenter"",""0"",""37373""
","
",13866.87000002712,<img style='border: 4px solid darkgrey;' src='img/tf1_49_M_ss3.jpeg'></img>,2,NA,exp,NA,1,<img src='img/tf1_49_T1_ss3_md.jpeg'></img>,0,FALSE,NA,sub29
NA,html-keyboard-response,117,534323,0.0-10.0-0.49,"""event"",""trial"",""time""
""blur"",""0"",""0""
""focus"",""0"",""29181""
""fullscreenenter"",""0"",""37373""
","""event"",""trial"",""time""
""blur"",""0"",""0""
","""event"",""trial"",""time""
""focus"",""0"",""29181""
","""event"",""trial"",""time""
""fullscreenenter"",""0"",""37373""
","
",null,"<div style=""font-size:60px;"">+</div>",NA,null,fixation,2020-06-12T20:40:30Z,NA,NA,NA,NA,NA,sub29
NA,mars-trial,118,546435,0.0-10.0-1.49,"""event"",""trial"",""time""
""blur"",""0"",""0""
""focus"",""0"",""29181""
""fullscreenenter"",""0"",""37373""
","""event"",""trial"",""time""
""blur"",""0"",""0""
","""event"",""trial"",""time""
""focus"",""0"",""29181""
","""event"",""trial"",""time""
""fullscreenenter"",""0"",""37373""
","
",11504.959999991115,<img style='border: 4px solid darkgrey;' src='img/tf1_50_M_ss1.jpeg'></img>,3,NA,exp,NA,2,<img src='img/tf1_50_T1_ss1_md.jpeg'></img>,0,FALSE,NA,sub29
NA,html-keyboard-response,119,546939,0.0-10.0-0.50,"""event"",""trial"",""time""
""blur"",""0"",""0""
""focus"",""0"",""29181""
""fullscreenenter"",""0"",""37373""
","""event"",""trial"",""time""
""blur"",""0"",""0""
","""event"",""trial"",""time""
""focus"",""0"",""29181""
","""event"",""trial"",""time""
""fullscreenenter"",""0"",""37373""
","
",null,"<div style=""font-size:60px;"">+</div>",NA,null,fixation,2020-06-12T20:40:43Z,NA,NA,NA,NA,NA,sub29
NA,mars-trial,120,558136,0.0-10.0-1.50,"""event"",""trial"",""time""
""blur"",""0"",""0""
""focus"",""0"",""29181""
""fullscreenenter"",""0"",""37373""
","""event"",""trial"",""time""
""blur"",""0"",""0""
","""event"",""trial"",""time""
""focus"",""0"",""29181""
","""event"",""trial"",""time""
""fullscreenenter"",""0"",""37373""
","
",10588.965000002645,<img style='border: 4px solid darkgrey;' src='img/tf1_51_M_ss2.jpeg'></img>,2,NA,exp,NA,0,<img src='img/tf1_51_T1_ss2_md.jpeg'></img>,0,TRUE,NA,sub29
NA,html-keyboard-response,121,558639,0.0-10.0-0.51,"""event"",""trial"",""time""
""blur"",""0"",""0""
""focus"",""0"",""29181""
""fullscreenenter"",""0"",""37373""
","""event"",""trial"",""time""
""blur"",""0"",""0""
","""event"",""trial"",""time""
""focus"",""0"",""29181""
","""event"",""trial"",""time""
""fullscreenenter"",""0"",""37373""
","
",null,"<div style=""font-size:60px;"">+</div>",NA,null,fixation,2020-06-12T20:40:55Z,NA,NA,NA,NA,NA,sub29
NA,mars-trial,122,565264,0.0-10.0-1.51,"""event"",""trial"",""time""
""blur"",""0"",""0""
""focus"",""0"",""29181""
""fullscreenenter"",""0"",""37373""
","""event"",""trial"",""time""
""blur"",""0"",""0""
","""event"",""trial"",""time""
""focus"",""0"",""29181""
","""event"",""trial"",""time""
""fullscreenenter"",""0"",""37373""
","
",6014.924999966752,<img style='border: 4px solid darkgrey;' src='img/tf1_52_M_ss3.jpeg'></img>,3,NA,exp,NA,2,<img src='img/tf1_52_T1_ss3_md.jpeg'></img>,0,FALSE,NA,sub29
NA,html-keyboard-response,123,565767,0.0-10.0-0.52,"""event"",""trial"",""time""
""blur"",""0"",""0""
""focus"",""0"",""29181""
""fullscreenenter"",""0"",""37373""
","""event"",""trial"",""time""
""blur"",""0"",""0""
","""event"",""trial"",""time""
""focus"",""0"",""29181""
","""event"",""trial"",""time""
""fullscreenenter"",""0"",""37373""
","
",null,"<div style=""font-size:60px;"">+</div>",NA,null,fixation,2020-06-12T20:41:02Z,NA,NA,NA,NA,NA,sub29
NA,mars-trial,124,571851,0.0-10.0-1.52,"""event"",""trial"",""time""
""blur"",""0"",""0""
""focus"",""0"",""29181""
""fullscreenenter"",""0"",""37373""
","""event"",""trial"",""time""
""blur"",""0"",""0""
","""event"",""trial"",""time""
""focus"",""0"",""29181""
","""event"",""trial"",""time""
""fullscreenenter"",""0"",""37373""
","
",5478.399999963585,<img style='border: 4px solid darkgrey;' src='img/tf1_53_M_ss1.jpeg'></img>,0,NA,exp,NA,1,<img src='img/tf1_53_T1_ss1_md.jpeg'></img>,0,FALSE,NA,sub29
NA,html-keyboard-response,125,572354,0.0-10.0-0.53,"""event"",""trial"",""time""
""blur"",""0"",""0""
""focus"",""0"",""29181""
""fullscreenenter"",""0"",""37373""
","""event"",""trial"",""time""
""blur"",""0"",""0""
","""event"",""trial"",""time""
""focus"",""0"",""29181""
","""event"",""trial"",""time""
""fullscreenenter"",""0"",""37373""
","
",null,"<div style=""font-size:60px;"">+</div>",NA,null,fixation,2020-06-12T20:41:08Z,NA,NA,NA,NA,NA,sub29
NA,mars-trial,126,577454,0.0-10.0-1.53,"""event"",""trial"",""time""
""blur"",""0"",""0""
""focus"",""0"",""29181""
""fullscreenenter"",""0"",""37373""
","""event"",""trial"",""time""
""blur"",""0"",""0""
","""event"",""trial"",""time""
""focus"",""0"",""29181""
","""event"",""trial"",""time""
""fullscreenenter"",""0"",""37373""
","
",4488.729999982752,<img style='border: 4px solid darkgrey;' src='img/tf1_54_M_ss2.jpeg'></img>,2,NA,exp,NA,1,<img src='img/tf1_54_T1_ss2_md.jpeg'></img>,0,FALSE,NA,sub29
NA,html-keyboard-response,127,577956,0.0-10.0-0.54,"""event"",""trial"",""time""
""blur"",""0"",""0""
""focus"",""0"",""29181""
""fullscreenenter"",""0"",""37373""
","""event"",""trial"",""time""
""blur"",""0"",""0""
","""event"",""trial"",""time""
""focus"",""0"",""29181""
","""event"",""trial"",""time""
""fullscreenenter"",""0"",""37373""
","
",null,"<div style=""font-size:60px;"">+</div>",NA,null,fixation,2020-06-12T20:41:14Z,NA,NA,NA,NA,NA,sub29
NA,mars-trial,128,586037,0.0-10.0-1.54,"""event"",""trial"",""time""
""blur"",""0"",""0""
""focus"",""0"",""29181""
""fullscreenenter"",""0"",""37373""
","""event"",""trial"",""time""
""blur"",""0"",""0""
","""event"",""trial"",""time""
""focus"",""0"",""29181""
","""event"",""trial"",""time""
""fullscreenenter"",""0"",""37373""
","
",7472.6299999747425,<img style='border: 4px solid darkgrey;' src='img/tf1_55_M_ss3.jpeg'></img>,3,NA,exp,NA,3,<img src='img/tf1_55_T1_ss3_md.jpeg'></img>,0,FALSE,NA,sub29
NA,html-keyboard-response,129,586541,0.0-10.0-0.55,"""event"",""trial"",""time""
""blur"",""0"",""0""
""focus"",""0"",""29181""
""fullscreenenter"",""0"",""37373""
","""event"",""trial"",""time""
""blur"",""0"",""0""
","""event"",""trial"",""time""
""focus"",""0"",""29181""
","""event"",""trial"",""time""
""fullscreenenter"",""0"",""37373""
","
",null,"<div style=""font-size:60px;"">+</div>",NA,null,fixation,2020-06-12T20:41:23Z,NA,NA,NA,NA,NA,sub29
NA,mars-trial,130,593538,0.0-10.0-1.55,"""event"",""trial"",""time""
""blur"",""0"",""0""
""focus"",""0"",""29181""
""fullscreenenter"",""0"",""37373""
","""event"",""trial"",""time""
""blur"",""0"",""0""
","""event"",""trial"",""time""
""focus"",""0"",""29181""
","""event"",""trial"",""time""
""fullscreenenter"",""0"",""37373""
","
",6389.064999995753,<img style='border: 4px solid darkgrey;' src='img/tf1_56_M_ss1.jpeg'></img>,0,NA,exp,NA,1,<img src='img/tf1_56_T1_ss1_md.jpeg'></img>,0,FALSE,NA,sub29
NA,html-keyboard-response,131,594040,0.0-10.0-0.56,"""event"",""trial"",""time""
""blur"",""0"",""0""
""focus"",""0"",""29181""
""fullscreenenter"",""0"",""37373""
","""event"",""trial"",""time""
""blur"",""0"",""0""
","""event"",""trial"",""time""
""focus"",""0"",""29181""
","""event"",""trial"",""time""
""fullscreenenter"",""0"",""37373""
","
",null,"<div style=""font-size:60px;"">+</div>",NA,null,fixation,2020-06-12T20:41:30Z,NA,NA,NA,NA,NA,sub29
NA,mars-trial,132,597305,0.0-10.0-1.56,"""event"",""trial"",""time""
""blur"",""0"",""0""
""focus"",""0"",""29181""
""fullscreenenter"",""0"",""37373""
","""event"",""trial"",""time""
""blur"",""0"",""0""
","""event"",""trial"",""time""
""focus"",""0"",""29181""
","""event"",""trial"",""time""
""fullscreenenter"",""0"",""37373""
","
",NA,NA,NA,NA,exp,NA,NA,<img src='img/tf1_57_T1_ss2_md.jpeg'></img>,0,FALSE,NA,sub29
NA,html-keyboard-response,133,597808,0.0-10.0-0.57,"""event"",""trial"",""time""
""blur"",""0"",""0""
""focus"",""0"",""29181""
""fullscreenenter"",""0"",""37373""
","""event"",""trial"",""time""
""blur"",""0"",""0""
","""event"",""trial"",""time""
""focus"",""0"",""29181""
","""event"",""trial"",""time""
""fullscreenenter"",""0"",""37373""
","
",null,"<div style=""font-size:60px;"">+</div>",NA,null,fixation,2020-06-12T20:41:34Z,NA,NA,NA,NA,NA,sub29
NA,audio-button-response,134,601003,0.0-11.0,"""event"",""trial"",""time""
""blur"",""0"",""0""
""focus"",""0"",""29181""
""fullscreenenter"",""0"",""37373""
","""event"",""trial"",""time""
""blur"",""0"",""0""
","""event"",""trial"",""time""
""focus"",""0"",""29181""
","""event"",""trial"",""time""
""fullscreenenter"",""0"",""37373""
","
",3091.4900000207126,audio/mars_instructions_slide5.wav,0,NA,NA,NA,NA,NA,NA,NA,NA,sub29
