success,trial_type,trial_index,time_elapsed,internal_node_id,interactions,blur_events,focus_events,fullscreenenter_events,fullscreenexit_events,rt,stimulus,button_pressed,key_press,part,timestamp,unshuffled_button,correct_response,correct_button,correct,value,subject_id
TRUE,fullscreen,0,8248,0.0-0.0,"""event"",""trial"",""time""
""focus"",""0"",""6151""
""fullscreenenter"",""0"",""7318""
","
","""event"",""trial"",""time""
""focus"",""0"",""6151""
","""event"",""trial"",""time""
""fullscreenenter"",""0"",""7318""
","
",NA,NA,NA,NA,NA,NA,NA,NA,NA,NA,NA,sub144
NA,pavlovia,1,8253,0.0-1.0,"""event"",""trial"",""time""
""focus"",""0"",""6151""
""fullscreenenter"",""0"",""7318""
","
","""event"",""trial"",""time""
""focus"",""0"",""6151""
","""event"",""trial"",""time""
""fullscreenenter"",""0"",""7318""
","
",NA,NA,NA,NA,NA,NA,NA,NA,NA,NA,NA,sub144
NA,html-button-response,2,9364,0.0-2.0,"""event"",""trial"",""time""
""focus"",""0"",""6151""
""fullscreenenter"",""0"",""7318""
","
","""event"",""trial"",""time""
""focus"",""0"",""6151""
","""event"",""trial"",""time""
""fullscreenenter"",""0"",""7318""
","
",1109.6299999990151,<p>Welcome! Press START to begin.</p><br>,0,NA,NA,NA,NA,NA,NA,NA,NA,sub144
NA,audio-button-response,3,19780,0.0-3.0,"""event"",""trial"",""time""
""focus"",""0"",""6151""
""fullscreenenter"",""0"",""7318""
","
","""event"",""trial"",""time""
""focus"",""0"",""6151""
","""event"",""trial"",""time""
""fullscreenenter"",""0"",""7318""
","
",10413.3499999989,audio/mars_instructions_slide2.wav,0,NA,NA,NA,NA,NA,NA,NA,NA,sub144
NA,audio-button-response,4,23690,0.0-4.0,"""event"",""trial"",""time""
""focus"",""0"",""6151""
""fullscreenenter"",""0"",""7318""
","
","""event"",""trial"",""time""
""focus"",""0"",""6151""
","""event"",""trial"",""time""
""fullscreenenter"",""0"",""7318""
","
",3908.114999998361,audio/mars_instructions_slide3.wav,0,NA,NA,NA,NA,NA,NA,NA,NA,sub144
NA,html-keyboard-response,5,24192,0.0-5.0-0.0,"""event"",""trial"",""time""
""focus"",""0"",""6151""
""fullscreenenter"",""0"",""7318""
","
","""event"",""trial"",""time""
""focus"",""0"",""6151""
","""event"",""trial"",""time""
""fullscreenenter"",""0"",""7318""
","
",null,"<div style=""font-size:60px;"">+</div>",NA,null,fixation,2020-06-29T02:34:31Z,NA,NA,NA,NA,NA,sub144
NA,mars-trial,6,30611,0.0-5.0-1.0,"""event"",""trial"",""time""
""focus"",""0"",""6151""
""fullscreenenter"",""0"",""7318""
","
","""event"",""trial"",""time""
""focus"",""0"",""6151""
","""event"",""trial"",""time""
""fullscreenenter"",""0"",""7318""
","
",4310.239999998885,<img style='border: 4px solid darkgrey;' src='practice/pt1_M1.png'></img>,0,NA,practice,NA,0,<img src='practice/pt1_T1.png'></img>,0,TRUE,NA,sub144
NA,html-keyboard-response,7,31118,0.0-6.0-0.0,"""event"",""trial"",""time""
""focus"",""0"",""6151""
""fullscreenenter"",""0"",""7318""
""fullscreenexit"",""8"",""34486""
","
","""event"",""trial"",""time""
""focus"",""0"",""6151""
","""event"",""trial"",""time""
""fullscreenenter"",""0"",""7318""
","""event"",""trial"",""time""
""fullscreenexit"",""8"",""34486""
",null,"<div style=""font-size:60px;"">+</div>",NA,null,fixation,2020-06-29T02:34:38Z,NA,NA,NA,NA,NA,sub144
NA,mars-trial,8,35710,0.0-6.0-1.0,"""event"",""trial"",""time""
""focus"",""0"",""6151""
""fullscreenenter"",""0"",""7318""
""fullscreenexit"",""8"",""34486""
","
","""event"",""trial"",""time""
""focus"",""0"",""6151""
","""event"",""trial"",""time""
""fullscreenenter"",""0"",""7318""
","""event"",""trial"",""time""
""fullscreenexit"",""8"",""34486""
",2487.4000000017986,<img style='border: 4px solid darkgrey;' src='practice/pt2_M1.png'></img>,0,NA,practice,NA,0,<img src='practice/pt2_T1.png'></img>,0,TRUE,NA,sub144
NA,html-keyboard-response,9,36216,0.0-7.0-0.0,"""event"",""trial"",""time""
""focus"",""0"",""6151""
""fullscreenenter"",""0"",""7318""
""fullscreenexit"",""8"",""34486""
""blur"",""10"",""37920""
""focus"",""10"",""41666""
","""event"",""trial"",""time""
""blur"",""10"",""37920""
","""event"",""trial"",""time""
""focus"",""0"",""6151""
""focus"",""10"",""41666""
","""event"",""trial"",""time""
""fullscreenenter"",""0"",""7318""
","""event"",""trial"",""time""
""fullscreenexit"",""8"",""34486""
",null,"<div style=""font-size:60px;"">+</div>",NA,null,fixation,2020-06-29T02:34:43Z,NA,NA,NA,NA,NA,sub144
NA,mars-trial,10,44694,0.0-7.0-1.0,"""event"",""trial"",""time""
""focus"",""0"",""6151""
""fullscreenenter"",""0"",""7318""
""fullscreenexit"",""8"",""34486""
""blur"",""10"",""37920""
""focus"",""10"",""41666""
","""event"",""trial"",""time""
""blur"",""10"",""37920""
","""event"",""trial"",""time""
""focus"",""0"",""6151""
""focus"",""10"",""41666""
","""event"",""trial"",""time""
""fullscreenenter"",""0"",""7318""
","""event"",""trial"",""time""
""fullscreenexit"",""8"",""34486""
",6372.899999998481,<img style='border: 4px solid darkgrey;' src='practice/pt3_M1.png'></img>,0,NA,practice,NA,0,<img src='practice/pt3_T1.png'></img>,0,TRUE,NA,sub144
NA,audio-button-response,11,45972,0.0-8.0,"""event"",""trial"",""time""
""focus"",""0"",""6151""
""fullscreenenter"",""0"",""7318""
""fullscreenexit"",""8"",""34486""
""blur"",""10"",""37920""
""focus"",""10"",""41666""
","""event"",""trial"",""time""
""blur"",""10"",""37920""
","""event"",""trial"",""time""
""focus"",""0"",""6151""
""focus"",""10"",""41666""
","""event"",""trial"",""time""
""fullscreenenter"",""0"",""7318""
","""event"",""trial"",""time""
""fullscreenexit"",""8"",""34486""
",1275.4399999976158,audio/mars_instructions_slide4.wav,0,NA,NA,NA,NA,NA,NA,NA,NA,sub144
NA,call-function,12,45973,0.0-9.0,"""event"",""trial"",""time""
""focus"",""0"",""6151""
""fullscreenenter"",""0"",""7318""
""fullscreenexit"",""8"",""34486""
""blur"",""10"",""37920""
""focus"",""10"",""41666""
","""event"",""trial"",""time""
""blur"",""10"",""37920""
","""event"",""trial"",""time""
""focus"",""0"",""6151""
""focus"",""10"",""41666""
","""event"",""trial"",""time""
""fullscreenenter"",""0"",""7318""
","""event"",""trial"",""time""
""fullscreenexit"",""8"",""34486""
",NA,NA,NA,NA,NA,NA,NA,NA,NA,NA,NA,sub144
NA,html-keyboard-response,13,46475,0.0-10.0-0.0,"""event"",""trial"",""time""
""focus"",""0"",""6151""
""fullscreenenter"",""0"",""7318""
""fullscreenexit"",""8"",""34486""
""blur"",""10"",""37920""
""focus"",""10"",""41666""
","""event"",""trial"",""time""
""blur"",""10"",""37920""
","""event"",""trial"",""time""
""focus"",""0"",""6151""
""focus"",""10"",""41666""
","""event"",""trial"",""time""
""fullscreenenter"",""0"",""7318""
","""event"",""trial"",""time""
""fullscreenexit"",""8"",""34486""
",null,"<div style=""font-size:60px;"">+</div>",NA,null,fixation,2020-06-29T02:34:53Z,NA,NA,NA,NA,NA,sub144
NA,mars-trial,14,51216,0.0-10.0-1.0,"""event"",""trial"",""time""
""focus"",""0"",""6151""
""fullscreenenter"",""0"",""7318""
""fullscreenexit"",""8"",""34486""
""blur"",""10"",""37920""
""focus"",""10"",""41666""
","""event"",""trial"",""time""
""blur"",""10"",""37920""
","""event"",""trial"",""time""
""focus"",""0"",""6151""
""focus"",""10"",""41666""
","""event"",""trial"",""time""
""fullscreenenter"",""0"",""7318""
","""event"",""trial"",""time""
""fullscreenexit"",""8"",""34486""
",4132.600000000821,<img style='border: 4px solid darkgrey;' src='img/tf1_1_M_ss3.jpeg'></img>,2,NA,exp,NA,0,<img src='img/tf1_1_T1_ss3_md.jpeg'></img>,0,TRUE,NA,sub144
NA,html-keyboard-response,15,51720,0.0-10.0-0.1,"""event"",""trial"",""time""
""focus"",""0"",""6151""
""fullscreenenter"",""0"",""7318""
""fullscreenexit"",""8"",""34486""
""blur"",""10"",""37920""
""focus"",""10"",""41666""
","""event"",""trial"",""time""
""blur"",""10"",""37920""
","""event"",""trial"",""time""
""focus"",""0"",""6151""
""focus"",""10"",""41666""
","""event"",""trial"",""time""
""fullscreenenter"",""0"",""7318""
","""event"",""trial"",""time""
""fullscreenexit"",""8"",""34486""
",null,"<div style=""font-size:60px;"">+</div>",NA,null,fixation,2020-06-29T02:34:58Z,NA,NA,NA,NA,NA,sub144
NA,mars-trial,16,55315,0.0-10.0-1.1,"""event"",""trial"",""time""
""focus"",""0"",""6151""
""fullscreenenter"",""0"",""7318""
""fullscreenexit"",""8"",""34486""
""blur"",""10"",""37920""
""focus"",""10"",""41666""
","""event"",""trial"",""time""
""blur"",""10"",""37920""
","""event"",""trial"",""time""
""focus"",""0"",""6151""
""focus"",""10"",""41666""
","""event"",""trial"",""time""
""fullscreenenter"",""0"",""7318""
","""event"",""trial"",""time""
""fullscreenexit"",""8"",""34486""
",2988.6249999981374,<img style='border: 4px solid darkgrey;' src='img/tf1_2_M_ss1.jpeg'></img>,0,NA,exp,NA,0,<img src='img/tf1_2_T1_ss1_md.jpeg'></img>,0,TRUE,NA,sub144
NA,html-keyboard-response,17,55816,0.0-10.0-0.2,"""event"",""trial"",""time""
""focus"",""0"",""6151""
""fullscreenenter"",""0"",""7318""
""fullscreenexit"",""8"",""34486""
""blur"",""10"",""37920""
""focus"",""10"",""41666""
","""event"",""trial"",""time""
""blur"",""10"",""37920""
","""event"",""trial"",""time""
""focus"",""0"",""6151""
""focus"",""10"",""41666""
","""event"",""trial"",""time""
""fullscreenenter"",""0"",""7318""
","""event"",""trial"",""time""
""fullscreenexit"",""8"",""34486""
",null,"<div style=""font-size:60px;"">+</div>",NA,null,fixation,2020-06-29T02:35:03Z,NA,NA,NA,NA,NA,sub144
NA,mars-trial,18,59139,0.0-10.0-1.2,"""event"",""trial"",""time""
""focus"",""0"",""6151""
""fullscreenenter"",""0"",""7318""
""fullscreenexit"",""8"",""34486""
""blur"",""10"",""37920""
""focus"",""10"",""41666""
","""event"",""trial"",""time""
""blur"",""10"",""37920""
","""event"",""trial"",""time""
""focus"",""0"",""6151""
""focus"",""10"",""41666""
","""event"",""trial"",""time""
""fullscreenenter"",""0"",""7318""
","""event"",""trial"",""time""
""fullscreenexit"",""8"",""34486""
",2715.455000001384,<img style='border: 4px solid darkgrey;' src='img/tf1_3_M_ss2.jpeg'></img>,1,NA,exp,NA,0,<img src='img/tf1_3_T1_ss2_md.jpeg'></img>,0,TRUE,NA,sub144
NA,html-keyboard-response,19,59640,0.0-10.0-0.3,"""event"",""trial"",""time""
""focus"",""0"",""6151""
""fullscreenenter"",""0"",""7318""
""fullscreenexit"",""8"",""34486""
""blur"",""10"",""37920""
""focus"",""10"",""41666""
","""event"",""trial"",""time""
""blur"",""10"",""37920""
","""event"",""trial"",""time""
""focus"",""0"",""6151""
""focus"",""10"",""41666""
","""event"",""trial"",""time""
""fullscreenenter"",""0"",""7318""
","""event"",""trial"",""time""
""fullscreenexit"",""8"",""34486""
",null,"<div style=""font-size:60px;"">+</div>",NA,null,fixation,2020-06-29T02:35:06Z,NA,NA,NA,NA,NA,sub144
NA,mars-trial,20,66080,0.0-10.0-1.3,"""event"",""trial"",""time""
""focus"",""0"",""6151""
""fullscreenenter"",""0"",""7318""
""fullscreenexit"",""8"",""34486""
""blur"",""10"",""37920""
""focus"",""10"",""41666""
","""event"",""trial"",""time""
""blur"",""10"",""37920""
","""event"",""trial"",""time""
""focus"",""0"",""6151""
""focus"",""10"",""41666""
","""event"",""trial"",""time""
""fullscreenenter"",""0"",""7318""
","""event"",""trial"",""time""
""fullscreenexit"",""8"",""34486""
",5835.059999997611,<img style='border: 4px solid darkgrey;' src='img/tf1_4_M_ss3.jpeg'></img>,3,NA,exp,NA,0,<img src='img/tf1_4_T1_ss3_md.jpeg'></img>,0,TRUE,NA,sub144
NA,html-keyboard-response,21,66584,0.0-10.0-0.4,"""event"",""trial"",""time""
""focus"",""0"",""6151""
""fullscreenenter"",""0"",""7318""
""fullscreenexit"",""8"",""34486""
""blur"",""10"",""37920""
""focus"",""10"",""41666""
","""event"",""trial"",""time""
""blur"",""10"",""37920""
","""event"",""trial"",""time""
""focus"",""0"",""6151""
""focus"",""10"",""41666""
","""event"",""trial"",""time""
""fullscreenenter"",""0"",""7318""
","""event"",""trial"",""time""
""fullscreenexit"",""8"",""34486""
",null,"<div style=""font-size:60px;"">+</div>",NA,null,fixation,2020-06-29T02:35:13Z,NA,NA,NA,NA,NA,sub144
NA,mars-trial,22,69703,0.0-10.0-1.4,"""event"",""trial"",""time""
""focus"",""0"",""6151""
""fullscreenenter"",""0"",""7318""
""fullscreenexit"",""8"",""34486""
""blur"",""10"",""37920""
""focus"",""10"",""41666""
","""event"",""trial"",""time""
""blur"",""10"",""37920""
","""event"",""trial"",""time""
""focus"",""0"",""6151""
""focus"",""10"",""41666""
","""event"",""trial"",""time""
""fullscreenenter"",""0"",""7318""
","""event"",""trial"",""time""
""fullscreenexit"",""8"",""34486""
",2512.6799999998184,<img style='border: 4px solid darkgrey;' src='img/tf1_5_M_ss1.jpeg'></img>,2,NA,exp,NA,0,<img src='img/tf1_5_T1_ss1_md.jpeg'></img>,0,TRUE,NA,sub144
NA,html-keyboard-response,23,70205,0.0-10.0-0.5,"""event"",""trial"",""time""
""focus"",""0"",""6151""
""fullscreenenter"",""0"",""7318""
""fullscreenexit"",""8"",""34486""
""blur"",""10"",""37920""
""focus"",""10"",""41666""
","""event"",""trial"",""time""
""blur"",""10"",""37920""
","""event"",""trial"",""time""
""focus"",""0"",""6151""
""focus"",""10"",""41666""
","""event"",""trial"",""time""
""fullscreenenter"",""0"",""7318""
","""event"",""trial"",""time""
""fullscreenexit"",""8"",""34486""
",null,"<div style=""font-size:60px;"">+</div>",NA,null,fixation,2020-06-29T02:35:17Z,NA,NA,NA,NA,NA,sub144
NA,mars-trial,24,79642,0.0-10.0-1.5,"""event"",""trial"",""time""
""focus"",""0"",""6151""
""fullscreenenter"",""0"",""7318""
""fullscreenexit"",""8"",""34486""
""blur"",""10"",""37920""
""focus"",""10"",""41666""
","""event"",""trial"",""time""
""blur"",""10"",""37920""
","""event"",""trial"",""time""
""focus"",""0"",""6151""
""focus"",""10"",""41666""
","""event"",""trial"",""time""
""fullscreenenter"",""0"",""7318""
","""event"",""trial"",""time""
""fullscreenexit"",""8"",""34486""
",8831.405000000814,<img style='border: 4px solid darkgrey;' src='img/tf1_6_M_ss2.jpeg'></img>,1,NA,exp,NA,1,<img src='img/tf1_6_T1_ss2_md.jpeg'></img>,0,FALSE,NA,sub144
NA,html-keyboard-response,25,80145,0.0-10.0-0.6,"""event"",""trial"",""time""
""focus"",""0"",""6151""
""fullscreenenter"",""0"",""7318""
""fullscreenexit"",""8"",""34486""
""blur"",""10"",""37920""
""focus"",""10"",""41666""
","""event"",""trial"",""time""
""blur"",""10"",""37920""
","""event"",""trial"",""time""
""focus"",""0"",""6151""
""focus"",""10"",""41666""
","""event"",""trial"",""time""
""fullscreenenter"",""0"",""7318""
","""event"",""trial"",""time""
""fullscreenexit"",""8"",""34486""
",null,"<div style=""font-size:60px;"">+</div>",NA,null,fixation,2020-06-29T02:35:27Z,NA,NA,NA,NA,NA,sub144
NA,mars-trial,26,87653,0.0-10.0-1.6,"""event"",""trial"",""time""
""focus"",""0"",""6151""
""fullscreenenter"",""0"",""7318""
""fullscreenexit"",""8"",""34486""
""blur"",""10"",""37920""
""focus"",""10"",""41666""
","""event"",""trial"",""time""
""blur"",""10"",""37920""
","""event"",""trial"",""time""
""focus"",""0"",""6151""
""focus"",""10"",""41666""
","""event"",""trial"",""time""
""fullscreenenter"",""0"",""7318""
","""event"",""trial"",""time""
""fullscreenexit"",""8"",""34486""
",6899.19000000009,<img style='border: 4px solid darkgrey;' src='img/tf1_7_M_ss3.jpeg'></img>,1,NA,exp,NA,0,<img src='img/tf1_7_T1_ss3_md.jpeg'></img>,0,TRUE,NA,sub144
NA,html-keyboard-response,27,88156,0.0-10.0-0.7,"""event"",""trial"",""time""
""focus"",""0"",""6151""
""fullscreenenter"",""0"",""7318""
""fullscreenexit"",""8"",""34486""
""blur"",""10"",""37920""
""focus"",""10"",""41666""
","""event"",""trial"",""time""
""blur"",""10"",""37920""
","""event"",""trial"",""time""
""focus"",""0"",""6151""
""focus"",""10"",""41666""
","""event"",""trial"",""time""
""fullscreenenter"",""0"",""7318""
","""event"",""trial"",""time""
""fullscreenexit"",""8"",""34486""
",null,"<div style=""font-size:60px;"">+</div>",NA,null,fixation,2020-06-29T02:35:35Z,NA,NA,NA,NA,NA,sub144
NA,mars-trial,28,95229,0.0-10.0-1.7,"""event"",""trial"",""time""
""focus"",""0"",""6151""
""fullscreenenter"",""0"",""7318""
""fullscreenexit"",""8"",""34486""
""blur"",""10"",""37920""
""focus"",""10"",""41666""
","""event"",""trial"",""time""
""blur"",""10"",""37920""
","""event"",""trial"",""time""
""focus"",""0"",""6151""
""focus"",""10"",""41666""
","""event"",""trial"",""time""
""fullscreenenter"",""0"",""7318""
","""event"",""trial"",""time""
""fullscreenexit"",""8"",""34486""
",6464.465000000928,<img style='border: 4px solid darkgrey;' src='img/tf1_8_M_ss1.jpeg'></img>,2,NA,exp,NA,0,<img src='img/tf1_8_T1_ss1_md.jpeg'></img>,0,TRUE,NA,sub144
NA,html-keyboard-response,29,95732,0.0-10.0-0.8,"""event"",""trial"",""time""
""focus"",""0"",""6151""
""fullscreenenter"",""0"",""7318""
""fullscreenexit"",""8"",""34486""
""blur"",""10"",""37920""
""focus"",""10"",""41666""
","""event"",""trial"",""time""
""blur"",""10"",""37920""
","""event"",""trial"",""time""
""focus"",""0"",""6151""
""focus"",""10"",""41666""
","""event"",""trial"",""time""
""fullscreenenter"",""0"",""7318""
","""event"",""trial"",""time""
""fullscreenexit"",""8"",""34486""
",null,"<div style=""font-size:60px;"">+</div>",NA,null,fixation,2020-06-29T02:35:42Z,NA,NA,NA,NA,NA,sub144
NA,mars-trial,30,107229,0.0-10.0-1.8,"""event"",""trial"",""time""
""focus"",""0"",""6151""
""fullscreenenter"",""0"",""7318""
""fullscreenexit"",""8"",""34486""
""blur"",""10"",""37920""
""focus"",""10"",""41666""
","""event"",""trial"",""time""
""blur"",""10"",""37920""
","""event"",""trial"",""time""
""focus"",""0"",""6151""
""focus"",""10"",""41666""
","""event"",""trial"",""time""
""fullscreenenter"",""0"",""7318""
","""event"",""trial"",""time""
""fullscreenexit"",""8"",""34486""
",10887.470000001485,<img style='border: 4px solid darkgrey;' src='img/tf1_9_M_ss2.jpeg'></img>,2,NA,exp,NA,0,<img src='img/tf1_9_T1_ss2_md.jpeg'></img>,0,TRUE,NA,sub144
NA,html-keyboard-response,31,107731,0.0-10.0-0.9,"""event"",""trial"",""time""
""focus"",""0"",""6151""
""fullscreenenter"",""0"",""7318""
""fullscreenexit"",""8"",""34486""
""blur"",""10"",""37920""
""focus"",""10"",""41666""
","""event"",""trial"",""time""
""blur"",""10"",""37920""
","""event"",""trial"",""time""
""focus"",""0"",""6151""
""focus"",""10"",""41666""
","""event"",""trial"",""time""
""fullscreenenter"",""0"",""7318""
","""event"",""trial"",""time""
""fullscreenexit"",""8"",""34486""
",null,"<div style=""font-size:60px;"">+</div>",NA,null,fixation,2020-06-29T02:35:54Z,NA,NA,NA,NA,NA,sub144
NA,mars-trial,32,122920,0.0-10.0-1.9,"""event"",""trial"",""time""
""focus"",""0"",""6151""
""fullscreenenter"",""0"",""7318""
""fullscreenexit"",""8"",""34486""
""blur"",""10"",""37920""
""focus"",""10"",""41666""
","""event"",""trial"",""time""
""blur"",""10"",""37920""
","""event"",""trial"",""time""
""focus"",""0"",""6151""
""focus"",""10"",""41666""
","""event"",""trial"",""time""
""fullscreenenter"",""0"",""7318""
","""event"",""trial"",""time""
""fullscreenexit"",""8"",""34486""
",14579.109999998764,<img style='border: 4px solid darkgrey;' src='img/tf1_10_M_ss3.jpeg'></img>,3,NA,exp,NA,0,<img src='img/tf1_10_T1_ss3_md.jpeg'></img>,0,TRUE,NA,sub144
NA,html-keyboard-response,33,123423,0.0-10.0-0.10,"""event"",""trial"",""time""
""focus"",""0"",""6151""
""fullscreenenter"",""0"",""7318""
""fullscreenexit"",""8"",""34486""
""blur"",""10"",""37920""
""focus"",""10"",""41666""
","""event"",""trial"",""time""
""blur"",""10"",""37920""
","""event"",""trial"",""time""
""focus"",""0"",""6151""
""focus"",""10"",""41666""
","""event"",""trial"",""time""
""fullscreenenter"",""0"",""7318""
","""event"",""trial"",""time""
""fullscreenexit"",""8"",""34486""
",null,"<div style=""font-size:60px;"">+</div>",NA,null,fixation,2020-06-29T02:36:10Z,NA,NA,NA,NA,NA,sub144
NA,mars-trial,34,142371,0.0-10.0-1.10,"""event"",""trial"",""time""
""focus"",""0"",""6151""
""fullscreenenter"",""0"",""7318""
""fullscreenexit"",""8"",""34486""
""blur"",""10"",""37920""
""focus"",""10"",""41666""
","""event"",""trial"",""time""
""blur"",""10"",""37920""
","""event"",""trial"",""time""
""focus"",""0"",""6151""
""focus"",""10"",""41666""
","""event"",""trial"",""time""
""fullscreenenter"",""0"",""7318""
","""event"",""trial"",""time""
""fullscreenexit"",""8"",""34486""
",18338.48500000022,<img style='border: 4px solid darkgrey;' src='img/tf1_11_M_ss1.jpeg'></img>,1,NA,exp,NA,1,<img src='img/tf1_11_T1_ss1_md.jpeg'></img>,0,FALSE,NA,sub144
NA,html-keyboard-response,35,142875,0.0-10.0-0.11,"""event"",""trial"",""time""
""focus"",""0"",""6151""
""fullscreenenter"",""0"",""7318""
""fullscreenexit"",""8"",""34486""
""blur"",""10"",""37920""
""focus"",""10"",""41666""
","""event"",""trial"",""time""
""blur"",""10"",""37920""
","""event"",""trial"",""time""
""focus"",""0"",""6151""
""focus"",""10"",""41666""
","""event"",""trial"",""time""
""fullscreenenter"",""0"",""7318""
","""event"",""trial"",""time""
""fullscreenexit"",""8"",""34486""
",null,"<div style=""font-size:60px;"">+</div>",NA,null,fixation,2020-06-29T02:36:30Z,NA,NA,NA,NA,NA,sub144
NA,mars-trial,36,158206,0.0-10.0-1.11,"""event"",""trial"",""time""
""focus"",""0"",""6151""
""fullscreenenter"",""0"",""7318""
""fullscreenexit"",""8"",""34486""
""blur"",""10"",""37920""
""focus"",""10"",""41666""
","""event"",""trial"",""time""
""blur"",""10"",""37920""
","""event"",""trial"",""time""
""focus"",""0"",""6151""
""focus"",""10"",""41666""
","""event"",""trial"",""time""
""fullscreenenter"",""0"",""7318""
","""event"",""trial"",""time""
""fullscreenexit"",""8"",""34486""
",14723.0750000017,<img style='border: 4px solid darkgrey;' src='img/tf1_12_M_ss2.jpeg'></img>,0,NA,exp,NA,1,<img src='img/tf1_12_T1_ss2_md.jpeg'></img>,0,FALSE,NA,sub144
NA,html-keyboard-response,37,158710,0.0-10.0-0.12,"""event"",""trial"",""time""
""focus"",""0"",""6151""
""fullscreenenter"",""0"",""7318""
""fullscreenexit"",""8"",""34486""
""blur"",""10"",""37920""
""focus"",""10"",""41666""
","""event"",""trial"",""time""
""blur"",""10"",""37920""
","""event"",""trial"",""time""
""focus"",""0"",""6151""
""focus"",""10"",""41666""
","""event"",""trial"",""time""
""fullscreenenter"",""0"",""7318""
","""event"",""trial"",""time""
""fullscreenexit"",""8"",""34486""
",null,"<div style=""font-size:60px;"">+</div>",NA,null,fixation,2020-06-29T02:36:45Z,NA,NA,NA,NA,NA,sub144
NA,mars-trial,38,173122,0.0-10.0-1.12,"""event"",""trial"",""time""
""focus"",""0"",""6151""
""fullscreenenter"",""0"",""7318""
""fullscreenexit"",""8"",""34486""
""blur"",""10"",""37920""
""focus"",""10"",""41666""
","""event"",""trial"",""time""
""blur"",""10"",""37920""
","""event"",""trial"",""time""
""focus"",""0"",""6151""
""focus"",""10"",""41666""
","""event"",""trial"",""time""
""fullscreenenter"",""0"",""7318""
","""event"",""trial"",""time""
""fullscreenexit"",""8"",""34486""
",13805.270000000746,<img style='border: 4px solid darkgrey;' src='img/tf1_13_M_ss3.jpeg'></img>,2,NA,exp,NA,1,<img src='img/tf1_13_T1_ss3_md.jpeg'></img>,0,FALSE,NA,sub144
NA,html-keyboard-response,39,173624,0.0-10.0-0.13,"""event"",""trial"",""time""
""focus"",""0"",""6151""
""fullscreenenter"",""0"",""7318""
""fullscreenexit"",""8"",""34486""
""blur"",""10"",""37920""
""focus"",""10"",""41666""
","""event"",""trial"",""time""
""blur"",""10"",""37920""
","""event"",""trial"",""time""
""focus"",""0"",""6151""
""focus"",""10"",""41666""
","""event"",""trial"",""time""
""fullscreenenter"",""0"",""7318""
","""event"",""trial"",""time""
""fullscreenexit"",""8"",""34486""
",null,"<div style=""font-size:60px;"">+</div>",NA,null,fixation,2020-06-29T02:37:00Z,NA,NA,NA,NA,NA,sub144
NA,mars-trial,40,198625,0.0-10.0-1.13,"""event"",""trial"",""time""
""focus"",""0"",""6151""
""fullscreenenter"",""0"",""7318""
""fullscreenexit"",""8"",""34486""
""blur"",""10"",""37920""
""focus"",""10"",""41666""
","""event"",""trial"",""time""
""blur"",""10"",""37920""
","""event"",""trial"",""time""
""focus"",""0"",""6151""
""focus"",""10"",""41666""
","""event"",""trial"",""time""
""fullscreenenter"",""0"",""7318""
","""event"",""trial"",""time""
""fullscreenexit"",""8"",""34486""
",24395.434999998542,<img style='border: 4px solid darkgrey;' src='img/tf1_14_M_ss1.jpeg'></img>,3,NA,exp,NA,1,<img src='img/tf1_14_T1_ss1_md.jpeg'></img>,0,FALSE,NA,sub144
NA,html-keyboard-response,41,199128,0.0-10.0-0.14,"""event"",""trial"",""time""
""focus"",""0"",""6151""
""fullscreenenter"",""0"",""7318""
""fullscreenexit"",""8"",""34486""
""blur"",""10"",""37920""
""focus"",""10"",""41666""
","""event"",""trial"",""time""
""blur"",""10"",""37920""
","""event"",""trial"",""time""
""focus"",""0"",""6151""
""focus"",""10"",""41666""
","""event"",""trial"",""time""
""fullscreenenter"",""0"",""7318""
","""event"",""trial"",""time""
""fullscreenexit"",""8"",""34486""
",null,"<div style=""font-size:60px;"">+</div>",NA,null,fixation,2020-06-29T02:37:26Z,NA,NA,NA,NA,NA,sub144
NA,mars-trial,42,203529,0.0-10.0-1.14,"""event"",""trial"",""time""
""focus"",""0"",""6151""
""fullscreenenter"",""0"",""7318""
""fullscreenexit"",""8"",""34486""
""blur"",""10"",""37920""
""focus"",""10"",""41666""
","""event"",""trial"",""time""
""blur"",""10"",""37920""
","""event"",""trial"",""time""
""focus"",""0"",""6151""
""focus"",""10"",""41666""
","""event"",""trial"",""time""
""fullscreenenter"",""0"",""7318""
","""event"",""trial"",""time""
""fullscreenexit"",""8"",""34486""
",3791.2749999995867,<img style='border: 4px solid darkgrey;' src='img/tf1_15_M_ss2.jpeg'></img>,3,NA,exp,NA,2,<img src='img/tf1_15_T1_ss2_md.jpeg'></img>,0,FALSE,NA,sub144
NA,html-keyboard-response,43,204033,0.0-10.0-0.15,"""event"",""trial"",""time""
""focus"",""0"",""6151""
""fullscreenenter"",""0"",""7318""
""fullscreenexit"",""8"",""34486""
""blur"",""10"",""37920""
""focus"",""10"",""41666""
","""event"",""trial"",""time""
""blur"",""10"",""37920""
","""event"",""trial"",""time""
""focus"",""0"",""6151""
""focus"",""10"",""41666""
","""event"",""trial"",""time""
""fullscreenenter"",""0"",""7318""
","""event"",""trial"",""time""
""fullscreenexit"",""8"",""34486""
",null,"<div style=""font-size:60px;"">+</div>",NA,null,fixation,2020-06-29T02:37:31Z,NA,NA,NA,NA,NA,sub144
NA,mars-trial,44,205025,0.0-10.0-1.15,"""event"",""trial"",""time""
""focus"",""0"",""6151""
""fullscreenenter"",""0"",""7318""
""fullscreenexit"",""8"",""34486""
""blur"",""10"",""37920""
""focus"",""10"",""41666""
","""event"",""trial"",""time""
""blur"",""10"",""37920""
","""event"",""trial"",""time""
""focus"",""0"",""6151""
""focus"",""10"",""41666""
","""event"",""trial"",""time""
""fullscreenenter"",""0"",""7318""
","""event"",""trial"",""time""
""fullscreenexit"",""8"",""34486""
",382.7799999999115,<img style='border: 4px solid darkgrey;' src='img/tf1_16_M_ss3.jpeg'></img>,1,NA,exp,NA,3,<img src='img/tf1_16_T1_ss3_md.jpeg'></img>,0,FALSE,NA,sub144
NA,html-keyboard-response,45,205527,0.0-10.0-0.16,"""event"",""trial"",""time""
""focus"",""0"",""6151""
""fullscreenenter"",""0"",""7318""
""fullscreenexit"",""8"",""34486""
""blur"",""10"",""37920""
""focus"",""10"",""41666""
","""event"",""trial"",""time""
""blur"",""10"",""37920""
","""event"",""trial"",""time""
""focus"",""0"",""6151""
""focus"",""10"",""41666""
","""event"",""trial"",""time""
""fullscreenenter"",""0"",""7318""
","""event"",""trial"",""time""
""fullscreenexit"",""8"",""34486""
",null,"<div style=""font-size:60px;"">+</div>",NA,null,fixation,2020-06-29T02:37:32Z,NA,NA,NA,NA,NA,sub144
NA,mars-trial,46,206550,0.0-10.0-1.16,"""event"",""trial"",""time""
""focus"",""0"",""6151""
""fullscreenenter"",""0"",""7318""
""fullscreenexit"",""8"",""34486""
""blur"",""10"",""37920""
""focus"",""10"",""41666""
","""event"",""trial"",""time""
""blur"",""10"",""37920""
","""event"",""trial"",""time""
""focus"",""0"",""6151""
""focus"",""10"",""41666""
","""event"",""trial"",""time""
""fullscreenenter"",""0"",""7318""
","""event"",""trial"",""time""
""fullscreenexit"",""8"",""34486""
",416.1199999980454,<img style='border: 4px solid darkgrey;' src='img/tf1_17_M_ss1.jpeg'></img>,2,NA,exp,NA,0,<img src='img/tf1_17_T1_ss1_md.jpeg'></img>,0,TRUE,NA,sub144
NA,html-keyboard-response,47,207054,0.0-10.0-0.17,"""event"",""trial"",""time""
""focus"",""0"",""6151""
""fullscreenenter"",""0"",""7318""
""fullscreenexit"",""8"",""34486""
""blur"",""10"",""37920""
""focus"",""10"",""41666""
","""event"",""trial"",""time""
""blur"",""10"",""37920""
","""event"",""trial"",""time""
""focus"",""0"",""6151""
""focus"",""10"",""41666""
","""event"",""trial"",""time""
""fullscreenenter"",""0"",""7318""
","""event"",""trial"",""time""
""fullscreenexit"",""8"",""34486""
",null,"<div style=""font-size:60px;"">+</div>",NA,null,fixation,2020-06-29T02:37:34Z,NA,NA,NA,NA,NA,sub144
NA,mars-trial,48,208090,0.0-10.0-1.17,"""event"",""trial"",""time""
""focus"",""0"",""6151""
""fullscreenenter"",""0"",""7318""
""fullscreenexit"",""8"",""34486""
""blur"",""10"",""37920""
""focus"",""10"",""41666""
","""event"",""trial"",""time""
""blur"",""10"",""37920""
","""event"",""trial"",""time""
""focus"",""0"",""6151""
""focus"",""10"",""41666""
","""event"",""trial"",""time""
""fullscreenenter"",""0"",""7318""
","""event"",""trial"",""time""
""fullscreenexit"",""8"",""34486""
",430.65500000011525,<img style='border: 4px solid darkgrey;' src='img/tf1_18_M_ss2.jpeg'></img>,0,NA,exp,NA,1,<img src='img/tf1_18_T1_ss2_md.jpeg'></img>,0,FALSE,NA,sub144
NA,html-keyboard-response,49,208592,0.0-10.0-0.18,"""event"",""trial"",""time""
""focus"",""0"",""6151""
""fullscreenenter"",""0"",""7318""
""fullscreenexit"",""8"",""34486""
""blur"",""10"",""37920""
""focus"",""10"",""41666""
","""event"",""trial"",""time""
""blur"",""10"",""37920""
","""event"",""trial"",""time""
""focus"",""0"",""6151""
""focus"",""10"",""41666""
","""event"",""trial"",""time""
""fullscreenenter"",""0"",""7318""
","""event"",""trial"",""time""
""fullscreenexit"",""8"",""34486""
",null,"<div style=""font-size:60px;"">+</div>",NA,null,fixation,2020-06-29T02:37:35Z,NA,NA,NA,NA,NA,sub144
NA,mars-trial,50,209699,0.0-10.0-1.18,"""event"",""trial"",""time""
""focus"",""0"",""6151""
""fullscreenenter"",""0"",""7318""
""fullscreenexit"",""8"",""34486""
""blur"",""10"",""37920""
""focus"",""10"",""41666""
","""event"",""trial"",""time""
""blur"",""10"",""37920""
","""event"",""trial"",""time""
""focus"",""0"",""6151""
""focus"",""10"",""41666""
","""event"",""trial"",""time""
""fullscreenenter"",""0"",""7318""
","""event"",""trial"",""time""
""fullscreenexit"",""8"",""34486""
",500.0399999989895,<img style='border: 4px solid darkgrey;' src='img/tf1_19_M_ss3.jpeg'></img>,3,NA,exp,NA,0,<img src='img/tf1_19_T1_ss3_md.jpeg'></img>,0,TRUE,NA,sub144
NA,html-keyboard-response,51,210204,0.0-10.0-0.19,"""event"",""trial"",""time""
""focus"",""0"",""6151""
""fullscreenenter"",""0"",""7318""
""fullscreenexit"",""8"",""34486""
""blur"",""10"",""37920""
""focus"",""10"",""41666""
","""event"",""trial"",""time""
""blur"",""10"",""37920""
","""event"",""trial"",""time""
""focus"",""0"",""6151""
""focus"",""10"",""41666""
","""event"",""trial"",""time""
""fullscreenenter"",""0"",""7318""
","""event"",""trial"",""time""
""fullscreenexit"",""8"",""34486""
",null,"<div style=""font-size:60px;"">+</div>",NA,null,fixation,2020-06-29T02:37:37Z,NA,NA,NA,NA,NA,sub144
NA,mars-trial,52,215766,0.0-10.0-1.19,"""event"",""trial"",""time""
""focus"",""0"",""6151""
""fullscreenenter"",""0"",""7318""
""fullscreenexit"",""8"",""34486""
""blur"",""10"",""37920""
""focus"",""10"",""41666""
","""event"",""trial"",""time""
""blur"",""10"",""37920""
","""event"",""trial"",""time""
""focus"",""0"",""6151""
""focus"",""10"",""41666""
","""event"",""trial"",""time""
""fullscreenenter"",""0"",""7318""
","""event"",""trial"",""time""
""fullscreenexit"",""8"",""34486""
",4952.784999997675,<img style='border: 4px solid darkgrey;' src='img/tf1_20_M_ss1.jpeg'></img>,3,NA,exp,NA,0,<img src='img/tf1_20_T1_ss1_md.jpeg'></img>,0,TRUE,NA,sub144
NA,html-keyboard-response,53,216270,0.0-10.0-0.20,"""event"",""trial"",""time""
""focus"",""0"",""6151""
""fullscreenenter"",""0"",""7318""
""fullscreenexit"",""8"",""34486""
""blur"",""10"",""37920""
""focus"",""10"",""41666""
","""event"",""trial"",""time""
""blur"",""10"",""37920""
","""event"",""trial"",""time""
""focus"",""0"",""6151""
""focus"",""10"",""41666""
","""event"",""trial"",""time""
""fullscreenenter"",""0"",""7318""
","""event"",""trial"",""time""
""fullscreenexit"",""8"",""34486""
",null,"<div style=""font-size:60px;"">+</div>",NA,null,fixation,2020-06-29T02:37:43Z,NA,NA,NA,NA,NA,sub144
NA,mars-trial,54,218863,0.0-10.0-1.20,"""event"",""trial"",""time""
""focus"",""0"",""6151""
""fullscreenenter"",""0"",""7318""
""fullscreenexit"",""8"",""34486""
""blur"",""10"",""37920""
""focus"",""10"",""41666""
","""event"",""trial"",""time""
""blur"",""10"",""37920""
","""event"",""trial"",""time""
""focus"",""0"",""6151""
""focus"",""10"",""41666""
","""event"",""trial"",""time""
""fullscreenenter"",""0"",""7318""
","""event"",""trial"",""time""
""fullscreenexit"",""8"",""34486""
",1988.5600000015984,<img style='border: 4px solid darkgrey;' src='img/tf1_21_M_ss2.jpeg'></img>,0,NA,exp,NA,2,<img src='img/tf1_21_T1_ss2_md.jpeg'></img>,0,FALSE,NA,sub144
NA,html-keyboard-response,55,219365,0.0-10.0-0.21,"""event"",""trial"",""time""
""focus"",""0"",""6151""
""fullscreenenter"",""0"",""7318""
""fullscreenexit"",""8"",""34486""
""blur"",""10"",""37920""
""focus"",""10"",""41666""
","""event"",""trial"",""time""
""blur"",""10"",""37920""
","""event"",""trial"",""time""
""focus"",""0"",""6151""
""focus"",""10"",""41666""
","""event"",""trial"",""time""
""fullscreenenter"",""0"",""7318""
","""event"",""trial"",""time""
""fullscreenexit"",""8"",""34486""
",null,"<div style=""font-size:60px;"">+</div>",NA,null,fixation,2020-06-29T02:37:46Z,NA,NA,NA,NA,NA,sub144
NA,mars-trial,56,220188,0.0-10.0-1.21,"""event"",""trial"",""time""
""focus"",""0"",""6151""
""fullscreenenter"",""0"",""7318""
""fullscreenexit"",""8"",""34486""
""blur"",""10"",""37920""
""focus"",""10"",""41666""
","""event"",""trial"",""time""
""blur"",""10"",""37920""
","""event"",""trial"",""time""
""focus"",""0"",""6151""
""focus"",""10"",""41666""
","""event"",""trial"",""time""
""fullscreenenter"",""0"",""7318""
","""event"",""trial"",""time""
""fullscreenexit"",""8"",""34486""
",218.5749999989639,<img style='border: 4px solid darkgrey;' src='img/tf1_22_M_ss3.jpeg'></img>,1,NA,exp,NA,2,<img src='img/tf1_22_T1_ss3_md.jpeg'></img>,0,FALSE,NA,sub144
NA,html-keyboard-response,57,220698,0.0-10.0-0.22,"""event"",""trial"",""time""
""focus"",""0"",""6151""
""fullscreenenter"",""0"",""7318""
""fullscreenexit"",""8"",""34486""
""blur"",""10"",""37920""
""focus"",""10"",""41666""
","""event"",""trial"",""time""
""blur"",""10"",""37920""
","""event"",""trial"",""time""
""focus"",""0"",""6151""
""focus"",""10"",""41666""
","""event"",""trial"",""time""
""fullscreenenter"",""0"",""7318""
","""event"",""trial"",""time""
""fullscreenexit"",""8"",""34486""
",null,"<div style=""font-size:60px;"">+</div>",NA,null,fixation,2020-06-29T02:37:47Z,NA,NA,NA,NA,NA,sub144
NA,mars-trial,58,221482,0.0-10.0-1.22,"""event"",""trial"",""time""
""focus"",""0"",""6151""
""fullscreenenter"",""0"",""7318""
""fullscreenexit"",""8"",""34486""
""blur"",""10"",""37920""
""focus"",""10"",""41666""
","""event"",""trial"",""time""
""blur"",""10"",""37920""
","""event"",""trial"",""time""
""focus"",""0"",""6151""
""focus"",""10"",""41666""
","""event"",""trial"",""time""
""fullscreenenter"",""0"",""7318""
","""event"",""trial"",""time""
""fullscreenexit"",""8"",""34486""
",176.26499999823864,<img style='border: 4px solid darkgrey;' src='img/tf1_23_M_ss1.jpeg'></img>,2,NA,exp,NA,1,<img src='img/tf1_23_T1_ss1_md.jpeg'></img>,0,FALSE,NA,sub144
NA,html-keyboard-response,59,221984,0.0-10.0-0.23,"""event"",""trial"",""time""
""focus"",""0"",""6151""
""fullscreenenter"",""0"",""7318""
""fullscreenexit"",""8"",""34486""
""blur"",""10"",""37920""
""focus"",""10"",""41666""
","""event"",""trial"",""time""
""blur"",""10"",""37920""
","""event"",""trial"",""time""
""focus"",""0"",""6151""
""focus"",""10"",""41666""
","""event"",""trial"",""time""
""fullscreenenter"",""0"",""7318""
","""event"",""trial"",""time""
""fullscreenexit"",""8"",""34486""
",null,"<div style=""font-size:60px;"">+</div>",NA,null,fixation,2020-06-29T02:37:49Z,NA,NA,NA,NA,NA,sub144
NA,mars-trial,60,222653,0.0-10.0-1.23,"""event"",""trial"",""time""
""focus"",""0"",""6151""
""fullscreenenter"",""0"",""7318""
""fullscreenexit"",""8"",""34486""
""blur"",""10"",""37920""
""focus"",""10"",""41666""
","""event"",""trial"",""time""
""blur"",""10"",""37920""
","""event"",""trial"",""time""
""focus"",""0"",""6151""
""focus"",""10"",""41666""
","""event"",""trial"",""time""
""fullscreenenter"",""0"",""7318""
","""event"",""trial"",""time""
""fullscreenexit"",""8"",""34486""
",63.27500000043074,<img style='border: 4px solid darkgrey;' src='img/tf1_24_M_ss2.jpeg'></img>,3,NA,exp,NA,0,<img src='img/tf1_24_T1_ss2_md.jpeg'></img>,0,TRUE,NA,sub144
NA,html-keyboard-response,61,223158,0.0-10.0-0.24,"""event"",""trial"",""time""
""focus"",""0"",""6151""
""fullscreenenter"",""0"",""7318""
""fullscreenexit"",""8"",""34486""
""blur"",""10"",""37920""
""focus"",""10"",""41666""
","""event"",""trial"",""time""
""blur"",""10"",""37920""
","""event"",""trial"",""time""
""focus"",""0"",""6151""
""focus"",""10"",""41666""
","""event"",""trial"",""time""
""fullscreenenter"",""0"",""7318""
","""event"",""trial"",""time""
""fullscreenexit"",""8"",""34486""
",null,"<div style=""font-size:60px;"">+</div>",NA,null,fixation,2020-06-29T02:37:50Z,NA,NA,NA,NA,NA,sub144
NA,mars-trial,62,223962,0.0-10.0-1.24,"""event"",""trial"",""time""
""focus"",""0"",""6151""
""fullscreenenter"",""0"",""7318""
""fullscreenexit"",""8"",""34486""
""blur"",""10"",""37920""
""focus"",""10"",""41666""
","""event"",""trial"",""time""
""blur"",""10"",""37920""
","""event"",""trial"",""time""
""focus"",""0"",""6151""
""focus"",""10"",""41666""
","""event"",""trial"",""time""
""fullscreenenter"",""0"",""7318""
","""event"",""trial"",""time""
""fullscreenexit"",""8"",""34486""
",198.31500000145752,<img style='border: 4px solid darkgrey;' src='img/tf1_25_M_ss3.jpeg'></img>,0,NA,exp,NA,1,<img src='img/tf1_25_T1_ss3_md.jpeg'></img>,0,FALSE,NA,sub144
NA,html-keyboard-response,63,224467,0.0-10.0-0.25,"""event"",""trial"",""time""
""focus"",""0"",""6151""
""fullscreenenter"",""0"",""7318""
""fullscreenexit"",""8"",""34486""
""blur"",""10"",""37920""
""focus"",""10"",""41666""
","""event"",""trial"",""time""
""blur"",""10"",""37920""
","""event"",""trial"",""time""
""focus"",""0"",""6151""
""focus"",""10"",""41666""
","""event"",""trial"",""time""
""fullscreenenter"",""0"",""7318""
","""event"",""trial"",""time""
""fullscreenexit"",""8"",""34486""
",null,"<div style=""font-size:60px;"">+</div>",NA,null,fixation,2020-06-29T02:37:51Z,NA,NA,NA,NA,NA,sub144
NA,mars-trial,64,225312,0.0-10.0-1.25,"""event"",""trial"",""time""
""focus"",""0"",""6151""
""fullscreenenter"",""0"",""7318""
""fullscreenexit"",""8"",""34486""
""blur"",""10"",""37920""
""focus"",""10"",""41666""
","""event"",""trial"",""time""
""blur"",""10"",""37920""
","""event"",""trial"",""time""
""focus"",""0"",""6151""
""focus"",""10"",""41666""
","""event"",""trial"",""time""
""fullscreenenter"",""0"",""7318""
","""event"",""trial"",""time""
""fullscreenexit"",""8"",""34486""
",235.8249999997497,<img style='border: 4px solid darkgrey;' src='img/tf1_26_M_ss1.jpeg'></img>,1,NA,exp,NA,2,<img src='img/tf1_26_T1_ss1_md.jpeg'></img>,0,FALSE,NA,sub144
NA,html-keyboard-response,65,225814,0.0-10.0-0.26,"""event"",""trial"",""time""
""focus"",""0"",""6151""
""fullscreenenter"",""0"",""7318""
""fullscreenexit"",""8"",""34486""
""blur"",""10"",""37920""
""focus"",""10"",""41666""
","""event"",""trial"",""time""
""blur"",""10"",""37920""
","""event"",""trial"",""time""
""focus"",""0"",""6151""
""focus"",""10"",""41666""
","""event"",""trial"",""time""
""fullscreenenter"",""0"",""7318""
","""event"",""trial"",""time""
""fullscreenexit"",""8"",""34486""
",null,"<div style=""font-size:60px;"">+</div>",NA,null,fixation,2020-06-29T02:37:53Z,NA,NA,NA,NA,NA,sub144
NA,mars-trial,66,226830,0.0-10.0-1.26,"""event"",""trial"",""time""
""focus"",""0"",""6151""
""fullscreenenter"",""0"",""7318""
""fullscreenexit"",""8"",""34486""
""blur"",""10"",""37920""
""focus"",""10"",""41666""
","""event"",""trial"",""time""
""blur"",""10"",""37920""
","""event"",""trial"",""time""
""focus"",""0"",""6151""
""focus"",""10"",""41666""
","""event"",""trial"",""time""
""fullscreenenter"",""0"",""7318""
","""event"",""trial"",""time""
""fullscreenexit"",""8"",""34486""
",410.9099999986938,<img style='border: 4px solid darkgrey;' src='img/tf1_27_M_ss2.jpeg'></img>,3,NA,exp,NA,3,<img src='img/tf1_27_T1_ss2_md.jpeg'></img>,0,FALSE,NA,sub144
NA,html-keyboard-response,67,227331,0.0-10.0-0.27,"""event"",""trial"",""time""
""focus"",""0"",""6151""
""fullscreenenter"",""0"",""7318""
""fullscreenexit"",""8"",""34486""
""blur"",""10"",""37920""
""focus"",""10"",""41666""
","""event"",""trial"",""time""
""blur"",""10"",""37920""
","""event"",""trial"",""time""
""focus"",""0"",""6151""
""focus"",""10"",""41666""
","""event"",""trial"",""time""
""fullscreenenter"",""0"",""7318""
","""event"",""trial"",""time""
""fullscreenexit"",""8"",""34486""
",null,"<div style=""font-size:60px;"">+</div>",NA,null,fixation,2020-06-29T02:37:54Z,NA,NA,NA,NA,NA,sub144
NA,mars-trial,68,228079,0.0-10.0-1.27,"""event"",""trial"",""time""
""focus"",""0"",""6151""
""fullscreenenter"",""0"",""7318""
""fullscreenexit"",""8"",""34486""
""blur"",""10"",""37920""
""focus"",""10"",""41666""
","""event"",""trial"",""time""
""blur"",""10"",""37920""
","""event"",""trial"",""time""
""focus"",""0"",""6151""
""focus"",""10"",""41666""
","""event"",""trial"",""time""
""fullscreenenter"",""0"",""7318""
","""event"",""trial"",""time""
""fullscreenexit"",""8"",""34486""
",141.69499999843538,<img style='border: 4px solid darkgrey;' src='img/tf1_28_M_ss3.jpeg'></img>,2,NA,exp,NA,3,<img src='img/tf1_28_T1_ss3_md.jpeg'></img>,0,FALSE,NA,sub144
NA,html-keyboard-response,69,228585,0.0-10.0-0.28,"""event"",""trial"",""time""
""focus"",""0"",""6151""
""fullscreenenter"",""0"",""7318""
""fullscreenexit"",""8"",""34486""
""blur"",""10"",""37920""
""focus"",""10"",""41666""
","""event"",""trial"",""time""
""blur"",""10"",""37920""
","""event"",""trial"",""time""
""focus"",""0"",""6151""
""focus"",""10"",""41666""
","""event"",""trial"",""time""
""fullscreenenter"",""0"",""7318""
","""event"",""trial"",""time""
""fullscreenexit"",""8"",""34486""
",null,"<div style=""font-size:60px;"">+</div>",NA,null,fixation,2020-06-29T02:37:55Z,NA,NA,NA,NA,NA,sub144
NA,mars-trial,70,229457,0.0-10.0-1.28,"""event"",""trial"",""time""
""focus"",""0"",""6151""
""fullscreenenter"",""0"",""7318""
""fullscreenexit"",""8"",""34486""
""blur"",""10"",""37920""
""focus"",""10"",""41666""
","""event"",""trial"",""time""
""blur"",""10"",""37920""
","""event"",""trial"",""time""
""focus"",""0"",""6151""
""focus"",""10"",""41666""
","""event"",""trial"",""time""
""fullscreenenter"",""0"",""7318""
","""event"",""trial"",""time""
""fullscreenexit"",""8"",""34486""
",266.66000000113854,<img style='border: 4px solid darkgrey;' src='img/tf1_29_M_ss1.jpeg'></img>,1,NA,exp,NA,0,<img src='img/tf1_29_T1_ss1_md.jpeg'></img>,0,TRUE,NA,sub144
NA,html-keyboard-response,71,229959,0.0-10.0-0.29,"""event"",""trial"",""time""
""focus"",""0"",""6151""
""fullscreenenter"",""0"",""7318""
""fullscreenexit"",""8"",""34486""
""blur"",""10"",""37920""
""focus"",""10"",""41666""
","""event"",""trial"",""time""
""blur"",""10"",""37920""
","""event"",""trial"",""time""
""focus"",""0"",""6151""
""focus"",""10"",""41666""
","""event"",""trial"",""time""
""fullscreenenter"",""0"",""7318""
","""event"",""trial"",""time""
""fullscreenexit"",""8"",""34486""
",null,"<div style=""font-size:60px;"">+</div>",NA,null,fixation,2020-06-29T02:37:57Z,NA,NA,NA,NA,NA,sub144
NA,mars-trial,72,230653,0.0-10.0-1.29,"""event"",""trial"",""time""
""focus"",""0"",""6151""
""fullscreenenter"",""0"",""7318""
""fullscreenexit"",""8"",""34486""
""blur"",""10"",""37920""
""focus"",""10"",""41666""
","""event"",""trial"",""time""
""blur"",""10"",""37920""
","""event"",""trial"",""time""
""focus"",""0"",""6151""
""focus"",""10"",""41666""
","""event"",""trial"",""time""
""fullscreenenter"",""0"",""7318""
","""event"",""trial"",""time""
""fullscreenexit"",""8"",""34486""
",85.3499999975611,<img style='border: 4px solid darkgrey;' src='img/tf1_30_M_ss2.jpeg'></img>,0,NA,exp,NA,3,<img src='img/tf1_30_T1_ss2_md.jpeg'></img>,0,FALSE,NA,sub144
NA,html-keyboard-response,73,231155,0.0-10.0-0.30,"""event"",""trial"",""time""
""focus"",""0"",""6151""
""fullscreenenter"",""0"",""7318""
""fullscreenexit"",""8"",""34486""
""blur"",""10"",""37920""
""focus"",""10"",""41666""
","""event"",""trial"",""time""
""blur"",""10"",""37920""
","""event"",""trial"",""time""
""focus"",""0"",""6151""
""focus"",""10"",""41666""
","""event"",""trial"",""time""
""fullscreenenter"",""0"",""7318""
","""event"",""trial"",""time""
""fullscreenexit"",""8"",""34486""
",null,"<div style=""font-size:60px;"">+</div>",NA,null,fixation,2020-06-29T02:37:58Z,NA,NA,NA,NA,NA,sub144
NA,mars-trial,74,231963,0.0-10.0-1.30,"""event"",""trial"",""time""
""focus"",""0"",""6151""
""fullscreenenter"",""0"",""7318""
""fullscreenexit"",""8"",""34486""
""blur"",""10"",""37920""
""focus"",""10"",""41666""
","""event"",""trial"",""time""
""blur"",""10"",""37920""
","""event"",""trial"",""time""
""focus"",""0"",""6151""
""focus"",""10"",""41666""
","""event"",""trial"",""time""
""fullscreenenter"",""0"",""7318""
","""event"",""trial"",""time""
""fullscreenexit"",""8"",""34486""
",201.77499999772408,<img style='border: 4px solid darkgrey;' src='img/tf1_31_M_ss3.jpeg'></img>,2,NA,exp,NA,0,<img src='img/tf1_31_T1_ss3_md.jpeg'></img>,0,TRUE,NA,sub144
NA,html-keyboard-response,75,232464,0.0-10.0-0.31,"""event"",""trial"",""time""
""focus"",""0"",""6151""
""fullscreenenter"",""0"",""7318""
""fullscreenexit"",""8"",""34486""
""blur"",""10"",""37920""
""focus"",""10"",""41666""
","""event"",""trial"",""time""
""blur"",""10"",""37920""
","""event"",""trial"",""time""
""focus"",""0"",""6151""
""focus"",""10"",""41666""
","""event"",""trial"",""time""
""fullscreenenter"",""0"",""7318""
","""event"",""trial"",""time""
""fullscreenexit"",""8"",""34486""
",null,"<div style=""font-size:60px;"">+</div>",NA,null,fixation,2020-06-29T02:37:59Z,NA,NA,NA,NA,NA,sub144
NA,mars-trial,76,233202,0.0-10.0-1.31,"""event"",""trial"",""time""
""focus"",""0"",""6151""
""fullscreenenter"",""0"",""7318""
""fullscreenexit"",""8"",""34486""
""blur"",""10"",""37920""
""focus"",""10"",""41666""
","""event"",""trial"",""time""
""blur"",""10"",""37920""
","""event"",""trial"",""time""
""focus"",""0"",""6151""
""focus"",""10"",""41666""
","""event"",""trial"",""time""
""fullscreenenter"",""0"",""7318""
","""event"",""trial"",""time""
""fullscreenexit"",""8"",""34486""
",127.71000000066124,<img style='border: 4px solid darkgrey;' src='img/tf1_32_M_ss1.jpeg'></img>,1,NA,exp,NA,0,<img src='img/tf1_32_T1_ss1_md.jpeg'></img>,0,TRUE,NA,sub144
NA,html-keyboard-response,77,233706,0.0-10.0-0.32,"""event"",""trial"",""time""
""focus"",""0"",""6151""
""fullscreenenter"",""0"",""7318""
""fullscreenexit"",""8"",""34486""
""blur"",""10"",""37920""
""focus"",""10"",""41666""
","""event"",""trial"",""time""
""blur"",""10"",""37920""
","""event"",""trial"",""time""
""focus"",""0"",""6151""
""focus"",""10"",""41666""
","""event"",""trial"",""time""
""fullscreenenter"",""0"",""7318""
","""event"",""trial"",""time""
""fullscreenexit"",""8"",""34486""
",null,"<div style=""font-size:60px;"">+</div>",NA,null,fixation,2020-06-29T02:38:00Z,NA,NA,NA,NA,NA,sub144
NA,mars-trial,78,235169,0.0-10.0-1.32,"""event"",""trial"",""time""
""focus"",""0"",""6151""
""fullscreenenter"",""0"",""7318""
""fullscreenexit"",""8"",""34486""
""blur"",""10"",""37920""
""focus"",""10"",""41666""
","""event"",""trial"",""time""
""blur"",""10"",""37920""
","""event"",""trial"",""time""
""focus"",""0"",""6151""
""focus"",""10"",""41666""
","""event"",""trial"",""time""
""fullscreenenter"",""0"",""7318""
","""event"",""trial"",""time""
""fullscreenexit"",""8"",""34486""
",854.5500000000175,<img style='border: 4px solid darkgrey;' src='img/tf1_33_M_ss2.jpeg'></img>,3,NA,exp,NA,2,<img src='img/tf1_33_T1_ss2_md.jpeg'></img>,0,FALSE,NA,sub144
NA,html-keyboard-response,79,235674,0.0-10.0-0.33,"""event"",""trial"",""time""
""focus"",""0"",""6151""
""fullscreenenter"",""0"",""7318""
""fullscreenexit"",""8"",""34486""
""blur"",""10"",""37920""
""focus"",""10"",""41666""
","""event"",""trial"",""time""
""blur"",""10"",""37920""
","""event"",""trial"",""time""
""focus"",""0"",""6151""
""focus"",""10"",""41666""
","""event"",""trial"",""time""
""fullscreenenter"",""0"",""7318""
","""event"",""trial"",""time""
""fullscreenexit"",""8"",""34486""
",null,"<div style=""font-size:60px;"">+</div>",NA,null,fixation,2020-06-29T02:38:02Z,NA,NA,NA,NA,NA,sub144
NA,mars-trial,80,236348,0.0-10.0-1.33,"""event"",""trial"",""time""
""focus"",""0"",""6151""
""fullscreenenter"",""0"",""7318""
""fullscreenexit"",""8"",""34486""
""blur"",""10"",""37920""
""focus"",""10"",""41666""
","""event"",""trial"",""time""
""blur"",""10"",""37920""
","""event"",""trial"",""time""
""focus"",""0"",""6151""
""focus"",""10"",""41666""
","""event"",""trial"",""time""
""fullscreenenter"",""0"",""7318""
","""event"",""trial"",""time""
""fullscreenexit"",""8"",""34486""
",68.76499999998487,<img style='border: 4px solid darkgrey;' src='img/tf1_34_M_ss3.jpeg'></img>,0,NA,exp,NA,3,<img src='img/tf1_34_T1_ss3_md.jpeg'></img>,0,FALSE,NA,sub144
NA,html-keyboard-response,81,236853,0.0-10.0-0.34,"""event"",""trial"",""time""
""focus"",""0"",""6151""
""fullscreenenter"",""0"",""7318""
""fullscreenexit"",""8"",""34486""
""blur"",""10"",""37920""
""focus"",""10"",""41666""
","""event"",""trial"",""time""
""blur"",""10"",""37920""
","""event"",""trial"",""time""
""focus"",""0"",""6151""
""focus"",""10"",""41666""
","""event"",""trial"",""time""
""fullscreenenter"",""0"",""7318""
","""event"",""trial"",""time""
""fullscreenexit"",""8"",""34486""
",null,"<div style=""font-size:60px;"">+</div>",NA,null,fixation,2020-06-29T02:38:04Z,NA,NA,NA,NA,NA,sub144
NA,mars-trial,82,237505,0.0-10.0-1.34,"""event"",""trial"",""time""
""focus"",""0"",""6151""
""fullscreenenter"",""0"",""7318""
""fullscreenexit"",""8"",""34486""
""blur"",""10"",""37920""
""focus"",""10"",""41666""
","""event"",""trial"",""time""
""blur"",""10"",""37920""
","""event"",""trial"",""time""
""focus"",""0"",""6151""
""focus"",""10"",""41666""
","""event"",""trial"",""time""
""fullscreenenter"",""0"",""7318""
","""event"",""trial"",""time""
""fullscreenexit"",""8"",""34486""
",47.299999998358544,<img style='border: 4px solid darkgrey;' src='img/tf1_35_M_ss1.jpeg'></img>,2,NA,exp,NA,0,<img src='img/tf1_35_T1_ss1_md.jpeg'></img>,0,TRUE,NA,sub144
NA,html-keyboard-response,83,238010,0.0-10.0-0.35,"""event"",""trial"",""time""
""focus"",""0"",""6151""
""fullscreenenter"",""0"",""7318""
""fullscreenexit"",""8"",""34486""
""blur"",""10"",""37920""
""focus"",""10"",""41666""
","""event"",""trial"",""time""
""blur"",""10"",""37920""
","""event"",""trial"",""time""
""focus"",""0"",""6151""
""focus"",""10"",""41666""
","""event"",""trial"",""time""
""fullscreenenter"",""0"",""7318""
","""event"",""trial"",""time""
""fullscreenexit"",""8"",""34486""
",null,"<div style=""font-size:60px;"">+</div>",NA,null,fixation,2020-06-29T02:38:05Z,NA,NA,NA,NA,NA,sub144
NA,mars-trial,84,238654,0.0-10.0-1.35,"""event"",""trial"",""time""
""focus"",""0"",""6151""
""fullscreenenter"",""0"",""7318""
""fullscreenexit"",""8"",""34486""
""blur"",""10"",""37920""
""focus"",""10"",""41666""
","""event"",""trial"",""time""
""blur"",""10"",""37920""
","""event"",""trial"",""time""
""focus"",""0"",""6151""
""focus"",""10"",""41666""
","""event"",""trial"",""time""
""fullscreenenter"",""0"",""7318""
","""event"",""trial"",""time""
""fullscreenexit"",""8"",""34486""
",38.289999996777624,<img style='border: 4px solid darkgrey;' src='img/tf1_36_M_ss2.jpeg'></img>,0,NA,exp,NA,0,<img src='img/tf1_36_T1_ss2_md.jpeg'></img>,0,TRUE,NA,sub144
NA,html-keyboard-response,85,239157,0.0-10.0-0.36,"""event"",""trial"",""time""
""focus"",""0"",""6151""
""fullscreenenter"",""0"",""7318""
""fullscreenexit"",""8"",""34486""
""blur"",""10"",""37920""
""focus"",""10"",""41666""
","""event"",""trial"",""time""
""blur"",""10"",""37920""
","""event"",""trial"",""time""
""focus"",""0"",""6151""
""focus"",""10"",""41666""
","""event"",""trial"",""time""
""fullscreenenter"",""0"",""7318""
","""event"",""trial"",""time""
""fullscreenexit"",""8"",""34486""
",null,"<div style=""font-size:60px;"">+</div>",NA,null,fixation,2020-06-29T02:38:06Z,NA,NA,NA,NA,NA,sub144
NA,mars-trial,86,239825,0.0-10.0-1.36,"""event"",""trial"",""time""
""focus"",""0"",""6151""
""fullscreenenter"",""0"",""7318""
""fullscreenexit"",""8"",""34486""
""blur"",""10"",""37920""
""focus"",""10"",""41666""
","""event"",""trial"",""time""
""blur"",""10"",""37920""
","""event"",""trial"",""time""
""focus"",""0"",""6151""
""focus"",""10"",""41666""
","""event"",""trial"",""time""
""fullscreenenter"",""0"",""7318""
","""event"",""trial"",""time""
""fullscreenexit"",""8"",""34486""
",61.440000001312,<img style='border: 4px solid darkgrey;' src='img/tf1_37_M_ss3.jpeg'></img>,1,NA,exp,NA,3,<img src='img/tf1_37_T1_ss3_md.jpeg'></img>,0,FALSE,NA,sub144
NA,html-keyboard-response,87,240329,0.0-10.0-0.37,"""event"",""trial"",""time""
""focus"",""0"",""6151""
""fullscreenenter"",""0"",""7318""
""fullscreenexit"",""8"",""34486""
""blur"",""10"",""37920""
""focus"",""10"",""41666""
","""event"",""trial"",""time""
""blur"",""10"",""37920""
","""event"",""trial"",""time""
""focus"",""0"",""6151""
""focus"",""10"",""41666""
","""event"",""trial"",""time""
""fullscreenenter"",""0"",""7318""
","""event"",""trial"",""time""
""fullscreenexit"",""8"",""34486""
",null,"<div style=""font-size:60px;"">+</div>",NA,null,fixation,2020-06-29T02:38:07Z,NA,NA,NA,NA,NA,sub144
NA,mars-trial,88,240950,0.0-10.0-1.37,"""event"",""trial"",""time""
""focus"",""0"",""6151""
""fullscreenenter"",""0"",""7318""
""fullscreenexit"",""8"",""34486""
""blur"",""10"",""37920""
""focus"",""10"",""41666""
","""event"",""trial"",""time""
""blur"",""10"",""37920""
","""event"",""trial"",""time""
""focus"",""0"",""6151""
""focus"",""10"",""41666""
","""event"",""trial"",""time""
""fullscreenenter"",""0"",""7318""
","""event"",""trial"",""time""
""fullscreenexit"",""8"",""34486""
",17.019999999320135,<img style='border: 4px solid darkgrey;' src='img/tf1_38_M_ss1.jpeg'></img>,3,NA,exp,NA,3,<img src='img/tf1_38_T1_ss1_md.jpeg'></img>,0,FALSE,NA,sub144
NA,html-keyboard-response,89,241454,0.0-10.0-0.38,"""event"",""trial"",""time""
""focus"",""0"",""6151""
""fullscreenenter"",""0"",""7318""
""fullscreenexit"",""8"",""34486""
""blur"",""10"",""37920""
""focus"",""10"",""41666""
","""event"",""trial"",""time""
""blur"",""10"",""37920""
","""event"",""trial"",""time""
""focus"",""0"",""6151""
""focus"",""10"",""41666""
","""event"",""trial"",""time""
""fullscreenenter"",""0"",""7318""
","""event"",""trial"",""time""
""fullscreenexit"",""8"",""34486""
",null,"<div style=""font-size:60px;"">+</div>",NA,null,fixation,2020-06-29T02:38:08Z,NA,NA,NA,NA,NA,sub144
NA,mars-trial,90,242088,0.0-10.0-1.38,"""event"",""trial"",""time""
""focus"",""0"",""6151""
""fullscreenenter"",""0"",""7318""
""fullscreenexit"",""8"",""34486""
""blur"",""10"",""37920""
""focus"",""10"",""41666""
","""event"",""trial"",""time""
""blur"",""10"",""37920""
","""event"",""trial"",""time""
""focus"",""0"",""6151""
""focus"",""10"",""41666""
","""event"",""trial"",""time""
""fullscreenenter"",""0"",""7318""
","""event"",""trial"",""time""
""fullscreenexit"",""8"",""34486""
",27.25500000087777,<img style='border: 4px solid darkgrey;' src='img/tf1_39_M_ss2.jpeg'></img>,2,NA,exp,NA,0,<img src='img/tf1_39_T1_ss2_md.jpeg'></img>,0,TRUE,NA,sub144
NA,html-keyboard-response,91,242594,0.0-10.0-0.39,"""event"",""trial"",""time""
""focus"",""0"",""6151""
""fullscreenenter"",""0"",""7318""
""fullscreenexit"",""8"",""34486""
""blur"",""10"",""37920""
""focus"",""10"",""41666""
","""event"",""trial"",""time""
""blur"",""10"",""37920""
","""event"",""trial"",""time""
""focus"",""0"",""6151""
""focus"",""10"",""41666""
","""event"",""trial"",""time""
""fullscreenenter"",""0"",""7318""
","""event"",""trial"",""time""
""fullscreenexit"",""8"",""34486""
",null,"<div style=""font-size:60px;"">+</div>",NA,null,fixation,2020-06-29T02:38:09Z,NA,NA,NA,NA,NA,sub144
NA,mars-trial,92,243289,0.0-10.0-1.39,"""event"",""trial"",""time""
""focus"",""0"",""6151""
""fullscreenenter"",""0"",""7318""
""fullscreenexit"",""8"",""34486""
""blur"",""10"",""37920""
""focus"",""10"",""41666""
","""event"",""trial"",""time""
""blur"",""10"",""37920""
","""event"",""trial"",""time""
""focus"",""0"",""6151""
""focus"",""10"",""41666""
","""event"",""trial"",""time""
""fullscreenenter"",""0"",""7318""
","""event"",""trial"",""time""
""fullscreenexit"",""8"",""34486""
",86.08000000094762,<img style='border: 4px solid darkgrey;' src='img/tf1_40_M_ss3.jpeg'></img>,0,NA,exp,NA,0,<img src='img/tf1_40_T1_ss3_md.jpeg'></img>,0,TRUE,NA,sub144
NA,html-keyboard-response,93,243790,0.0-10.0-0.40,"""event"",""trial"",""time""
""focus"",""0"",""6151""
""fullscreenenter"",""0"",""7318""
""fullscreenexit"",""8"",""34486""
""blur"",""10"",""37920""
""focus"",""10"",""41666""
","""event"",""trial"",""time""
""blur"",""10"",""37920""
","""event"",""trial"",""time""
""focus"",""0"",""6151""
""focus"",""10"",""41666""
","""event"",""trial"",""time""
""fullscreenenter"",""0"",""7318""
","""event"",""trial"",""time""
""fullscreenexit"",""8"",""34486""
",null,"<div style=""font-size:60px;"">+</div>",NA,null,fixation,2020-06-29T02:38:11Z,NA,NA,NA,NA,NA,sub144
NA,mars-trial,94,244582,0.0-10.0-1.40,"""event"",""trial"",""time""
""focus"",""0"",""6151""
""fullscreenenter"",""0"",""7318""
""fullscreenexit"",""8"",""34486""
""blur"",""10"",""37920""
""focus"",""10"",""41666""
","""event"",""trial"",""time""
""blur"",""10"",""37920""
","""event"",""trial"",""time""
""focus"",""0"",""6151""
""focus"",""10"",""41666""
","""event"",""trial"",""time""
""fullscreenenter"",""0"",""7318""
","""event"",""trial"",""time""
""fullscreenexit"",""8"",""34486""
",187.78000000020256,<img style='border: 4px solid darkgrey;' src='img/tf1_41_M_ss1.jpeg'></img>,3,NA,exp,NA,1,<img src='img/tf1_41_T1_ss1_md.jpeg'></img>,0,FALSE,NA,sub144
NA,html-keyboard-response,95,245084,0.0-10.0-0.41,"""event"",""trial"",""time""
""focus"",""0"",""6151""
""fullscreenenter"",""0"",""7318""
""fullscreenexit"",""8"",""34486""
""blur"",""10"",""37920""
""focus"",""10"",""41666""
","""event"",""trial"",""time""
""blur"",""10"",""37920""
","""event"",""trial"",""time""
""focus"",""0"",""6151""
""focus"",""10"",""41666""
","""event"",""trial"",""time""
""fullscreenenter"",""0"",""7318""
","""event"",""trial"",""time""
""fullscreenexit"",""8"",""34486""
",null,"<div style=""font-size:60px;"">+</div>",NA,null,fixation,2020-06-29T02:38:12Z,NA,NA,NA,NA,NA,sub144
NA,mars-trial,96,246118,0.0-10.0-1.41,"""event"",""trial"",""time""
""focus"",""0"",""6151""
""fullscreenenter"",""0"",""7318""
""fullscreenexit"",""8"",""34486""
""blur"",""10"",""37920""
""focus"",""10"",""41666""
","""event"",""trial"",""time""
""blur"",""10"",""37920""
","""event"",""trial"",""time""
""focus"",""0"",""6151""
""focus"",""10"",""41666""
","""event"",""trial"",""time""
""fullscreenenter"",""0"",""7318""
","""event"",""trial"",""time""
""fullscreenexit"",""8"",""34486""
",427.6449999997567,<img style='border: 4px solid darkgrey;' src='img/tf1_42_M_ss2.jpeg'></img>,1,NA,exp,NA,0,<img src='img/tf1_42_T1_ss2_md.jpeg'></img>,0,TRUE,NA,sub144
NA,html-keyboard-response,97,246619,0.0-10.0-0.42,"""event"",""trial"",""time""
""focus"",""0"",""6151""
""fullscreenenter"",""0"",""7318""
""fullscreenexit"",""8"",""34486""
""blur"",""10"",""37920""
""focus"",""10"",""41666""
","""event"",""trial"",""time""
""blur"",""10"",""37920""
","""event"",""trial"",""time""
""focus"",""0"",""6151""
""focus"",""10"",""41666""
","""event"",""trial"",""time""
""fullscreenenter"",""0"",""7318""
","""event"",""trial"",""time""
""fullscreenexit"",""8"",""34486""
",null,"<div style=""font-size:60px;"">+</div>",NA,null,fixation,2020-06-29T02:38:13Z,NA,NA,NA,NA,NA,sub144
NA,mars-trial,98,247355,0.0-10.0-1.42,"""event"",""trial"",""time""
""focus"",""0"",""6151""
""fullscreenenter"",""0"",""7318""
""fullscreenexit"",""8"",""34486""
""blur"",""10"",""37920""
""focus"",""10"",""41666""
","""event"",""trial"",""time""
""blur"",""10"",""37920""
","""event"",""trial"",""time""
""focus"",""0"",""6151""
""focus"",""10"",""41666""
","""event"",""trial"",""time""
""fullscreenenter"",""0"",""7318""
","""event"",""trial"",""time""
""fullscreenexit"",""8"",""34486""
",127.2499999977299,<img style='border: 4px solid darkgrey;' src='img/tf1_43_M_ss3.jpeg'></img>,2,NA,exp,NA,2,<img src='img/tf1_43_T1_ss3_md.jpeg'></img>,0,FALSE,NA,sub144
NA,html-keyboard-response,99,247858,0.0-10.0-0.43,"""event"",""trial"",""time""
""focus"",""0"",""6151""
""fullscreenenter"",""0"",""7318""
""fullscreenexit"",""8"",""34486""
""blur"",""10"",""37920""
""focus"",""10"",""41666""
","""event"",""trial"",""time""
""blur"",""10"",""37920""
","""event"",""trial"",""time""
""focus"",""0"",""6151""
""focus"",""10"",""41666""
","""event"",""trial"",""time""
""fullscreenenter"",""0"",""7318""
","""event"",""trial"",""time""
""fullscreenexit"",""8"",""34486""
",null,"<div style=""font-size:60px;"">+</div>",NA,null,fixation,2020-06-29T02:38:15Z,NA,NA,NA,NA,NA,sub144
NA,mars-trial,100,248616,0.0-10.0-1.43,"""event"",""trial"",""time""
""focus"",""0"",""6151""
""fullscreenenter"",""0"",""7318""
""fullscreenexit"",""8"",""34486""
""blur"",""10"",""37920""
""focus"",""10"",""41666""
","""event"",""trial"",""time""
""blur"",""10"",""37920""
","""event"",""trial"",""time""
""focus"",""0"",""6151""
""focus"",""10"",""41666""
","""event"",""trial"",""time""
""fullscreenenter"",""0"",""7318""
","""event"",""trial"",""time""
""fullscreenexit"",""8"",""34486""
",151.70500000022002,<img style='border: 4px solid darkgrey;' src='img/tf1_44_M_ss1.jpeg'></img>,3,NA,exp,NA,3,<img src='img/tf1_44_T1_ss1_md.jpeg'></img>,0,FALSE,NA,sub144
NA,html-keyboard-response,101,249122,0.0-10.0-0.44,"""event"",""trial"",""time""
""focus"",""0"",""6151""
""fullscreenenter"",""0"",""7318""
""fullscreenexit"",""8"",""34486""
""blur"",""10"",""37920""
""focus"",""10"",""41666""
","""event"",""trial"",""time""
""blur"",""10"",""37920""
","""event"",""trial"",""time""
""focus"",""0"",""6151""
""focus"",""10"",""41666""
","""event"",""trial"",""time""
""fullscreenenter"",""0"",""7318""
","""event"",""trial"",""time""
""fullscreenexit"",""8"",""34486""
",null,"<div style=""font-size:60px;"">+</div>",NA,null,fixation,2020-06-29T02:38:16Z,NA,NA,NA,NA,NA,sub144
NA,mars-trial,102,249752,0.0-10.0-1.44,"""event"",""trial"",""time""
""focus"",""0"",""6151""
""fullscreenenter"",""0"",""7318""
""fullscreenexit"",""8"",""34486""
""blur"",""10"",""37920""
""focus"",""10"",""41666""
","""event"",""trial"",""time""
""blur"",""10"",""37920""
","""event"",""trial"",""time""
""focus"",""0"",""6151""
""focus"",""10"",""41666""
","""event"",""trial"",""time""
""fullscreenenter"",""0"",""7318""
","""event"",""trial"",""time""
""fullscreenexit"",""8"",""34486""
",20.554999999149004,<img style='border: 4px solid darkgrey;' src='img/tf1_45_M_ss2.jpeg'></img>,2,NA,exp,NA,2,<img src='img/tf1_45_T1_ss2_md.jpeg'></img>,0,FALSE,NA,sub144
NA,html-keyboard-response,103,250256,0.0-10.0-0.45,"""event"",""trial"",""time""
""focus"",""0"",""6151""
""fullscreenenter"",""0"",""7318""
""fullscreenexit"",""8"",""34486""
""blur"",""10"",""37920""
""focus"",""10"",""41666""
","""event"",""trial"",""time""
""blur"",""10"",""37920""
","""event"",""trial"",""time""
""focus"",""0"",""6151""
""focus"",""10"",""41666""
","""event"",""trial"",""time""
""fullscreenenter"",""0"",""7318""
","""event"",""trial"",""time""
""fullscreenexit"",""8"",""34486""
",null,"<div style=""font-size:60px;"">+</div>",NA,null,fixation,2020-06-29T02:38:17Z,NA,NA,NA,NA,NA,sub144
NA,mars-trial,104,251324,0.0-10.0-1.45,"""event"",""trial"",""time""
""focus"",""0"",""6151""
""fullscreenenter"",""0"",""7318""
""fullscreenexit"",""8"",""34486""
""blur"",""10"",""37920""
""focus"",""10"",""41666""
","""event"",""trial"",""time""
""blur"",""10"",""37920""
","""event"",""trial"",""time""
""focus"",""0"",""6151""
""focus"",""10"",""41666""
","""event"",""trial"",""time""
""fullscreenenter"",""0"",""7318""
","""event"",""trial"",""time""
""fullscreenexit"",""8"",""34486""
",462.455000000773,<img style='border: 4px solid darkgrey;' src='img/tf1_46_M_ss3.jpeg'></img>,1,NA,exp,NA,0,<img src='img/tf1_46_T1_ss3_md.jpeg'></img>,0,TRUE,NA,sub144
NA,html-keyboard-response,105,251828,0.0-10.0-0.46,"""event"",""trial"",""time""
""focus"",""0"",""6151""
""fullscreenenter"",""0"",""7318""
""fullscreenexit"",""8"",""34486""
""blur"",""10"",""37920""
""focus"",""10"",""41666""
","""event"",""trial"",""time""
""blur"",""10"",""37920""
","""event"",""trial"",""time""
""focus"",""0"",""6151""
""focus"",""10"",""41666""
","""event"",""trial"",""time""
""fullscreenenter"",""0"",""7318""
","""event"",""trial"",""time""
""fullscreenexit"",""8"",""34486""
",null,"<div style=""font-size:60px;"">+</div>",NA,null,fixation,2020-06-29T02:38:19Z,NA,NA,NA,NA,NA,sub144
NA,mars-trial,106,253245,0.0-10.0-1.46,"""event"",""trial"",""time""
""focus"",""0"",""6151""
""fullscreenenter"",""0"",""7318""
""fullscreenexit"",""8"",""34486""
""blur"",""10"",""37920""
""focus"",""10"",""41666""
","""event"",""trial"",""time""
""blur"",""10"",""37920""
","""event"",""trial"",""time""
""focus"",""0"",""6151""
""focus"",""10"",""41666""
","""event"",""trial"",""time""
""fullscreenenter"",""0"",""7318""
","""event"",""trial"",""time""
""fullscreenexit"",""8"",""34486""
",810.3499999997439,<img style='border: 4px solid darkgrey;' src='img/tf1_47_M_ss1.jpeg'></img>,0,NA,exp,NA,3,<img src='img/tf1_47_T1_ss1_md.jpeg'></img>,0,FALSE,NA,sub144
NA,html-keyboard-response,107,253748,0.0-10.0-0.47,"""event"",""trial"",""time""
""focus"",""0"",""6151""
""fullscreenenter"",""0"",""7318""
""fullscreenexit"",""8"",""34486""
""blur"",""10"",""37920""
""focus"",""10"",""41666""
","""event"",""trial"",""time""
""blur"",""10"",""37920""
","""event"",""trial"",""time""
""focus"",""0"",""6151""
""focus"",""10"",""41666""
","""event"",""trial"",""time""
""fullscreenenter"",""0"",""7318""
","""event"",""trial"",""time""
""fullscreenexit"",""8"",""34486""
",null,"<div style=""font-size:60px;"">+</div>",NA,null,fixation,2020-06-29T02:38:20Z,NA,NA,NA,NA,NA,sub144
NA,mars-trial,108,254567,0.0-10.0-1.47,"""event"",""trial"",""time""
""focus"",""0"",""6151""
""fullscreenenter"",""0"",""7318""
""fullscreenexit"",""8"",""34486""
""blur"",""10"",""37920""
""focus"",""10"",""41666""
","""event"",""trial"",""time""
""blur"",""10"",""37920""
","""event"",""trial"",""time""
""focus"",""0"",""6151""
""focus"",""10"",""41666""
","""event"",""trial"",""time""
""fullscreenenter"",""0"",""7318""
","""event"",""trial"",""time""
""fullscreenexit"",""8"",""34486""
",214.1699999992852,<img style='border: 4px solid darkgrey;' src='img/tf1_48_M_ss2.jpeg'></img>,1,NA,exp,NA,2,<img src='img/tf1_48_T1_ss2_md.jpeg'></img>,0,FALSE,NA,sub144
NA,html-keyboard-response,109,255072,0.0-10.0-0.48,"""event"",""trial"",""time""
""focus"",""0"",""6151""
""fullscreenenter"",""0"",""7318""
""fullscreenexit"",""8"",""34486""
""blur"",""10"",""37920""
""focus"",""10"",""41666""
","""event"",""trial"",""time""
""blur"",""10"",""37920""
","""event"",""trial"",""time""
""focus"",""0"",""6151""
""focus"",""10"",""41666""
","""event"",""trial"",""time""
""fullscreenenter"",""0"",""7318""
","""event"",""trial"",""time""
""fullscreenexit"",""8"",""34486""
",null,"<div style=""font-size:60px;"">+</div>",NA,null,fixation,2020-06-29T02:38:22Z,NA,NA,NA,NA,NA,sub144
NA,mars-trial,110,255911,0.0-10.0-1.48,"""event"",""trial"",""time""
""focus"",""0"",""6151""
""fullscreenenter"",""0"",""7318""
""fullscreenexit"",""8"",""34486""
""blur"",""10"",""37920""
""focus"",""10"",""41666""
","""event"",""trial"",""time""
""blur"",""10"",""37920""
","""event"",""trial"",""time""
""focus"",""0"",""6151""
""focus"",""10"",""41666""
","""event"",""trial"",""time""
""fullscreenenter"",""0"",""7318""
","""event"",""trial"",""time""
""fullscreenexit"",""8"",""34486""
",229.59500000069966,<img style='border: 4px solid darkgrey;' src='img/tf1_49_M_ss3.jpeg'></img>,2,NA,exp,NA,2,<img src='img/tf1_49_T1_ss3_md.jpeg'></img>,0,FALSE,NA,sub144
NA,html-keyboard-response,111,256414,0.0-10.0-0.49,"""event"",""trial"",""time""
""focus"",""0"",""6151""
""fullscreenenter"",""0"",""7318""
""fullscreenexit"",""8"",""34486""
""blur"",""10"",""37920""
""focus"",""10"",""41666""
","""event"",""trial"",""time""
""blur"",""10"",""37920""
","""event"",""trial"",""time""
""focus"",""0"",""6151""
""focus"",""10"",""41666""
","""event"",""trial"",""time""
""fullscreenenter"",""0"",""7318""
","""event"",""trial"",""time""
""fullscreenexit"",""8"",""34486""
",null,"<div style=""font-size:60px;"">+</div>",NA,null,fixation,2020-06-29T02:38:23Z,NA,NA,NA,NA,NA,sub144
NA,mars-trial,112,257193,0.0-10.0-1.49,"""event"",""trial"",""time""
""focus"",""0"",""6151""
""fullscreenenter"",""0"",""7318""
""fullscreenexit"",""8"",""34486""
""blur"",""10"",""37920""
""focus"",""10"",""41666""
","""event"",""trial"",""time""
""blur"",""10"",""37920""
","""event"",""trial"",""time""
""focus"",""0"",""6151""
""focus"",""10"",""41666""
","""event"",""trial"",""time""
""fullscreenenter"",""0"",""7318""
","""event"",""trial"",""time""
""fullscreenexit"",""8"",""34486""
",174.61499999993248,<img style='border: 4px solid darkgrey;' src='img/tf1_50_M_ss1.jpeg'></img>,3,NA,exp,NA,3,<img src='img/tf1_50_T1_ss1_md.jpeg'></img>,0,FALSE,NA,sub144
NA,html-keyboard-response,113,257695,0.0-10.0-0.50,"""event"",""trial"",""time""
""focus"",""0"",""6151""
""fullscreenenter"",""0"",""7318""
""fullscreenexit"",""8"",""34486""
""blur"",""10"",""37920""
""focus"",""10"",""41666""
","""event"",""trial"",""time""
""blur"",""10"",""37920""
","""event"",""trial"",""time""
""focus"",""0"",""6151""
""focus"",""10"",""41666""
","""event"",""trial"",""time""
""fullscreenenter"",""0"",""7318""
","""event"",""trial"",""time""
""fullscreenexit"",""8"",""34486""
",null,"<div style=""font-size:60px;"">+</div>",NA,null,fixation,2020-06-29T02:38:24Z,NA,NA,NA,NA,NA,sub144
NA,mars-trial,114,258408,0.0-10.0-1.50,"""event"",""trial"",""time""
""focus"",""0"",""6151""
""fullscreenenter"",""0"",""7318""
""fullscreenexit"",""8"",""34486""
""blur"",""10"",""37920""
""focus"",""10"",""41666""
","""event"",""trial"",""time""
""blur"",""10"",""37920""
","""event"",""trial"",""time""
""focus"",""0"",""6151""
""focus"",""10"",""41666""
","""event"",""trial"",""time""
""fullscreenenter"",""0"",""7318""
","""event"",""trial"",""time""
""fullscreenexit"",""8"",""34486""
",106.65499999956228,<img style='border: 4px solid darkgrey;' src='img/tf1_51_M_ss2.jpeg'></img>,1,NA,exp,NA,1,<img src='img/tf1_51_T1_ss2_md.jpeg'></img>,0,FALSE,NA,sub144
NA,html-keyboard-response,115,258915,0.0-10.0-0.51,"""event"",""trial"",""time""
""focus"",""0"",""6151""
""fullscreenenter"",""0"",""7318""
""fullscreenexit"",""8"",""34486""
""blur"",""10"",""37920""
""focus"",""10"",""41666""
","""event"",""trial"",""time""
""blur"",""10"",""37920""
","""event"",""trial"",""time""
""focus"",""0"",""6151""
""focus"",""10"",""41666""
","""event"",""trial"",""time""
""fullscreenenter"",""0"",""7318""
","""event"",""trial"",""time""
""fullscreenexit"",""8"",""34486""
",null,"<div style=""font-size:60px;"">+</div>",NA,null,fixation,2020-06-29T02:38:26Z,NA,NA,NA,NA,NA,sub144
NA,mars-trial,116,259550,0.0-10.0-1.51,"""event"",""trial"",""time""
""focus"",""0"",""6151""
""fullscreenenter"",""0"",""7318""
""fullscreenexit"",""8"",""34486""
""blur"",""10"",""37920""
""focus"",""10"",""41666""
","""event"",""trial"",""time""
""blur"",""10"",""37920""
","""event"",""trial"",""time""
""focus"",""0"",""6151""
""focus"",""10"",""41666""
","""event"",""trial"",""time""
""fullscreenenter"",""0"",""7318""
","""event"",""trial"",""time""
""fullscreenexit"",""8"",""34486""
",27.60499999928288,<img style='border: 4px solid darkgrey;' src='img/tf1_52_M_ss3.jpeg'></img>,0,NA,exp,NA,2,<img src='img/tf1_52_T1_ss3_md.jpeg'></img>,0,FALSE,NA,sub144
NA,html-keyboard-response,117,260052,0.0-10.0-0.52,"""event"",""trial"",""time""
""focus"",""0"",""6151""
""fullscreenenter"",""0"",""7318""
""fullscreenexit"",""8"",""34486""
""blur"",""10"",""37920""
""focus"",""10"",""41666""
","""event"",""trial"",""time""
""blur"",""10"",""37920""
","""event"",""trial"",""time""
""focus"",""0"",""6151""
""focus"",""10"",""41666""
","""event"",""trial"",""time""
""fullscreenenter"",""0"",""7318""
","""event"",""trial"",""time""
""fullscreenexit"",""8"",""34486""
",null,"<div style=""font-size:60px;"">+</div>",NA,null,fixation,2020-06-29T02:38:27Z,NA,NA,NA,NA,NA,sub144
NA,mars-trial,118,260851,0.0-10.0-1.52,"""event"",""trial"",""time""
""focus"",""0"",""6151""
""fullscreenenter"",""0"",""7318""
""fullscreenexit"",""8"",""34486""
""blur"",""10"",""37920""
""focus"",""10"",""41666""
","""event"",""trial"",""time""
""blur"",""10"",""37920""
","""event"",""trial"",""time""
""focus"",""0"",""6151""
""focus"",""10"",""41666""
","""event"",""trial"",""time""
""fullscreenenter"",""0"",""7318""
","""event"",""trial"",""time""
""fullscreenexit"",""8"",""34486""
",189.40500000101747,<img style='border: 4px solid darkgrey;' src='img/tf1_53_M_ss1.jpeg'></img>,2,NA,exp,NA,3,<img src='img/tf1_53_T1_ss1_md.jpeg'></img>,0,FALSE,NA,sub144
NA,html-keyboard-response,119,261353,0.0-10.0-0.53,"""event"",""trial"",""time""
""focus"",""0"",""6151""
""fullscreenenter"",""0"",""7318""
""fullscreenexit"",""8"",""34486""
""blur"",""10"",""37920""
""focus"",""10"",""41666""
","""event"",""trial"",""time""
""blur"",""10"",""37920""
","""event"",""trial"",""time""
""focus"",""0"",""6151""
""focus"",""10"",""41666""
","""event"",""trial"",""time""
""fullscreenenter"",""0"",""7318""
","""event"",""trial"",""time""
""fullscreenexit"",""8"",""34486""
",null,"<div style=""font-size:60px;"">+</div>",NA,null,fixation,2020-06-29T02:38:28Z,NA,NA,NA,NA,NA,sub144
NA,mars-trial,120,262048,0.0-10.0-1.53,"""event"",""trial"",""time""
""focus"",""0"",""6151""
""fullscreenenter"",""0"",""7318""
""fullscreenexit"",""8"",""34486""
""blur"",""10"",""37920""
""focus"",""10"",""41666""
","""event"",""trial"",""time""
""blur"",""10"",""37920""
","""event"",""trial"",""time""
""focus"",""0"",""6151""
""focus"",""10"",""41666""
","""event"",""trial"",""time""
""fullscreenenter"",""0"",""7318""
","""event"",""trial"",""time""
""fullscreenexit"",""8"",""34486""
",91.2449999996461,<img style='border: 4px solid darkgrey;' src='img/tf1_54_M_ss2.jpeg'></img>,3,NA,exp,NA,3,<img src='img/tf1_54_T1_ss2_md.jpeg'></img>,0,FALSE,NA,sub144
NA,html-keyboard-response,121,262553,0.0-10.0-0.54,"""event"",""trial"",""time""
""focus"",""0"",""6151""
""fullscreenenter"",""0"",""7318""
""fullscreenexit"",""8"",""34486""
""blur"",""10"",""37920""
""focus"",""10"",""41666""
","""event"",""trial"",""time""
""blur"",""10"",""37920""
","""event"",""trial"",""time""
""focus"",""0"",""6151""
""focus"",""10"",""41666""
","""event"",""trial"",""time""
""fullscreenenter"",""0"",""7318""
","""event"",""trial"",""time""
""fullscreenexit"",""8"",""34486""
",null,"<div style=""font-size:60px;"">+</div>",NA,null,fixation,2020-06-29T02:38:29Z,NA,NA,NA,NA,NA,sub144
NA,mars-trial,122,263244,0.0-10.0-1.54,"""event"",""trial"",""time""
""focus"",""0"",""6151""
""fullscreenenter"",""0"",""7318""
""fullscreenexit"",""8"",""34486""
""blur"",""10"",""37920""
""focus"",""10"",""41666""
","""event"",""trial"",""time""
""blur"",""10"",""37920""
","""event"",""trial"",""time""
""focus"",""0"",""6151""
""focus"",""10"",""41666""
","""event"",""trial"",""time""
""fullscreenenter"",""0"",""7318""
","""event"",""trial"",""time""
""fullscreenexit"",""8"",""34486""
",85.080000000773,<img style='border: 4px solid darkgrey;' src='img/tf1_55_M_ss3.jpeg'></img>,1,NA,exp,NA,2,<img src='img/tf1_55_T1_ss3_md.jpeg'></img>,0,FALSE,NA,sub144
NA,html-keyboard-response,123,263748,0.0-10.0-0.55,"""event"",""trial"",""time""
""focus"",""0"",""6151""
""fullscreenenter"",""0"",""7318""
""fullscreenexit"",""8"",""34486""
""blur"",""10"",""37920""
""focus"",""10"",""41666""
","""event"",""trial"",""time""
""blur"",""10"",""37920""
","""event"",""trial"",""time""
""focus"",""0"",""6151""
""focus"",""10"",""41666""
","""event"",""trial"",""time""
""fullscreenenter"",""0"",""7318""
","""event"",""trial"",""time""
""fullscreenexit"",""8"",""34486""
",null,"<div style=""font-size:60px;"">+</div>",NA,null,fixation,2020-06-29T02:38:30Z,NA,NA,NA,NA,NA,sub144
NA,mars-trial,124,264836,0.0-10.0-1.55,"""event"",""trial"",""time""
""focus"",""0"",""6151""
""fullscreenenter"",""0"",""7318""
""fullscreenexit"",""8"",""34486""
""blur"",""10"",""37920""
""focus"",""10"",""41666""
","""event"",""trial"",""time""
""blur"",""10"",""37920""
","""event"",""trial"",""time""
""focus"",""0"",""6151""
""focus"",""10"",""41666""
","""event"",""trial"",""time""
""fullscreenenter"",""0"",""7318""
","""event"",""trial"",""time""
""fullscreenexit"",""8"",""34486""
",483.24000000138767,<img style='border: 4px solid darkgrey;' src='img/tf1_56_M_ss1.jpeg'></img>,2,NA,exp,NA,3,<img src='img/tf1_56_T1_ss1_md.jpeg'></img>,0,FALSE,NA,sub144
NA,html-keyboard-response,125,265338,0.0-10.0-0.56,"""event"",""trial"",""time""
""focus"",""0"",""6151""
""fullscreenenter"",""0"",""7318""
""fullscreenexit"",""8"",""34486""
""blur"",""10"",""37920""
""focus"",""10"",""41666""
","""event"",""trial"",""time""
""blur"",""10"",""37920""
","""event"",""trial"",""time""
""focus"",""0"",""6151""
""focus"",""10"",""41666""
","""event"",""trial"",""time""
""fullscreenenter"",""0"",""7318""
","""event"",""trial"",""time""
""fullscreenexit"",""8"",""34486""
",null,"<div style=""font-size:60px;"">+</div>",NA,null,fixation,2020-06-29T02:38:32Z,NA,NA,NA,NA,NA,sub144
NA,mars-trial,126,266128,0.0-10.0-1.56,"""event"",""trial"",""time""
""focus"",""0"",""6151""
""fullscreenenter"",""0"",""7318""
""fullscreenexit"",""8"",""34486""
""blur"",""10"",""37920""
""focus"",""10"",""41666""
","""event"",""trial"",""time""
""blur"",""10"",""37920""
","""event"",""trial"",""time""
""focus"",""0"",""6151""
""focus"",""10"",""41666""
","""event"",""trial"",""time""
""fullscreenenter"",""0"",""7318""
","""event"",""trial"",""time""
""fullscreenexit"",""8"",""34486""
",183.13999999739463,<img style='border: 4px solid darkgrey;' src='img/tf1_57_M_ss2.jpeg'></img>,0,NA,exp,NA,3,<img src='img/tf1_57_T1_ss2_md.jpeg'></img>,0,FALSE,NA,sub144
NA,html-keyboard-response,127,266633,0.0-10.0-0.57,"""event"",""trial"",""time""
""focus"",""0"",""6151""
""fullscreenenter"",""0"",""7318""
""fullscreenexit"",""8"",""34486""
""blur"",""10"",""37920""
""focus"",""10"",""41666""
","""event"",""trial"",""time""
""blur"",""10"",""37920""
","""event"",""trial"",""time""
""focus"",""0"",""6151""
""focus"",""10"",""41666""
","""event"",""trial"",""time""
""fullscreenenter"",""0"",""7318""
","""event"",""trial"",""time""
""fullscreenexit"",""8"",""34486""
",null,"<div style=""font-size:60px;"">+</div>",NA,null,fixation,2020-06-29T02:38:33Z,NA,NA,NA,NA,NA,sub144
NA,mars-trial,128,267331,0.0-10.0-1.57,"""event"",""trial"",""time""
""focus"",""0"",""6151""
""fullscreenenter"",""0"",""7318""
""fullscreenexit"",""8"",""34486""
""blur"",""10"",""37920""
""focus"",""10"",""41666""
","""event"",""trial"",""time""
""blur"",""10"",""37920""
","""event"",""trial"",""time""
""focus"",""0"",""6151""
""focus"",""10"",""41666""
","""event"",""trial"",""time""
""fullscreenenter"",""0"",""7318""
","""event"",""trial"",""time""
""fullscreenexit"",""8"",""34486""
",92.02999999979511,<img style='border: 4px solid darkgrey;' src='img/tf1_58_M_ss3.jpeg'></img>,1,NA,exp,NA,1,<img src='img/tf1_58_T1_ss3_md.jpeg'></img>,0,FALSE,NA,sub144
NA,html-keyboard-response,129,267832,0.0-10.0-0.58,"""event"",""trial"",""time""
""focus"",""0"",""6151""
""fullscreenenter"",""0"",""7318""
""fullscreenexit"",""8"",""34486""
""blur"",""10"",""37920""
""focus"",""10"",""41666""
","""event"",""trial"",""time""
""blur"",""10"",""37920""
","""event"",""trial"",""time""
""focus"",""0"",""6151""
""focus"",""10"",""41666""
","""event"",""trial"",""time""
""fullscreenenter"",""0"",""7318""
","""event"",""trial"",""time""
""fullscreenexit"",""8"",""34486""
",null,"<div style=""font-size:60px;"">+</div>",NA,null,fixation,2020-06-29T02:38:35Z,NA,NA,NA,NA,NA,sub144
NA,mars-trial,130,268751,0.0-10.0-1.58,"""event"",""trial"",""time""
""focus"",""0"",""6151""
""fullscreenenter"",""0"",""7318""
""fullscreenexit"",""8"",""34486""
""blur"",""10"",""37920""
""focus"",""10"",""41666""
","""event"",""trial"",""time""
""blur"",""10"",""37920""
","""event"",""trial"",""time""
""focus"",""0"",""6151""
""focus"",""10"",""41666""
","""event"",""trial"",""time""
""fullscreenenter"",""0"",""7318""
","""event"",""trial"",""time""
""fullscreenexit"",""8"",""34486""
",312.8499999984051,<img style='border: 4px solid darkgrey;' src='img/tf1_59_M_ss1.jpeg'></img>,3,NA,exp,NA,3,<img src='img/tf1_59_T1_ss1_md.jpeg'></img>,0,FALSE,NA,sub144
NA,html-keyboard-response,131,269252,0.0-10.0-0.59,"""event"",""trial"",""time""
""focus"",""0"",""6151""
""fullscreenenter"",""0"",""7318""
""fullscreenexit"",""8"",""34486""
""blur"",""10"",""37920""
""focus"",""10"",""41666""
","""event"",""trial"",""time""
""blur"",""10"",""37920""
","""event"",""trial"",""time""
""focus"",""0"",""6151""
""focus"",""10"",""41666""
","""event"",""trial"",""time""
""fullscreenenter"",""0"",""7318""
","""event"",""trial"",""time""
""fullscreenexit"",""8"",""34486""
",null,"<div style=""font-size:60px;"">+</div>",NA,null,fixation,2020-06-29T02:38:36Z,NA,NA,NA,NA,NA,sub144
NA,mars-trial,132,270325,0.0-10.0-1.59,"""event"",""trial"",""time""
""focus"",""0"",""6151""
""fullscreenenter"",""0"",""7318""
""fullscreenexit"",""8"",""34486""
""blur"",""10"",""37920""
""focus"",""10"",""41666""
","""event"",""trial"",""time""
""blur"",""10"",""37920""
","""event"",""trial"",""time""
""focus"",""0"",""6151""
""focus"",""10"",""41666""
","""event"",""trial"",""time""
""fullscreenenter"",""0"",""7318""
","""event"",""trial"",""time""
""fullscreenexit"",""8"",""34486""
",464.7100000001956,<img style='border: 4px solid darkgrey;' src='img/tf1_60_M_ss2.jpeg'></img>,2,NA,exp,NA,0,<img src='img/tf1_60_T1_ss2_md.jpeg'></img>,0,TRUE,NA,sub144
NA,html-keyboard-response,133,270831,0.0-10.0-0.60,"""event"",""trial"",""time""
""focus"",""0"",""6151""
""fullscreenenter"",""0"",""7318""
""fullscreenexit"",""8"",""34486""
""blur"",""10"",""37920""
""focus"",""10"",""41666""
","""event"",""trial"",""time""
""blur"",""10"",""37920""
","""event"",""trial"",""time""
""focus"",""0"",""6151""
""focus"",""10"",""41666""
","""event"",""trial"",""time""
""fullscreenenter"",""0"",""7318""
","""event"",""trial"",""time""
""fullscreenexit"",""8"",""34486""
",null,"<div style=""font-size:60px;"">+</div>",NA,null,fixation,2020-06-29T02:38:38Z,NA,NA,NA,NA,NA,sub144
NA,mars-trial,134,272083,0.0-10.0-1.60,"""event"",""trial"",""time""
""focus"",""0"",""6151""
""fullscreenenter"",""0"",""7318""
""fullscreenexit"",""8"",""34486""
""blur"",""10"",""37920""
""focus"",""10"",""41666""
","""event"",""trial"",""time""
""blur"",""10"",""37920""
","""event"",""trial"",""time""
""focus"",""0"",""6151""
""focus"",""10"",""41666""
","""event"",""trial"",""time""
""fullscreenenter"",""0"",""7318""
","""event"",""trial"",""time""
""fullscreenexit"",""8"",""34486""
",644.2200000019511,<img style='border: 4px solid darkgrey;' src='img/tf1_61_M_ss3.jpeg'></img>,1,NA,exp,NA,3,<img src='img/tf1_61_T1_ss3_md.jpeg'></img>,0,FALSE,NA,sub144
NA,html-keyboard-response,135,272584,0.0-10.0-0.61,"""event"",""trial"",""time""
""focus"",""0"",""6151""
""fullscreenenter"",""0"",""7318""
""fullscreenexit"",""8"",""34486""
""blur"",""10"",""37920""
""focus"",""10"",""41666""
","""event"",""trial"",""time""
""blur"",""10"",""37920""
","""event"",""trial"",""time""
""focus"",""0"",""6151""
""focus"",""10"",""41666""
","""event"",""trial"",""time""
""fullscreenenter"",""0"",""7318""
","""event"",""trial"",""time""
""fullscreenexit"",""8"",""34486""
",null,"<div style=""font-size:60px;"">+</div>",NA,null,fixation,2020-06-29T02:38:39Z,NA,NA,NA,NA,NA,sub144
NA,mars-trial,136,273343,0.0-10.0-1.61,"""event"",""trial"",""time""
""focus"",""0"",""6151""
""fullscreenenter"",""0"",""7318""
""fullscreenexit"",""8"",""34486""
""blur"",""10"",""37920""
""focus"",""10"",""41666""
","""event"",""trial"",""time""
""blur"",""10"",""37920""
","""event"",""trial"",""time""
""focus"",""0"",""6151""
""focus"",""10"",""41666""
","""event"",""trial"",""time""
""fullscreenenter"",""0"",""7318""
","""event"",""trial"",""time""
""fullscreenexit"",""8"",""34486""
",151.50999999966007,<img style='border: 4px solid darkgrey;' src='img/tf1_62_M_ss1.jpeg'></img>,3,NA,exp,NA,1,<img src='img/tf1_62_T1_ss1_md.jpeg'></img>,0,FALSE,NA,sub144
NA,html-keyboard-response,137,273848,0.0-10.0-0.62,"""event"",""trial"",""time""
""focus"",""0"",""6151""
""fullscreenenter"",""0"",""7318""
""fullscreenexit"",""8"",""34486""
""blur"",""10"",""37920""
""focus"",""10"",""41666""
","""event"",""trial"",""time""
""blur"",""10"",""37920""
","""event"",""trial"",""time""
""focus"",""0"",""6151""
""focus"",""10"",""41666""
","""event"",""trial"",""time""
""fullscreenenter"",""0"",""7318""
","""event"",""trial"",""time""
""fullscreenexit"",""8"",""34486""
",null,"<div style=""font-size:60px;"">+</div>",NA,null,fixation,2020-06-29T02:38:41Z,NA,NA,NA,NA,NA,sub144
NA,mars-trial,138,274513,0.0-10.0-1.62,"""event"",""trial"",""time""
""focus"",""0"",""6151""
""fullscreenenter"",""0"",""7318""
""fullscreenexit"",""8"",""34486""
""blur"",""10"",""37920""
""focus"",""10"",""41666""
","""event"",""trial"",""time""
""blur"",""10"",""37920""
","""event"",""trial"",""time""
""focus"",""0"",""6151""
""focus"",""10"",""41666""
","""event"",""trial"",""time""
""fullscreenenter"",""0"",""7318""
","""event"",""trial"",""time""
""fullscreenexit"",""8"",""34486""
",57.17000000004191,<img style='border: 4px solid darkgrey;' src='img/tf1_63_M_ss2.jpeg'></img>,2,NA,exp,NA,0,<img src='img/tf1_63_T1_ss2_md.jpeg'></img>,0,TRUE,NA,sub144
NA,html-keyboard-response,139,275018,0.0-10.0-0.63,"""event"",""trial"",""time""
""focus"",""0"",""6151""
""fullscreenenter"",""0"",""7318""
""fullscreenexit"",""8"",""34486""
""blur"",""10"",""37920""
""focus"",""10"",""41666""
","""event"",""trial"",""time""
""blur"",""10"",""37920""
","""event"",""trial"",""time""
""focus"",""0"",""6151""
""focus"",""10"",""41666""
","""event"",""trial"",""time""
""fullscreenenter"",""0"",""7318""
","""event"",""trial"",""time""
""fullscreenexit"",""8"",""34486""
",null,"<div style=""font-size:60px;"">+</div>",NA,null,fixation,2020-06-29T02:38:42Z,NA,NA,NA,NA,NA,sub144
NA,mars-trial,140,276504,0.0-10.0-1.63,"""event"",""trial"",""time""
""focus"",""0"",""6151""
""fullscreenenter"",""0"",""7318""
""fullscreenexit"",""8"",""34486""
""blur"",""10"",""37920""
""focus"",""10"",""41666""
","""event"",""trial"",""time""
""blur"",""10"",""37920""
","""event"",""trial"",""time""
""focus"",""0"",""6151""
""focus"",""10"",""41666""
","""event"",""trial"",""time""
""fullscreenenter"",""0"",""7318""
","""event"",""trial"",""time""
""fullscreenexit"",""8"",""34486""
",881.1150000001653,<img style='border: 4px solid darkgrey;' src='img/tf1_64_M_ss3.jpeg'></img>,0,NA,exp,NA,3,<img src='img/tf1_64_T1_ss3_md.jpeg'></img>,0,FALSE,NA,sub144
NA,html-keyboard-response,141,277006,0.0-10.0-0.64,"""event"",""trial"",""time""
""focus"",""0"",""6151""
""fullscreenenter"",""0"",""7318""
""fullscreenexit"",""8"",""34486""
""blur"",""10"",""37920""
""focus"",""10"",""41666""
","""event"",""trial"",""time""
""blur"",""10"",""37920""
","""event"",""trial"",""time""
""focus"",""0"",""6151""
""focus"",""10"",""41666""
","""event"",""trial"",""time""
""fullscreenenter"",""0"",""7318""
","""event"",""trial"",""time""
""fullscreenexit"",""8"",""34486""
",null,"<div style=""font-size:60px;"">+</div>",NA,null,fixation,2020-06-29T02:38:44Z,NA,NA,NA,NA,NA,sub144
NA,mars-trial,142,278038,0.0-10.0-1.64,"""event"",""trial"",""time""
""focus"",""0"",""6151""
""fullscreenenter"",""0"",""7318""
""fullscreenexit"",""8"",""34486""
""blur"",""10"",""37920""
""focus"",""10"",""41666""
","""event"",""trial"",""time""
""blur"",""10"",""37920""
","""event"",""trial"",""time""
""focus"",""0"",""6151""
""focus"",""10"",""41666""
","""event"",""trial"",""time""
""fullscreenenter"",""0"",""7318""
","""event"",""trial"",""time""
""fullscreenexit"",""8"",""34486""
",425.14500000106636,<img style='border: 4px solid darkgrey;' src='img/tf1_65_M_ss1.jpeg'></img>,3,NA,exp,NA,2,<img src='img/tf1_65_T1_ss1_md.jpeg'></img>,0,FALSE,NA,sub144
NA,html-keyboard-response,143,278540,0.0-10.0-0.65,"""event"",""trial"",""time""
""focus"",""0"",""6151""
""fullscreenenter"",""0"",""7318""
""fullscreenexit"",""8"",""34486""
""blur"",""10"",""37920""
""focus"",""10"",""41666""
","""event"",""trial"",""time""
""blur"",""10"",""37920""
","""event"",""trial"",""time""
""focus"",""0"",""6151""
""focus"",""10"",""41666""
","""event"",""trial"",""time""
""fullscreenenter"",""0"",""7318""
","""event"",""trial"",""time""
""fullscreenexit"",""8"",""34486""
",null,"<div style=""font-size:60px;"">+</div>",NA,null,fixation,2020-06-29T02:38:45Z,NA,NA,NA,NA,NA,sub144
NA,mars-trial,144,279193,0.0-10.0-1.65,"""event"",""trial"",""time""
""focus"",""0"",""6151""
""fullscreenenter"",""0"",""7318""
""fullscreenexit"",""8"",""34486""
""blur"",""10"",""37920""
""focus"",""10"",""41666""
","""event"",""trial"",""time""
""blur"",""10"",""37920""
","""event"",""trial"",""time""
""focus"",""0"",""6151""
""focus"",""10"",""41666""
","""event"",""trial"",""time""
""fullscreenenter"",""0"",""7318""
","""event"",""trial"",""time""
""fullscreenexit"",""8"",""34486""
",48.984999997599516,<img style='border: 4px solid darkgrey;' src='img/tf1_66_M_ss2.jpeg'></img>,1,NA,exp,NA,2,<img src='img/tf1_66_T1_ss2_md.jpeg'></img>,0,FALSE,NA,sub144
NA,html-keyboard-response,145,279695,0.0-10.0-0.66,"""event"",""trial"",""time""
""focus"",""0"",""6151""
""fullscreenenter"",""0"",""7318""
""fullscreenexit"",""8"",""34486""
""blur"",""10"",""37920""
""focus"",""10"",""41666""
","""event"",""trial"",""time""
""blur"",""10"",""37920""
","""event"",""trial"",""time""
""focus"",""0"",""6151""
""focus"",""10"",""41666""
","""event"",""trial"",""time""
""fullscreenenter"",""0"",""7318""
","""event"",""trial"",""time""
""fullscreenexit"",""8"",""34486""
",null,"<div style=""font-size:60px;"">+</div>",NA,null,fixation,2020-06-29T02:38:46Z,NA,NA,NA,NA,NA,sub144
NA,mars-trial,146,280391,0.0-10.0-1.66,"""event"",""trial"",""time""
""focus"",""0"",""6151""
""fullscreenenter"",""0"",""7318""
""fullscreenexit"",""8"",""34486""
""blur"",""10"",""37920""
""focus"",""10"",""41666""
","""event"",""trial"",""time""
""blur"",""10"",""37920""
","""event"",""trial"",""time""
""focus"",""0"",""6151""
""focus"",""10"",""41666""
","""event"",""trial"",""time""
""fullscreenenter"",""0"",""7318""
","""event"",""trial"",""time""
""fullscreenexit"",""8"",""34486""
",86.17000000237022,<img style='border: 4px solid darkgrey;' src='img/tf1_67_M_ss3.jpeg'></img>,2,NA,exp,NA,3,<img src='img/tf1_67_T1_ss3_md.jpeg'></img>,0,FALSE,NA,sub144
NA,html-keyboard-response,147,280895,0.0-10.0-0.67,"""event"",""trial"",""time""
""focus"",""0"",""6151""
""fullscreenenter"",""0"",""7318""
""fullscreenexit"",""8"",""34486""
""blur"",""10"",""37920""
""focus"",""10"",""41666""
","""event"",""trial"",""time""
""blur"",""10"",""37920""
","""event"",""trial"",""time""
""focus"",""0"",""6151""
""focus"",""10"",""41666""
","""event"",""trial"",""time""
""fullscreenenter"",""0"",""7318""
","""event"",""trial"",""time""
""fullscreenexit"",""8"",""34486""
",null,"<div style=""font-size:60px;"">+</div>",NA,null,fixation,2020-06-29T02:38:48Z,NA,NA,NA,NA,NA,sub144
NA,mars-trial,148,281796,0.0-10.0-1.67,"""event"",""trial"",""time""
""focus"",""0"",""6151""
""fullscreenenter"",""0"",""7318""
""fullscreenexit"",""8"",""34486""
""blur"",""10"",""37920""
""focus"",""10"",""41666""
","""event"",""trial"",""time""
""blur"",""10"",""37920""
","""event"",""trial"",""time""
""focus"",""0"",""6151""
""focus"",""10"",""41666""
","""event"",""trial"",""time""
""fullscreenenter"",""0"",""7318""
","""event"",""trial"",""time""
""fullscreenexit"",""8"",""34486""
",295.5400000028312,<img style='border: 4px solid darkgrey;' src='img/tf1_68_M_ss1.jpeg'></img>,0,NA,exp,NA,3,<img src='img/tf1_68_T1_ss1_md.jpeg'></img>,0,FALSE,NA,sub144
NA,html-keyboard-response,149,282301,0.0-10.0-0.68,"""event"",""trial"",""time""
""focus"",""0"",""6151""
""fullscreenenter"",""0"",""7318""
""fullscreenexit"",""8"",""34486""
""blur"",""10"",""37920""
""focus"",""10"",""41666""
","""event"",""trial"",""time""
""blur"",""10"",""37920""
","""event"",""trial"",""time""
""focus"",""0"",""6151""
""focus"",""10"",""41666""
","""event"",""trial"",""time""
""fullscreenenter"",""0"",""7318""
","""event"",""trial"",""time""
""fullscreenexit"",""8"",""34486""
",null,"<div style=""font-size:60px;"">+</div>",NA,null,fixation,2020-06-29T02:38:49Z,NA,NA,NA,NA,NA,sub144
NA,mars-trial,150,293801,0.0-10.0-1.68,"""event"",""trial"",""time""
""focus"",""0"",""6151""
""fullscreenenter"",""0"",""7318""
""fullscreenexit"",""8"",""34486""
""blur"",""10"",""37920""
""focus"",""10"",""41666""
","""event"",""trial"",""time""
""blur"",""10"",""37920""
","""event"",""trial"",""time""
""focus"",""0"",""6151""
""focus"",""10"",""41666""
","""event"",""trial"",""time""
""fullscreenenter"",""0"",""7318""
","""event"",""trial"",""time""
""fullscreenexit"",""8"",""34486""
",10894.115000002785,<img style='border: 4px solid darkgrey;' src='img/tf1_69_M_ss2.jpeg'></img>,0,NA,exp,NA,1,<img src='img/tf1_69_T1_ss2_md.jpeg'></img>,0,FALSE,NA,sub144
NA,html-keyboard-response,151,294303,0.0-10.0-0.69,"""event"",""trial"",""time""
""focus"",""0"",""6151""
""fullscreenenter"",""0"",""7318""
""fullscreenexit"",""8"",""34486""
""blur"",""10"",""37920""
""focus"",""10"",""41666""
","""event"",""trial"",""time""
""blur"",""10"",""37920""
","""event"",""trial"",""time""
""focus"",""0"",""6151""
""focus"",""10"",""41666""
","""event"",""trial"",""time""
""fullscreenenter"",""0"",""7318""
","""event"",""trial"",""time""
""fullscreenexit"",""8"",""34486""
",null,"<div style=""font-size:60px;"">+</div>",NA,null,fixation,2020-06-29T02:39:01Z,NA,NA,NA,NA,NA,sub144
NA,mars-trial,152,301723,0.0-10.0-1.69,"""event"",""trial"",""time""
""focus"",""0"",""6151""
""fullscreenenter"",""0"",""7318""
""fullscreenexit"",""8"",""34486""
""blur"",""10"",""37920""
""focus"",""10"",""41666""
","""event"",""trial"",""time""
""blur"",""10"",""37920""
","""event"",""trial"",""time""
""focus"",""0"",""6151""
""focus"",""10"",""41666""
","""event"",""trial"",""time""
""fullscreenenter"",""0"",""7318""
","""event"",""trial"",""time""
""fullscreenexit"",""8"",""34486""
",6810.579999997572,<img style='border: 4px solid darkgrey;' src='img/tf1_70_M_ss3.jpeg'></img>,3,NA,exp,NA,1,<img src='img/tf1_70_T1_ss3_md.jpeg'></img>,0,FALSE,NA,sub144
NA,html-keyboard-response,153,302226,0.0-10.0-0.70,"""event"",""trial"",""time""
""focus"",""0"",""6151""
""fullscreenenter"",""0"",""7318""
""fullscreenexit"",""8"",""34486""
""blur"",""10"",""37920""
""focus"",""10"",""41666""
","""event"",""trial"",""time""
""blur"",""10"",""37920""
","""event"",""trial"",""time""
""focus"",""0"",""6151""
""focus"",""10"",""41666""
","""event"",""trial"",""time""
""fullscreenenter"",""0"",""7318""
","""event"",""trial"",""time""
""fullscreenexit"",""8"",""34486""
",null,"<div style=""font-size:60px;"">+</div>",NA,null,fixation,2020-06-29T02:39:09Z,NA,NA,NA,NA,NA,sub144
NA,mars-trial,154,308378,0.0-10.0-1.70,"""event"",""trial"",""time""
""focus"",""0"",""6151""
""fullscreenenter"",""0"",""7318""
""fullscreenexit"",""8"",""34486""
""blur"",""10"",""37920""
""focus"",""10"",""41666""
","""event"",""trial"",""time""
""blur"",""10"",""37920""
","""event"",""trial"",""time""
""focus"",""0"",""6151""
""focus"",""10"",""41666""
","""event"",""trial"",""time""
""fullscreenenter"",""0"",""7318""
","""event"",""trial"",""time""
""fullscreenexit"",""8"",""34486""
",5546.845000000729,<img style='border: 4px solid darkgrey;' src='img/tf1_71_M_ss1.jpeg'></img>,0,NA,exp,NA,0,<img src='img/tf1_71_T1_ss1_md.jpeg'></img>,0,TRUE,NA,sub144
NA,html-keyboard-response,155,308881,0.0-10.0-0.71,"""event"",""trial"",""time""
""focus"",""0"",""6151""
""fullscreenenter"",""0"",""7318""
""fullscreenexit"",""8"",""34486""
""blur"",""10"",""37920""
""focus"",""10"",""41666""
","""event"",""trial"",""time""
""blur"",""10"",""37920""
","""event"",""trial"",""time""
""focus"",""0"",""6151""
""focus"",""10"",""41666""
","""event"",""trial"",""time""
""fullscreenenter"",""0"",""7318""
","""event"",""trial"",""time""
""fullscreenexit"",""8"",""34486""
",null,"<div style=""font-size:60px;"">+</div>",NA,null,fixation,2020-06-29T02:39:16Z,NA,NA,NA,NA,NA,sub144
NA,mars-trial,156,312019,0.0-10.0-1.71,"""event"",""trial"",""time""
""focus"",""0"",""6151""
""fullscreenenter"",""0"",""7318""
""fullscreenexit"",""8"",""34486""
""blur"",""10"",""37920""
""focus"",""10"",""41666""
","""event"",""trial"",""time""
""blur"",""10"",""37920""
","""event"",""trial"",""time""
""focus"",""0"",""6151""
""focus"",""10"",""41666""
","""event"",""trial"",""time""
