success,trial_type,trial_index,time_elapsed,internal_node_id,interactions,blur_events,focus_events,fullscreenenter_events,fullscreenexit_events,rt,stimulus,button_pressed,key_press,part,timestamp,unshuffled_button,correct_response,correct_button,correct,value,subject_id
TRUE,fullscreen,0,6561,0.0-0.0,"""event"",""trial"",""time""
""focus"",""0"",""4780""
""fullscreenenter"",""0"",""5578""
","
","""event"",""trial"",""time""
""focus"",""0"",""4780""
","""event"",""trial"",""time""
""fullscreenenter"",""0"",""5578""
","
",NA,NA,NA,NA,NA,NA,NA,NA,NA,NA,NA,sub125
NA,pavlovia,1,6564,0.0-1.0,"""event"",""trial"",""time""
""focus"",""0"",""4780""
""fullscreenenter"",""0"",""5578""
","
","""event"",""trial"",""time""
""focus"",""0"",""4780""
","""event"",""trial"",""time""
""fullscreenenter"",""0"",""5578""
","
",NA,NA,NA,NA,NA,NA,NA,NA,NA,NA,NA,sub125
NA,html-button-response,2,7777,0.0-2.0,"""event"",""trial"",""time""
""focus"",""0"",""4780""
""fullscreenenter"",""0"",""5578""
","
","""event"",""trial"",""time""
""focus"",""0"",""4780""
","""event"",""trial"",""time""
""fullscreenenter"",""0"",""5578""
","
",1212.7350000009756,<p>Welcome! Press START to begin.</p><br>,0,NA,NA,NA,NA,NA,NA,NA,NA,sub125
NA,audio-button-response,3,18538,0.0-3.0,"""event"",""trial"",""time""
""focus"",""0"",""4780""
""fullscreenenter"",""0"",""5578""
","
","""event"",""trial"",""time""
""focus"",""0"",""4780""
","""event"",""trial"",""time""
""fullscreenenter"",""0"",""5578""
","
",10759.140000001935,audio/mars_instructions_slide2.wav,0,NA,NA,NA,NA,NA,NA,NA,NA,sub125
NA,audio-button-response,4,20796,0.0-4.0,"""event"",""trial"",""time""
""focus"",""0"",""4780""
""fullscreenenter"",""0"",""5578""
","
","""event"",""trial"",""time""
""focus"",""0"",""4780""
","""event"",""trial"",""time""
""fullscreenenter"",""0"",""5578""
","
",2257.304999999178,audio/mars_instructions_slide3.wav,0,NA,NA,NA,NA,NA,NA,NA,NA,sub125
NA,html-keyboard-response,5,21298,0.0-5.0-0.0,"""event"",""trial"",""time""
""focus"",""0"",""4780""
""fullscreenenter"",""0"",""5578""
","
","""event"",""trial"",""time""
""focus"",""0"",""4780""
","""event"",""trial"",""time""
""fullscreenenter"",""0"",""5578""
","
",null,"<div style=""font-size:60px;"">+</div>",NA,null,fixation,2020-06-24T02:51:03Z,NA,NA,NA,NA,NA,sub125
NA,mars-trial,6,30721,0.0-5.0-1.0,"""event"",""trial"",""time""
""focus"",""0"",""4780""
""fullscreenenter"",""0"",""5578""
","
","""event"",""trial"",""time""
""focus"",""0"",""4780""
","""event"",""trial"",""time""
""fullscreenenter"",""0"",""5578""
","
",7313.715000003867,<img style='border: 4px solid darkgrey;' src='practice/pt1_M1.png'></img>,3,NA,practice,NA,2,<img src='practice/pt1_T1.png'></img>,0,FALSE,NA,sub125
NA,html-keyboard-response,7,31224,0.0-5.1-0.1,"""event"",""trial"",""time""
""focus"",""0"",""4780""
""fullscreenenter"",""0"",""5578""
","
","""event"",""trial"",""time""
""focus"",""0"",""4780""
","""event"",""trial"",""time""
""fullscreenenter"",""0"",""5578""
","
",null,"<div style=""font-size:60px;"">+</div>",NA,null,fixation,2020-06-24T02:51:13Z,NA,NA,NA,NA,NA,sub125
NA,mars-trial,8,39087,0.0-5.1-1.1,"""event"",""trial"",""time""
""focus"",""0"",""4780""
""fullscreenenter"",""0"",""5578""
","
","""event"",""trial"",""time""
""focus"",""0"",""4780""
","""event"",""trial"",""time""
""fullscreenenter"",""0"",""5578""
","
",5759.824999993725,<img style='border: 4px solid darkgrey;' src='practice/pt1_M1.png'></img>,0,NA,practice,NA,0,<img src='practice/pt1_T1.png'></img>,0,TRUE,NA,sub125
NA,html-keyboard-response,9,39589,0.0-6.0-0.0,"""event"",""trial"",""time""
""focus"",""0"",""4780""
""fullscreenenter"",""0"",""5578""
","
","""event"",""trial"",""time""
""focus"",""0"",""4780""
","""event"",""trial"",""time""
""fullscreenenter"",""0"",""5578""
","
",null,"<div style=""font-size:60px;"">+</div>",NA,null,fixation,2020-06-24T02:51:21Z,NA,NA,NA,NA,NA,sub125
NA,mars-trial,10,43881,0.0-6.0-1.0,"""event"",""trial"",""time""
""focus"",""0"",""4780""
""fullscreenenter"",""0"",""5578""
","
","""event"",""trial"",""time""
""focus"",""0"",""4780""
","""event"",""trial"",""time""
""fullscreenenter"",""0"",""5578""
","
",2188.41500000417,<img style='border: 4px solid darkgrey;' src='practice/pt2_M1.png'></img>,3,NA,practice,NA,0,<img src='practice/pt2_T1.png'></img>,0,TRUE,NA,sub125
NA,html-keyboard-response,11,44386,0.0-7.0-0.0,"""event"",""trial"",""time""
""focus"",""0"",""4780""
""fullscreenenter"",""0"",""5578""
","
","""event"",""trial"",""time""
""focus"",""0"",""4780""
","""event"",""trial"",""time""
""fullscreenenter"",""0"",""5578""
","
",null,"<div style=""font-size:60px;"">+</div>",NA,null,fixation,2020-06-24T02:51:26Z,NA,NA,NA,NA,NA,sub125
NA,mars-trial,12,47915,0.0-7.0-1.0,"""event"",""trial"",""time""
""focus"",""0"",""4780""
""fullscreenenter"",""0"",""5578""
","
","""event"",""trial"",""time""
""focus"",""0"",""4780""
","""event"",""trial"",""time""
""fullscreenenter"",""0"",""5578""
","
",1422.6550000021234,<img style='border: 4px solid darkgrey;' src='practice/pt3_M1.png'></img>,0,NA,practice,NA,0,<img src='practice/pt3_T1.png'></img>,0,TRUE,NA,sub125
NA,audio-button-response,13,52350,0.0-8.0,"""event"",""trial"",""time""
""focus"",""0"",""4780""
""fullscreenenter"",""0"",""5578""
","
","""event"",""trial"",""time""
""focus"",""0"",""4780""
","""event"",""trial"",""time""
""fullscreenenter"",""0"",""5578""
","
",4433.24500000017,audio/mars_instructions_slide4.wav,0,NA,NA,NA,NA,NA,NA,NA,NA,sub125
NA,call-function,14,52351,0.0-9.0,"""event"",""trial"",""time""
""focus"",""0"",""4780""
""fullscreenenter"",""0"",""5578""
","
","""event"",""trial"",""time""
""focus"",""0"",""4780""
","""event"",""trial"",""time""
""fullscreenenter"",""0"",""5578""
","
",NA,NA,NA,NA,NA,NA,NA,NA,NA,NA,NA,sub125
NA,html-keyboard-response,15,52855,0.0-10.0-0.0,"""event"",""trial"",""time""
""focus"",""0"",""4780""
""fullscreenenter"",""0"",""5578""
","
","""event"",""trial"",""time""
""focus"",""0"",""4780""
","""event"",""trial"",""time""
""fullscreenenter"",""0"",""5578""
","
",null,"<div style=""font-size:60px;"">+</div>",NA,null,fixation,2020-06-24T02:51:34Z,NA,NA,NA,NA,NA,sub125
NA,mars-trial,16,54597,0.0-10.0-1.0,"""event"",""trial"",""time""
""focus"",""0"",""4780""
""fullscreenenter"",""0"",""5578""
","
","""event"",""trial"",""time""
""focus"",""0"",""4780""
","""event"",""trial"",""time""
""fullscreenenter"",""0"",""5578""
","
",1131.80999999895,<img style='border: 4px solid darkgrey;' src='img/tf1_1_M_ss3.jpeg'></img>,3,NA,exp,NA,0,<img src='img/tf1_1_T1_ss3_md.jpeg'></img>,0,TRUE,NA,sub125
NA,html-keyboard-response,17,55099,0.0-10.0-0.1,"""event"",""trial"",""time""
""focus"",""0"",""4780""
""fullscreenenter"",""0"",""5578""
","
","""event"",""trial"",""time""
""focus"",""0"",""4780""
","""event"",""trial"",""time""
""fullscreenenter"",""0"",""5578""
","
",null,"<div style=""font-size:60px;"">+</div>",NA,null,fixation,2020-06-24T02:51:36Z,NA,NA,NA,NA,NA,sub125
NA,mars-trial,18,58276,0.0-10.0-1.1,"""event"",""trial"",""time""
""focus"",""0"",""4780""
""fullscreenenter"",""0"",""5578""
","
","""event"",""trial"",""time""
""focus"",""0"",""4780""
","""event"",""trial"",""time""
""fullscreenenter"",""0"",""5578""
","
",2573.209999995015,<img style='border: 4px solid darkgrey;' src='img/tf1_2_M_ss1.jpeg'></img>,3,NA,exp,NA,0,<img src='img/tf1_2_T1_ss1_md.jpeg'></img>,0,TRUE,NA,sub125
NA,html-keyboard-response,19,58778,0.0-10.0-0.2,"""event"",""trial"",""time""
""focus"",""0"",""4780""
""fullscreenenter"",""0"",""5578""
","
","""event"",""trial"",""time""
""focus"",""0"",""4780""
","""event"",""trial"",""time""
""fullscreenenter"",""0"",""5578""
","
",null,"<div style=""font-size:60px;"">+</div>",NA,null,fixation,2020-06-24T02:51:40Z,NA,NA,NA,NA,NA,sub125
NA,mars-trial,20,60644,0.0-10.0-1.2,"""event"",""trial"",""time""
""focus"",""0"",""4780""
""fullscreenenter"",""0"",""5578""
","
","""event"",""trial"",""time""
""focus"",""0"",""4780""
","""event"",""trial"",""time""
""fullscreenenter"",""0"",""5578""
","
",1262.044999995851,<img style='border: 4px solid darkgrey;' src='img/tf1_3_M_ss2.jpeg'></img>,2,NA,exp,NA,0,<img src='img/tf1_3_T1_ss2_md.jpeg'></img>,0,TRUE,NA,sub125
NA,html-keyboard-response,21,61145,0.0-10.0-0.3,"""event"",""trial"",""time""
""focus"",""0"",""4780""
""fullscreenenter"",""0"",""5578""
","
","""event"",""trial"",""time""
""focus"",""0"",""4780""
","""event"",""trial"",""time""
""fullscreenenter"",""0"",""5578""
","
",null,"<div style=""font-size:60px;"">+</div>",NA,null,fixation,2020-06-24T02:51:42Z,NA,NA,NA,NA,NA,sub125
NA,mars-trial,22,64311,0.0-10.0-1.3,"""event"",""trial"",""time""
""focus"",""0"",""4780""
""fullscreenenter"",""0"",""5578""
","
","""event"",""trial"",""time""
""focus"",""0"",""4780""
","""event"",""trial"",""time""
""fullscreenenter"",""0"",""5578""
","
",2557.235000000219,<img style='border: 4px solid darkgrey;' src='img/tf1_4_M_ss3.jpeg'></img>,3,NA,exp,NA,0,<img src='img/tf1_4_T1_ss3_md.jpeg'></img>,0,TRUE,NA,sub125
NA,html-keyboard-response,23,64812,0.0-10.0-0.4,"""event"",""trial"",""time""
""focus"",""0"",""4780""
""fullscreenenter"",""0"",""5578""
","
","""event"",""trial"",""time""
""focus"",""0"",""4780""
","""event"",""trial"",""time""
""fullscreenenter"",""0"",""5578""
","
",null,"<div style=""font-size:60px;"">+</div>",NA,null,fixation,2020-06-24T02:51:46Z,NA,NA,NA,NA,NA,sub125
NA,mars-trial,24,67571,0.0-10.0-1.4,"""event"",""trial"",""time""
""focus"",""0"",""4780""
""fullscreenenter"",""0"",""5578""
","
","""event"",""trial"",""time""
""focus"",""0"",""4780""
","""event"",""trial"",""time""
""fullscreenenter"",""0"",""5578""
","
",2151.5500000023167,<img style='border: 4px solid darkgrey;' src='img/tf1_5_M_ss1.jpeg'></img>,3,NA,exp,NA,0,<img src='img/tf1_5_T1_ss1_md.jpeg'></img>,0,TRUE,NA,sub125
NA,html-keyboard-response,25,68074,0.0-10.0-0.5,"""event"",""trial"",""time""
""focus"",""0"",""4780""
""fullscreenenter"",""0"",""5578""
","
","""event"",""trial"",""time""
""focus"",""0"",""4780""
","""event"",""trial"",""time""
""fullscreenenter"",""0"",""5578""
","
",null,"<div style=""font-size:60px;"">+</div>",NA,null,fixation,2020-06-24T02:51:49Z,NA,NA,NA,NA,NA,sub125
NA,mars-trial,26,76104,0.0-10.0-1.5,"""event"",""trial"",""time""
""focus"",""0"",""4780""
""fullscreenenter"",""0"",""5578""
","
","""event"",""trial"",""time""
""focus"",""0"",""4780""
","""event"",""trial"",""time""
""fullscreenenter"",""0"",""5578""
","
",7426.3950000022305,<img style='border: 4px solid darkgrey;' src='img/tf1_6_M_ss2.jpeg'></img>,2,NA,exp,NA,0,<img src='img/tf1_6_T1_ss2_md.jpeg'></img>,0,TRUE,NA,sub125
NA,html-keyboard-response,27,76606,0.0-10.0-0.6,"""event"",""trial"",""time""
""focus"",""0"",""4780""
""fullscreenenter"",""0"",""5578""
","
","""event"",""trial"",""time""
""focus"",""0"",""4780""
","""event"",""trial"",""time""
""fullscreenenter"",""0"",""5578""
","
",null,"<div style=""font-size:60px;"">+</div>",NA,null,fixation,2020-06-24T02:51:58Z,NA,NA,NA,NA,NA,sub125
NA,mars-trial,28,81554,0.0-10.0-1.6,"""event"",""trial"",""time""
""focus"",""0"",""4780""
""fullscreenenter"",""0"",""5578""
","
","""event"",""trial"",""time""
""focus"",""0"",""4780""
","""event"",""trial"",""time""
""fullscreenenter"",""0"",""5578""
","
",4342.985000002955,<img style='border: 4px solid darkgrey;' src='img/tf1_7_M_ss3.jpeg'></img>,1,NA,exp,NA,0,<img src='img/tf1_7_T1_ss3_md.jpeg'></img>,0,TRUE,NA,sub125
NA,html-keyboard-response,29,82055,0.0-10.0-0.7,"""event"",""trial"",""time""
""focus"",""0"",""4780""
""fullscreenenter"",""0"",""5578""
","
","""event"",""trial"",""time""
""focus"",""0"",""4780""
","""event"",""trial"",""time""
""fullscreenenter"",""0"",""5578""
","
",null,"<div style=""font-size:60px;"">+</div>",NA,null,fixation,2020-06-24T02:52:03Z,NA,NA,NA,NA,NA,sub125
NA,mars-trial,30,86103,0.0-10.0-1.7,"""event"",""trial"",""time""
""focus"",""0"",""4780""
""fullscreenenter"",""0"",""5578""
","
","""event"",""trial"",""time""
""focus"",""0"",""4780""
","""event"",""trial"",""time""
""fullscreenenter"",""0"",""5578""
","
",3442.3900000037975,<img style='border: 4px solid darkgrey;' src='img/tf1_8_M_ss1.jpeg'></img>,0,NA,exp,NA,3,<img src='img/tf1_8_T1_ss1_md.jpeg'></img>,0,FALSE,NA,sub125
NA,html-keyboard-response,31,86605,0.0-10.0-0.8,"""event"",""trial"",""time""
""focus"",""0"",""4780""
""fullscreenenter"",""0"",""5578""
","
","""event"",""trial"",""time""
""focus"",""0"",""4780""
","""event"",""trial"",""time""
""fullscreenenter"",""0"",""5578""
","
",null,"<div style=""font-size:60px;"">+</div>",NA,null,fixation,2020-06-24T02:52:08Z,NA,NA,NA,NA,NA,sub125
NA,mars-trial,32,94907,0.0-10.0-1.8,"""event"",""trial"",""time""
""focus"",""0"",""4780""
""fullscreenenter"",""0"",""5578""
","
","""event"",""trial"",""time""
""focus"",""0"",""4780""
","""event"",""trial"",""time""
""fullscreenenter"",""0"",""5578""
","
",7695.494999999937,<img style='border: 4px solid darkgrey;' src='img/tf1_9_M_ss2.jpeg'></img>,2,NA,exp,NA,0,<img src='img/tf1_9_T1_ss2_md.jpeg'></img>,0,TRUE,NA,sub125
NA,html-keyboard-response,33,95409,0.0-10.0-0.9,"""event"",""trial"",""time""
""focus"",""0"",""4780""
""fullscreenenter"",""0"",""5578""
","
","""event"",""trial"",""time""
""focus"",""0"",""4780""
","""event"",""trial"",""time""
""fullscreenenter"",""0"",""5578""
","
",null,"<div style=""font-size:60px;"">+</div>",NA,null,fixation,2020-06-24T02:52:17Z,NA,NA,NA,NA,NA,sub125
NA,mars-trial,34,108381,0.0-10.0-1.9,"""event"",""trial"",""time""
""focus"",""0"",""4780""
""fullscreenenter"",""0"",""5578""
","
","""event"",""trial"",""time""
""focus"",""0"",""4780""
","""event"",""trial"",""time""
""fullscreenenter"",""0"",""5578""
","
",12363.960000002407,<img style='border: 4px solid darkgrey;' src='img/tf1_10_M_ss3.jpeg'></img>,1,NA,exp,NA,0,<img src='img/tf1_10_T1_ss3_md.jpeg'></img>,0,TRUE,NA,sub125
NA,html-keyboard-response,35,108883,0.0-10.0-0.10,"""event"",""trial"",""time""
""focus"",""0"",""4780""
""fullscreenenter"",""0"",""5578""
","
","""event"",""trial"",""time""
""focus"",""0"",""4780""
","""event"",""trial"",""time""
""fullscreenenter"",""0"",""5578""
","
",null,"<div style=""font-size:60px;"">+</div>",NA,null,fixation,2020-06-24T02:52:30Z,NA,NA,NA,NA,NA,sub125
NA,mars-trial,36,115207,0.0-10.0-1.10,"""event"",""trial"",""time""
""focus"",""0"",""4780""
""fullscreenenter"",""0"",""5578""
","
","""event"",""trial"",""time""
""focus"",""0"",""4780""
","""event"",""trial"",""time""
""fullscreenenter"",""0"",""5578""
","
",5712.374999995518,<img style='border: 4px solid darkgrey;' src='img/tf1_11_M_ss1.jpeg'></img>,1,NA,exp,NA,1,<img src='img/tf1_11_T1_ss1_md.jpeg'></img>,0,FALSE,NA,sub125
NA,html-keyboard-response,37,115712,0.0-10.0-0.11,"""event"",""trial"",""time""
""focus"",""0"",""4780""
""fullscreenenter"",""0"",""5578""
","
","""event"",""trial"",""time""
""focus"",""0"",""4780""
","""event"",""trial"",""time""
""fullscreenenter"",""0"",""5578""
","
",null,"<div style=""font-size:60px;"">+</div>",NA,null,fixation,2020-06-24T02:52:37Z,NA,NA,NA,NA,NA,sub125
NA,mars-trial,38,121994,0.0-10.0-1.11,"""event"",""trial"",""time""
""focus"",""0"",""4780""
""fullscreenenter"",""0"",""5578""
","
","""event"",""trial"",""time""
""focus"",""0"",""4780""
","""event"",""trial"",""time""
""fullscreenenter"",""0"",""5578""
","
",5675.004999997327,<img style='border: 4px solid darkgrey;' src='img/tf1_12_M_ss2.jpeg'></img>,0,NA,exp,NA,1,<img src='img/tf1_12_T1_ss2_md.jpeg'></img>,0,FALSE,NA,sub125
NA,html-keyboard-response,39,122497,0.0-10.0-0.12,"""event"",""trial"",""time""
""focus"",""0"",""4780""
""fullscreenenter"",""0"",""5578""
","
","""event"",""trial"",""time""
""focus"",""0"",""4780""
","""event"",""trial"",""time""
""fullscreenenter"",""0"",""5578""
","
",null,"<div style=""font-size:60px;"">+</div>",NA,null,fixation,2020-06-24T02:52:44Z,NA,NA,NA,NA,NA,sub125
NA,mars-trial,40,124809,0.0-10.0-1.12,"""event"",""trial"",""time""
""focus"",""0"",""4780""
""fullscreenenter"",""0"",""5578""
","
","""event"",""trial"",""time""
""focus"",""0"",""4780""
","""event"",""trial"",""time""
""fullscreenenter"",""0"",""5578""
","
",1703.6149999985355,<img style='border: 4px solid darkgrey;' src='img/tf1_13_M_ss3.jpeg'></img>,3,NA,exp,NA,1,<img src='img/tf1_13_T1_ss3_md.jpeg'></img>,0,FALSE,NA,sub125
NA,html-keyboard-response,41,125311,0.0-10.0-0.13,"""event"",""trial"",""time""
""focus"",""0"",""4780""
""fullscreenenter"",""0"",""5578""
","
","""event"",""trial"",""time""
""focus"",""0"",""4780""
","""event"",""trial"",""time""
""fullscreenenter"",""0"",""5578""
","
",null,"<div style=""font-size:60px;"">+</div>",NA,null,fixation,2020-06-24T02:52:47Z,NA,NA,NA,NA,NA,sub125
NA,mars-trial,42,126498,0.0-10.0-1.13,"""event"",""trial"",""time""
""focus"",""0"",""4780""
""fullscreenenter"",""0"",""5578""
","
","""event"",""trial"",""time""
""focus"",""0"",""4780""
","""event"",""trial"",""time""
""fullscreenenter"",""0"",""5578""
","
",581.7300000053365,<img style='border: 4px solid darkgrey;' src='img/tf1_14_M_ss1.jpeg'></img>,1,NA,exp,NA,2,<img src='img/tf1_14_T1_ss1_md.jpeg'></img>,0,FALSE,NA,sub125
NA,html-keyboard-response,43,127000,0.0-10.0-0.14,"""event"",""trial"",""time""
""focus"",""0"",""4780""
""fullscreenenter"",""0"",""5578""
","
","""event"",""trial"",""time""
""focus"",""0"",""4780""
","""event"",""trial"",""time""
""fullscreenenter"",""0"",""5578""
","
",null,"<div style=""font-size:60px;"">+</div>",NA,null,fixation,2020-06-24T02:52:48Z,NA,NA,NA,NA,NA,sub125
NA,mars-trial,44,128004,0.0-10.0-1.14,"""event"",""trial"",""time""
""focus"",""0"",""4780""
""fullscreenenter"",""0"",""5578""
","
","""event"",""trial"",""time""
""focus"",""0"",""4780""
","""event"",""trial"",""time""
""fullscreenenter"",""0"",""5578""
","
",398.82500000385335,<img style='border: 4px solid darkgrey;' src='img/tf1_15_M_ss2.jpeg'></img>,2,NA,exp,NA,0,<img src='img/tf1_15_T1_ss2_md.jpeg'></img>,0,TRUE,NA,sub125
NA,html-keyboard-response,45,128507,0.0-10.0-0.15,"""event"",""trial"",""time""
""focus"",""0"",""4780""
""fullscreenenter"",""0"",""5578""
","
","""event"",""trial"",""time""
""focus"",""0"",""4780""
","""event"",""trial"",""time""
""fullscreenenter"",""0"",""5578""
","
",null,"<div style=""font-size:60px;"">+</div>",NA,null,fixation,2020-06-24T02:52:50Z,NA,NA,NA,NA,NA,sub125
NA,mars-trial,46,129612,0.0-10.0-1.15,"""event"",""trial"",""time""
""focus"",""0"",""4780""
""fullscreenenter"",""0"",""5578""
","
","""event"",""trial"",""time""
""focus"",""0"",""4780""
","""event"",""trial"",""time""
""fullscreenenter"",""0"",""5578""
","
",498.6499999940861,<img style='border: 4px solid darkgrey;' src='img/tf1_16_M_ss3.jpeg'></img>,0,NA,exp,NA,2,<img src='img/tf1_16_T1_ss3_md.jpeg'></img>,0,FALSE,NA,sub125
NA,html-keyboard-response,47,130114,0.0-10.0-0.16,"""event"",""trial"",""time""
""focus"",""0"",""4780""
""fullscreenenter"",""0"",""5578""
","
","""event"",""trial"",""time""
""focus"",""0"",""4780""
","""event"",""trial"",""time""
""fullscreenenter"",""0"",""5578""
","
",null,"<div style=""font-size:60px;"">+</div>",NA,null,fixation,2020-06-24T02:52:51Z,NA,NA,NA,NA,NA,sub125
NA,mars-trial,48,130958,0.0-10.0-1.16,"""event"",""trial"",""time""
""focus"",""0"",""4780""
""fullscreenenter"",""0"",""5578""
","
","""event"",""trial"",""time""
""focus"",""0"",""4780""
","""event"",""trial"",""time""
""fullscreenenter"",""0"",""5578""
","
",233.3650000000489,<img style='border: 4px solid darkgrey;' src='img/tf1_17_M_ss1.jpeg'></img>,2,NA,exp,NA,1,<img src='img/tf1_17_T1_ss1_md.jpeg'></img>,0,FALSE,NA,sub125
NA,html-keyboard-response,49,131460,0.0-10.0-0.17,"""event"",""trial"",""time""
""focus"",""0"",""4780""
""fullscreenenter"",""0"",""5578""
","
","""event"",""trial"",""time""
""focus"",""0"",""4780""
","""event"",""trial"",""time""
""fullscreenenter"",""0"",""5578""
","
",null,"<div style=""font-size:60px;"">+</div>",NA,null,fixation,2020-06-24T02:52:53Z,NA,NA,NA,NA,NA,sub125
NA,mars-trial,50,132728,0.0-10.0-1.17,"""event"",""trial"",""time""
""focus"",""0"",""4780""
""fullscreenenter"",""0"",""5578""
","
","""event"",""trial"",""time""
""focus"",""0"",""4780""
","""event"",""trial"",""time""
""fullscreenenter"",""0"",""5578""
","
",663.1250000064028,<img style='border: 4px solid darkgrey;' src='img/tf1_18_M_ss2.jpeg'></img>,3,NA,exp,NA,2,<img src='img/tf1_18_T1_ss2_md.jpeg'></img>,0,FALSE,NA,sub125
NA,html-keyboard-response,51,133230,0.0-10.0-0.18,"""event"",""trial"",""time""
""focus"",""0"",""4780""
""fullscreenenter"",""0"",""5578""
","
","""event"",""trial"",""time""
""focus"",""0"",""4780""
","""event"",""trial"",""time""
""fullscreenenter"",""0"",""5578""
","
",null,"<div style=""font-size:60px;"">+</div>",NA,null,fixation,2020-06-24T02:52:55Z,NA,NA,NA,NA,NA,sub125
NA,mars-trial,52,134283,0.0-10.0-1.18,"""event"",""trial"",""time""
""focus"",""0"",""4780""
""fullscreenenter"",""0"",""5578""
","
","""event"",""trial"",""time""
""focus"",""0"",""4780""
","""event"",""trial"",""time""
""fullscreenenter"",""0"",""5578""
","
",448.39999999385327,<img style='border: 4px solid darkgrey;' src='img/tf1_19_M_ss3.jpeg'></img>,1,NA,exp,NA,0,<img src='img/tf1_19_T1_ss3_md.jpeg'></img>,0,TRUE,NA,sub125
NA,html-keyboard-response,53,134785,0.0-10.0-0.19,"""event"",""trial"",""time""
""focus"",""0"",""4780""
""fullscreenenter"",""0"",""5578""
","
","""event"",""trial"",""time""
""focus"",""0"",""4780""
","""event"",""trial"",""time""
""fullscreenenter"",""0"",""5578""
","
",null,"<div style=""font-size:60px;"">+</div>",NA,null,fixation,2020-06-24T02:52:56Z,NA,NA,NA,NA,NA,sub125
NA,mars-trial,54,135841,0.0-10.0-1.19,"""event"",""trial"",""time""
""focus"",""0"",""4780""
""fullscreenenter"",""0"",""5578""
","
","""event"",""trial"",""time""
""focus"",""0"",""4780""
","""event"",""trial"",""time""
""fullscreenenter"",""0"",""5578""
","
",446.45999999920605,<img style='border: 4px solid darkgrey;' src='img/tf1_20_M_ss1.jpeg'></img>,2,NA,exp,NA,1,<img src='img/tf1_20_T1_ss1_md.jpeg'></img>,0,FALSE,NA,sub125
NA,html-keyboard-response,55,136344,0.0-10.0-0.20,"""event"",""trial"",""time""
""focus"",""0"",""4780""
""fullscreenenter"",""0"",""5578""
","
","""event"",""trial"",""time""
""focus"",""0"",""4780""
","""event"",""trial"",""time""
""fullscreenenter"",""0"",""5578""
","
",null,"<div style=""font-size:60px;"">+</div>",NA,null,fixation,2020-06-24T02:52:58Z,NA,NA,NA,NA,NA,sub125
NA,mars-trial,56,137357,0.0-10.0-1.20,"""event"",""trial"",""time""
""focus"",""0"",""4780""
""fullscreenenter"",""0"",""5578""
","
","""event"",""trial"",""time""
""focus"",""0"",""4780""
","""event"",""trial"",""time""
""fullscreenenter"",""0"",""5578""
","
",407.005000000936,<img style='border: 4px solid darkgrey;' src='img/tf1_21_M_ss2.jpeg'></img>,0,NA,exp,NA,3,<img src='img/tf1_21_T1_ss2_md.jpeg'></img>,0,FALSE,NA,sub125
NA,html-keyboard-response,57,137863,0.0-10.0-0.21,"""event"",""trial"",""time""
""focus"",""0"",""4780""
""fullscreenenter"",""0"",""5578""
","
","""event"",""trial"",""time""
""focus"",""0"",""4780""
","""event"",""trial"",""time""
""fullscreenenter"",""0"",""5578""
","
",null,"<div style=""font-size:60px;"">+</div>",NA,null,fixation,2020-06-24T02:52:59Z,NA,NA,NA,NA,NA,sub125
NA,mars-trial,58,138991,0.0-10.0-1.21,"""event"",""trial"",""time""
""focus"",""0"",""4780""
""fullscreenenter"",""0"",""5578""
","
","""event"",""trial"",""time""
""focus"",""0"",""4780""
","""event"",""trial"",""time""
""fullscreenenter"",""0"",""5578""
","
",518.2300000014948,<img style='border: 4px solid darkgrey;' src='img/tf1_22_M_ss3.jpeg'></img>,1,NA,exp,NA,1,<img src='img/tf1_22_T1_ss3_md.jpeg'></img>,0,FALSE,NA,sub125
NA,html-keyboard-response,59,139500,0.0-10.0-0.22,"""event"",""trial"",""time""
""focus"",""0"",""4780""
""fullscreenenter"",""0"",""5578""
","
","""event"",""trial"",""time""
""focus"",""0"",""4780""
","""event"",""trial"",""time""
""fullscreenenter"",""0"",""5578""
","
",null,"<div style=""font-size:60px;"">+</div>",NA,null,fixation,2020-06-24T02:53:01Z,NA,NA,NA,NA,NA,sub125
NA,mars-trial,60,141354,0.0-10.0-1.22,"""event"",""trial"",""time""
""focus"",""0"",""4780""
""fullscreenenter"",""0"",""5578""
","
","""event"",""trial"",""time""
""focus"",""0"",""4780""
","""event"",""trial"",""time""
""fullscreenenter"",""0"",""5578""
","
",1248.6250000001746,<img style='border: 4px solid darkgrey;' src='img/tf1_23_M_ss1.jpeg'></img>,2,NA,exp,NA,1,<img src='img/tf1_23_T1_ss1_md.jpeg'></img>,0,FALSE,NA,sub125
NA,html-keyboard-response,61,141855,0.0-10.0-0.23,"""event"",""trial"",""time""
""focus"",""0"",""4780""
""fullscreenenter"",""0"",""5578""
","
","""event"",""trial"",""time""
""focus"",""0"",""4780""
","""event"",""trial"",""time""
""fullscreenenter"",""0"",""5578""
","
",null,"<div style=""font-size:60px;"">+</div>",NA,null,fixation,2020-06-24T02:53:03Z,NA,NA,NA,NA,NA,sub125
NA,mars-trial,62,144905,0.0-10.0-1.23,"""event"",""trial"",""time""
""focus"",""0"",""4780""
""fullscreenenter"",""0"",""5578""
","
","""event"",""trial"",""time""
""focus"",""0"",""4780""
","""event"",""trial"",""time""
""fullscreenenter"",""0"",""5578""
","
",2442.465000000084,<img style='border: 4px solid darkgrey;' src='img/tf1_24_M_ss2.jpeg'></img>,2,NA,exp,NA,3,<img src='img/tf1_24_T1_ss2_md.jpeg'></img>,0,FALSE,NA,sub125
NA,html-keyboard-response,63,145409,0.0-10.0-0.24,"""event"",""trial"",""time""
""focus"",""0"",""4780""
""fullscreenenter"",""0"",""5578""
","
","""event"",""trial"",""time""
""focus"",""0"",""4780""
","""event"",""trial"",""time""
""fullscreenenter"",""0"",""5578""
","
",null,"<div style=""font-size:60px;"">+</div>",NA,null,fixation,2020-06-24T02:53:07Z,NA,NA,NA,NA,NA,sub125
NA,mars-trial,64,146469,0.0-10.0-1.24,"""event"",""trial"",""time""
""focus"",""0"",""4780""
""fullscreenenter"",""0"",""5578""
","
","""event"",""trial"",""time""
""focus"",""0"",""4780""
","""event"",""trial"",""time""
""fullscreenenter"",""0"",""5578""
","
",448.63499999337364,<img style='border: 4px solid darkgrey;' src='img/tf1_25_M_ss3.jpeg'></img>,3,NA,exp,NA,2,<img src='img/tf1_25_T1_ss3_md.jpeg'></img>,0,FALSE,NA,sub125
NA,html-keyboard-response,65,146975,0.0-10.0-0.25,"""event"",""trial"",""time""
""focus"",""0"",""4780""
""fullscreenenter"",""0"",""5578""
","
","""event"",""trial"",""time""
""focus"",""0"",""4780""
","""event"",""trial"",""time""
""fullscreenenter"",""0"",""5578""
","
",null,"<div style=""font-size:60px;"">+</div>",NA,null,fixation,2020-06-24T02:53:08Z,NA,NA,NA,NA,NA,sub125
NA,mars-trial,66,149806,0.0-10.0-1.25,"""event"",""trial"",""time""
""focus"",""0"",""4780""
""fullscreenenter"",""0"",""5578""
","
","""event"",""trial"",""time""
""focus"",""0"",""4780""
","""event"",""trial"",""time""
""fullscreenenter"",""0"",""5578""
","
",2220.2550000001793,<img style='border: 4px solid darkgrey;' src='img/tf1_26_M_ss1.jpeg'></img>,3,NA,exp,NA,1,<img src='img/tf1_26_T1_ss1_md.jpeg'></img>,0,FALSE,NA,sub125
NA,html-keyboard-response,67,150308,0.0-10.0-0.26,"""event"",""trial"",""time""
""focus"",""0"",""4780""
""fullscreenenter"",""0"",""5578""
","
","""event"",""trial"",""time""
""focus"",""0"",""4780""
","""event"",""trial"",""time""
""fullscreenenter"",""0"",""5578""
","
",null,"<div style=""font-size:60px;"">+</div>",NA,null,fixation,2020-06-24T02:53:12Z,NA,NA,NA,NA,NA,sub125
NA,mars-trial,68,151572,0.0-10.0-1.26,"""event"",""trial"",""time""
""focus"",""0"",""4780""
""fullscreenenter"",""0"",""5578""
","
","""event"",""trial"",""time""
""focus"",""0"",""4780""
","""event"",""trial"",""time""
""fullscreenenter"",""0"",""5578""
","
",656.7300000024261,<img style='border: 4px solid darkgrey;' src='img/tf1_27_M_ss2.jpeg'></img>,1,NA,exp,NA,3,<img src='img/tf1_27_T1_ss2_md.jpeg'></img>,0,FALSE,NA,sub125
NA,html-keyboard-response,69,152076,0.0-10.0-0.27,"""event"",""trial"",""time""
""focus"",""0"",""4780""
""fullscreenenter"",""0"",""5578""
","
","""event"",""trial"",""time""
""focus"",""0"",""4780""
","""event"",""trial"",""time""
""fullscreenenter"",""0"",""5578""
","
",null,"<div style=""font-size:60px;"">+</div>",NA,null,fixation,2020-06-24T02:53:13Z,NA,NA,NA,NA,NA,sub125
NA,mars-trial,70,153470,0.0-10.0-1.27,"""event"",""trial"",""time""
""focus"",""0"",""4780""
""fullscreenenter"",""0"",""5578""
","
","""event"",""trial"",""time""
""focus"",""0"",""4780""
","""event"",""trial"",""time""
""fullscreenenter"",""0"",""5578""
","
",784.7699999983888,<img style='border: 4px solid darkgrey;' src='img/tf1_28_M_ss3.jpeg'></img>,0,NA,exp,NA,3,<img src='img/tf1_28_T1_ss3_md.jpeg'></img>,0,FALSE,NA,sub125
NA,html-keyboard-response,71,153974,0.0-10.0-0.28,"""event"",""trial"",""time""
""focus"",""0"",""4780""
""fullscreenenter"",""0"",""5578""
","
","""event"",""trial"",""time""
""focus"",""0"",""4780""
","""event"",""trial"",""time""
""fullscreenenter"",""0"",""5578""
","
",null,"<div style=""font-size:60px;"">+</div>",NA,null,fixation,2020-06-24T02:53:15Z,NA,NA,NA,NA,NA,sub125
NA,mars-trial,72,155292,0.0-10.0-1.28,"""event"",""trial"",""time""
""focus"",""0"",""4780""
""fullscreenenter"",""0"",""5578""
","
","""event"",""trial"",""time""
""focus"",""0"",""4780""
","""event"",""trial"",""time""
""fullscreenenter"",""0"",""5578""
","
",707.0099999982631,<img style='border: 4px solid darkgrey;' src='img/tf1_29_M_ss1.jpeg'></img>,3,NA,exp,NA,3,<img src='img/tf1_29_T1_ss1_md.jpeg'></img>,0,FALSE,NA,sub125
NA,html-keyboard-response,73,155793,0.0-10.0-0.29,"""event"",""trial"",""time""
""focus"",""0"",""4780""
""fullscreenenter"",""0"",""5578""
","
","""event"",""trial"",""time""
""focus"",""0"",""4780""
","""event"",""trial"",""time""
""fullscreenenter"",""0"",""5578""
","
",null,"<div style=""font-size:60px;"">+</div>",NA,null,fixation,2020-06-24T02:53:17Z,NA,NA,NA,NA,NA,sub125
NA,mars-trial,74,157321,0.0-10.0-1.29,"""event"",""trial"",""time""
""focus"",""0"",""4780""
""fullscreenenter"",""0"",""5578""
","
","""event"",""trial"",""time""
""focus"",""0"",""4780""
","""event"",""trial"",""time""
""fullscreenenter"",""0"",""5578""
","
",918.3249999987311,<img style='border: 4px solid darkgrey;' src='img/tf1_30_M_ss2.jpeg'></img>,1,NA,exp,NA,3,<img src='img/tf1_30_T1_ss2_md.jpeg'></img>,0,FALSE,NA,sub125
NA,html-keyboard-response,75,157827,0.0-10.0-0.30,"""event"",""trial"",""time""
""focus"",""0"",""4780""
""fullscreenenter"",""0"",""5578""
","
","""event"",""trial"",""time""
""focus"",""0"",""4780""
","""event"",""trial"",""time""
""fullscreenenter"",""0"",""5578""
","
",null,"<div style=""font-size:60px;"">+</div>",NA,null,fixation,2020-06-24T02:53:19Z,NA,NA,NA,NA,NA,sub125
NA,mars-trial,76,158942,0.0-10.0-1.30,"""event"",""trial"",""time""
""focus"",""0"",""4780""
""fullscreenenter"",""0"",""5578""
","
","""event"",""trial"",""time""
""focus"",""0"",""4780""
","""event"",""trial"",""time""
""fullscreenenter"",""0"",""5578""
","
",503.6600000021281,<img style='border: 4px solid darkgrey;' src='img/tf1_31_M_ss3.jpeg'></img>,2,NA,exp,NA,3,<img src='img/tf1_31_T1_ss3_md.jpeg'></img>,0,FALSE,NA,sub125
NA,html-keyboard-response,77,159444,0.0-10.0-0.31,"""event"",""trial"",""time""
""focus"",""0"",""4780""
""fullscreenenter"",""0"",""5578""
","
","""event"",""trial"",""time""
""focus"",""0"",""4780""
","""event"",""trial"",""time""
""fullscreenenter"",""0"",""5578""
","
",null,"<div style=""font-size:60px;"">+</div>",NA,null,fixation,2020-06-24T02:53:21Z,NA,NA,NA,NA,NA,sub125
NA,mars-trial,78,160526,0.0-10.0-1.31,"""event"",""trial"",""time""
""focus"",""0"",""4780""
""fullscreenenter"",""0"",""5578""
","
","""event"",""trial"",""time""
""focus"",""0"",""4780""
","""event"",""trial"",""time""
""fullscreenenter"",""0"",""5578""
","
",471.864999999525,<img style='border: 4px solid darkgrey;' src='img/tf1_32_M_ss1.jpeg'></img>,3,NA,exp,NA,1,<img src='img/tf1_32_T1_ss1_md.jpeg'></img>,0,FALSE,NA,sub125
NA,html-keyboard-response,79,161029,0.0-10.0-0.32,"""event"",""trial"",""time""
""focus"",""0"",""4780""
""fullscreenenter"",""0"",""5578""
","
","""event"",""trial"",""time""
""focus"",""0"",""4780""
","""event"",""trial"",""time""
""fullscreenenter"",""0"",""5578""
","
",null,"<div style=""font-size:60px;"">+</div>",NA,null,fixation,2020-06-24T02:53:22Z,NA,NA,NA,NA,NA,sub125
NA,mars-trial,80,161896,0.0-10.0-1.32,"""event"",""trial"",""time""
""focus"",""0"",""4780""
""fullscreenenter"",""0"",""5578""
","
","""event"",""trial"",""time""
""focus"",""0"",""4780""
","""event"",""trial"",""time""
""fullscreenenter"",""0"",""5578""
","
",261.85999999870546,<img style='border: 4px solid darkgrey;' src='img/tf1_33_M_ss2.jpeg'></img>,0,NA,exp,NA,0,<img src='img/tf1_33_T1_ss2_md.jpeg'></img>,0,TRUE,NA,sub125
NA,html-keyboard-response,81,162397,0.0-10.0-0.33,"""event"",""trial"",""time""
""focus"",""0"",""4780""
""fullscreenenter"",""0"",""5578""
","
","""event"",""trial"",""time""
""focus"",""0"",""4780""
","""event"",""trial"",""time""
""fullscreenenter"",""0"",""5578""
","
",null,"<div style=""font-size:60px;"">+</div>",NA,null,fixation,2020-06-24T02:53:24Z,NA,NA,NA,NA,NA,sub125
NA,mars-trial,82,163474,0.0-10.0-1.33,"""event"",""trial"",""time""
""focus"",""0"",""4780""
""fullscreenenter"",""0"",""5578""
","
","""event"",""trial"",""time""
""focus"",""0"",""4780""
","""event"",""trial"",""time""
""fullscreenenter"",""0"",""5578""
","
",469.94500000437256,<img style='border: 4px solid darkgrey;' src='img/tf1_34_M_ss3.jpeg'></img>,2,NA,exp,NA,3,<img src='img/tf1_34_T1_ss3_md.jpeg'></img>,0,FALSE,NA,sub125
NA,html-keyboard-response,83,163981,0.0-10.0-0.34,"""event"",""trial"",""time""
""focus"",""0"",""4780""
""fullscreenenter"",""0"",""5578""
","
","""event"",""trial"",""time""
""focus"",""0"",""4780""
","""event"",""trial"",""time""
""fullscreenenter"",""0"",""5578""
","
",null,"<div style=""font-size:60px;"">+</div>",NA,null,fixation,2020-06-24T02:53:25Z,NA,NA,NA,NA,NA,sub125
NA,mars-trial,84,165027,0.0-10.0-1.34,"""event"",""trial"",""time""
""focus"",""0"",""4780""
""fullscreenenter"",""0"",""5578""
","
","""event"",""trial"",""time""
""focus"",""0"",""4780""
","""event"",""trial"",""time""
""fullscreenenter"",""0"",""5578""
","
",441.6300000011688,<img style='border: 4px solid darkgrey;' src='img/tf1_35_M_ss1.jpeg'></img>,3,NA,exp,NA,1,<img src='img/tf1_35_T1_ss1_md.jpeg'></img>,0,FALSE,NA,sub125
NA,html-keyboard-response,85,165529,0.0-10.0-0.35,"""event"",""trial"",""time""
""focus"",""0"",""4780""
""fullscreenenter"",""0"",""5578""
","
","""event"",""trial"",""time""
""focus"",""0"",""4780""
","""event"",""trial"",""time""
""fullscreenenter"",""0"",""5578""
","
",null,"<div style=""font-size:60px;"">+</div>",NA,null,fixation,2020-06-24T02:53:27Z,NA,NA,NA,NA,NA,sub125
NA,mars-trial,86,166405,0.0-10.0-1.35,"""event"",""trial"",""time""
""focus"",""0"",""4780""
""fullscreenenter"",""0"",""5578""
","
","""event"",""trial"",""time""
""focus"",""0"",""4780""
","""event"",""trial"",""time""
""fullscreenenter"",""0"",""5578""
","
",271.919999999227,<img style='border: 4px solid darkgrey;' src='img/tf1_36_M_ss2.jpeg'></img>,1,NA,exp,NA,0,<img src='img/tf1_36_T1_ss2_md.jpeg'></img>,0,TRUE,NA,sub125
NA,html-keyboard-response,87,166908,0.0-10.0-0.36,"""event"",""trial"",""time""
""focus"",""0"",""4780""
""fullscreenenter"",""0"",""5578""
","
","""event"",""trial"",""time""
""focus"",""0"",""4780""
","""event"",""trial"",""time""
""fullscreenenter"",""0"",""5578""
","
",null,"<div style=""font-size:60px;"">+</div>",NA,null,fixation,2020-06-24T02:53:28Z,NA,NA,NA,NA,NA,sub125
NA,mars-trial,88,168327,0.0-10.0-1.36,"""event"",""trial"",""time""
""focus"",""0"",""4780""
""fullscreenenter"",""0"",""5578""
","
","""event"",""trial"",""time""
""focus"",""0"",""4780""
","""event"",""trial"",""time""
""fullscreenenter"",""0"",""5578""
","
",805.4250000059255,<img style='border: 4px solid darkgrey;' src='img/tf1_37_M_ss3.jpeg'></img>,3,NA,exp,NA,0,<img src='img/tf1_37_T1_ss3_md.jpeg'></img>,0,TRUE,NA,sub125
NA,html-keyboard-response,89,168829,0.0-10.0-0.37,"""event"",""trial"",""time""
""focus"",""0"",""4780""
""fullscreenenter"",""0"",""5578""
","
","""event"",""trial"",""time""
""focus"",""0"",""4780""
","""event"",""trial"",""time""
""fullscreenenter"",""0"",""5578""
","
",null,"<div style=""font-size:60px;"">+</div>",NA,null,fixation,2020-06-24T02:53:30Z,NA,NA,NA,NA,NA,sub125
NA,mars-trial,90,169996,0.0-10.0-1.37,"""event"",""trial"",""time""
""focus"",""0"",""4780""
""fullscreenenter"",""0"",""5578""
","
","""event"",""trial"",""time""
""focus"",""0"",""4780""
","""event"",""trial"",""time""
""fullscreenenter"",""0"",""5578""
","
",558.0450000052224,<img style='border: 4px solid darkgrey;' src='img/tf1_38_M_ss1.jpeg'></img>,2,NA,exp,NA,3,<img src='img/tf1_38_T1_ss1_md.jpeg'></img>,0,FALSE,NA,sub125
NA,html-keyboard-response,91,170499,0.0-10.0-0.38,"""event"",""trial"",""time""
""focus"",""0"",""4780""
""fullscreenenter"",""0"",""5578""
","
","""event"",""trial"",""time""
""focus"",""0"",""4780""
","""event"",""trial"",""time""
""fullscreenenter"",""0"",""5578""
","
",null,"<div style=""font-size:60px;"">+</div>",NA,null,fixation,2020-06-24T02:53:32Z,NA,NA,NA,NA,NA,sub125
NA,mars-trial,92,172277,0.0-10.0-1.38,"""event"",""trial"",""time""
""focus"",""0"",""4780""
""fullscreenenter"",""0"",""5578""
","
","""event"",""trial"",""time""
""focus"",""0"",""4780""
","""event"",""trial"",""time""
""fullscreenenter"",""0"",""5578""
","
",1173.224999998638,<img style='border: 4px solid darkgrey;' src='img/tf1_39_M_ss2.jpeg'></img>,2,NA,exp,NA,0,<img src='img/tf1_39_T1_ss2_md.jpeg'></img>,0,TRUE,NA,sub125
NA,html-keyboard-response,93,172778,0.0-10.0-0.39,"""event"",""trial"",""time""
""focus"",""0"",""4780""
""fullscreenenter"",""0"",""5578""
","
","""event"",""trial"",""time""
""focus"",""0"",""4780""
","""event"",""trial"",""time""
""fullscreenenter"",""0"",""5578""
","
",null,"<div style=""font-size:60px;"">+</div>",NA,null,fixation,2020-06-24T02:53:34Z,NA,NA,NA,NA,NA,sub125
NA,mars-trial,94,173904,0.0-10.0-1.39,"""event"",""trial"",""time""
""focus"",""0"",""4780""
""fullscreenenter"",""0"",""5578""
","
","""event"",""trial"",""time""
""focus"",""0"",""4780""
","""event"",""trial"",""time""
""fullscreenenter"",""0"",""5578""
","
",520.3850000034436,<img style='border: 4px solid darkgrey;' src='img/tf1_40_M_ss3.jpeg'></img>,3,NA,exp,NA,3,<img src='img/tf1_40_T1_ss3_md.jpeg'></img>,0,FALSE,NA,sub125
NA,html-keyboard-response,95,174405,0.0-10.0-0.40,"""event"",""trial"",""time""
""focus"",""0"",""4780""
""fullscreenenter"",""0"",""5578""
","
","""event"",""trial"",""time""
""focus"",""0"",""4780""
","""event"",""trial"",""time""
""fullscreenenter"",""0"",""5578""
","
",null,"<div style=""font-size:60px;"">+</div>",NA,null,fixation,2020-06-24T02:53:36Z,NA,NA,NA,NA,NA,sub125
NA,mars-trial,96,175587,0.0-10.0-1.40,"""event"",""trial"",""time""
""focus"",""0"",""4780""
""fullscreenenter"",""0"",""5578""
","
","""event"",""trial"",""time""
""focus"",""0"",""4780""
","""event"",""trial"",""time""
""fullscreenenter"",""0"",""5578""
","
",571.669999997539,<img style='border: 4px solid darkgrey;' src='img/tf1_41_M_ss1.jpeg'></img>,0,NA,exp,NA,0,<img src='img/tf1_41_T1_ss1_md.jpeg'></img>,0,TRUE,NA,sub125
NA,html-keyboard-response,97,176092,0.0-10.0-0.41,"""event"",""trial"",""time""
""focus"",""0"",""4780""
""fullscreenenter"",""0"",""5578""
","
","""event"",""trial"",""time""
""focus"",""0"",""4780""
","""event"",""trial"",""time""
""fullscreenenter"",""0"",""5578""
","
",null,"<div style=""font-size:60px;"">+</div>",NA,null,fixation,2020-06-24T02:53:37Z,NA,NA,NA,NA,NA,sub125
NA,mars-trial,98,177647,0.0-10.0-1.41,"""event"",""trial"",""time""
""focus"",""0"",""4780""
""fullscreenenter"",""0"",""5578""
","
","""event"",""trial"",""time""
""focus"",""0"",""4780""
","""event"",""trial"",""time""
""fullscreenenter"",""0"",""5578""
","
",948.3450000043376,<img style='border: 4px solid darkgrey;' src='img/tf1_42_M_ss2.jpeg'></img>,3,NA,exp,NA,1,<img src='img/tf1_42_T1_ss2_md.jpeg'></img>,0,FALSE,NA,sub125
NA,html-keyboard-response,99,178151,0.0-10.0-0.42,"""event"",""trial"",""time""
""focus"",""0"",""4780""
""fullscreenenter"",""0"",""5578""
","
","""event"",""trial"",""time""
""focus"",""0"",""4780""
","""event"",""trial"",""time""
""fullscreenenter"",""0"",""5578""
","
",null,"<div style=""font-size:60px;"">+</div>",NA,null,fixation,2020-06-24T02:53:39Z,NA,NA,NA,NA,NA,sub125
NA,mars-trial,100,179052,0.0-10.0-1.42,"""event"",""trial"",""time""
""focus"",""0"",""4780""
""fullscreenenter"",""0"",""5578""
","
","""event"",""trial"",""time""
""focus"",""0"",""4780""
","""event"",""trial"",""time""
""fullscreenenter"",""0"",""5578""
","
",294.78499999822816,<img style='border: 4px solid darkgrey;' src='img/tf1_43_M_ss3.jpeg'></img>,2,NA,exp,NA,1,<img src='img/tf1_43_T1_ss3_md.jpeg'></img>,0,FALSE,NA,sub125
NA,html-keyboard-response,101,179553,0.0-10.0-0.43,"""event"",""trial"",""time""
""focus"",""0"",""4780""
""fullscreenenter"",""0"",""5578""
","
","""event"",""trial"",""time""
""focus"",""0"",""4780""
","""event"",""trial"",""time""
""fullscreenenter"",""0"",""5578""
","
",null,"<div style=""font-size:60px;"">+</div>",NA,null,fixation,2020-06-24T02:53:41Z,NA,NA,NA,NA,NA,sub125
NA,mars-trial,102,180489,0.0-10.0-1.43,"""event"",""trial"",""time""
""focus"",""0"",""4780""
""fullscreenenter"",""0"",""5578""
","
","""event"",""trial"",""time""
""focus"",""0"",""4780""
","""event"",""trial"",""time""
""fullscreenenter"",""0"",""5578""
","
",330.7249999998021,<img style='border: 4px solid darkgrey;' src='img/tf1_44_M_ss1.jpeg'></img>,1,NA,exp,NA,2,<img src='img/tf1_44_T1_ss1_md.jpeg'></img>,0,FALSE,NA,sub125
NA,html-keyboard-response,103,180996,0.0-10.0-0.44,"""event"",""trial"",""time""
""focus"",""0"",""4780""
""fullscreenenter"",""0"",""5578""
","
","""event"",""trial"",""time""
""focus"",""0"",""4780""
","""event"",""trial"",""time""
""fullscreenenter"",""0"",""5578""
","
",null,"<div style=""font-size:60px;"">+</div>",NA,null,fixation,2020-06-24T02:53:42Z,NA,NA,NA,NA,NA,sub125
NA,mars-trial,104,182110,0.0-10.0-1.44,"""event"",""trial"",""time""
""focus"",""0"",""4780""
""fullscreenenter"",""0"",""5578""
","
","""event"",""trial"",""time""
""focus"",""0"",""4780""
","""event"",""trial"",""time""
""fullscreenenter"",""0"",""5578""
","
",504.8800000004121,<img style='border: 4px solid darkgrey;' src='img/tf1_45_M_ss2.jpeg'></img>,2,NA,exp,NA,1,<img src='img/tf1_45_T1_ss2_md.jpeg'></img>,0,FALSE,NA,sub125
NA,html-keyboard-response,105,182614,0.0-10.0-0.45,"""event"",""trial"",""time""
""focus"",""0"",""4780""
""fullscreenenter"",""0"",""5578""
","
","""event"",""trial"",""time""
""focus"",""0"",""4780""
","""event"",""trial"",""time""
""fullscreenenter"",""0"",""5578""
","
",null,"<div style=""font-size:60px;"">+</div>",NA,null,fixation,2020-06-24T02:53:44Z,NA,NA,NA,NA,NA,sub125
NA,mars-trial,106,183637,0.0-10.0-1.45,"""event"",""trial"",""time""
""focus"",""0"",""4780""
""fullscreenenter"",""0"",""5578""
","
","""event"",""trial"",""time""
""focus"",""0"",""4780""
","""event"",""trial"",""time""
""fullscreenenter"",""0"",""5578""
","
",418.1049999970128,<img style='border: 4px solid darkgrey;' src='img/tf1_46_M_ss3.jpeg'></img>,3,NA,exp,NA,3,<img src='img/tf1_46_T1_ss3_md.jpeg'></img>,0,FALSE,NA,sub125
NA,html-keyboard-response,107,184138,0.0-10.0-0.46,"""event"",""trial"",""time""
""focus"",""0"",""4780""
""fullscreenenter"",""0"",""5578""
","
","""event"",""trial"",""time""
""focus"",""0"",""4780""
","""event"",""trial"",""time""
""fullscreenenter"",""0"",""5578""
","
",null,"<div style=""font-size:60px;"">+</div>",NA,null,fixation,2020-06-24T02:53:45Z,NA,NA,NA,NA,NA,sub125
NA,mars-trial,108,185374,0.0-10.0-1.46,"""event"",""trial"",""time""
""focus"",""0"",""4780""
""fullscreenenter"",""0"",""5578""
","
","""event"",""trial"",""time""
""focus"",""0"",""4780""
","""event"",""trial"",""time""
""fullscreenenter"",""0"",""5578""
","
",626.3399999952526,<img style='border: 4px solid darkgrey;' src='img/tf1_47_M_ss1.jpeg'></img>,0,NA,exp,NA,2,<img src='img/tf1_47_T1_ss1_md.jpeg'></img>,0,FALSE,NA,sub125
NA,html-keyboard-response,109,185879,0.0-10.0-0.47,"""event"",""trial"",""time""
""focus"",""0"",""4780""
""fullscreenenter"",""0"",""5578""
","
","""event"",""trial"",""time""
""focus"",""0"",""4780""
","""event"",""trial"",""time""
""fullscreenenter"",""0"",""5578""
","
",null,"<div style=""font-size:60px;"">+</div>",NA,null,fixation,2020-06-24T02:53:47Z,NA,NA,NA,NA,NA,sub125
NA,mars-trial,110,186977,0.0-10.0-1.47,"""event"",""trial"",""time""
""focus"",""0"",""4780""
""fullscreenenter"",""0"",""5578""
","
","""event"",""trial"",""time""
""focus"",""0"",""4780""
","""event"",""trial"",""time""
""fullscreenenter"",""0"",""5578""
","
",488.8299999947776,<img style='border: 4px solid darkgrey;' src='img/tf1_48_M_ss2.jpeg'></img>,2,NA,exp,NA,1,<img src='img/tf1_48_T1_ss2_md.jpeg'></img>,0,FALSE,NA,sub125
NA,html-keyboard-response,111,187479,0.0-10.0-0.48,"""event"",""trial"",""time""
""focus"",""0"",""4780""
""fullscreenenter"",""0"",""5578""
","
","""event"",""trial"",""time""
""focus"",""0"",""4780""
","""event"",""trial"",""time""
""fullscreenenter"",""0"",""5578""
","
",null,"<div style=""font-size:60px;"">+</div>",NA,null,fixation,2020-06-24T02:53:49Z,NA,NA,NA,NA,NA,sub125
NA,mars-trial,112,188520,0.0-10.0-1.48,"""event"",""trial"",""time""
""focus"",""0"",""4780""
""fullscreenenter"",""0"",""5578""
","
","""event"",""trial"",""time""
""focus"",""0"",""4780""
","""event"",""trial"",""time""
""fullscreenenter"",""0"",""5578""
","
",435.33000000024913,<img style='border: 4px solid darkgrey;' src='img/tf1_49_M_ss3.jpeg'></img>,1,NA,exp,NA,3,<img src='img/tf1_49_T1_ss3_md.jpeg'></img>,0,FALSE,NA,sub125
NA,html-keyboard-response,113,189022,0.0-10.0-0.49,"""event"",""trial"",""time""
""focus"",""0"",""4780""
""fullscreenenter"",""0"",""5578""
","
","""event"",""trial"",""time""
""focus"",""0"",""4780""
","""event"",""trial"",""time""
""fullscreenenter"",""0"",""5578""
","
",null,"<div style=""font-size:60px;"">+</div>",NA,null,fixation,2020-06-24T02:53:50Z,NA,NA,NA,NA,NA,sub125
NA,mars-trial,114,189773,0.0-10.0-1.49,"""event"",""trial"",""time""
""focus"",""0"",""4780""
""fullscreenenter"",""0"",""5578""
","
","""event"",""trial"",""time""
""focus"",""0"",""4780""
","""event"",""trial"",""time""
""fullscreenenter"",""0"",""5578""
","
",142.3949999953038,<img style='border: 4px solid darkgrey;' src='img/tf1_50_M_ss1.jpeg'></img>,3,NA,exp,NA,2,<img src='img/tf1_50_T1_ss1_md.jpeg'></img>,0,FALSE,NA,sub125
NA,html-keyboard-response,115,190276,0.0-10.0-0.50,"""event"",""trial"",""time""
""focus"",""0"",""4780""
""fullscreenenter"",""0"",""5578""
","
","""event"",""trial"",""time""
""focus"",""0"",""4780""
","""event"",""trial"",""time""
""fullscreenenter"",""0"",""5578""
","
",null,"<div style=""font-size:60px;"">+</div>",NA,null,fixation,2020-06-24T02:53:52Z,NA,NA,NA,NA,NA,sub125
NA,mars-trial,116,191571,0.0-10.0-1.50,"""event"",""trial"",""time""
""focus"",""0"",""4780""
""fullscreenenter"",""0"",""5578""
","
","""event"",""trial"",""time""
""focus"",""0"",""4780""
","""event"",""trial"",""time""
""fullscreenenter"",""0"",""5578""
","
",688.9199999932316,<img style='border: 4px solid darkgrey;' src='img/tf1_51_M_ss2.jpeg'></img>,0,NA,exp,NA,0,<img src='img/tf1_51_T1_ss2_md.jpeg'></img>,0,TRUE,NA,sub125
NA,html-keyboard-response,117,192072,0.0-10.0-0.51,"""event"",""trial"",""time""
""focus"",""0"",""4780""
""fullscreenenter"",""0"",""5578""
","
","""event"",""trial"",""time""
""focus"",""0"",""4780""
","""event"",""trial"",""time""
""fullscreenenter"",""0"",""5578""
","
",null,"<div style=""font-size:60px;"">+</div>",NA,null,fixation,2020-06-24T02:53:53Z,NA,NA,NA,NA,NA,sub125
NA,mars-trial,118,193103,0.0-10.0-1.51,"""event"",""trial"",""time""
""focus"",""0"",""4780""
""fullscreenenter"",""0"",""5578""
","
","""event"",""trial"",""time""
""focus"",""0"",""4780""
","""event"",""trial"",""time""
""fullscreenenter"",""0"",""5578""
","
",419.0050000033807,<img style='border: 4px solid darkgrey;' src='img/tf1_52_M_ss3.jpeg'></img>,2,NA,exp,NA,1,<img src='img/tf1_52_T1_ss3_md.jpeg'></img>,0,FALSE,NA,sub125
NA,html-keyboard-response,119,193605,0.0-10.0-0.52,"""event"",""trial"",""time""
""focus"",""0"",""4780""
""fullscreenenter"",""0"",""5578""
","
","""event"",""trial"",""time""
""focus"",""0"",""4780""
","""event"",""trial"",""time""
""fullscreenenter"",""0"",""5578""
","
",null,"<div style=""font-size:60px;"">+</div>",NA,null,fixation,2020-06-24T02:53:55Z,NA,NA,NA,NA,NA,sub125
NA,mars-trial,120,194391,0.0-10.0-1.52,"""event"",""trial"",""time""
""focus"",""0"",""4780""
""fullscreenenter"",""0"",""5578""
","
","""event"",""trial"",""time""
""focus"",""0"",""4780""
","""event"",""trial"",""time""
""fullscreenenter"",""0"",""5578""
","
",181.19000000297092,<img style='border: 4px solid darkgrey;' src='img/tf1_53_M_ss1.jpeg'></img>,1,NA,exp,NA,1,<img src='img/tf1_53_T1_ss1_md.jpeg'></img>,0,FALSE,NA,sub125
NA,html-keyboard-response,121,194893,0.0-10.0-0.53,"""event"",""trial"",""time""
""focus"",""0"",""4780""
""fullscreenenter"",""0"",""5578""
","
","""event"",""trial"",""time""
""focus"",""0"",""4780""
","""event"",""trial"",""time""
""fullscreenenter"",""0"",""5578""
","
",null,"<div style=""font-size:60px;"">+</div>",NA,null,fixation,2020-06-24T02:53:56Z,NA,NA,NA,NA,NA,sub125
NA,mars-trial,122,195681,0.0-10.0-1.53,"""event"",""trial"",""time""
""focus"",""0"",""4780""
""fullscreenenter"",""0"",""5578""
","
","""event"",""trial"",""time""
""focus"",""0"",""4780""
","""event"",""trial"",""time""
""fullscreenenter"",""0"",""5578""
","
",180.74000000342494,<img style='border: 4px solid darkgrey;' src='img/tf1_54_M_ss2.jpeg'></img>,2,NA,exp,NA,2,<img src='img/tf1_54_T1_ss2_md.jpeg'></img>,0,FALSE,NA,sub125
NA,html-keyboard-response,123,196185,0.0-10.0-0.54,"""event"",""trial"",""time""
""focus"",""0"",""4780""
""fullscreenenter"",""0"",""5578""
","
","""event"",""trial"",""time""
""focus"",""0"",""4780""
","""event"",""trial"",""time""
""fullscreenenter"",""0"",""5578""
","
",null,"<div style=""font-size:60px;"">+</div>",NA,null,fixation,2020-06-24T02:53:58Z,NA,NA,NA,NA,NA,sub125
NA,mars-trial,124,197038,0.0-10.0-1.54,"""event"",""trial"",""time""
""focus"",""0"",""4780""
""fullscreenenter"",""0"",""5578""
","
","""event"",""trial"",""time""
""focus"",""0"",""4780""
","""event"",""trial"",""time""
""fullscreenenter"",""0"",""5578""
","
",243.56999999872642,<img style='border: 4px solid darkgrey;' src='img/tf1_55_M_ss3.jpeg'></img>,0,NA,exp,NA,2,<img src='img/tf1_55_T1_ss3_md.jpeg'></img>,0,FALSE,NA,sub125
NA,html-keyboard-response,125,197539,0.0-10.0-0.55,"""event"",""trial"",""time""
""focus"",""0"",""4780""
""fullscreenenter"",""0"",""5578""
","
","""event"",""trial"",""time""
""focus"",""0"",""4780""
","""event"",""trial"",""time""
""fullscreenenter"",""0"",""5578""
","
",null,"<div style=""font-size:60px;"">+</div>",NA,null,fixation,2020-06-24T02:53:59Z,NA,NA,NA,NA,NA,sub125
NA,mars-trial,126,198623,0.0-10.0-1.55,"""event"",""trial"",""time""
""focus"",""0"",""4780""
""fullscreenenter"",""0"",""5578""
","
","""event"",""trial"",""time""
""focus"",""0"",""4780""
","""event"",""trial"",""time""
""fullscreenenter"",""0"",""5578""
","
",476.650000004156,<img style='border: 4px solid darkgrey;' src='img/tf1_56_M_ss1.jpeg'></img>,3,NA,exp,NA,1,<img src='img/tf1_56_T1_ss1_md.jpeg'></img>,0,FALSE,NA,sub125
NA,html-keyboard-response,127,199129,0.0-10.0-0.56,"""event"",""trial"",""time""
""focus"",""0"",""4780""
""fullscreenenter"",""0"",""5578""
","
","""event"",""trial"",""time""
""focus"",""0"",""4780""
","""event"",""trial"",""time""
""fullscreenenter"",""0"",""5578""
","
",null,"<div style=""font-size:60px;"">+</div>",NA,null,fixation,2020-06-24T02:54:00Z,NA,NA,NA,NA,NA,sub125
NA,mars-trial,128,200225,0.0-10.0-1.56,"""event"",""trial"",""time""
""focus"",""0"",""4780""
""fullscreenenter"",""0"",""5578""
","
","""event"",""trial"",""time""
""focus"",""0"",""4780""
","""event"",""trial"",""time""
""fullscreenenter"",""0"",""5578""
","
",487.8949999983888,<img style='border: 4px solid darkgrey;' src='img/tf1_57_M_ss2.jpeg'></img>,1,NA,exp,NA,2,<img src='img/tf1_57_T1_ss2_md.jpeg'></img>,0,FALSE,NA,sub125
NA,html-keyboard-response,129,200727,0.0-10.0-0.57,"""event"",""trial"",""time""
""focus"",""0"",""4780""
""fullscreenenter"",""0"",""5578""
","
","""event"",""trial"",""time""
""focus"",""0"",""4780""
","""event"",""trial"",""time""
""fullscreenenter"",""0"",""5578""
","
",null,"<div style=""font-size:60px;"">+</div>",NA,null,fixation,2020-06-24T02:54:02Z,NA,NA,NA,NA,NA,sub125
NA,mars-trial,130,201650,0.0-10.0-1.57,"""event"",""trial"",""time""
""focus"",""0"",""4780""
""fullscreenenter"",""0"",""5578""
","
","""event"",""trial"",""time""
""focus"",""0"",""4780""
","""event"",""trial"",""time""
""fullscreenenter"",""0"",""5578""
","
",316.49499999912223,<img style='border: 4px solid darkgrey;' src='img/tf1_58_M_ss3.jpeg'></img>,2,NA,exp,NA,2,<img src='img/tf1_58_T1_ss3_md.jpeg'></img>,0,FALSE,NA,sub125
NA,html-keyboard-response,131,202155,0.0-10.0-0.58,"""event"",""trial"",""time""
""focus"",""0"",""4780""
""fullscreenenter"",""0"",""5578""
","
","""event"",""trial"",""time""
""focus"",""0"",""4780""
","""event"",""trial"",""time""
""fullscreenenter"",""0"",""5578""
","
",null,"<div style=""font-size:60px;"">+</div>",NA,null,fixation,2020-06-24T02:54:03Z,NA,NA,NA,NA,NA,sub125
NA,mars-trial,132,202984,0.0-10.0-1.58,"""event"",""trial"",""time""
""focus"",""0"",""4780""
""fullscreenenter"",""0"",""5578""
","
","""event"",""trial"",""time""
""focus"",""0"",""4780""
","""event"",""trial"",""time""
""fullscreenenter"",""0"",""5578""
","
",214.50000000186265,<img style='border: 4px solid darkgrey;' src='img/tf1_59_M_ss1.jpeg'></img>,3,NA,exp,NA,3,<img src='img/tf1_59_T1_ss1_md.jpeg'></img>,0,FALSE,NA,sub125
NA,html-keyboard-response,133,203487,0.0-10.0-0.59,"""event"",""trial"",""time""
""focus"",""0"",""4780""
""fullscreenenter"",""0"",""5578""
","
","""event"",""trial"",""time""
""focus"",""0"",""4780""
","""event"",""trial"",""time""
""fullscreenenter"",""0"",""5578""
","
",null,"<div style=""font-size:60px;"">+</div>",NA,null,fixation,2020-06-24T02:54:05Z,NA,NA,NA,NA,NA,sub125
NA,mars-trial,134,204502,0.0-10.0-1.59,"""event"",""trial"",""time""
""focus"",""0"",""4780""
""fullscreenenter"",""0"",""5578""
","
","""event"",""trial"",""time""
""focus"",""0"",""4780""
","""event"",""trial"",""time""
""fullscreenenter"",""0"",""5578""
","
",410.97499999887077,<img style='border: 4px solid darkgrey;' src='img/tf1_60_M_ss2.jpeg'></img>,0,NA,exp,NA,1,<img src='img/tf1_60_T1_ss2_md.jpeg'></img>,0,FALSE,NA,sub125
NA,html-keyboard-response,135,205008,0.0-10.0-0.60,"""event"",""trial"",""time""
""focus"",""0"",""4780""
""fullscreenenter"",""0"",""5578""
","
","""event"",""trial"",""time""
""focus"",""0"",""4780""
","""event"",""trial"",""time""
""fullscreenenter"",""0"",""5578""
","
",null,"<div style=""font-size:60px;"">+</div>",NA,null,fixation,2020-06-24T02:54:06Z,NA,NA,NA,NA,NA,sub125
NA,mars-trial,136,205789,0.0-10.0-1.60,"""event"",""trial"",""time""
""focus"",""0"",""4780""
""fullscreenenter"",""0"",""5578""
","
","""event"",""trial"",""time""
""focus"",""0"",""4780""
","""event"",""trial"",""time""
""fullscreenenter"",""0"",""5578""
","
",172.13999999512453,<img style='border: 4px solid darkgrey;' src='img/tf1_61_M_ss3.jpeg'></img>,2,NA,exp,NA,3,<img src='img/tf1_61_T1_ss3_md.jpeg'></img>,0,FALSE,NA,sub125
NA,html-keyboard-response,137,206291,0.0-10.0-0.61,"""event"",""trial"",""time""
""focus"",""0"",""4780""
""fullscreenenter"",""0"",""5578""
","
","""event"",""trial"",""time""
""focus"",""0"",""4780""
","""event"",""trial"",""time""
""fullscreenenter"",""0"",""5578""
","
",null,"<div style=""font-size:60px;"">+</div>",NA,null,fixation,2020-06-24T02:54:08Z,NA,NA,NA,NA,NA,sub125
NA,mars-trial,138,207131,0.0-10.0-1.61,"""event"",""trial"",""time""
""focus"",""0"",""4780""
""fullscreenenter"",""0"",""5578""
","
","""event"",""trial"",""time""
""focus"",""0"",""4780""
","""event"",""trial"",""time""
""fullscreenenter"",""0"",""5578""
","
",235.47999999573221,<img style='border: 4px solid darkgrey;' src='img/tf1_62_M_ss1.jpeg'></img>,1,NA,exp,NA,0,<img src='img/tf1_62_T1_ss1_md.jpeg'></img>,0,TRUE,NA,sub125
NA,html-keyboard-response,139,207634,0.0-10.0-0.62,"""event"",""trial"",""time""
""focus"",""0"",""4780""
""fullscreenenter"",""0"",""5578""
","
","""event"",""trial"",""time""
""focus"",""0"",""4780""
","""event"",""trial"",""time""
""fullscreenenter"",""0"",""5578""
","
",null,"<div style=""font-size:60px;"">+</div>",NA,null,fixation,2020-06-24T02:54:09Z,NA,NA,NA,NA,NA,sub125
NA,mars-trial,140,208989,0.0-10.0-1.62,"""event"",""trial"",""time""
""focus"",""0"",""4780""
""fullscreenenter"",""0"",""5578""
","
","""event"",""trial"",""time""
""focus"",""0"",""4780""
","""event"",""trial"",""time""
""fullscreenenter"",""0"",""5578""
","
",747.3850000023958,<img style='border: 4px solid darkgrey;' src='img/tf1_63_M_ss2.jpeg'></img>,3,NA,exp,NA,3,<img src='img/tf1_63_T1_ss2_md.jpeg'></img>,0,FALSE,NA,sub125
NA,html-keyboard-response,141,209491,0.0-10.0-0.63,"""event"",""trial"",""time""
""focus"",""0"",""4780""
""fullscreenenter"",""0"",""5578""
","
","""event"",""trial"",""time""
""focus"",""0"",""4780""
","""event"",""trial"",""time""
""fullscreenenter"",""0"",""5578""
","
",null,"<div style=""font-size:60px;"">+</div>",NA,null,fixation,2020-06-24T02:54:11Z,NA,NA,NA,NA,NA,sub125
NA,mars-trial,142,210307,0.0-10.0-1.63,"""event"",""trial"",""time""
""focus"",""0"",""4780""
""fullscreenenter"",""0"",""5578""
","
","""event"",""trial"",""time""
""focus"",""0"",""4780""
","""event"",""trial"",""time""
""fullscreenenter"",""0"",""5578""
","
",210.93500000279164,<img style='border: 4px solid darkgrey;' src='img/tf1_64_M_ss3.jpeg'></img>,2,NA,exp,NA,0,<img src='img/tf1_64_T1_ss3_md.jpeg'></img>,0,TRUE,NA,sub125
NA,html-keyboard-response,143,210809,0.0-10.0-0.64,"""event"",""trial"",""time""
""focus"",""0"",""4780""
""fullscreenenter"",""0"",""5578""
","
","""event"",""trial"",""time""
""focus"",""0"",""4780""
","""event"",""trial"",""time""
""fullscreenenter"",""0"",""5578""
","
",null,"<div style=""font-size:60px;"">+</div>",NA,null,fixation,2020-06-24T02:54:12Z,NA,NA,NA,NA,NA,sub125
NA,mars-trial,144,211806,0.0-10.0-1.64,"""event"",""trial"",""time""
""focus"",""0"",""4780""
""fullscreenenter"",""0"",""5578""
","
","""event"",""trial"",""time""
""focus"",""0"",""4780""
","""event"",""trial"",""time""
""fullscreenenter"",""0"",""5578""
","
",386.24500000150874,<img style='border: 4px solid darkgrey;' src='img/tf1_65_M_ss1.jpeg'></img>,1,NA,exp,NA,3,<img src='img/tf1_65_T1_ss1_md.jpeg'></img>,0,FALSE,NA,sub125
NA,html-keyboard-response,145,212308,0.0-10.0-0.65,"""event"",""trial"",""time""
""focus"",""0"",""4780""
""fullscreenenter"",""0"",""5578""
","
","""event"",""trial"",""time""
""focus"",""0"",""4780""
","""event"",""trial"",""time""
""fullscreenenter"",""0"",""5578""
","
",null,"<div style=""font-size:60px;"">+</div>",NA,null,fixation,2020-06-24T02:54:14Z,NA,NA,NA,NA,NA,sub125
NA,mars-trial,146,213307,0.0-10.0-1.65,"""event"",""trial"",""time""
""focus"",""0"",""4780""
""fullscreenenter"",""0"",""5578""
","
","""event"",""trial"",""time""
""focus"",""0"",""4780""
","""event"",""trial"",""time""
""fullscreenenter"",""0"",""5578""
","
",390.11000000027707,<img style='border: 4px solid darkgrey;' src='img/tf1_66_M_ss2.jpeg'></img>,0,NA,exp,NA,0,<img src='img/tf1_66_T1_ss2_md.jpeg'></img>,0,TRUE,NA,sub125
NA,html-keyboard-response,147,213808,0.0-10.0-0.66,"""event"",""trial"",""time""
""focus"",""0"",""4780""
""fullscreenenter"",""0"",""5578""
","
","""event"",""trial"",""time""
""focus"",""0"",""4780""
","""event"",""trial"",""time""
""fullscreenenter"",""0"",""5578""
","
",null,"<div style=""font-size:60px;"">+</div>",NA,null,fixation,2020-06-24T02:54:15Z,NA,NA,NA,NA,NA,sub125
NA,mars-trial,148,214598,0.0-10.0-1.66,"""event"",""trial"",""time""
""focus"",""0"",""4780""
""fullscreenenter"",""0"",""5578""
","
","""event"",""trial"",""time""
""focus"",""0"",""4780""
","""event"",""trial"",""time""
""fullscreenenter"",""0"",""5578""
","
",182.5200000021141,<img style='border: 4px solid darkgrey;' src='img/tf1_67_M_ss3.jpeg'></img>,3,NA,exp,NA,3,<img src='img/tf1_67_T1_ss3_md.jpeg'></img>,0,FALSE,NA,sub125
NA,html-keyboard-response,149,215101,0.0-10.0-0.67,"""event"",""trial"",""time""
""focus"",""0"",""4780""
""fullscreenenter"",""0"",""5578""
","
","""event"",""trial"",""time""
""focus"",""0"",""4780""
","""event"",""trial"",""time""
""fullscreenenter"",""0"",""5578""
","
",null,"<div style=""font-size:60px;"">+</div>",NA,null,fixation,2020-06-24T02:54:16Z,NA,NA,NA,NA,NA,sub125
NA,mars-trial,150,215944,0.0-10.0-1.67,"""event"",""trial"",""time""
""focus"",""0"",""4780""
""fullscreenenter"",""0"",""5578""
","
","""event"",""trial"",""time""
""focus"",""0"",""4780""
","""event"",""trial"",""time""
""fullscreenenter"",""0"",""5578""
","
",237.91999999957625,<img style='border: 4px solid darkgrey;' src='img/tf1_68_M_ss1.jpeg'></img>,1,NA,exp,NA,3,<img src='img/tf1_68_T1_ss1_md.jpeg'></img>,0,FALSE,NA,sub125
NA,html-keyboard-response,151,216448,0.0-10.0-0.68,"""event"",""trial"",""time""
""focus"",""0"",""4780""
""fullscreenenter"",""0"",""5578""
","
","""event"",""trial"",""time""
""focus"",""0"",""4780""
","""event"",""trial"",""time""
""fullscreenenter"",""0"",""5578""
","
",null,"<div style=""font-size:60px;"">+</div>",NA,null,fixation,2020-06-24T02:54:18Z,NA,NA,NA,NA,NA,sub125
NA,mars-trial,152,217538,0.0-10.0-1.68,"""event"",""trial"",""time""
""focus"",""0"",""4780""
""fullscreenenter"",""0"",""5578""
","
","""event"",""trial"",""time""
""focus"",""0"",""4780""
","""event"",""trial"",""time""
""fullscreenenter"",""0"",""5578""
","
",481.9599999973434,<img style='border: 4px solid darkgrey;' src='img/tf1_69_M_ss2.jpeg'></img>,3,NA,exp,NA,2,<img src='img/tf1_69_T1_ss2_md.jpeg'></img>,0,FALSE,NA,sub125
NA,html-keyboard-response,153,218040,0.0-10.0-0.69,"""event"",""trial"",""time""
""focus"",""0"",""4780""
""fullscreenenter"",""0"",""5578""
","
","""event"",""trial"",""time""
""focus"",""0"",""4780""
","""event"",""trial"",""time""
""fullscreenenter"",""0"",""5578""
","
",null,"<div style=""font-size:60px;"">+</div>",NA,null,fixation,2020-06-24T02:54:19Z,NA,NA,NA,NA,NA,sub125
NA,mars-trial,154,218799,0.0-10.0-1.69,"""event"",""trial"",""time""
""focus"",""0"",""4780""
""fullscreenenter"",""0"",""5578""
","
","""event"",""trial"",""time""
""focus"",""0"",""4780""
","""event"",""trial"",""time""
""fullscreenenter"",""0"",""5578""
","
",153.71999999479158,<img style='border: 4px solid darkgrey;' src='img/tf1_70_M_ss3.jpeg'></img>,2,NA,exp,NA,0,<img src='img/tf1_70_T1_ss3_md.jpeg'></img>,0,TRUE,NA,sub125
NA,html-keyboard-response,155,219303,0.0-10.0-0.70,"""event"",""trial"",""time""
""focus"",""0"",""4780""
""fullscreenenter"",""0"",""5578""
","
","""event"",""trial"",""time""
""focus"",""0"",""4780""
","""event"",""trial"",""time""
""fullscreenenter"",""0"",""5578""
","
",null,"<div style=""font-size:60px;"">+</div>",NA,null,fixation,2020-06-24T02:54:21Z,NA,NA,NA,NA,NA,sub125
NA,mars-trial,156,220186,0.0-10.0-1.70,"""event"",""trial"",""time""
""focus"",""0"",""4780""
""fullscreenenter"",""0"",""5578""
","
","""event"",""trial"",""time""
""focus"",""0"",""4780""
","""event"",""trial"",""time""
""fullscreenenter"",""0"",""5578""
","
",276.5049999943585,<img style='border: 4px solid darkgrey;' src='img/tf1_71_M_ss1.jpeg'></img>,3,NA,exp,NA,1,<img src='img/tf1_71_T1_ss1_md.jpeg'></img>,0,FALSE,NA,sub125
NA,html-keyboard-response,157,220692,0.0-10.0-0.71,"""event"",""trial"",""time""
""focus"",""0"",""4780""
""fullscreenenter"",""0"",""5578""
","
","""event"",""trial"",""time""
""focus"",""0"",""4780""
","""event"",""trial"",""time""
""fullscreenenter"",""0"",""5578""
","
",null,"<div style=""font-size:60px;"">+</div>",NA,null,fixation,2020-06-24T02:54:22Z,NA,NA,NA,NA,NA,sub125
NA,mars-trial,158,221576,0.0-10.0-1.71,"""event"",""trial"",""time""
""focus"",""0"",""4780""
""fullscreenenter"",""0"",""5578""
","
","""event"",""trial"",""time""
""focus"",""0"",""4780""
","""event"",""trial"",""time""
""fullscreenenter"",""0"",""5578""
","
",278.82499999395804,<img style='border: 4px solid darkgrey;' src='img/tf1_72_M_ss2.jpeg'></img>,0,NA,exp,NA,2,<img src='img/tf1_72_T1_ss2_md.jpeg'></img>,0,FALSE,NA,sub125
NA,html-keyboard-response,159,222080,0.0-10.0-0.72,"""event"",""trial"",""time""
""focus"",""0"",""4780""
""fullscreenenter"",""0"",""5578""
","
","""event"",""trial"",""time""
""focus"",""0"",""4780""
","""event"",""trial"",""time""
""fullscreenenter"",""0"",""5578""
","
",null,"<div style=""font-size:60px;"">+</div>",NA,null,fixation,2020-06-24T02:54:23Z,NA,NA,NA,NA,NA,sub125
NA,mars-trial,160,223231,0.0-10.0-1.72,"""event"",""trial"",""time""
""focus"",""0"",""4780""
""fullscreenenter"",""0"",""5578""
","
","""event"",""trial"",""time""
""focus"",""0"",""4780""
","""event"",""trial"",""time""
""fullscreenenter"",""0"",""5578""
","
",542.5049999976181,<img style='border: 4px solid darkgrey;' src='img/tf1_73_M_ss3.jpeg'></img>,1,NA,exp,NA,2,<img src='img/tf1_73_T1_ss3_md.jpeg'></img>,0,FALSE,NA,sub125
NA,html-keyboard-response,161,223733,0.0-10.0-0.73,"""event"",""trial"",""time""
""focus"",""0"",""4780""
""fullscreenenter"",""0"",""5578""
","
","""event"",""trial"",""time""
""focus"",""0"",""4780""
","""event"",""trial"",""time""
""fullscreenenter"",""0"",""5578""
","
",null,"<div style=""font-size:60px;"">+</div>",NA,null,fixation,2020-06-24T02:54:25Z,NA,NA,NA,NA,NA,sub125
NA,mars-trial,162,224572,0.0-10.0-1.73,"""event"",""trial"",""time""
""focus"",""0"",""4780""
""fullscreenenter"",""0"",""5578""
","
","""event"",""trial"",""time""
""focus"",""0"",""4780""
","""event"",""trial"",""time""
""fullscreenenter"",""0"",""5578""
","
",232.07499999989523,<img style='border: 4px solid darkgrey;' src='img/tf1_74_M_ss1.jpeg'></img>,0,NA,exp,NA,3,<img src='img/tf1_74_T1_ss1_md.jpeg'></img>,0,FALSE,NA,sub125
NA,html-keyboard-response,163,225076,0.0-10.0-0.74,"""event"",""trial"",""time""
""focus"",""0"",""4780""
""fullscreenenter"",""0"",""5578""
","
","""event"",""trial"",""time""
""focus"",""0"",""4780""
","""event"",""trial"",""time""
""fullscreenenter"",""0"",""5578""
","
",null,"<div style=""font-size:60px;"">+</div>",NA,null,fixation,2020-06-24T02:54:26Z,NA,NA,NA,NA,NA,sub125
NA,mars-trial,164,225845,0.0-10.0-1.74,"""event"",""trial"",""time""
""focus"",""0"",""4780""
""fullscreenenter"",""0"",""5578""
","
","""event"",""trial"",""time""
""focus"",""0"",""4780""
","""event"",""trial"",""time""
""fullscreenenter"",""0"",""5578""
","
",163.65999999834457,<img style='border: 4px solid darkgrey;' src='img/tf1_75_M_ss2.jpeg'></img>,1,NA,exp,NA,2,<img src='img/tf1_75_T1_ss2_md.jpeg'></img>,0,FALSE,NA,sub125
NA,html-keyboard-response,165,226346,0.0-10.0-0.75,"""event"",""trial"",""time""
""focus"",""0"",""4780""
""fullscreenenter"",""0"",""5578""
","
","""event"",""trial"",""time""
""focus"",""0"",""4780""
","""event"",""trial"",""time""
""fullscreenenter"",""0"",""5578""
","
",null,"<div style=""font-size:60px;"">+</div>",NA,null,fixation,2020-06-24T02:54:28Z,NA,NA,NA,NA,NA,sub125
NA,mars-trial,166,227253,0.0-10.0-1.75,"""event"",""trial"",""time""
""focus"",""0"",""4780""
""fullscreenenter"",""0"",""5578""
","
","""event"",""trial"",""time""
""focus"",""0"",""4780""
","""event"",""trial"",""time""
""fullscreenenter"",""0"",""5578""
","
",299.3700000006356,<img style='border: 4px solid darkgrey;' src='img/tf1_76_M_ss3.jpeg'></img>,0,NA,exp,NA,0,<img src='img/tf1_76_T1_ss3_md.jpeg'></img>,0,TRUE,NA,sub125
NA,html-keyboard-response,167,227758,0.0-10.0-0.76,"""event"",""trial"",""time""
""focus"",""0"",""4780""
""fullscreenenter"",""0"",""5578""
","
","""event"",""trial"",""time""
""focus"",""0"",""4780""
","""event"",""trial"",""time""
""fullscreenenter"",""0"",""5578""
","
",null,"<div style=""font-size:60px;"">+</div>",NA,null,fixation,2020-06-24T02:54:29Z,NA,NA,NA,NA,NA,sub125
NA,mars-trial,168,228717,0.0-10.0-1.76,"""event"",""trial"",""time""
""focus"",""0"",""4780""
""fullscreenenter"",""0"",""5578""
","
","""event"",""trial"",""time""
""focus"",""0"",""4780""
","""event"",""trial"",""time""
""fullscreenenter"",""0"",""5578""
","
",349.7800000041025,<img style='border: 4px solid darkgrey;' src='img/tf1_77_M_ss1.jpeg'></img>,2,NA,exp,NA,2,<img src='img/tf1_77_T1_ss1_md.jpeg'></img>,0,FALSE,NA,sub125
NA,html-keyboard-response,169,229222,0.0-10.0-0.77,"""event"",""trial"",""time""
""focus"",""0"",""4780""
""fullscreenenter"",""0"",""5578""
","
","""event"",""trial"",""time""
""focus"",""0"",""4780""
","""event"",""trial"",""time""
""fullscreenenter"",""0"",""5578""
","
",null,"<div style=""font-size:60px;"">+</div>",NA,null,fixation,2020-06-24T02:54:31Z,NA,NA,NA,NA,NA,sub125
NA,mars-trial,170,230342,0.0-10.0-1.77,"""event"",""trial"",""time""
""focus"",""0"",""4780""
""fullscreenenter"",""0"",""5578""
","
","""event"",""trial"",""time""
""focus"",""0"",""4780""
","""event"",""trial"",""time""
""fullscreenenter"",""0"",""5578""
","
",514.4450000007055,<img style='border: 4px solid darkgrey;' src='img/tf1_78_M_ss2.jpeg'></img>,3,NA,exp,NA,3,<img src='img/tf1_78_T1_ss2_md.jpeg'></img>,0,FALSE,NA,sub125
NA,html-keyboard-response,171,230845,0.0-10.0-0.78,"""event"",""trial"",""time""
""focus"",""0"",""4780""
""fullscreenenter"",""0"",""5578""
","
","""event"",""trial"",""time""
""focus"",""0"",""4780""
","""event"",""trial"",""time""
""fullscreenenter"",""0"",""5578""
","
",null,"<div style=""font-size:60px;"">+</div>",NA,null,fixation,2020-06-24T02:54:32Z,NA,NA,NA,NA,NA,sub125
NA,mars-trial,172,232170,0.0-10.0-1.78,"""event"",""trial"",""time""
""focus"",""0"",""4780""
""fullscreenenter"",""0"",""5578""
","
","""event"",""trial"",""time""
""focus"",""0"",""4780""
","""event"",""trial"",""time""
""fullscreenenter"",""0"",""5578""
","
",718.2350000002771,<img style='border: 4px solid darkgrey;' src='img/tf1_79_M_ss3.jpeg'></img>,1,NA,exp,NA,3,<img src='img/tf1_79_T1_ss3_md.jpeg'></img>,0,FALSE,NA,sub125
NA,html-keyboard-response,173,232673,0.0-10.0-0.79,"""event"",""trial"",""time""
""focus"",""0"",""4780""
""fullscreenenter"",""0"",""5578""
","
","""event"",""trial"",""time""
""focus"",""0"",""4780""
","""event"",""trial"",""time""
""fullscreenenter"",""0"",""5578""
","
",null,"<div style=""font-size:60px;"">+</div>",NA,null,fixation,2020-06-24T02:54:34Z,NA,NA,NA,NA,NA,sub125
NA,mars-trial,174,233533,0.0-10.0-1.79,"""event"",""trial"",""time""
""focus"",""0"",""4780""
""fullscreenenter"",""0"",""5578""
","
","""event"",""trial"",""time""
""focus"",""0"",""4780""
","""event"",""trial"",""time""
""fullscreenenter"",""0"",""5578""
","
",250.6199999988894,<img style='border: 4px solid darkgrey;' src='img/tf1_80_M_ss1.jpeg'></img>,3,NA,exp,NA,0,<img src='img/tf1_80_T1_ss1_md.jpeg'></img>,0,TRUE,NA,sub125
NA,audio-button-response,175,236055,0.0-11.0,"""event"",""trial"",""time""
""focus"",""0"",""4780""
""fullscreenenter"",""0"",""5578""
","
","""event"",""trial"",""time""
""focus"",""0"",""4780""
","""event"",""trial"",""time""
""fullscreenenter"",""0"",""5578""
","
",2519.319999999425,audio/mars_instructions_slide5.wav,0,NA,NA,NA,NA,NA,NA,NA,NA,sub125
