success,trial_type,trial_index,time_elapsed,internal_node_id,interactions,blur_events,focus_events,fullscreenenter_events,fullscreenexit_events,rt,stimulus,button_pressed,key_press,part,timestamp,unshuffled_button,correct_response,correct_button,correct,value,subject_id
TRUE,fullscreen,0,7631,0.0-0.0,"""event"",""trial"",""time""
""focus"",""0"",""3929""
""fullscreenenter"",""0"",""6645""
","
","""event"",""trial"",""time""
""focus"",""0"",""3929""
","""event"",""trial"",""time""
""fullscreenenter"",""0"",""6645""
","
",NA,NA,NA,NA,NA,NA,NA,NA,NA,NA,NA,sub7
NA,pavlovia,1,7636,0.0-1.0,"""event"",""trial"",""time""
""focus"",""0"",""3929""
""fullscreenenter"",""0"",""6645""
","
","""event"",""trial"",""time""
""focus"",""0"",""3929""
","""event"",""trial"",""time""
""fullscreenenter"",""0"",""6645""
","
",NA,NA,NA,NA,NA,NA,NA,NA,NA,NA,NA,sub7
NA,html-button-response,2,8896,0.0-2.0,"""event"",""trial"",""time""
""focus"",""0"",""3929""
""fullscreenenter"",""0"",""6645""
","
","""event"",""trial"",""time""
""focus"",""0"",""3929""
","""event"",""trial"",""time""
""fullscreenenter"",""0"",""6645""
","
",1258.430000001681,<p>Welcome! Press START to begin.</p><br>,0,NA,NA,NA,NA,NA,NA,NA,NA,sub7
NA,audio-button-response,3,27525,0.0-3.0,"""event"",""trial"",""time""
""focus"",""0"",""3929""
""fullscreenenter"",""0"",""6645""
","
","""event"",""trial"",""time""
""focus"",""0"",""3929""
","""event"",""trial"",""time""
""fullscreenenter"",""0"",""6645""
","
",18626.00499999826,audio/mars_instructions_slide2.wav,0,NA,NA,NA,NA,NA,NA,NA,NA,sub7
NA,audio-button-response,4,38797,0.0-4.0,"""event"",""trial"",""time""
""focus"",""0"",""3929""
""fullscreenenter"",""0"",""6645""
","
","""event"",""trial"",""time""
""focus"",""0"",""3929""
","""event"",""trial"",""time""
""fullscreenenter"",""0"",""6645""
","
",11270.77499999723,audio/mars_instructions_slide3.wav,0,NA,NA,NA,NA,NA,NA,NA,NA,sub7
NA,html-keyboard-response,5,39301,0.0-5.0-0.0,"""event"",""trial"",""time""
""focus"",""0"",""3929""
""fullscreenenter"",""0"",""6645""
","
","""event"",""trial"",""time""
""focus"",""0"",""3929""
","""event"",""trial"",""time""
""fullscreenenter"",""0"",""6645""
","
",null,"<div style=""font-size:60px;"">+</div>",NA,null,fixation,2020-06-12T20:00:48Z,NA,NA,NA,NA,NA,sub7
NA,mars-trial,6,46968,0.0-5.0-1.0,"""event"",""trial"",""time""
""focus"",""0"",""3929""
""fullscreenenter"",""0"",""6645""
","
","""event"",""trial"",""time""
""focus"",""0"",""3929""
","""event"",""trial"",""time""
""fullscreenenter"",""0"",""6645""
","
",5560.510000010254,<img style='border: 4px solid darkgrey;' src='practice/pt1_M1.png'></img>,3,NA,practice,NA,0,<img src='practice/pt1_T1.png'></img>,0,TRUE,NA,sub7
NA,html-keyboard-response,7,47472,0.0-6.0-0.0,"""event"",""trial"",""time""
""focus"",""0"",""3929""
""fullscreenenter"",""0"",""6645""
","
","""event"",""trial"",""time""
""focus"",""0"",""3929""
","""event"",""trial"",""time""
""fullscreenenter"",""0"",""6645""
","
",null,"<div style=""font-size:60px;"">+</div>",NA,null,fixation,2020-06-12T20:00:56Z,NA,NA,NA,NA,NA,sub7
NA,mars-trial,8,51821,0.0-6.0-1.0,"""event"",""trial"",""time""
""focus"",""0"",""3929""
""fullscreenenter"",""0"",""6645""
","
","""event"",""trial"",""time""
""focus"",""0"",""3929""
","""event"",""trial"",""time""
""fullscreenenter"",""0"",""6645""
","
",2239.854999992531,<img style='border: 4px solid darkgrey;' src='practice/pt2_M1.png'></img>,2,NA,practice,NA,0,<img src='practice/pt2_T1.png'></img>,0,TRUE,NA,sub7
NA,html-keyboard-response,9,52326,0.0-7.0-0.0,"""event"",""trial"",""time""
""focus"",""0"",""3929""
""fullscreenenter"",""0"",""6645""
","
","""event"",""trial"",""time""
""focus"",""0"",""3929""
","""event"",""trial"",""time""
""fullscreenenter"",""0"",""6645""
","
",null,"<div style=""font-size:60px;"">+</div>",NA,null,fixation,2020-06-12T20:01:01Z,NA,NA,NA,NA,NA,sub7
NA,mars-trial,10,56843,0.0-7.0-1.0,"""event"",""trial"",""time""
""focus"",""0"",""3929""
""fullscreenenter"",""0"",""6645""
","
","""event"",""trial"",""time""
""focus"",""0"",""3929""
","""event"",""trial"",""time""
""fullscreenenter"",""0"",""6645""
","
",2411.805000010645,<img style='border: 4px solid darkgrey;' src='practice/pt3_M1.png'></img>,0,NA,practice,NA,0,<img src='practice/pt3_T1.png'></img>,0,TRUE,NA,sub7
NA,audio-button-response,11,58478,0.0-8.0,"""event"",""trial"",""time""
""focus"",""0"",""3929""
""fullscreenenter"",""0"",""6645""
","
","""event"",""trial"",""time""
""focus"",""0"",""3929""
","""event"",""trial"",""time""
""fullscreenenter"",""0"",""6645""
","
",1633.50999999966,audio/mars_instructions_slide4.wav,0,NA,NA,NA,NA,NA,NA,NA,NA,sub7
NA,call-function,12,58479,0.0-9.0,"""event"",""trial"",""time""
""focus"",""0"",""3929""
""fullscreenenter"",""0"",""6645""
","
","""event"",""trial"",""time""
""focus"",""0"",""3929""
","""event"",""trial"",""time""
""fullscreenenter"",""0"",""6645""
","
",NA,NA,NA,NA,NA,NA,NA,NA,NA,NA,NA,sub7
NA,html-keyboard-response,13,58981,0.0-10.0-0.0,"""event"",""trial"",""time""
""focus"",""0"",""3929""
""fullscreenenter"",""0"",""6645""
","
","""event"",""trial"",""time""
""focus"",""0"",""3929""
","""event"",""trial"",""time""
""fullscreenenter"",""0"",""6645""
","
",null,"<div style=""font-size:60px;"">+</div>",NA,null,fixation,2020-06-12T20:01:08Z,NA,NA,NA,NA,NA,sub7
NA,mars-trial,14,62081,0.0-10.0-1.0,"""event"",""trial"",""time""
""focus"",""0"",""3929""
""fullscreenenter"",""0"",""6645""
","
","""event"",""trial"",""time""
""focus"",""0"",""3929""
","""event"",""trial"",""time""
""fullscreenenter"",""0"",""6645""
","
",2492.979999995441,<img style='border: 4px solid darkgrey;' src='img/tf1_1_M_ss3.jpeg'></img>,2,NA,exp,NA,0,<img src='img/tf1_1_T1_ss3_md.jpeg'></img>,0,TRUE,NA,sub7
NA,html-keyboard-response,15,62582,0.0-10.0-0.1,"""event"",""trial"",""time""
""focus"",""0"",""3929""
""fullscreenenter"",""0"",""6645""
","
","""event"",""trial"",""time""
""focus"",""0"",""3929""
","""event"",""trial"",""time""
""fullscreenenter"",""0"",""6645""
","
",null,"<div style=""font-size:60px;"">+</div>",NA,null,fixation,2020-06-12T20:01:11Z,NA,NA,NA,NA,NA,sub7
NA,mars-trial,16,65647,0.0-10.0-1.1,"""event"",""trial"",""time""
""focus"",""0"",""3929""
""fullscreenenter"",""0"",""6645""
","
","""event"",""trial"",""time""
""focus"",""0"",""3929""
","""event"",""trial"",""time""
""fullscreenenter"",""0"",""6645""
","
",2458.2700000028126,<img style='border: 4px solid darkgrey;' src='img/tf1_2_M_ss1.jpeg'></img>,0,NA,exp,NA,0,<img src='img/tf1_2_T1_ss1_md.jpeg'></img>,0,TRUE,NA,sub7
NA,html-keyboard-response,17,66150,0.0-10.0-0.2,"""event"",""trial"",""time""
""focus"",""0"",""3929""
""fullscreenenter"",""0"",""6645""
","
","""event"",""trial"",""time""
""focus"",""0"",""3929""
","""event"",""trial"",""time""
""fullscreenenter"",""0"",""6645""
","
",null,"<div style=""font-size:60px;"">+</div>",NA,null,fixation,2020-06-12T20:01:15Z,NA,NA,NA,NA,NA,sub7
NA,mars-trial,18,68518,0.0-10.0-1.2,"""event"",""trial"",""time""
""focus"",""0"",""3929""
""fullscreenenter"",""0"",""6645""
","
","""event"",""trial"",""time""
""focus"",""0"",""3929""
","""event"",""trial"",""time""
""fullscreenenter"",""0"",""6645""
","
",1762.2450000053504,<img style='border: 4px solid darkgrey;' src='img/tf1_3_M_ss2.jpeg'></img>,3,NA,exp,NA,0,<img src='img/tf1_3_T1_ss2_md.jpeg'></img>,0,TRUE,NA,sub7
NA,html-keyboard-response,19,69025,0.0-10.0-0.3,"""event"",""trial"",""time""
""focus"",""0"",""3929""
""fullscreenenter"",""0"",""6645""
","
","""event"",""trial"",""time""
""focus"",""0"",""3929""
","""event"",""trial"",""time""
""fullscreenenter"",""0"",""6645""
","
",null,"<div style=""font-size:60px;"">+</div>",NA,null,fixation,2020-06-12T20:01:18Z,NA,NA,NA,NA,NA,sub7
NA,mars-trial,20,74198,0.0-10.0-1.3,"""event"",""trial"",""time""
""focus"",""0"",""3929""
""fullscreenenter"",""0"",""6645""
","
","""event"",""trial"",""time""
""focus"",""0"",""3929""
","""event"",""trial"",""time""
""fullscreenenter"",""0"",""6645""
","
",4565.714999989723,<img style='border: 4px solid darkgrey;' src='img/tf1_4_M_ss3.jpeg'></img>,3,NA,exp,NA,0,<img src='img/tf1_4_T1_ss3_md.jpeg'></img>,0,TRUE,NA,sub7
NA,html-keyboard-response,21,74700,0.0-10.0-0.4,"""event"",""trial"",""time""
""focus"",""0"",""3929""
""fullscreenenter"",""0"",""6645""
","
","""event"",""trial"",""time""
""focus"",""0"",""3929""
","""event"",""trial"",""time""
""fullscreenenter"",""0"",""6645""
","
",null,"<div style=""font-size:60px;"">+</div>",NA,null,fixation,2020-06-12T20:01:24Z,NA,NA,NA,NA,NA,sub7
NA,mars-trial,22,76572,0.0-10.0-1.4,"""event"",""trial"",""time""
""focus"",""0"",""3929""
""fullscreenenter"",""0"",""6645""
","
","""event"",""trial"",""time""
""focus"",""0"",""3929""
","""event"",""trial"",""time""
""fullscreenenter"",""0"",""6645""
","
",1265.8050000027288,<img style='border: 4px solid darkgrey;' src='img/tf1_5_M_ss1.jpeg'></img>,2,NA,exp,NA,0,<img src='img/tf1_5_T1_ss1_md.jpeg'></img>,0,TRUE,NA,sub7
NA,html-keyboard-response,23,77073,0.0-10.0-0.5,"""event"",""trial"",""time""
""focus"",""0"",""3929""
""fullscreenenter"",""0"",""6645""
","
","""event"",""trial"",""time""
""focus"",""0"",""3929""
","""event"",""trial"",""time""
""fullscreenenter"",""0"",""6645""
","
",null,"<div style=""font-size:60px;"">+</div>",NA,null,fixation,2020-06-12T20:01:26Z,NA,NA,NA,NA,NA,sub7
NA,mars-trial,24,82342,0.0-10.0-1.5,"""event"",""trial"",""time""
""focus"",""0"",""3929""
""fullscreenenter"",""0"",""6645""
","
","""event"",""trial"",""time""
""focus"",""0"",""3929""
","""event"",""trial"",""time""
""fullscreenenter"",""0"",""6645""
","
",4662.7299999963725,<img style='border: 4px solid darkgrey;' src='img/tf1_6_M_ss2.jpeg'></img>,1,NA,exp,NA,3,<img src='img/tf1_6_T1_ss2_md.jpeg'></img>,0,FALSE,NA,sub7
NA,html-keyboard-response,25,82850,0.0-10.0-0.6,"""event"",""trial"",""time""
""focus"",""0"",""3929""
""fullscreenenter"",""0"",""6645""
","
","""event"",""trial"",""time""
""focus"",""0"",""3929""
","""event"",""trial"",""time""
""fullscreenenter"",""0"",""6645""
","
",null,"<div style=""font-size:60px;"">+</div>",NA,null,fixation,2020-06-12T20:01:32Z,NA,NA,NA,NA,NA,sub7
NA,mars-trial,26,87361,0.0-10.0-1.6,"""event"",""trial"",""time""
""focus"",""0"",""3929""
""fullscreenenter"",""0"",""6645""
","
","""event"",""trial"",""time""
""focus"",""0"",""3929""
","""event"",""trial"",""time""
""fullscreenenter"",""0"",""6645""
","
",3900.3300000040326,<img style='border: 4px solid darkgrey;' src='img/tf1_7_M_ss3.jpeg'></img>,1,NA,exp,NA,0,<img src='img/tf1_7_T1_ss3_md.jpeg'></img>,0,TRUE,NA,sub7
NA,html-keyboard-response,27,87863,0.0-10.0-0.7,"""event"",""trial"",""time""
""focus"",""0"",""3929""
""fullscreenenter"",""0"",""6645""
","
","""event"",""trial"",""time""
""focus"",""0"",""3929""
","""event"",""trial"",""time""
""fullscreenenter"",""0"",""6645""
","
",null,"<div style=""font-size:60px;"">+</div>",NA,null,fixation,2020-06-12T20:01:37Z,NA,NA,NA,NA,NA,sub7
NA,mars-trial,28,92088,0.0-10.0-1.7,"""event"",""trial"",""time""
""focus"",""0"",""3929""
""fullscreenenter"",""0"",""6645""
","
","""event"",""trial"",""time""
""focus"",""0"",""3929""
","""event"",""trial"",""time""
""fullscreenenter"",""0"",""6645""
","
",3618.210000000545,<img style='border: 4px solid darkgrey;' src='img/tf1_8_M_ss1.jpeg'></img>,0,NA,exp,NA,0,<img src='img/tf1_8_T1_ss1_md.jpeg'></img>,0,TRUE,NA,sub7
NA,html-keyboard-response,29,92590,0.0-10.0-0.8,"""event"",""trial"",""time""
""focus"",""0"",""3929""
""fullscreenenter"",""0"",""6645""
","
","""event"",""trial"",""time""
""focus"",""0"",""3929""
","""event"",""trial"",""time""
""fullscreenenter"",""0"",""6645""
","
",null,"<div style=""font-size:60px;"">+</div>",NA,null,fixation,2020-06-12T20:01:41Z,NA,NA,NA,NA,NA,sub7
NA,mars-trial,30,99241,0.0-10.0-1.8,"""event"",""trial"",""time""
""focus"",""0"",""3929""
""fullscreenenter"",""0"",""6645""
","
","""event"",""trial"",""time""
""focus"",""0"",""3929""
","""event"",""trial"",""time""
""fullscreenenter"",""0"",""6645""
","
",6042.759999996633,<img style='border: 4px solid darkgrey;' src='img/tf1_9_M_ss2.jpeg'></img>,1,NA,exp,NA,0,<img src='img/tf1_9_T1_ss2_md.jpeg'></img>,0,TRUE,NA,sub7
NA,html-keyboard-response,31,99747,0.0-10.0-0.9,"""event"",""trial"",""time""
""focus"",""0"",""3929""
""fullscreenenter"",""0"",""6645""
","
","""event"",""trial"",""time""
""focus"",""0"",""3929""
","""event"",""trial"",""time""
""fullscreenenter"",""0"",""6645""
","
",null,"<div style=""font-size:60px;"">+</div>",NA,null,fixation,2020-06-12T20:01:49Z,NA,NA,NA,NA,NA,sub7
NA,mars-trial,32,108765,0.0-10.0-1.9,"""event"",""trial"",""time""
""focus"",""0"",""3929""
""fullscreenenter"",""0"",""6645""
","
","""event"",""trial"",""time""
""focus"",""0"",""3929""
","""event"",""trial"",""time""
""fullscreenenter"",""0"",""6645""
","
",8409.009999988484,<img style='border: 4px solid darkgrey;' src='img/tf1_10_M_ss3.jpeg'></img>,1,NA,exp,NA,0,<img src='img/tf1_10_T1_ss3_md.jpeg'></img>,0,TRUE,NA,sub7
NA,html-keyboard-response,33,109269,0.0-10.0-0.10,"""event"",""trial"",""time""
""focus"",""0"",""3929""
""fullscreenenter"",""0"",""6645""
","
","""event"",""trial"",""time""
""focus"",""0"",""3929""
","""event"",""trial"",""time""
""fullscreenenter"",""0"",""6645""
","
",null,"<div style=""font-size:60px;"">+</div>",NA,null,fixation,2020-06-12T20:01:58Z,NA,NA,NA,NA,NA,sub7
NA,mars-trial,34,116718,0.0-10.0-1.10,"""event"",""trial"",""time""
""focus"",""0"",""3929""
""fullscreenenter"",""0"",""6645""
","
","""event"",""trial"",""time""
""focus"",""0"",""3929""
","""event"",""trial"",""time""
""fullscreenenter"",""0"",""6645""
","
",6834.105000001728,<img style='border: 4px solid darkgrey;' src='img/tf1_11_M_ss1.jpeg'></img>,0,NA,exp,NA,2,<img src='img/tf1_11_T1_ss1_md.jpeg'></img>,0,FALSE,NA,sub7
NA,html-keyboard-response,35,117224,0.0-10.0-0.11,"""event"",""trial"",""time""
""focus"",""0"",""3929""
""fullscreenenter"",""0"",""6645""
","
","""event"",""trial"",""time""
""focus"",""0"",""3929""
","""event"",""trial"",""time""
""fullscreenenter"",""0"",""6645""
","
",null,"<div style=""font-size:60px;"">+</div>",NA,null,fixation,2020-06-12T20:02:06Z,NA,NA,NA,NA,NA,sub7
NA,mars-trial,36,129022,0.0-10.0-1.11,"""event"",""trial"",""time""
""focus"",""0"",""3929""
""fullscreenenter"",""0"",""6645""
","
","""event"",""trial"",""time""
""focus"",""0"",""3929""
","""event"",""trial"",""time""
""fullscreenenter"",""0"",""6645""
","
",11190.864999996847,<img style='border: 4px solid darkgrey;' src='img/tf1_12_M_ss2.jpeg'></img>,1,NA,exp,NA,3,<img src='img/tf1_12_T1_ss2_md.jpeg'></img>,0,FALSE,NA,sub7
NA,html-keyboard-response,37,129524,0.0-10.0-0.12,"""event"",""trial"",""time""
""focus"",""0"",""3929""
""fullscreenenter"",""0"",""6645""
","
","""event"",""trial"",""time""
""focus"",""0"",""3929""
","""event"",""trial"",""time""
""fullscreenenter"",""0"",""6645""
","
",null,"<div style=""font-size:60px;"">+</div>",NA,null,fixation,2020-06-12T20:02:18Z,NA,NA,NA,NA,NA,sub7
NA,mars-trial,38,137412,0.0-10.0-1.12,"""event"",""trial"",""time""
""focus"",""0"",""3929""
""fullscreenenter"",""0"",""6645""
","
","""event"",""trial"",""time""
""focus"",""0"",""3929""
","""event"",""trial"",""time""
""fullscreenenter"",""0"",""6645""
","
",7280.735000007553,<img style='border: 4px solid darkgrey;' src='img/tf1_13_M_ss3.jpeg'></img>,0,NA,exp,NA,2,<img src='img/tf1_13_T1_ss3_md.jpeg'></img>,0,FALSE,NA,sub7
NA,html-keyboard-response,39,137919,0.0-10.0-0.13,"""event"",""trial"",""time""
""focus"",""0"",""3929""
""fullscreenenter"",""0"",""6645""
","
","""event"",""trial"",""time""
""focus"",""0"",""3929""
","""event"",""trial"",""time""
""fullscreenenter"",""0"",""6645""
","
",null,"<div style=""font-size:60px;"">+</div>",NA,null,fixation,2020-06-12T20:02:27Z,NA,NA,NA,NA,NA,sub7
NA,mars-trial,40,151797,0.0-10.0-1.13,"""event"",""trial"",""time""
""focus"",""0"",""3929""
""fullscreenenter"",""0"",""6645""
","
","""event"",""trial"",""time""
""focus"",""0"",""3929""
","""event"",""trial"",""time""
""fullscreenenter"",""0"",""6645""
","
",13268.869999999879,<img style='border: 4px solid darkgrey;' src='img/tf1_14_M_ss1.jpeg'></img>,0,NA,exp,NA,3,<img src='img/tf1_14_T1_ss1_md.jpeg'></img>,0,FALSE,NA,sub7
NA,html-keyboard-response,41,152300,0.0-10.0-0.14,"""event"",""trial"",""time""
""focus"",""0"",""3929""
""fullscreenenter"",""0"",""6645""
","
","""event"",""trial"",""time""
""focus"",""0"",""3929""
","""event"",""trial"",""time""
""fullscreenenter"",""0"",""6645""
","
",null,"<div style=""font-size:60px;"">+</div>",NA,null,fixation,2020-06-12T20:02:41Z,NA,NA,NA,NA,NA,sub7
NA,mars-trial,42,168544,0.0-10.0-1.14,"""event"",""trial"",""time""
""focus"",""0"",""3929""
""fullscreenenter"",""0"",""6645""
","
","""event"",""trial"",""time""
""focus"",""0"",""3929""
","""event"",""trial"",""time""
""fullscreenenter"",""0"",""6645""
","
",15634.959999995772,<img style='border: 4px solid darkgrey;' src='img/tf1_15_M_ss2.jpeg'></img>,2,NA,exp,NA,0,<img src='img/tf1_15_T1_ss2_md.jpeg'></img>,0,TRUE,NA,sub7
NA,html-keyboard-response,43,169048,0.0-10.0-0.15,"""event"",""trial"",""time""
""focus"",""0"",""3929""
""fullscreenenter"",""0"",""6645""
","
","""event"",""trial"",""time""
""focus"",""0"",""3929""
","""event"",""trial"",""time""
""fullscreenenter"",""0"",""6645""
","
",null,"<div style=""font-size:60px;"">+</div>",NA,null,fixation,2020-06-12T20:02:58Z,NA,NA,NA,NA,NA,sub7
NA,mars-trial,44,186001,0.0-10.0-1.15,"""event"",""trial"",""time""
""focus"",""0"",""3929""
""fullscreenenter"",""0"",""6645""
","
","""event"",""trial"",""time""
""focus"",""0"",""3929""
","""event"",""trial"",""time""
""fullscreenenter"",""0"",""6645""
","
",16342.910000006668,<img style='border: 4px solid darkgrey;' src='img/tf1_16_M_ss3.jpeg'></img>,3,NA,exp,NA,0,<img src='img/tf1_16_T1_ss3_md.jpeg'></img>,0,TRUE,NA,sub7
NA,html-keyboard-response,45,186507,0.0-10.0-0.16,"""event"",""trial"",""time""
""focus"",""0"",""3929""
""fullscreenenter"",""0"",""6645""
","
","""event"",""trial"",""time""
""focus"",""0"",""3929""
","""event"",""trial"",""time""
""fullscreenenter"",""0"",""6645""
","
",null,"<div style=""font-size:60px;"">+</div>",NA,null,fixation,2020-06-12T20:03:15Z,NA,NA,NA,NA,NA,sub7
NA,mars-trial,46,202355,0.0-10.0-1.16,"""event"",""trial"",""time""
""focus"",""0"",""3929""
""fullscreenenter"",""0"",""6645""
","
","""event"",""trial"",""time""
""focus"",""0"",""3929""
","""event"",""trial"",""time""
""fullscreenenter"",""0"",""6645""
","
",15239.115000003949,<img style='border: 4px solid darkgrey;' src='img/tf1_17_M_ss1.jpeg'></img>,0,NA,exp,NA,1,<img src='img/tf1_17_T1_ss1_md.jpeg'></img>,0,FALSE,NA,sub7
NA,html-keyboard-response,47,202859,0.0-10.0-0.17,"""event"",""trial"",""time""
""focus"",""0"",""3929""
""fullscreenenter"",""0"",""6645""
","
","""event"",""trial"",""time""
""focus"",""0"",""3929""
","""event"",""trial"",""time""
""fullscreenenter"",""0"",""6645""
","
",null,"<div style=""font-size:60px;"">+</div>",NA,null,fixation,2020-06-12T20:03:32Z,NA,NA,NA,NA,NA,sub7
NA,mars-trial,48,218780,0.0-10.0-1.17,"""event"",""trial"",""time""
""focus"",""0"",""3929""
""fullscreenenter"",""0"",""6645""
","
","""event"",""trial"",""time""
""focus"",""0"",""3929""
","""event"",""trial"",""time""
""fullscreenenter"",""0"",""6645""
","
",15311.215000008815,<img style='border: 4px solid darkgrey;' src='img/tf1_18_M_ss2.jpeg'></img>,0,NA,exp,NA,0,<img src='img/tf1_18_T1_ss2_md.jpeg'></img>,0,TRUE,NA,sub7
NA,html-keyboard-response,49,219282,0.0-10.0-0.18,"""event"",""trial"",""time""
""focus"",""0"",""3929""
""fullscreenenter"",""0"",""6645""
","
","""event"",""trial"",""time""
""focus"",""0"",""3929""
","""event"",""trial"",""time""
""fullscreenenter"",""0"",""6645""
","
",null,"<div style=""font-size:60px;"">+</div>",NA,null,fixation,2020-06-12T20:03:48Z,NA,NA,NA,NA,NA,sub7
NA,mars-trial,50,228652,0.0-10.0-1.18,"""event"",""trial"",""time""
""focus"",""0"",""3929""
""fullscreenenter"",""0"",""6645""
","
","""event"",""trial"",""time""
""focus"",""0"",""3929""
","""event"",""trial"",""time""
""fullscreenenter"",""0"",""6645""
","
",8761.129999998957,<img style='border: 4px solid darkgrey;' src='img/tf1_19_M_ss3.jpeg'></img>,3,NA,exp,NA,0,<img src='img/tf1_19_T1_ss3_md.jpeg'></img>,0,TRUE,NA,sub7
NA,html-keyboard-response,51,229154,0.0-10.0-0.19,"""event"",""trial"",""time""
""focus"",""0"",""3929""
""fullscreenenter"",""0"",""6645""
","
","""event"",""trial"",""time""
""focus"",""0"",""3929""
","""event"",""trial"",""time""
""fullscreenenter"",""0"",""6645""
","
",null,"<div style=""font-size:60px;"">+</div>",NA,null,fixation,2020-06-12T20:03:58Z,NA,NA,NA,NA,NA,sub7
NA,mars-trial,52,239469,0.0-10.0-1.19,"""event"",""trial"",""time""
""focus"",""0"",""3929""
""fullscreenenter"",""0"",""6645""
","
","""event"",""trial"",""time""
""focus"",""0"",""3929""
","""event"",""trial"",""time""
""fullscreenenter"",""0"",""6645""
","
",9702.875000002678,<img style='border: 4px solid darkgrey;' src='img/tf1_20_M_ss1.jpeg'></img>,2,NA,exp,NA,0,<img src='img/tf1_20_T1_ss1_md.jpeg'></img>,0,TRUE,NA,sub7
NA,html-keyboard-response,53,239975,0.0-10.0-0.20,"""event"",""trial"",""time""
""focus"",""0"",""3929""
""fullscreenenter"",""0"",""6645""
","
","""event"",""trial"",""time""
""focus"",""0"",""3929""
","""event"",""trial"",""time""
""fullscreenenter"",""0"",""6645""
","
",null,"<div style=""font-size:60px;"">+</div>",NA,null,fixation,2020-06-12T20:04:09Z,NA,NA,NA,NA,NA,sub7
NA,mars-trial,54,249647,0.0-10.0-1.20,"""event"",""trial"",""time""
""focus"",""0"",""3929""
""fullscreenenter"",""0"",""6645""
","
","""event"",""trial"",""time""
""focus"",""0"",""3929""
","""event"",""trial"",""time""
""fullscreenenter"",""0"",""6645""
","
",9056.81999999797,<img style='border: 4px solid darkgrey;' src='img/tf1_21_M_ss2.jpeg'></img>,1,NA,exp,NA,1,<img src='img/tf1_21_T1_ss2_md.jpeg'></img>,0,FALSE,NA,sub7
NA,html-keyboard-response,55,250151,0.0-10.0-0.21,"""event"",""trial"",""time""
""focus"",""0"",""3929""
""fullscreenenter"",""0"",""6645""
","
","""event"",""trial"",""time""
""focus"",""0"",""3929""
","""event"",""trial"",""time""
""fullscreenenter"",""0"",""6645""
","
",null,"<div style=""font-size:60px;"">+</div>",NA,null,fixation,2020-06-12T20:04:19Z,NA,NA,NA,NA,NA,sub7
NA,mars-trial,56,259451,0.0-10.0-1.21,"""event"",""trial"",""time""
""focus"",""0"",""3929""
""fullscreenenter"",""0"",""6645""
","
","""event"",""trial"",""time""
""focus"",""0"",""3929""
","""event"",""trial"",""time""
""fullscreenenter"",""0"",""6645""
","
",8691.920000012033,<img style='border: 4px solid darkgrey;' src='img/tf1_22_M_ss3.jpeg'></img>,3,NA,exp,NA,2,<img src='img/tf1_22_T1_ss3_md.jpeg'></img>,0,FALSE,NA,sub7
NA,html-keyboard-response,57,259953,0.0-10.0-0.22,"""event"",""trial"",""time""
""focus"",""0"",""3929""
""fullscreenenter"",""0"",""6645""
","
","""event"",""trial"",""time""
""focus"",""0"",""3929""
","""event"",""trial"",""time""
""fullscreenenter"",""0"",""6645""
","
",null,"<div style=""font-size:60px;"">+</div>",NA,null,fixation,2020-06-12T20:04:29Z,NA,NA,NA,NA,NA,sub7
NA,mars-trial,58,276523,0.0-10.0-1.22,"""event"",""trial"",""time""
""focus"",""0"",""3929""
""fullscreenenter"",""0"",""6645""
","
","""event"",""trial"",""time""
""focus"",""0"",""3929""
","""event"",""trial"",""time""
""fullscreenenter"",""0"",""6645""
","
",15956.825000001118,<img style='border: 4px solid darkgrey;' src='img/tf1_23_M_ss1.jpeg'></img>,3,NA,exp,NA,0,<img src='img/tf1_23_T1_ss1_md.jpeg'></img>,0,TRUE,NA,sub7
NA,html-keyboard-response,59,277029,0.0-10.0-0.23,"""event"",""trial"",""time""
""focus"",""0"",""3929""
""fullscreenenter"",""0"",""6645""
","
","""event"",""trial"",""time""
""focus"",""0"",""3929""
","""event"",""trial"",""time""
""fullscreenenter"",""0"",""6645""
","
",null,"<div style=""font-size:60px;"">+</div>",NA,null,fixation,2020-06-12T20:04:46Z,NA,NA,NA,NA,NA,sub7
NA,mars-trial,60,285822,0.0-10.0-1.23,"""event"",""trial"",""time""
""focus"",""0"",""3929""
""fullscreenenter"",""0"",""6645""
","
","""event"",""trial"",""time""
""focus"",""0"",""3929""
","""event"",""trial"",""time""
""fullscreenenter"",""0"",""6645""
","
",8179.059999994934,<img style='border: 4px solid darkgrey;' src='img/tf1_24_M_ss2.jpeg'></img>,0,NA,exp,NA,1,<img src='img/tf1_24_T1_ss2_md.jpeg'></img>,0,FALSE,NA,sub7
NA,html-keyboard-response,61,286323,0.0-10.0-0.24,"""event"",""trial"",""time""
""focus"",""0"",""3929""
""fullscreenenter"",""0"",""6645""
","
","""event"",""trial"",""time""
""focus"",""0"",""3929""
","""event"",""trial"",""time""
""fullscreenenter"",""0"",""6645""
","
",null,"<div style=""font-size:60px;"">+</div>",NA,null,fixation,2020-06-12T20:04:55Z,NA,NA,NA,NA,NA,sub7
NA,mars-trial,62,299061,0.0-10.0-1.24,"""event"",""trial"",""time""
""focus"",""0"",""3929""
""fullscreenenter"",""0"",""6645""
","
","""event"",""trial"",""time""
""focus"",""0"",""3929""
","""event"",""trial"",""time""
""fullscreenenter"",""0"",""6645""
","
",12125.360000005458,<img style='border: 4px solid darkgrey;' src='img/tf1_25_M_ss3.jpeg'></img>,1,NA,exp,NA,0,<img src='img/tf1_25_T1_ss3_md.jpeg'></img>,0,TRUE,NA,sub7
NA,html-keyboard-response,63,299566,0.0-10.0-0.25,"""event"",""trial"",""time""
""focus"",""0"",""3929""
""fullscreenenter"",""0"",""6645""
","
","""event"",""trial"",""time""
""focus"",""0"",""3929""
","""event"",""trial"",""time""
""fullscreenenter"",""0"",""6645""
","
",null,"<div style=""font-size:60px;"">+</div>",NA,null,fixation,2020-06-12T20:05:08Z,NA,NA,NA,NA,NA,sub7
NA,mars-trial,64,315715,0.0-10.0-1.25,"""event"",""trial"",""time""
""focus"",""0"",""3929""
""fullscreenenter"",""0"",""6645""
","
","""event"",""trial"",""time""
""focus"",""0"",""3929""
","""event"",""trial"",""time""
""fullscreenenter"",""0"",""6645""
","
",15540.320000000065,<img style='border: 4px solid darkgrey;' src='img/tf1_26_M_ss1.jpeg'></img>,1,NA,exp,NA,2,<img src='img/tf1_26_T1_ss1_md.jpeg'></img>,0,FALSE,NA,sub7
NA,html-keyboard-response,65,316220,0.0-10.0-0.26,"""event"",""trial"",""time""
""focus"",""0"",""3929""
""fullscreenenter"",""0"",""6645""
","
","""event"",""trial"",""time""
""focus"",""0"",""3929""
","""event"",""trial"",""time""
""fullscreenenter"",""0"",""6645""
","
",null,"<div style=""font-size:60px;"">+</div>",NA,null,fixation,2020-06-12T20:05:25Z,NA,NA,NA,NA,NA,sub7
NA,mars-trial,66,327680,0.0-10.0-1.26,"""event"",""trial"",""time""
""focus"",""0"",""3929""
""fullscreenenter"",""0"",""6645""
","
","""event"",""trial"",""time""
""focus"",""0"",""3929""
","""event"",""trial"",""time""
""fullscreenenter"",""0"",""6645""
","
",10849.17499999574,<img style='border: 4px solid darkgrey;' src='img/tf1_27_M_ss2.jpeg'></img>,2,NA,exp,NA,2,<img src='img/tf1_27_T1_ss2_md.jpeg'></img>,0,FALSE,NA,sub7
NA,html-keyboard-response,67,328187,0.0-10.0-0.27,"""event"",""trial"",""time""
""focus"",""0"",""3929""
""fullscreenenter"",""0"",""6645""
","
","""event"",""trial"",""time""
""focus"",""0"",""3929""
","""event"",""trial"",""time""
""fullscreenenter"",""0"",""6645""
","
",null,"<div style=""font-size:60px;"">+</div>",NA,null,fixation,2020-06-12T20:05:37Z,NA,NA,NA,NA,NA,sub7
NA,mars-trial,68,337209,0.0-10.0-1.27,"""event"",""trial"",""time""
""focus"",""0"",""3929""
""fullscreenenter"",""0"",""6645""
","
","""event"",""trial"",""time""
""focus"",""0"",""3929""
","""event"",""trial"",""time""
""fullscreenenter"",""0"",""6645""
","
",8409.934999988764,<img style='border: 4px solid darkgrey;' src='img/tf1_28_M_ss3.jpeg'></img>,1,NA,exp,NA,3,<img src='img/tf1_28_T1_ss3_md.jpeg'></img>,0,FALSE,NA,sub7
NA,html-keyboard-response,69,337713,0.0-10.0-0.28,"""event"",""trial"",""time""
""focus"",""0"",""3929""
""fullscreenenter"",""0"",""6645""
","
","""event"",""trial"",""time""
""focus"",""0"",""3929""
","""event"",""trial"",""time""
""fullscreenenter"",""0"",""6645""
","
",null,"<div style=""font-size:60px;"">+</div>",NA,null,fixation,2020-06-12T20:05:47Z,NA,NA,NA,NA,NA,sub7
NA,mars-trial,70,347468,0.0-10.0-1.28,"""event"",""trial"",""time""
""focus"",""0"",""3929""
""fullscreenenter"",""0"",""6645""
","
","""event"",""trial"",""time""
""focus"",""0"",""3929""
","""event"",""trial"",""time""
""fullscreenenter"",""0"",""6645""
","
",9142.41500000935,<img style='border: 4px solid darkgrey;' src='img/tf1_29_M_ss1.jpeg'></img>,3,NA,exp,NA,2,<img src='img/tf1_29_T1_ss1_md.jpeg'></img>,0,FALSE,NA,sub7
NA,html-keyboard-response,71,347973,0.0-10.0-0.29,"""event"",""trial"",""time""
""focus"",""0"",""3929""
""fullscreenenter"",""0"",""6645""
","
","""event"",""trial"",""time""
""focus"",""0"",""3929""
","""event"",""trial"",""time""
""fullscreenenter"",""0"",""6645""
","
",null,"<div style=""font-size:60px;"">+</div>",NA,null,fixation,2020-06-12T20:05:57Z,NA,NA,NA,NA,NA,sub7
NA,mars-trial,72,370710,0.0-10.0-1.29,"""event"",""trial"",""time""
""focus"",""0"",""3929""
""fullscreenenter"",""0"",""6645""
","
","""event"",""trial"",""time""
""focus"",""0"",""3929""
","""event"",""trial"",""time""
""fullscreenenter"",""0"",""6645""
","
",22128.91500000842,<img style='border: 4px solid darkgrey;' src='img/tf1_30_M_ss2.jpeg'></img>,0,NA,exp,NA,0,<img src='img/tf1_30_T1_ss2_md.jpeg'></img>,0,TRUE,NA,sub7
NA,html-keyboard-response,73,371213,0.0-10.0-0.30,"""event"",""trial"",""time""
""focus"",""0"",""3929""
""fullscreenenter"",""0"",""6645""
","
","""event"",""trial"",""time""
""focus"",""0"",""3929""
","""event"",""trial"",""time""
""fullscreenenter"",""0"",""6645""
","
",null,"<div style=""font-size:60px;"">+</div>",NA,null,fixation,2020-06-12T20:06:20Z,NA,NA,NA,NA,NA,sub7
NA,mars-trial,74,385521,0.0-10.0-1.30,"""event"",""trial"",""time""
""focus"",""0"",""3929""
""fullscreenenter"",""0"",""6645""
","
","""event"",""trial"",""time""
""focus"",""0"",""3929""
","""event"",""trial"",""time""
""fullscreenenter"",""0"",""6645""
","
",13694.30000000284,<img style='border: 4px solid darkgrey;' src='img/tf1_31_M_ss3.jpeg'></img>,0,NA,exp,NA,1,<img src='img/tf1_31_T1_ss3_md.jpeg'></img>,0,FALSE,NA,sub7
NA,html-keyboard-response,75,386024,0.0-10.0-0.31,"""event"",""trial"",""time""
""focus"",""0"",""3929""
""fullscreenenter"",""0"",""6645""
","
","""event"",""trial"",""time""
""focus"",""0"",""3929""
","""event"",""trial"",""time""
""fullscreenenter"",""0"",""6645""
","
",null,"<div style=""font-size:60px;"">+</div>",NA,null,fixation,2020-06-12T20:06:35Z,NA,NA,NA,NA,NA,sub7
NA,mars-trial,76,399767,0.0-10.0-1.31,"""event"",""trial"",""time""
""focus"",""0"",""3929""
""fullscreenenter"",""0"",""6645""
","
","""event"",""trial"",""time""
""focus"",""0"",""3929""
","""event"",""trial"",""time""
""fullscreenenter"",""0"",""6645""
","
",13134.044999998878,<img style='border: 4px solid darkgrey;' src='img/tf1_32_M_ss1.jpeg'></img>,0,NA,exp,NA,0,<img src='img/tf1_32_T1_ss1_md.jpeg'></img>,0,TRUE,NA,sub7
NA,html-keyboard-response,77,400271,0.0-10.0-0.32,"""event"",""trial"",""time""
""focus"",""0"",""3929""
""fullscreenenter"",""0"",""6645""
","
","""event"",""trial"",""time""
""focus"",""0"",""3929""
","""event"",""trial"",""time""
""fullscreenenter"",""0"",""6645""
","
",null,"<div style=""font-size:60px;"">+</div>",NA,null,fixation,2020-06-12T20:06:49Z,NA,NA,NA,NA,NA,sub7
NA,mars-trial,78,411774,0.0-10.0-1.32,"""event"",""trial"",""time""
""focus"",""0"",""3929""
""fullscreenenter"",""0"",""6645""
","
","""event"",""trial"",""time""
""focus"",""0"",""3929""
","""event"",""trial"",""time""
""fullscreenenter"",""0"",""6645""
","
",10890.789999990375,<img style='border: 4px solid darkgrey;' src='img/tf1_33_M_ss2.jpeg'></img>,3,NA,exp,NA,1,<img src='img/tf1_33_T1_ss2_md.jpeg'></img>,0,FALSE,NA,sub7
NA,html-keyboard-response,79,412279,0.0-10.0-0.33,"""event"",""trial"",""time""
""focus"",""0"",""3929""
""fullscreenenter"",""0"",""6645""
","
","""event"",""trial"",""time""
""focus"",""0"",""3929""
","""event"",""trial"",""time""
""fullscreenenter"",""0"",""6645""
","
",null,"<div style=""font-size:60px;"">+</div>",NA,null,fixation,2020-06-12T20:07:01Z,NA,NA,NA,NA,NA,sub7
NA,mars-trial,80,424509,0.0-10.0-1.33,"""event"",""trial"",""time""
""focus"",""0"",""3929""
""fullscreenenter"",""0"",""6645""
","
","""event"",""trial"",""time""
""focus"",""0"",""3929""
","""event"",""trial"",""time""
""fullscreenenter"",""0"",""6645""
","
",11622.289999999339,<img style='border: 4px solid darkgrey;' src='img/tf1_34_M_ss3.jpeg'></img>,2,NA,exp,NA,3,<img src='img/tf1_34_T1_ss3_md.jpeg'></img>,0,FALSE,NA,sub7
NA,html-keyboard-response,81,425014,0.0-10.0-0.34,"""event"",""trial"",""time""
""focus"",""0"",""3929""
""fullscreenenter"",""0"",""6645""
","
","""event"",""trial"",""time""
""focus"",""0"",""3929""
","""event"",""trial"",""time""
""fullscreenenter"",""0"",""6645""
","
",null,"<div style=""font-size:60px;"">+</div>",NA,null,fixation,2020-06-12T20:07:14Z,NA,NA,NA,NA,NA,sub7
NA,mars-trial,82,436286,0.0-10.0-1.34,"""event"",""trial"",""time""
""focus"",""0"",""3929""
""fullscreenenter"",""0"",""6645""
","
","""event"",""trial"",""time""
""focus"",""0"",""3929""
","""event"",""trial"",""time""
""fullscreenenter"",""0"",""6645""
","
",10658.55000000738,<img style='border: 4px solid darkgrey;' src='img/tf1_35_M_ss1.jpeg'></img>,2,NA,exp,NA,0,<img src='img/tf1_35_T1_ss1_md.jpeg'></img>,0,TRUE,NA,sub7
NA,html-keyboard-response,83,436792,0.0-10.0-0.35,"""event"",""trial"",""time""
""focus"",""0"",""3929""
""fullscreenenter"",""0"",""6645""
","
","""event"",""trial"",""time""
""focus"",""0"",""3929""
","""event"",""trial"",""time""
""fullscreenenter"",""0"",""6645""
","
",null,"<div style=""font-size:60px;"">+</div>",NA,null,fixation,2020-06-12T20:07:26Z,NA,NA,NA,NA,NA,sub7
NA,mars-trial,84,446481,0.0-10.0-1.35,"""event"",""trial"",""time""
""focus"",""0"",""3929""
""fullscreenenter"",""0"",""6645""
","
","""event"",""trial"",""time""
""focus"",""0"",""3929""
","""event"",""trial"",""time""
""fullscreenenter"",""0"",""6645""
","
",9078.584999995655,<img style='border: 4px solid darkgrey;' src='img/tf1_36_M_ss2.jpeg'></img>,3,NA,exp,NA,2,<img src='img/tf1_36_T1_ss2_md.jpeg'></img>,0,FALSE,NA,sub7
NA,html-keyboard-response,85,446985,0.0-10.0-0.36,"""event"",""trial"",""time""
""focus"",""0"",""3929""
""fullscreenenter"",""0"",""6645""
","
","""event"",""trial"",""time""
""focus"",""0"",""3929""
","""event"",""trial"",""time""
""fullscreenenter"",""0"",""6645""
","
",null,"<div style=""font-size:60px;"">+</div>",NA,null,fixation,2020-06-12T20:07:36Z,NA,NA,NA,NA,NA,sub7
NA,mars-trial,86,450510,0.0-10.0-1.36,"""event"",""trial"",""time""
""focus"",""0"",""3929""
""fullscreenenter"",""0"",""6645""
","
","""event"",""trial"",""time""
""focus"",""0"",""3929""
","""event"",""trial"",""time""
""fullscreenenter"",""0"",""6645""
","
",2916.014999995241,<img style='border: 4px solid darkgrey;' src='img/tf1_37_M_ss3.jpeg'></img>,2,NA,exp,NA,0,<img src='img/tf1_37_T1_ss3_md.jpeg'></img>,0,TRUE,NA,sub7
NA,html-keyboard-response,87,451016,0.0-10.0-0.37,"""event"",""trial"",""time""
""focus"",""0"",""3929""
""fullscreenenter"",""0"",""6645""
","
","""event"",""trial"",""time""
""focus"",""0"",""3929""
","""event"",""trial"",""time""
""fullscreenenter"",""0"",""6645""
","
",null,"<div style=""font-size:60px;"">+</div>",NA,null,fixation,2020-06-12T20:07:40Z,NA,NA,NA,NA,NA,sub7
NA,mars-trial,88,455130,0.0-10.0-1.37,"""event"",""trial"",""time""
""focus"",""0"",""3929""
""fullscreenenter"",""0"",""6645""
","
","""event"",""trial"",""time""
""focus"",""0"",""3929""
","""event"",""trial"",""time""
""fullscreenenter"",""0"",""6645""
","
",3505.5649999994785,<img style='border: 4px solid darkgrey;' src='img/tf1_38_M_ss1.jpeg'></img>,0,NA,exp,NA,0,<img src='img/tf1_38_T1_ss1_md.jpeg'></img>,0,TRUE,NA,sub7
NA,html-keyboard-response,89,455632,0.0-10.0-0.38,"""event"",""trial"",""time""
""focus"",""0"",""3929""
""fullscreenenter"",""0"",""6645""
","
","""event"",""trial"",""time""
""focus"",""0"",""3929""
","""event"",""trial"",""time""
""fullscreenenter"",""0"",""6645""
","
",null,"<div style=""font-size:60px;"">+</div>",NA,null,fixation,2020-06-12T20:07:45Z,NA,NA,NA,NA,NA,sub7
NA,mars-trial,90,466036,0.0-10.0-1.38,"""event"",""trial"",""time""
""focus"",""0"",""3929""
""fullscreenenter"",""0"",""6645""
","
","""event"",""trial"",""time""
""focus"",""0"",""3929""
","""event"",""trial"",""time""
""fullscreenenter"",""0"",""6645""
","
",9790.639999991981,<img style='border: 4px solid darkgrey;' src='img/tf1_39_M_ss2.jpeg'></img>,2,NA,exp,NA,1,<img src='img/tf1_39_T1_ss2_md.jpeg'></img>,0,FALSE,NA,sub7
NA,html-keyboard-response,91,466542,0.0-10.0-0.39,"""event"",""trial"",""time""
""focus"",""0"",""3929""
""fullscreenenter"",""0"",""6645""
","
","""event"",""trial"",""time""
""focus"",""0"",""3929""
","""event"",""trial"",""time""
""fullscreenenter"",""0"",""6645""
","
",null,"<div style=""font-size:60px;"">+</div>",NA,null,fixation,2020-06-12T20:07:55Z,NA,NA,NA,NA,NA,sub7
NA,mars-trial,92,473253,0.0-10.0-1.39,"""event"",""trial"",""time""
""focus"",""0"",""3929""
""fullscreenenter"",""0"",""6645""
","
","""event"",""trial"",""time""
""focus"",""0"",""3929""
","""event"",""trial"",""time""
""fullscreenenter"",""0"",""6645""
","
",6101.165000000037,<img style='border: 4px solid darkgrey;' src='img/tf1_40_M_ss3.jpeg'></img>,0,NA,exp,NA,3,<img src='img/tf1_40_T1_ss3_md.jpeg'></img>,0,FALSE,NA,sub7
NA,html-keyboard-response,93,473761,0.0-10.0-0.40,"""event"",""trial"",""time""
""focus"",""0"",""3929""
""fullscreenenter"",""0"",""6645""
","
","""event"",""trial"",""time""
""focus"",""0"",""3929""
","""event"",""trial"",""time""
""fullscreenenter"",""0"",""6645""
","
",null,"<div style=""font-size:60px;"">+</div>",NA,null,fixation,2020-06-12T20:08:03Z,NA,NA,NA,NA,NA,sub7
NA,mars-trial,94,480807,0.0-10.0-1.40,"""event"",""trial"",""time""
""focus"",""0"",""3929""
""fullscreenenter"",""0"",""6645""
","
","""event"",""trial"",""time""
""focus"",""0"",""3929""
","""event"",""trial"",""time""
""fullscreenenter"",""0"",""6645""
","
",6436.779999989085,<img style='border: 4px solid darkgrey;' src='img/tf1_41_M_ss1.jpeg'></img>,1,NA,exp,NA,0,<img src='img/tf1_41_T1_ss1_md.jpeg'></img>,0,TRUE,NA,sub7
NA,html-keyboard-response,95,481312,0.0-10.0-0.41,"""event"",""trial"",""time""
""focus"",""0"",""3929""
""fullscreenenter"",""0"",""6645""
","
","""event"",""trial"",""time""
""focus"",""0"",""3929""
","""event"",""trial"",""time""
""fullscreenenter"",""0"",""6645""
","
",null,"<div style=""font-size:60px;"">+</div>",NA,null,fixation,2020-06-12T20:08:10Z,NA,NA,NA,NA,NA,sub7
NA,mars-trial,96,498218,0.0-10.0-1.41,"""event"",""trial"",""time""
""focus"",""0"",""3929""
""fullscreenenter"",""0"",""6645""
","
","""event"",""trial"",""time""
""focus"",""0"",""3929""
","""event"",""trial"",""time""
""fullscreenenter"",""0"",""6645""
","
",16291.830000001937,<img style='border: 4px solid darkgrey;' src='img/tf1_42_M_ss2.jpeg'></img>,2,NA,exp,NA,0,<img src='img/tf1_42_T1_ss2_md.jpeg'></img>,0,TRUE,NA,sub7
NA,html-keyboard-response,97,498724,0.0-10.0-0.42,"""event"",""trial"",""time""
""focus"",""0"",""3929""
""fullscreenenter"",""0"",""6645""
","
","""event"",""trial"",""time""
""focus"",""0"",""3929""
","""event"",""trial"",""time""
""fullscreenenter"",""0"",""6645""
","
",null,"<div style=""font-size:60px;"">+</div>",NA,null,fixation,2020-06-12T20:08:28Z,NA,NA,NA,NA,NA,sub7
NA,mars-trial,98,514325,0.0-10.0-1.42,"""event"",""trial"",""time""
""focus"",""0"",""3929""
""fullscreenenter"",""0"",""6645""
","
","""event"",""trial"",""time""
""focus"",""0"",""3929""
","""event"",""trial"",""time""
""fullscreenenter"",""0"",""6645""
","
",14989.159999997355,<img style='border: 4px solid darkgrey;' src='img/tf1_43_M_ss3.jpeg'></img>,1,NA,exp,NA,0,<img src='img/tf1_43_T1_ss3_md.jpeg'></img>,0,TRUE,NA,sub7
NA,html-keyboard-response,99,514832,0.0-10.0-0.43,"""event"",""trial"",""time""
""focus"",""0"",""3929""
""fullscreenenter"",""0"",""6645""
","
","""event"",""trial"",""time""
""focus"",""0"",""3929""
","""event"",""trial"",""time""
""fullscreenenter"",""0"",""6645""
","
",null,"<div style=""font-size:60px;"">+</div>",NA,null,fixation,2020-06-12T20:08:44Z,NA,NA,NA,NA,NA,sub7
NA,mars-trial,100,528803,0.0-10.0-1.43,"""event"",""trial"",""time""
""focus"",""0"",""3929""
""fullscreenenter"",""0"",""6645""
","
","""event"",""trial"",""time""
""focus"",""0"",""3929""
","""event"",""trial"",""time""
""fullscreenenter"",""0"",""6645""
","
",13360.110000008717,<img style='border: 4px solid darkgrey;' src='img/tf1_44_M_ss1.jpeg'></img>,2,NA,exp,NA,1,<img src='img/tf1_44_T1_ss1_md.jpeg'></img>,0,FALSE,NA,sub7
NA,html-keyboard-response,101,529306,0.0-10.0-0.44,"""event"",""trial"",""time""
""focus"",""0"",""3929""
""fullscreenenter"",""0"",""6645""
","
","""event"",""trial"",""time""
""focus"",""0"",""3929""
","""event"",""trial"",""time""
""fullscreenenter"",""0"",""6645""
","
",null,"<div style=""font-size:60px;"">+</div>",NA,null,fixation,2020-06-12T20:08:58Z,NA,NA,NA,NA,NA,sub7
NA,mars-trial,102,538496,0.0-10.0-1.44,"""event"",""trial"",""time""
""focus"",""0"",""3929""
""fullscreenenter"",""0"",""6645""
","
","""event"",""trial"",""time""
""focus"",""0"",""3929""
","""event"",""trial"",""time""
""fullscreenenter"",""0"",""6645""
","
",NA,NA,NA,NA,exp,NA,NA,<img src='img/tf1_45_T1_ss2_md.jpeg'></img>,0,FALSE,NA,sub7
NA,html-keyboard-response,103,538998,0.0-10.0-0.45,"""event"",""trial"",""time""
""focus"",""0"",""3929""
""fullscreenenter"",""0"",""6645""
","
","""event"",""trial"",""time""
""focus"",""0"",""3929""
","""event"",""trial"",""time""
""fullscreenenter"",""0"",""6645""
","
",null,"<div style=""font-size:60px;"">+</div>",NA,null,fixation,2020-06-12T20:09:08Z,NA,NA,NA,NA,NA,sub7
NA,audio-button-response,104,541633,0.0-11.0,"""event"",""trial"",""time""
""focus"",""0"",""3929""
""fullscreenenter"",""0"",""6645""
","
","""event"",""trial"",""time""
""focus"",""0"",""3929""
","""event"",""trial"",""time""
""fullscreenenter"",""0"",""6645""
","
",2528.099999995902,audio/mars_instructions_slide5.wav,0,NA,NA,NA,NA,NA,NA,NA,NA,sub7
