success,trial_type,trial_index,time_elapsed,internal_node_id,interactions,blur_events,focus_events,fullscreenenter_events,fullscreenexit_events,rt,stimulus,button_pressed,key_press,part,timestamp,unshuffled_button,correct_response,correct_button,correct,value,subject_id
TRUE,fullscreen,0,8196,0.0-0.0,"""event"",""trial"",""time""
""fullscreenenter"",""0"",""7236""
","
","
","""event"",""trial"",""time""
""fullscreenenter"",""0"",""7236""
","
",NA,NA,NA,NA,NA,NA,NA,NA,NA,NA,NA,sub46
NA,pavlovia,1,8211,0.0-1.0,"""event"",""trial"",""time""
""fullscreenenter"",""0"",""7236""
""fullscreenexit"",""2"",""10238""
","
","
","""event"",""trial"",""time""
""fullscreenenter"",""0"",""7236""
","""event"",""trial"",""time""
""fullscreenexit"",""2"",""10238""
",NA,NA,NA,NA,NA,NA,NA,NA,NA,NA,NA,sub46
NA,html-button-response,2,16452,0.0-2.0,"""event"",""trial"",""time""
""fullscreenenter"",""0"",""7236""
""fullscreenexit"",""2"",""10238""
","
","
","""event"",""trial"",""time""
""fullscreenenter"",""0"",""7236""
","""event"",""trial"",""time""
""fullscreenexit"",""2"",""10238""
",8234.974999999395,<p>Welcome! Press START to begin.</p><br>,0,NA,NA,NA,NA,NA,NA,NA,NA,sub46
NA,audio-button-response,3,222756,0.0-3.0,"""event"",""trial"",""time""
""fullscreenenter"",""0"",""7236""
""fullscreenexit"",""2"",""10238""
","
","
","""event"",""trial"",""time""
""fullscreenenter"",""0"",""7236""
","""event"",""trial"",""time""
""fullscreenexit"",""2"",""10238""
",206293.36499999953,audio/mars_instructions_slide2.wav,0,NA,NA,NA,NA,NA,NA,NA,NA,sub46
NA,audio-button-response,4,231887,0.0-4.0,"""event"",""trial"",""time""
""fullscreenenter"",""0"",""7236""
""fullscreenexit"",""2"",""10238""
","
","
","""event"",""trial"",""time""
""fullscreenenter"",""0"",""7236""
","""event"",""trial"",""time""
""fullscreenexit"",""2"",""10238""
",9126.345000000583,audio/mars_instructions_slide3.wav,0,NA,NA,NA,NA,NA,NA,NA,NA,sub46
NA,html-keyboard-response,5,232394,0.0-5.0-0.0,"""event"",""trial"",""time""
""fullscreenenter"",""0"",""7236""
""fullscreenexit"",""2"",""10238""
","
","
","""event"",""trial"",""time""
""fullscreenenter"",""0"",""7236""
","""event"",""trial"",""time""
""fullscreenexit"",""2"",""10238""
",null,"<div style=""font-size:60px;"">+</div>",NA,null,fixation,2020-06-23T20:41:19Z,NA,NA,NA,NA,NA,sub46
NA,mars-trial,6,241465,0.0-5.0-1.0,"""event"",""trial"",""time""
""fullscreenenter"",""0"",""7236""
""fullscreenexit"",""2"",""10238""
","
","
","""event"",""trial"",""time""
""fullscreenenter"",""0"",""7236""
","""event"",""trial"",""time""
""fullscreenexit"",""2"",""10238""
",6948.339999999007,<img style='border: 4px solid darkgrey;' src='practice/pt1_M1.png'></img>,1,NA,practice,NA,0,<img src='practice/pt1_T1.png'></img>,0,TRUE,NA,sub46
NA,html-keyboard-response,7,241973,0.0-6.0-0.0,"""event"",""trial"",""time""
""fullscreenenter"",""0"",""7236""
""fullscreenexit"",""2"",""10238""
","
","
","""event"",""trial"",""time""
""fullscreenenter"",""0"",""7236""
","""event"",""trial"",""time""
""fullscreenexit"",""2"",""10238""
",null,"<div style=""font-size:60px;"">+</div>",NA,null,fixation,2020-06-23T20:41:28Z,NA,NA,NA,NA,NA,sub46
NA,mars-trial,8,247194,0.0-6.0-1.0,"""event"",""trial"",""time""
""fullscreenenter"",""0"",""7236""
""fullscreenexit"",""2"",""10238""
","
","
","""event"",""trial"",""time""
""fullscreenenter"",""0"",""7236""
","""event"",""trial"",""time""
""fullscreenexit"",""2"",""10238""
",3102.104999999923,<img style='border: 4px solid darkgrey;' src='practice/pt2_M1.png'></img>,3,NA,practice,NA,0,<img src='practice/pt2_T1.png'></img>,0,TRUE,NA,sub46
NA,html-keyboard-response,9,247700,0.0-7.0-0.0,"""event"",""trial"",""time""
""fullscreenenter"",""0"",""7236""
""fullscreenexit"",""2"",""10238""
","
","
","""event"",""trial"",""time""
""fullscreenenter"",""0"",""7236""
","""event"",""trial"",""time""
""fullscreenexit"",""2"",""10238""
",null,"<div style=""font-size:60px;"">+</div>",NA,null,fixation,2020-06-23T20:41:34Z,NA,NA,NA,NA,NA,sub46
NA,mars-trial,10,252370,0.0-7.0-1.0,"""event"",""trial"",""time""
""fullscreenenter"",""0"",""7236""
""fullscreenexit"",""2"",""10238""
","
","
","""event"",""trial"",""time""
""fullscreenenter"",""0"",""7236""
","""event"",""trial"",""time""
""fullscreenexit"",""2"",""10238""
",2549.7999999988824,<img style='border: 4px solid darkgrey;' src='practice/pt3_M1.png'></img>,3,NA,practice,NA,0,<img src='practice/pt3_T1.png'></img>,0,TRUE,NA,sub46
NA,audio-button-response,11,254908,0.0-8.0,"""event"",""trial"",""time""
""fullscreenenter"",""0"",""7236""
""fullscreenexit"",""2"",""10238""
","
","
","""event"",""trial"",""time""
""fullscreenenter"",""0"",""7236""
","""event"",""trial"",""time""
""fullscreenexit"",""2"",""10238""
",2529.7350000001024,audio/mars_instructions_slide4.wav,0,NA,NA,NA,NA,NA,NA,NA,NA,sub46
NA,call-function,12,254912,0.0-9.0,"""event"",""trial"",""time""
""fullscreenenter"",""0"",""7236""
""fullscreenexit"",""2"",""10238""
","
","
","""event"",""trial"",""time""
""fullscreenenter"",""0"",""7236""
","""event"",""trial"",""time""
""fullscreenexit"",""2"",""10238""
",NA,NA,NA,NA,NA,NA,NA,NA,NA,NA,NA,sub46
NA,html-keyboard-response,13,255416,0.0-10.0-0.0,"""event"",""trial"",""time""
""fullscreenenter"",""0"",""7236""
""fullscreenexit"",""2"",""10238""
","
","
","""event"",""trial"",""time""
""fullscreenenter"",""0"",""7236""
","""event"",""trial"",""time""
""fullscreenexit"",""2"",""10238""
",null,"<div style=""font-size:60px;"">+</div>",NA,null,fixation,2020-06-23T20:41:42Z,NA,NA,NA,NA,NA,sub46
NA,mars-trial,14,258407,0.0-10.0-1.0,"""event"",""trial"",""time""
""fullscreenenter"",""0"",""7236""
""fullscreenexit"",""2"",""10238""
","
","
","""event"",""trial"",""time""
""fullscreenenter"",""0"",""7236""
","""event"",""trial"",""time""
""fullscreenexit"",""2"",""10238""
",2373.164999999106,<img style='border: 4px solid darkgrey;' src='img/tf1_1_M_ss3.jpeg'></img>,1,NA,exp,NA,0,<img src='img/tf1_1_T1_ss3_md.jpeg'></img>,0,TRUE,NA,sub46
NA,html-keyboard-response,15,258915,0.0-10.0-0.1,"""event"",""trial"",""time""
""fullscreenenter"",""0"",""7236""
""fullscreenexit"",""2"",""10238""
","
","
","""event"",""trial"",""time""
""fullscreenenter"",""0"",""7236""
","""event"",""trial"",""time""
""fullscreenexit"",""2"",""10238""
",null,"<div style=""font-size:60px;"">+</div>",NA,null,fixation,2020-06-23T20:41:45Z,NA,NA,NA,NA,NA,sub46
NA,mars-trial,16,262573,0.0-10.0-1.1,"""event"",""trial"",""time""
""fullscreenenter"",""0"",""7236""
""fullscreenexit"",""2"",""10238""
","
","
","""event"",""trial"",""time""
""fullscreenenter"",""0"",""7236""
","""event"",""trial"",""time""
""fullscreenexit"",""2"",""10238""
",3039.7400000001653,<img style='border: 4px solid darkgrey;' src='img/tf1_2_M_ss1.jpeg'></img>,3,NA,exp,NA,0,<img src='img/tf1_2_T1_ss1_md.jpeg'></img>,0,TRUE,NA,sub46
NA,html-keyboard-response,17,263079,0.0-10.0-0.2,"""event"",""trial"",""time""
""fullscreenenter"",""0"",""7236""
""fullscreenexit"",""2"",""10238""
","
","
","""event"",""trial"",""time""
""fullscreenenter"",""0"",""7236""
","""event"",""trial"",""time""
""fullscreenexit"",""2"",""10238""
",null,"<div style=""font-size:60px;"">+</div>",NA,null,fixation,2020-06-23T20:41:49Z,NA,NA,NA,NA,NA,sub46
NA,mars-trial,18,266657,0.0-10.0-1.2,"""event"",""trial"",""time""
""fullscreenenter"",""0"",""7236""
""fullscreenexit"",""2"",""10238""
","
","
","""event"",""trial"",""time""
""fullscreenenter"",""0"",""7236""
","""event"",""trial"",""time""
""fullscreenexit"",""2"",""10238""
",2959.7849999991013,<img style='border: 4px solid darkgrey;' src='img/tf1_3_M_ss2.jpeg'></img>,0,NA,exp,NA,0,<img src='img/tf1_3_T1_ss2_md.jpeg'></img>,0,TRUE,NA,sub46
NA,html-keyboard-response,19,267165,0.0-10.0-0.3,"""event"",""trial"",""time""
""fullscreenenter"",""0"",""7236""
""fullscreenexit"",""2"",""10238""
","
","
","""event"",""trial"",""time""
""fullscreenenter"",""0"",""7236""
","""event"",""trial"",""time""
""fullscreenexit"",""2"",""10238""
",null,"<div style=""font-size:60px;"">+</div>",NA,null,fixation,2020-06-23T20:41:53Z,NA,NA,NA,NA,NA,sub46
NA,mars-trial,20,270205,0.0-10.0-1.3,"""event"",""trial"",""time""
""fullscreenenter"",""0"",""7236""
""fullscreenexit"",""2"",""10238""
","
","
","""event"",""trial"",""time""
""fullscreenenter"",""0"",""7236""
","""event"",""trial"",""time""
""fullscreenexit"",""2"",""10238""
",2425.8449999997392,<img style='border: 4px solid darkgrey;' src='img/tf1_4_M_ss3.jpeg'></img>,1,NA,exp,NA,0,<img src='img/tf1_4_T1_ss3_md.jpeg'></img>,0,TRUE,NA,sub46
NA,html-keyboard-response,21,270709,0.0-10.0-0.4,"""event"",""trial"",""time""
""fullscreenenter"",""0"",""7236""
""fullscreenexit"",""2"",""10238""
","
","
","""event"",""trial"",""time""
""fullscreenenter"",""0"",""7236""
","""event"",""trial"",""time""
""fullscreenexit"",""2"",""10238""
",null,"<div style=""font-size:60px;"">+</div>",NA,null,fixation,2020-06-23T20:41:57Z,NA,NA,NA,NA,NA,sub46
NA,mars-trial,22,274097,0.0-10.0-1.4,"""event"",""trial"",""time""
""fullscreenenter"",""0"",""7236""
""fullscreenexit"",""2"",""10238""
","
","
","""event"",""trial"",""time""
""fullscreenenter"",""0"",""7236""
","""event"",""trial"",""time""
""fullscreenexit"",""2"",""10238""
",2763.274999999325,<img style='border: 4px solid darkgrey;' src='img/tf1_5_M_ss1.jpeg'></img>,3,NA,exp,NA,0,<img src='img/tf1_5_T1_ss1_md.jpeg'></img>,0,TRUE,NA,sub46
NA,html-keyboard-response,23,274603,0.0-10.0-0.5,"""event"",""trial"",""time""
""fullscreenenter"",""0"",""7236""
""fullscreenexit"",""2"",""10238""
","
","
","""event"",""trial"",""time""
""fullscreenenter"",""0"",""7236""
","""event"",""trial"",""time""
""fullscreenexit"",""2"",""10238""
",null,"<div style=""font-size:60px;"">+</div>",NA,null,fixation,2020-06-23T20:42:01Z,NA,NA,NA,NA,NA,sub46
NA,mars-trial,24,284402,0.0-10.0-1.5,"""event"",""trial"",""time""
""fullscreenenter"",""0"",""7236""
""fullscreenexit"",""2"",""10238""
","
","
","""event"",""trial"",""time""
""fullscreenenter"",""0"",""7236""
","""event"",""trial"",""time""
""fullscreenexit"",""2"",""10238""
",9179.94499999989,<img style='border: 4px solid darkgrey;' src='img/tf1_6_M_ss2.jpeg'></img>,1,NA,exp,NA,0,<img src='img/tf1_6_T1_ss2_md.jpeg'></img>,0,TRUE,NA,sub46
NA,html-keyboard-response,25,284906,0.0-10.0-0.6,"""event"",""trial"",""time""
""fullscreenenter"",""0"",""7236""
""fullscreenexit"",""2"",""10238""
","
","
","""event"",""trial"",""time""
""fullscreenenter"",""0"",""7236""
","""event"",""trial"",""time""
""fullscreenexit"",""2"",""10238""
",null,"<div style=""font-size:60px;"">+</div>",NA,null,fixation,2020-06-23T20:42:11Z,NA,NA,NA,NA,NA,sub46
NA,mars-trial,26,290792,0.0-10.0-1.6,"""event"",""trial"",""time""
""fullscreenenter"",""0"",""7236""
""fullscreenexit"",""2"",""10238""
","
","
","""event"",""trial"",""time""
""fullscreenenter"",""0"",""7236""
","""event"",""trial"",""time""
""fullscreenexit"",""2"",""10238""
",5265.619999998249,<img style='border: 4px solid darkgrey;' src='img/tf1_7_M_ss3.jpeg'></img>,0,NA,exp,NA,0,<img src='img/tf1_7_T1_ss3_md.jpeg'></img>,0,TRUE,NA,sub46
NA,html-keyboard-response,27,291306,0.0-10.0-0.7,"""event"",""trial"",""time""
""fullscreenenter"",""0"",""7236""
""fullscreenexit"",""2"",""10238""
","
","
","""event"",""trial"",""time""
""fullscreenenter"",""0"",""7236""
","""event"",""trial"",""time""
""fullscreenexit"",""2"",""10238""
",null,"<div style=""font-size:60px;"">+</div>",NA,null,fixation,2020-06-23T20:42:18Z,NA,NA,NA,NA,NA,sub46
NA,mars-trial,28,295730,0.0-10.0-1.7,"""event"",""trial"",""time""
""fullscreenenter"",""0"",""7236""
""fullscreenexit"",""2"",""10238""
","
","
","""event"",""trial"",""time""
""fullscreenenter"",""0"",""7236""
","""event"",""trial"",""time""
""fullscreenexit"",""2"",""10238""
",3805.555000000866,<img style='border: 4px solid darkgrey;' src='img/tf1_8_M_ss1.jpeg'></img>,1,NA,exp,NA,0,<img src='img/tf1_8_T1_ss1_md.jpeg'></img>,0,TRUE,NA,sub46
NA,html-keyboard-response,29,296239,0.0-10.0-0.8,"""event"",""trial"",""time""
""fullscreenenter"",""0"",""7236""
""fullscreenexit"",""2"",""10238""
","
","
","""event"",""trial"",""time""
""fullscreenenter"",""0"",""7236""
","""event"",""trial"",""time""
""fullscreenexit"",""2"",""10238""
",null,"<div style=""font-size:60px;"">+</div>",NA,null,fixation,2020-06-23T20:42:23Z,NA,NA,NA,NA,NA,sub46
NA,mars-trial,30,303721,0.0-10.0-1.8,"""event"",""trial"",""time""
""fullscreenenter"",""0"",""7236""
""fullscreenexit"",""2"",""10238""
","
","
","""event"",""trial"",""time""
""fullscreenenter"",""0"",""7236""
","""event"",""trial"",""time""
""fullscreenexit"",""2"",""10238""
",6859.405000001076,<img style='border: 4px solid darkgrey;' src='img/tf1_9_M_ss2.jpeg'></img>,3,NA,exp,NA,0,<img src='img/tf1_9_T1_ss2_md.jpeg'></img>,0,TRUE,NA,sub46
NA,html-keyboard-response,31,304230,0.0-10.0-0.9,"""event"",""trial"",""time""
""fullscreenenter"",""0"",""7236""
""fullscreenexit"",""2"",""10238""
","
","
","""event"",""trial"",""time""
""fullscreenenter"",""0"",""7236""
","""event"",""trial"",""time""
""fullscreenexit"",""2"",""10238""
",null,"<div style=""font-size:60px;"">+</div>",NA,null,fixation,2020-06-23T20:42:31Z,NA,NA,NA,NA,NA,sub46
NA,mars-trial,32,312603,0.0-10.0-1.9,"""event"",""trial"",""time""
""fullscreenenter"",""0"",""7236""
""fullscreenexit"",""2"",""10238""
","
","
","""event"",""trial"",""time""
""fullscreenenter"",""0"",""7236""
","""event"",""trial"",""time""
""fullscreenexit"",""2"",""10238""
",7756.979999998293,<img style='border: 4px solid darkgrey;' src='img/tf1_10_M_ss3.jpeg'></img>,2,NA,exp,NA,1,<img src='img/tf1_10_T1_ss3_md.jpeg'></img>,0,FALSE,NA,sub46
NA,html-keyboard-response,33,313108,0.0-10.0-0.10,"""event"",""trial"",""time""
""fullscreenenter"",""0"",""7236""
""fullscreenexit"",""2"",""10238""
","
","
","""event"",""trial"",""time""
""fullscreenenter"",""0"",""7236""
","""event"",""trial"",""time""
""fullscreenexit"",""2"",""10238""
",null,"<div style=""font-size:60px;"">+</div>",NA,null,fixation,2020-06-23T20:42:39Z,NA,NA,NA,NA,NA,sub46
NA,mars-trial,34,321289,0.0-10.0-1.10,"""event"",""trial"",""time""
""fullscreenenter"",""0"",""7236""
""fullscreenexit"",""2"",""10238""
","
","
","""event"",""trial"",""time""
""fullscreenenter"",""0"",""7236""
","""event"",""trial"",""time""
""fullscreenexit"",""2"",""10238""
",7564.510000000126,<img style='border: 4px solid darkgrey;' src='img/tf1_11_M_ss1.jpeg'></img>,2,NA,exp,NA,1,<img src='img/tf1_11_T1_ss1_md.jpeg'></img>,0,FALSE,NA,sub46
NA,html-keyboard-response,35,321799,0.0-10.0-0.11,"""event"",""trial"",""time""
""fullscreenenter"",""0"",""7236""
""fullscreenexit"",""2"",""10238""
","
","
","""event"",""trial"",""time""
""fullscreenenter"",""0"",""7236""
","""event"",""trial"",""time""
""fullscreenexit"",""2"",""10238""
",null,"<div style=""font-size:60px;"">+</div>",NA,null,fixation,2020-06-23T20:42:48Z,NA,NA,NA,NA,NA,sub46
NA,mars-trial,36,329912,0.0-10.0-1.11,"""event"",""trial"",""time""
""fullscreenenter"",""0"",""7236""
""fullscreenexit"",""2"",""10238""
","
","
","""event"",""trial"",""time""
""fullscreenenter"",""0"",""7236""
","""event"",""trial"",""time""
""fullscreenexit"",""2"",""10238""
",7491.659999999683,<img style='border: 4px solid darkgrey;' src='img/tf1_12_M_ss2.jpeg'></img>,1,NA,exp,NA,2,<img src='img/tf1_12_T1_ss2_md.jpeg'></img>,0,FALSE,NA,sub46
NA,html-keyboard-response,37,330419,0.0-10.0-0.12,"""event"",""trial"",""time""
""fullscreenenter"",""0"",""7236""
""fullscreenexit"",""2"",""10238""
","
","
","""event"",""trial"",""time""
""fullscreenenter"",""0"",""7236""
","""event"",""trial"",""time""
""fullscreenexit"",""2"",""10238""
",null,"<div style=""font-size:60px;"">+</div>",NA,null,fixation,2020-06-23T20:42:57Z,NA,NA,NA,NA,NA,sub46
NA,mars-trial,38,337307,0.0-10.0-1.12,"""event"",""trial"",""time""
""fullscreenenter"",""0"",""7236""
""fullscreenexit"",""2"",""10238""
","
","
","""event"",""trial"",""time""
""fullscreenenter"",""0"",""7236""
","""event"",""trial"",""time""
""fullscreenexit"",""2"",""10238""
",6263.875000000582,<img style='border: 4px solid darkgrey;' src='img/tf1_13_M_ss3.jpeg'></img>,2,NA,exp,NA,2,<img src='img/tf1_13_T1_ss3_md.jpeg'></img>,0,FALSE,NA,sub46
NA,html-keyboard-response,39,337814,0.0-10.0-0.13,"""event"",""trial"",""time""
""fullscreenenter"",""0"",""7236""
""fullscreenexit"",""2"",""10238""
","
","
","""event"",""trial"",""time""
""fullscreenenter"",""0"",""7236""
","""event"",""trial"",""time""
""fullscreenexit"",""2"",""10238""
",null,"<div style=""font-size:60px;"">+</div>",NA,null,fixation,2020-06-23T20:43:04Z,NA,NA,NA,NA,NA,sub46
NA,mars-trial,40,348542,0.0-10.0-1.13,"""event"",""trial"",""time""
""fullscreenenter"",""0"",""7236""
""fullscreenexit"",""2"",""10238""
","
","
","""event"",""trial"",""time""
""fullscreenenter"",""0"",""7236""
","""event"",""trial"",""time""
""fullscreenexit"",""2"",""10238""
",10108.159999999742,<img style='border: 4px solid darkgrey;' src='img/tf1_14_M_ss1.jpeg'></img>,1,NA,exp,NA,3,<img src='img/tf1_14_T1_ss1_md.jpeg'></img>,0,FALSE,NA,sub46
NA,html-keyboard-response,41,349049,0.0-10.0-0.14,"""event"",""trial"",""time""
""fullscreenenter"",""0"",""7236""
""fullscreenexit"",""2"",""10238""
","
","
","""event"",""trial"",""time""
""fullscreenenter"",""0"",""7236""
","""event"",""trial"",""time""
""fullscreenexit"",""2"",""10238""
",null,"<div style=""font-size:60px;"">+</div>",NA,null,fixation,2020-06-23T20:43:15Z,NA,NA,NA,NA,NA,sub46
NA,mars-trial,42,364060,0.0-10.0-1.14,"""event"",""trial"",""time""
""fullscreenenter"",""0"",""7236""
""fullscreenexit"",""2"",""10238""
","
","
","""event"",""trial"",""time""
""fullscreenenter"",""0"",""7236""
","""event"",""trial"",""time""
""fullscreenexit"",""2"",""10238""
",14389.815000000468,<img style='border: 4px solid darkgrey;' src='img/tf1_15_M_ss2.jpeg'></img>,3,NA,exp,NA,1,<img src='img/tf1_15_T1_ss2_md.jpeg'></img>,0,FALSE,NA,sub46
NA,html-keyboard-response,43,364569,0.0-10.0-0.15,"""event"",""trial"",""time""
""fullscreenenter"",""0"",""7236""
""fullscreenexit"",""2"",""10238""
","
","
","""event"",""trial"",""time""
""fullscreenenter"",""0"",""7236""
","""event"",""trial"",""time""
""fullscreenexit"",""2"",""10238""
",null,"<div style=""font-size:60px;"">+</div>",NA,null,fixation,2020-06-23T20:43:31Z,NA,NA,NA,NA,NA,sub46
NA,mars-trial,44,371267,0.0-10.0-1.15,"""event"",""trial"",""time""
""fullscreenenter"",""0"",""7236""
""fullscreenexit"",""2"",""10238""
","
","
","""event"",""trial"",""time""
""fullscreenenter"",""0"",""7236""
","""event"",""trial"",""time""
""fullscreenexit"",""2"",""10238""
",6073.534999999567,<img style='border: 4px solid darkgrey;' src='img/tf1_16_M_ss3.jpeg'></img>,3,NA,exp,NA,3,<img src='img/tf1_16_T1_ss3_md.jpeg'></img>,0,FALSE,NA,sub46
NA,html-keyboard-response,45,371772,0.0-10.0-0.16,"""event"",""trial"",""time""
""fullscreenenter"",""0"",""7236""
""fullscreenexit"",""2"",""10238""
","
","
","""event"",""trial"",""time""
""fullscreenenter"",""0"",""7236""
","""event"",""trial"",""time""
""fullscreenexit"",""2"",""10238""
",null,"<div style=""font-size:60px;"">+</div>",NA,null,fixation,2020-06-23T20:43:38Z,NA,NA,NA,NA,NA,sub46
NA,mars-trial,46,384205,0.0-10.0-1.16,"""event"",""trial"",""time""
""fullscreenenter"",""0"",""7236""
""fullscreenexit"",""2"",""10238""
","
","
","""event"",""trial"",""time""
""fullscreenenter"",""0"",""7236""
","""event"",""trial"",""time""
""fullscreenexit"",""2"",""10238""
",11810.890000000654,<img style='border: 4px solid darkgrey;' src='img/tf1_17_M_ss1.jpeg'></img>,1,NA,exp,NA,1,<img src='img/tf1_17_T1_ss1_md.jpeg'></img>,0,FALSE,NA,sub46
NA,html-keyboard-response,47,384714,0.0-10.0-0.17,"""event"",""trial"",""time""
""fullscreenenter"",""0"",""7236""
""fullscreenexit"",""2"",""10238""
","
","
","""event"",""trial"",""time""
""fullscreenenter"",""0"",""7236""
","""event"",""trial"",""time""
""fullscreenexit"",""2"",""10238""
",null,"<div style=""font-size:60px;"">+</div>",NA,null,fixation,2020-06-23T20:43:51Z,NA,NA,NA,NA,NA,sub46
NA,mars-trial,48,407855,0.0-10.0-1.17,"""event"",""trial"",""time""
""fullscreenenter"",""0"",""7236""
""fullscreenexit"",""2"",""10238""
","
","
","""event"",""trial"",""time""
""fullscreenenter"",""0"",""7236""
","""event"",""trial"",""time""
""fullscreenexit"",""2"",""10238""
",22518.894999999262,<img style='border: 4px solid darkgrey;' src='img/tf1_18_M_ss2.jpeg'></img>,0,NA,exp,NA,3,<img src='img/tf1_18_T1_ss2_md.jpeg'></img>,0,FALSE,NA,sub46
NA,html-keyboard-response,49,408363,0.0-10.0-0.18,"""event"",""trial"",""time""
""fullscreenenter"",""0"",""7236""
""fullscreenexit"",""2"",""10238""
","
","
","""event"",""trial"",""time""
""fullscreenenter"",""0"",""7236""
","""event"",""trial"",""time""
""fullscreenexit"",""2"",""10238""
",null,"<div style=""font-size:60px;"">+</div>",NA,null,fixation,2020-06-23T20:44:15Z,NA,NA,NA,NA,NA,sub46
NA,mars-trial,50,418523,0.0-10.0-1.18,"""event"",""trial"",""time""
""fullscreenenter"",""0"",""7236""
""fullscreenexit"",""2"",""10238""
","
","
","""event"",""trial"",""time""
""fullscreenenter"",""0"",""7236""
","""event"",""trial"",""time""
""fullscreenexit"",""2"",""10238""
",9535.550000000512,<img style='border: 4px solid darkgrey;' src='img/tf1_19_M_ss3.jpeg'></img>,3,NA,exp,NA,0,<img src='img/tf1_19_T1_ss3_md.jpeg'></img>,0,TRUE,NA,sub46
NA,html-keyboard-response,51,419034,0.0-10.0-0.19,"""event"",""trial"",""time""
""fullscreenenter"",""0"",""7236""
""fullscreenexit"",""2"",""10238""
","
","
","""event"",""trial"",""time""
""fullscreenenter"",""0"",""7236""
","""event"",""trial"",""time""
""fullscreenexit"",""2"",""10238""
",null,"<div style=""font-size:60px;"">+</div>",NA,null,fixation,2020-06-23T20:44:25Z,NA,NA,NA,NA,NA,sub46
NA,mars-trial,52,427735,0.0-10.0-1.19,"""event"",""trial"",""time""
""fullscreenenter"",""0"",""7236""
""fullscreenexit"",""2"",""10238""
","
","
","""event"",""trial"",""time""
""fullscreenenter"",""0"",""7236""
","""event"",""trial"",""time""
""fullscreenexit"",""2"",""10238""
",8082.8449999989825,<img style='border: 4px solid darkgrey;' src='img/tf1_20_M_ss1.jpeg'></img>,2,NA,exp,NA,1,<img src='img/tf1_20_T1_ss1_md.jpeg'></img>,0,FALSE,NA,sub46
NA,html-keyboard-response,53,428246,0.0-10.0-0.20,"""event"",""trial"",""time""
""fullscreenenter"",""0"",""7236""
""fullscreenexit"",""2"",""10238""
","
","
","""event"",""trial"",""time""
""fullscreenenter"",""0"",""7236""
","""event"",""trial"",""time""
""fullscreenexit"",""2"",""10238""
",null,"<div style=""font-size:60px;"">+</div>",NA,null,fixation,2020-06-23T20:44:35Z,NA,NA,NA,NA,NA,sub46
NA,mars-trial,54,443463,0.0-10.0-1.20,"""event"",""trial"",""time""
""fullscreenenter"",""0"",""7236""
""fullscreenexit"",""2"",""10238""
","
","
","""event"",""trial"",""time""
""fullscreenenter"",""0"",""7236""
","""event"",""trial"",""time""
""fullscreenexit"",""2"",""10238""
",14594.194999999658,<img style='border: 4px solid darkgrey;' src='img/tf1_21_M_ss2.jpeg'></img>,3,NA,exp,NA,3,<img src='img/tf1_21_T1_ss2_md.jpeg'></img>,0,FALSE,NA,sub46
NA,html-keyboard-response,55,443972,0.0-10.0-0.21,"""event"",""trial"",""time""
""fullscreenenter"",""0"",""7236""
""fullscreenexit"",""2"",""10238""
","
","
","""event"",""trial"",""time""
""fullscreenenter"",""0"",""7236""
","""event"",""trial"",""time""
""fullscreenexit"",""2"",""10238""
",null,"<div style=""font-size:60px;"">+</div>",NA,null,fixation,2020-06-23T20:44:50Z,NA,NA,NA,NA,NA,sub46
NA,mars-trial,56,450978,0.0-10.0-1.21,"""event"",""trial"",""time""
""fullscreenenter"",""0"",""7236""
""fullscreenexit"",""2"",""10238""
","
","
","""event"",""trial"",""time""
""fullscreenenter"",""0"",""7236""
","""event"",""trial"",""time""
""fullscreenexit"",""2"",""10238""
",6387.119999999413,<img style='border: 4px solid darkgrey;' src='img/tf1_22_M_ss3.jpeg'></img>,1,NA,exp,NA,3,<img src='img/tf1_22_T1_ss3_md.jpeg'></img>,0,FALSE,NA,sub46
NA,html-keyboard-response,57,451488,0.0-10.0-0.22,"""event"",""trial"",""time""
""fullscreenenter"",""0"",""7236""
""fullscreenexit"",""2"",""10238""
","
","
","""event"",""trial"",""time""
""fullscreenenter"",""0"",""7236""
","""event"",""trial"",""time""
""fullscreenexit"",""2"",""10238""
",null,"<div style=""font-size:60px;"">+</div>",NA,null,fixation,2020-06-23T20:44:58Z,NA,NA,NA,NA,NA,sub46
NA,mars-trial,58,457670,0.0-10.0-1.22,"""event"",""trial"",""time""
""fullscreenenter"",""0"",""7236""
""fullscreenexit"",""2"",""10238""
","
","
","""event"",""trial"",""time""
""fullscreenenter"",""0"",""7236""
","""event"",""trial"",""time""
""fullscreenexit"",""2"",""10238""
",5561.610000000626,<img style='border: 4px solid darkgrey;' src='img/tf1_23_M_ss1.jpeg'></img>,3,NA,exp,NA,3,<img src='img/tf1_23_T1_ss1_md.jpeg'></img>,0,FALSE,NA,sub46
NA,html-keyboard-response,59,458186,0.0-10.0-0.23,"""event"",""trial"",""time""
""fullscreenenter"",""0"",""7236""
""fullscreenexit"",""2"",""10238""
","
","
","""event"",""trial"",""time""
""fullscreenenter"",""0"",""7236""
","""event"",""trial"",""time""
""fullscreenexit"",""2"",""10238""
",null,"<div style=""font-size:60px;"">+</div>",NA,null,fixation,2020-06-23T20:45:04Z,NA,NA,NA,NA,NA,sub46
NA,mars-trial,60,459326,0.0-10.0-1.23,"""event"",""trial"",""time""
""fullscreenenter"",""0"",""7236""
""fullscreenexit"",""2"",""10238""
","
","
","""event"",""trial"",""time""
""fullscreenenter"",""0"",""7236""
","""event"",""trial"",""time""
""fullscreenexit"",""2"",""10238""
",514.7550000001211,<img style='border: 4px solid darkgrey;' src='img/tf1_24_M_ss2.jpeg'></img>,2,NA,exp,NA,3,<img src='img/tf1_24_T1_ss2_md.jpeg'></img>,0,FALSE,NA,sub46
NA,html-keyboard-response,61,459830,0.0-10.0-0.24,"""event"",""trial"",""time""
""fullscreenenter"",""0"",""7236""
""fullscreenexit"",""2"",""10238""
","
","
","""event"",""trial"",""time""
""fullscreenenter"",""0"",""7236""
","""event"",""trial"",""time""
""fullscreenexit"",""2"",""10238""
",null,"<div style=""font-size:60px;"">+</div>",NA,null,fixation,2020-06-23T20:45:06Z,NA,NA,NA,NA,NA,sub46
NA,mars-trial,62,460893,0.0-10.0-1.24,"""event"",""trial"",""time""
""fullscreenenter"",""0"",""7236""
""fullscreenexit"",""2"",""10238""
","
","
","""event"",""trial"",""time""
""fullscreenenter"",""0"",""7236""
","""event"",""trial"",""time""
""fullscreenexit"",""2"",""10238""
",440.95999999990454,<img style='border: 4px solid darkgrey;' src='img/tf1_25_M_ss3.jpeg'></img>,1,NA,exp,NA,2,<img src='img/tf1_25_T1_ss3_md.jpeg'></img>,0,FALSE,NA,sub46
NA,html-keyboard-response,63,461399,0.0-10.0-0.25,"""event"",""trial"",""time""
""fullscreenenter"",""0"",""7236""
""fullscreenexit"",""2"",""10238""
","
","
","""event"",""trial"",""time""
""fullscreenenter"",""0"",""7236""
","""event"",""trial"",""time""
""fullscreenexit"",""2"",""10238""
",null,"<div style=""font-size:60px;"">+</div>",NA,null,fixation,2020-06-23T20:45:08Z,NA,NA,NA,NA,NA,sub46
NA,mars-trial,64,462482,0.0-10.0-1.25,"""event"",""trial"",""time""
""fullscreenenter"",""0"",""7236""
""fullscreenexit"",""2"",""10238""
","
","
","""event"",""trial"",""time""
""fullscreenenter"",""0"",""7236""
","""event"",""trial"",""time""
""fullscreenexit"",""2"",""10238""
",465.6500000001397,<img style='border: 4px solid darkgrey;' src='img/tf1_26_M_ss1.jpeg'></img>,1,NA,exp,NA,2,<img src='img/tf1_26_T1_ss1_md.jpeg'></img>,0,FALSE,NA,sub46
NA,html-keyboard-response,65,462985,0.0-10.0-0.26,"""event"",""trial"",""time""
""fullscreenenter"",""0"",""7236""
""fullscreenexit"",""2"",""10238""
","
","
","""event"",""trial"",""time""
""fullscreenenter"",""0"",""7236""
","""event"",""trial"",""time""
""fullscreenexit"",""2"",""10238""
",null,"<div style=""font-size:60px;"">+</div>",NA,null,fixation,2020-06-23T20:45:09Z,NA,NA,NA,NA,NA,sub46
NA,mars-trial,66,464287,0.0-10.0-1.26,"""event"",""trial"",""time""
""fullscreenenter"",""0"",""7236""
""fullscreenexit"",""2"",""10238""
","
","
","""event"",""trial"",""time""
""fullscreenenter"",""0"",""7236""
","""event"",""trial"",""time""
""fullscreenexit"",""2"",""10238""
",685.0500000000466,<img style='border: 4px solid darkgrey;' src='img/tf1_27_M_ss2.jpeg'></img>,2,NA,exp,NA,1,<img src='img/tf1_27_T1_ss2_md.jpeg'></img>,0,FALSE,NA,sub46
NA,html-keyboard-response,67,464795,0.0-10.0-0.27,"""event"",""trial"",""time""
""fullscreenenter"",""0"",""7236""
""fullscreenexit"",""2"",""10238""
","
","
","""event"",""trial"",""time""
""fullscreenenter"",""0"",""7236""
","""event"",""trial"",""time""
""fullscreenexit"",""2"",""10238""
",null,"<div style=""font-size:60px;"">+</div>",NA,null,fixation,2020-06-23T20:45:11Z,NA,NA,NA,NA,NA,sub46
NA,mars-trial,68,465801,0.0-10.0-1.27,"""event"",""trial"",""time""
""fullscreenenter"",""0"",""7236""
""fullscreenexit"",""2"",""10238""
","
","
","""event"",""trial"",""time""
""fullscreenenter"",""0"",""7236""
","""event"",""trial"",""time""
""fullscreenexit"",""2"",""10238""
",376.60500000132015,<img style='border: 4px solid darkgrey;' src='img/tf1_28_M_ss3.jpeg'></img>,2,NA,exp,NA,1,<img src='img/tf1_28_T1_ss3_md.jpeg'></img>,0,FALSE,NA,sub46
NA,html-keyboard-response,69,466307,0.0-10.0-0.28,"""event"",""trial"",""time""
""fullscreenenter"",""0"",""7236""
""fullscreenexit"",""2"",""10238""
","
","
","""event"",""trial"",""time""
""fullscreenenter"",""0"",""7236""
","""event"",""trial"",""time""
""fullscreenexit"",""2"",""10238""
",null,"<div style=""font-size:60px;"">+</div>",NA,null,fixation,2020-06-23T20:45:13Z,NA,NA,NA,NA,NA,sub46
NA,mars-trial,70,469005,0.0-10.0-1.28,"""event"",""trial"",""time""
""fullscreenenter"",""0"",""7236""
""fullscreenexit"",""2"",""10238""
","
","
","""event"",""trial"",""time""
""fullscreenenter"",""0"",""7236""
","""event"",""trial"",""time""
""fullscreenexit"",""2"",""10238""
",2083.6249999993015,<img style='border: 4px solid darkgrey;' src='img/tf1_29_M_ss1.jpeg'></img>,1,NA,exp,NA,0,<img src='img/tf1_29_T1_ss1_md.jpeg'></img>,0,TRUE,NA,sub46
NA,html-keyboard-response,71,469509,0.0-10.0-0.29,"""event"",""trial"",""time""
""fullscreenenter"",""0"",""7236""
""fullscreenexit"",""2"",""10238""
","
","
","""event"",""trial"",""time""
""fullscreenenter"",""0"",""7236""
","""event"",""trial"",""time""
""fullscreenexit"",""2"",""10238""
",null,"<div style=""font-size:60px;"">+</div>",NA,null,fixation,2020-06-23T20:45:16Z,NA,NA,NA,NA,NA,sub46
NA,mars-trial,72,477446,0.0-10.0-1.29,"""event"",""trial"",""time""
""fullscreenenter"",""0"",""7236""
""fullscreenexit"",""2"",""10238""
","
","
","""event"",""trial"",""time""
""fullscreenenter"",""0"",""7236""
","""event"",""trial"",""time""
""fullscreenexit"",""2"",""10238""
",7316.095000000147,<img style='border: 4px solid darkgrey;' src='img/tf1_30_M_ss2.jpeg'></img>,1,NA,exp,NA,0,<img src='img/tf1_30_T1_ss2_md.jpeg'></img>,0,TRUE,NA,sub46
NA,html-keyboard-response,73,477955,0.0-10.0-0.30,"""event"",""trial"",""time""
""fullscreenenter"",""0"",""7236""
""fullscreenexit"",""2"",""10238""
","
","
","""event"",""trial"",""time""
""fullscreenenter"",""0"",""7236""
","""event"",""trial"",""time""
""fullscreenexit"",""2"",""10238""
",null,"<div style=""font-size:60px;"">+</div>",NA,null,fixation,2020-06-23T20:45:24Z,NA,NA,NA,NA,NA,sub46
NA,mars-trial,74,484037,0.0-10.0-1.30,"""event"",""trial"",""time""
""fullscreenenter"",""0"",""7236""
""fullscreenexit"",""2"",""10238""
","
","
","""event"",""trial"",""time""
""fullscreenenter"",""0"",""7236""
","""event"",""trial"",""time""
""fullscreenexit"",""2"",""10238""
",5462.135000001581,<img style='border: 4px solid darkgrey;' src='img/tf1_31_M_ss3.jpeg'></img>,3,NA,exp,NA,0,<img src='img/tf1_31_T1_ss3_md.jpeg'></img>,0,TRUE,NA,sub46
NA,html-keyboard-response,75,484543,0.0-10.0-0.31,"""event"",""trial"",""time""
""fullscreenenter"",""0"",""7236""
""fullscreenexit"",""2"",""10238""
","
","
","""event"",""trial"",""time""
""fullscreenenter"",""0"",""7236""
","""event"",""trial"",""time""
""fullscreenexit"",""2"",""10238""
",null,"<div style=""font-size:60px;"">+</div>",NA,null,fixation,2020-06-23T20:45:31Z,NA,NA,NA,NA,NA,sub46
NA,mars-trial,76,492312,0.0-10.0-1.31,"""event"",""trial"",""time""
""fullscreenenter"",""0"",""7236""
""fullscreenexit"",""2"",""10238""
","
","
","""event"",""trial"",""time""
""fullscreenenter"",""0"",""7236""
","""event"",""trial"",""time""
""fullscreenexit"",""2"",""10238""
",7157.4949999994715,<img style='border: 4px solid darkgrey;' src='img/tf1_32_M_ss1.jpeg'></img>,2,NA,exp,NA,2,<img src='img/tf1_32_T1_ss1_md.jpeg'></img>,0,FALSE,NA,sub46
NA,html-keyboard-response,77,492819,0.0-10.0-0.32,"""event"",""trial"",""time""
""fullscreenenter"",""0"",""7236""
""fullscreenexit"",""2"",""10238""
","
","
","""event"",""trial"",""time""
""fullscreenenter"",""0"",""7236""
","""event"",""trial"",""time""
""fullscreenexit"",""2"",""10238""
",null,"<div style=""font-size:60px;"">+</div>",NA,null,fixation,2020-06-23T20:45:39Z,NA,NA,NA,NA,NA,sub46
NA,mars-trial,78,504590,0.0-10.0-1.32,"""event"",""trial"",""time""
""fullscreenenter"",""0"",""7236""
""fullscreenexit"",""2"",""10238""
","
","
","""event"",""trial"",""time""
""fullscreenenter"",""0"",""7236""
","""event"",""trial"",""time""
""fullscreenexit"",""2"",""10238""
",11153.000000000291,<img style='border: 4px solid darkgrey;' src='img/tf1_33_M_ss2.jpeg'></img>,3,NA,exp,NA,0,<img src='img/tf1_33_T1_ss2_md.jpeg'></img>,0,TRUE,NA,sub46
NA,html-keyboard-response,79,505094,0.0-10.0-0.33,"""event"",""trial"",""time""
""fullscreenenter"",""0"",""7236""
""fullscreenexit"",""2"",""10238""
","
","
","""event"",""trial"",""time""
""fullscreenenter"",""0"",""7236""
","""event"",""trial"",""time""
""fullscreenexit"",""2"",""10238""
",null,"<div style=""font-size:60px;"">+</div>",NA,null,fixation,2020-06-23T20:45:51Z,NA,NA,NA,NA,NA,sub46
NA,mars-trial,80,506808,0.0-10.0-1.33,"""event"",""trial"",""time""
""fullscreenenter"",""0"",""7236""
""fullscreenexit"",""2"",""10238""
","
","
","""event"",""trial"",""time""
""fullscreenenter"",""0"",""7236""
","""event"",""trial"",""time""
""fullscreenexit"",""2"",""10238""
",1080.830000000773,<img style='border: 4px solid darkgrey;' src='img/tf1_34_M_ss3.jpeg'></img>,3,NA,exp,NA,1,<img src='img/tf1_34_T1_ss3_md.jpeg'></img>,0,FALSE,NA,sub46
NA,html-keyboard-response,81,507312,0.0-10.0-0.34,"""event"",""trial"",""time""
""fullscreenenter"",""0"",""7236""
""fullscreenexit"",""2"",""10238""
","
","
","""event"",""trial"",""time""
""fullscreenenter"",""0"",""7236""
","""event"",""trial"",""time""
""fullscreenexit"",""2"",""10238""
",null,"<div style=""font-size:60px;"">+</div>",NA,null,fixation,2020-06-23T20:45:54Z,NA,NA,NA,NA,NA,sub46
NA,mars-trial,82,509129,0.0-10.0-1.34,"""event"",""trial"",""time""
""fullscreenenter"",""0"",""7236""
""fullscreenexit"",""2"",""10238""
","
","
","""event"",""trial"",""time""
""fullscreenenter"",""0"",""7236""
","""event"",""trial"",""time""
""fullscreenexit"",""2"",""10238""
",1198.9850000009174,<img style='border: 4px solid darkgrey;' src='img/tf1_35_M_ss1.jpeg'></img>,1,NA,exp,NA,2,<img src='img/tf1_35_T1_ss1_md.jpeg'></img>,0,FALSE,NA,sub46
NA,html-keyboard-response,83,509631,0.0-10.0-0.35,"""event"",""trial"",""time""
""fullscreenenter"",""0"",""7236""
""fullscreenexit"",""2"",""10238""
","
","
","""event"",""trial"",""time""
""fullscreenenter"",""0"",""7236""
","""event"",""trial"",""time""
""fullscreenexit"",""2"",""10238""
",null,"<div style=""font-size:60px;"">+</div>",NA,null,fixation,2020-06-23T20:45:56Z,NA,NA,NA,NA,NA,sub46
NA,mars-trial,84,510753,0.0-10.0-1.35,"""event"",""trial"",""time""
""fullscreenenter"",""0"",""7236""
""fullscreenexit"",""2"",""10238""
","
","
","""event"",""trial"",""time""
""fullscreenenter"",""0"",""7236""
","""event"",""trial"",""time""
""fullscreenexit"",""2"",""10238""
",506.21499999944353,<img style='border: 4px solid darkgrey;' src='img/tf1_36_M_ss2.jpeg'></img>,2,NA,exp,NA,0,<img src='img/tf1_36_T1_ss2_md.jpeg'></img>,0,TRUE,NA,sub46
NA,html-keyboard-response,85,511260,0.0-10.0-0.36,"""event"",""trial"",""time""
""fullscreenenter"",""0"",""7236""
""fullscreenexit"",""2"",""10238""
","
","
","""event"",""trial"",""time""
""fullscreenenter"",""0"",""7236""
","""event"",""trial"",""time""
""fullscreenexit"",""2"",""10238""
",null,"<div style=""font-size:60px;"">+</div>",NA,null,fixation,2020-06-23T20:45:58Z,NA,NA,NA,NA,NA,sub46
NA,mars-trial,86,512904,0.0-10.0-1.36,"""event"",""trial"",""time""
""fullscreenenter"",""0"",""7236""
""fullscreenexit"",""2"",""10238""
","
","
","""event"",""trial"",""time""
""fullscreenenter"",""0"",""7236""
","""event"",""trial"",""time""
""fullscreenexit"",""2"",""10238""
",1032.0800000008894,<img style='border: 4px solid darkgrey;' src='img/tf1_37_M_ss3.jpeg'></img>,1,NA,exp,NA,1,<img src='img/tf1_37_T1_ss3_md.jpeg'></img>,0,FALSE,NA,sub46
NA,html-keyboard-response,87,513408,0.0-10.0-0.37,"""event"",""trial"",""time""
""fullscreenenter"",""0"",""7236""
""fullscreenexit"",""2"",""10238""
","
","
","""event"",""trial"",""time""
""fullscreenenter"",""0"",""7236""
","""event"",""trial"",""time""
""fullscreenexit"",""2"",""10238""
",null,"<div style=""font-size:60px;"">+</div>",NA,null,fixation,2020-06-23T20:46:00Z,NA,NA,NA,NA,NA,sub46
NA,mars-trial,88,518436,0.0-10.0-1.37,"""event"",""trial"",""time""
""fullscreenenter"",""0"",""7236""
""fullscreenexit"",""2"",""10238""
","
","
","""event"",""trial"",""time""
""fullscreenenter"",""0"",""7236""
","""event"",""trial"",""time""
""fullscreenexit"",""2"",""10238""
",4410.149999999732,<img style='border: 4px solid darkgrey;' src='img/tf1_38_M_ss1.jpeg'></img>,2,NA,exp,NA,0,<img src='img/tf1_38_T1_ss1_md.jpeg'></img>,0,TRUE,NA,sub46
NA,html-keyboard-response,89,518941,0.0-10.0-0.38,"""event"",""trial"",""time""
""fullscreenenter"",""0"",""7236""
""fullscreenexit"",""2"",""10238""
","
","
","""event"",""trial"",""time""
""fullscreenenter"",""0"",""7236""
","""event"",""trial"",""time""
""fullscreenexit"",""2"",""10238""
",null,"<div style=""font-size:60px;"">+</div>",NA,null,fixation,2020-06-23T20:46:05Z,NA,NA,NA,NA,NA,sub46
NA,mars-trial,90,522005,0.0-10.0-1.38,"""event"",""trial"",""time""
""fullscreenenter"",""0"",""7236""
""fullscreenexit"",""2"",""10238""
","
","
","""event"",""trial"",""time""
""fullscreenenter"",""0"",""7236""
","""event"",""trial"",""time""
""fullscreenexit"",""2"",""10238""
",2449.564999999013,<img style='border: 4px solid darkgrey;' src='img/tf1_39_M_ss2.jpeg'></img>,0,NA,exp,NA,1,<img src='img/tf1_39_T1_ss2_md.jpeg'></img>,0,FALSE,NA,sub46
NA,html-keyboard-response,91,522510,0.0-10.0-0.39,"""event"",""trial"",""time""
""fullscreenenter"",""0"",""7236""
""fullscreenexit"",""2"",""10238""
","
","
","""event"",""trial"",""time""
""fullscreenenter"",""0"",""7236""
","""event"",""trial"",""time""
""fullscreenexit"",""2"",""10238""
",null,"<div style=""font-size:60px;"">+</div>",NA,null,fixation,2020-06-23T20:46:09Z,NA,NA,NA,NA,NA,sub46
NA,mars-trial,92,525983,0.0-10.0-1.39,"""event"",""trial"",""time""
""fullscreenenter"",""0"",""7236""
""fullscreenexit"",""2"",""10238""
","
","
","""event"",""trial"",""time""
""fullscreenenter"",""0"",""7236""
","""event"",""trial"",""time""
""fullscreenexit"",""2"",""10238""
",2853.5449999999255,<img style='border: 4px solid darkgrey;' src='img/tf1_40_M_ss3.jpeg'></img>,3,NA,exp,NA,2,<img src='img/tf1_40_T1_ss3_md.jpeg'></img>,0,FALSE,NA,sub46
NA,html-keyboard-response,93,526489,0.0-10.0-0.40,"""event"",""trial"",""time""
""fullscreenenter"",""0"",""7236""
""fullscreenexit"",""2"",""10238""
","
","
","""event"",""trial"",""time""
""fullscreenenter"",""0"",""7236""
","""event"",""trial"",""time""
""fullscreenexit"",""2"",""10238""
",null,"<div style=""font-size:60px;"">+</div>",NA,null,fixation,2020-06-23T20:46:13Z,NA,NA,NA,NA,NA,sub46
NA,mars-trial,94,531521,0.0-10.0-1.40,"""event"",""trial"",""time""
""fullscreenenter"",""0"",""7236""
""fullscreenexit"",""2"",""10238""
","
","
","""event"",""trial"",""time""
""fullscreenenter"",""0"",""7236""
","""event"",""trial"",""time""
""fullscreenexit"",""2"",""10238""
",4416.369999999064,<img style='border: 4px solid darkgrey;' src='img/tf1_41_M_ss1.jpeg'></img>,3,NA,exp,NA,0,<img src='img/tf1_41_T1_ss1_md.jpeg'></img>,0,TRUE,NA,sub46
NA,html-keyboard-response,95,532025,0.0-10.0-0.41,"""event"",""trial"",""time""
""fullscreenenter"",""0"",""7236""
""fullscreenexit"",""2"",""10238""
","
","
","""event"",""trial"",""time""
""fullscreenenter"",""0"",""7236""
","""event"",""trial"",""time""
""fullscreenexit"",""2"",""10238""
",null,"<div style=""font-size:60px;"">+</div>",NA,null,fixation,2020-06-23T20:46:18Z,NA,NA,NA,NA,NA,sub46
NA,mars-trial,96,537463,0.0-10.0-1.41,"""event"",""trial"",""time""
""fullscreenenter"",""0"",""7236""
""fullscreenexit"",""2"",""10238""
","
","
","""event"",""trial"",""time""
""fullscreenenter"",""0"",""7236""
","""event"",""trial"",""time""
""fullscreenexit"",""2"",""10238""
",4818.274999999558,<img style='border: 4px solid darkgrey;' src='img/tf1_42_M_ss2.jpeg'></img>,2,NA,exp,NA,2,<img src='img/tf1_42_T1_ss2_md.jpeg'></img>,0,FALSE,NA,sub46
NA,html-keyboard-response,97,537968,0.0-10.0-0.42,"""event"",""trial"",""time""
""fullscreenenter"",""0"",""7236""
""fullscreenexit"",""2"",""10238""
","
","
","""event"",""trial"",""time""
""fullscreenenter"",""0"",""7236""
","""event"",""trial"",""time""
""fullscreenexit"",""2"",""10238""
",null,"<div style=""font-size:60px;"">+</div>",NA,null,fixation,2020-06-23T20:46:24Z,NA,NA,NA,NA,NA,sub46
NA,mars-trial,98,539847,0.0-10.0-1.42,"""event"",""trial"",""time""
""fullscreenenter"",""0"",""7236""
""fullscreenexit"",""2"",""10238""
","
","
","""event"",""trial"",""time""
""fullscreenenter"",""0"",""7236""
","""event"",""trial"",""time""
""fullscreenexit"",""2"",""10238""
",1262.785000000731,<img style='border: 4px solid darkgrey;' src='img/tf1_43_M_ss3.jpeg'></img>,1,NA,exp,NA,1,<img src='img/tf1_43_T1_ss3_md.jpeg'></img>,0,FALSE,NA,sub46
NA,html-keyboard-response,99,540355,0.0-10.0-0.43,"""event"",""trial"",""time""
""fullscreenenter"",""0"",""7236""
""fullscreenexit"",""2"",""10238""
","
","
","""event"",""trial"",""time""
""fullscreenenter"",""0"",""7236""
","""event"",""trial"",""time""
""fullscreenexit"",""2"",""10238""
",null,"<div style=""font-size:60px;"">+</div>",NA,null,fixation,2020-06-23T20:46:27Z,NA,NA,NA,NA,NA,sub46
NA,mars-trial,100,542156,0.0-10.0-1.43,"""event"",""trial"",""time""
""fullscreenenter"",""0"",""7236""
""fullscreenexit"",""2"",""10238""
","
","
","""event"",""trial"",""time""
""fullscreenenter"",""0"",""7236""
","""event"",""trial"",""time""
""fullscreenexit"",""2"",""10238""
",1182.9400000006426,<img style='border: 4px solid darkgrey;' src='img/tf1_44_M_ss1.jpeg'></img>,3,NA,exp,NA,2,<img src='img/tf1_44_T1_ss1_md.jpeg'></img>,0,FALSE,NA,sub46
NA,html-keyboard-response,101,542661,0.0-10.0-0.44,"""event"",""trial"",""time""
""fullscreenenter"",""0"",""7236""
""fullscreenexit"",""2"",""10238""
","
","
","""event"",""trial"",""time""
""fullscreenenter"",""0"",""7236""
","""event"",""trial"",""time""
""fullscreenexit"",""2"",""10238""
",null,"<div style=""font-size:60px;"">+</div>",NA,null,fixation,2020-06-23T20:46:29Z,NA,NA,NA,NA,NA,sub46
NA,mars-trial,102,544202,0.0-10.0-1.44,"""event"",""trial"",""time""
""fullscreenenter"",""0"",""7236""
""fullscreenexit"",""2"",""10238""
","
","
","""event"",""trial"",""time""
""fullscreenenter"",""0"",""7236""
","""event"",""trial"",""time""
""fullscreenexit"",""2"",""10238""
",924.5250000003725,<img style='border: 4px solid darkgrey;' src='img/tf1_45_M_ss2.jpeg'></img>,0,NA,exp,NA,2,<img src='img/tf1_45_T1_ss2_md.jpeg'></img>,0,FALSE,NA,sub46
NA,html-keyboard-response,103,544706,0.0-10.0-0.45,"""event"",""trial"",""time""
""fullscreenenter"",""0"",""7236""
""fullscreenexit"",""2"",""10238""
","
","
","""event"",""trial"",""time""
""fullscreenenter"",""0"",""7236""
","""event"",""trial"",""time""
""fullscreenexit"",""2"",""10238""
",null,"<div style=""font-size:60px;"">+</div>",NA,null,fixation,2020-06-23T20:46:31Z,NA,NA,NA,NA,NA,sub46
NA,mars-trial,104,546163,0.0-10.0-1.45,"""event"",""trial"",""time""
""fullscreenenter"",""0"",""7236""
""fullscreenexit"",""2"",""10238""
","
","
","""event"",""trial"",""time""
""fullscreenenter"",""0"",""7236""
","""event"",""trial"",""time""
""fullscreenexit"",""2"",""10238""
",843.5449999996927,<img style='border: 4px solid darkgrey;' src='img/tf1_46_M_ss3.jpeg'></img>,1,NA,exp,NA,2,<img src='img/tf1_46_T1_ss3_md.jpeg'></img>,0,FALSE,NA,sub46
NA,html-keyboard-response,105,546668,0.0-10.0-0.46,"""event"",""trial"",""time""
""fullscreenenter"",""0"",""7236""
""fullscreenexit"",""2"",""10238""
","
","
","""event"",""trial"",""time""
""fullscreenenter"",""0"",""7236""
","""event"",""trial"",""time""
""fullscreenexit"",""2"",""10238""
",null,"<div style=""font-size:60px;"">+</div>",NA,null,fixation,2020-06-23T20:46:33Z,NA,NA,NA,NA,NA,sub46
NA,mars-trial,106,548543,0.0-10.0-1.46,"""event"",""trial"",""time""
""fullscreenenter"",""0"",""7236""
""fullscreenexit"",""2"",""10238""
","
","
","""event"",""trial"",""time""
""fullscreenenter"",""0"",""7236""
","""event"",""trial"",""time""
""fullscreenexit"",""2"",""10238""
",1259.0749999999534,<img style='border: 4px solid darkgrey;' src='img/tf1_47_M_ss1.jpeg'></img>,2,NA,exp,NA,2,<img src='img/tf1_47_T1_ss1_md.jpeg'></img>,0,FALSE,NA,sub46
NA,html-keyboard-response,107,549049,0.0-10.0-0.47,"""event"",""trial"",""time""
""fullscreenenter"",""0"",""7236""
""fullscreenexit"",""2"",""10238""
","
","
","""event"",""trial"",""time""
""fullscreenenter"",""0"",""7236""
","""event"",""trial"",""time""
""fullscreenexit"",""2"",""10238""
",null,"<div style=""font-size:60px;"">+</div>",NA,null,fixation,2020-06-23T20:46:35Z,NA,NA,NA,NA,NA,sub46
NA,mars-trial,108,550569,0.0-10.0-1.47,"""event"",""trial"",""time""
""fullscreenenter"",""0"",""7236""
""fullscreenexit"",""2"",""10238""
","
","
","""event"",""trial"",""time""
""fullscreenenter"",""0"",""7236""
","""event"",""trial"",""time""
""fullscreenexit"",""2"",""10238""
",898.7149999993853,<img style='border: 4px solid darkgrey;' src='img/tf1_48_M_ss2.jpeg'></img>,3,NA,exp,NA,0,<img src='img/tf1_48_T1_ss2_md.jpeg'></img>,0,TRUE,NA,sub46
NA,html-keyboard-response,109,551074,0.0-10.0-0.48,"""event"",""trial"",""time""
""fullscreenenter"",""0"",""7236""
""fullscreenexit"",""2"",""10238""
","
","
","""event"",""trial"",""time""
""fullscreenenter"",""0"",""7236""
","""event"",""trial"",""time""
""fullscreenexit"",""2"",""10238""
",null,"<div style=""font-size:60px;"">+</div>",NA,null,fixation,2020-06-23T20:46:37Z,NA,NA,NA,NA,NA,sub46
NA,mars-trial,110,552694,0.0-10.0-1.48,"""event"",""trial"",""time""
""fullscreenenter"",""0"",""7236""
""fullscreenexit"",""2"",""10238""
","
","
","""event"",""trial"",""time""
""fullscreenenter"",""0"",""7236""
","""event"",""trial"",""time""
""fullscreenexit"",""2"",""10238""
",1002.6649999999208,<img style='border: 4px solid darkgrey;' src='img/tf1_49_M_ss3.jpeg'></img>,0,NA,exp,NA,1,<img src='img/tf1_49_T1_ss3_md.jpeg'></img>,0,FALSE,NA,sub46
NA,html-keyboard-response,111,553202,0.0-10.0-0.49,"""event"",""trial"",""time""
""fullscreenenter"",""0"",""7236""
""fullscreenexit"",""2"",""10238""
","
","
","""event"",""trial"",""time""
""fullscreenenter"",""0"",""7236""
","""event"",""trial"",""time""
""fullscreenexit"",""2"",""10238""
",null,"<div style=""font-size:60px;"">+</div>",NA,null,fixation,2020-06-23T20:46:39Z,NA,NA,NA,NA,NA,sub46
NA,mars-trial,112,555458,0.0-10.0-1.49,"""event"",""trial"",""time""
""fullscreenenter"",""0"",""7236""
""fullscreenexit"",""2"",""10238""
","
","
","""event"",""trial"",""time""
""fullscreenenter"",""0"",""7236""
","""event"",""trial"",""time""
""fullscreenexit"",""2"",""10238""
",1643.7050000004238,<img style='border: 4px solid darkgrey;' src='img/tf1_50_M_ss1.jpeg'></img>,2,NA,exp,NA,2,<img src='img/tf1_50_T1_ss1_md.jpeg'></img>,0,FALSE,NA,sub46
NA,html-keyboard-response,113,555961,0.0-10.0-0.50,"""event"",""trial"",""time""
""fullscreenenter"",""0"",""7236""
""fullscreenexit"",""2"",""10238""
","
","
","""event"",""trial"",""time""
""fullscreenenter"",""0"",""7236""
","""event"",""trial"",""time""
""fullscreenexit"",""2"",""10238""
",null,"<div style=""font-size:60px;"">+</div>",NA,null,fixation,2020-06-23T20:46:42Z,NA,NA,NA,NA,NA,sub46
NA,mars-trial,114,557204,0.0-10.0-1.50,"""event"",""trial"",""time""
""fullscreenenter"",""0"",""7236""
""fullscreenexit"",""2"",""10238""
","
","
","""event"",""trial"",""time""
""fullscreenenter"",""0"",""7236""
","""event"",""trial"",""time""
""fullscreenexit"",""2"",""10238""
",622.4149999998044,<img style='border: 4px solid darkgrey;' src='img/tf1_51_M_ss2.jpeg'></img>,1,NA,exp,NA,2,<img src='img/tf1_51_T1_ss2_md.jpeg'></img>,0,FALSE,NA,sub46
NA,html-keyboard-response,115,557710,0.0-10.0-0.51,"""event"",""trial"",""time""
""fullscreenenter"",""0"",""7236""
""fullscreenexit"",""2"",""10238""
","
","
","""event"",""trial"",""time""
""fullscreenenter"",""0"",""7236""
","""event"",""trial"",""time""
""fullscreenexit"",""2"",""10238""
",null,"<div style=""font-size:60px;"">+</div>",NA,null,fixation,2020-06-23T20:46:44Z,NA,NA,NA,NA,NA,sub46
NA,mars-trial,116,558869,0.0-10.0-1.51,"""event"",""trial"",""time""
""fullscreenenter"",""0"",""7236""
""fullscreenexit"",""2"",""10238""
","
","
","""event"",""trial"",""time""
""fullscreenenter"",""0"",""7236""
","""event"",""trial"",""time""
""fullscreenexit"",""2"",""10238""
",545.334999998915,<img style='border: 4px solid darkgrey;' src='img/tf1_52_M_ss3.jpeg'></img>,0,NA,exp,NA,2,<img src='img/tf1_52_T1_ss3_md.jpeg'></img>,0,FALSE,NA,sub46
NA,html-keyboard-response,117,559379,0.0-10.0-0.52,"""event"",""trial"",""time""
""fullscreenenter"",""0"",""7236""
""fullscreenexit"",""2"",""10238""
","
","
","""event"",""trial"",""time""
""fullscreenenter"",""0"",""7236""
","""event"",""trial"",""time""
""fullscreenexit"",""2"",""10238""
",null,"<div style=""font-size:60px;"">+</div>",NA,null,fixation,2020-06-23T20:46:46Z,NA,NA,NA,NA,NA,sub46
NA,mars-trial,118,560569,0.0-10.0-1.52,"""event"",""trial"",""time""
""fullscreenenter"",""0"",""7236""
""fullscreenexit"",""2"",""10238""
","
","
","""event"",""trial"",""time""
""fullscreenenter"",""0"",""7236""
","""event"",""trial"",""time""
""fullscreenexit"",""2"",""10238""
",571.9900000003399,<img style='border: 4px solid darkgrey;' src='img/tf1_53_M_ss1.jpeg'></img>,2,NA,exp,NA,1,<img src='img/tf1_53_T1_ss1_md.jpeg'></img>,0,FALSE,NA,sub46
NA,html-keyboard-response,119,561075,0.0-10.0-0.53,"""event"",""trial"",""time""
""fullscreenenter"",""0"",""7236""
""fullscreenexit"",""2"",""10238""
","
","
","""event"",""trial"",""time""
""fullscreenenter"",""0"",""7236""
","""event"",""trial"",""time""
""fullscreenexit"",""2"",""10238""
",null,"<div style=""font-size:60px;"">+</div>",NA,null,fixation,2020-06-23T20:46:47Z,NA,NA,NA,NA,NA,sub46
NA,mars-trial,120,562121,0.0-10.0-1.53,"""event"",""trial"",""time""
""fullscreenenter"",""0"",""7236""
""fullscreenexit"",""2"",""10238""
","
","
","""event"",""trial"",""time""
""fullscreenenter"",""0"",""7236""
","""event"",""trial"",""time""
""fullscreenexit"",""2"",""10238""
",426.3749999990687,<img style='border: 4px solid darkgrey;' src='img/tf1_54_M_ss2.jpeg'></img>,2,NA,exp,NA,0,<img src='img/tf1_54_T1_ss2_md.jpeg'></img>,0,TRUE,NA,sub46
NA,html-keyboard-response,121,562626,0.0-10.0-0.54,"""event"",""trial"",""time""
""fullscreenenter"",""0"",""7236""
""fullscreenexit"",""2"",""10238""
","
","
","""event"",""trial"",""time""
""fullscreenenter"",""0"",""7236""
","""event"",""trial"",""time""
""fullscreenexit"",""2"",""10238""
",null,"<div style=""font-size:60px;"">+</div>",NA,null,fixation,2020-06-23T20:46:49Z,NA,NA,NA,NA,NA,sub46
NA,mars-trial,122,563796,0.0-10.0-1.54,"""event"",""trial"",""time""
""fullscreenenter"",""0"",""7236""
""fullscreenexit"",""2"",""10238""
","
","
","""event"",""trial"",""time""
""fullscreenenter"",""0"",""7236""
","""event"",""trial"",""time""
""fullscreenexit"",""2"",""10238""
",552.5149999994319,<img style='border: 4px solid darkgrey;' src='img/tf1_55_M_ss3.jpeg'></img>,1,NA,exp,NA,2,<img src='img/tf1_55_T1_ss3_md.jpeg'></img>,0,FALSE,NA,sub46
NA,html-keyboard-response,123,564301,0.0-10.0-0.55,"""event"",""trial"",""time""
""fullscreenenter"",""0"",""7236""
""fullscreenexit"",""2"",""10238""
","
","
","""event"",""trial"",""time""
""fullscreenenter"",""0"",""7236""
","""event"",""trial"",""time""
""fullscreenexit"",""2"",""10238""
",null,"<div style=""font-size:60px;"">+</div>",NA,null,fixation,2020-06-23T20:46:51Z,NA,NA,NA,NA,NA,sub46
NA,mars-trial,124,565931,0.0-10.0-1.55,"""event"",""trial"",""time""
""fullscreenenter"",""0"",""7236""
""fullscreenexit"",""2"",""10238""
","
","
","""event"",""trial"",""time""
""fullscreenenter"",""0"",""7236""
","""event"",""trial"",""time""
""fullscreenexit"",""2"",""10238""
",1009.2050000003073,<img style='border: 4px solid darkgrey;' src='img/tf1_56_M_ss1.jpeg'></img>,2,NA,exp,NA,2,<img src='img/tf1_56_T1_ss1_md.jpeg'></img>,0,FALSE,NA,sub46
NA,html-keyboard-response,125,566437,0.0-10.0-0.56,"""event"",""trial"",""time""
""fullscreenenter"",""0"",""7236""
""fullscreenexit"",""2"",""10238""
","
","
","""event"",""trial"",""time""
""fullscreenenter"",""0"",""7236""
","""event"",""trial"",""time""
""fullscreenexit"",""2"",""10238""
",null,"<div style=""font-size:60px;"">+</div>",NA,null,fixation,2020-06-23T20:46:53Z,NA,NA,NA,NA,NA,sub46
NA,mars-trial,126,568620,0.0-10.0-1.56,"""event"",""trial"",""time""
""fullscreenenter"",""0"",""7236""
""fullscreenexit"",""2"",""10238""
","
","
","""event"",""trial"",""time""
""fullscreenenter"",""0"",""7236""
","""event"",""trial"",""time""
""fullscreenexit"",""2"",""10238""
",1569.664999999106,<img style='border: 4px solid darkgrey;' src='img/tf1_57_M_ss2.jpeg'></img>,3,NA,exp,NA,3,<img src='img/tf1_57_T1_ss2_md.jpeg'></img>,0,FALSE,NA,sub46
NA,html-keyboard-response,127,569125,0.0-10.0-0.57,"""event"",""trial"",""time""
""fullscreenenter"",""0"",""7236""
""fullscreenexit"",""2"",""10238""
","
","
","""event"",""trial"",""time""
""fullscreenenter"",""0"",""7236""
","""event"",""trial"",""time""
""fullscreenexit"",""2"",""10238""
",null,"<div style=""font-size:60px;"">+</div>",NA,null,fixation,2020-06-23T20:46:55Z,NA,NA,NA,NA,NA,sub46
NA,mars-trial,128,570901,0.0-10.0-1.57,"""event"",""trial"",""time""
""fullscreenenter"",""0"",""7236""
""fullscreenexit"",""2"",""10238""
","
","
","""event"",""trial"",""time""
""fullscreenenter"",""0"",""7236""
","""event"",""trial"",""time""
""fullscreenexit"",""2"",""10238""
",1160.735000001383,<img style='border: 4px solid darkgrey;' src='img/tf1_58_M_ss3.jpeg'></img>,0,NA,exp,NA,3,<img src='img/tf1_58_T1_ss3_md.jpeg'></img>,0,FALSE,NA,sub46
NA,html-keyboard-response,129,571405,0.0-10.0-0.58,"""event"",""trial"",""time""
""fullscreenenter"",""0"",""7236""
""fullscreenexit"",""2"",""10238""
","
","
","""event"",""trial"",""time""
""fullscreenenter"",""0"",""7236""
","""event"",""trial"",""time""
""fullscreenexit"",""2"",""10238""
",null,"<div style=""font-size:60px;"">+</div>",NA,null,fixation,2020-06-23T20:46:58Z,NA,NA,NA,NA,NA,sub46
NA,mars-trial,130,573464,0.0-10.0-1.58,"""event"",""trial"",""time""
""fullscreenenter"",""0"",""7236""
""fullscreenexit"",""2"",""10238""
","
","
","""event"",""trial"",""time""
""fullscreenenter"",""0"",""7236""
","""event"",""trial"",""time""
""fullscreenexit"",""2"",""10238""
",1441.010000000475,<img style='border: 4px solid darkgrey;' src='img/tf1_59_M_ss1.jpeg'></img>,1,NA,exp,NA,2,<img src='img/tf1_59_T1_ss1_md.jpeg'></img>,0,FALSE,NA,sub46
NA,html-keyboard-response,131,573969,0.0-10.0-0.59,"""event"",""trial"",""time""
""fullscreenenter"",""0"",""7236""
""fullscreenexit"",""2"",""10238""
","
","
","""event"",""trial"",""time""
""fullscreenenter"",""0"",""7236""
","""event"",""trial"",""time""
""fullscreenexit"",""2"",""10238""
",null,"<div style=""font-size:60px;"">+</div>",NA,null,fixation,2020-06-23T20:47:00Z,NA,NA,NA,NA,NA,sub46
NA,mars-trial,132,575716,0.0-10.0-1.59,"""event"",""trial"",""time""
""fullscreenenter"",""0"",""7236""
""fullscreenexit"",""2"",""10238""
","
","
","""event"",""trial"",""time""
""fullscreenenter"",""0"",""7236""
","""event"",""trial"",""time""
""fullscreenexit"",""2"",""10238""
",1131.9249999996973,<img style='border: 4px solid darkgrey;' src='img/tf1_60_M_ss2.jpeg'></img>,2,NA,exp,NA,1,<img src='img/tf1_60_T1_ss2_md.jpeg'></img>,0,FALSE,NA,sub46
NA,html-keyboard-response,133,576222,0.0-10.0-0.60,"""event"",""trial"",""time""
""fullscreenenter"",""0"",""7236""
""fullscreenexit"",""2"",""10238""
","
","
","""event"",""trial"",""time""
""fullscreenenter"",""0"",""7236""
","""event"",""trial"",""time""
""fullscreenexit"",""2"",""10238""
",null,"<div style=""font-size:60px;"">+</div>",NA,null,fixation,2020-06-23T20:47:02Z,NA,NA,NA,NA,NA,sub46
NA,mars-trial,134,580045,0.0-10.0-1.60,"""event"",""trial"",""time""
""fullscreenenter"",""0"",""7236""
""fullscreenexit"",""2"",""10238""
","
","
","""event"",""trial"",""time""
""fullscreenenter"",""0"",""7236""
","""event"",""trial"",""time""
""fullscreenexit"",""2"",""10238""
",3208.3650000004563,<img style='border: 4px solid darkgrey;' src='img/tf1_61_M_ss3.jpeg'></img>,1,NA,exp,NA,3,<img src='img/tf1_61_T1_ss3_md.jpeg'></img>,0,FALSE,NA,sub46
NA,html-keyboard-response,135,580556,0.0-10.0-0.61,"""event"",""trial"",""time""
""fullscreenenter"",""0"",""7236""
""fullscreenexit"",""2"",""10238""
","
","
","""event"",""trial"",""time""
""fullscreenenter"",""0"",""7236""
","""event"",""trial"",""time""
""fullscreenexit"",""2"",""10238""
",null,"<div style=""font-size:60px;"">+</div>",NA,null,fixation,2020-06-23T20:47:07Z,NA,NA,NA,NA,NA,sub46
NA,mars-trial,136,585237,0.0-10.0-1.61,"""event"",""trial"",""time""
""fullscreenenter"",""0"",""7236""
""fullscreenexit"",""2"",""10238""
","
","
","""event"",""trial"",""time""
""fullscreenenter"",""0"",""7236""
","""event"",""trial"",""time""
""fullscreenexit"",""2"",""10238""
",4063.9950000003446,<img style='border: 4px solid darkgrey;' src='img/tf1_62_M_ss1.jpeg'></img>,0,NA,exp,NA,2,<img src='img/tf1_62_T1_ss1_md.jpeg'></img>,0,FALSE,NA,sub46
NA,html-keyboard-response,137,585745,0.0-10.0-0.62,"""event"",""trial"",""time""
""fullscreenenter"",""0"",""7236""
""fullscreenexit"",""2"",""10238""
","
","
","""event"",""trial"",""time""
""fullscreenenter"",""0"",""7236""
","""event"",""trial"",""time""
""fullscreenexit"",""2"",""10238""
",null,"<div style=""font-size:60px;"">+</div>",NA,null,fixation,2020-06-23T20:47:12Z,NA,NA,NA,NA,NA,sub46
NA,mars-trial,138,587673,0.0-10.0-1.62,"""event"",""trial"",""time""
""fullscreenenter"",""0"",""7236""
""fullscreenexit"",""2"",""10238""
","
","
","""event"",""trial"",""time""
""fullscreenenter"",""0"",""7236""
","""event"",""trial"",""time""
""fullscreenexit"",""2"",""10238""
",1317.2799999993294,<img style='border: 4px solid darkgrey;' src='img/tf1_63_M_ss2.jpeg'></img>,3,NA,exp,NA,3,<img src='img/tf1_63_T1_ss2_md.jpeg'></img>,0,FALSE,NA,sub46
NA,html-keyboard-response,139,588177,0.0-10.0-0.63,"""event"",""trial"",""time""
""fullscreenenter"",""0"",""7236""
""fullscreenexit"",""2"",""10238""
","
","
","""event"",""trial"",""time""
""fullscreenenter"",""0"",""7236""
","""event"",""trial"",""time""
""fullscreenexit"",""2"",""10238""
",null,"<div style=""font-size:60px;"">+</div>",NA,null,fixation,2020-06-23T20:47:14Z,NA,NA,NA,NA,NA,sub46
NA,mars-trial,140,590315,0.0-10.0-1.63,"""event"",""trial"",""time""
""fullscreenenter"",""0"",""7236""
""fullscreenexit"",""2"",""10238""
","
","
","""event"",""trial"",""time""
""fullscreenenter"",""0"",""7236""
","""event"",""trial"",""time""
""fullscreenexit"",""2"",""10238""
",1525.965000000666,<img style='border: 4px solid darkgrey;' src='img/tf1_64_M_ss3.jpeg'></img>,2,NA,exp,NA,2,<img src='img/tf1_64_T1_ss3_md.jpeg'></img>,0,FALSE,NA,sub46
NA,html-keyboard-response,141,590822,0.0-10.0-0.64,"""event"",""trial"",""time""
""fullscreenenter"",""0"",""7236""
""fullscreenexit"",""2"",""10238""
","
","
","""event"",""trial"",""time""
""fullscreenenter"",""0"",""7236""
","""event"",""trial"",""time""
""fullscreenexit"",""2"",""10238""
",null,"<div style=""font-size:60px;"">+</div>",NA,null,fixation,2020-06-23T20:47:17Z,NA,NA,NA,NA,NA,sub46
NA,mars-trial,142,594822,0.0-10.0-1.64,"""event"",""trial"",""time""
""fullscreenenter"",""0"",""7236""
""fullscreenexit"",""2"",""10238""
","
","
","""event"",""trial"",""time""
""fullscreenenter"",""0"",""7236""
","""event"",""trial"",""time""
""fullscreenexit"",""2"",""10238""
",3385.69500000088,<img style='border: 4px solid darkgrey;' src='img/tf1_65_M_ss1.jpeg'></img>,1,NA,exp,NA,0,<img src='img/tf1_65_T1_ss1_md.jpeg'></img>,0,TRUE,NA,sub46
NA,html-keyboard-response,143,595327,0.0-10.0-0.65,"""event"",""trial"",""time""
""fullscreenenter"",""0"",""7236""
""fullscreenexit"",""2"",""10238""
","
","
","""event"",""trial"",""time""
""fullscreenenter"",""0"",""7236""
","""event"",""trial"",""time""
""fullscreenexit"",""2"",""10238""
",null,"<div style=""font-size:60px;"">+</div>",NA,null,fixation,2020-06-23T20:47:22Z,NA,NA,NA,NA,NA,sub46
NA,mars-trial,144,597261,0.0-10.0-1.65,"""event"",""trial"",""time""
""fullscreenenter"",""0"",""7236""
""fullscreenexit"",""2"",""10238""
","
","
","""event"",""trial"",""time""
""fullscreenenter"",""0"",""7236""
","""event"",""trial"",""time""
""fullscreenexit"",""2"",""10238""
",1312.954999999376,<img style='border: 4px solid darkgrey;' src='img/tf1_66_M_ss2.jpeg'></img>,2,NA,exp,NA,1,<img src='img/tf1_66_T1_ss2_md.jpeg'></img>,0,FALSE,NA,sub46
NA,html-keyboard-response,145,597769,0.0-10.0-0.66,"""event"",""trial"",""time""
""fullscreenenter"",""0"",""7236""
""fullscreenexit"",""2"",""10238""
","
","
","""event"",""trial"",""time""
""fullscreenenter"",""0"",""7236""
","""event"",""trial"",""time""
""fullscreenexit"",""2"",""10238""
",null,"<div style=""font-size:60px;"">+</div>",NA,null,fixation,2020-06-23T20:47:24Z,NA,NA,NA,NA,NA,sub46
NA,mars-trial,146,599543,0.0-10.0-1.66,"""event"",""trial"",""time""
""fullscreenenter"",""0"",""7236""
""fullscreenexit"",""2"",""10238""
","
","
","""event"",""trial"",""time""
""fullscreenenter"",""0"",""7236""
","""event"",""trial"",""time""
""fullscreenexit"",""2"",""10238""
",1158.1000000005588,<img style='border: 4px solid darkgrey;' src='img/tf1_67_M_ss3.jpeg'></img>,1,NA,exp,NA,0,<img src='img/tf1_67_T1_ss3_md.jpeg'></img>,0,TRUE,NA,sub46
NA,html-keyboard-response,147,600049,0.0-10.0-0.67,"""event"",""trial"",""time""
""fullscreenenter"",""0"",""7236""
""fullscreenexit"",""2"",""10238""
","
","
","""event"",""trial"",""time""
""fullscreenenter"",""0"",""7236""
","""event"",""trial"",""time""
""fullscreenexit"",""2"",""10238""
",null,"<div style=""font-size:60px;"">+</div>",NA,null,fixation,2020-06-23T20:47:26Z,NA,NA,NA,NA,NA,sub46
NA,mars-trial,148,603408,0.0-10.0-1.67,"""event"",""trial"",""time""
""fullscreenenter"",""0"",""7236""
""fullscreenexit"",""2"",""10238""
","
","
","""event"",""trial"",""time""
""fullscreenenter"",""0"",""7236""
","""event"",""trial"",""time""
""fullscreenexit"",""2"",""10238""
",2740.599999999162,<img style='border: 4px solid darkgrey;' src='img/tf1_68_M_ss1.jpeg'></img>,0,NA,exp,NA,0,<img src='img/tf1_68_T1_ss1_md.jpeg'></img>,0,TRUE,NA,sub46
NA,html-keyboard-response,149,603914,0.0-10.0-0.68,"""event"",""trial"",""time""
""fullscreenenter"",""0"",""7236""
""fullscreenexit"",""2"",""10238""
","
","
","""event"",""trial"",""time""
""fullscreenenter"",""0"",""7236""
","""event"",""trial"",""time""
""fullscreenexit"",""2"",""10238""
",null,"<div style=""font-size:60px;"">+</div>",NA,null,fixation,2020-06-23T20:47:30Z,NA,NA,NA,NA,NA,sub46
NA,mars-trial,150,607462,0.0-10.0-1.68,"""event"",""trial"",""time""
""fullscreenenter"",""0"",""7236""
""fullscreenexit"",""2"",""10238""
","
","
","""event"",""trial"",""time""
""fullscreenenter"",""0"",""7236""
","""event"",""trial"",""time""
""fullscreenexit"",""2"",""10238""
",2926.844999999972,<img style='border: 4px solid darkgrey;' src='img/tf1_69_M_ss2.jpeg'></img>,0,NA,exp,NA,2,<img src='img/tf1_69_T1_ss2_md.jpeg'></img>,0,FALSE,NA,sub46
NA,html-keyboard-response,151,607967,0.0-10.0-0.69,"""event"",""trial"",""time""
""fullscreenenter"",""0"",""7236""
""fullscreenexit"",""2"",""10238""
","
","
","""event"",""trial"",""time""
""fullscreenenter"",""0"",""7236""
","""event"",""trial"",""time""
""fullscreenexit"",""2"",""10238""
",null,"<div style=""font-size:60px;"">+</div>",NA,null,fixation,2020-06-23T20:47:34Z,NA,NA,NA,NA,NA,sub46
NA,mars-trial,152,612892,0.0-10.0-1.69,"""event"",""trial"",""time""
""fullscreenenter"",""0"",""7236""
""fullscreenexit"",""2"",""10238""
","
","
","""event"",""trial"",""time""
""fullscreenenter"",""0"",""7236""
","""event"",""trial"",""time""
""fullscreenexit"",""2"",""10238""
",4307.339999999385,<img style='border: 4px solid darkgrey;' src='img/tf1_70_M_ss3.jpeg'></img>,2,NA,exp,NA,0,<img src='img/tf1_70_T1_ss3_md.jpeg'></img>,0,TRUE,NA,sub46
NA,html-keyboard-response,153,613399,0.0-10.0-0.70,"""event"",""trial"",""time""
""fullscreenenter"",""0"",""7236""
""fullscreenexit"",""2"",""10238""
","
","
","""event"",""trial"",""time""
""fullscreenenter"",""0"",""7236""
","""event"",""trial"",""time""
""fullscreenexit"",""2"",""10238""
",null,"<div style=""font-size:60px;"">+</div>",NA,null,fixation,2020-06-23T20:47:40Z,NA,NA,NA,NA,NA,sub46
NA,mars-trial,154,618942,0.0-10.0-1.70,"""event"",""trial"",""time""
""fullscreenenter"",""0"",""7236""
""fullscreenexit"",""2"",""10238""
","
","
","""event"",""trial"",""time""
""fullscreenenter"",""0"",""7236""
","""event"",""trial"",""time""
""fullscreenexit"",""2"",""10238""
",4919.024999999208,<img style='border: 4px solid darkgrey;' src='img/tf1_71_M_ss1.jpeg'></img>,3,NA,exp,NA,1,<img src='img/tf1_71_T1_ss1_md.jpeg'></img>,0,FALSE,NA,sub46
NA,html-keyboard-response,155,619451,0.0-10.0-0.71,"""event"",""trial"",""time""
""fullscreenenter"",""0"",""7236""
""fullscreenexit"",""2"",""10238""
","
","
","""event"",""trial"",""time""
""fullscreenenter"",""0"",""7236""
","""event"",""trial"",""time""
""fullscreenexit"",""2"",""10238""
",null,"<div style=""font-size:60px;"">+</div>",NA,null,fixation,2020-06-23T20:47:46Z,NA,NA,NA,NA,NA,sub46
NA,mars-trial,156,622764,0.0-10.0-1.71,"""event"",""trial"",""time""
""fullscreenenter"",""0"",""7236""
""fullscreenexit"",""2"",""10238""
","
","
","""event"",""trial"",""time""
""fullscreenenter"",""0"",""7236""
","""event"",""trial"",""time""
""fullscreenexit"",""2"",""10238""
",2697.5849999998463,<img style='border: 4px solid darkgrey;' src='img/tf1_72_M_ss2.jpeg'></img>,0,NA,exp,NA,1,<img src='img/tf1_72_T1_ss2_md.jpeg'></img>,0,FALSE,NA,sub46
NA,html-keyboard-response,157,623269,0.0-10.0-0.72,"""event"",""trial"",""time""
""fullscreenenter"",""0"",""7236""
""fullscreenexit"",""2"",""10238""
","
","
","""event"",""trial"",""time""
""fullscreenenter"",""0"",""7236""
","""event"",""trial"",""time""
""fullscreenexit"",""2"",""10238""
",null,"<div style=""font-size:60px;"">+</div>",NA,null,fixation,2020-06-23T20:47:50Z,NA,NA,NA,NA,NA,sub46
NA,mars-trial,158,625073,0.0-10.0-1.72,"""event"",""trial"",""time""
""fullscreenenter"",""0"",""7236""
""fullscreenexit"",""2"",""10238""
","
","
","""event"",""trial"",""time""
""fullscreenenter"",""0"",""7236""
","""event"",""trial"",""time""
""fullscreenexit"",""2"",""10238""
",1187.3400000003166,<img style='border: 4px solid darkgrey;' src='img/tf1_73_M_ss3.jpeg'></img>,0,NA,exp,NA,1,<img src='img/tf1_73_T1_ss3_md.jpeg'></img>,0,FALSE,NA,sub46
NA,html-keyboard-response,159,625576,0.0-10.0-0.73,"""event"",""trial"",""time""
""fullscreenenter"",""0"",""7236""
""fullscreenexit"",""2"",""10238""
","
","
","""event"",""trial"",""time""
""fullscreenenter"",""0"",""7236""
","""event"",""trial"",""time""
""fullscreenexit"",""2"",""10238""
",null,"<div style=""font-size:60px;"">+</div>",NA,null,fixation,2020-06-23T20:47:52Z,NA,NA,NA,NA,NA,sub46
NA,mars-trial,160,629680,0.0-10.0-1.73,"""event"",""trial"",""time""
""fullscreenenter"",""0"",""7236""
""fullscreenexit"",""2"",""10238""
","
","
","""event"",""trial"",""time""
""fullscreenenter"",""0"",""7236""
","""event"",""trial"",""time""
""fullscreenexit"",""2"",""10238""
",3487.3699999989476,<img style='border: 4px solid darkgrey;' src='img/tf1_74_M_ss1.jpeg'></img>,2,NA,exp,NA,3,<img src='img/tf1_74_T1_ss1_md.jpeg'></img>,0,FALSE,NA,sub46
NA,html-keyboard-response,161,630190,0.0-10.0-0.74,"""event"",""trial"",""time""
""fullscreenenter"",""0"",""7236""
""fullscreenexit"",""2"",""10238""
","
","
","""event"",""trial"",""time""
""fullscreenenter"",""0"",""7236""
","""event"",""trial"",""time""
""fullscreenexit"",""2"",""10238""
",null,"<div style=""font-size:60px;"">+</div>",NA,null,fixation,2020-06-23T20:47:56Z,NA,NA,NA,NA,NA,sub46
NA,mars-trial,162,633381,0.0-10.0-1.74,"""event"",""trial"",""time""
""fullscreenenter"",""0"",""7236""
""fullscreenexit"",""2"",""10238""
","
","
","""event"",""trial"",""time""
""fullscreenenter"",""0"",""7236""
","""event"",""trial"",""time""
""fullscreenexit"",""2"",""10238""
",2569.1599999991013,<img style='border: 4px solid darkgrey;' src='img/tf1_75_M_ss2.jpeg'></img>,3,NA,exp,NA,1,<img src='img/tf1_75_T1_ss2_md.jpeg'></img>,0,FALSE,NA,sub46
NA,html-keyboard-response,163,633886,0.0-10.0-0.75,"""event"",""trial"",""time""
""fullscreenenter"",""0"",""7236""
""fullscreenexit"",""2"",""10238""
","
","
","""event"",""trial"",""time""
""fullscreenenter"",""0"",""7236""
","""event"",""trial"",""time""
""fullscreenexit"",""2"",""10238""
",null,"<div style=""font-size:60px;"">+</div>",NA,null,fixation,2020-06-23T20:48:00Z,NA,NA,NA,NA,NA,sub46
NA,mars-trial,164,635733,0.0-10.0-1.75,"""event"",""trial"",""time""
""fullscreenenter"",""0"",""7236""
""fullscreenexit"",""2"",""10238""
","
","
","""event"",""trial"",""time""
""fullscreenenter"",""0"",""7236""
","""event"",""trial"",""time""
""fullscreenexit"",""2"",""10238""
",1231.280000000028,<img style='border: 4px solid darkgrey;' src='img/tf1_76_M_ss3.jpeg'></img>,1,NA,exp,NA,2,<img src='img/tf1_76_T1_ss3_md.jpeg'></img>,0,FALSE,NA,sub46
NA,html-keyboard-response,165,636240,0.0-10.0-0.76,"""event"",""trial"",""time""
""fullscreenenter"",""0"",""7236""
""fullscreenexit"",""2"",""10238""
","
","
","""event"",""trial"",""time""
""fullscreenenter"",""0"",""7236""
","""event"",""trial"",""time""
""fullscreenexit"",""2"",""10238""
",null,"<div style=""font-size:60px;"">+</div>",NA,null,fixation,2020-06-23T20:48:03Z,NA,NA,NA,NA,NA,sub46
NA,mars-trial,166,638662,0.0-10.0-1.76,"""event"",""trial"",""time""
""fullscreenenter"",""0"",""7236""
""fullscreenexit"",""2"",""10238""
","
","
","""event"",""trial"",""time""
""fullscreenenter"",""0"",""7236""
","""event"",""trial"",""time""
""fullscreenexit"",""2"",""10238""
",1801.9649999988033,<img style='border: 4px solid darkgrey;' src='img/tf1_77_M_ss1.jpeg'></img>,0,NA,exp,NA,2,<img src='img/tf1_77_T1_ss1_md.jpeg'></img>,0,FALSE,NA,sub46
NA,html-keyboard-response,167,639165,0.0-10.0-0.77,"""event"",""trial"",""time""
""fullscreenenter"",""0"",""7236""
""fullscreenexit"",""2"",""10238""
","
","
","""event"",""trial"",""time""
""fullscreenenter"",""0"",""7236""
","""event"",""trial"",""time""
""fullscreenexit"",""2"",""10238""
",null,"<div style=""font-size:60px;"">+</div>",NA,null,fixation,2020-06-23T20:48:05Z,NA,NA,NA,NA,NA,sub46
NA,mars-trial,168,641652,0.0-10.0-1.77,"""event"",""trial"",""time""
""fullscreenenter"",""0"",""7236""
""fullscreenexit"",""2"",""10238""
","
","
","""event"",""trial"",""time""
""fullscreenenter"",""0"",""7236""
","""event"",""trial"",""time""
""fullscreenexit"",""2"",""10238""
",1867.2850000002654,<img style='border: 4px solid darkgrey;' src='img/tf1_78_M_ss2.jpeg'></img>,2,NA,exp,NA,3,<img src='img/tf1_78_T1_ss2_md.jpeg'></img>,0,FALSE,NA,sub46
NA,html-keyboard-response,169,642160,0.0-10.0-0.78,"""event"",""trial"",""time""
""fullscreenenter"",""0"",""7236""
""fullscreenexit"",""2"",""10238""
","
","
","""event"",""trial"",""time""
""fullscreenenter"",""0"",""7236""
","""event"",""trial"",""time""
""fullscreenexit"",""2"",""10238""
",null,"<div style=""font-size:60px;"">+</div>",NA,null,fixation,2020-06-23T20:48:08Z,NA,NA,NA,NA,NA,sub46
NA,mars-trial,170,645333,0.0-10.0-1.78,"""event"",""trial"",""time""
""fullscreenenter"",""0"",""7236""
""fullscreenexit"",""2"",""10238""
","
","
","""event"",""trial"",""time""
""fullscreenenter"",""0"",""7236""
","""event"",""trial"",""time""
""fullscreenexit"",""2"",""10238""
",2554.4499999997206,<img style='border: 4px solid darkgrey;' src='img/tf1_79_M_ss3.jpeg'></img>,3,NA,exp,NA,0,<img src='img/tf1_79_T1_ss3_md.jpeg'></img>,0,TRUE,NA,sub46
NA,html-keyboard-response,171,645840,0.0-10.0-0.79,"""event"",""trial"",""time""
""fullscreenenter"",""0"",""7236""
""fullscreenexit"",""2"",""10238""
","
","
","""event"",""trial"",""time""
""fullscreenenter"",""0"",""7236""
","""event"",""trial"",""time""
""fullscreenexit"",""2"",""10238""
",null,"<div style=""font-size:60px;"">+</div>",NA,null,fixation,2020-06-23T20:48:12Z,NA,NA,NA,NA,NA,sub46
NA,mars-trial,172,654979,0.0-10.0-1.79,"""event"",""trial"",""time""
""fullscreenenter"",""0"",""7236""
""fullscreenexit"",""2"",""10238""
","
","
","""event"",""trial"",""time""
""fullscreenenter"",""0"",""7236""
","""event"",""trial"",""time""
""fullscreenexit"",""2"",""10238""
",8522.900000000023,<img style='border: 4px solid darkgrey;' src='img/tf1_80_M_ss1.jpeg'></img>,1,NA,exp,NA,2,<img src='img/tf1_80_T1_ss1_md.jpeg'></img>,0,FALSE,NA,sub46
NA,audio-button-response,173,658528,0.0-11.0,"""event"",""trial"",""time""
""fullscreenenter"",""0"",""7236""
""fullscreenexit"",""2"",""10238""
","
","
","""event"",""trial"",""time""
""fullscreenenter"",""0"",""7236""
","""event"",""trial"",""time""
""fullscreenexit"",""2"",""10238""
",3540.735000000568,audio/mars_instructions_slide5.wav,0,NA,NA,NA,NA,NA,NA,NA,NA,sub46
