success,trial_type,trial_index,time_elapsed,internal_node_id,interactions,blur_events,focus_events,fullscreenenter_events,fullscreenexit_events,rt,stimulus,button_pressed,key_press,part,timestamp,unshuffled_button,correct_response,correct_button,correct,value,subject_id
TRUE,fullscreen,0,12149,0.0-0.0,"""event"",""trial"",""time""
""focus"",""0"",""6831""
""fullscreenenter"",""0"",""11179""
","
","""event"",""trial"",""time""
""focus"",""0"",""6831""
","""event"",""trial"",""time""
""fullscreenenter"",""0"",""11179""
","
",NA,NA,NA,NA,NA,NA,NA,NA,NA,NA,NA,sub82
NA,pavlovia,1,12152,0.0-1.0,"""event"",""trial"",""time""
""focus"",""0"",""6831""
""fullscreenenter"",""0"",""11179""
","
","""event"",""trial"",""time""
""focus"",""0"",""6831""
","""event"",""trial"",""time""
""fullscreenenter"",""0"",""11179""
","
",NA,NA,NA,NA,NA,NA,NA,NA,NA,NA,NA,sub82
NA,html-button-response,2,13631,0.0-2.0,"""event"",""trial"",""time""
""focus"",""0"",""6831""
""fullscreenenter"",""0"",""11179""
","
","""event"",""trial"",""time""
""focus"",""0"",""6831""
","""event"",""trial"",""time""
""fullscreenenter"",""0"",""11179""
","
",1476,<p>Welcome! Press START to begin.</p><br>,0,NA,NA,NA,NA,NA,NA,NA,NA,sub82
NA,audio-button-response,3,28466,0.0-3.0,"""event"",""trial"",""time""
""focus"",""0"",""6831""
""fullscreenenter"",""0"",""11179""
","
","""event"",""trial"",""time""
""focus"",""0"",""6831""
","""event"",""trial"",""time""
""fullscreenenter"",""0"",""11179""
","
",14827,audio/mars_instructions_slide2.wav,0,NA,NA,NA,NA,NA,NA,NA,NA,sub82
NA,audio-button-response,4,44595,0.0-4.0,"""event"",""trial"",""time""
""focus"",""0"",""6831""
""fullscreenenter"",""0"",""11179""
","
","""event"",""trial"",""time""
""focus"",""0"",""6831""
","""event"",""trial"",""time""
""fullscreenenter"",""0"",""11179""
","
",16127.999999999996,audio/mars_instructions_slide3.wav,0,NA,NA,NA,NA,NA,NA,NA,NA,sub82
NA,html-keyboard-response,5,45097,0.0-5.0-0.0,"""event"",""trial"",""time""
""focus"",""0"",""6831""
""fullscreenenter"",""0"",""11179""
","
","""event"",""trial"",""time""
""focus"",""0"",""6831""
","""event"",""trial"",""time""
""fullscreenenter"",""0"",""11179""
","
",null,"<div style=""font-size:60px;"">+</div>",NA,null,fixation,2020-06-16T18:16:01Z,NA,NA,NA,NA,NA,sub82
NA,mars-trial,6,58351,0.0-5.0-1.0,"""event"",""trial"",""time""
""focus"",""0"",""6831""
""fullscreenenter"",""0"",""11179""
","
","""event"",""trial"",""time""
""focus"",""0"",""6831""
","""event"",""trial"",""time""
""fullscreenenter"",""0"",""11179""
","
",11148,<img style='border: 4px solid darkgrey;' src='practice/pt1_M1.png'></img>,2,NA,practice,NA,0,<img src='practice/pt1_T1.png'></img>,0,TRUE,NA,sub82
NA,html-keyboard-response,7,58853,0.0-6.0-0.0,"""event"",""trial"",""time""
""focus"",""0"",""6831""
""fullscreenenter"",""0"",""11179""
","
","""event"",""trial"",""time""
""focus"",""0"",""6831""
","""event"",""trial"",""time""
""fullscreenenter"",""0"",""11179""
","
",null,"<div style=""font-size:60px;"">+</div>",NA,null,fixation,2020-06-16T18:16:14Z,NA,NA,NA,NA,NA,sub82
NA,mars-trial,8,63631,0.0-6.0-1.0,"""event"",""trial"",""time""
""focus"",""0"",""6831""
""fullscreenenter"",""0"",""11179""
","
","""event"",""trial"",""time""
""focus"",""0"",""6831""
","""event"",""trial"",""time""
""fullscreenenter"",""0"",""11179""
","
",2675,<img style='border: 4px solid darkgrey;' src='practice/pt2_M1.png'></img>,1,NA,practice,NA,0,<img src='practice/pt2_T1.png'></img>,0,TRUE,NA,sub82
NA,html-keyboard-response,9,64133,0.0-7.0-0.0,"""event"",""trial"",""time""
""focus"",""0"",""6831""
""fullscreenenter"",""0"",""11179""
","
","""event"",""trial"",""time""
""focus"",""0"",""6831""
","""event"",""trial"",""time""
""fullscreenenter"",""0"",""11179""
","
",null,"<div style=""font-size:60px;"">+</div>",NA,null,fixation,2020-06-16T18:16:20Z,NA,NA,NA,NA,NA,sub82
NA,mars-trial,10,67839,0.0-7.0-1.0,"""event"",""trial"",""time""
""focus"",""0"",""6831""
""fullscreenenter"",""0"",""11179""
","
","""event"",""trial"",""time""
""focus"",""0"",""6831""
","""event"",""trial"",""time""
""fullscreenenter"",""0"",""11179""
","
",1600.9999999999927,<img style='border: 4px solid darkgrey;' src='practice/pt3_M1.png'></img>,2,NA,practice,NA,0,<img src='practice/pt3_T1.png'></img>,0,TRUE,NA,sub82
NA,audio-button-response,11,72842,0.0-8.0,"""event"",""trial"",""time""
""focus"",""0"",""6831""
""fullscreenenter"",""0"",""11179""
","
","""event"",""trial"",""time""
""focus"",""0"",""6831""
","""event"",""trial"",""time""
""fullscreenenter"",""0"",""11179""
","
",5001,audio/mars_instructions_slide4.wav,0,NA,NA,NA,NA,NA,NA,NA,NA,sub82
NA,call-function,12,72842,0.0-9.0,"""event"",""trial"",""time""
""focus"",""0"",""6831""
""fullscreenenter"",""0"",""11179""
","
","""event"",""trial"",""time""
""focus"",""0"",""6831""
","""event"",""trial"",""time""
""fullscreenenter"",""0"",""11179""
","
",NA,NA,NA,NA,NA,NA,NA,NA,NA,NA,NA,sub82
NA,html-keyboard-response,13,73343,0.0-10.0-0.0,"""event"",""trial"",""time""
""focus"",""0"",""6831""
""fullscreenenter"",""0"",""11179""
","
","""event"",""trial"",""time""
""focus"",""0"",""6831""
","""event"",""trial"",""time""
""fullscreenenter"",""0"",""11179""
","
",null,"<div style=""font-size:60px;"">+</div>",NA,null,fixation,2020-06-16T18:16:29Z,NA,NA,NA,NA,NA,sub82
NA,mars-trial,14,75877,0.0-10.0-1.0,"""event"",""trial"",""time""
""focus"",""0"",""6831""
""fullscreenenter"",""0"",""11179""
","
","""event"",""trial"",""time""
""focus"",""0"",""6831""
","""event"",""trial"",""time""
""fullscreenenter"",""0"",""11179""
","
",1931,<img style='border: 4px solid darkgrey;' src='img/tf1_1_M_ss3.jpeg'></img>,2,NA,exp,NA,0,<img src='img/tf1_1_T1_ss3_md.jpeg'></img>,0,TRUE,NA,sub82
NA,html-keyboard-response,15,76378,0.0-10.0-0.1,"""event"",""trial"",""time""
""focus"",""0"",""6831""
""fullscreenenter"",""0"",""11179""
","
","""event"",""trial"",""time""
""focus"",""0"",""6831""
","""event"",""trial"",""time""
""fullscreenenter"",""0"",""11179""
","
",null,"<div style=""font-size:60px;"">+</div>",NA,null,fixation,2020-06-16T18:16:32Z,NA,NA,NA,NA,NA,sub82
NA,mars-trial,16,79101,0.0-10.0-1.1,"""event"",""trial"",""time""
""focus"",""0"",""6831""
""fullscreenenter"",""0"",""11179""
","
","""event"",""trial"",""time""
""focus"",""0"",""6831""
","""event"",""trial"",""time""
""fullscreenenter"",""0"",""11179""
","
",2119,<img style='border: 4px solid darkgrey;' src='img/tf1_2_M_ss1.jpeg'></img>,2,NA,exp,NA,0,<img src='img/tf1_2_T1_ss1_md.jpeg'></img>,0,TRUE,NA,sub82
NA,html-keyboard-response,17,79604,0.0-10.0-0.2,"""event"",""trial"",""time""
""focus"",""0"",""6831""
""fullscreenenter"",""0"",""11179""
","
","""event"",""trial"",""time""
""focus"",""0"",""6831""
","""event"",""trial"",""time""
""fullscreenenter"",""0"",""11179""
","
",null,"<div style=""font-size:60px;"">+</div>",NA,null,fixation,2020-06-16T18:16:35Z,NA,NA,NA,NA,NA,sub82
NA,mars-trial,18,82765,0.0-10.0-1.2,"""event"",""trial"",""time""
""focus"",""0"",""6831""
""fullscreenenter"",""0"",""11179""
","
","""event"",""trial"",""time""
""focus"",""0"",""6831""
","""event"",""trial"",""time""
""fullscreenenter"",""0"",""11179""
","
",2559,<img style='border: 4px solid darkgrey;' src='img/tf1_3_M_ss2.jpeg'></img>,3,NA,exp,NA,0,<img src='img/tf1_3_T1_ss2_md.jpeg'></img>,0,TRUE,NA,sub82
NA,html-keyboard-response,19,83267,0.0-10.0-0.3,"""event"",""trial"",""time""
""focus"",""0"",""6831""
""fullscreenenter"",""0"",""11179""
","
","""event"",""trial"",""time""
""focus"",""0"",""6831""
","""event"",""trial"",""time""
""fullscreenenter"",""0"",""11179""
","
",null,"<div style=""font-size:60px;"">+</div>",NA,null,fixation,2020-06-16T18:16:39Z,NA,NA,NA,NA,NA,sub82
NA,mars-trial,20,88039,0.0-10.0-1.3,"""event"",""trial"",""time""
""focus"",""0"",""6831""
""fullscreenenter"",""0"",""11179""
","
","""event"",""trial"",""time""
""focus"",""0"",""6831""
","""event"",""trial"",""time""
""fullscreenenter"",""0"",""11179""
","
",4169.000000000015,<img style='border: 4px solid darkgrey;' src='img/tf1_4_M_ss3.jpeg'></img>,0,NA,exp,NA,0,<img src='img/tf1_4_T1_ss3_md.jpeg'></img>,0,TRUE,NA,sub82
NA,html-keyboard-response,21,88541,0.0-10.0-0.4,"""event"",""trial"",""time""
""focus"",""0"",""6831""
""fullscreenenter"",""0"",""11179""
","
","""event"",""trial"",""time""
""focus"",""0"",""6831""
","""event"",""trial"",""time""
""fullscreenenter"",""0"",""11179""
","
",null,"<div style=""font-size:60px;"">+</div>",NA,null,fixation,2020-06-16T18:16:44Z,NA,NA,NA,NA,NA,sub82
NA,mars-trial,22,90930,0.0-10.0-1.4,"""event"",""trial"",""time""
""focus"",""0"",""6831""
""fullscreenenter"",""0"",""11179""
","
","""event"",""trial"",""time""
""focus"",""0"",""6831""
","""event"",""trial"",""time""
""fullscreenenter"",""0"",""11179""
","
",1785,<img style='border: 4px solid darkgrey;' src='img/tf1_5_M_ss1.jpeg'></img>,1,NA,exp,NA,0,<img src='img/tf1_5_T1_ss1_md.jpeg'></img>,0,TRUE,NA,sub82
NA,html-keyboard-response,23,91430,0.0-10.0-0.5,"""event"",""trial"",""time""
""focus"",""0"",""6831""
""fullscreenenter"",""0"",""11179""
","
","""event"",""trial"",""time""
""focus"",""0"",""6831""
","""event"",""trial"",""time""
""fullscreenenter"",""0"",""11179""
","
",null,"<div style=""font-size:60px;"">+</div>",NA,null,fixation,2020-06-16T18:16:47Z,NA,NA,NA,NA,NA,sub82
NA,mars-trial,24,101608,0.0-10.0-1.5,"""event"",""trial"",""time""
""focus"",""0"",""6831""
""fullscreenenter"",""0"",""11179""
","
","""event"",""trial"",""time""
""focus"",""0"",""6831""
","""event"",""trial"",""time""
""fullscreenenter"",""0"",""11179""
","
",9574,<img style='border: 4px solid darkgrey;' src='img/tf1_6_M_ss2.jpeg'></img>,2,NA,exp,NA,3,<img src='img/tf1_6_T1_ss2_md.jpeg'></img>,0,FALSE,NA,sub82
NA,html-keyboard-response,25,102109,0.0-10.0-0.6,"""event"",""trial"",""time""
""focus"",""0"",""6831""
""fullscreenenter"",""0"",""11179""
","
","""event"",""trial"",""time""
""focus"",""0"",""6831""
","""event"",""trial"",""time""
""fullscreenenter"",""0"",""11179""
","
",null,"<div style=""font-size:60px;"">+</div>",NA,null,fixation,2020-06-16T18:16:58Z,NA,NA,NA,NA,NA,sub82
NA,mars-trial,26,109518,0.0-10.0-1.6,"""event"",""trial"",""time""
""focus"",""0"",""6831""
""fullscreenenter"",""0"",""11179""
","
","""event"",""trial"",""time""
""focus"",""0"",""6831""
","""event"",""trial"",""time""
""fullscreenenter"",""0"",""11179""
","
",6805,<img style='border: 4px solid darkgrey;' src='img/tf1_7_M_ss3.jpeg'></img>,3,NA,exp,NA,0,<img src='img/tf1_7_T1_ss3_md.jpeg'></img>,0,TRUE,NA,sub82
NA,html-keyboard-response,27,110020,0.0-10.0-0.7,"""event"",""trial"",""time""
""focus"",""0"",""6831""
""fullscreenenter"",""0"",""11179""
","
","""event"",""trial"",""time""
""focus"",""0"",""6831""
","""event"",""trial"",""time""
""fullscreenenter"",""0"",""11179""
","
",null,"<div style=""font-size:60px;"">+</div>",NA,null,fixation,2020-06-16T18:17:06Z,NA,NA,NA,NA,NA,sub82
NA,mars-trial,28,122121,0.0-10.0-1.7,"""event"",""trial"",""time""
""focus"",""0"",""6831""
""fullscreenenter"",""0"",""11179""
","
","""event"",""trial"",""time""
""focus"",""0"",""6831""
","""event"",""trial"",""time""
""fullscreenenter"",""0"",""11179""
","
",11496,<img style='border: 4px solid darkgrey;' src='img/tf1_8_M_ss1.jpeg'></img>,2,NA,exp,NA,0,<img src='img/tf1_8_T1_ss1_md.jpeg'></img>,0,TRUE,NA,sub82
NA,html-keyboard-response,29,122622,0.0-10.0-0.8,"""event"",""trial"",""time""
""focus"",""0"",""6831""
""fullscreenenter"",""0"",""11179""
","
","""event"",""trial"",""time""
""focus"",""0"",""6831""
","""event"",""trial"",""time""
""fullscreenenter"",""0"",""11179""
","
",null,"<div style=""font-size:60px;"">+</div>",NA,null,fixation,2020-06-16T18:17:18Z,NA,NA,NA,NA,NA,sub82
NA,mars-trial,30,129795,0.0-10.0-1.8,"""event"",""trial"",""time""
""focus"",""0"",""6831""
""fullscreenenter"",""0"",""11179""
","
","""event"",""trial"",""time""
""focus"",""0"",""6831""
","""event"",""trial"",""time""
""fullscreenenter"",""0"",""11179""
","
",6567.999999999985,<img style='border: 4px solid darkgrey;' src='img/tf1_9_M_ss2.jpeg'></img>,1,NA,exp,NA,0,<img src='img/tf1_9_T1_ss2_md.jpeg'></img>,0,TRUE,NA,sub82
NA,html-keyboard-response,31,130297,0.0-10.0-0.9,"""event"",""trial"",""time""
""focus"",""0"",""6831""
""fullscreenenter"",""0"",""11179""
","
","""event"",""trial"",""time""
""focus"",""0"",""6831""
","""event"",""trial"",""time""
""fullscreenenter"",""0"",""11179""
","
",null,"<div style=""font-size:60px;"">+</div>",NA,null,fixation,2020-06-16T18:17:26Z,NA,NA,NA,NA,NA,sub82
NA,mars-trial,32,133921,0.0-10.0-1.9,"""event"",""trial"",""time""
""focus"",""0"",""6831""
""fullscreenenter"",""0"",""11179""
","
","""event"",""trial"",""time""
""focus"",""0"",""6831""
","""event"",""trial"",""time""
""fullscreenenter"",""0"",""11179""
","
",3019.9999999999854,<img style='border: 4px solid darkgrey;' src='img/tf1_10_M_ss3.jpeg'></img>,3,NA,exp,NA,0,<img src='img/tf1_10_T1_ss3_md.jpeg'></img>,0,TRUE,NA,sub82
NA,html-keyboard-response,33,134422,0.0-10.0-0.10,"""event"",""trial"",""time""
""focus"",""0"",""6831""
""fullscreenenter"",""0"",""11179""
","
","""event"",""trial"",""time""
""focus"",""0"",""6831""
","""event"",""trial"",""time""
""fullscreenenter"",""0"",""11179""
","
",null,"<div style=""font-size:60px;"">+</div>",NA,null,fixation,2020-06-16T18:17:30Z,NA,NA,NA,NA,NA,sub82
NA,mars-trial,34,146053,0.0-10.0-1.10,"""event"",""trial"",""time""
""focus"",""0"",""6831""
""fullscreenenter"",""0"",""11179""
","
","""event"",""trial"",""time""
""focus"",""0"",""6831""
","""event"",""trial"",""time""
""fullscreenenter"",""0"",""11179""
","
",11027,<img style='border: 4px solid darkgrey;' src='img/tf1_11_M_ss1.jpeg'></img>,3,NA,exp,NA,2,<img src='img/tf1_11_T1_ss1_md.jpeg'></img>,0,FALSE,NA,sub82
NA,html-keyboard-response,35,146555,0.0-10.0-0.11,"""event"",""trial"",""time""
""focus"",""0"",""6831""
""fullscreenenter"",""0"",""11179""
","
","""event"",""trial"",""time""
""focus"",""0"",""6831""
","""event"",""trial"",""time""
""fullscreenenter"",""0"",""11179""
","
",null,"<div style=""font-size:60px;"">+</div>",NA,null,fixation,2020-06-16T18:17:42Z,NA,NA,NA,NA,NA,sub82
NA,mars-trial,36,156714,0.0-10.0-1.11,"""event"",""trial"",""time""
""focus"",""0"",""6831""
""fullscreenenter"",""0"",""11179""
","
","""event"",""trial"",""time""
""focus"",""0"",""6831""
","""event"",""trial"",""time""
""fullscreenenter"",""0"",""11179""
","
",9556,<img style='border: 4px solid darkgrey;' src='img/tf1_12_M_ss2.jpeg'></img>,2,NA,exp,NA,3,<img src='img/tf1_12_T1_ss2_md.jpeg'></img>,0,FALSE,NA,sub82
NA,html-keyboard-response,37,157216,0.0-10.0-0.12,"""event"",""trial"",""time""
""focus"",""0"",""6831""
""fullscreenenter"",""0"",""11179""
","
","""event"",""trial"",""time""
""focus"",""0"",""6831""
","""event"",""trial"",""time""
""fullscreenenter"",""0"",""11179""
","
",null,"<div style=""font-size:60px;"">+</div>",NA,null,fixation,2020-06-16T18:17:53Z,NA,NA,NA,NA,NA,sub82
NA,mars-trial,38,165220,0.0-10.0-1.12,"""event"",""trial"",""time""
""focus"",""0"",""6831""
""fullscreenenter"",""0"",""11179""
","
","""event"",""trial"",""time""
""focus"",""0"",""6831""
","""event"",""trial"",""time""
""fullscreenenter"",""0"",""11179""
","
",7401,<img style='border: 4px solid darkgrey;' src='img/tf1_13_M_ss3.jpeg'></img>,1,NA,exp,NA,2,<img src='img/tf1_13_T1_ss3_md.jpeg'></img>,0,FALSE,NA,sub82
NA,html-keyboard-response,39,165721,0.0-10.0-0.13,"""event"",""trial"",""time""
""focus"",""0"",""6831""
""fullscreenenter"",""0"",""11179""
","
","""event"",""trial"",""time""
""focus"",""0"",""6831""
","""event"",""trial"",""time""
""fullscreenenter"",""0"",""11179""
","
",null,"<div style=""font-size:60px;"">+</div>",NA,null,fixation,2020-06-16T18:18:01Z,NA,NA,NA,NA,NA,sub82
NA,mars-trial,40,181247,0.0-10.0-1.13,"""event"",""trial"",""time""
""focus"",""0"",""6831""
""fullscreenenter"",""0"",""11179""
","
","""event"",""trial"",""time""
""focus"",""0"",""6831""
","""event"",""trial"",""time""
""fullscreenenter"",""0"",""11179""
","
",14922,<img style='border: 4px solid darkgrey;' src='img/tf1_14_M_ss1.jpeg'></img>,3,NA,exp,NA,3,<img src='img/tf1_14_T1_ss1_md.jpeg'></img>,0,FALSE,NA,sub82
NA,html-keyboard-response,41,181749,0.0-10.0-0.14,"""event"",""trial"",""time""
""focus"",""0"",""6831""
""fullscreenenter"",""0"",""11179""
","
","""event"",""trial"",""time""
""focus"",""0"",""6831""
","""event"",""trial"",""time""
""fullscreenenter"",""0"",""11179""
","
",null,"<div style=""font-size:60px;"">+</div>",NA,null,fixation,2020-06-16T18:18:17Z,NA,NA,NA,NA,NA,sub82
NA,mars-trial,42,188314,0.0-10.0-1.14,"""event"",""trial"",""time""
""focus"",""0"",""6831""
""fullscreenenter"",""0"",""11179""
","
","""event"",""trial"",""time""
""focus"",""0"",""6831""
","""event"",""trial"",""time""
""fullscreenenter"",""0"",""11179""
","
",5962,<img style='border: 4px solid darkgrey;' src='img/tf1_15_M_ss2.jpeg'></img>,2,NA,exp,NA,0,<img src='img/tf1_15_T1_ss2_md.jpeg'></img>,0,TRUE,NA,sub82
NA,html-keyboard-response,43,188816,0.0-10.0-0.15,"""event"",""trial"",""time""
""focus"",""0"",""6831""
""fullscreenenter"",""0"",""11179""
","
","""event"",""trial"",""time""
""focus"",""0"",""6831""
","""event"",""trial"",""time""
""fullscreenenter"",""0"",""11179""
","
",null,"<div style=""font-size:60px;"">+</div>",NA,null,fixation,2020-06-16T18:18:24Z,NA,NA,NA,NA,NA,sub82
NA,mars-trial,44,196044,0.0-10.0-1.15,"""event"",""trial"",""time""
""focus"",""0"",""6831""
""fullscreenenter"",""0"",""11179""
","
","""event"",""trial"",""time""
""focus"",""0"",""6831""
","""event"",""trial"",""time""
""fullscreenenter"",""0"",""11179""
","
",6624,<img style='border: 4px solid darkgrey;' src='img/tf1_16_M_ss3.jpeg'></img>,2,NA,exp,NA,1,<img src='img/tf1_16_T1_ss3_md.jpeg'></img>,0,FALSE,NA,sub82
NA,html-keyboard-response,45,196546,0.0-10.0-0.16,"""event"",""trial"",""time""
""focus"",""0"",""6831""
""fullscreenenter"",""0"",""11179""
","
","""event"",""trial"",""time""
""focus"",""0"",""6831""
","""event"",""trial"",""time""
""fullscreenenter"",""0"",""11179""
","
",null,"<div style=""font-size:60px;"">+</div>",NA,null,fixation,2020-06-16T18:18:32Z,NA,NA,NA,NA,NA,sub82
NA,mars-trial,46,204493,0.0-10.0-1.16,"""event"",""trial"",""time""
""focus"",""0"",""6831""
""fullscreenenter"",""0"",""11179""
","
","""event"",""trial"",""time""
""focus"",""0"",""6831""
","""event"",""trial"",""time""
""fullscreenenter"",""0"",""11179""
","
",7344,<img style='border: 4px solid darkgrey;' src='img/tf1_17_M_ss1.jpeg'></img>,2,NA,exp,NA,3,<img src='img/tf1_17_T1_ss1_md.jpeg'></img>,0,FALSE,NA,sub82
NA,html-keyboard-response,47,204995,0.0-10.0-0.17,"""event"",""trial"",""time""
""focus"",""0"",""6831""
""fullscreenenter"",""0"",""11179""
","
","""event"",""trial"",""time""
""focus"",""0"",""6831""
","""event"",""trial"",""time""
""fullscreenenter"",""0"",""11179""
","
",null,"<div style=""font-size:60px;"">+</div>",NA,null,fixation,2020-06-16T18:18:41Z,NA,NA,NA,NA,NA,sub82
NA,mars-trial,48,216631,0.0-10.0-1.17,"""event"",""trial"",""time""
""focus"",""0"",""6831""
""fullscreenenter"",""0"",""11179""
","
","""event"",""trial"",""time""
""focus"",""0"",""6831""
","""event"",""trial"",""time""
""fullscreenenter"",""0"",""11179""
","
",11031.00000000003,<img style='border: 4px solid darkgrey;' src='img/tf1_18_M_ss2.jpeg'></img>,1,NA,exp,NA,3,<img src='img/tf1_18_T1_ss2_md.jpeg'></img>,0,FALSE,NA,sub82
NA,html-keyboard-response,49,217133,0.0-10.0-0.18,"""event"",""trial"",""time""
""focus"",""0"",""6831""
""fullscreenenter"",""0"",""11179""
","
","""event"",""trial"",""time""
""focus"",""0"",""6831""
","""event"",""trial"",""time""
""fullscreenenter"",""0"",""11179""
","
",null,"<div style=""font-size:60px;"">+</div>",NA,null,fixation,2020-06-16T18:18:53Z,NA,NA,NA,NA,NA,sub82
NA,mars-trial,50,225206,0.0-10.0-1.18,"""event"",""trial"",""time""
""focus"",""0"",""6831""
""fullscreenenter"",""0"",""11179""
","
","""event"",""trial"",""time""
""focus"",""0"",""6831""
","""event"",""trial"",""time""
""fullscreenenter"",""0"",""11179""
","
",7470,<img style='border: 4px solid darkgrey;' src='img/tf1_19_M_ss3.jpeg'></img>,3,NA,exp,NA,0,<img src='img/tf1_19_T1_ss3_md.jpeg'></img>,0,TRUE,NA,sub82
NA,html-keyboard-response,51,225708,0.0-10.0-0.19,"""event"",""trial"",""time""
""focus"",""0"",""6831""
""fullscreenenter"",""0"",""11179""
","
","""event"",""trial"",""time""
""focus"",""0"",""6831""
","""event"",""trial"",""time""
""fullscreenenter"",""0"",""11179""
","
",null,"<div style=""font-size:60px;"">+</div>",NA,null,fixation,2020-06-16T18:19:01Z,NA,NA,NA,NA,NA,sub82
NA,mars-trial,52,236105,0.0-10.0-1.19,"""event"",""trial"",""time""
""focus"",""0"",""6831""
""fullscreenenter"",""0"",""11179""
","
","""event"",""trial"",""time""
""focus"",""0"",""6831""
","""event"",""trial"",""time""
""fullscreenenter"",""0"",""11179""
","
",9794,<img style='border: 4px solid darkgrey;' src='img/tf1_20_M_ss1.jpeg'></img>,2,NA,exp,NA,0,<img src='img/tf1_20_T1_ss1_md.jpeg'></img>,0,TRUE,NA,sub82
NA,html-keyboard-response,53,236607,0.0-10.0-0.20,"""event"",""trial"",""time""
""focus"",""0"",""6831""
""fullscreenenter"",""0"",""11179""
","
","""event"",""trial"",""time""
""focus"",""0"",""6831""
","""event"",""trial"",""time""
""fullscreenenter"",""0"",""11179""
","
",null,"<div style=""font-size:60px;"">+</div>",NA,null,fixation,2020-06-16T18:19:12Z,NA,NA,NA,NA,NA,sub82
NA,mars-trial,54,241444,0.0-10.0-1.20,"""event"",""trial"",""time""
""focus"",""0"",""6831""
""fullscreenenter"",""0"",""11179""
","
","""event"",""trial"",""time""
""focus"",""0"",""6831""
","""event"",""trial"",""time""
""fullscreenenter"",""0"",""11179""
","
",4233,<img style='border: 4px solid darkgrey;' src='img/tf1_21_M_ss2.jpeg'></img>,2,NA,exp,NA,2,<img src='img/tf1_21_T1_ss2_md.jpeg'></img>,0,FALSE,NA,sub82
NA,html-keyboard-response,55,241945,0.0-10.0-0.21,"""event"",""trial"",""time""
""focus"",""0"",""6831""
""fullscreenenter"",""0"",""11179""
","
","""event"",""trial"",""time""
""focus"",""0"",""6831""
","""event"",""trial"",""time""
""fullscreenenter"",""0"",""11179""
","
",null,"<div style=""font-size:60px;"">+</div>",NA,null,fixation,2020-06-16T18:19:18Z,NA,NA,NA,NA,NA,sub82
NA,mars-trial,56,248035,0.0-10.0-1.21,"""event"",""trial"",""time""
""focus"",""0"",""6831""
""fullscreenenter"",""0"",""11179""
","
","""event"",""trial"",""time""
""focus"",""0"",""6831""
","""event"",""trial"",""time""
""fullscreenenter"",""0"",""11179""
","
",5485,<img style='border: 4px solid darkgrey;' src='img/tf1_22_M_ss3.jpeg'></img>,1,NA,exp,NA,2,<img src='img/tf1_22_T1_ss3_md.jpeg'></img>,0,FALSE,NA,sub82
NA,html-keyboard-response,57,248537,0.0-10.0-0.22,"""event"",""trial"",""time""
""focus"",""0"",""6831""
""fullscreenenter"",""0"",""11179""
","
","""event"",""trial"",""time""
""focus"",""0"",""6831""
","""event"",""trial"",""time""
""fullscreenenter"",""0"",""11179""
","
",null,"<div style=""font-size:60px;"">+</div>",NA,null,fixation,2020-06-16T18:19:24Z,NA,NA,NA,NA,NA,sub82
NA,mars-trial,58,256555,0.0-10.0-1.22,"""event"",""trial"",""time""
""focus"",""0"",""6831""
""fullscreenenter"",""0"",""11179""
","
","""event"",""trial"",""time""
""focus"",""0"",""6831""
","""event"",""trial"",""time""
""fullscreenenter"",""0"",""11179""
","
",7414,<img style='border: 4px solid darkgrey;' src='img/tf1_23_M_ss1.jpeg'></img>,0,NA,exp,NA,0,<img src='img/tf1_23_T1_ss1_md.jpeg'></img>,0,TRUE,NA,sub82
NA,html-keyboard-response,59,257056,0.0-10.0-0.23,"""event"",""trial"",""time""
""focus"",""0"",""6831""
""fullscreenenter"",""0"",""11179""
","
","""event"",""trial"",""time""
""focus"",""0"",""6831""
","""event"",""trial"",""time""
""fullscreenenter"",""0"",""11179""
","
",null,"<div style=""font-size:60px;"">+</div>",NA,null,fixation,2020-06-16T18:19:33Z,NA,NA,NA,NA,NA,sub82
NA,mars-trial,60,268147,0.0-10.0-1.23,"""event"",""trial"",""time""
""focus"",""0"",""6831""
""fullscreenenter"",""0"",""11179""
","
","""event"",""trial"",""time""
""focus"",""0"",""6831""
","""event"",""trial"",""time""
""fullscreenenter"",""0"",""11179""
","
",10487.000000000058,<img style='border: 4px solid darkgrey;' src='img/tf1_24_M_ss2.jpeg'></img>,3,NA,exp,NA,2,<img src='img/tf1_24_T1_ss2_md.jpeg'></img>,0,FALSE,NA,sub82
NA,html-keyboard-response,61,268649,0.0-10.0-0.24,"""event"",""trial"",""time""
""focus"",""0"",""6831""
""fullscreenenter"",""0"",""11179""
","
","""event"",""trial"",""time""
""focus"",""0"",""6831""
","""event"",""trial"",""time""
""fullscreenenter"",""0"",""11179""
","
",null,"<div style=""font-size:60px;"">+</div>",NA,null,fixation,2020-06-16T18:19:44Z,NA,NA,NA,NA,NA,sub82
NA,mars-trial,62,277490,0.0-10.0-1.24,"""event"",""trial"",""time""
""focus"",""0"",""6831""
""fullscreenenter"",""0"",""11179""
","
","""event"",""trial"",""time""
""focus"",""0"",""6831""
","""event"",""trial"",""time""
""fullscreenenter"",""0"",""11179""
","
",8236,<img style='border: 4px solid darkgrey;' src='img/tf1_25_M_ss3.jpeg'></img>,0,NA,exp,NA,0,<img src='img/tf1_25_T1_ss3_md.jpeg'></img>,0,TRUE,NA,sub82
NA,html-keyboard-response,63,277991,0.0-10.0-0.25,"""event"",""trial"",""time""
""focus"",""0"",""6831""
""fullscreenenter"",""0"",""11179""
","
","""event"",""trial"",""time""
""focus"",""0"",""6831""
","""event"",""trial"",""time""
""fullscreenenter"",""0"",""11179""
","
",null,"<div style=""font-size:60px;"">+</div>",NA,null,fixation,2020-06-16T18:19:54Z,NA,NA,NA,NA,NA,sub82
NA,mars-trial,64,291413,0.0-10.0-1.25,"""event"",""trial"",""time""
""focus"",""0"",""6831""
""fullscreenenter"",""0"",""11179""
","
","""event"",""trial"",""time""
""focus"",""0"",""6831""
","""event"",""trial"",""time""
""fullscreenenter"",""0"",""11179""
","
",12819,<img style='border: 4px solid darkgrey;' src='img/tf1_26_M_ss1.jpeg'></img>,1,NA,exp,NA,0,<img src='img/tf1_26_T1_ss1_md.jpeg'></img>,0,TRUE,NA,sub82
NA,html-keyboard-response,65,291915,0.0-10.0-0.26,"""event"",""trial"",""time""
""focus"",""0"",""6831""
""fullscreenenter"",""0"",""11179""
","
","""event"",""trial"",""time""
""focus"",""0"",""6831""
","""event"",""trial"",""time""
""fullscreenenter"",""0"",""11179""
","
",null,"<div style=""font-size:60px;"">+</div>",NA,null,fixation,2020-06-16T18:20:08Z,NA,NA,NA,NA,NA,sub82
NA,mars-trial,66,302760,0.0-10.0-1.26,"""event"",""trial"",""time""
""focus"",""0"",""6831""
""fullscreenenter"",""0"",""11179""
","
","""event"",""trial"",""time""
""focus"",""0"",""6831""
","""event"",""trial"",""time""
""fullscreenenter"",""0"",""11179""
","
",10242.000000000058,<img style='border: 4px solid darkgrey;' src='img/tf1_27_M_ss2.jpeg'></img>,2,NA,exp,NA,0,<img src='img/tf1_27_T1_ss2_md.jpeg'></img>,0,TRUE,NA,sub82
NA,html-keyboard-response,67,303261,0.0-10.0-0.27,"""event"",""trial"",""time""
""focus"",""0"",""6831""
""fullscreenenter"",""0"",""11179""
","
","""event"",""trial"",""time""
""focus"",""0"",""6831""
","""event"",""trial"",""time""
""fullscreenenter"",""0"",""11179""
","
",null,"<div style=""font-size:60px;"">+</div>",NA,null,fixation,2020-06-16T18:20:19Z,NA,NA,NA,NA,NA,sub82
NA,mars-trial,68,317162,0.0-10.0-1.27,"""event"",""trial"",""time""
""focus"",""0"",""6831""
""fullscreenenter"",""0"",""11179""
","
","""event"",""trial"",""time""
""focus"",""0"",""6831""
","""event"",""trial"",""time""
""fullscreenenter"",""0"",""11179""
","
",13297,<img style='border: 4px solid darkgrey;' src='img/tf1_28_M_ss3.jpeg'></img>,2,NA,exp,NA,1,<img src='img/tf1_28_T1_ss3_md.jpeg'></img>,0,FALSE,NA,sub82
NA,html-keyboard-response,69,317663,0.0-10.0-0.28,"""event"",""trial"",""time""
""focus"",""0"",""6831""
""fullscreenenter"",""0"",""11179""
","
","""event"",""trial"",""time""
""focus"",""0"",""6831""
","""event"",""trial"",""time""
""fullscreenenter"",""0"",""11179""
","
",null,"<div style=""font-size:60px;"">+</div>",NA,null,fixation,2020-06-16T18:20:33Z,NA,NA,NA,NA,NA,sub82
NA,mars-trial,70,335722,0.0-10.0-1.28,"""event"",""trial"",""time""
""focus"",""0"",""6831""
""fullscreenenter"",""0"",""11179""
","
","""event"",""trial"",""time""
""focus"",""0"",""6831""
","""event"",""trial"",""time""
""fullscreenenter"",""0"",""11179""
","
",17457,<img style='border: 4px solid darkgrey;' src='img/tf1_29_M_ss1.jpeg'></img>,2,NA,exp,NA,1,<img src='img/tf1_29_T1_ss1_md.jpeg'></img>,0,FALSE,NA,sub82
NA,html-keyboard-response,71,336224,0.0-10.0-0.29,"""event"",""trial"",""time""
""focus"",""0"",""6831""
""fullscreenenter"",""0"",""11179""
","
","""event"",""trial"",""time""
""focus"",""0"",""6831""
","""event"",""trial"",""time""
""fullscreenenter"",""0"",""11179""
","
",null,"<div style=""font-size:60px;"">+</div>",NA,null,fixation,2020-06-16T18:20:52Z,NA,NA,NA,NA,NA,sub82
NA,mars-trial,72,351104,0.0-10.0-1.29,"""event"",""trial"",""time""
""focus"",""0"",""6831""
""fullscreenenter"",""0"",""11179""
","
","""event"",""trial"",""time""
""focus"",""0"",""6831""
","""event"",""trial"",""time""
""fullscreenenter"",""0"",""11179""
","
",14275,<img style='border: 4px solid darkgrey;' src='img/tf1_30_M_ss2.jpeg'></img>,3,NA,exp,NA,0,<img src='img/tf1_30_T1_ss2_md.jpeg'></img>,0,TRUE,NA,sub82
NA,html-keyboard-response,73,351605,0.0-10.0-0.30,"""event"",""trial"",""time""
""focus"",""0"",""6831""
""fullscreenenter"",""0"",""11179""
","
","""event"",""trial"",""time""
""focus"",""0"",""6831""
","""event"",""trial"",""time""
""fullscreenenter"",""0"",""11179""
","
",null,"<div style=""font-size:60px;"">+</div>",NA,null,fixation,2020-06-16T18:21:07Z,NA,NA,NA,NA,NA,sub82
NA,mars-trial,74,363237,0.0-10.0-1.30,"""event"",""trial"",""time""
""focus"",""0"",""6831""
""fullscreenenter"",""0"",""11179""
","
","""event"",""trial"",""time""
""focus"",""0"",""6831""
","""event"",""trial"",""time""
""fullscreenenter"",""0"",""11179""
","
",11029,<img style='border: 4px solid darkgrey;' src='img/tf1_31_M_ss3.jpeg'></img>,1,NA,exp,NA,0,<img src='img/tf1_31_T1_ss3_md.jpeg'></img>,0,TRUE,NA,sub82
NA,html-keyboard-response,75,363739,0.0-10.0-0.31,"""event"",""trial"",""time""
""focus"",""0"",""6831""
""fullscreenenter"",""0"",""11179""
","
","""event"",""trial"",""time""
""focus"",""0"",""6831""
","""event"",""trial"",""time""
""fullscreenenter"",""0"",""11179""
","
",null,"<div style=""font-size:60px;"">+</div>",NA,null,fixation,2020-06-16T18:21:19Z,NA,NA,NA,NA,NA,sub82
NA,mars-trial,76,369758,0.0-10.0-1.31,"""event"",""trial"",""time""
""focus"",""0"",""6831""
""fullscreenenter"",""0"",""11179""
","
","""event"",""trial"",""time""
""focus"",""0"",""6831""
","""event"",""trial"",""time""
""fullscreenenter"",""0"",""11179""
","
",5416.000000000058,<img style='border: 4px solid darkgrey;' src='img/tf1_32_M_ss1.jpeg'></img>,0,NA,exp,NA,0,<img src='img/tf1_32_T1_ss1_md.jpeg'></img>,0,TRUE,NA,sub82
NA,html-keyboard-response,77,370258,0.0-10.0-0.32,"""event"",""trial"",""time""
""focus"",""0"",""6831""
""fullscreenenter"",""0"",""11179""
","
","""event"",""trial"",""time""
""focus"",""0"",""6831""
","""event"",""trial"",""time""
""fullscreenenter"",""0"",""11179""
","
",null,"<div style=""font-size:60px;"">+</div>",NA,null,fixation,2020-06-16T18:21:26Z,NA,NA,NA,NA,NA,sub82
NA,mars-trial,78,375969,0.0-10.0-1.32,"""event"",""trial"",""time""
""focus"",""0"",""6831""
""fullscreenenter"",""0"",""11179""
","
","""event"",""trial"",""time""
""focus"",""0"",""6831""
","""event"",""trial"",""time""
""fullscreenenter"",""0"",""11179""
","
",5107,<img style='border: 4px solid darkgrey;' src='img/tf1_33_M_ss2.jpeg'></img>,0,NA,exp,NA,1,<img src='img/tf1_33_T1_ss2_md.jpeg'></img>,0,FALSE,NA,sub82
NA,html-keyboard-response,79,376470,0.0-10.0-0.33,"""event"",""trial"",""time""
""focus"",""0"",""6831""
""fullscreenenter"",""0"",""11179""
","
","""event"",""trial"",""time""
""focus"",""0"",""6831""
","""event"",""trial"",""time""
""fullscreenenter"",""0"",""11179""
","
",null,"<div style=""font-size:60px;"">+</div>",NA,null,fixation,2020-06-16T18:21:32Z,NA,NA,NA,NA,NA,sub82
NA,mars-trial,80,386776,0.0-10.0-1.33,"""event"",""trial"",""time""
""focus"",""0"",""6831""
""fullscreenenter"",""0"",""11179""
","
","""event"",""trial"",""time""
""focus"",""0"",""6831""
","""event"",""trial"",""time""
""fullscreenenter"",""0"",""11179""
","
",9702,<img style='border: 4px solid darkgrey;' src='img/tf1_34_M_ss3.jpeg'></img>,0,NA,exp,NA,1,<img src='img/tf1_34_T1_ss3_md.jpeg'></img>,0,FALSE,NA,sub82
NA,html-keyboard-response,81,387277,0.0-10.0-0.34,"""event"",""trial"",""time""
""focus"",""0"",""6831""
""fullscreenenter"",""0"",""11179""
","
","""event"",""trial"",""time""
""focus"",""0"",""6831""
","""event"",""trial"",""time""
""fullscreenenter"",""0"",""11179""
","
",null,"<div style=""font-size:60px;"">+</div>",NA,null,fixation,2020-06-16T18:21:43Z,NA,NA,NA,NA,NA,sub82
NA,mars-trial,82,390917,0.0-10.0-1.34,"""event"",""trial"",""time""
""focus"",""0"",""6831""
""fullscreenenter"",""0"",""11179""
","
","""event"",""trial"",""time""
""focus"",""0"",""6831""
","""event"",""trial"",""time""
""fullscreenenter"",""0"",""11179""
","
",3036,<img style='border: 4px solid darkgrey;' src='img/tf1_35_M_ss1.jpeg'></img>,3,NA,exp,NA,1,<img src='img/tf1_35_T1_ss1_md.jpeg'></img>,0,FALSE,NA,sub82
NA,html-keyboard-response,83,391420,0.0-10.0-0.35,"""event"",""trial"",""time""
""focus"",""0"",""6831""
""fullscreenenter"",""0"",""11179""
","
","""event"",""trial"",""time""
""focus"",""0"",""6831""
","""event"",""trial"",""time""
""fullscreenenter"",""0"",""11179""
","
",null,"<div style=""font-size:60px;"">+</div>",NA,null,fixation,2020-06-16T18:21:47Z,NA,NA,NA,NA,NA,sub82
NA,mars-trial,84,402460,0.0-10.0-1.35,"""event"",""trial"",""time""
""focus"",""0"",""6831""
""fullscreenenter"",""0"",""11179""
","
","""event"",""trial"",""time""
""focus"",""0"",""6831""
","""event"",""trial"",""time""
""fullscreenenter"",""0"",""11179""
","
",10435,<img style='border: 4px solid darkgrey;' src='img/tf1_36_M_ss2.jpeg'></img>,3,NA,exp,NA,0,<img src='img/tf1_36_T1_ss2_md.jpeg'></img>,0,TRUE,NA,sub82
NA,html-keyboard-response,85,402962,0.0-10.0-0.36,"""event"",""trial"",""time""
""focus"",""0"",""6831""
""fullscreenenter"",""0"",""11179""
","
","""event"",""trial"",""time""
""focus"",""0"",""6831""
","""event"",""trial"",""time""
""fullscreenenter"",""0"",""11179""
","
",null,"<div style=""font-size:60px;"">+</div>",NA,null,fixation,2020-06-16T18:21:59Z,NA,NA,NA,NA,NA,sub82
NA,mars-trial,86,408390,0.0-10.0-1.36,"""event"",""trial"",""time""
""focus"",""0"",""6831""
""fullscreenenter"",""0"",""11179""
","
","""event"",""trial"",""time""
""focus"",""0"",""6831""
","""event"",""trial"",""time""
""fullscreenenter"",""0"",""11179""
","
",4825.000000000058,<img style='border: 4px solid darkgrey;' src='img/tf1_37_M_ss3.jpeg'></img>,2,NA,exp,NA,3,<img src='img/tf1_37_T1_ss3_md.jpeg'></img>,0,FALSE,NA,sub82
NA,html-keyboard-response,87,408893,0.0-10.0-0.37,"""event"",""trial"",""time""
""focus"",""0"",""6831""
""fullscreenenter"",""0"",""11179""
","
","""event"",""trial"",""time""
""focus"",""0"",""6831""
","""event"",""trial"",""time""
""fullscreenenter"",""0"",""11179""
","
",null,"<div style=""font-size:60px;"">+</div>",NA,null,fixation,2020-06-16T18:22:04Z,NA,NA,NA,NA,NA,sub82
NA,mars-trial,88,412879,0.0-10.0-1.37,"""event"",""trial"",""time""
""focus"",""0"",""6831""
""fullscreenenter"",""0"",""11179""
","
","""event"",""trial"",""time""
""focus"",""0"",""6831""
","""event"",""trial"",""time""
""fullscreenenter"",""0"",""11179""
","
",3380,<img style='border: 4px solid darkgrey;' src='img/tf1_38_M_ss1.jpeg'></img>,1,NA,exp,NA,0,<img src='img/tf1_38_T1_ss1_md.jpeg'></img>,0,TRUE,NA,sub82
NA,html-keyboard-response,89,413381,0.0-10.0-0.38,"""event"",""trial"",""time""
""focus"",""0"",""6831""
""fullscreenenter"",""0"",""11179""
","
","""event"",""trial"",""time""
""focus"",""0"",""6831""
","""event"",""trial"",""time""
""fullscreenenter"",""0"",""11179""
","
",null,"<div style=""font-size:60px;"">+</div>",NA,null,fixation,2020-06-16T18:22:09Z,NA,NA,NA,NA,NA,sub82
NA,mars-trial,90,423156,0.0-10.0-1.38,"""event"",""trial"",""time""
""focus"",""0"",""6831""
""fullscreenenter"",""0"",""11179""
","
","""event"",""trial"",""time""
""focus"",""0"",""6831""
","""event"",""trial"",""time""
""fullscreenenter"",""0"",""11179""
","
",9166.000000000058,<img style='border: 4px solid darkgrey;' src='img/tf1_39_M_ss2.jpeg'></img>,3,NA,exp,NA,2,<img src='img/tf1_39_T1_ss2_md.jpeg'></img>,0,FALSE,NA,sub82
NA,html-keyboard-response,91,423658,0.0-10.0-0.39,"""event"",""trial"",""time""
""focus"",""0"",""6831""
""fullscreenenter"",""0"",""11179""
","
","""event"",""trial"",""time""
""focus"",""0"",""6831""
","""event"",""trial"",""time""
""fullscreenenter"",""0"",""11179""
","
",null,"<div style=""font-size:60px;"">+</div>",NA,null,fixation,2020-06-16T18:22:19Z,NA,NA,NA,NA,NA,sub82
NA,mars-trial,92,431538,0.0-10.0-1.39,"""event"",""trial"",""time""
""focus"",""0"",""6831""
""fullscreenenter"",""0"",""11179""
","
","""event"",""trial"",""time""
""focus"",""0"",""6831""
","""event"",""trial"",""time""
""fullscreenenter"",""0"",""11179""
","
",7273.000000000058,<img style='border: 4px solid darkgrey;' src='img/tf1_40_M_ss3.jpeg'></img>,2,NA,exp,NA,3,<img src='img/tf1_40_T1_ss3_md.jpeg'></img>,0,FALSE,NA,sub82
NA,html-keyboard-response,93,432040,0.0-10.0-0.40,"""event"",""trial"",""time""
""focus"",""0"",""6831""
""fullscreenenter"",""0"",""11179""
","
","""event"",""trial"",""time""
""focus"",""0"",""6831""
","""event"",""trial"",""time""
""fullscreenenter"",""0"",""11179""
","
",null,"<div style=""font-size:60px;"">+</div>",NA,null,fixation,2020-06-16T18:22:28Z,NA,NA,NA,NA,NA,sub82
NA,mars-trial,94,436928,0.0-10.0-1.40,"""event"",""trial"",""time""
""focus"",""0"",""6831""
""fullscreenenter"",""0"",""11179""
","
","""event"",""trial"",""time""
""focus"",""0"",""6831""
","""event"",""trial"",""time""
""fullscreenenter"",""0"",""11179""
","
",4283,<img style='border: 4px solid darkgrey;' src='img/tf1_41_M_ss1.jpeg'></img>,1,NA,exp,NA,0,<img src='img/tf1_41_T1_ss1_md.jpeg'></img>,0,TRUE,NA,sub82
NA,html-keyboard-response,95,437430,0.0-10.0-0.41,"""event"",""trial"",""time""
""focus"",""0"",""6831""
""fullscreenenter"",""0"",""11179""
","
","""event"",""trial"",""time""
""focus"",""0"",""6831""
","""event"",""trial"",""time""
""fullscreenenter"",""0"",""11179""
","
",null,"<div style=""font-size:60px;"">+</div>",NA,null,fixation,2020-06-16T18:22:33Z,NA,NA,NA,NA,NA,sub82
NA,mars-trial,96,443296,0.0-10.0-1.41,"""event"",""trial"",""time""
""focus"",""0"",""6831""
""fullscreenenter"",""0"",""11179""
","
","""event"",""trial"",""time""
""focus"",""0"",""6831""
","""event"",""trial"",""time""
""fullscreenenter"",""0"",""11179""
","
",5260.999999999942,<img style='border: 4px solid darkgrey;' src='img/tf1_42_M_ss2.jpeg'></img>,2,NA,exp,NA,1,<img src='img/tf1_42_T1_ss2_md.jpeg'></img>,0,FALSE,NA,sub82
NA,html-keyboard-response,97,443797,0.0-10.0-0.42,"""event"",""trial"",""time""
""focus"",""0"",""6831""
""fullscreenenter"",""0"",""11179""
","
","""event"",""trial"",""time""
""focus"",""0"",""6831""
","""event"",""trial"",""time""
""fullscreenenter"",""0"",""11179""
","
",null,"<div style=""font-size:60px;"">+</div>",NA,null,fixation,2020-06-16T18:22:39Z,NA,NA,NA,NA,NA,sub82
NA,mars-trial,98,448404,0.0-10.0-1.42,"""event"",""trial"",""time""
""focus"",""0"",""6831""
""fullscreenenter"",""0"",""11179""
","
","""event"",""trial"",""time""
""focus"",""0"",""6831""
","""event"",""trial"",""time""
""fullscreenenter"",""0"",""11179""
","
",4004,<img style='border: 4px solid darkgrey;' src='img/tf1_43_M_ss3.jpeg'></img>,2,NA,exp,NA,1,<img src='img/tf1_43_T1_ss3_md.jpeg'></img>,0,FALSE,NA,sub82
NA,html-keyboard-response,99,448906,0.0-10.0-0.43,"""event"",""trial"",""time""
""focus"",""0"",""6831""
""fullscreenenter"",""0"",""11179""
","
","""event"",""trial"",""time""
""focus"",""0"",""6831""
","""event"",""trial"",""time""
""fullscreenenter"",""0"",""11179""
","
",null,"<div style=""font-size:60px;"">+</div>",NA,null,fixation,2020-06-16T18:22:44Z,NA,NA,NA,NA,NA,sub82
NA,mars-trial,100,459777,0.0-10.0-1.43,"""event"",""trial"",""time""
""focus"",""0"",""6831""
""fullscreenenter"",""0"",""11179""
","
","""event"",""trial"",""time""
""focus"",""0"",""6831""
","""event"",""trial"",""time""
""fullscreenenter"",""0"",""11179""
","
",10265,<img style='border: 4px solid darkgrey;' src='img/tf1_44_M_ss1.jpeg'></img>,0,NA,exp,NA,3,<img src='img/tf1_44_T1_ss1_md.jpeg'></img>,0,FALSE,NA,sub82
NA,html-keyboard-response,101,460279,0.0-10.0-0.44,"""event"",""trial"",""time""
""focus"",""0"",""6831""
""fullscreenenter"",""0"",""11179""
","
","""event"",""trial"",""time""
""focus"",""0"",""6831""
","""event"",""trial"",""time""
""fullscreenenter"",""0"",""11179""
","
",null,"<div style=""font-size:60px;"">+</div>",NA,null,fixation,2020-06-16T18:22:56Z,NA,NA,NA,NA,NA,sub82
NA,mars-trial,102,468505,0.0-10.0-1.44,"""event"",""trial"",""time""
""focus"",""0"",""6831""
""fullscreenenter"",""0"",""11179""
","
","""event"",""trial"",""time""
""focus"",""0"",""6831""
","""event"",""trial"",""time""
""fullscreenenter"",""0"",""11179""
","
",7623.000000000058,<img style='border: 4px solid darkgrey;' src='img/tf1_45_M_ss2.jpeg'></img>,3,NA,exp,NA,0,<img src='img/tf1_45_T1_ss2_md.jpeg'></img>,0,TRUE,NA,sub82
NA,html-keyboard-response,103,469007,0.0-10.0-0.45,"""event"",""trial"",""time""
""focus"",""0"",""6831""
""fullscreenenter"",""0"",""11179""
","
","""event"",""trial"",""time""
""focus"",""0"",""6831""
","""event"",""trial"",""time""
""fullscreenenter"",""0"",""11179""
","
",null,"<div style=""font-size:60px;"">+</div>",NA,null,fixation,2020-06-16T18:23:05Z,NA,NA,NA,NA,NA,sub82
NA,mars-trial,104,474111,0.0-10.0-1.45,"""event"",""trial"",""time""
""focus"",""0"",""6831""
""fullscreenenter"",""0"",""11179""
","
","""event"",""trial"",""time""
""focus"",""0"",""6831""
","""event"",""trial"",""time""
""fullscreenenter"",""0"",""11179""
","
",4501,<img style='border: 4px solid darkgrey;' src='img/tf1_46_M_ss3.jpeg'></img>,1,NA,exp,NA,3,<img src='img/tf1_46_T1_ss3_md.jpeg'></img>,0,FALSE,NA,sub82
NA,html-keyboard-response,105,474612,0.0-10.0-0.46,"""event"",""trial"",""time""
""focus"",""0"",""6831""
""fullscreenenter"",""0"",""11179""
","
","""event"",""trial"",""time""
""focus"",""0"",""6831""
","""event"",""trial"",""time""
""fullscreenenter"",""0"",""11179""
","
",null,"<div style=""font-size:60px;"">+</div>",NA,null,fixation,2020-06-16T18:23:10Z,NA,NA,NA,NA,NA,sub82
NA,mars-trial,106,481881,0.0-10.0-1.46,"""event"",""trial"",""time""
""focus"",""0"",""6831""
""fullscreenenter"",""0"",""11179""
","
","""event"",""trial"",""time""
""focus"",""0"",""6831""
","""event"",""trial"",""time""
""fullscreenenter"",""0"",""11179""
","
",6666,<img style='border: 4px solid darkgrey;' src='img/tf1_47_M_ss1.jpeg'></img>,2,NA,exp,NA,1,<img src='img/tf1_47_T1_ss1_md.jpeg'></img>,0,FALSE,NA,sub82
NA,html-keyboard-response,107,482382,0.0-10.0-0.47,"""event"",""trial"",""time""
""focus"",""0"",""6831""
""fullscreenenter"",""0"",""11179""
","
","""event"",""trial"",""time""
""focus"",""0"",""6831""
","""event"",""trial"",""time""
""fullscreenenter"",""0"",""11179""
","
",null,"<div style=""font-size:60px;"">+</div>",NA,null,fixation,2020-06-16T18:23:18Z,NA,NA,NA,NA,NA,sub82
NA,mars-trial,108,489862,0.0-10.0-1.47,"""event"",""trial"",""time""
""focus"",""0"",""6831""
""fullscreenenter"",""0"",""11179""
","
","""event"",""trial"",""time""
""focus"",""0"",""6831""
","""event"",""trial"",""time""
""fullscreenenter"",""0"",""11179""
","
",6877,<img style='border: 4px solid darkgrey;' src='img/tf1_48_M_ss2.jpeg'></img>,0,NA,exp,NA,0,<img src='img/tf1_48_T1_ss2_md.jpeg'></img>,0,TRUE,NA,sub82
NA,html-keyboard-response,109,490363,0.0-10.0-0.48,"""event"",""trial"",""time""
""focus"",""0"",""6831""
""fullscreenenter"",""0"",""11179""
","
","""event"",""trial"",""time""
""focus"",""0"",""6831""
","""event"",""trial"",""time""
""fullscreenenter"",""0"",""11179""
","
",null,"<div style=""font-size:60px;"">+</div>",NA,null,fixation,2020-06-16T18:23:26Z,NA,NA,NA,NA,NA,sub82
NA,mars-trial,110,498202,0.0-10.0-1.48,"""event"",""trial"",""time""
""focus"",""0"",""6831""
""fullscreenenter"",""0"",""11179""
","
","""event"",""trial"",""time""
""focus"",""0"",""6831""
","""event"",""trial"",""time""
""fullscreenenter"",""0"",""11179""
","
",7236,<img style='border: 4px solid darkgrey;' src='img/tf1_49_M_ss3.jpeg'></img>,0,NA,exp,NA,2,<img src='img/tf1_49_T1_ss3_md.jpeg'></img>,0,FALSE,NA,sub82
NA,html-keyboard-response,111,498703,0.0-10.0-0.49,"""event"",""trial"",""time""
""focus"",""0"",""6831""
""fullscreenenter"",""0"",""11179""
","
","""event"",""trial"",""time""
""focus"",""0"",""6831""
","""event"",""trial"",""time""
""fullscreenenter"",""0"",""11179""
","
",null,"<div style=""font-size:60px;"">+</div>",NA,null,fixation,2020-06-16T18:23:34Z,NA,NA,NA,NA,NA,sub82
NA,mars-trial,112,507879,0.0-10.0-1.49,"""event"",""trial"",""time""
""focus"",""0"",""6831""
""fullscreenenter"",""0"",""11179""
","
","""event"",""trial"",""time""
""focus"",""0"",""6831""
","""event"",""trial"",""time""
""fullscreenenter"",""0"",""11179""
","
",8571,<img style='border: 4px solid darkgrey;' src='img/tf1_50_M_ss1.jpeg'></img>,3,NA,exp,NA,0,<img src='img/tf1_50_T1_ss1_md.jpeg'></img>,0,TRUE,NA,sub82
NA,html-keyboard-response,113,508381,0.0-10.0-0.50,"""event"",""trial"",""time""
""focus"",""0"",""6831""
""fullscreenenter"",""0"",""11179""
","
","""event"",""trial"",""time""
""focus"",""0"",""6831""
","""event"",""trial"",""time""
""fullscreenenter"",""0"",""11179""
","
",null,"<div style=""font-size:60px;"">+</div>",NA,null,fixation,2020-06-16T18:23:44Z,NA,NA,NA,NA,NA,sub82
NA,mars-trial,114,512554,0.0-10.0-1.50,"""event"",""trial"",""time""
""focus"",""0"",""6831""
""fullscreenenter"",""0"",""11179""
","
","""event"",""trial"",""time""
""focus"",""0"",""6831""
","""event"",""trial"",""time""
""fullscreenenter"",""0"",""11179""
","
",3570,<img style='border: 4px solid darkgrey;' src='img/tf1_51_M_ss2.jpeg'></img>,3,NA,exp,NA,3,<img src='img/tf1_51_T1_ss2_md.jpeg'></img>,0,FALSE,NA,sub82
NA,html-keyboard-response,115,513055,0.0-10.0-0.51,"""event"",""trial"",""time""
""focus"",""0"",""6831""
""fullscreenenter"",""0"",""11179""
","
","""event"",""trial"",""time""
""focus"",""0"",""6831""
","""event"",""trial"",""time""
""fullscreenenter"",""0"",""11179""
","
",null,"<div style=""font-size:60px;"">+</div>",NA,null,fixation,2020-06-16T18:23:49Z,NA,NA,NA,NA,NA,sub82
NA,mars-trial,116,520418,0.0-10.0-1.51,"""event"",""trial"",""time""
""focus"",""0"",""6831""
""fullscreenenter"",""0"",""11179""
","
","""event"",""trial"",""time""
""focus"",""0"",""6831""
","""event"",""trial"",""time""
""fullscreenenter"",""0"",""11179""
","
",6760,<img style='border: 4px solid darkgrey;' src='img/tf1_52_M_ss3.jpeg'></img>,2,NA,exp,NA,0,<img src='img/tf1_52_T1_ss3_md.jpeg'></img>,0,TRUE,NA,sub82
NA,html-keyboard-response,117,520920,0.0-10.0-0.52,"""event"",""trial"",""time""
""focus"",""0"",""6831""
""fullscreenenter"",""0"",""11179""
","
","""event"",""trial"",""time""
""focus"",""0"",""6831""
","""event"",""trial"",""time""
""fullscreenenter"",""0"",""11179""
","
",null,"<div style=""font-size:60px;"">+</div>",NA,null,fixation,2020-06-16T18:23:57Z,NA,NA,NA,NA,NA,sub82
NA,mars-trial,118,523887,0.0-10.0-1.52,"""event"",""trial"",""time""
""focus"",""0"",""6831""
""fullscreenenter"",""0"",""11179""
","
","""event"",""trial"",""time""
""focus"",""0"",""6831""
","""event"",""trial"",""time""
""fullscreenenter"",""0"",""11179""
","
",2365,<img style='border: 4px solid darkgrey;' src='img/tf1_53_M_ss1.jpeg'></img>,1,NA,exp,NA,3,<img src='img/tf1_53_T1_ss1_md.jpeg'></img>,0,FALSE,NA,sub82
NA,html-keyboard-response,119,524389,0.0-10.0-0.53,"""event"",""trial"",""time""
""focus"",""0"",""6831""
""fullscreenenter"",""0"",""11179""
","
","""event"",""trial"",""time""
""focus"",""0"",""6831""
","""event"",""trial"",""time""
""fullscreenenter"",""0"",""11179""
","
",null,"<div style=""font-size:60px;"">+</div>",NA,null,fixation,2020-06-16T18:24:00Z,NA,NA,NA,NA,NA,sub82
NA,mars-trial,120,534345,0.0-10.0-1.53,"""event"",""trial"",""time""
""focus"",""0"",""6831""
""fullscreenenter"",""0"",""11179""
","
","""event"",""trial"",""time""
""focus"",""0"",""6831""
","""event"",""trial"",""time""
""fullscreenenter"",""0"",""11179""
","
",9353,<img style='border: 4px solid darkgrey;' src='img/tf1_54_M_ss2.jpeg'></img>,1,NA,exp,NA,1,<img src='img/tf1_54_T1_ss2_md.jpeg'></img>,0,FALSE,NA,sub82
NA,html-keyboard-response,121,534847,0.0-10.0-0.54,"""event"",""trial"",""time""
""focus"",""0"",""6831""
""fullscreenenter"",""0"",""11179""
","
","""event"",""trial"",""time""
""focus"",""0"",""6831""
","""event"",""trial"",""time""
""fullscreenenter"",""0"",""11179""
","
",null,"<div style=""font-size:60px;"">+</div>",NA,null,fixation,2020-06-16T18:24:10Z,NA,NA,NA,NA,NA,sub82
NA,mars-trial,122,549427,0.0-10.0-1.54,"""event"",""trial"",""time""
""focus"",""0"",""6831""
""fullscreenenter"",""0"",""11179""
","
","""event"",""trial"",""time""
""focus"",""0"",""6831""
","""event"",""trial"",""time""
""fullscreenenter"",""0"",""11179""
","
",13975,<img style='border: 4px solid darkgrey;' src='img/tf1_55_M_ss3.jpeg'></img>,2,NA,exp,NA,3,<img src='img/tf1_55_T1_ss3_md.jpeg'></img>,0,FALSE,NA,sub82
NA,html-keyboard-response,123,549929,0.0-10.0-0.55,"""event"",""trial"",""time""
""focus"",""0"",""6831""
""fullscreenenter"",""0"",""11179""
","
","""event"",""trial"",""time""
""focus"",""0"",""6831""
","""event"",""trial"",""time""
""fullscreenenter"",""0"",""11179""
","
",null,"<div style=""font-size:60px;"">+</div>",NA,null,fixation,2020-06-16T18:24:26Z,NA,NA,NA,NA,NA,sub82
NA,mars-trial,124,552872,0.0-10.0-1.55,"""event"",""trial"",""time""
""focus"",""0"",""6831""
""fullscreenenter"",""0"",""11179""
","
","""event"",""trial"",""time""
""focus"",""0"",""6831""
","""event"",""trial"",""time""
""fullscreenenter"",""0"",""11179""
","
",NA,NA,NA,NA,exp,NA,NA,<img src='img/tf1_56_T1_ss1_md.jpeg'></img>,0,FALSE,NA,sub82
NA,html-keyboard-response,125,553373,0.0-10.0-0.56,"""event"",""trial"",""time""
""focus"",""0"",""6831""
""fullscreenenter"",""0"",""11179""
","
","""event"",""trial"",""time""
""focus"",""0"",""6831""
","""event"",""trial"",""time""
""fullscreenenter"",""0"",""11179""
","
",null,"<div style=""font-size:60px;"">+</div>",NA,null,fixation,2020-06-16T18:24:29Z,NA,NA,NA,NA,NA,sub82
NA,audio-button-response,126,557169,0.0-11.0,"""event"",""trial"",""time""
""focus"",""0"",""6831""
""fullscreenenter"",""0"",""11179""
","
","""event"",""trial"",""time""
""focus"",""0"",""6831""
","""event"",""trial"",""time""
""fullscreenenter"",""0"",""11179""
","
",3693,audio/mars_instructions_slide5.wav,0,NA,NA,NA,NA,NA,NA,NA,NA,sub82
