success,trial_type,trial_index,time_elapsed,internal_node_id,interactions,blur_events,focus_events,fullscreenenter_events,fullscreenexit_events,rt,stimulus,button_pressed,key_press,part,timestamp,unshuffled_button,correct_response,correct_button,correct,value,subject_id
TRUE,fullscreen,0,91200,0.0-0.0,"""event"",""trial"",""time""
""fullscreenenter"",""0"",""90347""
","
","
","""event"",""trial"",""time""
""fullscreenenter"",""0"",""90347""
","
",NA,NA,NA,NA,NA,NA,NA,NA,NA,NA,NA,sub43
NA,pavlovia,1,91207,0.0-1.0,"""event"",""trial"",""time""
""fullscreenenter"",""0"",""90347""
","
","
","""event"",""trial"",""time""
""fullscreenenter"",""0"",""90347""
","
",NA,NA,NA,NA,NA,NA,NA,NA,NA,NA,NA,sub43
NA,html-button-response,2,93172,0.0-2.0,"""event"",""trial"",""time""
""fullscreenenter"",""0"",""90347""
","
","
","""event"",""trial"",""time""
""fullscreenenter"",""0"",""90347""
","
",1960.785000002943,<p>Welcome! Press START to begin.</p><br>,0,NA,NA,NA,NA,NA,NA,NA,NA,sub43
NA,audio-button-response,3,96171,0.0-3.0,"""event"",""trial"",""time""
""fullscreenenter"",""0"",""90347""
","
","
","""event"",""trial"",""time""
""fullscreenenter"",""0"",""90347""
","
",2990.8699999796227,audio/mars_instructions_slide2.wav,0,NA,NA,NA,NA,NA,NA,NA,NA,sub43
NA,audio-button-response,4,99867,0.0-4.0,"""event"",""trial"",""time""
""fullscreenenter"",""0"",""90347""
","
","
","""event"",""trial"",""time""
""fullscreenenter"",""0"",""90347""
","
",3692.479999968782,audio/mars_instructions_slide3.wav,0,NA,NA,NA,NA,NA,NA,NA,NA,sub43
NA,html-keyboard-response,5,100369,0.0-5.0-0.0,"""event"",""trial"",""time""
""fullscreenenter"",""0"",""90347""
","
","
","""event"",""trial"",""time""
""fullscreenenter"",""0"",""90347""
","
",null,"<div style=""font-size:60px;"">+</div>",NA,null,fixation,2020-06-17T15:39:26Z,NA,NA,NA,NA,NA,sub43
NA,mars-trial,6,104955,0.0-5.0-1.0,"""event"",""trial"",""time""
""fullscreenenter"",""0"",""90347""
","
","
","""event"",""trial"",""time""
""fullscreenenter"",""0"",""90347""
","
",2473.490000003949,<img style='border: 4px solid darkgrey;' src='practice/pt1_M1.png'></img>,2,NA,practice,NA,0,<img src='practice/pt1_T1.png'></img>,0,TRUE,NA,sub43
NA,html-keyboard-response,7,105460,0.0-6.0-0.0,"""event"",""trial"",""time""
""fullscreenenter"",""0"",""90347""
","
","
","""event"",""trial"",""time""
""fullscreenenter"",""0"",""90347""
","
",null,"<div style=""font-size:60px;"">+</div>",NA,null,fixation,2020-06-17T15:39:31Z,NA,NA,NA,NA,NA,sub43
NA,mars-trial,8,110220,0.0-6.0-1.0,"""event"",""trial"",""time""
""fullscreenenter"",""0"",""90347""
","
","
","""event"",""trial"",""time""
""fullscreenenter"",""0"",""90347""
","
",2650.2250001067296,<img style='border: 4px solid darkgrey;' src='practice/pt2_M1.png'></img>,3,NA,practice,NA,0,<img src='practice/pt2_T1.png'></img>,0,TRUE,NA,sub43
NA,html-keyboard-response,9,110723,0.0-7.0-0.0,"""event"",""trial"",""time""
""fullscreenenter"",""0"",""90347""
","
","
","""event"",""trial"",""time""
""fullscreenenter"",""0"",""90347""
","
",null,"<div style=""font-size:60px;"">+</div>",NA,null,fixation,2020-06-17T15:39:37Z,NA,NA,NA,NA,NA,sub43
NA,mars-trial,10,114471,0.0-7.0-1.0,"""event"",""trial"",""time""
""fullscreenenter"",""0"",""90347""
","
","
","""event"",""trial"",""time""
""fullscreenenter"",""0"",""90347""
","
",1637.9599999636412,<img style='border: 4px solid darkgrey;' src='practice/pt3_M1.png'></img>,2,NA,practice,NA,0,<img src='practice/pt3_T1.png'></img>,0,TRUE,NA,sub43
NA,audio-button-response,11,116060,0.0-8.0,"""event"",""trial"",""time""
""fullscreenenter"",""0"",""90347""
","
","
","""event"",""trial"",""time""
""fullscreenenter"",""0"",""90347""
","
",1583.9100000448525,audio/mars_instructions_slide4.wav,0,NA,NA,NA,NA,NA,NA,NA,NA,sub43
NA,call-function,12,116062,0.0-9.0,"""event"",""trial"",""time""
""fullscreenenter"",""0"",""90347""
","
","
","""event"",""trial"",""time""
""fullscreenenter"",""0"",""90347""
","
",NA,NA,NA,NA,NA,NA,NA,NA,NA,NA,NA,sub43
NA,html-keyboard-response,13,116563,0.0-10.0-0.0,"""event"",""trial"",""time""
""fullscreenenter"",""0"",""90347""
","
","
","""event"",""trial"",""time""
""fullscreenenter"",""0"",""90347""
","
",null,"<div style=""font-size:60px;"">+</div>",NA,null,fixation,2020-06-17T15:39:42Z,NA,NA,NA,NA,NA,sub43
NA,mars-trial,14,118355,0.0-10.0-1.0,"""event"",""trial"",""time""
""fullscreenenter"",""0"",""90347""
","
","
","""event"",""trial"",""time""
""fullscreenenter"",""0"",""90347""
","
",1181.0350000159815,<img style='border: 4px solid darkgrey;' src='img/tf1_1_M_ss3.jpeg'></img>,2,NA,exp,NA,2,<img src='img/tf1_1_T1_ss3_md.jpeg'></img>,0,FALSE,NA,sub43
NA,html-keyboard-response,15,118858,0.0-10.0-0.1,"""event"",""trial"",""time""
""fullscreenenter"",""0"",""90347""
","
","
","""event"",""trial"",""time""
""fullscreenenter"",""0"",""90347""
","
",null,"<div style=""font-size:60px;"">+</div>",NA,null,fixation,2020-06-17T15:39:45Z,NA,NA,NA,NA,NA,sub43
NA,mars-trial,16,121516,0.0-10.0-1.1,"""event"",""trial"",""time""
""fullscreenenter"",""0"",""90347""
","
","
","""event"",""trial"",""time""
""fullscreenenter"",""0"",""90347""
","
",2051.835000049323,<img style='border: 4px solid darkgrey;' src='img/tf1_2_M_ss1.jpeg'></img>,1,NA,exp,NA,0,<img src='img/tf1_2_T1_ss1_md.jpeg'></img>,0,TRUE,NA,sub43
NA,html-keyboard-response,17,122019,0.0-10.0-0.2,"""event"",""trial"",""time""
""fullscreenenter"",""0"",""90347""
","
","
","""event"",""trial"",""time""
""fullscreenenter"",""0"",""90347""
","
",null,"<div style=""font-size:60px;"">+</div>",NA,null,fixation,2020-06-17T15:39:48Z,NA,NA,NA,NA,NA,sub43
NA,mars-trial,18,124884,0.0-10.0-1.2,"""event"",""trial"",""time""
""fullscreenenter"",""0"",""90347""
","
","
","""event"",""trial"",""time""
""fullscreenenter"",""0"",""90347""
","
",2258.1100000534207,<img style='border: 4px solid darkgrey;' src='img/tf1_3_M_ss2.jpeg'></img>,1,NA,exp,NA,0,<img src='img/tf1_3_T1_ss2_md.jpeg'></img>,0,TRUE,NA,sub43
NA,html-keyboard-response,19,125386,0.0-10.0-0.3,"""event"",""trial"",""time""
""fullscreenenter"",""0"",""90347""
","
","
","""event"",""trial"",""time""
""fullscreenenter"",""0"",""90347""
","
",null,"<div style=""font-size:60px;"">+</div>",NA,null,fixation,2020-06-17T15:39:51Z,NA,NA,NA,NA,NA,sub43
NA,mars-trial,20,128233,0.0-10.0-1.3,"""event"",""trial"",""time""
""fullscreenenter"",""0"",""90347""
","
","
","""event"",""trial"",""time""
""fullscreenenter"",""0"",""90347""
","
",2233.520000008866,<img style='border: 4px solid darkgrey;' src='img/tf1_4_M_ss3.jpeg'></img>,2,NA,exp,NA,0,<img src='img/tf1_4_T1_ss3_md.jpeg'></img>,0,TRUE,NA,sub43
NA,html-keyboard-response,21,128736,0.0-10.0-0.4,"""event"",""trial"",""time""
""fullscreenenter"",""0"",""90347""
","
","
","""event"",""trial"",""time""
""fullscreenenter"",""0"",""90347""
","
",null,"<div style=""font-size:60px;"">+</div>",NA,null,fixation,2020-06-17T15:39:55Z,NA,NA,NA,NA,NA,sub43
NA,mars-trial,22,131511,0.0-10.0-1.4,"""event"",""trial"",""time""
""fullscreenenter"",""0"",""90347""
","
","
","""event"",""trial"",""time""
""fullscreenenter"",""0"",""90347""
","
",2167.7599999820814,<img style='border: 4px solid darkgrey;' src='img/tf1_5_M_ss1.jpeg'></img>,0,NA,exp,NA,0,<img src='img/tf1_5_T1_ss1_md.jpeg'></img>,0,TRUE,NA,sub43
NA,html-keyboard-response,23,132013,0.0-10.0-0.5,"""event"",""trial"",""time""
""fullscreenenter"",""0"",""90347""
","
","
","""event"",""trial"",""time""
""fullscreenenter"",""0"",""90347""
","
",null,"<div style=""font-size:60px;"">+</div>",NA,null,fixation,2020-06-17T15:39:58Z,NA,NA,NA,NA,NA,sub43
NA,mars-trial,24,140593,0.0-10.0-1.5,"""event"",""trial"",""time""
""fullscreenenter"",""0"",""90347""
","
","
","""event"",""trial"",""time""
""fullscreenenter"",""0"",""90347""
","
",7971.984999952838,<img style='border: 4px solid darkgrey;' src='img/tf1_6_M_ss2.jpeg'></img>,0,NA,exp,NA,0,<img src='img/tf1_6_T1_ss2_md.jpeg'></img>,0,TRUE,NA,sub43
NA,html-keyboard-response,25,141096,0.0-10.0-0.6,"""event"",""trial"",""time""
""fullscreenenter"",""0"",""90347""
","
","
","""event"",""trial"",""time""
""fullscreenenter"",""0"",""90347""
","
",null,"<div style=""font-size:60px;"">+</div>",NA,null,fixation,2020-06-17T15:40:07Z,NA,NA,NA,NA,NA,sub43
NA,mars-trial,26,145205,0.0-10.0-1.6,"""event"",""trial"",""time""
""fullscreenenter"",""0"",""90347""
","
","
","""event"",""trial"",""time""
""fullscreenenter"",""0"",""90347""
","
",3500.0349999172613,<img style='border: 4px solid darkgrey;' src='img/tf1_7_M_ss3.jpeg'></img>,2,NA,exp,NA,0,<img src='img/tf1_7_T1_ss3_md.jpeg'></img>,0,TRUE,NA,sub43
NA,html-keyboard-response,27,145708,0.0-10.0-0.7,"""event"",""trial"",""time""
""fullscreenenter"",""0"",""90347""
","
","
","""event"",""trial"",""time""
""fullscreenenter"",""0"",""90347""
","
",null,"<div style=""font-size:60px;"">+</div>",NA,null,fixation,2020-06-17T15:40:12Z,NA,NA,NA,NA,NA,sub43
NA,mars-trial,28,149000,0.0-10.0-1.7,"""event"",""trial"",""time""
""fullscreenenter"",""0"",""90347""
","
","
","""event"",""trial"",""time""
""fullscreenenter"",""0"",""90347""
","
",2684.019999927841,<img style='border: 4px solid darkgrey;' src='img/tf1_8_M_ss1.jpeg'></img>,2,NA,exp,NA,0,<img src='img/tf1_8_T1_ss1_md.jpeg'></img>,0,TRUE,NA,sub43
NA,html-keyboard-response,29,149503,0.0-10.0-0.8,"""event"",""trial"",""time""
""fullscreenenter"",""0"",""90347""
","
","
","""event"",""trial"",""time""
""fullscreenenter"",""0"",""90347""
","
",null,"<div style=""font-size:60px;"">+</div>",NA,null,fixation,2020-06-17T15:40:15Z,NA,NA,NA,NA,NA,sub43
NA,mars-trial,30,160461,0.0-10.0-1.8,"""event"",""trial"",""time""
""fullscreenenter"",""0"",""90347""
","
","
","""event"",""trial"",""time""
""fullscreenenter"",""0"",""90347""
","
",10347.829999984242,<img style='border: 4px solid darkgrey;' src='img/tf1_9_M_ss2.jpeg'></img>,0,NA,exp,NA,3,<img src='img/tf1_9_T1_ss2_md.jpeg'></img>,0,FALSE,NA,sub43
NA,html-keyboard-response,31,160964,0.0-10.0-0.9,"""event"",""trial"",""time""
""fullscreenenter"",""0"",""90347""
","
","
","""event"",""trial"",""time""
""fullscreenenter"",""0"",""90347""
","
",null,"<div style=""font-size:60px;"">+</div>",NA,null,fixation,2020-06-17T15:40:27Z,NA,NA,NA,NA,NA,sub43
NA,mars-trial,32,170639,0.0-10.0-1.9,"""event"",""trial"",""time""
""fullscreenenter"",""0"",""90347""
","
","
","""event"",""trial"",""time""
""fullscreenenter"",""0"",""90347""
","
",9067.46499997098,<img style='border: 4px solid darkgrey;' src='img/tf1_10_M_ss3.jpeg'></img>,3,NA,exp,NA,1,<img src='img/tf1_10_T1_ss3_md.jpeg'></img>,0,FALSE,NA,sub43
NA,html-keyboard-response,33,171141,0.0-10.0-0.10,"""event"",""trial"",""time""
""fullscreenenter"",""0"",""90347""
","
","
","""event"",""trial"",""time""
""fullscreenenter"",""0"",""90347""
","
",null,"<div style=""font-size:60px;"">+</div>",NA,null,fixation,2020-06-17T15:40:37Z,NA,NA,NA,NA,NA,sub43
NA,mars-trial,34,181796,0.0-10.0-1.10,"""event"",""trial"",""time""
""fullscreenenter"",""0"",""90347""
","
","
","""event"",""trial"",""time""
""fullscreenenter"",""0"",""90347""
","
",10046.280000009574,<img style='border: 4px solid darkgrey;' src='img/tf1_11_M_ss1.jpeg'></img>,0,NA,exp,NA,3,<img src='img/tf1_11_T1_ss1_md.jpeg'></img>,0,FALSE,NA,sub43
NA,html-keyboard-response,35,182297,0.0-10.0-0.11,"""event"",""trial"",""time""
""fullscreenenter"",""0"",""90347""
","
","
","""event"",""trial"",""time""
""fullscreenenter"",""0"",""90347""
","
",null,"<div style=""font-size:60px;"">+</div>",NA,null,fixation,2020-06-17T15:40:48Z,NA,NA,NA,NA,NA,sub43
NA,mars-trial,36,195052,0.0-10.0-1.11,"""event"",""trial"",""time""
""fullscreenenter"",""0"",""90347""
","
","
","""event"",""trial"",""time""
""fullscreenenter"",""0"",""90347""
","
",12142.319999984466,<img style='border: 4px solid darkgrey;' src='img/tf1_12_M_ss2.jpeg'></img>,1,NA,exp,NA,1,<img src='img/tf1_12_T1_ss2_md.jpeg'></img>,0,FALSE,NA,sub43
NA,html-keyboard-response,37,195555,0.0-10.0-0.12,"""event"",""trial"",""time""
""fullscreenenter"",""0"",""90347""
","
","
","""event"",""trial"",""time""
""fullscreenenter"",""0"",""90347""
","
",null,"<div style=""font-size:60px;"">+</div>",NA,null,fixation,2020-06-17T15:41:01Z,NA,NA,NA,NA,NA,sub43
NA,mars-trial,38,212378,0.0-10.0-1.12,"""event"",""trial"",""time""
""fullscreenenter"",""0"",""90347""
","
","
","""event"",""trial"",""time""
""fullscreenenter"",""0"",""90347""
","
",16212.785000097938,<img style='border: 4px solid darkgrey;' src='img/tf1_13_M_ss3.jpeg'></img>,3,NA,exp,NA,2,<img src='img/tf1_13_T1_ss3_md.jpeg'></img>,0,FALSE,NA,sub43
NA,html-keyboard-response,39,212879,0.0-10.0-0.13,"""event"",""trial"",""time""
""fullscreenenter"",""0"",""90347""
","
","
","""event"",""trial"",""time""
""fullscreenenter"",""0"",""90347""
","
",null,"<div style=""font-size:60px;"">+</div>",NA,null,fixation,2020-06-17T15:41:19Z,NA,NA,NA,NA,NA,sub43
NA,mars-trial,40,219681,0.0-10.0-1.13,"""event"",""trial"",""time""
""fullscreenenter"",""0"",""90347""
","
","
","""event"",""trial"",""time""
""fullscreenenter"",""0"",""90347""
","
",6193.670000066049,<img style='border: 4px solid darkgrey;' src='img/tf1_14_M_ss1.jpeg'></img>,1,NA,exp,NA,0,<img src='img/tf1_14_T1_ss1_md.jpeg'></img>,0,TRUE,NA,sub43
NA,html-keyboard-response,41,220191,0.0-10.0-0.14,"""event"",""trial"",""time""
""fullscreenenter"",""0"",""90347""
","
","
","""event"",""trial"",""time""
""fullscreenenter"",""0"",""90347""
","
",null,"<div style=""font-size:60px;"">+</div>",NA,null,fixation,2020-06-17T15:41:26Z,NA,NA,NA,NA,NA,sub43
NA,mars-trial,42,233781,0.0-10.0-1.14,"""event"",""trial"",""time""
""fullscreenenter"",""0"",""90347""
","
","
","""event"",""trial"",""time""
""fullscreenenter"",""0"",""90347""
","
",12983.89999999199,<img style='border: 4px solid darkgrey;' src='img/tf1_15_M_ss2.jpeg'></img>,2,NA,exp,NA,2,<img src='img/tf1_15_T1_ss2_md.jpeg'></img>,0,FALSE,NA,sub43
NA,html-keyboard-response,43,234284,0.0-10.0-0.15,"""event"",""trial"",""time""
""fullscreenenter"",""0"",""90347""
","
","
","""event"",""trial"",""time""
""fullscreenenter"",""0"",""90347""
","
",null,"<div style=""font-size:60px;"">+</div>",NA,null,fixation,2020-06-17T15:41:40Z,NA,NA,NA,NA,NA,sub43
NA,mars-trial,44,241175,0.0-10.0-1.15,"""event"",""trial"",""time""
""fullscreenenter"",""0"",""90347""
","
","
","""event"",""trial"",""time""
""fullscreenenter"",""0"",""90347""
","
",6283.814999973401,<img style='border: 4px solid darkgrey;' src='img/tf1_16_M_ss3.jpeg'></img>,0,NA,exp,NA,3,<img src='img/tf1_16_T1_ss3_md.jpeg'></img>,0,FALSE,NA,sub43
NA,html-keyboard-response,45,241678,0.0-10.0-0.16,"""event"",""trial"",""time""
""fullscreenenter"",""0"",""90347""
","
","
","""event"",""trial"",""time""
""fullscreenenter"",""0"",""90347""
","
",null,"<div style=""font-size:60px;"">+</div>",NA,null,fixation,2020-06-17T15:41:47Z,NA,NA,NA,NA,NA,sub43
NA,mars-trial,46,250623,0.0-10.0-1.16,"""event"",""trial"",""time""
""fullscreenenter"",""0"",""90347""
","
","
","""event"",""trial"",""time""
""fullscreenenter"",""0"",""90347""
","
",8337.424999917857,<img style='border: 4px solid darkgrey;' src='img/tf1_17_M_ss1.jpeg'></img>,3,NA,exp,NA,2,<img src='img/tf1_17_T1_ss1_md.jpeg'></img>,0,FALSE,NA,sub43
NA,html-keyboard-response,47,251126,0.0-10.0-0.17,"""event"",""trial"",""time""
""fullscreenenter"",""0"",""90347""
","
","
","""event"",""trial"",""time""
""fullscreenenter"",""0"",""90347""
","
",null,"<div style=""font-size:60px;"">+</div>",NA,null,fixation,2020-06-17T15:41:57Z,NA,NA,NA,NA,NA,sub43
NA,mars-trial,48,259037,0.0-10.0-1.17,"""event"",""trial"",""time""
""fullscreenenter"",""0"",""90347""
","
","
","""event"",""trial"",""time""
""fullscreenenter"",""0"",""90347""
","
",7303.544999915175,<img style='border: 4px solid darkgrey;' src='img/tf1_18_M_ss2.jpeg'></img>,2,NA,exp,NA,1,<img src='img/tf1_18_T1_ss2_md.jpeg'></img>,0,FALSE,NA,sub43
NA,html-keyboard-response,49,259539,0.0-10.0-0.18,"""event"",""trial"",""time""
""fullscreenenter"",""0"",""90347""
","
","
","""event"",""trial"",""time""
""fullscreenenter"",""0"",""90347""
","
",null,"<div style=""font-size:60px;"">+</div>",NA,null,fixation,2020-06-17T15:42:05Z,NA,NA,NA,NA,NA,sub43
NA,mars-trial,50,265544,0.0-10.0-1.18,"""event"",""trial"",""time""
""fullscreenenter"",""0"",""90347""
","
","
","""event"",""trial"",""time""
""fullscreenenter"",""0"",""90347""
","
",5398.015000042506,<img style='border: 4px solid darkgrey;' src='img/tf1_19_M_ss3.jpeg'></img>,1,NA,exp,NA,0,<img src='img/tf1_19_T1_ss3_md.jpeg'></img>,0,TRUE,NA,sub43
NA,html-keyboard-response,51,266046,0.0-10.0-0.19,"""event"",""trial"",""time""
""fullscreenenter"",""0"",""90347""
","
","
","""event"",""trial"",""time""
""fullscreenenter"",""0"",""90347""
","
",null,"<div style=""font-size:60px;"">+</div>",NA,null,fixation,2020-06-17T15:42:12Z,NA,NA,NA,NA,NA,sub43
NA,mars-trial,52,273056,0.0-10.0-1.19,"""event"",""trial"",""time""
""fullscreenenter"",""0"",""90347""
","
","
","""event"",""trial"",""time""
""fullscreenenter"",""0"",""90347""
","
",6401.534999953583,<img style='border: 4px solid darkgrey;' src='img/tf1_20_M_ss1.jpeg'></img>,3,NA,exp,NA,0,<img src='img/tf1_20_T1_ss1_md.jpeg'></img>,0,TRUE,NA,sub43
NA,html-keyboard-response,53,273559,0.0-10.0-0.20,"""event"",""trial"",""time""
""fullscreenenter"",""0"",""90347""
","
","
","""event"",""trial"",""time""
""fullscreenenter"",""0"",""90347""
","
",null,"<div style=""font-size:60px;"">+</div>",NA,null,fixation,2020-06-17T15:42:19Z,NA,NA,NA,NA,NA,sub43
NA,mars-trial,54,285139,0.0-10.0-1.20,"""event"",""trial"",""time""
""fullscreenenter"",""0"",""90347""
","
","
","""event"",""trial"",""time""
""fullscreenenter"",""0"",""90347""
","
",10973.475000006147,<img style='border: 4px solid darkgrey;' src='img/tf1_21_M_ss2.jpeg'></img>,0,NA,exp,NA,3,<img src='img/tf1_21_T1_ss2_md.jpeg'></img>,0,FALSE,NA,sub43
NA,html-keyboard-response,55,285641,0.0-10.0-0.21,"""event"",""trial"",""time""
""fullscreenenter"",""0"",""90347""
","
","
","""event"",""trial"",""time""
""fullscreenenter"",""0"",""90347""
","
",null,"<div style=""font-size:60px;"">+</div>",NA,null,fixation,2020-06-17T15:42:31Z,NA,NA,NA,NA,NA,sub43
NA,mars-trial,56,291496,0.0-10.0-1.21,"""event"",""trial"",""time""
""fullscreenenter"",""0"",""90347""
","
","
","""event"",""trial"",""time""
""fullscreenenter"",""0"",""90347""
","
",5244.775000028312,<img style='border: 4px solid darkgrey;' src='img/tf1_22_M_ss3.jpeg'></img>,1,NA,exp,NA,3,<img src='img/tf1_22_T1_ss3_md.jpeg'></img>,0,FALSE,NA,sub43
NA,html-keyboard-response,57,291999,0.0-10.0-0.22,"""event"",""trial"",""time""
""fullscreenenter"",""0"",""90347""
","
","
","""event"",""trial"",""time""
""fullscreenenter"",""0"",""90347""
","
",null,"<div style=""font-size:60px;"">+</div>",NA,null,fixation,2020-06-17T15:42:38Z,NA,NA,NA,NA,NA,sub43
NA,mars-trial,58,300212,0.0-10.0-1.22,"""event"",""trial"",""time""
""fullscreenenter"",""0"",""90347""
","
","
","""event"",""trial"",""time""
""fullscreenenter"",""0"",""90347""
","
",7603.9649999001995,<img style='border: 4px solid darkgrey;' src='img/tf1_23_M_ss1.jpeg'></img>,1,NA,exp,NA,1,<img src='img/tf1_23_T1_ss1_md.jpeg'></img>,0,FALSE,NA,sub43
NA,html-keyboard-response,59,300715,0.0-10.0-0.23,"""event"",""trial"",""time""
""fullscreenenter"",""0"",""90347""
","
","
","""event"",""trial"",""time""
""fullscreenenter"",""0"",""90347""
","
",null,"<div style=""font-size:60px;"">+</div>",NA,null,fixation,2020-06-17T15:42:47Z,NA,NA,NA,NA,NA,sub43
NA,mars-trial,60,309387,0.0-10.0-1.23,"""event"",""trial"",""time""
""fullscreenenter"",""0"",""90347""
","
","
","""event"",""trial"",""time""
""fullscreenenter"",""0"",""90347""
","
",8059.300000080839,<img style='border: 4px solid darkgrey;' src='img/tf1_24_M_ss2.jpeg'></img>,1,NA,exp,NA,1,<img src='img/tf1_24_T1_ss2_md.jpeg'></img>,0,FALSE,NA,sub43
NA,html-keyboard-response,61,309890,0.0-10.0-0.24,"""event"",""trial"",""time""
""fullscreenenter"",""0"",""90347""
","
","
","""event"",""trial"",""time""
""fullscreenenter"",""0"",""90347""
","
",null,"<div style=""font-size:60px;"">+</div>",NA,null,fixation,2020-06-17T15:42:56Z,NA,NA,NA,NA,NA,sub43
NA,mars-trial,62,317308,0.0-10.0-1.24,"""event"",""trial"",""time""
""fullscreenenter"",""0"",""90347""
","
","
","""event"",""trial"",""time""
""fullscreenenter"",""0"",""90347""
","
",6801.375000039116,<img style='border: 4px solid darkgrey;' src='img/tf1_25_M_ss3.jpeg'></img>,2,NA,exp,NA,0,<img src='img/tf1_25_T1_ss3_md.jpeg'></img>,0,TRUE,NA,sub43
NA,html-keyboard-response,63,317810,0.0-10.0-0.25,"""event"",""trial"",""time""
""fullscreenenter"",""0"",""90347""
","
","
","""event"",""trial"",""time""
""fullscreenenter"",""0"",""90347""
","
",null,"<div style=""font-size:60px;"">+</div>",NA,null,fixation,2020-06-17T15:43:04Z,NA,NA,NA,NA,NA,sub43
NA,mars-trial,64,326211,0.0-10.0-1.25,"""event"",""trial"",""time""
""fullscreenenter"",""0"",""90347""
","
","
","""event"",""trial"",""time""
""fullscreenenter"",""0"",""90347""
","
",7792.164999991655,<img style='border: 4px solid darkgrey;' src='img/tf1_26_M_ss1.jpeg'></img>,0,NA,exp,NA,2,<img src='img/tf1_26_T1_ss1_md.jpeg'></img>,0,FALSE,NA,sub43
NA,html-keyboard-response,65,326713,0.0-10.0-0.26,"""event"",""trial"",""time""
""fullscreenenter"",""0"",""90347""
","
","
","""event"",""trial"",""time""
""fullscreenenter"",""0"",""90347""
","
",null,"<div style=""font-size:60px;"">+</div>",NA,null,fixation,2020-06-17T15:43:13Z,NA,NA,NA,NA,NA,sub43
NA,mars-trial,66,336393,0.0-10.0-1.26,"""event"",""trial"",""time""
""fullscreenenter"",""0"",""90347""
","
","
","""event"",""trial"",""time""
""fullscreenenter"",""0"",""90347""
","
",9066.115000052378,<img style='border: 4px solid darkgrey;' src='img/tf1_27_M_ss2.jpeg'></img>,0,NA,exp,NA,3,<img src='img/tf1_27_T1_ss2_md.jpeg'></img>,0,FALSE,NA,sub43
NA,html-keyboard-response,67,336895,0.0-10.0-0.27,"""event"",""trial"",""time""
""fullscreenenter"",""0"",""90347""
","
","
","""event"",""trial"",""time""
""fullscreenenter"",""0"",""90347""
","
",null,"<div style=""font-size:60px;"">+</div>",NA,null,fixation,2020-06-17T15:43:23Z,NA,NA,NA,NA,NA,sub43
NA,mars-trial,68,348282,0.0-10.0-1.27,"""event"",""trial"",""time""
""fullscreenenter"",""0"",""90347""
","
","
","""event"",""trial"",""time""
""fullscreenenter"",""0"",""90347""
","
",10777.750000008382,<img style='border: 4px solid darkgrey;' src='img/tf1_28_M_ss3.jpeg'></img>,3,NA,exp,NA,1,<img src='img/tf1_28_T1_ss3_md.jpeg'></img>,0,FALSE,NA,sub43
NA,html-keyboard-response,69,348784,0.0-10.0-0.28,"""event"",""trial"",""time""
""fullscreenenter"",""0"",""90347""
","
","
","""event"",""trial"",""time""
""fullscreenenter"",""0"",""90347""
","
",null,"<div style=""font-size:60px;"">+</div>",NA,null,fixation,2020-06-17T15:43:35Z,NA,NA,NA,NA,NA,sub43
NA,mars-trial,70,357402,0.0-10.0-1.28,"""event"",""trial"",""time""
""fullscreenenter"",""0"",""90347""
","
","
","""event"",""trial"",""time""
""fullscreenenter"",""0"",""90347""
","
",8008.710000081919,<img style='border: 4px solid darkgrey;' src='img/tf1_29_M_ss1.jpeg'></img>,1,NA,exp,NA,1,<img src='img/tf1_29_T1_ss1_md.jpeg'></img>,0,FALSE,NA,sub43
NA,html-keyboard-response,71,357904,0.0-10.0-0.29,"""event"",""trial"",""time""
""fullscreenenter"",""0"",""90347""
","
","
","""event"",""trial"",""time""
""fullscreenenter"",""0"",""90347""
","
",null,"<div style=""font-size:60px;"">+</div>",NA,null,fixation,2020-06-17T15:43:44Z,NA,NA,NA,NA,NA,sub43
NA,mars-trial,72,371680,0.0-10.0-1.29,"""event"",""trial"",""time""
""fullscreenenter"",""0"",""90347""
","
","
","""event"",""trial"",""time""
""fullscreenenter"",""0"",""90347""
","
",13168.610000051558,<img style='border: 4px solid darkgrey;' src='img/tf1_30_M_ss2.jpeg'></img>,1,NA,exp,NA,1,<img src='img/tf1_30_T1_ss2_md.jpeg'></img>,0,FALSE,NA,sub43
NA,html-keyboard-response,73,372183,0.0-10.0-0.30,"""event"",""trial"",""time""
""fullscreenenter"",""0"",""90347""
","
","
","""event"",""trial"",""time""
""fullscreenenter"",""0"",""90347""
","
",null,"<div style=""font-size:60px;"">+</div>",NA,null,fixation,2020-06-17T15:43:58Z,NA,NA,NA,NA,NA,sub43
NA,mars-trial,74,382345,0.0-10.0-1.30,"""event"",""trial"",""time""
""fullscreenenter"",""0"",""90347""
","
","
","""event"",""trial"",""time""
""fullscreenenter"",""0"",""90347""
","
",9554.955000057817,<img style='border: 4px solid darkgrey;' src='img/tf1_31_M_ss3.jpeg'></img>,0,NA,exp,NA,0,<img src='img/tf1_31_T1_ss3_md.jpeg'></img>,0,TRUE,NA,sub43
NA,html-keyboard-response,75,382848,0.0-10.0-0.31,"""event"",""trial"",""time""
""fullscreenenter"",""0"",""90347""
","
","
","""event"",""trial"",""time""
""fullscreenenter"",""0"",""90347""
","
",null,"<div style=""font-size:60px;"">+</div>",NA,null,fixation,2020-06-17T15:44:09Z,NA,NA,NA,NA,NA,sub43
NA,mars-trial,76,391087,0.0-10.0-1.31,"""event"",""trial"",""time""
""fullscreenenter"",""0"",""90347""
","
","
","""event"",""trial"",""time""
""fullscreenenter"",""0"",""90347""
","
",7628.924999968149,<img style='border: 4px solid darkgrey;' src='img/tf1_32_M_ss1.jpeg'></img>,3,NA,exp,NA,0,<img src='img/tf1_32_T1_ss1_md.jpeg'></img>,0,TRUE,NA,sub43
NA,html-keyboard-response,77,391589,0.0-10.0-0.32,"""event"",""trial"",""time""
""fullscreenenter"",""0"",""90347""
","
","
","""event"",""trial"",""time""
""fullscreenenter"",""0"",""90347""
","
",null,"<div style=""font-size:60px;"">+</div>",NA,null,fixation,2020-06-17T15:44:17Z,NA,NA,NA,NA,NA,sub43
NA,mars-trial,78,399269,0.0-10.0-1.32,"""event"",""trial"",""time""
""fullscreenenter"",""0"",""90347""
","
","
","""event"",""trial"",""time""
""fullscreenenter"",""0"",""90347""
","
",7070.410000043921,<img style='border: 4px solid darkgrey;' src='img/tf1_33_M_ss2.jpeg'></img>,3,NA,exp,NA,0,<img src='img/tf1_33_T1_ss2_md.jpeg'></img>,0,TRUE,NA,sub43
NA,html-keyboard-response,79,399771,0.0-10.0-0.33,"""event"",""trial"",""time""
""fullscreenenter"",""0"",""90347""
","
","
","""event"",""trial"",""time""
""fullscreenenter"",""0"",""90347""
","
",null,"<div style=""font-size:60px;"">+</div>",NA,null,fixation,2020-06-17T15:44:26Z,NA,NA,NA,NA,NA,sub43
NA,mars-trial,80,414563,0.0-10.0-1.33,"""event"",""trial"",""time""
""fullscreenenter"",""0"",""90347""
","
","
","""event"",""trial"",""time""
""fullscreenenter"",""0"",""90347""
","
",14183.829999994487,<img style='border: 4px solid darkgrey;' src='img/tf1_34_M_ss3.jpeg'></img>,3,NA,exp,NA,2,<img src='img/tf1_34_T1_ss3_md.jpeg'></img>,0,FALSE,NA,sub43
NA,html-keyboard-response,81,415066,0.0-10.0-0.34,"""event"",""trial"",""time""
""fullscreenenter"",""0"",""90347""
","
","
","""event"",""trial"",""time""
""fullscreenenter"",""0"",""90347""
","
",null,"<div style=""font-size:60px;"">+</div>",NA,null,fixation,2020-06-17T15:44:41Z,NA,NA,NA,NA,NA,sub43
NA,mars-trial,82,420860,0.0-10.0-1.34,"""event"",""trial"",""time""
""fullscreenenter"",""0"",""90347""
","
","
","""event"",""trial"",""time""
""fullscreenenter"",""0"",""90347""
","
",5187.9200000548735,<img style='border: 4px solid darkgrey;' src='img/tf1_35_M_ss1.jpeg'></img>,3,NA,exp,NA,3,<img src='img/tf1_35_T1_ss1_md.jpeg'></img>,0,FALSE,NA,sub43
NA,html-keyboard-response,83,421362,0.0-10.0-0.35,"""event"",""trial"",""time""
""fullscreenenter"",""0"",""90347""
","
","
","""event"",""trial"",""time""
""fullscreenenter"",""0"",""90347""
","
",null,"<div style=""font-size:60px;"">+</div>",NA,null,fixation,2020-06-17T15:44:47Z,NA,NA,NA,NA,NA,sub43
NA,mars-trial,84,428364,0.0-10.0-1.35,"""event"",""trial"",""time""
""fullscreenenter"",""0"",""90347""
","
","
","""event"",""trial"",""time""
""fullscreenenter"",""0"",""90347""
","
",6394.514999934472,<img style='border: 4px solid darkgrey;' src='img/tf1_36_M_ss2.jpeg'></img>,2,NA,exp,NA,3,<img src='img/tf1_36_T1_ss2_md.jpeg'></img>,0,FALSE,NA,sub43
NA,html-keyboard-response,85,428866,0.0-10.0-0.36,"""event"",""trial"",""time""
""fullscreenenter"",""0"",""90347""
","
","
","""event"",""trial"",""time""
""fullscreenenter"",""0"",""90347""
","
",null,"<div style=""font-size:60px;"">+</div>",NA,null,fixation,2020-06-17T15:44:55Z,NA,NA,NA,NA,NA,sub43
NA,mars-trial,86,441364,0.0-10.0-1.36,"""event"",""trial"",""time""
""fullscreenenter"",""0"",""90347""
","
","
","""event"",""trial"",""time""
""fullscreenenter"",""0"",""90347""
","
",11889.064999995753,<img style='border: 4px solid darkgrey;' src='img/tf1_37_M_ss3.jpeg'></img>,1,NA,exp,NA,2,<img src='img/tf1_37_T1_ss3_md.jpeg'></img>,0,FALSE,NA,sub43
NA,html-keyboard-response,87,441867,0.0-10.0-0.37,"""event"",""trial"",""time""
""fullscreenenter"",""0"",""90347""
","
","
","""event"",""trial"",""time""
""fullscreenenter"",""0"",""90347""
","
",null,"<div style=""font-size:60px;"">+</div>",NA,null,fixation,2020-06-17T15:45:08Z,NA,NA,NA,NA,NA,sub43
NA,mars-trial,88,445378,0.0-10.0-1.37,"""event"",""trial"",""time""
""fullscreenenter"",""0"",""90347""
","
","
","""event"",""trial"",""time""
""fullscreenenter"",""0"",""90347""
","
",2905.235000071116,<img style='border: 4px solid darkgrey;' src='img/tf1_38_M_ss1.jpeg'></img>,2,NA,exp,NA,0,<img src='img/tf1_38_T1_ss1_md.jpeg'></img>,0,TRUE,NA,sub43
NA,html-keyboard-response,89,445881,0.0-10.0-0.38,"""event"",""trial"",""time""
""fullscreenenter"",""0"",""90347""
","
","
","""event"",""trial"",""time""
""fullscreenenter"",""0"",""90347""
","
",null,"<div style=""font-size:60px;"">+</div>",NA,null,fixation,2020-06-17T15:45:12Z,NA,NA,NA,NA,NA,sub43
NA,mars-trial,90,452571,0.0-10.0-1.38,"""event"",""trial"",""time""
""fullscreenenter"",""0"",""90347""
","
","
","""event"",""trial"",""time""
""fullscreenenter"",""0"",""90347""
","
",6082.109999959357,<img style='border: 4px solid darkgrey;' src='img/tf1_39_M_ss2.jpeg'></img>,1,NA,exp,NA,3,<img src='img/tf1_39_T1_ss2_md.jpeg'></img>,0,FALSE,NA,sub43
NA,html-keyboard-response,91,453074,0.0-10.0-0.39,"""event"",""trial"",""time""
""fullscreenenter"",""0"",""90347""
","
","
","""event"",""trial"",""time""
""fullscreenenter"",""0"",""90347""
","
",null,"<div style=""font-size:60px;"">+</div>",NA,null,fixation,2020-06-17T15:45:19Z,NA,NA,NA,NA,NA,sub43
NA,mars-trial,92,457735,0.0-10.0-1.39,"""event"",""trial"",""time""
""fullscreenenter"",""0"",""90347""
","
","
","""event"",""trial"",""time""
""fullscreenenter"",""0"",""90347""
","
",4054.065000033006,<img style='border: 4px solid darkgrey;' src='img/tf1_40_M_ss3.jpeg'></img>,3,NA,exp,NA,2,<img src='img/tf1_40_T1_ss3_md.jpeg'></img>,0,FALSE,NA,sub43
NA,html-keyboard-response,93,458238,0.0-10.0-0.40,"""event"",""trial"",""time""
""fullscreenenter"",""0"",""90347""
","
","
","""event"",""trial"",""time""
""fullscreenenter"",""0"",""90347""
","
",null,"<div style=""font-size:60px;"">+</div>",NA,null,fixation,2020-06-17T15:45:24Z,NA,NA,NA,NA,NA,sub43
NA,mars-trial,94,460957,0.0-10.0-1.40,"""event"",""trial"",""time""
""fullscreenenter"",""0"",""90347""
","
","
","""event"",""trial"",""time""
""fullscreenenter"",""0"",""90347""
","
",2112.3699999880046,<img style='border: 4px solid darkgrey;' src='img/tf1_41_M_ss1.jpeg'></img>,3,NA,exp,NA,0,<img src='img/tf1_41_T1_ss1_md.jpeg'></img>,0,TRUE,NA,sub43
NA,html-keyboard-response,95,461459,0.0-10.0-0.41,"""event"",""trial"",""time""
""fullscreenenter"",""0"",""90347""
","
","
","""event"",""trial"",""time""
""fullscreenenter"",""0"",""90347""
","
",null,"<div style=""font-size:60px;"">+</div>",NA,null,fixation,2020-06-17T15:45:27Z,NA,NA,NA,NA,NA,sub43
NA,mars-trial,96,468246,0.0-10.0-1.41,"""event"",""trial"",""time""
""fullscreenenter"",""0"",""90347""
","
","
","""event"",""trial"",""time""
""fullscreenenter"",""0"",""90347""
","
",6180.515000014566,<img style='border: 4px solid darkgrey;' src='img/tf1_42_M_ss2.jpeg'></img>,1,NA,exp,NA,0,<img src='img/tf1_42_T1_ss2_md.jpeg'></img>,0,TRUE,NA,sub43
NA,html-keyboard-response,97,468749,0.0-10.0-0.42,"""event"",""trial"",""time""
""fullscreenenter"",""0"",""90347""
","
","
","""event"",""trial"",""time""
""fullscreenenter"",""0"",""90347""
","
",null,"<div style=""font-size:60px;"">+</div>",NA,null,fixation,2020-06-17T15:45:35Z,NA,NA,NA,NA,NA,sub43
NA,mars-trial,98,473509,0.0-10.0-1.42,"""event"",""trial"",""time""
""fullscreenenter"",""0"",""90347""
","
","
","""event"",""trial"",""time""
""fullscreenenter"",""0"",""90347""
","
",4150.570000056177,<img style='border: 4px solid darkgrey;' src='img/tf1_43_M_ss3.jpeg'></img>,3,NA,exp,NA,3,<img src='img/tf1_43_T1_ss3_md.jpeg'></img>,0,FALSE,NA,sub43
NA,html-keyboard-response,99,474011,0.0-10.0-0.43,"""event"",""trial"",""time""
""fullscreenenter"",""0"",""90347""
","
","
","""event"",""trial"",""time""
""fullscreenenter"",""0"",""90347""
","
",null,"<div style=""font-size:60px;"">+</div>",NA,null,fixation,2020-06-17T15:45:40Z,NA,NA,NA,NA,NA,sub43
NA,mars-trial,100,479972,0.0-10.0-1.43,"""event"",""trial"",""time""
""fullscreenenter"",""0"",""90347""
","
","
","""event"",""trial"",""time""
""fullscreenenter"",""0"",""90347""
","
",5352.980000083335,<img style='border: 4px solid darkgrey;' src='img/tf1_44_M_ss1.jpeg'></img>,1,NA,exp,NA,3,<img src='img/tf1_44_T1_ss1_md.jpeg'></img>,0,FALSE,NA,sub43
NA,html-keyboard-response,101,480475,0.0-10.0-0.44,"""event"",""trial"",""time""
""fullscreenenter"",""0"",""90347""
","
","
","""event"",""trial"",""time""
""fullscreenenter"",""0"",""90347""
","
",null,"<div style=""font-size:60px;"">+</div>",NA,null,fixation,2020-06-17T15:45:46Z,NA,NA,NA,NA,NA,sub43
NA,mars-trial,102,486259,0.0-10.0-1.44,"""event"",""trial"",""time""
""fullscreenenter"",""0"",""90347""
","
","
","""event"",""trial"",""time""
""fullscreenenter"",""0"",""90347""
","
",5175.594999920577,<img style='border: 4px solid darkgrey;' src='img/tf1_45_M_ss2.jpeg'></img>,0,NA,exp,NA,1,<img src='img/tf1_45_T1_ss2_md.jpeg'></img>,0,FALSE,NA,sub43
NA,html-keyboard-response,103,486763,0.0-10.0-0.45,"""event"",""trial"",""time""
""fullscreenenter"",""0"",""90347""
","
","
","""event"",""trial"",""time""
""fullscreenenter"",""0"",""90347""
","
",null,"<div style=""font-size:60px;"">+</div>",NA,null,fixation,2020-06-17T15:45:53Z,NA,NA,NA,NA,NA,sub43
NA,mars-trial,104,493688,0.0-10.0-1.45,"""event"",""trial"",""time""
""fullscreenenter"",""0"",""90347""
","
","
","""event"",""trial"",""time""
""fullscreenenter"",""0"",""90347""
","
",6316.815000027418,<img style='border: 4px solid darkgrey;' src='img/tf1_46_M_ss3.jpeg'></img>,2,NA,exp,NA,0,<img src='img/tf1_46_T1_ss3_md.jpeg'></img>,0,TRUE,NA,sub43
NA,html-keyboard-response,105,494191,0.0-10.0-0.46,"""event"",""trial"",""time""
""fullscreenenter"",""0"",""90347""
","
","
","""event"",""trial"",""time""
""fullscreenenter"",""0"",""90347""
","
",null,"<div style=""font-size:60px;"">+</div>",NA,null,fixation,2020-06-17T15:46:00Z,NA,NA,NA,NA,NA,sub43
NA,mars-trial,106,513753,0.0-10.0-1.46,"""event"",""trial"",""time""
""fullscreenenter"",""0"",""90347""
","
","
","""event"",""trial"",""time""
""fullscreenenter"",""0"",""90347""
","
",18952.99000001978,<img style='border: 4px solid darkgrey;' src='img/tf1_47_M_ss1.jpeg'></img>,3,NA,exp,NA,2,<img src='img/tf1_47_T1_ss1_md.jpeg'></img>,0,FALSE,NA,sub43
NA,html-keyboard-response,107,514257,0.0-10.0-0.47,"""event"",""trial"",""time""
""fullscreenenter"",""0"",""90347""
","
","
","""event"",""trial"",""time""
""fullscreenenter"",""0"",""90347""
","
",null,"<div style=""font-size:60px;"">+</div>",NA,null,fixation,2020-06-17T15:46:20Z,NA,NA,NA,NA,NA,sub43
NA,mars-trial,108,521575,0.0-10.0-1.47,"""event"",""trial"",""time""
""fullscreenenter"",""0"",""90347""
","
","
","""event"",""trial"",""time""
""fullscreenenter"",""0"",""90347""
","
",6708.540000021458,<img style='border: 4px solid darkgrey;' src='img/tf1_48_M_ss2.jpeg'></img>,1,NA,exp,NA,0,<img src='img/tf1_48_T1_ss2_md.jpeg'></img>,0,TRUE,NA,sub43
NA,html-keyboard-response,109,522078,0.0-10.0-0.48,"""event"",""trial"",""time""
""fullscreenenter"",""0"",""90347""
","
","
","""event"",""trial"",""time""
""fullscreenenter"",""0"",""90347""
","
",null,"<div style=""font-size:60px;"">+</div>",NA,null,fixation,2020-06-17T15:46:28Z,NA,NA,NA,NA,NA,sub43
NA,mars-trial,110,525910,0.0-10.0-1.48,"""event"",""trial"",""time""
""fullscreenenter"",""0"",""90347""
","
","
","""event"",""trial"",""time""
""fullscreenenter"",""0"",""90347""
","
",3224.485000013374,<img style='border: 4px solid darkgrey;' src='img/tf1_49_M_ss3.jpeg'></img>,2,NA,exp,NA,0,<img src='img/tf1_49_T1_ss3_md.jpeg'></img>,0,TRUE,NA,sub43
NA,html-keyboard-response,111,526413,0.0-10.0-0.49,"""event"",""trial"",""time""
""fullscreenenter"",""0"",""90347""
","
","
","""event"",""trial"",""time""
""fullscreenenter"",""0"",""90347""
","
",null,"<div style=""font-size:60px;"">+</div>",NA,null,fixation,2020-06-17T15:46:32Z,NA,NA,NA,NA,NA,sub43
NA,mars-trial,112,535745,0.0-10.0-1.49,"""event"",""trial"",""time""
""fullscreenenter"",""0"",""90347""
","
","
","""event"",""trial"",""time""
""fullscreenenter"",""0"",""90347""
","
",8723.965000011958,<img style='border: 4px solid darkgrey;' src='img/tf1_50_M_ss1.jpeg'></img>,0,NA,exp,NA,1,<img src='img/tf1_50_T1_ss1_md.jpeg'></img>,0,FALSE,NA,sub43
NA,html-keyboard-response,113,536248,0.0-10.0-0.50,"""event"",""trial"",""time""
""fullscreenenter"",""0"",""90347""
","
","
","""event"",""trial"",""time""
""fullscreenenter"",""0"",""90347""
","
",null,"<div style=""font-size:60px;"">+</div>",NA,null,fixation,2020-06-17T15:46:42Z,NA,NA,NA,NA,NA,sub43
NA,mars-trial,114,540776,0.0-10.0-1.50,"""event"",""trial"",""time""
""fullscreenenter"",""0"",""90347""
","
","
","""event"",""trial"",""time""
""fullscreenenter"",""0"",""90347""
","
",3919.0550000639632,<img style='border: 4px solid darkgrey;' src='img/tf1_51_M_ss2.jpeg'></img>,0,NA,exp,NA,3,<img src='img/tf1_51_T1_ss2_md.jpeg'></img>,0,FALSE,NA,sub43
NA,html-keyboard-response,115,541279,0.0-10.0-0.51,"""event"",""trial"",""time""
""fullscreenenter"",""0"",""90347""
","
","
","""event"",""trial"",""time""
""fullscreenenter"",""0"",""90347""
","
",null,"<div style=""font-size:60px;"">+</div>",NA,null,fixation,2020-06-17T15:46:47Z,NA,NA,NA,NA,NA,sub43
NA,mars-trial,116,547105,0.0-10.0-1.51,"""event"",""trial"",""time""
""fullscreenenter"",""0"",""90347""
","
","
","""event"",""trial"",""time""
""fullscreenenter"",""0"",""90347""
","
",5217.950000078417,<img style='border: 4px solid darkgrey;' src='img/tf1_52_M_ss3.jpeg'></img>,3,NA,exp,NA,1,<img src='img/tf1_52_T1_ss3_md.jpeg'></img>,0,FALSE,NA,sub43
NA,html-keyboard-response,117,547608,0.0-10.0-0.52,"""event"",""trial"",""time""
""fullscreenenter"",""0"",""90347""
","
","
","""event"",""trial"",""time""
""fullscreenenter"",""0"",""90347""
","
",null,"<div style=""font-size:60px;"">+</div>",NA,null,fixation,2020-06-17T15:46:53Z,NA,NA,NA,NA,NA,sub43
NA,mars-trial,118,550204,0.0-10.0-1.52,"""event"",""trial"",""time""
""fullscreenenter"",""0"",""90347""
","
","
","""event"",""trial"",""time""
""fullscreenenter"",""0"",""90347""
","
",1987.7550000092015,<img style='border: 4px solid darkgrey;' src='img/tf1_53_M_ss1.jpeg'></img>,2,NA,exp,NA,2,<img src='img/tf1_53_T1_ss1_md.jpeg'></img>,0,FALSE,NA,sub43
NA,html-keyboard-response,119,550706,0.0-10.0-0.53,"""event"",""trial"",""time""
""fullscreenenter"",""0"",""90347""
","
","
","""event"",""trial"",""time""
""fullscreenenter"",""0"",""90347""
","
",null,"<div style=""font-size:60px;"">+</div>",NA,null,fixation,2020-06-17T15:46:57Z,NA,NA,NA,NA,NA,sub43
NA,mars-trial,120,563853,0.0-10.0-1.53,"""event"",""trial"",""time""
""fullscreenenter"",""0"",""90347""
","
","
","""event"",""trial"",""time""
""fullscreenenter"",""0"",""90347""
","
",12539.779999991879,<img style='border: 4px solid darkgrey;' src='img/tf1_54_M_ss2.jpeg'></img>,1,NA,exp,NA,2,<img src='img/tf1_54_T1_ss2_md.jpeg'></img>,0,FALSE,NA,sub43
NA,html-keyboard-response,121,564356,0.0-10.0-0.54,"""event"",""trial"",""time""
""fullscreenenter"",""0"",""90347""
","
","
","""event"",""trial"",""time""
""fullscreenenter"",""0"",""90347""
","
",null,"<div style=""font-size:60px;"">+</div>",NA,null,fixation,2020-06-17T15:47:10Z,NA,NA,NA,NA,NA,sub43
NA,mars-trial,122,572132,0.0-10.0-1.54,"""event"",""trial"",""time""
""fullscreenenter"",""0"",""90347""
","
","
","""event"",""trial"",""time""
""fullscreenenter"",""0"",""90347""
","
",7165.91499990318,<img style='border: 4px solid darkgrey;' src='img/tf1_55_M_ss3.jpeg'></img>,2,NA,exp,NA,1,<img src='img/tf1_55_T1_ss3_md.jpeg'></img>,0,FALSE,NA,sub43
NA,html-keyboard-response,123,572634,0.0-10.0-0.55,"""event"",""trial"",""time""
""fullscreenenter"",""0"",""90347""
","
","
","""event"",""trial"",""time""
""fullscreenenter"",""0"",""90347""
","
",null,"<div style=""font-size:60px;"">+</div>",NA,null,fixation,2020-06-17T15:47:18Z,NA,NA,NA,NA,NA,sub43
NA,mars-trial,124,585807,0.0-10.0-1.55,"""event"",""trial"",""time""
""fullscreenenter"",""0"",""90347""
","
","
","""event"",""trial"",""time""
""fullscreenenter"",""0"",""90347""
","
",12564.075000002049,<img style='border: 4px solid darkgrey;' src='img/tf1_56_M_ss1.jpeg'></img>,3,NA,exp,NA,1,<img src='img/tf1_56_T1_ss1_md.jpeg'></img>,0,FALSE,NA,sub43
NA,html-keyboard-response,125,586310,0.0-10.0-0.56,"""event"",""trial"",""time""
""fullscreenenter"",""0"",""90347""
","
","
","""event"",""trial"",""time""
""fullscreenenter"",""0"",""90347""
","
",null,"<div style=""font-size:60px;"">+</div>",NA,null,fixation,2020-06-17T15:47:32Z,NA,NA,NA,NA,NA,sub43
NA,mars-trial,126,596062,0.0-10.0-1.56,"""event"",""trial"",""time""
""fullscreenenter"",""0"",""90347""
","
","
","""event"",""trial"",""time""
""fullscreenenter"",""0"",""90347""
","
",NA,NA,NA,NA,exp,NA,NA,<img src='img/tf1_57_T1_ss2_md.jpeg'></img>,0,FALSE,NA,sub43
NA,html-keyboard-response,127,596564,0.0-10.0-0.57,"""event"",""trial"",""time""
""fullscreenenter"",""0"",""90347""
","
","
","""event"",""trial"",""time""
""fullscreenenter"",""0"",""90347""
","
",null,"<div style=""font-size:60px;"">+</div>",NA,null,fixation,2020-06-17T15:47:42Z,NA,NA,NA,NA,NA,sub43
NA,audio-button-response,128,598485,0.0-11.0,"""event"",""trial"",""time""
""fullscreenenter"",""0"",""90347""
","
","
","""event"",""trial"",""time""
""fullscreenenter"",""0"",""90347""
","
",1703.9850000292063,audio/mars_instructions_slide5.wav,0,NA,NA,NA,NA,NA,NA,NA,NA,sub43
