success,trial_type,trial_index,time_elapsed,internal_node_id,interactions,blur_events,focus_events,fullscreenenter_events,fullscreenexit_events,rt,stimulus,button_pressed,key_press,part,timestamp,unshuffled_button,correct_response,correct_button,correct,value,subject_id
TRUE,fullscreen,0,2662,0.0-0.0,"""event"",""trial"",""time""
""fullscreenenter"",""0"",""1673""
","
","
","""event"",""trial"",""time""
""fullscreenenter"",""0"",""1673""
","
",NA,NA,NA,NA,NA,NA,NA,NA,NA,NA,NA,sub78
NA,pavlovia,1,2669,0.0-1.0,"""event"",""trial"",""time""
""fullscreenenter"",""0"",""1673""
","
","
","""event"",""trial"",""time""
""fullscreenenter"",""0"",""1673""
","
",NA,NA,NA,NA,NA,NA,NA,NA,NA,NA,NA,sub78
NA,html-button-response,2,3963,0.0-2.0,"""event"",""trial"",""time""
""fullscreenenter"",""0"",""1673""
","
","
","""event"",""trial"",""time""
""fullscreenenter"",""0"",""1673""
","
",1292.6200000219978,<p>Welcome! Press START to begin.</p><br>,0,NA,NA,NA,NA,NA,NA,NA,NA,sub78
NA,audio-button-response,3,16430,0.0-3.0,"""event"",""trial"",""time""
""fullscreenenter"",""0"",""1673""
","
","
","""event"",""trial"",""time""
""fullscreenenter"",""0"",""1673""
","
",12464.749999984633,audio/mars_instructions_slide2.wav,0,NA,NA,NA,NA,NA,NA,NA,NA,sub78
NA,audio-button-response,4,32379,0.0-4.0,"""event"",""trial"",""time""
""fullscreenenter"",""0"",""1673""
","
","
","""event"",""trial"",""time""
""fullscreenenter"",""0"",""1673""
","
",15947.534999984782,audio/mars_instructions_slide3.wav,0,NA,NA,NA,NA,NA,NA,NA,NA,sub78
NA,html-keyboard-response,5,32883,0.0-5.0-0.0,"""event"",""trial"",""time""
""fullscreenenter"",""0"",""1673""
","
","
","""event"",""trial"",""time""
""fullscreenenter"",""0"",""1673""
","
",null,"<div style=""font-size:60px;"">+</div>",NA,null,fixation,2020-06-21T20:32:48Z,NA,NA,NA,NA,NA,sub78
NA,mars-trial,6,36930,0.0-5.0-1.0,"""event"",""trial"",""time""
""fullscreenenter"",""0"",""1673""
","
","
","""event"",""trial"",""time""
""fullscreenenter"",""0"",""1673""
","
",1935.9499999554828,<img style='border: 4px solid darkgrey;' src='practice/pt1_M1.png'></img>,2,NA,practice,NA,0,<img src='practice/pt1_T1.png'></img>,0,TRUE,NA,sub78
NA,html-keyboard-response,7,37434,0.0-6.0-0.0,"""event"",""trial"",""time""
""fullscreenenter"",""0"",""1673""
","
","
","""event"",""trial"",""time""
""fullscreenenter"",""0"",""1673""
","
",null,"<div style=""font-size:60px;"">+</div>",NA,null,fixation,2020-06-21T20:32:53Z,NA,NA,NA,NA,NA,sub78
NA,mars-trial,8,41318,0.0-6.0-1.0,"""event"",""trial"",""time""
""fullscreenenter"",""0"",""1673""
","
","
","""event"",""trial"",""time""
""fullscreenenter"",""0"",""1673""
","
",1776.320000004489,<img style='border: 4px solid darkgrey;' src='practice/pt2_M1.png'></img>,2,NA,practice,NA,0,<img src='practice/pt2_T1.png'></img>,0,TRUE,NA,sub78
NA,html-keyboard-response,9,41821,0.0-7.0-0.0,"""event"",""trial"",""time""
""fullscreenenter"",""0"",""1673""
","
","
","""event"",""trial"",""time""
""fullscreenenter"",""0"",""1673""
","
",null,"<div style=""font-size:60px;"">+</div>",NA,null,fixation,2020-06-21T20:32:57Z,NA,NA,NA,NA,NA,sub78
NA,mars-trial,10,45231,0.0-7.0-1.0,"""event"",""trial"",""time""
""fullscreenenter"",""0"",""1673""
","
","
","""event"",""trial"",""time""
""fullscreenenter"",""0"",""1673""
","
",1303.1450000125915,<img style='border: 4px solid darkgrey;' src='practice/pt3_M1.png'></img>,1,NA,practice,NA,0,<img src='practice/pt3_T1.png'></img>,0,TRUE,NA,sub78
NA,audio-button-response,11,49427,0.0-8.0,"""event"",""trial"",""time""
""fullscreenenter"",""0"",""1673""
","
","
","""event"",""trial"",""time""
""fullscreenenter"",""0"",""1673""
","
",4193.305000022519,audio/mars_instructions_slide4.wav,0,NA,NA,NA,NA,NA,NA,NA,NA,sub78
NA,call-function,12,49428,0.0-9.0,"""event"",""trial"",""time""
""fullscreenenter"",""0"",""1673""
","
","
","""event"",""trial"",""time""
""fullscreenenter"",""0"",""1673""
","
",NA,NA,NA,NA,NA,NA,NA,NA,NA,NA,NA,sub78
NA,html-keyboard-response,13,49930,0.0-10.0-0.0,"""event"",""trial"",""time""
""fullscreenenter"",""0"",""1673""
","
","
","""event"",""trial"",""time""
""fullscreenenter"",""0"",""1673""
","
",null,"<div style=""font-size:60px;"">+</div>",NA,null,fixation,2020-06-21T20:33:05Z,NA,NA,NA,NA,NA,sub78
NA,mars-trial,14,51514,0.0-10.0-1.0,"""event"",""trial"",""time""
""fullscreenenter"",""0"",""1673""
","
","
","""event"",""trial"",""time""
""fullscreenenter"",""0"",""1673""
","
",975.2399999997579,<img style='border: 4px solid darkgrey;' src='img/tf1_1_M_ss3.jpeg'></img>,3,NA,exp,NA,0,<img src='img/tf1_1_T1_ss3_md.jpeg'></img>,0,TRUE,NA,sub78
NA,html-keyboard-response,15,52016,0.0-10.0-0.1,"""event"",""trial"",""time""
""fullscreenenter"",""0"",""1673""
","
","
","""event"",""trial"",""time""
""fullscreenenter"",""0"",""1673""
","
",null,"<div style=""font-size:60px;"">+</div>",NA,null,fixation,2020-06-21T20:33:07Z,NA,NA,NA,NA,NA,sub78
NA,mars-trial,16,54167,0.0-10.0-1.1,"""event"",""trial"",""time""
""fullscreenenter"",""0"",""1673""
","
","
","""event"",""trial"",""time""
""fullscreenenter"",""0"",""1673""
","
",1545.1100000063889,<img style='border: 4px solid darkgrey;' src='img/tf1_2_M_ss1.jpeg'></img>,1,NA,exp,NA,0,<img src='img/tf1_2_T1_ss1_md.jpeg'></img>,0,TRUE,NA,sub78
NA,html-keyboard-response,17,54669,0.0-10.0-0.2,"""event"",""trial"",""time""
""fullscreenenter"",""0"",""1673""
","
","
","""event"",""trial"",""time""
""fullscreenenter"",""0"",""1673""
","
",null,"<div style=""font-size:60px;"">+</div>",NA,null,fixation,2020-06-21T20:33:10Z,NA,NA,NA,NA,NA,sub78
NA,mars-trial,18,56593,0.0-10.0-1.2,"""event"",""trial"",""time""
""fullscreenenter"",""0"",""1673""
","
","
","""event"",""trial"",""time""
""fullscreenenter"",""0"",""1673""
","
",1318.535000027623,<img style='border: 4px solid darkgrey;' src='img/tf1_3_M_ss2.jpeg'></img>,3,NA,exp,NA,0,<img src='img/tf1_3_T1_ss2_md.jpeg'></img>,0,TRUE,NA,sub78
NA,html-keyboard-response,19,57095,0.0-10.0-0.3,"""event"",""trial"",""time""
""fullscreenenter"",""0"",""1673""
","
","
","""event"",""trial"",""time""
""fullscreenenter"",""0"",""1673""
","
",null,"<div style=""font-size:60px;"">+</div>",NA,null,fixation,2020-06-21T20:33:12Z,NA,NA,NA,NA,NA,sub78
NA,mars-trial,20,59553,0.0-10.0-1.3,"""event"",""trial"",""time""
""fullscreenenter"",""0"",""1673""
","
","
","""event"",""trial"",""time""
""fullscreenenter"",""0"",""1673""
","
",1852.3200000054203,<img style='border: 4px solid darkgrey;' src='img/tf1_4_M_ss3.jpeg'></img>,3,NA,exp,NA,2,<img src='img/tf1_4_T1_ss3_md.jpeg'></img>,0,FALSE,NA,sub78
NA,html-keyboard-response,21,60055,0.0-10.0-0.4,"""event"",""trial"",""time""
""fullscreenenter"",""0"",""1673""
","
","
","""event"",""trial"",""time""
""fullscreenenter"",""0"",""1673""
","
",null,"<div style=""font-size:60px;"">+</div>",NA,null,fixation,2020-06-21T20:33:15Z,NA,NA,NA,NA,NA,sub78
NA,mars-trial,22,62998,0.0-10.0-1.4,"""event"",""trial"",""time""
""fullscreenenter"",""0"",""1673""
","
","
","""event"",""trial"",""time""
""fullscreenenter"",""0"",""1673""
","
",2335.6950000161305,<img style='border: 4px solid darkgrey;' src='img/tf1_5_M_ss1.jpeg'></img>,2,NA,exp,NA,0,<img src='img/tf1_5_T1_ss1_md.jpeg'></img>,0,TRUE,NA,sub78
NA,html-keyboard-response,23,63501,0.0-10.0-0.5,"""event"",""trial"",""time""
""fullscreenenter"",""0"",""1673""
","
","
","""event"",""trial"",""time""
""fullscreenenter"",""0"",""1673""
","
",null,"<div style=""font-size:60px;"">+</div>",NA,null,fixation,2020-06-21T20:33:19Z,NA,NA,NA,NA,NA,sub78
NA,mars-trial,24,66607,0.0-10.0-1.5,"""event"",""trial"",""time""
""fullscreenenter"",""0"",""1673""
","
","
","""event"",""trial"",""time""
""fullscreenenter"",""0"",""1673""
","
",2497.5149999954738,<img style='border: 4px solid darkgrey;' src='img/tf1_6_M_ss2.jpeg'></img>,3,NA,exp,NA,0,<img src='img/tf1_6_T1_ss2_md.jpeg'></img>,0,TRUE,NA,sub78
NA,html-keyboard-response,25,67110,0.0-10.0-0.6,"""event"",""trial"",""time""
""fullscreenenter"",""0"",""1673""
","
","
","""event"",""trial"",""time""
""fullscreenenter"",""0"",""1673""
","
",null,"<div style=""font-size:60px;"">+</div>",NA,null,fixation,2020-06-21T20:33:22Z,NA,NA,NA,NA,NA,sub78
NA,mars-trial,26,70086,0.0-10.0-1.6,"""event"",""trial"",""time""
""fullscreenenter"",""0"",""1673""
","
","
","""event"",""trial"",""time""
""fullscreenenter"",""0"",""1673""
","
",2369.6249999920838,<img style='border: 4px solid darkgrey;' src='img/tf1_7_M_ss3.jpeg'></img>,3,NA,exp,NA,3,<img src='img/tf1_7_T1_ss3_md.jpeg'></img>,0,FALSE,NA,sub78
NA,html-keyboard-response,27,70589,0.0-10.0-0.7,"""event"",""trial"",""time""
""fullscreenenter"",""0"",""1673""
","
","
","""event"",""trial"",""time""
""fullscreenenter"",""0"",""1673""
","
",null,"<div style=""font-size:60px;"">+</div>",NA,null,fixation,2020-06-21T20:33:26Z,NA,NA,NA,NA,NA,sub78
NA,mars-trial,28,75286,0.0-10.0-1.7,"""event"",""trial"",""time""
""fullscreenenter"",""0"",""1673""
","
","
","""event"",""trial"",""time""
""fullscreenenter"",""0"",""1673""
","
",4089.5249999593943,<img style='border: 4px solid darkgrey;' src='img/tf1_8_M_ss1.jpeg'></img>,2,NA,exp,NA,0,<img src='img/tf1_8_T1_ss1_md.jpeg'></img>,0,TRUE,NA,sub78
NA,html-keyboard-response,29,75788,0.0-10.0-0.8,"""event"",""trial"",""time""
""fullscreenenter"",""0"",""1673""
","
","
","""event"",""trial"",""time""
""fullscreenenter"",""0"",""1673""
","
",null,"<div style=""font-size:60px;"">+</div>",NA,null,fixation,2020-06-21T20:33:31Z,NA,NA,NA,NA,NA,sub78
NA,mars-trial,30,79517,0.0-10.0-1.8,"""event"",""trial"",""time""
""fullscreenenter"",""0"",""1673""
","
","
","""event"",""trial"",""time""
""fullscreenenter"",""0"",""1673""
","
",3122.094999998808,<img style='border: 4px solid darkgrey;' src='img/tf1_9_M_ss2.jpeg'></img>,3,NA,exp,NA,2,<img src='img/tf1_9_T1_ss2_md.jpeg'></img>,0,FALSE,NA,sub78
NA,html-keyboard-response,31,80019,0.0-10.0-0.9,"""event"",""trial"",""time""
""fullscreenenter"",""0"",""1673""
","
","
","""event"",""trial"",""time""
""fullscreenenter"",""0"",""1673""
","
",null,"<div style=""font-size:60px;"">+</div>",NA,null,fixation,2020-06-21T20:33:35Z,NA,NA,NA,NA,NA,sub78
NA,mars-trial,32,83816,0.0-10.0-1.9,"""event"",""trial"",""time""
""fullscreenenter"",""0"",""1673""
","
","
","""event"",""trial"",""time""
""fullscreenenter"",""0"",""1673""
","
",3189.920000033453,<img style='border: 4px solid darkgrey;' src='img/tf1_10_M_ss3.jpeg'></img>,0,NA,exp,NA,1,<img src='img/tf1_10_T1_ss3_md.jpeg'></img>,0,FALSE,NA,sub78
NA,html-keyboard-response,33,84318,0.0-10.0-0.10,"""event"",""trial"",""time""
""fullscreenenter"",""0"",""1673""
","
","
","""event"",""trial"",""time""
""fullscreenenter"",""0"",""1673""
","
",null,"<div style=""font-size:60px;"">+</div>",NA,null,fixation,2020-06-21T20:33:40Z,NA,NA,NA,NA,NA,sub78
NA,mars-trial,34,89994,0.0-10.0-1.10,"""event"",""trial"",""time""
""fullscreenenter"",""0"",""1673""
","
","
","""event"",""trial"",""time""
""fullscreenenter"",""0"",""1673""
","
",5068.704999983311,<img style='border: 4px solid darkgrey;' src='img/tf1_11_M_ss1.jpeg'></img>,0,NA,exp,NA,1,<img src='img/tf1_11_T1_ss1_md.jpeg'></img>,0,FALSE,NA,sub78
NA,html-keyboard-response,35,90497,0.0-10.0-0.11,"""event"",""trial"",""time""
""fullscreenenter"",""0"",""1673""
","
","
","""event"",""trial"",""time""
""fullscreenenter"",""0"",""1673""
","
",null,"<div style=""font-size:60px;"">+</div>",NA,null,fixation,2020-06-21T20:33:46Z,NA,NA,NA,NA,NA,sub78
NA,mars-trial,36,94189,0.0-10.0-1.11,"""event"",""trial"",""time""
""fullscreenenter"",""0"",""1673""
","
","
","""event"",""trial"",""time""
""fullscreenenter"",""0"",""1673""
","
",3086.6600000299513,<img style='border: 4px solid darkgrey;' src='img/tf1_12_M_ss2.jpeg'></img>,0,NA,exp,NA,1,<img src='img/tf1_12_T1_ss2_md.jpeg'></img>,0,FALSE,NA,sub78
NA,html-keyboard-response,37,94692,0.0-10.0-0.12,"""event"",""trial"",""time""
""fullscreenenter"",""0"",""1673""
","
","
","""event"",""trial"",""time""
""fullscreenenter"",""0"",""1673""
","
",null,"<div style=""font-size:60px;"">+</div>",NA,null,fixation,2020-06-21T20:33:50Z,NA,NA,NA,NA,NA,sub78
NA,mars-trial,38,99790,0.0-10.0-1.12,"""event"",""trial"",""time""
""fullscreenenter"",""0"",""1673""
","
","
","""event"",""trial"",""time""
""fullscreenenter"",""0"",""1673""
","
",4490.890000015497,<img style='border: 4px solid darkgrey;' src='img/tf1_13_M_ss3.jpeg'></img>,3,NA,exp,NA,0,<img src='img/tf1_13_T1_ss3_md.jpeg'></img>,0,TRUE,NA,sub78
NA,html-keyboard-response,39,100293,0.0-10.0-0.13,"""event"",""trial"",""time""
""fullscreenenter"",""0"",""1673""
","
","
","""event"",""trial"",""time""
""fullscreenenter"",""0"",""1673""
","
",null,"<div style=""font-size:60px;"">+</div>",NA,null,fixation,2020-06-21T20:33:56Z,NA,NA,NA,NA,NA,sub78
NA,mars-trial,40,104424,0.0-10.0-1.13,"""event"",""trial"",""time""
""fullscreenenter"",""0"",""1673""
","
","
","""event"",""trial"",""time""
""fullscreenenter"",""0"",""1673""
","
",3523.9200000069104,<img style='border: 4px solid darkgrey;' src='img/tf1_14_M_ss1.jpeg'></img>,1,NA,exp,NA,1,<img src='img/tf1_14_T1_ss1_md.jpeg'></img>,0,FALSE,NA,sub78
NA,html-keyboard-response,41,104926,0.0-10.0-0.14,"""event"",""trial"",""time""
""fullscreenenter"",""0"",""1673""
","
","
","""event"",""trial"",""time""
""fullscreenenter"",""0"",""1673""
","
",null,"<div style=""font-size:60px;"">+</div>",NA,null,fixation,2020-06-21T20:34:00Z,NA,NA,NA,NA,NA,sub78
NA,mars-trial,42,109243,0.0-10.0-1.14,"""event"",""trial"",""time""
""fullscreenenter"",""0"",""1673""
","
","
","""event"",""trial"",""time""
""fullscreenenter"",""0"",""1673""
","
",3711.8400000035763,<img style='border: 4px solid darkgrey;' src='img/tf1_15_M_ss2.jpeg'></img>,2,NA,exp,NA,0,<img src='img/tf1_15_T1_ss2_md.jpeg'></img>,0,TRUE,NA,sub78
NA,html-keyboard-response,43,109746,0.0-10.0-0.15,"""event"",""trial"",""time""
""fullscreenenter"",""0"",""1673""
","
","
","""event"",""trial"",""time""
""fullscreenenter"",""0"",""1673""
","
",null,"<div style=""font-size:60px;"">+</div>",NA,null,fixation,2020-06-21T20:34:05Z,NA,NA,NA,NA,NA,sub78
NA,mars-trial,44,115520,0.0-10.0-1.15,"""event"",""trial"",""time""
""fullscreenenter"",""0"",""1673""
","
","
","""event"",""trial"",""time""
""fullscreenenter"",""0"",""1673""
","
",5165.709999972023,<img style='border: 4px solid darkgrey;' src='img/tf1_16_M_ss3.jpeg'></img>,3,NA,exp,NA,1,<img src='img/tf1_16_T1_ss3_md.jpeg'></img>,0,FALSE,NA,sub78
NA,html-keyboard-response,45,116023,0.0-10.0-0.16,"""event"",""trial"",""time""
""fullscreenenter"",""0"",""1673""
","
","
","""event"",""trial"",""time""
""fullscreenenter"",""0"",""1673""
","
",null,"<div style=""font-size:60px;"">+</div>",NA,null,fixation,2020-06-21T20:34:11Z,NA,NA,NA,NA,NA,sub78
NA,mars-trial,46,120665,0.0-10.0-1.16,"""event"",""trial"",""time""
""fullscreenenter"",""0"",""1673""
","
","
","""event"",""trial"",""time""
""fullscreenenter"",""0"",""1673""
","
",4037.2450000140816,<img style='border: 4px solid darkgrey;' src='img/tf1_17_M_ss1.jpeg'></img>,1,NA,exp,NA,0,<img src='img/tf1_17_T1_ss1_md.jpeg'></img>,0,TRUE,NA,sub78
NA,html-keyboard-response,47,121169,0.0-10.0-0.17,"""event"",""trial"",""time""
""fullscreenenter"",""0"",""1673""
","
","
","""event"",""trial"",""time""
""fullscreenenter"",""0"",""1673""
","
",null,"<div style=""font-size:60px;"">+</div>",NA,null,fixation,2020-06-21T20:34:16Z,NA,NA,NA,NA,NA,sub78
NA,mars-trial,48,124720,0.0-10.0-1.17,"""event"",""trial"",""time""
""fullscreenenter"",""0"",""1673""
","
","
","""event"",""trial"",""time""
""fullscreenenter"",""0"",""1673""
","
",2947.005000023637,<img style='border: 4px solid darkgrey;' src='img/tf1_18_M_ss2.jpeg'></img>,0,NA,exp,NA,0,<img src='img/tf1_18_T1_ss2_md.jpeg'></img>,0,TRUE,NA,sub78
NA,html-keyboard-response,49,125224,0.0-10.0-0.18,"""event"",""trial"",""time""
""fullscreenenter"",""0"",""1673""
","
","
","""event"",""trial"",""time""
""fullscreenenter"",""0"",""1673""
","
",null,"<div style=""font-size:60px;"">+</div>",NA,null,fixation,2020-06-21T20:34:20Z,NA,NA,NA,NA,NA,sub78
NA,mars-trial,50,129315,0.0-10.0-1.18,"""event"",""trial"",""time""
""fullscreenenter"",""0"",""1673""
","
","
","""event"",""trial"",""time""
""fullscreenenter"",""0"",""1673""
","
",3485.8799999929033,<img style='border: 4px solid darkgrey;' src='img/tf1_19_M_ss3.jpeg'></img>,2,NA,exp,NA,2,<img src='img/tf1_19_T1_ss3_md.jpeg'></img>,0,FALSE,NA,sub78
NA,html-keyboard-response,51,129819,0.0-10.0-0.19,"""event"",""trial"",""time""
""fullscreenenter"",""0"",""1673""
","
","
","""event"",""trial"",""time""
""fullscreenenter"",""0"",""1673""
","
",null,"<div style=""font-size:60px;"">+</div>",NA,null,fixation,2020-06-21T20:34:25Z,NA,NA,NA,NA,NA,sub78
NA,mars-trial,52,134963,0.0-10.0-1.19,"""event"",""trial"",""time""
""fullscreenenter"",""0"",""1673""
","
","
","""event"",""trial"",""time""
""fullscreenenter"",""0"",""1673""
","
",4538.629999966361,<img style='border: 4px solid darkgrey;' src='img/tf1_20_M_ss1.jpeg'></img>,2,NA,exp,NA,2,<img src='img/tf1_20_T1_ss1_md.jpeg'></img>,0,FALSE,NA,sub78
NA,html-keyboard-response,53,135465,0.0-10.0-0.20,"""event"",""trial"",""time""
""fullscreenenter"",""0"",""1673""
","
","
","""event"",""trial"",""time""
""fullscreenenter"",""0"",""1673""
","
",null,"<div style=""font-size:60px;"">+</div>",NA,null,fixation,2020-06-21T20:34:31Z,NA,NA,NA,NA,NA,sub78
NA,mars-trial,54,140063,0.0-10.0-1.20,"""event"",""trial"",""time""
""fullscreenenter"",""0"",""1673""
","
","
","""event"",""trial"",""time""
""fullscreenenter"",""0"",""1673""
","
",3990.3100000228733,<img style='border: 4px solid darkgrey;' src='img/tf1_21_M_ss2.jpeg'></img>,0,NA,exp,NA,2,<img src='img/tf1_21_T1_ss2_md.jpeg'></img>,0,FALSE,NA,sub78
NA,html-keyboard-response,55,140567,0.0-10.0-0.21,"""event"",""trial"",""time""
""fullscreenenter"",""0"",""1673""
","
","
","""event"",""trial"",""time""
""fullscreenenter"",""0"",""1673""
","
",null,"<div style=""font-size:60px;"">+</div>",NA,null,fixation,2020-06-21T20:34:36Z,NA,NA,NA,NA,NA,sub78
NA,mars-trial,56,144239,0.0-10.0-1.21,"""event"",""trial"",""time""
""fullscreenenter"",""0"",""1673""
","
","
","""event"",""trial"",""time""
""fullscreenenter"",""0"",""1673""
","
",3065.675000019837,<img style='border: 4px solid darkgrey;' src='img/tf1_22_M_ss3.jpeg'></img>,0,NA,exp,NA,3,<img src='img/tf1_22_T1_ss3_md.jpeg'></img>,0,FALSE,NA,sub78
NA,html-keyboard-response,57,144742,0.0-10.0-0.22,"""event"",""trial"",""time""
""fullscreenenter"",""0"",""1673""
","
","
","""event"",""trial"",""time""
""fullscreenenter"",""0"",""1673""
","
",null,"<div style=""font-size:60px;"">+</div>",NA,null,fixation,2020-06-21T20:34:40Z,NA,NA,NA,NA,NA,sub78
NA,mars-trial,58,148913,0.0-10.0-1.22,"""event"",""trial"",""time""
""fullscreenenter"",""0"",""1673""
","
","
","""event"",""trial"",""time""
""fullscreenenter"",""0"",""1673""
","
",3565.089999989141,<img style='border: 4px solid darkgrey;' src='img/tf1_23_M_ss1.jpeg'></img>,0,NA,exp,NA,0,<img src='img/tf1_23_T1_ss1_md.jpeg'></img>,0,TRUE,NA,sub78
NA,html-keyboard-response,59,149416,0.0-10.0-0.23,"""event"",""trial"",""time""
""fullscreenenter"",""0"",""1673""
","
","
","""event"",""trial"",""time""
""fullscreenenter"",""0"",""1673""
","
",null,"<div style=""font-size:60px;"">+</div>",NA,null,fixation,2020-06-21T20:34:45Z,NA,NA,NA,NA,NA,sub78
NA,mars-trial,60,155411,0.0-10.0-1.23,"""event"",""trial"",""time""
""fullscreenenter"",""0"",""1673""
","
","
","""event"",""trial"",""time""
""fullscreenenter"",""0"",""1673""
","
",5388.904999999795,<img style='border: 4px solid darkgrey;' src='img/tf1_24_M_ss2.jpeg'></img>,2,NA,exp,NA,1,<img src='img/tf1_24_T1_ss2_md.jpeg'></img>,0,FALSE,NA,sub78
NA,html-keyboard-response,61,155915,0.0-10.0-0.24,"""event"",""trial"",""time""
""fullscreenenter"",""0"",""1673""
","
","
","""event"",""trial"",""time""
""fullscreenenter"",""0"",""1673""
","
",null,"<div style=""font-size:60px;"">+</div>",NA,null,fixation,2020-06-21T20:34:51Z,NA,NA,NA,NA,NA,sub78
NA,mars-trial,62,161529,0.0-10.0-1.24,"""event"",""trial"",""time""
""fullscreenenter"",""0"",""1673""
","
","
","""event"",""trial"",""time""
""fullscreenenter"",""0"",""1673""
","
",5001.864999998361,<img style='border: 4px solid darkgrey;' src='img/tf1_25_M_ss3.jpeg'></img>,3,NA,exp,NA,2,<img src='img/tf1_25_T1_ss3_md.jpeg'></img>,0,FALSE,NA,sub78
NA,html-keyboard-response,63,162030,0.0-10.0-0.25,"""event"",""trial"",""time""
""fullscreenenter"",""0"",""1673""
","
","
","""event"",""trial"",""time""
""fullscreenenter"",""0"",""1673""
","
",null,"<div style=""font-size:60px;"">+</div>",NA,null,fixation,2020-06-21T20:34:57Z,NA,NA,NA,NA,NA,sub78
NA,mars-trial,64,169124,0.0-10.0-1.25,"""event"",""trial"",""time""
""fullscreenenter"",""0"",""1673""
","
","
","""event"",""trial"",""time""
""fullscreenenter"",""0"",""1673""
","
",6487.895000027493,<img style='border: 4px solid darkgrey;' src='img/tf1_26_M_ss1.jpeg'></img>,1,NA,exp,NA,1,<img src='img/tf1_26_T1_ss1_md.jpeg'></img>,0,FALSE,NA,sub78
NA,html-keyboard-response,65,169626,0.0-10.0-0.26,"""event"",""trial"",""time""
""fullscreenenter"",""0"",""1673""
","
","
","""event"",""trial"",""time""
""fullscreenenter"",""0"",""1673""
","
",null,"<div style=""font-size:60px;"">+</div>",NA,null,fixation,2020-06-21T20:35:05Z,NA,NA,NA,NA,NA,sub78
NA,mars-trial,66,175398,0.0-10.0-1.26,"""event"",""trial"",""time""
""fullscreenenter"",""0"",""1673""
","
","
","""event"",""trial"",""time""
""fullscreenenter"",""0"",""1673""
","
",5164.854999980889,<img style='border: 4px solid darkgrey;' src='img/tf1_27_M_ss2.jpeg'></img>,3,NA,exp,NA,3,<img src='img/tf1_27_T1_ss2_md.jpeg'></img>,0,FALSE,NA,sub78
NA,html-keyboard-response,67,175900,0.0-10.0-0.27,"""event"",""trial"",""time""
""fullscreenenter"",""0"",""1673""
","
","
","""event"",""trial"",""time""
""fullscreenenter"",""0"",""1673""
","
",null,"<div style=""font-size:60px;"">+</div>",NA,null,fixation,2020-06-21T20:35:11Z,NA,NA,NA,NA,NA,sub78
NA,mars-trial,68,182238,0.0-10.0-1.27,"""event"",""trial"",""time""
""fullscreenenter"",""0"",""1673""
","
","
","""event"",""trial"",""time""
""fullscreenenter"",""0"",""1673""
","
",5729.875000019092,<img style='border: 4px solid darkgrey;' src='img/tf1_28_M_ss3.jpeg'></img>,0,NA,exp,NA,1,<img src='img/tf1_28_T1_ss3_md.jpeg'></img>,0,FALSE,NA,sub78
NA,html-keyboard-response,69,182740,0.0-10.0-0.28,"""event"",""trial"",""time""
""fullscreenenter"",""0"",""1673""
","
","
","""event"",""trial"",""time""
""fullscreenenter"",""0"",""1673""
","
",null,"<div style=""font-size:60px;"">+</div>",NA,null,fixation,2020-06-21T20:35:18Z,NA,NA,NA,NA,NA,sub78
NA,mars-trial,70,187824,0.0-10.0-1.28,"""event"",""trial"",""time""
""fullscreenenter"",""0"",""1673""
","
","
","""event"",""trial"",""time""
""fullscreenenter"",""0"",""1673""
","
",4476.5750000369735,<img style='border: 4px solid darkgrey;' src='img/tf1_29_M_ss1.jpeg'></img>,2,NA,exp,NA,1,<img src='img/tf1_29_T1_ss1_md.jpeg'></img>,0,FALSE,NA,sub78
NA,html-keyboard-response,71,188327,0.0-10.0-0.29,"""event"",""trial"",""time""
""fullscreenenter"",""0"",""1673""
","
","
","""event"",""trial"",""time""
""fullscreenenter"",""0"",""1673""
","
",null,"<div style=""font-size:60px;"">+</div>",NA,null,fixation,2020-06-21T20:35:24Z,NA,NA,NA,NA,NA,sub78
NA,mars-trial,72,195020,0.0-10.0-1.29,"""event"",""trial"",""time""
""fullscreenenter"",""0"",""1673""
","
","
","""event"",""trial"",""time""
""fullscreenenter"",""0"",""1673""
","
",6087.384999962524,<img style='border: 4px solid darkgrey;' src='img/tf1_30_M_ss2.jpeg'></img>,3,NA,exp,NA,2,<img src='img/tf1_30_T1_ss2_md.jpeg'></img>,0,FALSE,NA,sub78
NA,html-keyboard-response,73,195522,0.0-10.0-0.30,"""event"",""trial"",""time""
""fullscreenenter"",""0"",""1673""
","
","
","""event"",""trial"",""time""
""fullscreenenter"",""0"",""1673""
","
",null,"<div style=""font-size:60px;"">+</div>",NA,null,fixation,2020-06-21T20:35:31Z,NA,NA,NA,NA,NA,sub78
NA,mars-trial,74,203093,0.0-10.0-1.30,"""event"",""trial"",""time""
""fullscreenenter"",""0"",""1673""
","
","
","""event"",""trial"",""time""
""fullscreenenter"",""0"",""1673""
","
",6966.565000009723,<img style='border: 4px solid darkgrey;' src='img/tf1_31_M_ss3.jpeg'></img>,2,NA,exp,NA,1,<img src='img/tf1_31_T1_ss3_md.jpeg'></img>,0,FALSE,NA,sub78
NA,html-keyboard-response,75,203597,0.0-10.0-0.31,"""event"",""trial"",""time""
""fullscreenenter"",""0"",""1673""
","
","
","""event"",""trial"",""time""
""fullscreenenter"",""0"",""1673""
","
",null,"<div style=""font-size:60px;"">+</div>",NA,null,fixation,2020-06-21T20:35:39Z,NA,NA,NA,NA,NA,sub78
NA,mars-trial,76,210190,0.0-10.0-1.31,"""event"",""trial"",""time""
""fullscreenenter"",""0"",""1673""
","
","
","""event"",""trial"",""time""
""fullscreenenter"",""0"",""1673""
","
",5986.340000003111,<img style='border: 4px solid darkgrey;' src='img/tf1_32_M_ss1.jpeg'></img>,2,NA,exp,NA,0,<img src='img/tf1_32_T1_ss1_md.jpeg'></img>,0,TRUE,NA,sub78
NA,html-keyboard-response,77,210693,0.0-10.0-0.32,"""event"",""trial"",""time""
""fullscreenenter"",""0"",""1673""
","
","
","""event"",""trial"",""time""
""fullscreenenter"",""0"",""1673""
","
",null,"<div style=""font-size:60px;"">+</div>",NA,null,fixation,2020-06-21T20:35:46Z,NA,NA,NA,NA,NA,sub78
NA,mars-trial,78,215212,0.0-10.0-1.32,"""event"",""trial"",""time""
""fullscreenenter"",""0"",""1673""
","
","
","""event"",""trial"",""time""
""fullscreenenter"",""0"",""1673""
","
",3911.3800000050105,<img style='border: 4px solid darkgrey;' src='img/tf1_33_M_ss2.jpeg'></img>,1,NA,exp,NA,0,<img src='img/tf1_33_T1_ss2_md.jpeg'></img>,0,TRUE,NA,sub78
NA,html-keyboard-response,79,215714,0.0-10.0-0.33,"""event"",""trial"",""time""
""fullscreenenter"",""0"",""1673""
","
","
","""event"",""trial"",""time""
""fullscreenenter"",""0"",""1673""
","
",null,"<div style=""font-size:60px;"">+</div>",NA,null,fixation,2020-06-21T20:35:51Z,NA,NA,NA,NA,NA,sub78
NA,mars-trial,80,221948,0.0-10.0-1.33,"""event"",""trial"",""time""
""fullscreenenter"",""0"",""1673""
","
","
","""event"",""trial"",""time""
""fullscreenenter"",""0"",""1673""
","
",5628.729999996722,<img style='border: 4px solid darkgrey;' src='img/tf1_34_M_ss3.jpeg'></img>,3,NA,exp,NA,2,<img src='img/tf1_34_T1_ss3_md.jpeg'></img>,0,FALSE,NA,sub78
NA,html-keyboard-response,81,222450,0.0-10.0-0.34,"""event"",""trial"",""time""
""fullscreenenter"",""0"",""1673""
","
","
","""event"",""trial"",""time""
""fullscreenenter"",""0"",""1673""
","
",null,"<div style=""font-size:60px;"">+</div>",NA,null,fixation,2020-06-21T20:35:58Z,NA,NA,NA,NA,NA,sub78
NA,mars-trial,82,227476,0.0-10.0-1.34,"""event"",""trial"",""time""
""fullscreenenter"",""0"",""1673""
","
","
","""event"",""trial"",""time""
""fullscreenenter"",""0"",""1673""
","
",4418.81000000285,<img style='border: 4px solid darkgrey;' src='img/tf1_35_M_ss1.jpeg'></img>,0,NA,exp,NA,3,<img src='img/tf1_35_T1_ss1_md.jpeg'></img>,0,FALSE,NA,sub78
NA,html-keyboard-response,83,227979,0.0-10.0-0.35,"""event"",""trial"",""time""
""fullscreenenter"",""0"",""1673""
","
","
","""event"",""trial"",""time""
""fullscreenenter"",""0"",""1673""
","
",null,"<div style=""font-size:60px;"">+</div>",NA,null,fixation,2020-06-21T20:36:03Z,NA,NA,NA,NA,NA,sub78
NA,mars-trial,84,231238,0.0-10.0-1.35,"""event"",""trial"",""time""
""fullscreenenter"",""0"",""1673""
","
","
","""event"",""trial"",""time""
""fullscreenenter"",""0"",""1673""
","
",2653.035000024829,<img style='border: 4px solid darkgrey;' src='img/tf1_36_M_ss2.jpeg'></img>,2,NA,exp,NA,1,<img src='img/tf1_36_T1_ss2_md.jpeg'></img>,0,FALSE,NA,sub78
NA,html-keyboard-response,85,231740,0.0-10.0-0.36,"""event"",""trial"",""time""
""fullscreenenter"",""0"",""1673""
","
","
","""event"",""trial"",""time""
""fullscreenenter"",""0"",""1673""
","
",null,"<div style=""font-size:60px;"">+</div>",NA,null,fixation,2020-06-21T20:36:07Z,NA,NA,NA,NA,NA,sub78
NA,mars-trial,86,233926,0.0-10.0-1.36,"""event"",""trial"",""time""
""fullscreenenter"",""0"",""1673""
","
","
","""event"",""trial"",""time""
""fullscreenenter"",""0"",""1673""
","
",1580.149999994319,<img style='border: 4px solid darkgrey;' src='img/tf1_37_M_ss3.jpeg'></img>,3,NA,exp,NA,3,<img src='img/tf1_37_T1_ss3_md.jpeg'></img>,0,FALSE,NA,sub78
NA,html-keyboard-response,87,234428,0.0-10.0-0.37,"""event"",""trial"",""time""
""fullscreenenter"",""0"",""1673""
","
","
","""event"",""trial"",""time""
""fullscreenenter"",""0"",""1673""
","
",null,"<div style=""font-size:60px;"">+</div>",NA,null,fixation,2020-06-21T20:36:10Z,NA,NA,NA,NA,NA,sub78
NA,mars-trial,88,238047,0.0-10.0-1.37,"""event"",""trial"",""time""
""fullscreenenter"",""0"",""1673""
","
","
","""event"",""trial"",""time""
""fullscreenenter"",""0"",""1673""
","
",3014.039999980014,<img style='border: 4px solid darkgrey;' src='img/tf1_38_M_ss1.jpeg'></img>,1,NA,exp,NA,0,<img src='img/tf1_38_T1_ss1_md.jpeg'></img>,0,TRUE,NA,sub78
NA,html-keyboard-response,89,238550,0.0-10.0-0.38,"""event"",""trial"",""time""
""fullscreenenter"",""0"",""1673""
","
","
","""event"",""trial"",""time""
""fullscreenenter"",""0"",""1673""
","
",null,"<div style=""font-size:60px;"">+</div>",NA,null,fixation,2020-06-21T20:36:14Z,NA,NA,NA,NA,NA,sub78
NA,mars-trial,90,243053,0.0-10.0-1.38,"""event"",""trial"",""time""
""fullscreenenter"",""0"",""1673""
","
","
","""event"",""trial"",""time""
""fullscreenenter"",""0"",""1673""
","
",3898.449999978766,<img style='border: 4px solid darkgrey;' src='img/tf1_39_M_ss2.jpeg'></img>,2,NA,exp,NA,3,<img src='img/tf1_39_T1_ss2_md.jpeg'></img>,0,FALSE,NA,sub78
NA,html-keyboard-response,91,243556,0.0-10.0-0.39,"""event"",""trial"",""time""
""fullscreenenter"",""0"",""1673""
","
","
","""event"",""trial"",""time""
""fullscreenenter"",""0"",""1673""
","
",null,"<div style=""font-size:60px;"">+</div>",NA,null,fixation,2020-06-21T20:36:19Z,NA,NA,NA,NA,NA,sub78
NA,mars-trial,92,249217,0.0-10.0-1.39,"""event"",""trial"",""time""
""fullscreenenter"",""0"",""1673""
","
","
","""event"",""trial"",""time""
""fullscreenenter"",""0"",""1673""
","
",5053.529999975581,<img style='border: 4px solid darkgrey;' src='img/tf1_40_M_ss3.jpeg'></img>,3,NA,exp,NA,3,<img src='img/tf1_40_T1_ss3_md.jpeg'></img>,0,FALSE,NA,sub78
NA,html-keyboard-response,93,249719,0.0-10.0-0.40,"""event"",""trial"",""time""
""fullscreenenter"",""0"",""1673""
","
","
","""event"",""trial"",""time""
""fullscreenenter"",""0"",""1673""
","
",null,"<div style=""font-size:60px;"">+</div>",NA,null,fixation,2020-06-21T20:36:25Z,NA,NA,NA,NA,NA,sub78
NA,mars-trial,94,252834,0.0-10.0-1.40,"""event"",""trial"",""time""
""fullscreenenter"",""0"",""1673""
","
","
","""event"",""trial"",""time""
""fullscreenenter"",""0"",""1673""
","
",2506.660000013653,<img style='border: 4px solid darkgrey;' src='img/tf1_41_M_ss1.jpeg'></img>,1,NA,exp,NA,0,<img src='img/tf1_41_T1_ss1_md.jpeg'></img>,0,TRUE,NA,sub78
NA,html-keyboard-response,95,253336,0.0-10.0-0.41,"""event"",""trial"",""time""
""fullscreenenter"",""0"",""1673""
","
","
","""event"",""trial"",""time""
""fullscreenenter"",""0"",""1673""
","
",null,"<div style=""font-size:60px;"">+</div>",NA,null,fixation,2020-06-21T20:36:29Z,NA,NA,NA,NA,NA,sub78
NA,mars-trial,96,260687,0.0-10.0-1.41,"""event"",""trial"",""time""
""fullscreenenter"",""0"",""1673""
","
","
","""event"",""trial"",""time""
""fullscreenenter"",""0"",""1673""
","
",6744.599999976344,<img style='border: 4px solid darkgrey;' src='img/tf1_42_M_ss2.jpeg'></img>,1,NA,exp,NA,3,<img src='img/tf1_42_T1_ss2_md.jpeg'></img>,0,FALSE,NA,sub78
NA,html-keyboard-response,97,261188,0.0-10.0-0.42,"""event"",""trial"",""time""
""fullscreenenter"",""0"",""1673""
","
","
","""event"",""trial"",""time""
""fullscreenenter"",""0"",""1673""
","
",null,"<div style=""font-size:60px;"">+</div>",NA,null,fixation,2020-06-21T20:36:36Z,NA,NA,NA,NA,NA,sub78
NA,mars-trial,98,266786,0.0-10.0-1.42,"""event"",""trial"",""time""
""fullscreenenter"",""0"",""1673""
","
","
","""event"",""trial"",""time""
""fullscreenenter"",""0"",""1673""
","
",4992.075000016484,<img style='border: 4px solid darkgrey;' src='img/tf1_43_M_ss3.jpeg'></img>,2,NA,exp,NA,2,<img src='img/tf1_43_T1_ss3_md.jpeg'></img>,0,FALSE,NA,sub78
NA,html-keyboard-response,99,267289,0.0-10.0-0.43,"""event"",""trial"",""time""
""fullscreenenter"",""0"",""1673""
","
","
","""event"",""trial"",""time""
""fullscreenenter"",""0"",""1673""
","
",null,"<div style=""font-size:60px;"">+</div>",NA,null,fixation,2020-06-21T20:36:43Z,NA,NA,NA,NA,NA,sub78
NA,mars-trial,100,275137,0.0-10.0-1.43,"""event"",""trial"",""time""
""fullscreenenter"",""0"",""1673""
","
","
","""event"",""trial"",""time""
""fullscreenenter"",""0"",""1673""
","
",7241.474999987986,<img style='border: 4px solid darkgrey;' src='img/tf1_44_M_ss1.jpeg'></img>,0,NA,exp,NA,1,<img src='img/tf1_44_T1_ss1_md.jpeg'></img>,0,FALSE,NA,sub78
NA,html-keyboard-response,101,275640,0.0-10.0-0.44,"""event"",""trial"",""time""
""fullscreenenter"",""0"",""1673""
","
","
","""event"",""trial"",""time""
""fullscreenenter"",""0"",""1673""
","
",null,"<div style=""font-size:60px;"">+</div>",NA,null,fixation,2020-06-21T20:36:51Z,NA,NA,NA,NA,NA,sub78
NA,mars-trial,102,282720,0.0-10.0-1.44,"""event"",""trial"",""time""
""fullscreenenter"",""0"",""1673""
","
","
","""event"",""trial"",""time""
""fullscreenenter"",""0"",""1673""
","
",6472.859999979846,<img style='border: 4px solid darkgrey;' src='img/tf1_45_M_ss2.jpeg'></img>,3,NA,exp,NA,0,<img src='img/tf1_45_T1_ss2_md.jpeg'></img>,0,TRUE,NA,sub78
NA,html-keyboard-response,103,283222,0.0-10.0-0.45,"""event"",""trial"",""time""
""fullscreenenter"",""0"",""1673""
","
","
","""event"",""trial"",""time""
""fullscreenenter"",""0"",""1673""
","
",null,"<div style=""font-size:60px;"">+</div>",NA,null,fixation,2020-06-21T20:36:58Z,NA,NA,NA,NA,NA,sub78
NA,mars-trial,104,292851,0.0-10.0-1.45,"""event"",""trial"",""time""
""fullscreenenter"",""0"",""1673""
","
","
","""event"",""trial"",""time""
""fullscreenenter"",""0"",""1673""
","
",9022.419999993872,<img style='border: 4px solid darkgrey;' src='img/tf1_46_M_ss3.jpeg'></img>,2,NA,exp,NA,2,<img src='img/tf1_46_T1_ss3_md.jpeg'></img>,0,FALSE,NA,sub78
NA,html-keyboard-response,105,293353,0.0-10.0-0.46,"""event"",""trial"",""time""
""fullscreenenter"",""0"",""1673""
","
","
","""event"",""trial"",""time""
""fullscreenenter"",""0"",""1673""
","
",null,"<div style=""font-size:60px;"">+</div>",NA,null,fixation,2020-06-21T20:37:09Z,NA,NA,NA,NA,NA,sub78
NA,mars-trial,106,302249,0.0-10.0-1.46,"""event"",""trial"",""time""
""fullscreenenter"",""0"",""1673""
","
","
","""event"",""trial"",""time""
""fullscreenenter"",""0"",""1673""
","
",8287.320000003092,<img style='border: 4px solid darkgrey;' src='img/tf1_47_M_ss1.jpeg'></img>,0,NA,exp,NA,2,<img src='img/tf1_47_T1_ss1_md.jpeg'></img>,0,FALSE,NA,sub78
NA,html-keyboard-response,107,302751,0.0-10.0-0.47,"""event"",""trial"",""time""
""fullscreenenter"",""0"",""1673""
","
","
","""event"",""trial"",""time""
""fullscreenenter"",""0"",""1673""
","
",null,"<div style=""font-size:60px;"">+</div>",NA,null,fixation,2020-06-21T20:37:18Z,NA,NA,NA,NA,NA,sub78
NA,mars-trial,108,311196,0.0-10.0-1.47,"""event"",""trial"",""time""
""fullscreenenter"",""0"",""1673""
","
","
","""event"",""trial"",""time""
""fullscreenenter"",""0"",""1673""
","
",7839.009999996051,<img style='border: 4px solid darkgrey;' src='img/tf1_48_M_ss2.jpeg'></img>,3,NA,exp,NA,0,<img src='img/tf1_48_T1_ss2_md.jpeg'></img>,0,TRUE,NA,sub78
NA,html-keyboard-response,109,311700,0.0-10.0-0.48,"""event"",""trial"",""time""
""fullscreenenter"",""0"",""1673""
","
","
","""event"",""trial"",""time""
""fullscreenenter"",""0"",""1673""
","
",null,"<div style=""font-size:60px;"">+</div>",NA,null,fixation,2020-06-21T20:37:27Z,NA,NA,NA,NA,NA,sub78
NA,mars-trial,110,316306,0.0-10.0-1.48,"""event"",""trial"",""time""
""fullscreenenter"",""0"",""1673""
","
","
","""event"",""trial"",""time""
""fullscreenenter"",""0"",""1673""
","
",3999.9600000446662,<img style='border: 4px solid darkgrey;' src='img/tf1_49_M_ss3.jpeg'></img>,1,NA,exp,NA,0,<img src='img/tf1_49_T1_ss3_md.jpeg'></img>,0,TRUE,NA,sub78
NA,html-keyboard-response,111,316809,0.0-10.0-0.49,"""event"",""trial"",""time""
""fullscreenenter"",""0"",""1673""
","
","
","""event"",""trial"",""time""
""fullscreenenter"",""0"",""1673""
","
",null,"<div style=""font-size:60px;"">+</div>",NA,null,fixation,2020-06-21T20:37:32Z,NA,NA,NA,NA,NA,sub78
NA,mars-trial,112,324015,0.0-10.0-1.49,"""event"",""trial"",""time""
""fullscreenenter"",""0"",""1673""
","
","
","""event"",""trial"",""time""
""fullscreenenter"",""0"",""1673""
","
",6597.340000036638,<img style='border: 4px solid darkgrey;' src='img/tf1_50_M_ss1.jpeg'></img>,3,NA,exp,NA,0,<img src='img/tf1_50_T1_ss1_md.jpeg'></img>,0,TRUE,NA,sub78
NA,html-keyboard-response,113,324517,0.0-10.0-0.50,"""event"",""trial"",""time""
""fullscreenenter"",""0"",""1673""
","
","
","""event"",""trial"",""time""
""fullscreenenter"",""0"",""1673""
","
",null,"<div style=""font-size:60px;"">+</div>",NA,null,fixation,2020-06-21T20:37:40Z,NA,NA,NA,NA,NA,sub78
NA,mars-trial,114,330590,0.0-10.0-1.50,"""event"",""trial"",""time""
""fullscreenenter"",""0"",""1673""
","
","
","""event"",""trial"",""time""
""fullscreenenter"",""0"",""1673""
","
",5466.514999978244,<img style='border: 4px solid darkgrey;' src='img/tf1_51_M_ss2.jpeg'></img>,2,NA,exp,NA,0,<img src='img/tf1_51_T1_ss2_md.jpeg'></img>,0,TRUE,NA,sub78
NA,html-keyboard-response,115,331091,0.0-10.0-0.51,"""event"",""trial"",""time""
""fullscreenenter"",""0"",""1673""
","
","
","""event"",""trial"",""time""
""fullscreenenter"",""0"",""1673""
","
",null,"<div style=""font-size:60px;"">+</div>",NA,null,fixation,2020-06-21T20:37:46Z,NA,NA,NA,NA,NA,sub78
NA,mars-trial,116,343884,0.0-10.0-1.51,"""event"",""trial"",""time""
""fullscreenenter"",""0"",""1673""
","
","
","""event"",""trial"",""time""
""fullscreenenter"",""0"",""1673""
","
",12186.869999975897,<img style='border: 4px solid darkgrey;' src='img/tf1_52_M_ss3.jpeg'></img>,2,NA,exp,NA,3,<img src='img/tf1_52_T1_ss3_md.jpeg'></img>,0,FALSE,NA,sub78
NA,html-keyboard-response,117,344386,0.0-10.0-0.52,"""event"",""trial"",""time""
""fullscreenenter"",""0"",""1673""
","
","
","""event"",""trial"",""time""
""fullscreenenter"",""0"",""1673""
","
",null,"<div style=""font-size:60px;"">+</div>",NA,null,fixation,2020-06-21T20:38:00Z,NA,NA,NA,NA,NA,sub78
NA,mars-trial,118,348710,0.0-10.0-1.52,"""event"",""trial"",""time""
""fullscreenenter"",""0"",""1673""
","
","
","""event"",""trial"",""time""
""fullscreenenter"",""0"",""1673""
","
",3718.8200000091456,<img style='border: 4px solid darkgrey;' src='img/tf1_53_M_ss1.jpeg'></img>,0,NA,exp,NA,3,<img src='img/tf1_53_T1_ss1_md.jpeg'></img>,0,FALSE,NA,sub78
NA,html-keyboard-response,119,349212,0.0-10.0-0.53,"""event"",""trial"",""time""
""fullscreenenter"",""0"",""1673""
","
","
","""event"",""trial"",""time""
""fullscreenenter"",""0"",""1673""
","
",null,"<div style=""font-size:60px;"">+</div>",NA,null,fixation,2020-06-21T20:38:04Z,NA,NA,NA,NA,NA,sub78
NA,mars-trial,120,363902,0.0-10.0-1.53,"""event"",""trial"",""time""
""fullscreenenter"",""0"",""1673""
","
","
","""event"",""trial"",""time""
""fullscreenenter"",""0"",""1673""
","
",14082.400000013877,<img style='border: 4px solid darkgrey;' src='img/tf1_54_M_ss2.jpeg'></img>,1,NA,exp,NA,0,<img src='img/tf1_54_T1_ss2_md.jpeg'></img>,0,TRUE,NA,sub78
NA,html-keyboard-response,121,364405,0.0-10.0-0.54,"""event"",""trial"",""time""
""fullscreenenter"",""0"",""1673""
","
","
","""event"",""trial"",""time""
""fullscreenenter"",""0"",""1673""
","
",null,"<div style=""font-size:60px;"">+</div>",NA,null,fixation,2020-06-21T20:38:20Z,NA,NA,NA,NA,NA,sub78
NA,mars-trial,122,378869,0.0-10.0-1.54,"""event"",""trial"",""time""
""fullscreenenter"",""0"",""1673""
","
","
","""event"",""trial"",""time""
""fullscreenenter"",""0"",""1673""
","
",13858.689999964554,<img style='border: 4px solid darkgrey;' src='img/tf1_55_M_ss3.jpeg'></img>,2,NA,exp,NA,0,<img src='img/tf1_55_T1_ss3_md.jpeg'></img>,0,TRUE,NA,sub78
NA,html-keyboard-response,123,379371,0.0-10.0-0.55,"""event"",""trial"",""time""
""fullscreenenter"",""0"",""1673""
","
","
","""event"",""trial"",""time""
""fullscreenenter"",""0"",""1673""
","
",null,"<div style=""font-size:60px;"">+</div>",NA,null,fixation,2020-06-21T20:38:35Z,NA,NA,NA,NA,NA,sub78
NA,mars-trial,124,392373,0.0-10.0-1.55,"""event"",""trial"",""time""
""fullscreenenter"",""0"",""1673""
","
","
","""event"",""trial"",""time""
""fullscreenenter"",""0"",""1673""
","
",12395.825000014156,<img style='border: 4px solid darkgrey;' src='img/tf1_56_M_ss1.jpeg'></img>,3,NA,exp,NA,0,<img src='img/tf1_56_T1_ss1_md.jpeg'></img>,0,TRUE,NA,sub78
NA,html-keyboard-response,125,392875,0.0-10.0-0.56,"""event"",""trial"",""time""
""fullscreenenter"",""0"",""1673""
","
","
","""event"",""trial"",""time""
""fullscreenenter"",""0"",""1673""
","
",null,"<div style=""font-size:60px;"">+</div>",NA,null,fixation,2020-06-21T20:38:48Z,NA,NA,NA,NA,NA,sub78
NA,mars-trial,126,397407,0.0-10.0-1.56,"""event"",""trial"",""time""
""fullscreenenter"",""0"",""1673""
","
","
","""event"",""trial"",""time""
""fullscreenenter"",""0"",""1673""
","
",3925.4599999985658,<img style='border: 4px solid darkgrey;' src='img/tf1_57_M_ss2.jpeg'></img>,1,NA,exp,NA,0,<img src='img/tf1_57_T1_ss2_md.jpeg'></img>,0,TRUE,NA,sub78
NA,html-keyboard-response,127,397910,0.0-10.0-0.57,"""event"",""trial"",""time""
""fullscreenenter"",""0"",""1673""
","
","
","""event"",""trial"",""time""
""fullscreenenter"",""0"",""1673""
","
",null,"<div style=""font-size:60px;"">+</div>",NA,null,fixation,2020-06-21T20:38:53Z,NA,NA,NA,NA,NA,sub78
NA,mars-trial,128,405053,0.0-10.0-1.57,"""event"",""trial"",""time""
""fullscreenenter"",""0"",""1673""
","
","
","""event"",""trial"",""time""
""fullscreenenter"",""0"",""1673""
","
",6538.890000025276,<img style='border: 4px solid darkgrey;' src='img/tf1_58_M_ss3.jpeg'></img>,3,NA,exp,NA,3,<img src='img/tf1_58_T1_ss3_md.jpeg'></img>,0,FALSE,NA,sub78
NA,html-keyboard-response,129,405555,0.0-10.0-0.58,"""event"",""trial"",""time""
""fullscreenenter"",""0"",""1673""
","
","
","""event"",""trial"",""time""
""fullscreenenter"",""0"",""1673""
","
",null,"<div style=""font-size:60px;"">+</div>",NA,null,fixation,2020-06-21T20:39:01Z,NA,NA,NA,NA,NA,sub78
NA,mars-trial,130,416835,0.0-10.0-1.58,"""event"",""trial"",""time""
""fullscreenenter"",""0"",""1673""
","
","
","""event"",""trial"",""time""
""fullscreenenter"",""0"",""1673""
","
",10674.074999988079,<img style='border: 4px solid darkgrey;' src='img/tf1_59_M_ss1.jpeg'></img>,0,NA,exp,NA,0,<img src='img/tf1_59_T1_ss1_md.jpeg'></img>,0,TRUE,NA,sub78
NA,html-keyboard-response,131,417338,0.0-10.0-0.59,"""event"",""trial"",""time""
""fullscreenenter"",""0"",""1673""
","
","
","""event"",""trial"",""time""
""fullscreenenter"",""0"",""1673""
","
",null,"<div style=""font-size:60px;"">+</div>",NA,null,fixation,2020-06-21T20:39:13Z,NA,NA,NA,NA,NA,sub78
NA,mars-trial,132,430519,0.0-10.0-1.59,"""event"",""trial"",""time""
""fullscreenenter"",""0"",""1673""
","
","
","""event"",""trial"",""time""
""fullscreenenter"",""0"",""1673""
","
",12575.224999978673,<img style='border: 4px solid darkgrey;' src='img/tf1_60_M_ss2.jpeg'></img>,1,NA,exp,NA,1,<img src='img/tf1_60_T1_ss2_md.jpeg'></img>,0,FALSE,NA,sub78
NA,html-keyboard-response,133,431021,0.0-10.0-0.60,"""event"",""trial"",""time""
""fullscreenenter"",""0"",""1673""
","
","
","""event"",""trial"",""time""
""fullscreenenter"",""0"",""1673""
","
",null,"<div style=""font-size:60px;"">+</div>",NA,null,fixation,2020-06-21T20:39:26Z,NA,NA,NA,NA,NA,sub78
NA,mars-trial,134,441324,0.0-10.0-1.60,"""event"",""trial"",""time""
""fullscreenenter"",""0"",""1673""
","
","
","""event"",""trial"",""time""
""fullscreenenter"",""0"",""1673""
","
",9694.584999990184,<img style='border: 4px solid darkgrey;' src='img/tf1_61_M_ss3.jpeg'></img>,1,NA,exp,NA,0,<img src='img/tf1_61_T1_ss3_md.jpeg'></img>,0,TRUE,NA,sub78
NA,html-keyboard-response,135,441826,0.0-10.0-0.61,"""event"",""trial"",""time""
""fullscreenenter"",""0"",""1673""
","
","
","""event"",""trial"",""time""
""fullscreenenter"",""0"",""1673""
","
",null,"<div style=""font-size:60px;"">+</div>",NA,null,fixation,2020-06-21T20:39:37Z,NA,NA,NA,NA,NA,sub78
NA,mars-trial,136,453968,0.0-10.0-1.61,"""event"",""trial"",""time""
""fullscreenenter"",""0"",""1673""
","
","
","""event"",""trial"",""time""
""fullscreenenter"",""0"",""1673""
","
",11534.894999989774,<img style='border: 4px solid darkgrey;' src='img/tf1_62_M_ss1.jpeg'></img>,3,NA,exp,NA,0,<img src='img/tf1_62_T1_ss1_md.jpeg'></img>,0,TRUE,NA,sub78
NA,html-keyboard-response,137,454470,0.0-10.0-0.62,"""event"",""trial"",""time""
""fullscreenenter"",""0"",""1673""
","
","
","""event"",""trial"",""time""
""fullscreenenter"",""0"",""1673""
","
",null,"<div style=""font-size:60px;"">+</div>",NA,null,fixation,2020-06-21T20:39:50Z,NA,NA,NA,NA,NA,sub78
NA,mars-trial,138,464148,0.0-10.0-1.62,"""event"",""trial"",""time""
""fullscreenenter"",""0"",""1673""
","
","
","""event"",""trial"",""time""
""fullscreenenter"",""0"",""1673""
","
",9071.100000001024,<img style='border: 4px solid darkgrey;' src='img/tf1_63_M_ss2.jpeg'></img>,2,NA,exp,NA,0,<img src='img/tf1_63_T1_ss2_md.jpeg'></img>,0,TRUE,NA,sub78
NA,html-keyboard-response,139,464649,0.0-10.0-0.63,"""event"",""trial"",""time""
""fullscreenenter"",""0"",""1673""
","
","
","""event"",""trial"",""time""
""fullscreenenter"",""0"",""1673""
","
",null,"<div style=""font-size:60px;"">+</div>",NA,null,fixation,2020-06-21T20:40:00Z,NA,NA,NA,NA,NA,sub78
NA,mars-trial,140,477699,0.0-10.0-1.63,"""event"",""trial"",""time""
""fullscreenenter"",""0"",""1673""
","
","
","""event"",""trial"",""time""
""fullscreenenter"",""0"",""1673""
","
",12443.605000036769,<img style='border: 4px solid darkgrey;' src='img/tf1_64_M_ss3.jpeg'></img>,1,NA,exp,NA,0,<img src='img/tf1_64_T1_ss3_md.jpeg'></img>,0,TRUE,NA,sub78
NA,html-keyboard-response,141,478202,0.0-10.0-0.64,"""event"",""trial"",""time""
""fullscreenenter"",""0"",""1673""
","
","
","""event"",""trial"",""time""
""fullscreenenter"",""0"",""1673""
","
",null,"<div style=""font-size:60px;"">+</div>",NA,null,fixation,2020-06-21T20:40:13Z,NA,NA,NA,NA,NA,sub78
NA,mars-trial,142,488611,0.0-10.0-1.64,"""event"",""trial"",""time""
""fullscreenenter"",""0"",""1673""
","
","
","""event"",""trial"",""time""
""fullscreenenter"",""0"",""1673""
","
",9804.010000021663,<img style='border: 4px solid darkgrey;' src='img/tf1_65_M_ss1.jpeg'></img>,0,NA,exp,NA,0,<img src='img/tf1_65_T1_ss1_md.jpeg'></img>,0,TRUE,NA,sub78
NA,html-keyboard-response,143,489113,0.0-10.0-0.65,"""event"",""trial"",""time""
""fullscreenenter"",""0"",""1673""
","
","
","""event"",""trial"",""time""
""fullscreenenter"",""0"",""1673""
","
",null,"<div style=""font-size:60px;"">+</div>",NA,null,fixation,2020-06-21T20:40:24Z,NA,NA,NA,NA,NA,sub78
NA,mars-trial,144,497914,0.0-10.0-1.65,"""event"",""trial"",""time""
""fullscreenenter"",""0"",""1673""
","
","
","""event"",""trial"",""time""
""fullscreenenter"",""0"",""1673""
","
",8192.894999985583,<img style='border: 4px solid darkgrey;' src='img/tf1_66_M_ss2.jpeg'></img>,3,NA,exp,NA,2,<img src='img/tf1_66_T1_ss2_md.jpeg'></img>,0,FALSE,NA,sub78
NA,html-keyboard-response,145,498417,0.0-10.0-0.66,"""event"",""trial"",""time""
""fullscreenenter"",""0"",""1673""
","
","
","""event"",""trial"",""time""
""fullscreenenter"",""0"",""1673""
","
",null,"<div style=""font-size:60px;"">+</div>",NA,null,fixation,2020-06-21T20:40:34Z,NA,NA,NA,NA,NA,sub78
NA,mars-trial,146,515098,0.0-10.0-1.66,"""event"",""trial"",""time""
""fullscreenenter"",""0"",""1673""
","
","
","""event"",""trial"",""time""
""fullscreenenter"",""0"",""1673""
","
",16074.174999957904,<img style='border: 4px solid darkgrey;' src='img/tf1_67_M_ss3.jpeg'></img>,1,NA,exp,NA,2,<img src='img/tf1_67_T1_ss3_md.jpeg'></img>,0,FALSE,NA,sub78
NA,html-keyboard-response,147,515601,0.0-10.0-0.67,"""event"",""trial"",""time""
""fullscreenenter"",""0"",""1673""
","
","
","""event"",""trial"",""time""
""fullscreenenter"",""0"",""1673""
","
",null,"<div style=""font-size:60px;"">+</div>",NA,null,fixation,2020-06-21T20:40:51Z,NA,NA,NA,NA,NA,sub78
NA,mars-trial,148,519435,0.0-10.0-1.67,"""event"",""trial"",""time""
""fullscreenenter"",""0"",""1673""
","
","
","""event"",""trial"",""time""
""fullscreenenter"",""0"",""1673""
","
",3226.8750000512227,<img style='border: 4px solid darkgrey;' src='img/tf1_68_M_ss1.jpeg'></img>,1,NA,exp,NA,0,<img src='img/tf1_68_T1_ss1_md.jpeg'></img>,0,TRUE,NA,sub78
NA,html-keyboard-response,149,519939,0.0-10.0-0.68,"""event"",""trial"",""time""
""fullscreenenter"",""0"",""1673""
","
","
","""event"",""trial"",""time""
""fullscreenenter"",""0"",""1673""
","
",null,"<div style=""font-size:60px;"">+</div>",NA,null,fixation,2020-06-21T20:40:55Z,NA,NA,NA,NA,NA,sub78
NA,mars-trial,150,529430,0.0-10.0-1.68,"""event"",""trial"",""time""
""fullscreenenter"",""0"",""1673""
","
","
","""event"",""trial"",""time""
""fullscreenenter"",""0"",""1673""
","
",NA,NA,NA,NA,exp,NA,NA,<img src='img/tf1_69_T1_ss2_md.jpeg'></img>,0,FALSE,NA,sub78
NA,html-keyboard-response,151,529931,0.0-10.0-0.69,"""event"",""trial"",""time""
""fullscreenenter"",""0"",""1673""
","
","
","""event"",""trial"",""time""
""fullscreenenter"",""0"",""1673""
","
",null,"<div style=""font-size:60px;"">+</div>",NA,null,fixation,2020-06-21T20:41:05Z,NA,NA,NA,NA,NA,sub78
NA,audio-button-response,152,533101,0.0-11.0,"""event"",""trial"",""time""
""fullscreenenter"",""0"",""1673""
","
","
","""event"",""trial"",""time""
""fullscreenenter"",""0"",""1673""
","
",3067.8850000258535,audio/mars_instructions_slide5.wav,0,NA,NA,NA,NA,NA,NA,NA,NA,sub78
