success,trial_type,trial_index,time_elapsed,internal_node_id,interactions,blur_events,focus_events,fullscreenenter_events,fullscreenexit_events,rt,stimulus,button_pressed,key_press,part,timestamp,unshuffled_button,correct_response,correct_button,correct,value,subject_id
TRUE,fullscreen,0,4322,0.0-0.0,"""event"",""trial"",""time""
""fullscreenenter"",""0"",""3338""
","
","
","""event"",""trial"",""time""
""fullscreenenter"",""0"",""3338""
","
",NA,NA,NA,NA,NA,NA,NA,NA,NA,NA,NA,sub39
NA,pavlovia,1,4333,0.0-1.0,"""event"",""trial"",""time""
""fullscreenenter"",""0"",""3338""
""fullscreenexit"",""2"",""7836""
","
","
","""event"",""trial"",""time""
""fullscreenenter"",""0"",""3338""
","""event"",""trial"",""time""
""fullscreenexit"",""2"",""7836""
",NA,NA,NA,NA,NA,NA,NA,NA,NA,NA,NA,sub39
NA,html-button-response,2,8881,0.0-2.0,"""event"",""trial"",""time""
""fullscreenenter"",""0"",""3338""
""fullscreenexit"",""2"",""7836""
","
","
","""event"",""trial"",""time""
""fullscreenenter"",""0"",""3338""
","""event"",""trial"",""time""
""fullscreenexit"",""2"",""7836""
",4544.425000000047,<p>Welcome! Press START to begin.</p><br>,0,NA,NA,NA,NA,NA,NA,NA,NA,sub39
NA,audio-button-response,3,16848,0.0-3.0,"""event"",""trial"",""time""
""fullscreenenter"",""0"",""3338""
""fullscreenexit"",""2"",""7836""
","
","
","""event"",""trial"",""time""
""fullscreenenter"",""0"",""3338""
","""event"",""trial"",""time""
""fullscreenexit"",""2"",""7836""
",7963.270000007469,audio/mars_instructions_slide2.wav,0,NA,NA,NA,NA,NA,NA,NA,NA,sub39
NA,audio-button-response,4,19040,0.0-4.0,"""event"",""trial"",""time""
""fullscreenenter"",""0"",""3338""
""fullscreenexit"",""2"",""7836""
","
","
","""event"",""trial"",""time""
""fullscreenenter"",""0"",""3338""
","""event"",""trial"",""time""
""fullscreenexit"",""2"",""7836""
",2190.2200000185985,audio/mars_instructions_slide3.wav,0,NA,NA,NA,NA,NA,NA,NA,NA,sub39
NA,html-keyboard-response,5,19543,0.0-5.0-0.0,"""event"",""trial"",""time""
""fullscreenenter"",""0"",""3338""
""fullscreenexit"",""2"",""7836""
","
","
","""event"",""trial"",""time""
""fullscreenenter"",""0"",""3338""
","""event"",""trial"",""time""
""fullscreenexit"",""2"",""7836""
",null,"<div style=""font-size:60px;"">+</div>",NA,null,fixation,2020-06-13T16:11:03Z,NA,NA,NA,NA,NA,sub39
NA,mars-trial,6,26428,0.0-5.0-1.0,"""event"",""trial"",""time""
""fullscreenenter"",""0"",""3338""
""fullscreenexit"",""2"",""7836""
","
","
","""event"",""trial"",""time""
""fullscreenenter"",""0"",""3338""
","""event"",""trial"",""time""
""fullscreenexit"",""2"",""7836""
",4773.320000007516,<img style='border: 4px solid darkgrey;' src='practice/pt1_M1.png'></img>,1,NA,practice,NA,0,<img src='practice/pt1_T1.png'></img>,0,TRUE,NA,sub39
NA,html-keyboard-response,7,26934,0.0-6.0-0.0,"""event"",""trial"",""time""
""fullscreenenter"",""0"",""3338""
""fullscreenexit"",""2"",""7836""
","
","
","""event"",""trial"",""time""
""fullscreenenter"",""0"",""3338""
","""event"",""trial"",""time""
""fullscreenexit"",""2"",""7836""
",null,"<div style=""font-size:60px;"">+</div>",NA,null,fixation,2020-06-13T16:11:10Z,NA,NA,NA,NA,NA,sub39
NA,mars-trial,8,32852,0.0-6.0-1.0,"""event"",""trial"",""time""
""fullscreenenter"",""0"",""3338""
""fullscreenexit"",""2"",""7836""
","
","
","""event"",""trial"",""time""
""fullscreenenter"",""0"",""3338""
","""event"",""trial"",""time""
""fullscreenexit"",""2"",""7836""
",3809.88499999512,<img style='border: 4px solid darkgrey;' src='practice/pt2_M1.png'></img>,3,NA,practice,NA,0,<img src='practice/pt2_T1.png'></img>,0,TRUE,NA,sub39
NA,html-keyboard-response,9,33355,0.0-7.0-0.0,"""event"",""trial"",""time""
""fullscreenenter"",""0"",""3338""
""fullscreenexit"",""2"",""7836""
","
","
","""event"",""trial"",""time""
""fullscreenenter"",""0"",""3338""
","""event"",""trial"",""time""
""fullscreenexit"",""2"",""7836""
",null,"<div style=""font-size:60px;"">+</div>",NA,null,fixation,2020-06-13T16:11:16Z,NA,NA,NA,NA,NA,sub39
NA,mars-trial,10,37475,0.0-7.0-1.0,"""event"",""trial"",""time""
""fullscreenenter"",""0"",""3338""
""fullscreenexit"",""2"",""7836""
","
","
","""event"",""trial"",""time""
""fullscreenenter"",""0"",""3338""
","""event"",""trial"",""time""
""fullscreenexit"",""2"",""7836""
",2011.2949999747798,<img style='border: 4px solid darkgrey;' src='practice/pt3_M1.png'></img>,0,NA,practice,NA,0,<img src='practice/pt3_T1.png'></img>,0,TRUE,NA,sub39
NA,audio-button-response,11,41064,0.0-8.0,"""event"",""trial"",""time""
""fullscreenenter"",""0"",""3338""
""fullscreenexit"",""2"",""7836""
","
","
","""event"",""trial"",""time""
""fullscreenenter"",""0"",""3338""
","""event"",""trial"",""time""
""fullscreenexit"",""2"",""7836""
",3586.249999993015,audio/mars_instructions_slide4.wav,0,NA,NA,NA,NA,NA,NA,NA,NA,sub39
NA,call-function,12,41065,0.0-9.0,"""event"",""trial"",""time""
""fullscreenenter"",""0"",""3338""
""fullscreenexit"",""2"",""7836""
","
","
","""event"",""trial"",""time""
""fullscreenenter"",""0"",""3338""
","""event"",""trial"",""time""
""fullscreenexit"",""2"",""7836""
",NA,NA,NA,NA,NA,NA,NA,NA,NA,NA,NA,sub39
NA,html-keyboard-response,13,41566,0.0-10.0-0.0,"""event"",""trial"",""time""
""fullscreenenter"",""0"",""3338""
""fullscreenexit"",""2"",""7836""
","
","
","""event"",""trial"",""time""
""fullscreenenter"",""0"",""3338""
","""event"",""trial"",""time""
""fullscreenexit"",""2"",""7836""
",null,"<div style=""font-size:60px;"">+</div>",NA,null,fixation,2020-06-13T16:11:25Z,NA,NA,NA,NA,NA,sub39
NA,mars-trial,14,44223,0.0-10.0-1.0,"""event"",""trial"",""time""
""fullscreenenter"",""0"",""3338""
""fullscreenexit"",""2"",""7836""
","
","
","""event"",""trial"",""time""
""fullscreenenter"",""0"",""3338""
","""event"",""trial"",""time""
""fullscreenexit"",""2"",""7836""
",2046.3800000143237,<img style='border: 4px solid darkgrey;' src='img/tf1_1_M_ss3.jpeg'></img>,2,NA,exp,NA,0,<img src='img/tf1_1_T1_ss3_md.jpeg'></img>,0,TRUE,NA,sub39
NA,html-keyboard-response,15,44727,0.0-10.0-0.1,"""event"",""trial"",""time""
""fullscreenenter"",""0"",""3338""
""fullscreenexit"",""2"",""7836""
","
","
","""event"",""trial"",""time""
""fullscreenenter"",""0"",""3338""
","""event"",""trial"",""time""
""fullscreenexit"",""2"",""7836""
",null,"<div style=""font-size:60px;"">+</div>",NA,null,fixation,2020-06-13T16:11:28Z,NA,NA,NA,NA,NA,sub39
NA,mars-trial,16,47834,0.0-10.0-1.1,"""event"",""trial"",""time""
""fullscreenenter"",""0"",""3338""
""fullscreenexit"",""2"",""7836""
","
","
","""event"",""trial"",""time""
""fullscreenenter"",""0"",""3338""
","""event"",""trial"",""time""
""fullscreenexit"",""2"",""7836""
",2497.9399999720044,<img style='border: 4px solid darkgrey;' src='img/tf1_2_M_ss1.jpeg'></img>,1,NA,exp,NA,0,<img src='img/tf1_2_T1_ss1_md.jpeg'></img>,0,TRUE,NA,sub39
NA,html-keyboard-response,17,48337,0.0-10.0-0.2,"""event"",""trial"",""time""
""fullscreenenter"",""0"",""3338""
""fullscreenexit"",""2"",""7836""
","
","
","""event"",""trial"",""time""
""fullscreenenter"",""0"",""3338""
","""event"",""trial"",""time""
""fullscreenexit"",""2"",""7836""
",null,"<div style=""font-size:60px;"">+</div>",NA,null,fixation,2020-06-13T16:11:31Z,NA,NA,NA,NA,NA,sub39
NA,mars-trial,18,50418,0.0-10.0-1.2,"""event"",""trial"",""time""
""fullscreenenter"",""0"",""3338""
""fullscreenexit"",""2"",""7836""
","
","
","""event"",""trial"",""time""
""fullscreenenter"",""0"",""3338""
","""event"",""trial"",""time""
""fullscreenexit"",""2"",""7836""
",1468.4199999901466,<img style='border: 4px solid darkgrey;' src='img/tf1_3_M_ss2.jpeg'></img>,2,NA,exp,NA,0,<img src='img/tf1_3_T1_ss2_md.jpeg'></img>,0,TRUE,NA,sub39
NA,html-keyboard-response,19,50922,0.0-10.0-0.3,"""event"",""trial"",""time""
""fullscreenenter"",""0"",""3338""
""fullscreenexit"",""2"",""7836""
","
","
","""event"",""trial"",""time""
""fullscreenenter"",""0"",""3338""
","""event"",""trial"",""time""
""fullscreenexit"",""2"",""7836""
",null,"<div style=""font-size:60px;"">+</div>",NA,null,fixation,2020-06-13T16:11:34Z,NA,NA,NA,NA,NA,sub39
NA,mars-trial,20,53943,0.0-10.0-1.3,"""event"",""trial"",""time""
""fullscreenenter"",""0"",""3338""
""fullscreenexit"",""2"",""7836""
","
","
","""event"",""trial"",""time""
""fullscreenenter"",""0"",""3338""
","""event"",""trial"",""time""
""fullscreenexit"",""2"",""7836""
",2413.6149999976624,<img style='border: 4px solid darkgrey;' src='img/tf1_4_M_ss3.jpeg'></img>,3,NA,exp,NA,0,<img src='img/tf1_4_T1_ss3_md.jpeg'></img>,0,TRUE,NA,sub39
NA,html-keyboard-response,21,54446,0.0-10.0-0.4,"""event"",""trial"",""time""
""fullscreenenter"",""0"",""3338""
""fullscreenexit"",""2"",""7836""
","
","
","""event"",""trial"",""time""
""fullscreenenter"",""0"",""3338""
","""event"",""trial"",""time""
""fullscreenexit"",""2"",""7836""
",null,"<div style=""font-size:60px;"">+</div>",NA,null,fixation,2020-06-13T16:11:38Z,NA,NA,NA,NA,NA,sub39
NA,mars-trial,22,56832,0.0-10.0-1.4,"""event"",""trial"",""time""
""fullscreenenter"",""0"",""3338""
""fullscreenexit"",""2"",""7836""
","
","
","""event"",""trial"",""time""
""fullscreenenter"",""0"",""3338""
","""event"",""trial"",""time""
""fullscreenexit"",""2"",""7836""
",1777.7049999858718,<img style='border: 4px solid darkgrey;' src='img/tf1_5_M_ss1.jpeg'></img>,1,NA,exp,NA,0,<img src='img/tf1_5_T1_ss1_md.jpeg'></img>,0,TRUE,NA,sub39
NA,html-keyboard-response,23,57336,0.0-10.0-0.5,"""event"",""trial"",""time""
""fullscreenenter"",""0"",""3338""
""fullscreenexit"",""2"",""7836""
","
","
","""event"",""trial"",""time""
""fullscreenenter"",""0"",""3338""
","""event"",""trial"",""time""
""fullscreenexit"",""2"",""7836""
",null,"<div style=""font-size:60px;"">+</div>",NA,null,fixation,2020-06-13T16:11:40Z,NA,NA,NA,NA,NA,sub39
NA,mars-trial,24,63953,0.0-10.0-1.5,"""event"",""trial"",""time""
""fullscreenenter"",""0"",""3338""
""fullscreenexit"",""2"",""7836""
","
","
","""event"",""trial"",""time""
""fullscreenenter"",""0"",""3338""
","""event"",""trial"",""time""
""fullscreenexit"",""2"",""7836""
",6006.745000020601,<img style='border: 4px solid darkgrey;' src='img/tf1_6_M_ss2.jpeg'></img>,3,NA,exp,NA,2,<img src='img/tf1_6_T1_ss2_md.jpeg'></img>,0,FALSE,NA,sub39
NA,html-keyboard-response,25,64456,0.0-10.0-0.6,"""event"",""trial"",""time""
""fullscreenenter"",""0"",""3338""
""fullscreenexit"",""2"",""7836""
","
","
","""event"",""trial"",""time""
""fullscreenenter"",""0"",""3338""
","""event"",""trial"",""time""
""fullscreenexit"",""2"",""7836""
",null,"<div style=""font-size:60px;"">+</div>",NA,null,fixation,2020-06-13T16:11:48Z,NA,NA,NA,NA,NA,sub39
NA,mars-trial,26,67903,0.0-10.0-1.6,"""event"",""trial"",""time""
""fullscreenenter"",""0"",""3338""
""fullscreenexit"",""2"",""7836""
","
","
","""event"",""trial"",""time""
""fullscreenenter"",""0"",""3338""
","""event"",""trial"",""time""
""fullscreenexit"",""2"",""7836""
",2839.780000009341,<img style='border: 4px solid darkgrey;' src='img/tf1_7_M_ss3.jpeg'></img>,2,NA,exp,NA,0,<img src='img/tf1_7_T1_ss3_md.jpeg'></img>,0,TRUE,NA,sub39
NA,html-keyboard-response,27,68406,0.0-10.0-0.7,"""event"",""trial"",""time""
""fullscreenenter"",""0"",""3338""
""fullscreenexit"",""2"",""7836""
","
","
","""event"",""trial"",""time""
""fullscreenenter"",""0"",""3338""
","""event"",""trial"",""time""
""fullscreenexit"",""2"",""7836""
",null,"<div style=""font-size:60px;"">+</div>",NA,null,fixation,2020-06-13T16:11:51Z,NA,NA,NA,NA,NA,sub39
NA,mars-trial,28,72064,0.0-10.0-1.7,"""event"",""trial"",""time""
""fullscreenenter"",""0"",""3338""
""fullscreenexit"",""2"",""7836""
","
","
","""event"",""trial"",""time""
""fullscreenenter"",""0"",""3338""
","""event"",""trial"",""time""
""fullscreenexit"",""2"",""7836""
",3049.3849999911617,<img style='border: 4px solid darkgrey;' src='img/tf1_8_M_ss1.jpeg'></img>,2,NA,exp,NA,0,<img src='img/tf1_8_T1_ss1_md.jpeg'></img>,0,TRUE,NA,sub39
NA,html-keyboard-response,29,72568,0.0-10.0-0.8,"""event"",""trial"",""time""
""fullscreenenter"",""0"",""3338""
""fullscreenexit"",""2"",""7836""
","
","
","""event"",""trial"",""time""
""fullscreenenter"",""0"",""3338""
","""event"",""trial"",""time""
""fullscreenexit"",""2"",""7836""
",null,"<div style=""font-size:60px;"">+</div>",NA,null,fixation,2020-06-13T16:11:56Z,NA,NA,NA,NA,NA,sub39
NA,mars-trial,30,79231,0.0-10.0-1.8,"""event"",""trial"",""time""
""fullscreenenter"",""0"",""3338""
""fullscreenexit"",""2"",""7836""
","
","
","""event"",""trial"",""time""
""fullscreenenter"",""0"",""3338""
","""event"",""trial"",""time""
""fullscreenexit"",""2"",""7836""
",6055.8900000178255,<img style='border: 4px solid darkgrey;' src='img/tf1_9_M_ss2.jpeg'></img>,3,NA,exp,NA,0,<img src='img/tf1_9_T1_ss2_md.jpeg'></img>,0,TRUE,NA,sub39
NA,html-keyboard-response,31,79735,0.0-10.0-0.9,"""event"",""trial"",""time""
""fullscreenenter"",""0"",""3338""
""fullscreenexit"",""2"",""7836""
","
","
","""event"",""trial"",""time""
""fullscreenenter"",""0"",""3338""
","""event"",""trial"",""time""
""fullscreenexit"",""2"",""7836""
",null,"<div style=""font-size:60px;"">+</div>",NA,null,fixation,2020-06-13T16:12:03Z,NA,NA,NA,NA,NA,sub39
NA,mars-trial,32,88849,0.0-10.0-1.9,"""event"",""trial"",""time""
""fullscreenenter"",""0"",""3338""
""fullscreenexit"",""2"",""7836""
","
","
","""event"",""trial"",""time""
""fullscreenenter"",""0"",""3338""
","""event"",""trial"",""time""
""fullscreenexit"",""2"",""7836""
",8504.730000015115,<img style='border: 4px solid darkgrey;' src='img/tf1_10_M_ss3.jpeg'></img>,3,NA,exp,NA,1,<img src='img/tf1_10_T1_ss3_md.jpeg'></img>,0,FALSE,NA,sub39
NA,html-keyboard-response,33,89353,0.0-10.0-0.10,"""event"",""trial"",""time""
""fullscreenenter"",""0"",""3338""
""fullscreenexit"",""2"",""7836""
","
","
","""event"",""trial"",""time""
""fullscreenenter"",""0"",""3338""
","""event"",""trial"",""time""
""fullscreenexit"",""2"",""7836""
",null,"<div style=""font-size:60px;"">+</div>",NA,null,fixation,2020-06-13T16:12:12Z,NA,NA,NA,NA,NA,sub39
NA,mars-trial,34,98934,0.0-10.0-1.10,"""event"",""trial"",""time""
""fullscreenenter"",""0"",""3338""
""fullscreenexit"",""2"",""7836""
","
","
","""event"",""trial"",""time""
""fullscreenenter"",""0"",""3338""
","""event"",""trial"",""time""
""fullscreenexit"",""2"",""7836""
",8973.6050000065,<img style='border: 4px solid darkgrey;' src='img/tf1_11_M_ss1.jpeg'></img>,1,NA,exp,NA,0,<img src='img/tf1_11_T1_ss1_md.jpeg'></img>,0,TRUE,NA,sub39
NA,html-keyboard-response,35,99437,0.0-10.0-0.11,"""event"",""trial"",""time""
""fullscreenenter"",""0"",""3338""
""fullscreenexit"",""2"",""7836""
","
","
","""event"",""trial"",""time""
""fullscreenenter"",""0"",""3338""
","""event"",""trial"",""time""
""fullscreenexit"",""2"",""7836""
",null,"<div style=""font-size:60px;"">+</div>",NA,null,fixation,2020-06-13T16:12:23Z,NA,NA,NA,NA,NA,sub39
NA,mars-trial,36,106846,0.0-10.0-1.11,"""event"",""trial"",""time""
""fullscreenenter"",""0"",""3338""
""fullscreenexit"",""2"",""7836""
","
","
","""event"",""trial"",""time""
""fullscreenenter"",""0"",""3338""
","""event"",""trial"",""time""
""fullscreenexit"",""2"",""7836""
",6802.155000012135,<img style='border: 4px solid darkgrey;' src='img/tf1_12_M_ss2.jpeg'></img>,1,NA,exp,NA,1,<img src='img/tf1_12_T1_ss2_md.jpeg'></img>,0,FALSE,NA,sub39
NA,html-keyboard-response,37,107349,0.0-10.0-0.12,"""event"",""trial"",""time""
""fullscreenenter"",""0"",""3338""
""fullscreenexit"",""2"",""7836""
","
","
","""event"",""trial"",""time""
""fullscreenenter"",""0"",""3338""
","""event"",""trial"",""time""
""fullscreenexit"",""2"",""7836""
",null,"<div style=""font-size:60px;"">+</div>",NA,null,fixation,2020-06-13T16:12:30Z,NA,NA,NA,NA,NA,sub39
NA,mars-trial,38,116703,0.0-10.0-1.12,"""event"",""trial"",""time""
""fullscreenenter"",""0"",""3338""
""fullscreenexit"",""2"",""7836""
","
","
","""event"",""trial"",""time""
""fullscreenenter"",""0"",""3338""
","""event"",""trial"",""time""
""fullscreenexit"",""2"",""7836""
",8748.274999990826,<img style='border: 4px solid darkgrey;' src='img/tf1_13_M_ss3.jpeg'></img>,0,NA,exp,NA,0,<img src='img/tf1_13_T1_ss3_md.jpeg'></img>,0,TRUE,NA,sub39
NA,html-keyboard-response,39,117206,0.0-10.0-0.13,"""event"",""trial"",""time""
""fullscreenenter"",""0"",""3338""
""fullscreenexit"",""2"",""7836""
","
","
","""event"",""trial"",""time""
""fullscreenenter"",""0"",""3338""
","""event"",""trial"",""time""
""fullscreenexit"",""2"",""7836""
",null,"<div style=""font-size:60px;"">+</div>",NA,null,fixation,2020-06-13T16:12:40Z,NA,NA,NA,NA,NA,sub39
NA,mars-trial,40,127830,0.0-10.0-1.13,"""event"",""trial"",""time""
""fullscreenenter"",""0"",""3338""
""fullscreenexit"",""2"",""7836""
","
","
","""event"",""trial"",""time""
""fullscreenenter"",""0"",""3338""
","""event"",""trial"",""time""
""fullscreenexit"",""2"",""7836""
",10014.40499999444,<img style='border: 4px solid darkgrey;' src='img/tf1_14_M_ss1.jpeg'></img>,3,NA,exp,NA,2,<img src='img/tf1_14_T1_ss1_md.jpeg'></img>,0,FALSE,NA,sub39
NA,html-keyboard-response,41,128336,0.0-10.0-0.14,"""event"",""trial"",""time""
""fullscreenenter"",""0"",""3338""
""fullscreenexit"",""2"",""7836""
","
","
","""event"",""trial"",""time""
""fullscreenenter"",""0"",""3338""
","""event"",""trial"",""time""
""fullscreenexit"",""2"",""7836""
",null,"<div style=""font-size:60px;"">+</div>",NA,null,fixation,2020-06-13T16:12:51Z,NA,NA,NA,NA,NA,sub39
NA,mars-trial,42,135376,0.0-10.0-1.14,"""event"",""trial"",""time""
""fullscreenenter"",""0"",""3338""
""fullscreenexit"",""2"",""7836""
","
","
","""event"",""trial"",""time""
""fullscreenenter"",""0"",""3338""
","""event"",""trial"",""time""
""fullscreenexit"",""2"",""7836""
",6428.509999997914,<img style='border: 4px solid darkgrey;' src='img/tf1_15_M_ss2.jpeg'></img>,1,NA,exp,NA,1,<img src='img/tf1_15_T1_ss2_md.jpeg'></img>,0,FALSE,NA,sub39
NA,html-keyboard-response,43,135880,0.0-10.0-0.15,"""event"",""trial"",""time""
""fullscreenenter"",""0"",""3338""
""fullscreenexit"",""2"",""7836""
","
","
","""event"",""trial"",""time""
""fullscreenenter"",""0"",""3338""
","""event"",""trial"",""time""
""fullscreenexit"",""2"",""7836""
",null,"<div style=""font-size:60px;"">+</div>",NA,null,fixation,2020-06-13T16:12:59Z,NA,NA,NA,NA,NA,sub39
NA,mars-trial,44,150478,0.0-10.0-1.15,"""event"",""trial"",""time""
""fullscreenenter"",""0"",""3338""
""fullscreenexit"",""2"",""7836""
","
","
","""event"",""trial"",""time""
""fullscreenenter"",""0"",""3338""
","""event"",""trial"",""time""
""fullscreenexit"",""2"",""7836""
",13988.744999980554,<img style='border: 4px solid darkgrey;' src='img/tf1_16_M_ss3.jpeg'></img>,1,NA,exp,NA,1,<img src='img/tf1_16_T1_ss3_md.jpeg'></img>,0,FALSE,NA,sub39
NA,html-keyboard-response,45,150981,0.0-10.0-0.16,"""event"",""trial"",""time""
""fullscreenenter"",""0"",""3338""
""fullscreenexit"",""2"",""7836""
","
","
","""event"",""trial"",""time""
""fullscreenenter"",""0"",""3338""
","""event"",""trial"",""time""
""fullscreenexit"",""2"",""7836""
",null,"<div style=""font-size:60px;"">+</div>",NA,null,fixation,2020-06-13T16:13:14Z,NA,NA,NA,NA,NA,sub39
NA,mars-trial,46,157983,0.0-10.0-1.16,"""event"",""trial"",""time""
""fullscreenenter"",""0"",""3338""
""fullscreenexit"",""2"",""7836""
","
","
","""event"",""trial"",""time""
""fullscreenenter"",""0"",""3338""
","""event"",""trial"",""time""
""fullscreenexit"",""2"",""7836""
",6392.840000014985,<img style='border: 4px solid darkgrey;' src='img/tf1_17_M_ss1.jpeg'></img>,1,NA,exp,NA,2,<img src='img/tf1_17_T1_ss1_md.jpeg'></img>,0,FALSE,NA,sub39
NA,html-keyboard-response,47,158486,0.0-10.0-0.17,"""event"",""trial"",""time""
""fullscreenenter"",""0"",""3338""
""fullscreenexit"",""2"",""7836""
","
","
","""event"",""trial"",""time""
""fullscreenenter"",""0"",""3338""
","""event"",""trial"",""time""
""fullscreenexit"",""2"",""7836""
",null,"<div style=""font-size:60px;"">+</div>",NA,null,fixation,2020-06-13T16:13:22Z,NA,NA,NA,NA,NA,sub39
NA,mars-trial,48,160654,0.0-10.0-1.17,"""event"",""trial"",""time""
""fullscreenenter"",""0"",""3338""
""fullscreenexit"",""2"",""7836""
","
","
","""event"",""trial"",""time""
""fullscreenenter"",""0"",""3338""
","""event"",""trial"",""time""
""fullscreenexit"",""2"",""7836""
",1559.7800000105053,<img style='border: 4px solid darkgrey;' src='img/tf1_18_M_ss2.jpeg'></img>,2,NA,exp,NA,1,<img src='img/tf1_18_T1_ss2_md.jpeg'></img>,0,FALSE,NA,sub39
NA,html-keyboard-response,49,161156,0.0-10.0-0.18,"""event"",""trial"",""time""
""fullscreenenter"",""0"",""3338""
""fullscreenexit"",""2"",""7836""
","
","
","""event"",""trial"",""time""
""fullscreenenter"",""0"",""3338""
","""event"",""trial"",""time""
""fullscreenexit"",""2"",""7836""
",null,"<div style=""font-size:60px;"">+</div>",NA,null,fixation,2020-06-13T16:13:24Z,NA,NA,NA,NA,NA,sub39
NA,mars-trial,50,169638,0.0-10.0-1.18,"""event"",""trial"",""time""
""fullscreenenter"",""0"",""3338""
""fullscreenexit"",""2"",""7836""
","
","
","""event"",""trial"",""time""
""fullscreenenter"",""0"",""3338""
","""event"",""trial"",""time""
""fullscreenexit"",""2"",""7836""
",7871.3949999946635,<img style='border: 4px solid darkgrey;' src='img/tf1_19_M_ss3.jpeg'></img>,0,NA,exp,NA,0,<img src='img/tf1_19_T1_ss3_md.jpeg'></img>,0,TRUE,NA,sub39
NA,html-keyboard-response,51,170141,0.0-10.0-0.19,"""event"",""trial"",""time""
""fullscreenenter"",""0"",""3338""
""fullscreenexit"",""2"",""7836""
","
","
","""event"",""trial"",""time""
""fullscreenenter"",""0"",""3338""
","""event"",""trial"",""time""
""fullscreenexit"",""2"",""7836""
",null,"<div style=""font-size:60px;"">+</div>",NA,null,fixation,2020-06-13T16:13:33Z,NA,NA,NA,NA,NA,sub39
NA,mars-trial,52,175495,0.0-10.0-1.19,"""event"",""trial"",""time""
""fullscreenenter"",""0"",""3338""
""fullscreenexit"",""2"",""7836""
","
","
","""event"",""trial"",""time""
""fullscreenenter"",""0"",""3338""
","""event"",""trial"",""time""
""fullscreenexit"",""2"",""7836""
",4744.1300000064075,<img style='border: 4px solid darkgrey;' src='img/tf1_20_M_ss1.jpeg'></img>,3,NA,exp,NA,2,<img src='img/tf1_20_T1_ss1_md.jpeg'></img>,0,FALSE,NA,sub39
NA,html-keyboard-response,53,175998,0.0-10.0-0.20,"""event"",""trial"",""time""
""fullscreenenter"",""0"",""3338""
""fullscreenexit"",""2"",""7836""
","
","
","""event"",""trial"",""time""
""fullscreenenter"",""0"",""3338""
","""event"",""trial"",""time""
""fullscreenexit"",""2"",""7836""
",null,"<div style=""font-size:60px;"">+</div>",NA,null,fixation,2020-06-13T16:13:39Z,NA,NA,NA,NA,NA,sub39
NA,mars-trial,54,182334,0.0-10.0-1.20,"""event"",""trial"",""time""
""fullscreenenter"",""0"",""3338""
""fullscreenexit"",""2"",""7836""
","
","
","""event"",""trial"",""time""
""fullscreenenter"",""0"",""3338""
","""event"",""trial"",""time""
""fullscreenexit"",""2"",""7836""
",5724.069999996573,<img style='border: 4px solid darkgrey;' src='img/tf1_21_M_ss2.jpeg'></img>,2,NA,exp,NA,2,<img src='img/tf1_21_T1_ss2_md.jpeg'></img>,0,FALSE,NA,sub39
NA,html-keyboard-response,55,182836,0.0-10.0-0.21,"""event"",""trial"",""time""
""fullscreenenter"",""0"",""3338""
""fullscreenexit"",""2"",""7836""
","
","
","""event"",""trial"",""time""
""fullscreenenter"",""0"",""3338""
","""event"",""trial"",""time""
""fullscreenexit"",""2"",""7836""
",null,"<div style=""font-size:60px;"">+</div>",NA,null,fixation,2020-06-13T16:13:46Z,NA,NA,NA,NA,NA,sub39
NA,mars-trial,56,189046,0.0-10.0-1.21,"""event"",""trial"",""time""
""fullscreenenter"",""0"",""3338""
""fullscreenexit"",""2"",""7836""
","
","
","""event"",""trial"",""time""
""fullscreenenter"",""0"",""3338""
","""event"",""trial"",""time""
""fullscreenexit"",""2"",""7836""
",5602.714999986347,<img style='border: 4px solid darkgrey;' src='img/tf1_22_M_ss3.jpeg'></img>,3,NA,exp,NA,0,<img src='img/tf1_22_T1_ss3_md.jpeg'></img>,0,TRUE,NA,sub39
NA,html-keyboard-response,57,189550,0.0-10.0-0.22,"""event"",""trial"",""time""
""fullscreenenter"",""0"",""3338""
""fullscreenexit"",""2"",""7836""
","
","
","""event"",""trial"",""time""
""fullscreenenter"",""0"",""3338""
","""event"",""trial"",""time""
""fullscreenexit"",""2"",""7836""
",null,"<div style=""font-size:60px;"">+</div>",NA,null,fixation,2020-06-13T16:13:53Z,NA,NA,NA,NA,NA,sub39
NA,mars-trial,58,198551,0.0-10.0-1.22,"""event"",""trial"",""time""
""fullscreenenter"",""0"",""3338""
""fullscreenexit"",""2"",""7836""
","
","
","""event"",""trial"",""time""
""fullscreenenter"",""0"",""3338""
","""event"",""trial"",""time""
""fullscreenexit"",""2"",""7836""
",8392.909999995027,<img style='border: 4px solid darkgrey;' src='img/tf1_23_M_ss1.jpeg'></img>,2,NA,exp,NA,3,<img src='img/tf1_23_T1_ss1_md.jpeg'></img>,0,FALSE,NA,sub39
NA,html-keyboard-response,59,199769,0.0-10.0-0.23,"""event"",""trial"",""time""
""fullscreenenter"",""0"",""3338""
""fullscreenexit"",""2"",""7836""
","
","
","""event"",""trial"",""time""
""fullscreenenter"",""0"",""3338""
","""event"",""trial"",""time""
""fullscreenexit"",""2"",""7836""
",null,"<div style=""font-size:60px;"">+</div>",NA,null,fixation,2020-06-13T16:14:03Z,NA,NA,NA,NA,NA,sub39
NA,mars-trial,60,206744,0.0-10.0-1.23,"""event"",""trial"",""time""
""fullscreenenter"",""0"",""3338""
""fullscreenexit"",""2"",""7836""
","
","
","""event"",""trial"",""time""
""fullscreenenter"",""0"",""3338""
","""event"",""trial"",""time""
""fullscreenexit"",""2"",""7836""
",6358.705000020564,<img style='border: 4px solid darkgrey;' src='img/tf1_24_M_ss2.jpeg'></img>,0,NA,exp,NA,1,<img src='img/tf1_24_T1_ss2_md.jpeg'></img>,0,FALSE,NA,sub39
NA,html-keyboard-response,61,207246,0.0-10.0-0.24,"""event"",""trial"",""time""
""fullscreenenter"",""0"",""3338""
""fullscreenexit"",""2"",""7836""
","
","
","""event"",""trial"",""time""
""fullscreenenter"",""0"",""3338""
","""event"",""trial"",""time""
""fullscreenexit"",""2"",""7836""
",null,"<div style=""font-size:60px;"">+</div>",NA,null,fixation,2020-06-13T16:14:10Z,NA,NA,NA,NA,NA,sub39
NA,mars-trial,62,213271,0.0-10.0-1.24,"""event"",""trial"",""time""
""fullscreenenter"",""0"",""3338""
""fullscreenexit"",""2"",""7836""
","
","
","""event"",""trial"",""time""
""fullscreenenter"",""0"",""3338""
","""event"",""trial"",""time""
""fullscreenexit"",""2"",""7836""
",5416.440000000875,<img style='border: 4px solid darkgrey;' src='img/tf1_25_M_ss3.jpeg'></img>,0,NA,exp,NA,0,<img src='img/tf1_25_T1_ss3_md.jpeg'></img>,0,TRUE,NA,sub39
NA,html-keyboard-response,63,213775,0.0-10.0-0.25,"""event"",""trial"",""time""
""fullscreenenter"",""0"",""3338""
""fullscreenexit"",""2"",""7836""
","
","
","""event"",""trial"",""time""
""fullscreenenter"",""0"",""3338""
","""event"",""trial"",""time""
""fullscreenexit"",""2"",""7836""
",null,"<div style=""font-size:60px;"">+</div>",NA,null,fixation,2020-06-13T16:14:17Z,NA,NA,NA,NA,NA,sub39
NA,mars-trial,64,224752,0.0-10.0-1.25,"""event"",""trial"",""time""
""fullscreenenter"",""0"",""3338""
""fullscreenexit"",""2"",""7836""
","
","
","""event"",""trial"",""time""
""fullscreenenter"",""0"",""3338""
","""event"",""trial"",""time""
""fullscreenexit"",""2"",""7836""
",10367.385000019567,<img style='border: 4px solid darkgrey;' src='img/tf1_26_M_ss1.jpeg'></img>,2,NA,exp,NA,2,<img src='img/tf1_26_T1_ss1_md.jpeg'></img>,0,FALSE,NA,sub39
NA,html-keyboard-response,65,225255,0.0-10.0-0.26,"""event"",""trial"",""time""
""fullscreenenter"",""0"",""3338""
""fullscreenexit"",""2"",""7836""
","
","
","""event"",""trial"",""time""
""fullscreenenter"",""0"",""3338""
","""event"",""trial"",""time""
""fullscreenexit"",""2"",""7836""
",null,"<div style=""font-size:60px;"">+</div>",NA,null,fixation,2020-06-13T16:14:28Z,NA,NA,NA,NA,NA,sub39
NA,mars-trial,66,229926,0.0-10.0-1.26,"""event"",""trial"",""time""
""fullscreenenter"",""0"",""3338""
""fullscreenexit"",""2"",""7836""
","
","
","""event"",""trial"",""time""
""fullscreenenter"",""0"",""3338""
","""event"",""trial"",""time""
""fullscreenexit"",""2"",""7836""
",4062.6249999913853,<img style='border: 4px solid darkgrey;' src='img/tf1_27_M_ss2.jpeg'></img>,3,NA,exp,NA,3,<img src='img/tf1_27_T1_ss2_md.jpeg'></img>,0,FALSE,NA,sub39
NA,html-keyboard-response,67,230430,0.0-10.0-0.27,"""event"",""trial"",""time""
""fullscreenenter"",""0"",""3338""
""fullscreenexit"",""2"",""7836""
","
","
","""event"",""trial"",""time""
""fullscreenenter"",""0"",""3338""
","""event"",""trial"",""time""
""fullscreenexit"",""2"",""7836""
",null,"<div style=""font-size:60px;"">+</div>",NA,null,fixation,2020-06-13T16:14:34Z,NA,NA,NA,NA,NA,sub39
NA,mars-trial,68,241960,0.0-10.0-1.27,"""event"",""trial"",""time""
""fullscreenenter"",""0"",""3338""
""fullscreenexit"",""2"",""7836""
","
","
","""event"",""trial"",""time""
""fullscreenenter"",""0"",""3338""
","""event"",""trial"",""time""
""fullscreenexit"",""2"",""7836""
",10918.919999996433,<img style='border: 4px solid darkgrey;' src='img/tf1_28_M_ss3.jpeg'></img>,3,NA,exp,NA,1,<img src='img/tf1_28_T1_ss3_md.jpeg'></img>,0,FALSE,NA,sub39
NA,html-keyboard-response,69,242462,0.0-10.0-0.28,"""event"",""trial"",""time""
""fullscreenenter"",""0"",""3338""
""fullscreenexit"",""2"",""7836""
","
","
","""event"",""trial"",""time""
""fullscreenenter"",""0"",""3338""
","""event"",""trial"",""time""
""fullscreenexit"",""2"",""7836""
",null,"<div style=""font-size:60px;"">+</div>",NA,null,fixation,2020-06-13T16:14:46Z,NA,NA,NA,NA,NA,sub39
NA,mars-trial,70,245751,0.0-10.0-1.28,"""event"",""trial"",""time""
""fullscreenenter"",""0"",""3338""
""fullscreenexit"",""2"",""7836""
","
","
","""event"",""trial"",""time""
""fullscreenenter"",""0"",""3338""
","""event"",""trial"",""time""
""fullscreenexit"",""2"",""7836""
",2680.2000000025146,<img style='border: 4px solid darkgrey;' src='img/tf1_29_M_ss1.jpeg'></img>,1,NA,exp,NA,3,<img src='img/tf1_29_T1_ss1_md.jpeg'></img>,0,FALSE,NA,sub39
NA,html-keyboard-response,71,246256,0.0-10.0-0.29,"""event"",""trial"",""time""
""fullscreenenter"",""0"",""3338""
""fullscreenexit"",""2"",""7836""
","
","
","""event"",""trial"",""time""
""fullscreenenter"",""0"",""3338""
","""event"",""trial"",""time""
""fullscreenexit"",""2"",""7836""
",null,"<div style=""font-size:60px;"">+</div>",NA,null,fixation,2020-06-13T16:14:49Z,NA,NA,NA,NA,NA,sub39
NA,mars-trial,72,248608,0.0-10.0-1.29,"""event"",""trial"",""time""
""fullscreenenter"",""0"",""3338""
""fullscreenexit"",""2"",""7836""
","
","
","""event"",""trial"",""time""
""fullscreenenter"",""0"",""3338""
","""event"",""trial"",""time""
""fullscreenexit"",""2"",""7836""
",1741.6950000042561,<img style='border: 4px solid darkgrey;' src='img/tf1_30_M_ss2.jpeg'></img>,3,NA,exp,NA,0,<img src='img/tf1_30_T1_ss2_md.jpeg'></img>,0,TRUE,NA,sub39
NA,html-keyboard-response,73,249114,0.0-10.0-0.30,"""event"",""trial"",""time""
""fullscreenenter"",""0"",""3338""
""fullscreenexit"",""2"",""7836""
","
","
","""event"",""trial"",""time""
""fullscreenenter"",""0"",""3338""
","""event"",""trial"",""time""
""fullscreenexit"",""2"",""7836""
",null,"<div style=""font-size:60px;"">+</div>",NA,null,fixation,2020-06-13T16:14:52Z,NA,NA,NA,NA,NA,sub39
NA,mars-trial,74,250711,0.0-10.0-1.30,"""event"",""trial"",""time""
""fullscreenenter"",""0"",""3338""
""fullscreenexit"",""2"",""7836""
","
","
","""event"",""trial"",""time""
""fullscreenenter"",""0"",""3338""
","""event"",""trial"",""time""
""fullscreenexit"",""2"",""7836""
",989.6050000097603,<img style='border: 4px solid darkgrey;' src='img/tf1_31_M_ss3.jpeg'></img>,2,NA,exp,NA,3,<img src='img/tf1_31_T1_ss3_md.jpeg'></img>,0,FALSE,NA,sub39
NA,html-keyboard-response,75,251214,0.0-10.0-0.31,"""event"",""trial"",""time""
""fullscreenenter"",""0"",""3338""
""fullscreenexit"",""2"",""7836""
","
","
","""event"",""trial"",""time""
""fullscreenenter"",""0"",""3338""
","""event"",""trial"",""time""
""fullscreenexit"",""2"",""7836""
",null,"<div style=""font-size:60px;"">+</div>",NA,null,fixation,2020-06-13T16:14:54Z,NA,NA,NA,NA,NA,sub39
NA,mars-trial,76,252247,0.0-10.0-1.31,"""event"",""trial"",""time""
""fullscreenenter"",""0"",""3338""
""fullscreenexit"",""2"",""7836""
","
","
","""event"",""trial"",""time""
""fullscreenenter"",""0"",""3338""
","""event"",""trial"",""time""
""fullscreenexit"",""2"",""7836""
",425.19999999785796,<img style='border: 4px solid darkgrey;' src='img/tf1_32_M_ss1.jpeg'></img>,1,NA,exp,NA,1,<img src='img/tf1_32_T1_ss1_md.jpeg'></img>,0,FALSE,NA,sub39
NA,html-keyboard-response,77,252751,0.0-10.0-0.32,"""event"",""trial"",""time""
""fullscreenenter"",""0"",""3338""
""fullscreenexit"",""2"",""7836""
","
","
","""event"",""trial"",""time""
""fullscreenenter"",""0"",""3338""
","""event"",""trial"",""time""
""fullscreenexit"",""2"",""7836""
",null,"<div style=""font-size:60px;"">+</div>",NA,null,fixation,2020-06-13T16:14:56Z,NA,NA,NA,NA,NA,sub39
NA,mars-trial,78,253774,0.0-10.0-1.32,"""event"",""trial"",""time""
""fullscreenenter"",""0"",""3338""
""fullscreenexit"",""2"",""7836""
","
","
","""event"",""trial"",""time""
""fullscreenenter"",""0"",""3338""
","""event"",""trial"",""time""
""fullscreenexit"",""2"",""7836""
",415.6950000033248,<img style='border: 4px solid darkgrey;' src='img/tf1_33_M_ss2.jpeg'></img>,3,NA,exp,NA,3,<img src='img/tf1_33_T1_ss2_md.jpeg'></img>,0,FALSE,NA,sub39
NA,html-keyboard-response,79,254276,0.0-10.0-0.33,"""event"",""trial"",""time""
""fullscreenenter"",""0"",""3338""
""fullscreenexit"",""2"",""7836""
","
","
","""event"",""trial"",""time""
""fullscreenenter"",""0"",""3338""
","""event"",""trial"",""time""
""fullscreenexit"",""2"",""7836""
",null,"<div style=""font-size:60px;"">+</div>",NA,null,fixation,2020-06-13T16:14:57Z,NA,NA,NA,NA,NA,sub39
NA,mars-trial,80,255269,0.0-10.0-1.33,"""event"",""trial"",""time""
""fullscreenenter"",""0"",""3338""
""fullscreenexit"",""2"",""7836""
","
","
","""event"",""trial"",""time""
""fullscreenenter"",""0"",""3338""
","""event"",""trial"",""time""
""fullscreenexit"",""2"",""7836""
",387.67500000540167,<img style='border: 4px solid darkgrey;' src='img/tf1_34_M_ss3.jpeg'></img>,2,NA,exp,NA,2,<img src='img/tf1_34_T1_ss3_md.jpeg'></img>,0,FALSE,NA,sub39
NA,html-keyboard-response,81,255771,0.0-10.0-0.34,"""event"",""trial"",""time""
""fullscreenenter"",""0"",""3338""
""fullscreenexit"",""2"",""7836""
","
","
","""event"",""trial"",""time""
""fullscreenenter"",""0"",""3338""
","""event"",""trial"",""time""
""fullscreenexit"",""2"",""7836""
",null,"<div style=""font-size:60px;"">+</div>",NA,null,fixation,2020-06-13T16:14:59Z,NA,NA,NA,NA,NA,sub39
NA,mars-trial,82,256734,0.0-10.0-1.34,"""event"",""trial"",""time""
""fullscreenenter"",""0"",""3338""
""fullscreenexit"",""2"",""7836""
","
","
","""event"",""trial"",""time""
""fullscreenenter"",""0"",""3338""
","""event"",""trial"",""time""
""fullscreenexit"",""2"",""7836""
",356.08999998657964,<img style='border: 4px solid darkgrey;' src='img/tf1_35_M_ss1.jpeg'></img>,1,NA,exp,NA,3,<img src='img/tf1_35_T1_ss1_md.jpeg'></img>,0,FALSE,NA,sub39
NA,html-keyboard-response,83,257236,0.0-10.0-0.35,"""event"",""trial"",""time""
""fullscreenenter"",""0"",""3338""
""fullscreenexit"",""2"",""7836""
","
","
","""event"",""trial"",""time""
""fullscreenenter"",""0"",""3338""
","""event"",""trial"",""time""
""fullscreenexit"",""2"",""7836""
",null,"<div style=""font-size:60px;"">+</div>",NA,null,fixation,2020-06-13T16:15:00Z,NA,NA,NA,NA,NA,sub39
NA,mars-trial,84,258743,0.0-10.0-1.35,"""event"",""trial"",""time""
""fullscreenenter"",""0"",""3338""
""fullscreenexit"",""2"",""7836""
","
","
","""event"",""trial"",""time""
""fullscreenenter"",""0"",""3338""
","""event"",""trial"",""time""
""fullscreenexit"",""2"",""7836""
",898.8200000021607,<img style='border: 4px solid darkgrey;' src='img/tf1_36_M_ss2.jpeg'></img>,2,NA,exp,NA,1,<img src='img/tf1_36_T1_ss2_md.jpeg'></img>,0,FALSE,NA,sub39
NA,html-keyboard-response,85,259245,0.0-10.0-0.36,"""event"",""trial"",""time""
""fullscreenenter"",""0"",""3338""
""fullscreenexit"",""2"",""7836""
","
","
","""event"",""trial"",""time""
""fullscreenenter"",""0"",""3338""
","""event"",""trial"",""time""
""fullscreenexit"",""2"",""7836""
",null,"<div style=""font-size:60px;"">+</div>",NA,null,fixation,2020-06-13T16:15:02Z,NA,NA,NA,NA,NA,sub39
NA,mars-trial,86,260055,0.0-10.0-1.36,"""event"",""trial"",""time""
""fullscreenenter"",""0"",""3338""
""fullscreenexit"",""2"",""7836""
","
","
","""event"",""trial"",""time""
""fullscreenenter"",""0"",""3338""
","""event"",""trial"",""time""
""fullscreenexit"",""2"",""7836""
",203.0300000042189,<img style='border: 4px solid darkgrey;' src='img/tf1_37_M_ss3.jpeg'></img>,0,NA,exp,NA,2,<img src='img/tf1_37_T1_ss3_md.jpeg'></img>,0,FALSE,NA,sub39
NA,html-keyboard-response,87,260557,0.0-10.0-0.37,"""event"",""trial"",""time""
""fullscreenenter"",""0"",""3338""
""fullscreenexit"",""2"",""7836""
","
","
","""event"",""trial"",""time""
""fullscreenenter"",""0"",""3338""
","""event"",""trial"",""time""
""fullscreenexit"",""2"",""7836""
",null,"<div style=""font-size:60px;"">+</div>",NA,null,fixation,2020-06-13T16:15:04Z,NA,NA,NA,NA,NA,sub39
NA,mars-trial,88,265952,0.0-10.0-1.37,"""event"",""trial"",""time""
""fullscreenenter"",""0"",""3338""
""fullscreenexit"",""2"",""7836""
","
","
","""event"",""trial"",""time""
""fullscreenenter"",""0"",""3338""
","""event"",""trial"",""time""
""fullscreenexit"",""2"",""7836""
",4786.950000008801,<img style='border: 4px solid darkgrey;' src='img/tf1_38_M_ss1.jpeg'></img>,3,NA,exp,NA,0,<img src='img/tf1_38_T1_ss1_md.jpeg'></img>,0,TRUE,NA,sub39
NA,html-keyboard-response,89,266454,0.0-10.0-0.38,"""event"",""trial"",""time""
""fullscreenenter"",""0"",""3338""
""fullscreenexit"",""2"",""7836""
","
","
","""event"",""trial"",""time""
""fullscreenenter"",""0"",""3338""
","""event"",""trial"",""time""
""fullscreenexit"",""2"",""7836""
",null,"<div style=""font-size:60px;"">+</div>",NA,null,fixation,2020-06-13T16:15:10Z,NA,NA,NA,NA,NA,sub39
NA,mars-trial,90,274167,0.0-10.0-1.38,"""event"",""trial"",""time""
""fullscreenenter"",""0"",""3338""
""fullscreenexit"",""2"",""7836""
","
","
","""event"",""trial"",""time""
""fullscreenenter"",""0"",""3338""
","""event"",""trial"",""time""
""fullscreenexit"",""2"",""7836""
",7104.415000008885,<img style='border: 4px solid darkgrey;' src='img/tf1_39_M_ss2.jpeg'></img>,1,NA,exp,NA,1,<img src='img/tf1_39_T1_ss2_md.jpeg'></img>,0,FALSE,NA,sub39
NA,html-keyboard-response,91,274672,0.0-10.0-0.39,"""event"",""trial"",""time""
""fullscreenenter"",""0"",""3338""
""fullscreenexit"",""2"",""7836""
","
","
","""event"",""trial"",""time""
""fullscreenenter"",""0"",""3338""
","""event"",""trial"",""time""
""fullscreenexit"",""2"",""7836""
",null,"<div style=""font-size:60px;"">+</div>",NA,null,fixation,2020-06-13T16:15:18Z,NA,NA,NA,NA,NA,sub39
NA,mars-trial,92,279255,0.0-10.0-1.39,"""event"",""trial"",""time""
""fullscreenenter"",""0"",""3338""
""fullscreenexit"",""2"",""7836""
","
","
","""event"",""trial"",""time""
""fullscreenenter"",""0"",""3338""
","""event"",""trial"",""time""
""fullscreenexit"",""2"",""7836""
",3974.9850000080187,<img style='border: 4px solid darkgrey;' src='img/tf1_40_M_ss3.jpeg'></img>,2,NA,exp,NA,0,<img src='img/tf1_40_T1_ss3_md.jpeg'></img>,0,TRUE,NA,sub39
NA,html-keyboard-response,93,279757,0.0-10.0-0.40,"""event"",""trial"",""time""
""fullscreenenter"",""0"",""3338""
""fullscreenexit"",""2"",""7836""
","
","
","""event"",""trial"",""time""
""fullscreenenter"",""0"",""3338""
","""event"",""trial"",""time""
""fullscreenexit"",""2"",""7836""
",null,"<div style=""font-size:60px;"">+</div>",NA,null,fixation,2020-06-13T16:15:23Z,NA,NA,NA,NA,NA,sub39
NA,mars-trial,94,284007,0.0-10.0-1.40,"""event"",""trial"",""time""
""fullscreenenter"",""0"",""3338""
""fullscreenexit"",""2"",""7836""
","
","
","""event"",""trial"",""time""
""fullscreenenter"",""0"",""3338""
","""event"",""trial"",""time""
""fullscreenexit"",""2"",""7836""
",3640.830000018468,<img style='border: 4px solid darkgrey;' src='img/tf1_41_M_ss1.jpeg'></img>,0,NA,exp,NA,0,<img src='img/tf1_41_T1_ss1_md.jpeg'></img>,0,TRUE,NA,sub39
NA,html-keyboard-response,95,284513,0.0-10.0-0.41,"""event"",""trial"",""time""
""fullscreenenter"",""0"",""3338""
""fullscreenexit"",""2"",""7836""
","
","
","""event"",""trial"",""time""
""fullscreenenter"",""0"",""3338""
","""event"",""trial"",""time""
""fullscreenexit"",""2"",""7836""
",null,"<div style=""font-size:60px;"">+</div>",NA,null,fixation,2020-06-13T16:15:28Z,NA,NA,NA,NA,NA,sub39
NA,mars-trial,96,289343,0.0-10.0-1.41,"""event"",""trial"",""time""
""fullscreenenter"",""0"",""3338""
""fullscreenexit"",""2"",""7836""
","
","
","""event"",""trial"",""time""
""fullscreenenter"",""0"",""3338""
","""event"",""trial"",""time""
""fullscreenexit"",""2"",""7836""
",4220.709999994142,<img style='border: 4px solid darkgrey;' src='img/tf1_42_M_ss2.jpeg'></img>,0,NA,exp,NA,1,<img src='img/tf1_42_T1_ss2_md.jpeg'></img>,0,FALSE,NA,sub39
NA,html-keyboard-response,97,289847,0.0-10.0-0.42,"""event"",""trial"",""time""
""fullscreenenter"",""0"",""3338""
""fullscreenexit"",""2"",""7836""
","
","
","""event"",""trial"",""time""
""fullscreenenter"",""0"",""3338""
","""event"",""trial"",""time""
""fullscreenexit"",""2"",""7836""
",null,"<div style=""font-size:60px;"">+</div>",NA,null,fixation,2020-06-13T16:15:33Z,NA,NA,NA,NA,NA,sub39
NA,mars-trial,98,295359,0.0-10.0-1.42,"""event"",""trial"",""time""
""fullscreenenter"",""0"",""3338""
""fullscreenexit"",""2"",""7836""
","
","
","""event"",""trial"",""time""
""fullscreenenter"",""0"",""3338""
","""event"",""trial"",""time""
""fullscreenexit"",""2"",""7836""
",4904.125000000931,<img style='border: 4px solid darkgrey;' src='img/tf1_43_M_ss3.jpeg'></img>,0,NA,exp,NA,2,<img src='img/tf1_43_T1_ss3_md.jpeg'></img>,0,FALSE,NA,sub39
NA,html-keyboard-response,99,295863,0.0-10.0-0.43,"""event"",""trial"",""time""
""fullscreenenter"",""0"",""3338""
""fullscreenexit"",""2"",""7836""
","
","
","""event"",""trial"",""time""
""fullscreenenter"",""0"",""3338""
","""event"",""trial"",""time""
""fullscreenexit"",""2"",""7836""
",null,"<div style=""font-size:60px;"">+</div>",NA,null,fixation,2020-06-13T16:15:39Z,NA,NA,NA,NA,NA,sub39
NA,mars-trial,100,302463,0.0-10.0-1.43,"""event"",""trial"",""time""
""fullscreenenter"",""0"",""3338""
""fullscreenexit"",""2"",""7836""
","
","
","""event"",""trial"",""time""
""fullscreenenter"",""0"",""3338""
","""event"",""trial"",""time""
""fullscreenexit"",""2"",""7836""
",5990.7050000038,<img style='border: 4px solid darkgrey;' src='img/tf1_44_M_ss1.jpeg'></img>,2,NA,exp,NA,1,<img src='img/tf1_44_T1_ss1_md.jpeg'></img>,0,FALSE,NA,sub39
NA,html-keyboard-response,101,302966,0.0-10.0-0.44,"""event"",""trial"",""time""
""fullscreenenter"",""0"",""3338""
""fullscreenexit"",""2"",""7836""
","
","
","""event"",""trial"",""time""
""fullscreenenter"",""0"",""3338""
","""event"",""trial"",""time""
""fullscreenexit"",""2"",""7836""
",null,"<div style=""font-size:60px;"">+</div>",NA,null,fixation,2020-06-13T16:15:46Z,NA,NA,NA,NA,NA,sub39
NA,mars-trial,102,305022,0.0-10.0-1.44,"""event"",""trial"",""time""
""fullscreenenter"",""0"",""3338""
""fullscreenexit"",""2"",""7836""
","
","
","""event"",""trial"",""time""
""fullscreenenter"",""0"",""3338""
","""event"",""trial"",""time""
""fullscreenexit"",""2"",""7836""
",1448.61000002129,<img style='border: 4px solid darkgrey;' src='img/tf1_45_M_ss2.jpeg'></img>,3,NA,exp,NA,3,<img src='img/tf1_45_T1_ss2_md.jpeg'></img>,0,FALSE,NA,sub39
NA,html-keyboard-response,103,305524,0.0-10.0-0.45,"""event"",""trial"",""time""
""fullscreenenter"",""0"",""3338""
""fullscreenexit"",""2"",""7836""
","
","
","""event"",""trial"",""time""
""fullscreenenter"",""0"",""3338""
","""event"",""trial"",""time""
""fullscreenexit"",""2"",""7836""
",null,"<div style=""font-size:60px;"">+</div>",NA,null,fixation,2020-06-13T16:15:49Z,NA,NA,NA,NA,NA,sub39
NA,mars-trial,104,310079,0.0-10.0-1.45,"""event"",""trial"",""time""
""fullscreenenter"",""0"",""3338""
""fullscreenexit"",""2"",""7836""
","
","
","""event"",""trial"",""time""
""fullscreenenter"",""0"",""3338""
","""event"",""trial"",""time""
""fullscreenexit"",""2"",""7836""
",3951.1149999743793,<img style='border: 4px solid darkgrey;' src='img/tf1_46_M_ss3.jpeg'></img>,2,NA,exp,NA,1,<img src='img/tf1_46_T1_ss3_md.jpeg'></img>,0,FALSE,NA,sub39
NA,html-keyboard-response,105,310582,0.0-10.0-0.46,"""event"",""trial"",""time""
""fullscreenenter"",""0"",""3338""
""fullscreenexit"",""2"",""7836""
","
","
","""event"",""trial"",""time""
""fullscreenenter"",""0"",""3338""
","""event"",""trial"",""time""
""fullscreenexit"",""2"",""7836""
",null,"<div style=""font-size:60px;"">+</div>",NA,null,fixation,2020-06-13T16:15:54Z,NA,NA,NA,NA,NA,sub39
NA,mars-trial,106,317337,0.0-10.0-1.46,"""event"",""trial"",""time""
""fullscreenenter"",""0"",""3338""
""fullscreenexit"",""2"",""7836""
","
","
","""event"",""trial"",""time""
""fullscreenenter"",""0"",""3338""
","""event"",""trial"",""time""
""fullscreenexit"",""2"",""7836""
",6142.680000019027,<img style='border: 4px solid darkgrey;' src='img/tf1_47_M_ss1.jpeg'></img>,3,NA,exp,NA,2,<img src='img/tf1_47_T1_ss1_md.jpeg'></img>,0,FALSE,NA,sub39
NA,html-keyboard-response,107,317840,0.0-10.0-0.47,"""event"",""trial"",""time""
""fullscreenenter"",""0"",""3338""
""fullscreenexit"",""2"",""7836""
","
","
","""event"",""trial"",""time""
""fullscreenenter"",""0"",""3338""
","""event"",""trial"",""time""
""fullscreenexit"",""2"",""7836""
",null,"<div style=""font-size:60px;"">+</div>",NA,null,fixation,2020-06-13T16:16:01Z,NA,NA,NA,NA,NA,sub39
NA,mars-trial,108,319271,0.0-10.0-1.47,"""event"",""trial"",""time""
""fullscreenenter"",""0"",""3338""
""fullscreenexit"",""2"",""7836""
","
","
","""event"",""trial"",""time""
""fullscreenenter"",""0"",""3338""
","""event"",""trial"",""time""
""fullscreenexit"",""2"",""7836""
",823.2600000046659,<img style='border: 4px solid darkgrey;' src='img/tf1_48_M_ss2.jpeg'></img>,2,NA,exp,NA,2,<img src='img/tf1_48_T1_ss2_md.jpeg'></img>,0,FALSE,NA,sub39
NA,html-keyboard-response,109,319773,0.0-10.0-0.48,"""event"",""trial"",""time""
""fullscreenenter"",""0"",""3338""
""fullscreenexit"",""2"",""7836""
","
","
","""event"",""trial"",""time""
""fullscreenenter"",""0"",""3338""
","""event"",""trial"",""time""
""fullscreenexit"",""2"",""7836""
",null,"<div style=""font-size:60px;"">+</div>",NA,null,fixation,2020-06-13T16:16:03Z,NA,NA,NA,NA,NA,sub39
NA,mars-trial,110,326120,0.0-10.0-1.48,"""event"",""trial"",""time""
""fullscreenenter"",""0"",""3338""
""fullscreenexit"",""2"",""7836""
","
","
","""event"",""trial"",""time""
""fullscreenenter"",""0"",""3338""
","""event"",""trial"",""time""
""fullscreenexit"",""2"",""7836""
",5738.769999996293,<img style='border: 4px solid darkgrey;' src='img/tf1_49_M_ss3.jpeg'></img>,3,NA,exp,NA,2,<img src='img/tf1_49_T1_ss3_md.jpeg'></img>,0,FALSE,NA,sub39
NA,html-keyboard-response,111,326622,0.0-10.0-0.49,"""event"",""trial"",""time""
""fullscreenenter"",""0"",""3338""
""fullscreenexit"",""2"",""7836""
","
","
","""event"",""trial"",""time""
""fullscreenenter"",""0"",""3338""
","""event"",""trial"",""time""
""fullscreenexit"",""2"",""7836""
",null,"<div style=""font-size:60px;"">+</div>",NA,null,fixation,2020-06-13T16:16:10Z,NA,NA,NA,NA,NA,sub39
NA,mars-trial,112,332694,0.0-10.0-1.49,"""event"",""trial"",""time""
""fullscreenenter"",""0"",""3338""
""fullscreenexit"",""2"",""7836""
","
","
","""event"",""trial"",""time""
""fullscreenenter"",""0"",""3338""
","""event"",""trial"",""time""
""fullscreenexit"",""2"",""7836""
",5463.755000004312,<img style='border: 4px solid darkgrey;' src='img/tf1_50_M_ss1.jpeg'></img>,0,NA,exp,NA,0,<img src='img/tf1_50_T1_ss1_md.jpeg'></img>,0,TRUE,NA,sub39
NA,html-keyboard-response,113,333198,0.0-10.0-0.50,"""event"",""trial"",""time""
""fullscreenenter"",""0"",""3338""
""fullscreenexit"",""2"",""7836""
","
","
","""event"",""trial"",""time""
""fullscreenenter"",""0"",""3338""
","""event"",""trial"",""time""
""fullscreenexit"",""2"",""7836""
",null,"<div style=""font-size:60px;"">+</div>",NA,null,fixation,2020-06-13T16:16:16Z,NA,NA,NA,NA,NA,sub39
NA,mars-trial,114,338503,0.0-10.0-1.50,"""event"",""trial"",""time""
""fullscreenenter"",""0"",""3338""
""fullscreenexit"",""2"",""7836""
","
","
","""event"",""trial"",""time""
""fullscreenenter"",""0"",""3338""
","""event"",""trial"",""time""
""fullscreenexit"",""2"",""7836""
",4696.874999994179,<img style='border: 4px solid darkgrey;' src='img/tf1_51_M_ss2.jpeg'></img>,1,NA,exp,NA,1,<img src='img/tf1_51_T1_ss2_md.jpeg'></img>,0,FALSE,NA,sub39
NA,html-keyboard-response,115,339006,0.0-10.0-0.51,"""event"",""trial"",""time""
""fullscreenenter"",""0"",""3338""
""fullscreenexit"",""2"",""7836""
","
","
","""event"",""trial"",""time""
""fullscreenenter"",""0"",""3338""
","""event"",""trial"",""time""
""fullscreenexit"",""2"",""7836""
",null,"<div style=""font-size:60px;"">+</div>",NA,null,fixation,2020-06-13T16:16:22Z,NA,NA,NA,NA,NA,sub39
NA,mars-trial,116,343601,0.0-10.0-1.51,"""event"",""trial"",""time""
""fullscreenenter"",""0"",""3338""
""fullscreenexit"",""2"",""7836""
","
","
","""event"",""trial"",""time""
""fullscreenenter"",""0"",""3338""
","""event"",""trial"",""time""
""fullscreenexit"",""2"",""7836""
",3984.920000017155,<img style='border: 4px solid darkgrey;' src='img/tf1_52_M_ss3.jpeg'></img>,3,NA,exp,NA,2,<img src='img/tf1_52_T1_ss3_md.jpeg'></img>,0,FALSE,NA,sub39
NA,html-keyboard-response,117,344104,0.0-10.0-0.52,"""event"",""trial"",""time""
""fullscreenenter"",""0"",""3338""
""fullscreenexit"",""2"",""7836""
","
","
","""event"",""trial"",""time""
""fullscreenenter"",""0"",""3338""
","""event"",""trial"",""time""
""fullscreenexit"",""2"",""7836""
",null,"<div style=""font-size:60px;"">+</div>",NA,null,fixation,2020-06-13T16:16:27Z,NA,NA,NA,NA,NA,sub39
NA,mars-trial,118,346183,0.0-10.0-1.52,"""event"",""trial"",""time""
""fullscreenenter"",""0"",""3338""
""fullscreenexit"",""2"",""7836""
","
","
","""event"",""trial"",""time""
""fullscreenenter"",""0"",""3338""
","""event"",""trial"",""time""
""fullscreenexit"",""2"",""7836""
",1471.4699999894947,<img style='border: 4px solid darkgrey;' src='img/tf1_53_M_ss1.jpeg'></img>,1,NA,exp,NA,1,<img src='img/tf1_53_T1_ss1_md.jpeg'></img>,0,FALSE,NA,sub39
NA,html-keyboard-response,119,346686,0.0-10.0-0.53,"""event"",""trial"",""time""
""fullscreenenter"",""0"",""3338""
""fullscreenexit"",""2"",""7836""
","
","
","""event"",""trial"",""time""
""fullscreenenter"",""0"",""3338""
","""event"",""trial"",""time""
""fullscreenexit"",""2"",""7836""
",null,"<div style=""font-size:60px;"">+</div>",NA,null,fixation,2020-06-13T16:16:30Z,NA,NA,NA,NA,NA,sub39
NA,mars-trial,120,348462,0.0-10.0-1.53,"""event"",""trial"",""time""
""fullscreenenter"",""0"",""3338""
""fullscreenexit"",""2"",""7836""
","
","
","""event"",""trial"",""time""
""fullscreenenter"",""0"",""3338""
","""event"",""trial"",""time""
""fullscreenexit"",""2"",""7836""
",1171.4050000009593,<img style='border: 4px solid darkgrey;' src='img/tf1_54_M_ss2.jpeg'></img>,1,NA,exp,NA,1,<img src='img/tf1_54_T1_ss2_md.jpeg'></img>,0,FALSE,NA,sub39
NA,html-keyboard-response,121,348964,0.0-10.0-0.54,"""event"",""trial"",""time""
""fullscreenenter"",""0"",""3338""
""fullscreenexit"",""2"",""7836""
","
","
","""event"",""trial"",""time""
""fullscreenenter"",""0"",""3338""
","""event"",""trial"",""time""
""fullscreenexit"",""2"",""7836""
",null,"<div style=""font-size:60px;"">+</div>",NA,null,fixation,2020-06-13T16:16:32Z,NA,NA,NA,NA,NA,sub39
NA,mars-trial,122,349768,0.0-10.0-1.54,"""event"",""trial"",""time""
""fullscreenenter"",""0"",""3338""
""fullscreenexit"",""2"",""7836""
","
","
","""event"",""trial"",""time""
""fullscreenenter"",""0"",""3338""
","""event"",""trial"",""time""
""fullscreenexit"",""2"",""7836""
",197.4999999802094,<img style='border: 4px solid darkgrey;' src='img/tf1_55_M_ss3.jpeg'></img>,1,NA,exp,NA,0,<img src='img/tf1_55_T1_ss3_md.jpeg'></img>,0,TRUE,NA,sub39
NA,html-keyboard-response,123,350271,0.0-10.0-0.55,"""event"",""trial"",""time""
""fullscreenenter"",""0"",""3338""
""fullscreenexit"",""2"",""7836""
","
","
","""event"",""trial"",""time""
""fullscreenenter"",""0"",""3338""
","""event"",""trial"",""time""
""fullscreenexit"",""2"",""7836""
",null,"<div style=""font-size:60px;"">+</div>",NA,null,fixation,2020-06-13T16:16:33Z,NA,NA,NA,NA,NA,sub39
NA,mars-trial,124,351006,0.0-10.0-1.55,"""event"",""trial"",""time""
""fullscreenenter"",""0"",""3338""
""fullscreenexit"",""2"",""7836""
","
","
","""event"",""trial"",""time""
""fullscreenenter"",""0"",""3338""
","""event"",""trial"",""time""
""fullscreenexit"",""2"",""7836""
",129.49500000104308,<img style='border: 4px solid darkgrey;' src='img/tf1_56_M_ss1.jpeg'></img>,1,NA,exp,NA,3,<img src='img/tf1_56_T1_ss1_md.jpeg'></img>,0,FALSE,NA,sub39
NA,html-keyboard-response,125,351508,0.0-10.0-0.56,"""event"",""trial"",""time""
""fullscreenenter"",""0"",""3338""
""fullscreenexit"",""2"",""7836""
","
","
","""event"",""trial"",""time""
""fullscreenenter"",""0"",""3338""
","""event"",""trial"",""time""
""fullscreenexit"",""2"",""7836""
",null,"<div style=""font-size:60px;"">+</div>",NA,null,fixation,2020-06-13T16:16:35Z,NA,NA,NA,NA,NA,sub39
NA,mars-trial,126,357089,0.0-10.0-1.56,"""event"",""trial"",""time""
""fullscreenenter"",""0"",""3338""
""fullscreenexit"",""2"",""7836""
","
","
","""event"",""trial"",""time""
""fullscreenenter"",""0"",""3338""
","""event"",""trial"",""time""
""fullscreenexit"",""2"",""7836""
",4973.589999979595,<img style='border: 4px solid darkgrey;' src='img/tf1_57_M_ss2.jpeg'></img>,2,NA,exp,NA,1,<img src='img/tf1_57_T1_ss2_md.jpeg'></img>,0,FALSE,NA,sub39
NA,html-keyboard-response,127,357593,0.0-10.0-0.57,"""event"",""trial"",""time""
""fullscreenenter"",""0"",""3338""
""fullscreenexit"",""2"",""7836""
","
","
","""event"",""trial"",""time""
""fullscreenenter"",""0"",""3338""
","""event"",""trial"",""time""
""fullscreenexit"",""2"",""7836""
",null,"<div style=""font-size:60px;"">+</div>",NA,null,fixation,2020-06-13T16:16:41Z,NA,NA,NA,NA,NA,sub39
NA,mars-trial,128,369719,0.0-10.0-1.57,"""event"",""trial"",""time""
""fullscreenenter"",""0"",""3338""
""fullscreenexit"",""2"",""7836""
","
","
","""event"",""trial"",""time""
""fullscreenenter"",""0"",""3338""
","""event"",""trial"",""time""
""fullscreenexit"",""2"",""7836""
",11518.819999997504,<img style='border: 4px solid darkgrey;' src='img/tf1_58_M_ss3.jpeg'></img>,2,NA,exp,NA,0,<img src='img/tf1_58_T1_ss3_md.jpeg'></img>,0,TRUE,NA,sub39
NA,html-keyboard-response,129,370222,0.0-10.0-0.58,"""event"",""trial"",""time""
""fullscreenenter"",""0"",""3338""
""fullscreenexit"",""2"",""7836""
","
","
","""event"",""trial"",""time""
""fullscreenenter"",""0"",""3338""
","""event"",""trial"",""time""
""fullscreenexit"",""2"",""7836""
",null,"<div style=""font-size:60px;"">+</div>",NA,null,fixation,2020-06-13T16:16:53Z,NA,NA,NA,NA,NA,sub39
NA,mars-trial,130,379263,0.0-10.0-1.58,"""event"",""trial"",""time""
""fullscreenenter"",""0"",""3338""
""fullscreenexit"",""2"",""7836""
","
","
","""event"",""trial"",""time""
""fullscreenenter"",""0"",""3338""
","""event"",""trial"",""time""
""fullscreenexit"",""2"",""7836""
",8433.340000017779,<img style='border: 4px solid darkgrey;' src='img/tf1_59_M_ss1.jpeg'></img>,1,NA,exp,NA,2,<img src='img/tf1_59_T1_ss1_md.jpeg'></img>,0,FALSE,NA,sub39
NA,html-keyboard-response,131,379766,0.0-10.0-0.59,"""event"",""trial"",""time""
""fullscreenenter"",""0"",""3338""
""fullscreenexit"",""2"",""7836""
","
","
","""event"",""trial"",""time""
""fullscreenenter"",""0"",""3338""
","""event"",""trial"",""time""
""fullscreenexit"",""2"",""7836""
",null,"<div style=""font-size:60px;"">+</div>",NA,null,fixation,2020-06-13T16:17:03Z,NA,NA,NA,NA,NA,sub39
NA,mars-trial,132,389582,0.0-10.0-1.59,"""event"",""trial"",""time""
""fullscreenenter"",""0"",""3338""
""fullscreenexit"",""2"",""7836""
","
","
","""event"",""trial"",""time""
""fullscreenenter"",""0"",""3338""
","""event"",""trial"",""time""
""fullscreenexit"",""2"",""7836""
",9207.974999997532,<img style='border: 4px solid darkgrey;' src='img/tf1_60_M_ss2.jpeg'></img>,3,NA,exp,NA,3,<img src='img/tf1_60_T1_ss2_md.jpeg'></img>,0,FALSE,NA,sub39
NA,html-keyboard-response,133,390084,0.0-10.0-0.60,"""event"",""trial"",""time""
""fullscreenenter"",""0"",""3338""
""fullscreenexit"",""2"",""7836""
","
","
","""event"",""trial"",""time""
""fullscreenenter"",""0"",""3338""
","""event"",""trial"",""time""
""fullscreenexit"",""2"",""7836""
",null,"<div style=""font-size:60px;"">+</div>",NA,null,fixation,2020-06-13T16:17:13Z,NA,NA,NA,NA,NA,sub39
NA,mars-trial,134,391903,0.0-10.0-1.60,"""event"",""trial"",""time""
""fullscreenenter"",""0"",""3338""
""fullscreenexit"",""2"",""7836""
","
","
","""event"",""trial"",""time""
""fullscreenenter"",""0"",""3338""
","""event"",""trial"",""time""
""fullscreenexit"",""2"",""7836""
",1214.3949999881443,<img style='border: 4px solid darkgrey;' src='img/tf1_61_M_ss3.jpeg'></img>,0,NA,exp,NA,1,<img src='img/tf1_61_T1_ss3_md.jpeg'></img>,0,FALSE,NA,sub39
NA,html-keyboard-response,135,392444,0.0-10.0-0.61,"""event"",""trial"",""time""
""fullscreenenter"",""0"",""3338""
""fullscreenexit"",""2"",""7836""
","
","
","""event"",""trial"",""time""
""fullscreenenter"",""0"",""3338""
","""event"",""trial"",""time""
""fullscreenexit"",""2"",""7836""
",null,"<div style=""font-size:60px;"">+</div>",NA,null,fixation,2020-06-13T16:17:16Z,NA,NA,NA,NA,NA,sub39
NA,mars-trial,136,393975,0.0-10.0-1.61,"""event"",""trial"",""time""
""fullscreenenter"",""0"",""3338""
""fullscreenexit"",""2"",""7836""
","
","
","""event"",""trial"",""time""
""fullscreenenter"",""0"",""3338""
","""event"",""trial"",""time""
""fullscreenexit"",""2"",""7836""
",925.2099999866914,<img style='border: 4px solid darkgrey;' src='img/tf1_62_M_ss1.jpeg'></img>,3,NA,exp,NA,2,<img src='img/tf1_62_T1_ss1_md.jpeg'></img>,0,FALSE,NA,sub39
NA,html-keyboard-response,137,394477,0.0-10.0-0.62,"""event"",""trial"",""time""
""fullscreenenter"",""0"",""3338""
""fullscreenexit"",""2"",""7836""
","
","
","""event"",""trial"",""time""
""fullscreenenter"",""0"",""3338""
","""event"",""trial"",""time""
""fullscreenexit"",""2"",""7836""
",null,"<div style=""font-size:60px;"">+</div>",NA,null,fixation,2020-06-13T16:17:18Z,NA,NA,NA,NA,NA,sub39
NA,mars-trial,138,395846,0.0-10.0-1.62,"""event"",""trial"",""time""
""fullscreenenter"",""0"",""3338""
""fullscreenexit"",""2"",""7836""
","
","
","""event"",""trial"",""time""
""fullscreenenter"",""0"",""3338""
","""event"",""trial"",""time""
""fullscreenexit"",""2"",""7836""
",764.9150000070222,<img style='border: 4px solid darkgrey;' src='img/tf1_63_M_ss2.jpeg'></img>,0,NA,exp,NA,2,<img src='img/tf1_63_T1_ss2_md.jpeg'></img>,0,FALSE,NA,sub39
NA,html-keyboard-response,139,396348,0.0-10.0-0.63,"""event"",""trial"",""time""
""fullscreenenter"",""0"",""3338""
""fullscreenexit"",""2"",""7836""
","
","
","""event"",""trial"",""time""
""fullscreenenter"",""0"",""3338""
","""event"",""trial"",""time""
""fullscreenexit"",""2"",""7836""
",null,"<div style=""font-size:60px;"">+</div>",NA,null,fixation,2020-06-13T16:17:19Z,NA,NA,NA,NA,NA,sub39
NA,mars-trial,140,397151,0.0-10.0-1.63,"""event"",""trial"",""time""
""fullscreenenter"",""0"",""3338""
""fullscreenexit"",""2"",""7836""
","
","
","""event"",""trial"",""time""
""fullscreenenter"",""0"",""3338""
","""event"",""trial"",""time""
""fullscreenexit"",""2"",""7836""
",197.69000000087544,<img style='border: 4px solid darkgrey;' src='img/tf1_64_M_ss3.jpeg'></img>,3,NA,exp,NA,0,<img src='img/tf1_64_T1_ss3_md.jpeg'></img>,0,TRUE,NA,sub39
NA,html-keyboard-response,141,397654,0.0-10.0-0.64,"""event"",""trial"",""time""
""fullscreenenter"",""0"",""3338""
""fullscreenexit"",""2"",""7836""
","
","
","""event"",""trial"",""time""
""fullscreenenter"",""0"",""3338""
","""event"",""trial"",""time""
""fullscreenexit"",""2"",""7836""
",null,"<div style=""font-size:60px;"">+</div>",NA,null,fixation,2020-06-13T16:17:21Z,NA,NA,NA,NA,NA,sub39
NA,mars-trial,142,398350,0.0-10.0-1.64,"""event"",""trial"",""time""
""fullscreenenter"",""0"",""3338""
""fullscreenexit"",""2"",""7836""
","
","
","""event"",""trial"",""time""
""fullscreenenter"",""0"",""3338""
","""event"",""trial"",""time""
""fullscreenexit"",""2"",""7836""
",90.03000002121553,<img style='border: 4px solid darkgrey;' src='img/tf1_65_M_ss1.jpeg'></img>,0,NA,exp,NA,1,<img src='img/tf1_65_T1_ss1_md.jpeg'></img>,0,FALSE,NA,sub39
NA,html-keyboard-response,143,398853,0.0-10.0-0.65,"""event"",""trial"",""time""
""fullscreenenter"",""0"",""3338""
""fullscreenexit"",""2"",""7836""
","
","
","""event"",""trial"",""time""
""fullscreenenter"",""0"",""3338""
","""event"",""trial"",""time""
""fullscreenexit"",""2"",""7836""
",null,"<div style=""font-size:60px;"">+</div>",NA,null,fixation,2020-06-13T16:17:22Z,NA,NA,NA,NA,NA,sub39
NA,mars-trial,144,400494,0.0-10.0-1.65,"""event"",""trial"",""time""
""fullscreenenter"",""0"",""3338""
""fullscreenexit"",""2"",""7836""
","
","
","""event"",""trial"",""time""
""fullscreenenter"",""0"",""3338""
","""event"",""trial"",""time""
""fullscreenexit"",""2"",""7836""
",1036.0100000107195,<img style='border: 4px solid darkgrey;' src='img/tf1_66_M_ss2.jpeg'></img>,1,NA,exp,NA,1,<img src='img/tf1_66_T1_ss2_md.jpeg'></img>,0,FALSE,NA,sub39
NA,html-keyboard-response,145,400996,0.0-10.0-0.66,"""event"",""trial"",""time""
""fullscreenenter"",""0"",""3338""
""fullscreenexit"",""2"",""7836""
","
","
","""event"",""trial"",""time""
""fullscreenenter"",""0"",""3338""
","""event"",""trial"",""time""
""fullscreenexit"",""2"",""7836""
",null,"<div style=""font-size:60px;"">+</div>",NA,null,fixation,2020-06-13T16:17:24Z,NA,NA,NA,NA,NA,sub39
NA,mars-trial,146,402263,0.0-10.0-1.66,"""event"",""trial"",""time""
""fullscreenenter"",""0"",""3338""
""fullscreenexit"",""2"",""7836""
","
","
","""event"",""trial"",""time""
""fullscreenenter"",""0"",""3338""
","""event"",""trial"",""time""
""fullscreenexit"",""2"",""7836""
",660.7749999966472,<img style='border: 4px solid darkgrey;' src='img/tf1_67_M_ss3.jpeg'></img>,1,NA,exp,NA,2,<img src='img/tf1_67_T1_ss3_md.jpeg'></img>,0,FALSE,NA,sub39
NA,html-keyboard-response,147,402765,0.0-10.0-0.67,"""event"",""trial"",""time""
""fullscreenenter"",""0"",""3338""
""fullscreenexit"",""2"",""7836""
","
","
","""event"",""trial"",""time""
""fullscreenenter"",""0"",""3338""
","""event"",""trial"",""time""
""fullscreenexit"",""2"",""7836""
",null,"<div style=""font-size:60px;"">+</div>",NA,null,fixation,2020-06-13T16:17:26Z,NA,NA,NA,NA,NA,sub39
NA,mars-trial,148,404975,0.0-10.0-1.67,"""event"",""trial"",""time""
""fullscreenenter"",""0"",""3338""
""fullscreenexit"",""2"",""7836""
","
","
","""event"",""trial"",""time""
""fullscreenenter"",""0"",""3338""
","""event"",""trial"",""time""
""fullscreenexit"",""2"",""7836""
",1604.1200000036042,<img style='border: 4px solid darkgrey;' src='img/tf1_68_M_ss1.jpeg'></img>,1,NA,exp,NA,0,<img src='img/tf1_68_T1_ss1_md.jpeg'></img>,0,TRUE,NA,sub39
NA,html-keyboard-response,149,405478,0.0-10.0-0.68,"""event"",""trial"",""time""
""fullscreenenter"",""0"",""3338""
""fullscreenexit"",""2"",""7836""
","
","
","""event"",""trial"",""time""
""fullscreenenter"",""0"",""3338""
","""event"",""trial"",""time""
""fullscreenexit"",""2"",""7836""
",null,"<div style=""font-size:60px;"">+</div>",NA,null,fixation,2020-06-13T16:17:29Z,NA,NA,NA,NA,NA,sub39
NA,mars-trial,150,417353,0.0-10.0-1.68,"""event"",""trial"",""time""
""fullscreenenter"",""0"",""3338""
""fullscreenexit"",""2"",""7836""
","
","
","""event"",""trial"",""time""
""fullscreenenter"",""0"",""3338""
","""event"",""trial"",""time""
""fullscreenexit"",""2"",""7836""
",11267.224999988684,<img style='border: 4px solid darkgrey;' src='img/tf1_69_M_ss2.jpeg'></img>,2,NA,exp,NA,0,<img src='img/tf1_69_T1_ss2_md.jpeg'></img>,0,TRUE,NA,sub39
NA,html-keyboard-response,151,417857,0.0-10.0-0.69,"""event"",""trial"",""time""
""fullscreenenter"",""0"",""3338""
""fullscreenexit"",""2"",""7836""
","
","
","""event"",""trial"",""time""
""fullscreenenter"",""0"",""3338""
","""event"",""trial"",""time""
""fullscreenexit"",""2"",""7836""
",null,"<div style=""font-size:60px;"">+</div>",NA,null,fixation,2020-06-13T16:17:41Z,NA,NA,NA,NA,NA,sub39
NA,mars-trial,152,429613,0.0-10.0-1.69,"""event"",""trial"",""time""
""fullscreenenter"",""0"",""3338""
""fullscreenexit"",""2"",""7836""
","
","
","""event"",""trial"",""time""
""fullscreenenter"",""0"",""3338""
","""event"",""trial"",""time""
""fullscreenexit"",""2"",""7836""
",11149.499999999534,<img style='border: 4px solid darkgrey;' src='img/tf1_70_M_ss3.jpeg'></img>,1,NA,exp,NA,0,<img src='img/tf1_70_T1_ss3_md.jpeg'></img>,0,TRUE,NA,sub39
NA,html-keyboard-response,153,430117,0.0-10.0-0.70,"""event"",""trial"",""time""
""fullscreenenter"",""0"",""3338""
""fullscreenexit"",""2"",""7836""
","
","
","""event"",""trial"",""time""
""fullscreenenter"",""0"",""3338""
","""event"",""trial"",""time""
""fullscreenexit"",""2"",""7836""
",null,"<div style=""font-size:60px;"">+</div>",NA,null,fixation,2020-06-13T16:17:53Z,NA,NA,NA,NA,NA,sub39
NA,mars-trial,154,444405,0.0-10.0-1.70,"""event"",""trial"",""time""
""fullscreenenter"",""0"",""3338""
""fullscreenexit"",""2"",""7836""
","
","
","""event"",""trial"",""time""
""fullscreenenter"",""0"",""3338""
","""event"",""trial"",""time""
""fullscreenexit"",""2"",""7836""
",13680.530000012368,<img style='border: 4px solid darkgrey;' src='img/tf1_71_M_ss1.jpeg'></img>,1,NA,exp,NA,0,<img src='img/tf1_71_T1_ss1_md.jpeg'></img>,0,TRUE,NA,sub39
NA,html-keyboard-response,155,444908,0.0-10.0-0.71,"""event"",""trial"",""time""
""fullscreenenter"",""0"",""3338""
""fullscreenexit"",""2"",""7836""
","
","
","""event"",""trial"",""time""
""fullscreenenter"",""0"",""3338""
","""event"",""trial"",""time""
""fullscreenexit"",""2"",""7836""
",null,"<div style=""font-size:60px;"">+</div>",NA,null,fixation,2020-06-13T16:18:08Z,NA,NA,NA,NA,NA,sub39
NA,mars-trial,156,451502,0.0-10.0-1.71,"""event"",""trial"",""time""
""fullscreenenter"",""0"",""3338""
""fullscreenexit"",""2"",""7836""
","
","
","""event"",""trial"",""time""
""fullscreenenter"",""0"",""3338""
","""event"",""trial"",""time""
""fullscreenexit"",""2"",""7836""
",5985.0250000017695,<img style='border: 4px solid darkgrey;' src='img/tf1_72_M_ss2.jpeg'></img>,2,NA,exp,NA,0,<img src='img/tf1_72_T1_ss2_md.jpeg'></img>,0,TRUE,NA,sub39
NA,html-keyboard-response,157,452008,0.0-10.0-0.72,"""event"",""trial"",""time""
""fullscreenenter"",""0"",""3338""
""fullscreenexit"",""2"",""7836""
","
","
","""event"",""trial"",""time""
""fullscreenenter"",""0"",""3338""
","""event"",""trial"",""time""
""fullscreenexit"",""2"",""7836""
",null,"<div style=""font-size:60px;"">+</div>",NA,null,fixation,2020-06-13T16:18:15Z,NA,NA,NA,NA,NA,sub39
NA,mars-trial,158,454581,0.0-10.0-1.72,"""event"",""trial"",""time""
""fullscreenenter"",""0"",""3338""
""fullscreenexit"",""2"",""7836""
","
","
","""event"",""trial"",""time""
""fullscreenenter"",""0"",""3338""
","""event"",""trial"",""time""
""fullscreenexit"",""2"",""7836""
",1968.1750000163447,<img style='border: 4px solid darkgrey;' src='img/tf1_73_M_ss3.jpeg'></img>,2,NA,exp,NA,2,<img src='img/tf1_73_T1_ss3_md.jpeg'></img>,0,FALSE,NA,sub39
NA,html-keyboard-response,159,455085,0.0-10.0-0.73,"""event"",""trial"",""time""
""fullscreenenter"",""0"",""3338""
""fullscreenexit"",""2"",""7836""
","
","
","""event"",""trial"",""time""
""fullscreenenter"",""0"",""3338""
","""event"",""trial"",""time""
""fullscreenexit"",""2"",""7836""
",null,"<div style=""font-size:60px;"">+</div>",NA,null,fixation,2020-06-13T16:18:18Z,NA,NA,NA,NA,NA,sub39
NA,mars-trial,160,456126,0.0-10.0-1.73,"""event"",""trial"",""time""
""fullscreenenter"",""0"",""3338""
""fullscreenexit"",""2"",""7836""
","
","
","""event"",""trial"",""time""
""fullscreenenter"",""0"",""3338""
","""event"",""trial"",""time""
""fullscreenexit"",""2"",""7836""
",435.2099999960046,<img style='border: 4px solid darkgrey;' src='img/tf1_74_M_ss1.jpeg'></img>,3,NA,exp,NA,1,<img src='img/tf1_74_T1_ss1_md.jpeg'></img>,0,FALSE,NA,sub39
NA,html-keyboard-response,161,456628,0.0-10.0-0.74,"""event"",""trial"",""time""
""fullscreenenter"",""0"",""3338""
""fullscreenexit"",""2"",""7836""
","
","
","""event"",""trial"",""time""
""fullscreenenter"",""0"",""3338""
","""event"",""trial"",""time""
""fullscreenexit"",""2"",""7836""
",null,"<div style=""font-size:60px;"">+</div>",NA,null,fixation,2020-06-13T16:18:20Z,NA,NA,NA,NA,NA,sub39
NA,mars-trial,162,458349,0.0-10.0-1.74,"""event"",""trial"",""time""
""fullscreenenter"",""0"",""3338""
""fullscreenexit"",""2"",""7836""
","
","
","""event"",""trial"",""time""
""fullscreenenter"",""0"",""3338""
","""event"",""trial"",""time""
""fullscreenexit"",""2"",""7836""
",1116.0999999847263,<img style='border: 4px solid darkgrey;' src='img/tf1_75_M_ss2.jpeg'></img>,2,NA,exp,NA,2,<img src='img/tf1_75_T1_ss2_md.jpeg'></img>,0,FALSE,NA,sub39
NA,html-keyboard-response,163,458851,0.0-10.0-0.75,"""event"",""trial"",""time""
""fullscreenenter"",""0"",""3338""
""fullscreenexit"",""2"",""7836""
","
","
","""event"",""trial"",""time""
""fullscreenenter"",""0"",""3338""
","""event"",""trial"",""time""
""fullscreenexit"",""2"",""7836""
",null,"<div style=""font-size:60px;"">+</div>",NA,null,fixation,2020-06-13T16:18:22Z,NA,NA,NA,NA,NA,sub39
NA,mars-trial,164,459750,0.0-10.0-1.75,"""event"",""trial"",""time""
""fullscreenenter"",""0"",""3338""
""fullscreenexit"",""2"",""7836""
","
","
","""event"",""trial"",""time""
""fullscreenenter"",""0"",""3338""
","""event"",""trial"",""time""
""fullscreenexit"",""2"",""7836""
",292.4349999811966,<img style='border: 4px solid darkgrey;' src='img/tf1_76_M_ss3.jpeg'></img>,1,NA,exp,NA,2,<img src='img/tf1_76_T1_ss3_md.jpeg'></img>,0,FALSE,NA,sub39
NA,html-keyboard-response,165,460253,0.0-10.0-0.76,"""event"",""trial"",""time""
""fullscreenenter"",""0"",""3338""
""fullscreenexit"",""2"",""7836""
","
","
","""event"",""trial"",""time""
""fullscreenenter"",""0"",""3338""
","""event"",""trial"",""time""
""fullscreenexit"",""2"",""7836""
",null,"<div style=""font-size:60px;"">+</div>",NA,null,fixation,2020-06-13T16:18:23Z,NA,NA,NA,NA,NA,sub39
NA,mars-trial,166,461189,0.0-10.0-1.76,"""event"",""trial"",""time""
""fullscreenenter"",""0"",""3338""
""fullscreenexit"",""2"",""7836""
","
","
","""event"",""trial"",""time""
""fullscreenenter"",""0"",""3338""
","""event"",""trial"",""time""
""fullscreenexit"",""2"",""7836""
",331.0250000213273,<img style='border: 4px solid darkgrey;' src='img/tf1_77_M_ss1.jpeg'></img>,1,NA,exp,NA,1,<img src='img/tf1_77_T1_ss1_md.jpeg'></img>,0,FALSE,NA,sub39
NA,html-keyboard-response,167,461690,0.0-10.0-0.77,"""event"",""trial"",""time""
""fullscreenenter"",""0"",""3338""
""fullscreenexit"",""2"",""7836""
","
","
","""event"",""trial"",""time""
""fullscreenenter"",""0"",""3338""
","""event"",""trial"",""time""
""fullscreenexit"",""2"",""7836""
",null,"<div style=""font-size:60px;"">+</div>",NA,null,fixation,2020-06-13T16:18:25Z,NA,NA,NA,NA,NA,sub39
NA,mars-trial,168,462694,0.0-10.0-1.77,"""event"",""trial"",""time""
""fullscreenenter"",""0"",""3338""
""fullscreenexit"",""2"",""7836""
","
","
","""event"",""trial"",""time""
""fullscreenenter"",""0"",""3338""
","""event"",""trial"",""time""
""fullscreenexit"",""2"",""7836""
",398.1250000069849,<img style='border: 4px solid darkgrey;' src='img/tf1_78_M_ss2.jpeg'></img>,2,NA,exp,NA,3,<img src='img/tf1_78_T1_ss2_md.jpeg'></img>,0,FALSE,NA,sub39
NA,html-keyboard-response,169,463196,0.0-10.0-0.78,"""event"",""trial"",""time""
""fullscreenenter"",""0"",""3338""
""fullscreenexit"",""2"",""7836""
","
","
","""event"",""trial"",""time""
""fullscreenenter"",""0"",""3338""
","""event"",""trial"",""time""
""fullscreenexit"",""2"",""7836""
",null,"<div style=""font-size:60px;"">+</div>",NA,null,fixation,2020-06-13T16:18:26Z,NA,NA,NA,NA,NA,sub39
NA,mars-trial,170,464094,0.0-10.0-1.78,"""event"",""trial"",""time""
""fullscreenenter"",""0"",""3338""
""fullscreenexit"",""2"",""7836""
","
","
","""event"",""trial"",""time""
""fullscreenenter"",""0"",""3338""
","""event"",""trial"",""time""
""fullscreenexit"",""2"",""7836""
",291.8249999929685,<img style='border: 4px solid darkgrey;' src='img/tf1_79_M_ss3.jpeg'></img>,1,NA,exp,NA,2,<img src='img/tf1_79_T1_ss3_md.jpeg'></img>,0,FALSE,NA,sub39
NA,html-keyboard-response,171,464596,0.0-10.0-0.79,"""event"",""trial"",""time""
""fullscreenenter"",""0"",""3338""
""fullscreenexit"",""2"",""7836""
","
","
","""event"",""trial"",""time""
""fullscreenenter"",""0"",""3338""
","""event"",""trial"",""time""
""fullscreenexit"",""2"",""7836""
",null,"<div style=""font-size:60px;"">+</div>",NA,null,fixation,2020-06-13T16:18:28Z,NA,NA,NA,NA,NA,sub39
NA,mars-trial,172,465405,0.0-10.0-1.79,"""event"",""trial"",""time""
""fullscreenenter"",""0"",""3338""
""fullscreenexit"",""2"",""7836""
","
","
","""event"",""trial"",""time""
""fullscreenenter"",""0"",""3338""
","""event"",""trial"",""time""
""fullscreenexit"",""2"",""7836""
",203.6599999992177,<img style='border: 4px solid darkgrey;' src='img/tf1_80_M_ss1.jpeg'></img>,3,NA,exp,NA,2,<img src='img/tf1_80_T1_ss1_md.jpeg'></img>,0,FALSE,NA,sub39
NA,audio-button-response,173,468584,0.0-11.0,"""event"",""trial"",""time""
""fullscreenenter"",""0"",""3338""
""fullscreenexit"",""2"",""7836""
","
","
","""event"",""trial"",""time""
""fullscreenenter"",""0"",""3338""
","""event"",""trial"",""time""
""fullscreenexit"",""2"",""7836""
",3175.405000016326,audio/mars_instructions_slide5.wav,0,NA,NA,NA,NA,NA,NA,NA,NA,sub39
