success,trial_type,trial_index,time_elapsed,internal_node_id,interactions,blur_events,focus_events,fullscreenenter_events,fullscreenexit_events,rt,stimulus,button_pressed,key_press,part,timestamp,unshuffled_button,correct_response,correct_button,correct,value,subject_id
TRUE,fullscreen,0,3315,0.0-0.0,"""event"",""trial"",""time""
""fullscreenenter"",""0"",""2334""
","
","
","""event"",""trial"",""time""
""fullscreenenter"",""0"",""2334""
","
",NA,NA,NA,NA,NA,NA,NA,NA,NA,NA,NA,sub106
NA,pavlovia,1,3321,0.0-1.0,"""event"",""trial"",""time""
""fullscreenenter"",""0"",""2334""
","
","
","""event"",""trial"",""time""
""fullscreenenter"",""0"",""2334""
","
",NA,NA,NA,NA,NA,NA,NA,NA,NA,NA,NA,sub106
NA,html-button-response,2,4474,0.0-2.0,"""event"",""trial"",""time""
""fullscreenenter"",""0"",""2334""
","
","
","""event"",""trial"",""time""
""fullscreenenter"",""0"",""2334""
","
",1151.1249999748543,<p>Welcome! Press START to begin.</p><br>,0,NA,NA,NA,NA,NA,NA,NA,NA,sub106
NA,audio-button-response,3,29868,0.0-3.0,"""event"",""trial"",""time""
""fullscreenenter"",""0"",""2334""
","
","
","""event"",""trial"",""time""
""fullscreenenter"",""0"",""2334""
","
",25389.65999998618,audio/mars_instructions_slide2.wav,0,NA,NA,NA,NA,NA,NA,NA,NA,sub106
NA,audio-button-response,4,33119,0.0-4.0,"""event"",""trial"",""time""
""fullscreenenter"",""0"",""2334""
","
","
","""event"",""trial"",""time""
""fullscreenenter"",""0"",""2334""
","
",3249.9750000424683,audio/mars_instructions_slide3.wav,0,NA,NA,NA,NA,NA,NA,NA,NA,sub106
NA,html-keyboard-response,5,33622,0.0-5.0-0.0,"""event"",""trial"",""time""
""fullscreenenter"",""0"",""2334""
","
","
","""event"",""trial"",""time""
""fullscreenenter"",""0"",""2334""
","
",null,"<div style=""font-size:60px;"">+</div>",NA,null,fixation,2020-06-21T02:11:26Z,NA,NA,NA,NA,NA,sub106
NA,mars-trial,6,43084,0.0-5.0-1.0,"""event"",""trial"",""time""
""fullscreenenter"",""0"",""2334""
","
","
","""event"",""trial"",""time""
""fullscreenenter"",""0"",""2334""
","
",7347.499999916181,<img style='border: 4px solid darkgrey;' src='practice/pt1_M1.png'></img>,0,NA,practice,NA,2,<img src='practice/pt1_T1.png'></img>,0,FALSE,NA,sub106
NA,html-keyboard-response,7,43588,0.0-5.1-0.1,"""event"",""trial"",""time""
""fullscreenenter"",""0"",""2334""
","
","
","""event"",""trial"",""time""
""fullscreenenter"",""0"",""2334""
","
",null,"<div style=""font-size:60px;"">+</div>",NA,null,fixation,2020-06-21T02:11:36Z,NA,NA,NA,NA,NA,sub106
NA,mars-trial,8,47733,0.0-5.1-1.1,"""event"",""trial"",""time""
""fullscreenenter"",""0"",""2334""
","
","
","""event"",""trial"",""time""
""fullscreenenter"",""0"",""2334""
","
",2040.2149999281392,<img style='border: 4px solid darkgrey;' src='practice/pt1_M1.png'></img>,1,NA,practice,NA,2,<img src='practice/pt1_T1.png'></img>,0,FALSE,NA,sub106
NA,html-keyboard-response,9,48234,0.0-5.2-0.2,"""event"",""trial"",""time""
""fullscreenenter"",""0"",""2334""
","
","
","""event"",""trial"",""time""
""fullscreenenter"",""0"",""2334""
","
",null,"<div style=""font-size:60px;"">+</div>",NA,null,fixation,2020-06-21T02:11:41Z,NA,NA,NA,NA,NA,sub106
NA,mars-trial,10,55266,0.0-5.2-1.2,"""event"",""trial"",""time""
""fullscreenenter"",""0"",""2334""
","
","
","""event"",""trial"",""time""
""fullscreenenter"",""0"",""2334""
","
",4927.640000008978,<img style='border: 4px solid darkgrey;' src='practice/pt1_M1.png'></img>,3,NA,practice,NA,0,<img src='practice/pt1_T1.png'></img>,0,TRUE,NA,sub106
NA,html-keyboard-response,11,55769,0.0-6.0-0.0,"""event"",""trial"",""time""
""fullscreenenter"",""0"",""2334""
","
","
","""event"",""trial"",""time""
""fullscreenenter"",""0"",""2334""
","
",null,"<div style=""font-size:60px;"">+</div>",NA,null,fixation,2020-06-21T02:11:48Z,NA,NA,NA,NA,NA,sub106
NA,mars-trial,12,59334,0.0-6.0-1.0,"""event"",""trial"",""time""
""fullscreenenter"",""0"",""2334""
","
","
","""event"",""trial"",""time""
""fullscreenenter"",""0"",""2334""
","
",1459.6300000557676,<img style='border: 4px solid darkgrey;' src='practice/pt2_M1.png'></img>,2,NA,practice,NA,0,<img src='practice/pt2_T1.png'></img>,0,TRUE,NA,sub106
NA,html-keyboard-response,13,59837,0.0-7.0-0.0,"""event"",""trial"",""time""
""fullscreenenter"",""0"",""2334""
","
","
","""event"",""trial"",""time""
""fullscreenenter"",""0"",""2334""
","
",null,"<div style=""font-size:60px;"">+</div>",NA,null,fixation,2020-06-21T02:11:52Z,NA,NA,NA,NA,NA,sub106
NA,mars-trial,14,63350,0.0-7.0-1.0,"""event"",""trial"",""time""
""fullscreenenter"",""0"",""2334""
","
","
","""event"",""trial"",""time""
""fullscreenenter"",""0"",""2334""
","
",1408.3450000034645,<img style='border: 4px solid darkgrey;' src='practice/pt3_M1.png'></img>,0,NA,practice,NA,0,<img src='practice/pt3_T1.png'></img>,0,TRUE,NA,sub106
NA,audio-button-response,15,66943,0.0-8.0,"""event"",""trial"",""time""
""fullscreenenter"",""0"",""2334""
","
","
","""event"",""trial"",""time""
""fullscreenenter"",""0"",""2334""
","
",3592.045000055805,audio/mars_instructions_slide4.wav,0,NA,NA,NA,NA,NA,NA,NA,NA,sub106
NA,call-function,16,66944,0.0-9.0,"""event"",""trial"",""time""
""fullscreenenter"",""0"",""2334""
","
","
","""event"",""trial"",""time""
""fullscreenenter"",""0"",""2334""
","
",NA,NA,NA,NA,NA,NA,NA,NA,NA,NA,NA,sub106
NA,html-keyboard-response,17,67446,0.0-10.0-0.0,"""event"",""trial"",""time""
""fullscreenenter"",""0"",""2334""
","
","
","""event"",""trial"",""time""
""fullscreenenter"",""0"",""2334""
","
",null,"<div style=""font-size:60px;"">+</div>",NA,null,fixation,2020-06-21T02:12:00Z,NA,NA,NA,NA,NA,sub106
NA,mars-trial,18,69418,0.0-10.0-1.0,"""event"",""trial"",""time""
""fullscreenenter"",""0"",""2334""
","
","
","""event"",""trial"",""time""
""fullscreenenter"",""0"",""2334""
","
",1365.555000025779,<img style='border: 4px solid darkgrey;' src='img/tf1_1_M_ss3.jpeg'></img>,0,NA,exp,NA,0,<img src='img/tf1_1_T1_ss3_md.jpeg'></img>,0,TRUE,NA,sub106
NA,html-keyboard-response,19,69919,0.0-10.0-0.1,"""event"",""trial"",""time""
""fullscreenenter"",""0"",""2334""
","
","
","""event"",""trial"",""time""
""fullscreenenter"",""0"",""2334""
","
",null,"<div style=""font-size:60px;"">+</div>",NA,null,fixation,2020-06-21T02:12:02Z,NA,NA,NA,NA,NA,sub106
NA,mars-trial,20,72753,0.0-10.0-1.1,"""event"",""trial"",""time""
""fullscreenenter"",""0"",""2334""
","
","
","""event"",""trial"",""time""
""fullscreenenter"",""0"",""2334""
","
",2227.5399999925867,<img style='border: 4px solid darkgrey;' src='img/tf1_2_M_ss1.jpeg'></img>,2,NA,exp,NA,0,<img src='img/tf1_2_T1_ss1_md.jpeg'></img>,0,TRUE,NA,sub106
NA,html-keyboard-response,21,73254,0.0-10.0-0.2,"""event"",""trial"",""time""
""fullscreenenter"",""0"",""2334""
","
","
","""event"",""trial"",""time""
""fullscreenenter"",""0"",""2334""
","
",null,"<div style=""font-size:60px;"">+</div>",NA,null,fixation,2020-06-21T02:12:06Z,NA,NA,NA,NA,NA,sub106
NA,mars-trial,22,75650,0.0-10.0-1.2,"""event"",""trial"",""time""
""fullscreenenter"",""0"",""2334""
","
","
","""event"",""trial"",""time""
""fullscreenenter"",""0"",""2334""
","
",1791.079999995418,<img style='border: 4px solid darkgrey;' src='img/tf1_3_M_ss2.jpeg'></img>,0,NA,exp,NA,0,<img src='img/tf1_3_T1_ss2_md.jpeg'></img>,0,TRUE,NA,sub106
NA,html-keyboard-response,23,76152,0.0-10.0-0.3,"""event"",""trial"",""time""
""fullscreenenter"",""0"",""2334""
","
","
","""event"",""trial"",""time""
""fullscreenenter"",""0"",""2334""
","
",null,"<div style=""font-size:60px;"">+</div>",NA,null,fixation,2020-06-21T02:12:09Z,NA,NA,NA,NA,NA,sub106
NA,mars-trial,24,80436,0.0-10.0-1.3,"""event"",""trial"",""time""
""fullscreenenter"",""0"",""2334""
","
","
","""event"",""trial"",""time""
""fullscreenenter"",""0"",""2334""
","
",3678.3250001026317,<img style='border: 4px solid darkgrey;' src='img/tf1_4_M_ss3.jpeg'></img>,3,NA,exp,NA,0,<img src='img/tf1_4_T1_ss3_md.jpeg'></img>,0,TRUE,NA,sub106
NA,html-keyboard-response,25,80937,0.0-10.0-0.4,"""event"",""trial"",""time""
""fullscreenenter"",""0"",""2334""
","
","
","""event"",""trial"",""time""
""fullscreenenter"",""0"",""2334""
","
",null,"<div style=""font-size:60px;"">+</div>",NA,null,fixation,2020-06-21T02:12:13Z,NA,NA,NA,NA,NA,sub106
NA,mars-trial,26,83014,0.0-10.0-1.4,"""event"",""trial"",""time""
""fullscreenenter"",""0"",""2334""
","
","
","""event"",""trial"",""time""
""fullscreenenter"",""0"",""2334""
","
",1470.8749999990687,<img style='border: 4px solid darkgrey;' src='img/tf1_5_M_ss1.jpeg'></img>,3,NA,exp,NA,0,<img src='img/tf1_5_T1_ss1_md.jpeg'></img>,0,TRUE,NA,sub106
NA,html-keyboard-response,27,83515,0.0-10.0-0.5,"""event"",""trial"",""time""
""fullscreenenter"",""0"",""2334""
","
","
","""event"",""trial"",""time""
""fullscreenenter"",""0"",""2334""
","
",null,"<div style=""font-size:60px;"">+</div>",NA,null,fixation,2020-06-21T02:12:16Z,NA,NA,NA,NA,NA,sub106
NA,mars-trial,28,85525,0.0-10.0-1.5,"""event"",""trial"",""time""
""fullscreenenter"",""0"",""2334""
","
","
","""event"",""trial"",""time""
""fullscreenenter"",""0"",""2334""
","
",1404.4599999906495,<img style='border: 4px solid darkgrey;' src='img/tf1_6_M_ss2.jpeg'></img>,3,NA,exp,NA,2,<img src='img/tf1_6_T1_ss2_md.jpeg'></img>,0,FALSE,NA,sub106
NA,html-keyboard-response,29,86026,0.0-10.0-0.6,"""event"",""trial"",""time""
""fullscreenenter"",""0"",""2334""
","
","
","""event"",""trial"",""time""
""fullscreenenter"",""0"",""2334""
","
",null,"<div style=""font-size:60px;"">+</div>",NA,null,fixation,2020-06-21T02:12:18Z,NA,NA,NA,NA,NA,sub106
NA,mars-trial,30,87803,0.0-10.0-1.6,"""event"",""trial"",""time""
""fullscreenenter"",""0"",""2334""
","
","
","""event"",""trial"",""time""
""fullscreenenter"",""0"",""2334""
","
",1172.2249999875203,<img style='border: 4px solid darkgrey;' src='img/tf1_7_M_ss3.jpeg'></img>,1,NA,exp,NA,0,<img src='img/tf1_7_T1_ss3_md.jpeg'></img>,0,TRUE,NA,sub106
NA,html-keyboard-response,31,88304,0.0-10.0-0.7,"""event"",""trial"",""time""
""fullscreenenter"",""0"",""2334""
","
","
","""event"",""trial"",""time""
""fullscreenenter"",""0"",""2334""
","
",null,"<div style=""font-size:60px;"">+</div>",NA,null,fixation,2020-06-21T02:12:21Z,NA,NA,NA,NA,NA,sub106
NA,mars-trial,32,89986,0.0-10.0-1.7,"""event"",""trial"",""time""
""fullscreenenter"",""0"",""2334""
","
","
","""event"",""trial"",""time""
""fullscreenenter"",""0"",""2334""
","
",1076.740000047721,<img style='border: 4px solid darkgrey;' src='img/tf1_8_M_ss1.jpeg'></img>,2,NA,exp,NA,2,<img src='img/tf1_8_T1_ss1_md.jpeg'></img>,0,FALSE,NA,sub106
NA,html-keyboard-response,33,90488,0.0-10.0-0.8,"""event"",""trial"",""time""
""fullscreenenter"",""0"",""2334""
","
","
","""event"",""trial"",""time""
""fullscreenenter"",""0"",""2334""
","
",null,"<div style=""font-size:60px;"">+</div>",NA,null,fixation,2020-06-21T02:12:23Z,NA,NA,NA,NA,NA,sub106
NA,mars-trial,34,92387,0.0-10.0-1.8,"""event"",""trial"",""time""
""fullscreenenter"",""0"",""2334""
","
","
","""event"",""trial"",""time""
""fullscreenenter"",""0"",""2334""
","
",1294.264999916777,<img style='border: 4px solid darkgrey;' src='img/tf1_9_M_ss2.jpeg'></img>,1,NA,exp,NA,2,<img src='img/tf1_9_T1_ss2_md.jpeg'></img>,0,FALSE,NA,sub106
NA,html-keyboard-response,35,92889,0.0-10.0-0.9,"""event"",""trial"",""time""
""fullscreenenter"",""0"",""2334""
","
","
","""event"",""trial"",""time""
""fullscreenenter"",""0"",""2334""
","
",null,"<div style=""font-size:60px;"">+</div>",NA,null,fixation,2020-06-21T02:12:25Z,NA,NA,NA,NA,NA,sub106
NA,mars-trial,36,95901,0.0-10.0-1.9,"""event"",""trial"",""time""
""fullscreenenter"",""0"",""2334""
","
","
","""event"",""trial"",""time""
""fullscreenenter"",""0"",""2334""
","
",2407.134999986738,<img style='border: 4px solid darkgrey;' src='img/tf1_10_M_ss3.jpeg'></img>,1,NA,exp,NA,0,<img src='img/tf1_10_T1_ss3_md.jpeg'></img>,0,TRUE,NA,sub106
NA,html-keyboard-response,37,96405,0.0-10.0-0.10,"""event"",""trial"",""time""
""fullscreenenter"",""0"",""2334""
","
","
","""event"",""trial"",""time""
""fullscreenenter"",""0"",""2334""
","
",null,"<div style=""font-size:60px;"">+</div>",NA,null,fixation,2020-06-21T02:12:29Z,NA,NA,NA,NA,NA,sub106
NA,mars-trial,38,98339,0.0-10.0-1.10,"""event"",""trial"",""time""
""fullscreenenter"",""0"",""2334""
","
","
","""event"",""trial"",""time""
""fullscreenenter"",""0"",""2334""
","
",1329.4050000840798,<img style='border: 4px solid darkgrey;' src='img/tf1_11_M_ss1.jpeg'></img>,2,NA,exp,NA,2,<img src='img/tf1_11_T1_ss1_md.jpeg'></img>,0,FALSE,NA,sub106
NA,html-keyboard-response,39,98841,0.0-10.0-0.11,"""event"",""trial"",""time""
""fullscreenenter"",""0"",""2334""
","
","
","""event"",""trial"",""time""
""fullscreenenter"",""0"",""2334""
","
",null,"<div style=""font-size:60px;"">+</div>",NA,null,fixation,2020-06-21T02:12:31Z,NA,NA,NA,NA,NA,sub106
NA,mars-trial,40,101747,0.0-10.0-1.11,"""event"",""trial"",""time""
""fullscreenenter"",""0"",""2334""
","
","
","""event"",""trial"",""time""
""fullscreenenter"",""0"",""2334""
","
",2301.895000040531,<img style='border: 4px solid darkgrey;' src='img/tf1_12_M_ss2.jpeg'></img>,3,NA,exp,NA,1,<img src='img/tf1_12_T1_ss2_md.jpeg'></img>,0,FALSE,NA,sub106
NA,html-keyboard-response,41,102250,0.0-10.0-0.12,"""event"",""trial"",""time""
""fullscreenenter"",""0"",""2334""
","
","
","""event"",""trial"",""time""
""fullscreenenter"",""0"",""2334""
","
",null,"<div style=""font-size:60px;"">+</div>",NA,null,fixation,2020-06-21T02:12:35Z,NA,NA,NA,NA,NA,sub106
NA,mars-trial,42,105361,0.0-10.0-1.12,"""event"",""trial"",""time""
""fullscreenenter"",""0"",""2334""
","
","
","""event"",""trial"",""time""
""fullscreenenter"",""0"",""2334""
","
",2506.195000023581,<img style='border: 4px solid darkgrey;' src='img/tf1_13_M_ss3.jpeg'></img>,2,NA,exp,NA,3,<img src='img/tf1_13_T1_ss3_md.jpeg'></img>,0,FALSE,NA,sub106
NA,html-keyboard-response,43,105862,0.0-10.0-0.13,"""event"",""trial"",""time""
""fullscreenenter"",""0"",""2334""
","
","
","""event"",""trial"",""time""
""fullscreenenter"",""0"",""2334""
","
",null,"<div style=""font-size:60px;"">+</div>",NA,null,fixation,2020-06-21T02:12:38Z,NA,NA,NA,NA,NA,sub106
NA,mars-trial,44,108099,0.0-10.0-1.13,"""event"",""trial"",""time""
""fullscreenenter"",""0"",""2334""
","
","
","""event"",""trial"",""time""
""fullscreenenter"",""0"",""2334""
","
",1632.2299999883398,<img style='border: 4px solid darkgrey;' src='img/tf1_14_M_ss1.jpeg'></img>,1,NA,exp,NA,1,<img src='img/tf1_14_T1_ss1_md.jpeg'></img>,0,FALSE,NA,sub106
NA,html-keyboard-response,45,108600,0.0-10.0-0.14,"""event"",""trial"",""time""
""fullscreenenter"",""0"",""2334""
","
","
","""event"",""trial"",""time""
""fullscreenenter"",""0"",""2334""
","
",null,"<div style=""font-size:60px;"">+</div>",NA,null,fixation,2020-06-21T02:12:41Z,NA,NA,NA,NA,NA,sub106
NA,mars-trial,46,109707,0.0-10.0-1.14,"""event"",""trial"",""time""
""fullscreenenter"",""0"",""2334""
","
","
","""event"",""trial"",""time""
""fullscreenenter"",""0"",""2334""
","
",502.2700000554323,<img style='border: 4px solid darkgrey;' src='img/tf1_15_M_ss2.jpeg'></img>,2,NA,exp,NA,3,<img src='img/tf1_15_T1_ss2_md.jpeg'></img>,0,FALSE,NA,sub106
NA,html-keyboard-response,47,110208,0.0-10.0-0.15,"""event"",""trial"",""time""
""fullscreenenter"",""0"",""2334""
","
","
","""event"",""trial"",""time""
""fullscreenenter"",""0"",""2334""
","
",null,"<div style=""font-size:60px;"">+</div>",NA,null,fixation,2020-06-21T02:12:43Z,NA,NA,NA,NA,NA,sub106
NA,mars-trial,48,112019,0.0-10.0-1.15,"""event"",""trial"",""time""
""fullscreenenter"",""0"",""2334""
","
","
","""event"",""trial"",""time""
""fullscreenenter"",""0"",""2334""
","
",1206.3649999909103,<img style='border: 4px solid darkgrey;' src='img/tf1_16_M_ss3.jpeg'></img>,1,NA,exp,NA,0,<img src='img/tf1_16_T1_ss3_md.jpeg'></img>,0,TRUE,NA,sub106
NA,html-keyboard-response,49,112521,0.0-10.0-0.16,"""event"",""trial"",""time""
""fullscreenenter"",""0"",""2334""
","
","
","""event"",""trial"",""time""
""fullscreenenter"",""0"",""2334""
","
",null,"<div style=""font-size:60px;"">+</div>",NA,null,fixation,2020-06-21T02:12:45Z,NA,NA,NA,NA,NA,sub106
NA,mars-trial,50,118393,0.0-10.0-1.16,"""event"",""trial"",""time""
""fullscreenenter"",""0"",""2334""
","
","
","""event"",""trial"",""time""
""fullscreenenter"",""0"",""2334""
","
",5268.215000047348,<img style='border: 4px solid darkgrey;' src='img/tf1_17_M_ss1.jpeg'></img>,0,NA,exp,NA,2,<img src='img/tf1_17_T1_ss1_md.jpeg'></img>,0,FALSE,NA,sub106
NA,html-keyboard-response,51,118894,0.0-10.0-0.17,"""event"",""trial"",""time""
""fullscreenenter"",""0"",""2334""
","
","
","""event"",""trial"",""time""
""fullscreenenter"",""0"",""2334""
","
",null,"<div style=""font-size:60px;"">+</div>",NA,null,fixation,2020-06-21T02:12:51Z,NA,NA,NA,NA,NA,sub106
NA,mars-trial,52,119953,0.0-10.0-1.17,"""event"",""trial"",""time""
""fullscreenenter"",""0"",""2334""
","
","
","""event"",""trial"",""time""
""fullscreenenter"",""0"",""2334""
","
",453.9799999911338,<img style='border: 4px solid darkgrey;' src='img/tf1_18_M_ss2.jpeg'></img>,1,NA,exp,NA,1,<img src='img/tf1_18_T1_ss2_md.jpeg'></img>,0,FALSE,NA,sub106
NA,html-keyboard-response,53,120454,0.0-10.0-0.18,"""event"",""trial"",""time""
""fullscreenenter"",""0"",""2334""
","
","
","""event"",""trial"",""time""
""fullscreenenter"",""0"",""2334""
","
",null,"<div style=""font-size:60px;"">+</div>",NA,null,fixation,2020-06-21T02:12:53Z,NA,NA,NA,NA,NA,sub106
NA,mars-trial,54,121399,0.0-10.0-1.18,"""event"",""trial"",""time""
""fullscreenenter"",""0"",""2334""
","
","
","""event"",""trial"",""time""
""fullscreenenter"",""0"",""2334""
","
",340.50499997101724,<img style='border: 4px solid darkgrey;' src='img/tf1_19_M_ss3.jpeg'></img>,2,NA,exp,NA,0,<img src='img/tf1_19_T1_ss3_md.jpeg'></img>,0,TRUE,NA,sub106
NA,html-keyboard-response,55,121900,0.0-10.0-0.19,"""event"",""trial"",""time""
""fullscreenenter"",""0"",""2334""
","
","
","""event"",""trial"",""time""
""fullscreenenter"",""0"",""2334""
","
",null,"<div style=""font-size:60px;"">+</div>",NA,null,fixation,2020-06-21T02:12:54Z,NA,NA,NA,NA,NA,sub106
NA,mars-trial,56,123377,0.0-10.0-1.19,"""event"",""trial"",""time""
""fullscreenenter"",""0"",""2334""
","
","
","""event"",""trial"",""time""
""fullscreenenter"",""0"",""2334""
","
",872.7299999445677,<img style='border: 4px solid darkgrey;' src='img/tf1_20_M_ss1.jpeg'></img>,3,NA,exp,NA,0,<img src='img/tf1_20_T1_ss1_md.jpeg'></img>,0,TRUE,NA,sub106
NA,html-keyboard-response,57,123879,0.0-10.0-0.20,"""event"",""trial"",""time""
""fullscreenenter"",""0"",""2334""
","
","
","""event"",""trial"",""time""
""fullscreenenter"",""0"",""2334""
","
",null,"<div style=""font-size:60px;"">+</div>",NA,null,fixation,2020-06-21T02:12:56Z,NA,NA,NA,NA,NA,sub106
NA,mars-trial,58,124847,0.0-10.0-1.20,"""event"",""trial"",""time""
""fullscreenenter"",""0"",""2334""
","
","
","""event"",""trial"",""time""
""fullscreenenter"",""0"",""2334""
","
",363.2099999813363,<img style='border: 4px solid darkgrey;' src='img/tf1_21_M_ss2.jpeg'></img>,2,NA,exp,NA,1,<img src='img/tf1_21_T1_ss2_md.jpeg'></img>,0,FALSE,NA,sub106
NA,html-keyboard-response,59,125348,0.0-10.0-0.21,"""event"",""trial"",""time""
""fullscreenenter"",""0"",""2334""
","
","
","""event"",""trial"",""time""
""fullscreenenter"",""0"",""2334""
","
",null,"<div style=""font-size:60px;"">+</div>",NA,null,fixation,2020-06-21T02:12:58Z,NA,NA,NA,NA,NA,sub106
NA,mars-trial,60,126867,0.0-10.0-1.21,"""event"",""trial"",""time""
""fullscreenenter"",""0"",""2334""
","
","
","""event"",""trial"",""time""
""fullscreenenter"",""0"",""2334""
","
",914.4450000021607,<img style='border: 4px solid darkgrey;' src='img/tf1_22_M_ss3.jpeg'></img>,1,NA,exp,NA,2,<img src='img/tf1_22_T1_ss3_md.jpeg'></img>,0,FALSE,NA,sub106
NA,html-keyboard-response,61,127369,0.0-10.0-0.22,"""event"",""trial"",""time""
""fullscreenenter"",""0"",""2334""
","
","
","""event"",""trial"",""time""
""fullscreenenter"",""0"",""2334""
","
",null,"<div style=""font-size:60px;"">+</div>",NA,null,fixation,2020-06-21T02:13:00Z,NA,NA,NA,NA,NA,sub106
NA,mars-trial,62,128340,0.0-10.0-1.22,"""event"",""trial"",""time""
""fullscreenenter"",""0"",""2334""
","
","
","""event"",""trial"",""time""
""fullscreenenter"",""0"",""2334""
","
",363.8249998912215,<img style='border: 4px solid darkgrey;' src='img/tf1_23_M_ss1.jpeg'></img>,2,NA,exp,NA,3,<img src='img/tf1_23_T1_ss1_md.jpeg'></img>,0,FALSE,NA,sub106
NA,html-keyboard-response,63,128841,0.0-10.0-0.23,"""event"",""trial"",""time""
""fullscreenenter"",""0"",""2334""
","
","
","""event"",""trial"",""time""
""fullscreenenter"",""0"",""2334""
","
",null,"<div style=""font-size:60px;"">+</div>",NA,null,fixation,2020-06-21T02:13:01Z,NA,NA,NA,NA,NA,sub106
NA,mars-trial,64,129903,0.0-10.0-1.23,"""event"",""trial"",""time""
""fullscreenenter"",""0"",""2334""
","
","
","""event"",""trial"",""time""
""fullscreenenter"",""0"",""2334""
","
",456.92999998573214,<img style='border: 4px solid darkgrey;' src='img/tf1_24_M_ss2.jpeg'></img>,0,NA,exp,NA,2,<img src='img/tf1_24_T1_ss2_md.jpeg'></img>,0,FALSE,NA,sub106
NA,html-keyboard-response,65,130404,0.0-10.0-0.24,"""event"",""trial"",""time""
""fullscreenenter"",""0"",""2334""
","
","
","""event"",""trial"",""time""
""fullscreenenter"",""0"",""2334""
","
",null,"<div style=""font-size:60px;"">+</div>",NA,null,fixation,2020-06-21T02:13:03Z,NA,NA,NA,NA,NA,sub106
NA,mars-trial,66,131421,0.0-10.0-1.24,"""event"",""trial"",""time""
""fullscreenenter"",""0"",""2334""
","
","
","""event"",""trial"",""time""
""fullscreenenter"",""0"",""2334""
","
",412.12499991524965,<img style='border: 4px solid darkgrey;' src='img/tf1_25_M_ss3.jpeg'></img>,1,NA,exp,NA,1,<img src='img/tf1_25_T1_ss3_md.jpeg'></img>,0,FALSE,NA,sub106
NA,html-keyboard-response,67,131924,0.0-10.0-0.25,"""event"",""trial"",""time""
""fullscreenenter"",""0"",""2334""
","
","
","""event"",""trial"",""time""
""fullscreenenter"",""0"",""2334""
","
",null,"<div style=""font-size:60px;"">+</div>",NA,null,fixation,2020-06-21T02:13:04Z,NA,NA,NA,NA,NA,sub106
NA,mars-trial,68,132969,0.0-10.0-1.25,"""event"",""trial"",""time""
""fullscreenenter"",""0"",""2334""
","
","
","""event"",""trial"",""time""
""fullscreenenter"",""0"",""2334""
","
",438.32499999552965,<img style='border: 4px solid darkgrey;' src='img/tf1_26_M_ss1.jpeg'></img>,2,NA,exp,NA,2,<img src='img/tf1_26_T1_ss1_md.jpeg'></img>,0,FALSE,NA,sub106
NA,html-keyboard-response,69,133472,0.0-10.0-0.26,"""event"",""trial"",""time""
""fullscreenenter"",""0"",""2334""
","
","
","""event"",""trial"",""time""
""fullscreenenter"",""0"",""2334""
","
",null,"<div style=""font-size:60px;"">+</div>",NA,null,fixation,2020-06-21T02:13:06Z,NA,NA,NA,NA,NA,sub106
NA,mars-trial,70,134525,0.0-10.0-1.26,"""event"",""trial"",""time""
""fullscreenenter"",""0"",""2334""
","
","
","""event"",""trial"",""time""
""fullscreenenter"",""0"",""2334""
","
",449.19499999377877,<img style='border: 4px solid darkgrey;' src='img/tf1_27_M_ss2.jpeg'></img>,2,NA,exp,NA,0,<img src='img/tf1_27_T1_ss2_md.jpeg'></img>,0,TRUE,NA,sub106
NA,html-keyboard-response,71,135027,0.0-10.0-0.27,"""event"",""trial"",""time""
""fullscreenenter"",""0"",""2334""
","
","
","""event"",""trial"",""time""
""fullscreenenter"",""0"",""2334""
","
",null,"<div style=""font-size:60px;"">+</div>",NA,null,fixation,2020-06-21T02:13:07Z,NA,NA,NA,NA,NA,sub106
NA,mars-trial,72,136063,0.0-10.0-1.27,"""event"",""trial"",""time""
""fullscreenenter"",""0"",""2334""
","
","
","""event"",""trial"",""time""
""fullscreenenter"",""0"",""2334""
","
",430.80500001087785,<img style='border: 4px solid darkgrey;' src='img/tf1_28_M_ss3.jpeg'></img>,2,NA,exp,NA,2,<img src='img/tf1_28_T1_ss3_md.jpeg'></img>,0,FALSE,NA,sub106
NA,html-keyboard-response,73,136564,0.0-10.0-0.28,"""event"",""trial"",""time""
""fullscreenenter"",""0"",""2334""
","
","
","""event"",""trial"",""time""
""fullscreenenter"",""0"",""2334""
","
",null,"<div style=""font-size:60px;"">+</div>",NA,null,fixation,2020-06-21T02:13:09Z,NA,NA,NA,NA,NA,sub106
NA,mars-trial,74,137593,0.0-10.0-1.28,"""event"",""trial"",""time""
""fullscreenenter"",""0"",""2334""
","
","
","""event"",""trial"",""time""
""fullscreenenter"",""0"",""2334""
","
",423.6099999397993,<img style='border: 4px solid darkgrey;' src='img/tf1_29_M_ss1.jpeg'></img>,1,NA,exp,NA,0,<img src='img/tf1_29_T1_ss1_md.jpeg'></img>,0,TRUE,NA,sub106
NA,html-keyboard-response,75,138095,0.0-10.0-0.29,"""event"",""trial"",""time""
""fullscreenenter"",""0"",""2334""
","
","
","""event"",""trial"",""time""
""fullscreenenter"",""0"",""2334""
","
",null,"<div style=""font-size:60px;"">+</div>",NA,null,fixation,2020-06-21T02:13:10Z,NA,NA,NA,NA,NA,sub106
NA,mars-trial,76,139076,0.0-10.0-1.29,"""event"",""trial"",""time""
""fullscreenenter"",""0"",""2334""
","
","
","""event"",""trial"",""time""
""fullscreenenter"",""0"",""2334""
","
",377.1699999924749,<img style='border: 4px solid darkgrey;' src='img/tf1_30_M_ss2.jpeg'></img>,1,NA,exp,NA,1,<img src='img/tf1_30_T1_ss2_md.jpeg'></img>,0,FALSE,NA,sub106
NA,html-keyboard-response,77,139577,0.0-10.0-0.30,"""event"",""trial"",""time""
""fullscreenenter"",""0"",""2334""
","
","
","""event"",""trial"",""time""
""fullscreenenter"",""0"",""2334""
","
",null,"<div style=""font-size:60px;"">+</div>",NA,null,fixation,2020-06-21T02:13:12Z,NA,NA,NA,NA,NA,sub106
NA,mars-trial,78,140550,0.0-10.0-1.30,"""event"",""trial"",""time""
""fullscreenenter"",""0"",""2334""
","
","
","""event"",""trial"",""time""
""fullscreenenter"",""0"",""2334""
","
",368.1249999208376,<img style='border: 4px solid darkgrey;' src='img/tf1_31_M_ss3.jpeg'></img>,2,NA,exp,NA,2,<img src='img/tf1_31_T1_ss3_md.jpeg'></img>,0,FALSE,NA,sub106
NA,html-keyboard-response,79,141051,0.0-10.0-0.31,"""event"",""trial"",""time""
""fullscreenenter"",""0"",""2334""
","
","
","""event"",""trial"",""time""
""fullscreenenter"",""0"",""2334""
","
",null,"<div style=""font-size:60px;"">+</div>",NA,null,fixation,2020-06-21T02:13:13Z,NA,NA,NA,NA,NA,sub106
NA,mars-trial,80,142237,0.0-10.0-1.31,"""event"",""trial"",""time""
""fullscreenenter"",""0"",""2334""
","
","
","""event"",""trial"",""time""
""fullscreenenter"",""0"",""2334""
","
",580.7649999624118,<img style='border: 4px solid darkgrey;' src='img/tf1_32_M_ss1.jpeg'></img>,3,NA,exp,NA,3,<img src='img/tf1_32_T1_ss1_md.jpeg'></img>,0,FALSE,NA,sub106
NA,html-keyboard-response,81,142739,0.0-10.0-0.32,"""event"",""trial"",""time""
""fullscreenenter"",""0"",""2334""
","
","
","""event"",""trial"",""time""
""fullscreenenter"",""0"",""2334""
","
",null,"<div style=""font-size:60px;"">+</div>",NA,null,fixation,2020-06-21T02:13:15Z,NA,NA,NA,NA,NA,sub106
NA,mars-trial,82,143603,0.0-10.0-1.32,"""event"",""trial"",""time""
""fullscreenenter"",""0"",""2334""
","
","
","""event"",""trial"",""time""
""fullscreenenter"",""0"",""2334""
","
",259.65000002179295,<img style='border: 4px solid darkgrey;' src='img/tf1_33_M_ss2.jpeg'></img>,1,NA,exp,NA,3,<img src='img/tf1_33_T1_ss2_md.jpeg'></img>,0,FALSE,NA,sub106
NA,html-keyboard-response,83,144105,0.0-10.0-0.33,"""event"",""trial"",""time""
""fullscreenenter"",""0"",""2334""
","
","
","""event"",""trial"",""time""
""fullscreenenter"",""0"",""2334""
","
",null,"<div style=""font-size:60px;"">+</div>",NA,null,fixation,2020-06-21T02:13:16Z,NA,NA,NA,NA,NA,sub106
NA,mars-trial,84,145511,0.0-10.0-1.33,"""event"",""trial"",""time""
""fullscreenenter"",""0"",""2334""
","
","
","""event"",""trial"",""time""
""fullscreenenter"",""0"",""2334""
","
",801.3100000098348,<img style='border: 4px solid darkgrey;' src='img/tf1_34_M_ss3.jpeg'></img>,2,NA,exp,NA,2,<img src='img/tf1_34_T1_ss3_md.jpeg'></img>,0,FALSE,NA,sub106
NA,html-keyboard-response,85,146013,0.0-10.0-0.34,"""event"",""trial"",""time""
""fullscreenenter"",""0"",""2334""
","
","
","""event"",""trial"",""time""
""fullscreenenter"",""0"",""2334""
","
",null,"<div style=""font-size:60px;"">+</div>",NA,null,fixation,2020-06-21T02:13:18Z,NA,NA,NA,NA,NA,sub106
NA,mars-trial,86,146950,0.0-10.0-1.34,"""event"",""trial"",""time""
""fullscreenenter"",""0"",""2334""
","
","
","""event"",""trial"",""time""
""fullscreenenter"",""0"",""2334""
","
",329.34499997645617,<img style='border: 4px solid darkgrey;' src='img/tf1_35_M_ss1.jpeg'></img>,2,NA,exp,NA,1,<img src='img/tf1_35_T1_ss1_md.jpeg'></img>,0,FALSE,NA,sub106
NA,html-keyboard-response,87,147452,0.0-10.0-0.35,"""event"",""trial"",""time""
""fullscreenenter"",""0"",""2334""
","
","
","""event"",""trial"",""time""
""fullscreenenter"",""0"",""2334""
","
",null,"<div style=""font-size:60px;"">+</div>",NA,null,fixation,2020-06-21T02:13:20Z,NA,NA,NA,NA,NA,sub106
NA,mars-trial,88,148361,0.0-10.0-1.35,"""event"",""trial"",""time""
""fullscreenenter"",""0"",""2334""
","
","
","""event"",""trial"",""time""
""fullscreenenter"",""0"",""2334""
","
",303.92000009305775,<img style='border: 4px solid darkgrey;' src='img/tf1_36_M_ss2.jpeg'></img>,2,NA,exp,NA,0,<img src='img/tf1_36_T1_ss2_md.jpeg'></img>,0,TRUE,NA,sub106
NA,html-keyboard-response,89,148862,0.0-10.0-0.36,"""event"",""trial"",""time""
""fullscreenenter"",""0"",""2334""
","
","
","""event"",""trial"",""time""
""fullscreenenter"",""0"",""2334""
","
",null,"<div style=""font-size:60px;"">+</div>",NA,null,fixation,2020-06-21T02:13:21Z,NA,NA,NA,NA,NA,sub106
NA,mars-trial,90,149673,0.0-10.0-1.36,"""event"",""trial"",""time""
""fullscreenenter"",""0"",""2334""
","
","
","""event"",""trial"",""time""
""fullscreenenter"",""0"",""2334""
","
",206.525000045076,<img style='border: 4px solid darkgrey;' src='img/tf1_37_M_ss3.jpeg'></img>,1,NA,exp,NA,1,<img src='img/tf1_37_T1_ss3_md.jpeg'></img>,0,FALSE,NA,sub106
NA,html-keyboard-response,91,150174,0.0-10.0-0.37,"""event"",""trial"",""time""
""fullscreenenter"",""0"",""2334""
","
","
","""event"",""trial"",""time""
""fullscreenenter"",""0"",""2334""
","
",null,"<div style=""font-size:60px;"">+</div>",NA,null,fixation,2020-06-21T02:13:23Z,NA,NA,NA,NA,NA,sub106
NA,mars-trial,92,151069,0.0-10.0-1.37,"""event"",""trial"",""time""
""fullscreenenter"",""0"",""2334""
","
","
","""event"",""trial"",""time""
""fullscreenenter"",""0"",""2334""
","
",289.7749999538064,<img style='border: 4px solid darkgrey;' src='img/tf1_38_M_ss1.jpeg'></img>,0,NA,exp,NA,0,<img src='img/tf1_38_T1_ss1_md.jpeg'></img>,0,TRUE,NA,sub106
NA,html-keyboard-response,93,151570,0.0-10.0-0.38,"""event"",""trial"",""time""
""fullscreenenter"",""0"",""2334""
","
","
","""event"",""trial"",""time""
""fullscreenenter"",""0"",""2334""
","
",null,"<div style=""font-size:60px;"">+</div>",NA,null,fixation,2020-06-21T02:13:24Z,NA,NA,NA,NA,NA,sub106
NA,mars-trial,94,152618,0.0-10.0-1.38,"""event"",""trial"",""time""
""fullscreenenter"",""0"",""2334""
","
","
","""event"",""trial"",""time""
""fullscreenenter"",""0"",""2334""
","
",441.359999938868,<img style='border: 4px solid darkgrey;' src='img/tf1_39_M_ss2.jpeg'></img>,2,NA,exp,NA,0,<img src='img/tf1_39_T1_ss2_md.jpeg'></img>,0,TRUE,NA,sub106
NA,html-keyboard-response,95,153119,0.0-10.0-0.39,"""event"",""trial"",""time""
""fullscreenenter"",""0"",""2334""
","
","
","""event"",""trial"",""time""
""fullscreenenter"",""0"",""2334""
","
",null,"<div style=""font-size:60px;"">+</div>",NA,null,fixation,2020-06-21T02:13:25Z,NA,NA,NA,NA,NA,sub106
NA,mars-trial,96,153966,0.0-10.0-1.39,"""event"",""trial"",""time""
""fullscreenenter"",""0"",""2334""
","
","
","""event"",""trial"",""time""
""fullscreenenter"",""0"",""2334""
","
",243.5199999017641,<img style='border: 4px solid darkgrey;' src='img/tf1_40_M_ss3.jpeg'></img>,1,NA,exp,NA,3,<img src='img/tf1_40_T1_ss3_md.jpeg'></img>,0,FALSE,NA,sub106
NA,html-keyboard-response,97,154468,0.0-10.0-0.40,"""event"",""trial"",""time""
""fullscreenenter"",""0"",""2334""
","
","
","""event"",""trial"",""time""
""fullscreenenter"",""0"",""2334""
","
",null,"<div style=""font-size:60px;"">+</div>",NA,null,fixation,2020-06-21T02:13:27Z,NA,NA,NA,NA,NA,sub106
NA,mars-trial,98,155401,0.0-10.0-1.40,"""event"",""trial"",""time""
""fullscreenenter"",""0"",""2334""
","
","
","""event"",""trial"",""time""
""fullscreenenter"",""0"",""2334""
","
",327.6049999985844,<img style='border: 4px solid darkgrey;' src='img/tf1_41_M_ss1.jpeg'></img>,3,NA,exp,NA,3,<img src='img/tf1_41_T1_ss1_md.jpeg'></img>,0,FALSE,NA,sub106
NA,html-keyboard-response,99,155903,0.0-10.0-0.41,"""event"",""trial"",""time""
""fullscreenenter"",""0"",""2334""
","
","
","""event"",""trial"",""time""
""fullscreenenter"",""0"",""2334""
","
",null,"<div style=""font-size:60px;"">+</div>",NA,null,fixation,2020-06-21T02:13:28Z,NA,NA,NA,NA,NA,sub106
NA,mars-trial,100,157007,0.0-10.0-1.41,"""event"",""trial"",""time""
""fullscreenenter"",""0"",""2334""
","
","
","""event"",""trial"",""time""
""fullscreenenter"",""0"",""2334""
","
",500.02999999560416,<img style='border: 4px solid darkgrey;' src='img/tf1_42_M_ss2.jpeg'></img>,1,NA,exp,NA,0,<img src='img/tf1_42_T1_ss2_md.jpeg'></img>,0,TRUE,NA,sub106
NA,html-keyboard-response,101,157509,0.0-10.0-0.42,"""event"",""trial"",""time""
""fullscreenenter"",""0"",""2334""
","
","
","""event"",""trial"",""time""
""fullscreenenter"",""0"",""2334""
","
",null,"<div style=""font-size:60px;"">+</div>",NA,null,fixation,2020-06-21T02:13:30Z,NA,NA,NA,NA,NA,sub106
NA,mars-trial,102,158478,0.0-10.0-1.42,"""event"",""trial"",""time""
""fullscreenenter"",""0"",""2334""
","
","
","""event"",""trial"",""time""
""fullscreenenter"",""0"",""2334""
","
",365.0200000265613,<img style='border: 4px solid darkgrey;' src='img/tf1_43_M_ss3.jpeg'></img>,2,NA,exp,NA,1,<img src='img/tf1_43_T1_ss3_md.jpeg'></img>,0,FALSE,NA,sub106
NA,html-keyboard-response,103,158979,0.0-10.0-0.43,"""event"",""trial"",""time""
""fullscreenenter"",""0"",""2334""
","
","
","""event"",""trial"",""time""
""fullscreenenter"",""0"",""2334""
","
",null,"<div style=""font-size:60px;"">+</div>",NA,null,fixation,2020-06-21T02:13:31Z,NA,NA,NA,NA,NA,sub106
NA,mars-trial,104,160138,0.0-10.0-1.43,"""event"",""trial"",""time""
""fullscreenenter"",""0"",""2334""
","
","
","""event"",""trial"",""time""
""fullscreenenter"",""0"",""2334""
","
",554.6799999428913,<img style='border: 4px solid darkgrey;' src='img/tf1_44_M_ss1.jpeg'></img>,1,NA,exp,NA,1,<img src='img/tf1_44_T1_ss1_md.jpeg'></img>,0,FALSE,NA,sub106
NA,html-keyboard-response,105,160640,0.0-10.0-0.44,"""event"",""trial"",""time""
""fullscreenenter"",""0"",""2334""
","
","
","""event"",""trial"",""time""
""fullscreenenter"",""0"",""2334""
","
",null,"<div style=""font-size:60px;"">+</div>",NA,null,fixation,2020-06-21T02:13:33Z,NA,NA,NA,NA,NA,sub106
NA,mars-trial,106,161707,0.0-10.0-1.44,"""event"",""trial"",""time""
""fullscreenenter"",""0"",""2334""
","
","
","""event"",""trial"",""time""
""fullscreenenter"",""0"",""2334""
","
",462.15500007383525,<img style='border: 4px solid darkgrey;' src='img/tf1_45_M_ss2.jpeg'></img>,2,NA,exp,NA,3,<img src='img/tf1_45_T1_ss2_md.jpeg'></img>,0,FALSE,NA,sub106
NA,html-keyboard-response,107,162208,0.0-10.0-0.45,"""event"",""trial"",""time""
""fullscreenenter"",""0"",""2334""
","
","
","""event"",""trial"",""time""
""fullscreenenter"",""0"",""2334""
","
",null,"<div style=""font-size:60px;"">+</div>",NA,null,fixation,2020-06-21T02:13:35Z,NA,NA,NA,NA,NA,sub106
NA,mars-trial,108,163116,0.0-10.0-1.45,"""event"",""trial"",""time""
""fullscreenenter"",""0"",""2334""
","
","
","""event"",""trial"",""time""
""fullscreenenter"",""0"",""2334""
","
",303.6250000586733,<img style='border: 4px solid darkgrey;' src='img/tf1_46_M_ss3.jpeg'></img>,3,NA,exp,NA,3,<img src='img/tf1_46_T1_ss3_md.jpeg'></img>,0,FALSE,NA,sub106
NA,html-keyboard-response,109,163617,0.0-10.0-0.46,"""event"",""trial"",""time""
""fullscreenenter"",""0"",""2334""
","
","
","""event"",""trial"",""time""
""fullscreenenter"",""0"",""2334""
","
",null,"<div style=""font-size:60px;"">+</div>",NA,null,fixation,2020-06-21T02:13:36Z,NA,NA,NA,NA,NA,sub106
NA,mars-trial,110,164525,0.0-10.0-1.46,"""event"",""trial"",""time""
""fullscreenenter"",""0"",""2334""
","
","
","""event"",""trial"",""time""
""fullscreenenter"",""0"",""2334""
","
",302.57000005804,<img style='border: 4px solid darkgrey;' src='img/tf1_47_M_ss1.jpeg'></img>,2,NA,exp,NA,3,<img src='img/tf1_47_T1_ss1_md.jpeg'></img>,0,FALSE,NA,sub106
NA,html-keyboard-response,111,165026,0.0-10.0-0.47,"""event"",""trial"",""time""
""fullscreenenter"",""0"",""2334""
","
","
","""event"",""trial"",""time""
""fullscreenenter"",""0"",""2334""
","
",null,"<div style=""font-size:60px;"">+</div>",NA,null,fixation,2020-06-21T02:13:37Z,NA,NA,NA,NA,NA,sub106
NA,mars-trial,112,166160,0.0-10.0-1.47,"""event"",""trial"",""time""
""fullscreenenter"",""0"",""2334""
","
","
","""event"",""trial"",""time""
""fullscreenenter"",""0"",""2334""
","
",528.0299999285489,<img style='border: 4px solid darkgrey;' src='img/tf1_48_M_ss2.jpeg'></img>,1,NA,exp,NA,0,<img src='img/tf1_48_T1_ss2_md.jpeg'></img>,0,TRUE,NA,sub106
NA,html-keyboard-response,113,166662,0.0-10.0-0.48,"""event"",""trial"",""time""
""fullscreenenter"",""0"",""2334""
","
","
","""event"",""trial"",""time""
""fullscreenenter"",""0"",""2334""
","
",null,"<div style=""font-size:60px;"">+</div>",NA,null,fixation,2020-06-21T02:13:39Z,NA,NA,NA,NA,NA,sub106
NA,mars-trial,114,167621,0.0-10.0-1.48,"""event"",""trial"",""time""
""fullscreenenter"",""0"",""2334""
","
","
","""event"",""trial"",""time""
""fullscreenenter"",""0"",""2334""
","
",352.8599999845028,<img style='border: 4px solid darkgrey;' src='img/tf1_49_M_ss3.jpeg'></img>,2,NA,exp,NA,3,<img src='img/tf1_49_T1_ss3_md.jpeg'></img>,0,FALSE,NA,sub106
NA,html-keyboard-response,115,168122,0.0-10.0-0.49,"""event"",""trial"",""time""
""fullscreenenter"",""0"",""2334""
","
","
","""event"",""trial"",""time""
""fullscreenenter"",""0"",""2334""
","
",null,"<div style=""font-size:60px;"">+</div>",NA,null,fixation,2020-06-21T02:13:40Z,NA,NA,NA,NA,NA,sub106
NA,mars-trial,116,168959,0.0-10.0-1.49,"""event"",""trial"",""time""
""fullscreenenter"",""0"",""2334""
","
","
","""event"",""trial"",""time""
""fullscreenenter"",""0"",""2334""
","
",230.66499992273748,<img style='border: 4px solid darkgrey;' src='img/tf1_50_M_ss1.jpeg'></img>,1,NA,exp,NA,2,<img src='img/tf1_50_T1_ss1_md.jpeg'></img>,0,FALSE,NA,sub106
NA,html-keyboard-response,117,169462,0.0-10.0-0.50,"""event"",""trial"",""time""
""fullscreenenter"",""0"",""2334""
","
","
","""event"",""trial"",""time""
""fullscreenenter"",""0"",""2334""
","
",null,"<div style=""font-size:60px;"">+</div>",NA,null,fixation,2020-06-21T02:13:42Z,NA,NA,NA,NA,NA,sub106
NA,mars-trial,118,170522,0.0-10.0-1.50,"""event"",""trial"",""time""
""fullscreenenter"",""0"",""2334""
","
","
","""event"",""trial"",""time""
""fullscreenenter"",""0"",""2334""
","
",455.65999997779727,<img style='border: 4px solid darkgrey;' src='img/tf1_51_M_ss2.jpeg'></img>,2,NA,exp,NA,1,<img src='img/tf1_51_T1_ss2_md.jpeg'></img>,0,FALSE,NA,sub106
NA,html-keyboard-response,119,171024,0.0-10.0-0.51,"""event"",""trial"",""time""
""fullscreenenter"",""0"",""2334""
","
","
","""event"",""trial"",""time""
""fullscreenenter"",""0"",""2334""
","
",null,"<div style=""font-size:60px;"">+</div>",NA,null,fixation,2020-06-21T02:13:43Z,NA,NA,NA,NA,NA,sub106
NA,mars-trial,120,172063,0.0-10.0-1.51,"""event"",""trial"",""time""
""fullscreenenter"",""0"",""2334""
","
","
","""event"",""trial"",""time""
""fullscreenenter"",""0"",""2334""
","
",433.25999996159226,<img style='border: 4px solid darkgrey;' src='img/tf1_52_M_ss3.jpeg'></img>,0,NA,exp,NA,1,<img src='img/tf1_52_T1_ss3_md.jpeg'></img>,0,FALSE,NA,sub106
NA,html-keyboard-response,121,172564,0.0-10.0-0.52,"""event"",""trial"",""time""
""fullscreenenter"",""0"",""2334""
","
","
","""event"",""trial"",""time""
""fullscreenenter"",""0"",""2334""
","
",null,"<div style=""font-size:60px;"">+</div>",NA,null,fixation,2020-06-21T02:13:45Z,NA,NA,NA,NA,NA,sub106
NA,mars-trial,122,173422,0.0-10.0-1.52,"""event"",""trial"",""time""
""fullscreenenter"",""0"",""2334""
","
","
","""event"",""trial"",""time""
""fullscreenenter"",""0"",""2334""
","
",252.92999995872378,<img style='border: 4px solid darkgrey;' src='img/tf1_53_M_ss1.jpeg'></img>,1,NA,exp,NA,2,<img src='img/tf1_53_T1_ss1_md.jpeg'></img>,0,FALSE,NA,sub106
NA,html-keyboard-response,123,173923,0.0-10.0-0.53,"""event"",""trial"",""time""
""fullscreenenter"",""0"",""2334""
","
","
","""event"",""trial"",""time""
""fullscreenenter"",""0"",""2334""
","
",null,"<div style=""font-size:60px;"">+</div>",NA,null,fixation,2020-06-21T02:13:46Z,NA,NA,NA,NA,NA,sub106
NA,mars-trial,124,174885,0.0-10.0-1.53,"""event"",""trial"",""time""
""fullscreenenter"",""0"",""2334""
","
","
","""event"",""trial"",""time""
""fullscreenenter"",""0"",""2334""
","
",356.36500001419336,<img style='border: 4px solid darkgrey;' src='img/tf1_54_M_ss2.jpeg'></img>,2,NA,exp,NA,1,<img src='img/tf1_54_T1_ss2_md.jpeg'></img>,0,FALSE,NA,sub106
NA,html-keyboard-response,125,175386,0.0-10.0-0.54,"""event"",""trial"",""time""
""fullscreenenter"",""0"",""2334""
","
","
","""event"",""trial"",""time""
""fullscreenenter"",""0"",""2334""
","
",null,"<div style=""font-size:60px;"">+</div>",NA,null,fixation,2020-06-21T02:13:48Z,NA,NA,NA,NA,NA,sub106
NA,mars-trial,126,176310,0.0-10.0-1.54,"""event"",""trial"",""time""
""fullscreenenter"",""0"",""2334""
","
","
","""event"",""trial"",""time""
""fullscreenenter"",""0"",""2334""
","
",319.5500000147149,<img style='border: 4px solid darkgrey;' src='img/tf1_55_M_ss3.jpeg'></img>,1,NA,exp,NA,1,<img src='img/tf1_55_T1_ss3_md.jpeg'></img>,0,FALSE,NA,sub106
NA,html-keyboard-response,127,176812,0.0-10.0-0.55,"""event"",""trial"",""time""
""fullscreenenter"",""0"",""2334""
","
","
","""event"",""trial"",""time""
""fullscreenenter"",""0"",""2334""
","
",null,"<div style=""font-size:60px;"">+</div>",NA,null,fixation,2020-06-21T02:13:49Z,NA,NA,NA,NA,NA,sub106
NA,mars-trial,128,177749,0.0-10.0-1.55,"""event"",""trial"",""time""
""fullscreenenter"",""0"",""2334""
","
","
","""event"",""trial"",""time""
""fullscreenenter"",""0"",""2334""
","
",331.85499999672174,<img style='border: 4px solid darkgrey;' src='img/tf1_56_M_ss1.jpeg'></img>,3,NA,exp,NA,1,<img src='img/tf1_56_T1_ss1_md.jpeg'></img>,0,FALSE,NA,sub106
NA,html-keyboard-response,129,178251,0.0-10.0-0.56,"""event"",""trial"",""time""
""fullscreenenter"",""0"",""2334""
","
","
","""event"",""trial"",""time""
""fullscreenenter"",""0"",""2334""
","
",null,"<div style=""font-size:60px;"">+</div>",NA,null,fixation,2020-06-21T02:13:51Z,NA,NA,NA,NA,NA,sub106
NA,mars-trial,130,179192,0.0-10.0-1.56,"""event"",""trial"",""time""
""fullscreenenter"",""0"",""2334""
","
","
","""event"",""trial"",""time""
""fullscreenenter"",""0"",""2334""
","
",337.0150000555441,<img style='border: 4px solid darkgrey;' src='img/tf1_57_M_ss2.jpeg'></img>,2,NA,exp,NA,2,<img src='img/tf1_57_T1_ss2_md.jpeg'></img>,0,FALSE,NA,sub106
NA,html-keyboard-response,131,179694,0.0-10.0-0.57,"""event"",""trial"",""time""
""fullscreenenter"",""0"",""2334""
","
","
","""event"",""trial"",""time""
""fullscreenenter"",""0"",""2334""
","
",null,"<div style=""font-size:60px;"">+</div>",NA,null,fixation,2020-06-21T02:13:52Z,NA,NA,NA,NA,NA,sub106
NA,mars-trial,132,180436,0.0-10.0-1.57,"""event"",""trial"",""time""
""fullscreenenter"",""0"",""2334""
","
","
","""event"",""trial"",""time""
""fullscreenenter"",""0"",""2334""
","
",137.28999998420477,<img style='border: 4px solid darkgrey;' src='img/tf1_58_M_ss3.jpeg'></img>,1,NA,exp,NA,2,<img src='img/tf1_58_T1_ss3_md.jpeg'></img>,0,FALSE,NA,sub106
NA,html-keyboard-response,133,180938,0.0-10.0-0.58,"""event"",""trial"",""time""
""fullscreenenter"",""0"",""2334""
","
","
","""event"",""trial"",""time""
""fullscreenenter"",""0"",""2334""
","
",null,"<div style=""font-size:60px;"">+</div>",NA,null,fixation,2020-06-21T02:13:53Z,NA,NA,NA,NA,NA,sub106
NA,mars-trial,134,182026,0.0-10.0-1.58,"""event"",""trial"",""time""
""fullscreenenter"",""0"",""2334""
","
","
","""event"",""trial"",""time""
""fullscreenenter"",""0"",""2334""
","
",484.6350000007078,<img style='border: 4px solid darkgrey;' src='img/tf1_59_M_ss1.jpeg'></img>,0,NA,exp,NA,0,<img src='img/tf1_59_T1_ss1_md.jpeg'></img>,0,TRUE,NA,sub106
NA,html-keyboard-response,135,182528,0.0-10.0-0.59,"""event"",""trial"",""time""
""fullscreenenter"",""0"",""2334""
","
","
","""event"",""trial"",""time""
""fullscreenenter"",""0"",""2334""
","
",null,"<div style=""font-size:60px;"">+</div>",NA,null,fixation,2020-06-21T02:13:55Z,NA,NA,NA,NA,NA,sub106
NA,mars-trial,136,183480,0.0-10.0-1.59,"""event"",""trial"",""time""
""fullscreenenter"",""0"",""2334""
","
","
","""event"",""trial"",""time""
""fullscreenenter"",""0"",""2334""
","
",348.6149999080226,<img style='border: 4px solid darkgrey;' src='img/tf1_60_M_ss2.jpeg'></img>,1,NA,exp,NA,1,<img src='img/tf1_60_T1_ss2_md.jpeg'></img>,0,FALSE,NA,sub106
NA,html-keyboard-response,137,183981,0.0-10.0-0.60,"""event"",""trial"",""time""
""fullscreenenter"",""0"",""2334""
","
","
","""event"",""trial"",""time""
""fullscreenenter"",""0"",""2334""
","
",null,"<div style=""font-size:60px;"">+</div>",NA,null,fixation,2020-06-21T02:13:56Z,NA,NA,NA,NA,NA,sub106
NA,mars-trial,138,184898,0.0-10.0-1.60,"""event"",""trial"",""time""
""fullscreenenter"",""0"",""2334""
","
","
","""event"",""trial"",""time""
""fullscreenenter"",""0"",""2334""
","
",312.33500002417713,<img style='border: 4px solid darkgrey;' src='img/tf1_61_M_ss3.jpeg'></img>,0,NA,exp,NA,0,<img src='img/tf1_61_T1_ss3_md.jpeg'></img>,0,TRUE,NA,sub106
NA,html-keyboard-response,139,185400,0.0-10.0-0.61,"""event"",""trial"",""time""
""fullscreenenter"",""0"",""2334""
","
","
","""event"",""trial"",""time""
""fullscreenenter"",""0"",""2334""
","
",null,"<div style=""font-size:60px;"">+</div>",NA,null,fixation,2020-06-21T02:13:58Z,NA,NA,NA,NA,NA,sub106
NA,mars-trial,140,186506,0.0-10.0-1.61,"""event"",""trial"",""time""
""fullscreenenter"",""0"",""2334""
","
","
","""event"",""trial"",""time""
""fullscreenenter"",""0"",""2334""
","
",503.0649999389425,<img style='border: 4px solid darkgrey;' src='img/tf1_62_M_ss1.jpeg'></img>,2,NA,exp,NA,1,<img src='img/tf1_62_T1_ss1_md.jpeg'></img>,0,FALSE,NA,sub106
NA,html-keyboard-response,141,187008,0.0-10.0-0.62,"""event"",""trial"",""time""
""fullscreenenter"",""0"",""2334""
","
","
","""event"",""trial"",""time""
""fullscreenenter"",""0"",""2334""
","
",null,"<div style=""font-size:60px;"">+</div>",NA,null,fixation,2020-06-21T02:13:59Z,NA,NA,NA,NA,NA,sub106
NA,mars-trial,142,187965,0.0-10.0-1.62,"""event"",""trial"",""time""
""fullscreenenter"",""0"",""2334""
","
","
","""event"",""trial"",""time""
""fullscreenenter"",""0"",""2334""
","
",351.43999999854714,<img style='border: 4px solid darkgrey;' src='img/tf1_63_M_ss2.jpeg'></img>,1,NA,exp,NA,0,<img src='img/tf1_63_T1_ss2_md.jpeg'></img>,0,TRUE,NA,sub106
NA,html-keyboard-response,143,188467,0.0-10.0-0.63,"""event"",""trial"",""time""
""fullscreenenter"",""0"",""2334""
","
","
","""event"",""trial"",""time""
""fullscreenenter"",""0"",""2334""
","
",null,"<div style=""font-size:60px;"">+</div>",NA,null,fixation,2020-06-21T02:14:01Z,NA,NA,NA,NA,NA,sub106
NA,mars-trial,144,189595,0.0-10.0-1.63,"""event"",""trial"",""time""
""fullscreenenter"",""0"",""2334""
","
","
","""event"",""trial"",""time""
""fullscreenenter"",""0"",""2334""
","
",523.2300000498071,<img style='border: 4px solid darkgrey;' src='img/tf1_64_M_ss3.jpeg'></img>,2,NA,exp,NA,0,<img src='img/tf1_64_T1_ss3_md.jpeg'></img>,0,TRUE,NA,sub106
NA,html-keyboard-response,145,190096,0.0-10.0-0.64,"""event"",""trial"",""time""
""fullscreenenter"",""0"",""2334""
","
","
","""event"",""trial"",""time""
""fullscreenenter"",""0"",""2334""
","
",null,"<div style=""font-size:60px;"">+</div>",NA,null,fixation,2020-06-21T02:14:02Z,NA,NA,NA,NA,NA,sub106
NA,mars-trial,146,191123,0.0-10.0-1.64,"""event"",""trial"",""time""
""fullscreenenter"",""0"",""2334""
","
","
","""event"",""trial"",""time""
""fullscreenenter"",""0"",""2334""
","
",422.5649998988956,<img style='border: 4px solid darkgrey;' src='img/tf1_65_M_ss1.jpeg'></img>,2,NA,exp,NA,2,<img src='img/tf1_65_T1_ss1_md.jpeg'></img>,0,FALSE,NA,sub106
NA,html-keyboard-response,147,191625,0.0-10.0-0.65,"""event"",""trial"",""time""
""fullscreenenter"",""0"",""2334""
","
","
","""event"",""trial"",""time""
""fullscreenenter"",""0"",""2334""
","
",null,"<div style=""font-size:60px;"">+</div>",NA,null,fixation,2020-06-21T02:14:04Z,NA,NA,NA,NA,NA,sub106
NA,mars-trial,148,192701,0.0-10.0-1.65,"""event"",""trial"",""time""
""fullscreenenter"",""0"",""2334""
","
","
","""event"",""trial"",""time""
""fullscreenenter"",""0"",""2334""
","
",470.8850000752136,<img style='border: 4px solid darkgrey;' src='img/tf1_66_M_ss2.jpeg'></img>,1,NA,exp,NA,0,<img src='img/tf1_66_T1_ss2_md.jpeg'></img>,0,TRUE,NA,sub106
NA,html-keyboard-response,149,193203,0.0-10.0-0.66,"""event"",""trial"",""time""
""fullscreenenter"",""0"",""2334""
","
","
","""event"",""trial"",""time""
""fullscreenenter"",""0"",""2334""
","
",null,"<div style=""font-size:60px;"">+</div>",NA,null,fixation,2020-06-21T02:14:06Z,NA,NA,NA,NA,NA,sub106
NA,mars-trial,150,194089,0.0-10.0-1.66,"""event"",""trial"",""time""
""fullscreenenter"",""0"",""2334""
","
","
","""event"",""trial"",""time""
""fullscreenenter"",""0"",""2334""
","
",280.460000038147,<img style='border: 4px solid darkgrey;' src='img/tf1_67_M_ss3.jpeg'></img>,2,NA,exp,NA,3,<img src='img/tf1_67_T1_ss3_md.jpeg'></img>,0,FALSE,NA,sub106
NA,html-keyboard-response,151,194590,0.0-10.0-0.67,"""event"",""trial"",""time""
""fullscreenenter"",""0"",""2334""
","
","
","""event"",""trial"",""time""
""fullscreenenter"",""0"",""2334""
","
",null,"<div style=""font-size:60px;"">+</div>",NA,null,fixation,2020-06-21T02:14:07Z,NA,NA,NA,NA,NA,sub106
NA,mars-trial,152,195532,0.0-10.0-1.67,"""event"",""trial"",""time""
""fullscreenenter"",""0"",""2334""
","
","
","""event"",""trial"",""time""
""fullscreenenter"",""0"",""2334""
","
",337.5199999427423,<img style='border: 4px solid darkgrey;' src='img/tf1_68_M_ss1.jpeg'></img>,1,NA,exp,NA,2,<img src='img/tf1_68_T1_ss1_md.jpeg'></img>,0,FALSE,NA,sub106
NA,html-keyboard-response,153,196034,0.0-10.0-0.68,"""event"",""trial"",""time""
""fullscreenenter"",""0"",""2334""
","
","
","""event"",""trial"",""time""
""fullscreenenter"",""0"",""2334""
","
",null,"<div style=""font-size:60px;"">+</div>",NA,null,fixation,2020-06-21T02:14:08Z,NA,NA,NA,NA,NA,sub106
NA,mars-trial,154,197169,0.0-10.0-1.68,"""event"",""trial"",""time""
""fullscreenenter"",""0"",""2334""
","
","
","""event"",""trial"",""time""
""fullscreenenter"",""0"",""2334""
","
",530.1800000015646,<img style='border: 4px solid darkgrey;' src='img/tf1_69_M_ss2.jpeg'></img>,2,NA,exp,NA,2,<img src='img/tf1_69_T1_ss2_md.jpeg'></img>,0,FALSE,NA,sub106
NA,html-keyboard-response,155,197671,0.0-10.0-0.69,"""event"",""trial"",""time""
""fullscreenenter"",""0"",""2334""
","
","
","""event"",""trial"",""time""
""fullscreenenter"",""0"",""2334""
","
",null,"<div style=""font-size:60px;"">+</div>",NA,null,fixation,2020-06-21T02:14:10Z,NA,NA,NA,NA,NA,sub106
NA,mars-trial,156,198738,0.0-10.0-1.69,"""event"",""trial"",""time""
""fullscreenenter"",""0"",""2334""
","
","
","""event"",""trial"",""time""
""fullscreenenter"",""0"",""2334""
","
",463.78999995067716,<img style='border: 4px solid darkgrey;' src='img/tf1_70_M_ss3.jpeg'></img>,3,NA,exp,NA,3,<img src='img/tf1_70_T1_ss3_md.jpeg'></img>,0,FALSE,NA,sub106
NA,html-keyboard-response,157,199241,0.0-10.0-0.70,"""event"",""trial"",""time""
""fullscreenenter"",""0"",""2334""
","
","
","""event"",""trial"",""time""
""fullscreenenter"",""0"",""2334""
","
",null,"<div style=""font-size:60px;"">+</div>",NA,null,fixation,2020-06-21T02:14:12Z,NA,NA,NA,NA,NA,sub106
NA,mars-trial,158,200251,0.0-10.0-1.70,"""event"",""trial"",""time""
""fullscreenenter"",""0"",""2334""
","
","
","""event"",""trial"",""time""
""fullscreenenter"",""0"",""2334""
","
",405.7899999897927,<img style='border: 4px solid darkgrey;' src='img/tf1_71_M_ss1.jpeg'></img>,2,NA,exp,NA,3,<img src='img/tf1_71_T1_ss1_md.jpeg'></img>,0,FALSE,NA,sub106
NA,html-keyboard-response,159,200752,0.0-10.0-0.71,"""event"",""trial"",""time""
""fullscreenenter"",""0"",""2334""
","
","
","""event"",""trial"",""time""
""fullscreenenter"",""0"",""2334""
","
",null,"<div style=""font-size:60px;"">+</div>",NA,null,fixation,2020-06-21T02:14:13Z,NA,NA,NA,NA,NA,sub106
NA,mars-trial,160,201603,0.0-10.0-1.71,"""event"",""trial"",""time""
""fullscreenenter"",""0"",""2334""
","
","
","""event"",""trial"",""time""
""fullscreenenter"",""0"",""2334""
","
",245.72499992791563,<img style='border: 4px solid darkgrey;' src='img/tf1_72_M_ss2.jpeg'></img>,2,NA,exp,NA,3,<img src='img/tf1_72_T1_ss2_md.jpeg'></img>,0,FALSE,NA,sub106
NA,html-keyboard-response,161,202105,0.0-10.0-0.72,"""event"",""trial"",""time""
""fullscreenenter"",""0"",""2334""
","
","
","""event"",""trial"",""time""
""fullscreenenter"",""0"",""2334""
","
",null,"<div style=""font-size:60px;"">+</div>",NA,null,fixation,2020-06-21T02:14:14Z,NA,NA,NA,NA,NA,sub106
NA,mars-trial,162,203107,0.0-10.0-1.72,"""event"",""trial"",""time""
""fullscreenenter"",""0"",""2334""
","
","
","""event"",""trial"",""time""
""fullscreenenter"",""0"",""2334""
","
",396.8499999027699,<img style='border: 4px solid darkgrey;' src='img/tf1_73_M_ss3.jpeg'></img>,1,NA,exp,NA,0,<img src='img/tf1_73_T1_ss3_md.jpeg'></img>,0,TRUE,NA,sub106
NA,html-keyboard-response,163,203609,0.0-10.0-0.73,"""event"",""trial"",""time""
""fullscreenenter"",""0"",""2334""
","
","
","""event"",""trial"",""time""
""fullscreenenter"",""0"",""2334""
","
",null,"<div style=""font-size:60px;"">+</div>",NA,null,fixation,2020-06-21T02:14:16Z,NA,NA,NA,NA,NA,sub106
NA,mars-trial,164,204842,0.0-10.0-1.73,"""event"",""trial"",""time""
""fullscreenenter"",""0"",""2334""
","
","
","""event"",""trial"",""time""
""fullscreenenter"",""0"",""2334""
","
",628.9600000018254,<img style='border: 4px solid darkgrey;' src='img/tf1_74_M_ss1.jpeg'></img>,1,NA,exp,NA,0,<img src='img/tf1_74_T1_ss1_md.jpeg'></img>,0,TRUE,NA,sub106
NA,html-keyboard-response,165,205344,0.0-10.0-0.74,"""event"",""trial"",""time""
""fullscreenenter"",""0"",""2334""
","
","
","""event"",""trial"",""time""
""fullscreenenter"",""0"",""2334""
","
",null,"<div style=""font-size:60px;"">+</div>",NA,null,fixation,2020-06-21T02:14:18Z,NA,NA,NA,NA,NA,sub106
NA,mars-trial,166,206309,0.0-10.0-1.74,"""event"",""trial"",""time""
""fullscreenenter"",""0"",""2334""
","
","
","""event"",""trial"",""time""
""fullscreenenter"",""0"",""2334""
","
",360.7849999098107,<img style='border: 4px solid darkgrey;' src='img/tf1_75_M_ss2.jpeg'></img>,1,NA,exp,NA,2,<img src='img/tf1_75_T1_ss2_md.jpeg'></img>,0,FALSE,NA,sub106
NA,html-keyboard-response,167,206810,0.0-10.0-0.75,"""event"",""trial"",""time""
""fullscreenenter"",""0"",""2334""
","
","
","""event"",""trial"",""time""
""fullscreenenter"",""0"",""2334""
","
",null,"<div style=""font-size:60px;"">+</div>",NA,null,fixation,2020-06-21T02:14:19Z,NA,NA,NA,NA,NA,sub106
NA,mars-trial,168,207801,0.0-10.0-1.75,"""event"",""trial"",""time""
""fullscreenenter"",""0"",""2334""
","
","
","""event"",""trial"",""time""
""fullscreenenter"",""0"",""2334""
","
",384.91000002250075,<img style='border: 4px solid darkgrey;' src='img/tf1_76_M_ss3.jpeg'></img>,1,NA,exp,NA,0,<img src='img/tf1_76_T1_ss3_md.jpeg'></img>,0,TRUE,NA,sub106
NA,html-keyboard-response,169,208302,0.0-10.0-0.76,"""event"",""trial"",""time""
""fullscreenenter"",""0"",""2334""
","
","
","""event"",""trial"",""time""
""fullscreenenter"",""0"",""2334""
","
",null,"<div style=""font-size:60px;"">+</div>",NA,null,fixation,2020-06-21T02:14:21Z,NA,NA,NA,NA,NA,sub106
NA,mars-trial,170,209272,0.0-10.0-1.76,"""event"",""trial"",""time""
""fullscreenenter"",""0"",""2334""
","
","
","""event"",""trial"",""time""
""fullscreenenter"",""0"",""2334""
","
",365.9749999642372,<img style='border: 4px solid darkgrey;' src='img/tf1_77_M_ss1.jpeg'></img>,1,NA,exp,NA,3,<img src='img/tf1_77_T1_ss1_md.jpeg'></img>,0,FALSE,NA,sub106
NA,html-keyboard-response,171,209774,0.0-10.0-0.77,"""event"",""trial"",""time""
""fullscreenenter"",""0"",""2334""
","
","
","""event"",""trial"",""time""
""fullscreenenter"",""0"",""2334""
","
",null,"<div style=""font-size:60px;"">+</div>",NA,null,fixation,2020-06-21T02:14:22Z,NA,NA,NA,NA,NA,sub106
NA,mars-trial,172,211105,0.0-10.0-1.77,"""event"",""trial"",""time""
""fullscreenenter"",""0"",""2334""
","
","
","""event"",""trial"",""time""
""fullscreenenter"",""0"",""2334""
","
",725.8950000395998,<img style='border: 4px solid darkgrey;' src='img/tf1_78_M_ss2.jpeg'></img>,1,NA,exp,NA,2,<img src='img/tf1_78_T1_ss2_md.jpeg'></img>,0,FALSE,NA,sub106
NA,html-keyboard-response,173,211606,0.0-10.0-0.78,"""event"",""trial"",""time""
""fullscreenenter"",""0"",""2334""
","
","
","""event"",""trial"",""time""
""fullscreenenter"",""0"",""2334""
","
",null,"<div style=""font-size:60px;"">+</div>",NA,null,fixation,2020-06-21T02:14:24Z,NA,NA,NA,NA,NA,sub106
NA,mars-trial,174,212624,0.0-10.0-1.78,"""event"",""trial"",""time""
""fullscreenenter"",""0"",""2334""
","
","
","""event"",""trial"",""time""
""fullscreenenter"",""0"",""2334""
","
",413.6849999194965,<img style='border: 4px solid darkgrey;' src='img/tf1_79_M_ss3.jpeg'></img>,2,NA,exp,NA,1,<img src='img/tf1_79_T1_ss3_md.jpeg'></img>,0,FALSE,NA,sub106
NA,html-keyboard-response,175,213126,0.0-10.0-0.79,"""event"",""trial"",""time""
""fullscreenenter"",""0"",""2334""
","
","
","""event"",""trial"",""time""
""fullscreenenter"",""0"",""2334""
","
",null,"<div style=""font-size:60px;"">+</div>",NA,null,fixation,2020-06-21T02:14:25Z,NA,NA,NA,NA,NA,sub106
NA,mars-trial,176,214168,0.0-10.0-1.79,"""event"",""trial"",""time""
""fullscreenenter"",""0"",""2334""
","
","
","""event"",""trial"",""time""
""fullscreenenter"",""0"",""2334""
","
",437.2750000329688,<img style='border: 4px solid darkgrey;' src='img/tf1_80_M_ss1.jpeg'></img>,2,NA,exp,NA,1,<img src='img/tf1_80_T1_ss1_md.jpeg'></img>,0,FALSE,NA,sub106
NA,audio-button-response,177,217102,0.0-11.0,"""event"",""trial"",""time""
""fullscreenenter"",""0"",""2334""
","
","
","""event"",""trial"",""time""
""fullscreenenter"",""0"",""2334""
","
",2932.440000004135,audio/mars_instructions_slide5.wav,0,NA,NA,NA,NA,NA,NA,NA,NA,sub106
