subject_id,practice_trial,trial,transition,reward,choice_1,choice_2,rt_1,rt_2,state
sub1,real,1,common,1,1,1,1131.4799999818206,1457.620000001043,2
sub1,real,2,common,0,1,1,638.9999999664724,483.5899998433888,2
sub1,real,3,rare,0,2,1,264.19000001624227,718.1949999649078,2
sub1,real,4,common,1,2,2,302.26499983109534,1507.2250000666827,3
sub1,real,5,rare,1,2,2,321.68499985709786,1751.1950000189245,2
sub1,real,6,rare,0,1,2,267.4899999983609,1042.6900000311434,3
sub1,real,7,common,0,1,1,17.32999994419515,432.2399999946356,2
sub1,real,8,common,0,2,1,312.28499999269843,1247.9650001041591,3
sub1,real,9,common,1,1,2,281.8799999076873,1098.699999973178,2
sub1,real,10,common,1,1,2,263.55000003241,554.3850001413375,2
sub1,real,11,rare,0,1,2,433.8150001130998,1334.8600000608712,3
sub1,real,12,common,0,1,2,352.5000000372529,753.2200000714511,2
sub1,real,13,rare,0,2,2,541.8599999975413,1374.0049998741597,2
sub1,real,14,common,0,1,1,273.30999984405935,1316.530000185594,2
sub1,real,15,common,0,2,2,321.76500000059605,1042.0050001703203,3
sub1,real,16,common,0,2,1,277.765000006184,622.1099998801947,3
sub1,real,17,common,1,1,2,404.8149997834116,758.0500000622123,2
sub1,real,18,common,0,1,2,309.8649999592453,473.93500013276935,2
sub1,real,19,common,0,1,1,308.930000057444,478.0899998731911,2
sub1,real,20,common,0,1,2,277.8900000266731,422.34999989159405,2
sub1,real,21,common,1,2,2,722.150000045076,925.6049999967217,3
sub1,real,22,rare,1,2,2,438.6400000657886,551.1799999512732,2
sub1,real,23,common,0,2,2,547.9150000028312,547.8550000116229,3
sub1,real,24,common,0,1,2,282.6050000730902,475.1299999188632,2
sub1,real,25,common,1,2,2,422.9399999603629,325.4999998025596,3
sub1,real,26,common,1,2,2,284.41000008024275,381.8099999334663,3
sub1,real,27,rare,1,1,2,307.5749999843538,301.41500011086464,3
sub1,real,28,rare,1,2,2,261.6900000721216,789.2700000666082,2
sub1,real,29,common,1,1,2,315.8050000201911,579.9349998123944,2
sub1,real,30,common,0,1,2,258.75500007532537,386.83999981731176,2
sub1,real,31,common,1,2,2,265.54500008933246,448.43999994918704,3
sub1,real,32,rare,0,2,2,263.52500007487833,360.70499988272786,2
sub1,real,33,rare,0,1,2,1269.4900000933558,340.0099999271333,3
sub1,real,34,common,0,1,2,331.5050001256168,404.27000005729496,2
sub1,real,35,common,0,2,2,843.2550001889467,472.22999995574355,3
sub1,real,36,rare,1,1,2,29.229999985545874,332.16500002890825,3
sub1,real,37,common,1,1,2,504.8149998765439,831.7399998195469,2
sub1,real,38,rare,1,1,2,268.92500021494925,405.9750000014901,3
sub1,real,39,rare,0,1,2,364.2550001386553,508.34499998018146,3
sub1,real,40,common,1,1,2,291.3200000766665,627.1949999500066,2
sub1,real,41,common,0,1,2,142.73000019602478,355.77999986708164,2
sub1,real,42,common,0,1,2,816.080000018701,440.35499985329807,2
sub1,real,43,rare,1,2,2,276.20500000193715,274.34500004164875,2
sub1,real,44,common,0,2,2,308.3399999886751,613.7650001328439,3
sub1,real,45,common,0,1,2,423.5000000335276,683.1749998964369,2
sub1,real,46,common,1,2,2,535.3649999015033,423.4449998475611,3
sub1,real,47,common,1,1,2,344.0849999897182,389.5799999590963,2
sub1,real,48,common,1,1,2,362.4849999323487,375.7949999999255,2
sub1,real,49,rare,0,1,2,284.57999997772276,421.7699998989701,3
sub1,real,50,common,1,2,2,317.85500003024936,857.5800000689924,3
sub1,real,51,rare,0,2,2,955.9400000143796,511.5200001746416,2
sub1,real,52,common,1,2,2,527.4400000926107,587.9250001162291,3
sub1,real,53,rare,0,2,1,318.60000011511147,1221.129999961704,2
sub1,real,54,rare,1,1,2,611.5699999500066,350.73000006377697,3
sub1,real,55,common,1,2,2,390.54000005126,336.6150001529604,3
sub1,real,56,rare,0,2,2,533.2799998577684,940.1750001125038,2
sub1,real,57,common,0,2,2,461.60499984398484,612.6200000289828,3
sub1,real,58,common,0,1,2,296.99499998241663,35.685000009834766,2
sub1,real,59,common,1,2,2,308.54499991983175,280.060000019148,3
sub1,real,60,common,0,2,2,385.72999997995794,386.9349998421967,3
sub1,real,61,rare,1,2,2,275.11500008404255,297.6600001566112,2
sub1,real,62,rare,1,2,2,300.9949999395758,394.05500004068017,2
sub1,real,63,rare,1,2,2,367.1499998308718,280.23499995470047,2
sub1,real,64,common,0,2,2,331.03500003926456,1070.6899999640882,3
sub1,real,65,common,0,1,2,286.6650000214577,359.5699998550117,2
sub1,real,66,common,0,2,2,323.5049999784678,364.1800000332296,3
sub1,real,67,common,1,2,2,459.2450000345707,346.5749998576939,3
sub1,real,68,rare,0,2,2,335.74000000953674,518.9000000245869,2
sub1,real,69,common,0,1,1,214.7499998100102,776.4649998862296,2
sub1,real,70,common,1,2,2,867.7300000563264,339.2649998422712,3
sub1,real,71,rare,0,2,2,622.3549998831004,704.3749999720603,2
sub1,real,72,common,1,2,2,334.6150000579655,611.6100000217557,3
sub1,real,73,common,0,2,2,303.94999985583127,332.5149999000132,3
sub1,real,74,rare,0,2,2,1095.9749999456108,361.03500006720424,2
sub1,real,75,rare,1,1,2,590.0099999271333,762.2950000222772,3
sub1,real,76,common,1,1,2,431.370000122115,859.1750001069158,2
sub1,real,77,common,1,2,2,908.0650000832975,540.8199999947101,3
sub1,real,78,common,0,2,2,310.8850000426173,392.214999999851,3
sub1,real,79,common,1,2,2,326.89999998547137,373.579999897629,3
sub1,real,80,rare,0,2,2,349.22000020742416,776.0350001044571,2
sub1,real,81,rare,0,2,2,350.67999991588295,407.15500013902783,2
sub1,real,82,rare,0,1,2,386.8050000164658,653.4899999387562,3
sub1,real,83,common,1,2,2,294.8900000192225,645.8899998106062,3
sub1,real,84,rare,0,2,2,1984.1299999970943,641.4550000336021,2
sub1,real,85,common,0,1,2,266.9150000438094,490.25000003166497,2
sub1,real,86,rare,0,1,1,700.2549997996539,443.7600001692772,3
sub1,real,87,common,0,2,1,510.49500005319715,428.8999999407679,3
sub1,real,88,common,0,2,2,391.49999991059303,426.19000002741814,3
sub1,real,89,common,1,1,2,162.830000044778,361.8700001388788,2
sub1,real,90,common,0,1,2,260.1099999155849,341.70000022277236,2
sub1,real,91,common,0,1,2,266.1349999252707,345.11999995447695,2
sub1,real,92,common,0,2,2,329.3649998959154,502.1050001960248,3
sub1,real,93,common,0,2,2,560.7949998229742,586.5700000431389,3
sub1,real,94,rare,0,2,1,363.79499989561737,279.5250001363456,2
sub1,real,95,common,0,2,2,393.8400000333786,409.85499997623265,3
sub1,real,96,rare,1,1,2,318.4199999086559,585.5350000783801,3
sub1,real,97,common,1,1,2,264.02000011876225,671.4200000278652,2
sub1,real,98,common,1,1,2,305.4599999450147,375.97499997355044,2
sub1,real,99,rare,0,1,2,569.3900000769645,453.07000004686415,3
sub1,real,100,common,0,2,2,370.060000102967,449.8250000178814,3
sub1,real,101,common,1,1,2,930.0800000783056,408.1250000745058,2
sub1,real,102,common,0,1,2,406.59000002779067,537.779999896884,2
sub1,real,103,common,0,2,2,541.1099998746067,576.935000019148,3
sub1,real,104,rare,0,1,2,299.654999980703,482.48000000603497,3
sub1,real,105,common,0,1,2,364.1049999278039,422.78000013902783,2
sub1,real,106,rare,1,2,2,412.63499995693564,313.70999990031123,2
sub1,real,107,common,1,2,2,330.1349999383092,685.7799999415874,3
sub1,real,108,common,1,1,2,408.0650000832975,500.9700001683086,2
sub1,real,109,rare,1,1,2,32.06499991938472,420.7349999342114,3
sub1,real,110,common,1,1,2,432.2150000371039,292.45500010438263,2
sub1,real,111,common,1,1,2,599.3500000331551,399.7349999845028,2
sub1,real,112,common,0,2,2,347.97500004060566,329.76000010967255,3
sub1,real,113,rare,1,1,2,103.39999990537763,594.8699999134988,3
sub1,real,114,common,0,1,2,21.004999987781048,286.3000000361353,2
sub1,real,115,rare,1,1,2,364.50499994680285,467.65999984927475,3
sub1,real,116,common,0,2,2,175.64000003039837,437.7599998842925,3
sub1,real,117,common,1,1,2,358.38000010699034,354.4099999126047,2
sub1,real,118,common,1,1,2,249.99499996192753,458.3000000566244,2
sub1,real,119,common,0,1,2,241.6699999012053,455.13000013306737,2
sub1,real,120,common,1,2,2,387.73999991826713,308.07500006631017,3
sub1,real,121,rare,1,2,2,262.6600000075996,506.98999990709126,2
sub1,real,122,common,1,1,2,240.385000128299,322.87999987602234,2
sub1,real,123,common,0,1,2,35.74500000104308,406.2650001142174,2
sub1,real,124,common,0,2,2,2672.9749999940395,955.0999999046326,3
sub1,real,125,common,1,1,2,100.31500016339123,376.09999999403954,2
sub1,real,126,common,0,1,2,257.54000013694167,269.7550000157207,2
sub1,real,127,common,1,1,2,251.70000013895333,405.9199998155236,2
sub1,real,128,common,0,1,2,321.54500018805265,392.2749999910593,2
sub1,real,129,common,0,2,2,355.9900000691414,493.11999999918044,3
sub1,real,130,common,0,1,2,716.3400000426918,269.20000021345913,2
sub1,real,131,rare,1,2,2,283.34500011987984,546.0399999283254,2
sub1,real,132,common,1,1,2,836.7550000548363,466.4749999064952,2
sub1,real,133,rare,0,1,2,933.2449999637902,509.3549999874085,3
sub1,real,134,common,1,1,2,674.2749998811632,572.3549998365343,2
sub1,real,135,common,1,1,2,466.1699999123812,443.37500003166497,2
sub1,real,136,common,1,1,2,555.7900001294911,364.9450000375509,2
sub1,real,137,common,0,1,2,453.0750000849366,584.7199999261647,2
sub1,real,138,common,0,2,2,282.20999985933304,791.7750000488013,3
sub1,real,139,common,1,1,2,167.79499989934266,435.6499998830259,2
sub1,real,140,common,1,1,2,256.1149999964982,387.8850000910461,2
sub1,real,141,common,1,1,2,280.765000032261,341.0750001203269,2
sub1,real,142,common,1,1,2,345.1549999881536,449.54499998129904,2
sub1,real,143,common,1,1,2,225.0700001604855,385.63999999314547,2
sub1,real,144,common,1,1,2,294.06500002369285,469.1200000233948,2
sub1,real,145,rare,0,1,2,393.03999999538064,890.2499999385327,3
sub1,real,146,common,1,1,2,10.590000078082085,446.95000001229346,2
sub1,real,147,common,0,1,2,259.97999985702336,410.4349999688566,2
sub1,real,148,common,1,1,2,210.02999995835125,536.324999993667,2
sub1,real,149,common,0,1,2,292.8299999330193,383.05499986745417,2
sub1,real,150,rare,1,2,2,267.4899999983609,458.1400000024587,2
sub1,real,151,common,1,1,2,524.0299999713898,296.875,2
sub1,real,152,rare,0,1,2,235.0699999369681,364.5599998999387,3
sub1,real,153,rare,1,1,2,189.09500003792346,372.0549999270588,3
sub1,real,154,common,1,1,2,262.97500007785857,458.56000017374754,2
sub1,real,155,common,0,1,2,301.1100001167506,595.90999991633,2
sub1,real,156,rare,0,1,2,325.7200000807643,401.5949999447912,3
sub1,real,157,common,1,2,2,370.3950000926852,493.8149999361485,3
sub1,real,158,common,0,1,2,2530.385000165552,437.6499999780208,2
sub1,real,159,rare,1,2,2,251.15999998524785,394.7950000874698,2
sub1,real,160,rare,1,1,2,289.8399999830872,699.1500000003725,3
sub1,real,161,common,0,2,2,385.5050001293421,1097.6099998224527,3
sub1,real,162,rare,1,1,2,292.6149999257177,372.535000089556,3
sub1,real,163,common,0,1,2,1137.8200000617653,539.5850001368672,2
sub1,real,164,rare,1,1,2,665.2799998410046,319.04500001110137,3
sub1,real,165,common,1,1,2,606.2149999197572,1572.1899999771267,2
sub1,real,166,common,1,2,2,545.1950000133365,663.4649999905378,3
sub1,real,167,common,1,2,2,253.09500005096197,286.894999910146,3
sub1,real,168,common,0,2,2,268.489999929443,427.6699998881668,3
sub1,real,169,common,0,1,2,273.3299999963492,350.61000008136034,2
sub1,real,170,common,1,2,2,292.54000005312264,318.6300001107156,3
sub1,real,171,rare,0,2,2,277.0649997983128,458.0399999395013,2
sub1,real,172,common,0,2,2,247.96499987132847,361.9399999734014,3
sub1,real,173,rare,1,2,2,338.32000009715557,362.5399998854846,2
sub1,real,174,common,1,1,2,48.7750000320375,412.2000001370907,2
sub1,real,175,common,0,1,2,346.43000015057623,548.6799997743219,2
sub1,real,176,common,1,2,2,273.6949999816716,390.7149999868125,3
sub1,real,177,common,1,2,2,261.5800001658499,429.2099999729544,3
sub1,real,178,common,0,2,2,348.255000077188,380.1750000566244,3
sub1,real,179,common,0,1,2,321.50500011630356,344.76500004529953,2
sub1,real,180,common,1,2,2,349.54000008292496,411.42000001855195,3
sub1,real,181,common,1,2,2,201.42500009387732,388.9250000938773,3
sub1,real,182,rare,1,2,2,362.4299999792129,493.59999992884696,2
sub1,real,183,common,1,2,2,329.4899999164045,688.9800000935793,3
sub1,real,184,common,1,2,2,298.4849999193102,347.5050001870841,3
sub1,real,185,common,0,2,2,449.5500000193715,496.1450002156198,3
sub1,real,186,rare,0,1,2,363.9549999497831,352.0800000987947,3
sub1,real,187,common,1,1,2,359.94999995455146,461.57000004313886,2
sub1,real,188,common,1,1,2,319.78000001981854,468.9100000541657,2
sub1,real,189,common,0,1,2,378.8250000216067,518.7900001183152,2
sub1,real,190,common,0,2,2,522.2950000315905,560.4650001041591,3
sub1,real,191,rare,0,2,2,382.3450000490993,395.7499999087304,2
sub1,real,192,common,0,1,2,331.3400000333786,407.24000008776784,2
sub1,real,193,common,1,2,2,458.1349999643862,305.74500001966953,3
sub1,real,194,rare,0,2,2,234.95499999262393,288.8599999714643,2
sub1,real,195,common,0,2,2,291.884999955073,467.475000070408,3
sub1,real,196,common,1,1,1,200.1449998933822,249.79500006884336,2
sub1,real,197,rare,1,1,1,279.08500004559755,373.58999997377396,3
sub1,real,198,common,1,1,1,51.02499993517995,362.1300000231713,2
sub1,real,199,rare,0,1,1,411.5300001576543,631.3000000081956,3
sub1,real,200,common,0,1,1,268.8300001900643,420.21000012755394,2
sub10,real,1,common,0,2,1,1992.9999999585561,1931.4049999811687,3
sub10,real,2,common,1,2,2,762.7499999944121,1203.754999965895,3
sub10,real,3,common,0,1,1,750.0200000358745,1319.5399999967776,2
sub10,real,4,common,1,1,2,670.6549999653362,1023.1000000494532,2
sub10,real,5,common,1,1,2,942.1050000237301,687.6800000318326,2
sub10,real,6,common,1,2,2,601.0050000040792,868.4900000225753,3
sub10,real,7,common,1,1,2,580.8299999916926,659.734999993816,2
sub10,real,8,common,1,2,2,586.3949999911711,801.5049999812618,3
sub10,real,9,rare,0,2,2,800.725000037346,1659.3700000084937,2
sub10,real,10,common,1,1,2,724.1700000013225,862.8649999736808,2
sub10,real,11,rare,0,2,1,902.8849999886006,3238.8450000435114,2
sub10,real,12,common,1,1,1,433.90999996336177,917.4249999923632,2
sub10,real,13,common,1,2,2,605.2949999575503,558.7750000413507,3
sub10,real,14,common,1,1,2,1105.2949999575503,522.1350000356324,2
sub10,real,15,rare,1,2,1,468.13499997369945,1722.4449999630451,2
sub10,real,16,common,0,1,2,554.5249999850057,1993.6849999940023,2
sub10,real,17,common,0,2,2,452.980000001844,745.4649999854155,3
sub10,real,18,common,1,1,1,649.0350000094622,601.0750000132248,2
sub10,real,19,rare,1,2,1,600.4599999869242,951.3949999818578,2
sub10,real,20,common,1,2,2,1687.4199999729171,503.9799999794923,3
sub10,real,21,rare,1,1,1,518.4100000187755,1496.3749999878928,3
sub10,real,22,common,0,1,1,895.9000000031665,767.6199999987148,2
sub10,real,23,common,1,1,2,943.2600000291131,665.7899999991059,2
sub10,real,24,rare,0,2,1,461.07999997911975,963.1899999803863,2
sub10,real,25,common,0,2,2,945.2349999919534,755.170000018552,3
sub10,real,26,common,1,1,1,626.5250000287779,1123.665000020992,2
sub10,real,27,common,1,2,1,546.4650000212714,609.1050000395626,3
sub10,real,28,rare,0,1,1,573.1050000176765,411.68499999912456,3
sub10,real,29,common,1,2,1,57.28499998804182,947.6900000008754,3
sub10,real,30,rare,1,1,1,757.210000010673,514.8549999576062,3
sub10,real,31,rare,0,2,1,677.3350000148639,791.1849999800324,2
sub10,real,32,common,0,1,1,1475.1450000330806,1416.8599999975413,2
sub10,real,33,common,1,1,2,513.6599999968894,441.89000001642853,2
sub10,real,34,common,1,2,2,584.8600000026636,476.03499999968335,3
sub10,real,35,common,0,1,2,427.2800000035204,564.7949999547563,2
sub10,real,36,common,1,2,2,503.52500000735745,619.1150000086054,3
sub10,real,37,common,0,1,1,547.8250000160187,572.0749999745749,2
sub10,real,38,rare,1,1,2,667.955000011716,657.5300000258721,3
sub10,real,39,common,1,1,2,605.9099999838509,583.9799999957904,2
sub10,real,40,rare,0,2,2,1585.2799999993294,468.85999996447936,2
sub10,real,41,common,1,2,2,750.9849999914877,437.73000000510365,3
sub10,real,42,rare,1,2,2,419.4650000426918,809.3950000475161,2
sub10,real,43,common,0,2,2,704.2749999673106,571.4300000108778,3
sub10,real,44,rare,1,1,2,592.5050000078045,898.9700000383891,3
sub10,real,45,common,1,2,2,671.8000000109896,597.0799999777228,3
sub10,real,46,common,1,2,2,864.9549999972805,892.2100000199862,3
sub10,real,47,common,1,1,2,582.6250000391155,472.1399999689311,2
sub10,real,48,rare,1,2,2,533.7750000180677,898.064999957569,2
sub10,real,49,common,1,1,2,497.77000001631677,956.2249999726191,2
sub10,real,50,common,1,2,2,346.1999999708496,504.88000002224,3
sub10,real,51,common,0,1,1,1401.804999972228,1096.384999982547,2
sub10,real,52,common,1,1,2,512.3749999911524,587.9149999818765,2
sub10,real,53,common,0,2,1,668.6399999889545,549.7750000213273,3
sub10,real,54,common,1,2,2,490.9500000067055,453.0699999886565,3
sub10,real,55,common,1,2,2,590.7550000119954,417.49000002164394,3
sub10,real,56,common,1,1,2,638.7250000261702,615.6649999902584,2
sub10,real,57,common,0,2,2,500.5300000193529,519.2650000099093,3
sub10,real,58,common,1,1,2,382.1150000439957,1213.6049999971874,2
sub10,real,59,common,1,2,1,1672.77499998454,1364.5350000006147,3
sub10,real,60,rare,0,1,1,1511.2349999835715,1301.4749999856576,3
sub10,real,61,common,1,2,1,1265.590000024531,621.1550000007264,3
sub10,real,62,common,1,1,2,1404.7000000136904,1235.4449999984354,2
sub10,real,63,common,0,2,1,1685.8449999708682,947.1449999837205,3
sub10,real,64,common,1,1,2,726.7850000062026,486.70000000856817,2
sub10,real,65,common,0,2,1,674.6900000143796,1169.2750000511296,3
sub10,real,66,common,1,1,2,1231.2650000094436,632.7550000278279,2
sub10,real,67,rare,1,2,2,442.8150000167079,779.4149999972433,2
sub10,real,68,rare,1,1,2,1128.995000035502,1493.799999996554,3
sub10,real,69,common,0,2,2,1428.9950000238605,1341.4149999734946,3
sub10,real,70,common,1,2,2,956.3600000110455,1364.8599999723956,3
sub10,real,71,common,0,2,1,2587.3849999625236,2054.9299999838695,3
sub10,real,72,common,1,2,2,2392.6800000481308,1250.9299999801442,3
sub10,real,73,common,0,1,2,1658.3899999968708,2241.9649999937974,2
sub10,real,74,common,0,2,1,1759.4399999943562,1403.4400000236928,3
sub10,real,75,common,1,2,2,1322.9799999971874,420.40000000270084,3
sub10,real,76,common,0,1,2,474.2499999701977,469.36500002630055,2
sub10,real,77,rare,0,1,2,462.59000001009554,1204.6050000353716,3
sub10,real,78,rare,0,1,1,558.0349999945611,1118.9800000283867,3
sub10,real,79,common,1,1,1,467.60500001255423,734.2600000556558,2
sub10,real,80,common,1,2,1,763.0450000287965,635.0000000093132,3
sub10,real,81,rare,0,1,1,480.0449999747798,599.3250000174157,3
sub10,real,82,common,1,1,1,662.6200000173412,800.5949999787845,2
sub10,real,83,common,0,2,1,551.1149999802001,652.5400000391528,3
sub10,real,84,common,1,2,2,388.9649999910034,482.9800000297837,3
sub10,real,85,common,0,1,1,562.0600000256673,456.18500001728535,2
sub10,real,86,rare,0,2,2,436.565000039991,518.5399999609217,2
sub10,real,87,common,0,2,2,687.0149999740534,598.9300000364892,3
sub10,real,88,common,1,1,1,417.37499996088445,765.3900000150315,2
sub10,real,89,rare,0,2,2,488.16000000806525,535.3400000021793,2
sub10,real,90,common,0,2,2,809.9899999797344,914.9350000079721,3
sub10,real,91,common,0,2,1,604.1349999723025,1371.5249999659136,3
sub10,real,92,rare,1,2,1,760.0349999847822,1722.7999999886379,2
sub10,real,93,rare,0,2,1,477.27000003214926,1622.090000018943,2
sub10,real,94,common,0,2,2,596.3249999913387,567.3700000043027,3
sub10,real,95,common,0,2,1,467.1749999979511,635.489999956917,3
sub10,real,96,common,0,2,2,381.56000000890344,602.6849999907427,3
sub10,real,97,common,0,2,1,660.3400000021793,426.18500004755333,3
sub10,real,98,rare,0,1,1,917.1499999938533,376.0650000185706,3
sub10,real,99,common,1,1,1,460.5699999956414,468.2499999762513,2
sub10,real,100,common,0,2,1,475.23500001989305,614.8600000306033,3
sub10,real,101,common,1,1,1,1628.8800000329502,471.94000001763925,2
sub10,real,102,common,0,1,2,465.48000001348555,483.5650000022724,2
sub10,real,103,common,1,1,1,645.8400000119582,482.86000004736707,2
sub10,real,104,rare,0,2,2,609.4699999666773,413.46999997040257,2
sub10,real,105,common,0,2,2,366.19500000961125,497.39999999292195,3
sub10,real,106,common,0,2,1,443.87999997707084,422.36500000581145,3
sub10,real,107,rare,0,2,2,467.6750000216998,453.62499996554106,2
sub10,real,108,rare,0,2,1,449.46500001242384,1215.8150000032037,2
sub10,real,109,common,0,2,1,627.390000037849,1237.3449999722652,3
sub10,real,110,rare,1,2,1,533.4550000261515,831.2399999704212,2
sub10,real,111,rare,1,2,1,578.4950000233948,897.7849999791943,2
sub10,real,112,common,1,2,2,674.8999999836087,1468.9249999937601,3
sub10,real,113,common,0,1,1,497.9499999899417,583.0100000021048,2
sub10,real,114,common,0,2,1,523.5700000193901,776.7900000326335,3
sub10,real,115,common,1,2,2,1285.0650000036694,666.1149999708869,3
sub10,real,116,common,1,1,1,519.3350000190549,467.5099999876693,2
sub10,real,117,common,1,2,2,702.7200000011362,619.6149999741465,3
sub10,real,118,common,0,1,1,450.32999996328726,485.86499999510124,2
sub10,real,119,common,1,2,2,420.4800000297837,497.92500003241,3
sub10,real,120,common,1,1,1,643.7549999682233,691.640000033658,2
sub10,real,121,rare,0,2,1,462.2249999665655,1180.4099999717437,2
sub10,real,122,common,1,2,2,830.5849999887869,1409.4849999528378,3
sub10,real,123,common,0,1,1,722.1650000428781,1455.1249999785796,2
sub10,real,124,common,0,2,2,544.0949999610893,1028.4399999654852,3
sub10,real,125,rare,1,1,1,970.5499999690801,989.8050000192598,3
sub10,real,126,rare,0,2,1,806.0849999892525,1223.7650000024587,2
sub10,real,127,rare,0,2,1,579.9750000005588,1380.524999985937,2
sub10,real,128,rare,0,1,1,1877.405000035651,1217.6149999722838,3
sub10,real,129,common,1,1,1,716.6250000009313,1194.3650000030175,2
sub10,real,130,rare,0,2,1,653.7950000492856,1300.2500000293367,2
sub10,real,131,rare,1,2,1,1060.5050000012852,883.144999970682,2
sub10,real,132,common,0,2,2,815.4499999945983,1444.5249999989755,3
sub10,real,133,common,1,1,1,795.0249999994412,892.4049999914132,2
sub10,real,134,common,0,2,2,930.7350000017323,789.3399999593385,3
sub10,real,135,rare,0,2,1,436.8949999916367,1274.12000001641,2
sub10,real,136,common,0,2,1,578.0249999952503,692.0699999900535,3
sub10,real,137,common,0,2,1,529.5599999953993,577.8000000282191,3
sub10,real,138,common,1,2,1,536.2250000471249,477.3750000167638,3
sub10,real,139,common,0,1,1,639.5200000260957,1261.949999956414,2
sub10,real,140,common,1,2,2,906.69999999227,1362.0149999624118,3
sub10,real,141,rare,1,1,2,519.365000014659,814.9649999686517,3
sub10,real,142,common,0,1,1,441.73000002047047,1217.7349999547005,2
sub10,real,143,common,0,1,1,568.8850000151433,676.1399999959394,2
sub10,real,144,rare,0,1,2,571.5849999687634,1296.9650000450201,3
sub10,real,145,common,1,1,2,581.5850000362843,511.3899999996647,2
sub10,real,146,common,1,2,1,783.0499999690801,733.7399999960326,3
sub10,real,147,rare,1,1,1,412.07999998005107,951.0250000166707,3
sub10,real,148,rare,1,1,2,605.1949999528006,963.0599999800324,3
sub10,real,149,rare,0,1,1,425.66499998793006,1280.4999999934807,3
sub10,real,150,rare,1,1,2,427.2449999698438,2189.4500000053085,3
sub10,real,151,common,1,1,1,1881.5150000154972,513.7600000016391,2
sub10,real,152,common,0,1,2,478.66500000236556,597.1649999846704,2
sub10,real,153,rare,1,1,2,436.4350000396371,1343.460000003688,3
sub10,real,154,common,1,2,1,462.9749999730848,799.959999974817,3
sub10,real,155,common,1,2,2,807.7650000341237,626.2899999856018,3
sub10,real,156,common,0,2,1,626.6449999529868,581.6750000230968,3
sub10,real,157,common,0,2,2,408.8449999690056,492.374999972526,3
sub10,real,158,rare,0,2,2,438.6850000009872,1664.310000021942,2
sub10,real,159,common,1,1,1,357.785000000149,415.86999996798113,2
sub10,real,160,rare,1,1,1,407.0699999574572,1244.3550000316463,3
sub10,real,161,common,1,1,1,826.375000004191,608.1250000279397,2
sub10,real,162,common,0,1,1,608.890000032261,591.6849999921396,2
sub10,real,163,common,1,1,2,547.7050000336021,448.4449999872595,2
sub10,real,164,common,1,2,1,403.2100000185892,475.05499998806044,3
sub10,real,165,common,0,1,2,361.06999998446554,505.63000002875924,2
sub10,real,166,rare,1,2,2,434.270000027027,996.0449999780394,2
sub10,real,167,common,0,2,1,492.4999999930151,606.6749999881722,3
sub10,real,168,rare,0,1,2,452.2399999550544,466.1049999995157,3
sub10,real,169,common,0,2,1,405.3100000019185,521.5300000272691,3
sub10,real,170,common,0,1,1,620.7099999883212,566.9000000343658,2
sub10,real,171,common,0,1,2,397.91499997954816,798.4350000042468,2
sub10,real,172,common,1,1,1,423.06500003905967,663.6050000088289,2
sub10,real,173,rare,1,2,1,346.34000004734844,1169.9899999657646,2
sub10,real,174,rare,1,2,1,389.74999997299165,900.4249999998137,2
sub10,real,175,common,0,2,2,366.80499999783933,701.4849999686703,3
sub10,real,176,common,1,2,1,353.4599999547936,487.7299999934621,3
sub10,real,177,common,0,2,1,602.2249999805354,433.1149999634363,3
sub10,real,178,rare,1,1,1,273.00499996636063,903.2400000141934,3
sub10,real,179,rare,1,1,1,359.9600000306964,557.6749999891035,3
sub10,real,180,rare,0,1,1,337.9049999639392,570.6249999930151,3
sub10,real,181,common,0,1,1,337.485000025481,584.6549999550916,2
sub10,real,182,common,0,1,2,474.26499996799976,478.049999976065,2
sub10,real,183,common,1,1,1,539.2400000127964,723.0400000116788,2
sub10,real,184,common,1,2,1,424.3600000045262,505.42500003939494,3
sub10,real,185,common,0,2,1,392.71499996539205,594.4000000017695,3
sub10,real,186,rare,1,2,1,401.5500000095926,828.3149999915622,2
sub10,real,187,rare,0,2,1,361.220000020694,746.3749999878928,2
sub10,real,188,common,0,2,1,386.15000003483146,670.685000019148,3
sub10,real,189,common,1,1,2,444.1549999755807,499.6000000392087,2
sub10,real,190,rare,1,2,2,437.15999997220933,769.0200000070035,2
sub10,real,191,common,0,1,2,380.91999996686354,457.24499999778345,2
sub10,real,192,common,1,1,2,629.7800000174902,565.1450000004843,2
sub10,real,193,common,1,2,2,705.8749999850988,451.9150000414811,3
sub10,real,194,common,1,1,2,672.6800000178628,471.3149999734014,2
sub10,real,195,common,0,2,2,425.9550000424497,637.1650000219233,3
sub10,real,196,common,1,1,2,262.95499998377636,461.39999997103587,2
sub10,real,197,common,1,1,2,440.15999999828637,697.6750000030734,2
sub10,real,198,common,1,1,2,492.65999998897314,490.36499997600913,2
sub10,real,199,common,1,2,2,751.1749999830499,656.7800000193529,3
sub10,real,200,rare,0,1,2,479.1599999880418,921.8299999483861,3
sub100,real,1,rare,1,1,2,1490.1050000007963,507.16499999910593,3
sub100,real,2,common,1,1,2,721.1050000005635,451.9350000008708,2
sub100,real,3,common,0,2,1,309.9599999986822,407.15500000072643,3
sub100,real,4,rare,0,2,1,470.39999999839347,370.0199999985052,2
sub100,real,5,common,0,1,2,386.5850000001956,499.2500000008149,2
sub100,real,6,common,1,1,2,360.98999999742955,329.8300000024028,2
sub100,real,7,common,1,1,2,561.9200000000419,441.7749999993248,2
sub100,real,8,common,1,1,2,418.4849999983562,263.9749999981141,2
sub100,real,9,rare,1,1,2,337.1049999987008,731.5200000011828,3
sub100,real,10,rare,1,1,2,31.975000001722947,368.5200000000186,3
sub100,real,11,common,1,1,2,53.30999999935739,272.95500000042375,2
sub100,real,12,common,1,1,2,589.5549999986542,485.4249999988824,2
sub100,real,13,rare,1,1,2,339.80000000155997,869.7799999973504,3
sub100,real,14,common,0,1,1,470.7349999989383,1204.685000000638,2
sub100,real,15,rare,1,1,2,421.45000000169966,242.6800000029616,3
sub100,real,16,common,1,1,2,873.6900000004098,810.4400000011083,2
sub100,real,17,common,1,1,2,925.5950000005541,334.05999999749474,2
sub100,real,18,common,1,1,2,147.2700000012992,739.1600000009639,2
sub100,real,19,common,1,1,2,278.3999999992084,406.3349999997299,2
sub100,real,20,common,1,1,1,1737.619999999879,494.21500000252854,2
sub100,real,21,common,0,1,2,467.97499999962747,12.05000000121072,2
sub100,real,22,rare,0,1,1,927.1649999973597,2205.0850000013597,3
sub100,real,23,rare,0,1,1,1063.1149999971967,1520.7799999988638,3
sub100,real,24,rare,1,2,1,349.6099999975413,322.0500000024913,2
sub100,real,25,common,1,1,2,451.36000000278,1274.7850000014296,2
sub100,real,26,common,1,1,2,396.3149999980815,554.5549999987707,2
sub100,real,27,rare,0,1,2,248.82499999867287,96.92999999970198,3
sub100,real,28,rare,1,1,2,377.5550000027288,262.78499999898486,3
sub100,real,29,common,1,1,1,505.489999999525,2124.5099999977974,2
sub100,real,30,common,0,1,2,19.939999998314306,347.8849999993108,2
sub100,real,31,rare,0,1,1,401.81999999913387,591.3299999992596,3
sub100,real,32,common,1,1,1,1010.1700000013225,241.28000000212342,2
sub100,real,33,common,1,1,1,1121.5049999991897,678.6949999986682,2
sub100,real,34,common,1,1,1,369.6750000017928,1359.4800000027753,2
sub100,real,35,common,1,2,1,373.1200000002282,349.9599999994971,3
sub100,real,36,common,1,2,1,344.7599999998929,150.08499999751803,3
sub100,real,37,rare,1,1,2,768.0350000009639,599.9049999990966,3
sub100,real,38,rare,1,2,2,32.25000000023283,182.039999999688,2
sub100,real,39,common,1,1,1,285.23000000126194,138.75000000186265,2
sub100,real,40,common,0,2,1,4.630000003031455,1.2300000017276034,3
sub100,real,41,rare,1,1,2,147.90499999804888,144.16499999794178,3
sub100,real,42,common,0,2,1,0.4700000026496127,40.909999999799766,3
sub100,real,43,common,1,2,2,69.41499999817461,139.63499999954365,3
sub100,real,44,rare,0,2,0,143.07499999995343,NA,2
sub100,real,45,common,0,1,2,305.7750000007218,270.3750000001164,2
sub100,real,46,common,0,1,1,7.8000000030733645,2134.489999996731,2
sub100,real,47,common,0,1,1,1352.7350000004517,67.85500000114553,2
sub100,real,48,rare,1,1,2,900.2199999995064,465.86000000021886,3
sub100,real,49,common,0,2,1,105.92999999795575,1583.3549999989336,3
sub100,real,50,rare,0,2,1,36.82500000286382,24.61000000045169,2
sub100,real,51,rare,1,1,2,1358.1049999992829,194.12999999988824,3
sub100,real,52,common,0,2,2,35.60500000114553,26.56500000017695,3
sub100,real,53,common,0,2,2,10.655000001657754,47.81000000005588,3
sub100,real,54,rare,1,2,1,99.22999999974854,12.200000000884756,2
sub100,real,55,rare,1,2,2,108.34999999869615,9.649999999906868,2
sub100,real,56,rare,1,2,2,134.4649999991525,231.85999999986961,2
sub100,real,57,rare,0,1,2,18.110000000800937,18.860000000102445,3
sub100,real,58,common,1,2,2,7.395000000717118,71.98499999870546,3
sub100,real,59,common,0,2,2,76.69499999959953,480.40000000037253,3
sub100,real,60,common,1,1,2,60.11000000219792,133.2299999995157,2
sub100,real,61,rare,1,2,2,1114.1750000023749,214.3900000010617,2
sub100,real,62,common,0,2,1,0.5899999996181577,2122.4650000003166,3
sub100,real,63,rare,0,2,2,2861.945000000531,62.519999999552965,2
sub100,real,64,common,1,1,2,33.6649999988731,304.9700000009034,2
sub100,real,65,common,1,1,2,142.13999999989755,0.6250000006984919,2
sub100,real,66,common,0,2,2,34.644999999785796,13.839999999618158,3
sub100,real,67,common,1,1,2,590.2749999987427,0.6649999995715916,2
sub100,real,68,common,1,1,2,49.17999999830499,35.44999999948777,2
sub100,real,69,rare,1,2,1,18.355000000214204,27.415000000502914,2
sub100,real,70,common,1,2,2,174.18000000179745,147.49999999906868,3
sub100,real,71,common,1,1,2,114.12000000220723,373.599999998929,2
sub100,real,72,common,1,1,2,301.554999998305,518.6499999980442,2
sub100,real,73,rare,0,1,2,19.355000000447035,693.525000002468,3
sub100,real,74,common,0,1,2,1028.3400000007823,86.64499999955297,2
sub100,real,75,common,0,2,2,1288.290000000503,18.325000000884756,3
sub100,real,76,rare,0,1,1,58.22999999881722,177.03500000061467,3
sub100,real,77,common,1,2,2,189.93500000215136,793.9550000010058,3
sub100,real,78,rare,1,2,2,585.1299999996554,657.1399999991991,2
sub100,real,79,common,1,1,1,8.625000002095476,408.3250000004191,2
sub100,real,80,rare,0,1,1,145.30500000179745,1399.93500000122,3
sub100,real,81,common,1,2,2,227.5450000015553,1694.985000001965,3
sub100,real,82,rare,0,2,0,13.280000002821907,254.5749999990221,2
sub100,real,83,common,1,1,1,0.4299999999348074,58.68500000005588,2
sub100,real,84,common,0,1,2,69.03999999840744,304.3900000010617,2
sub100,real,85,common,1,1,2,351.07000000053085,25.78999999957159,2
sub100,real,86,common,0,2,2,12.044999999459833,124.32999999867752,3
sub100,real,87,rare,1,2,2,136.81999999959953,623.285000001546,2
sub100,real,88,common,0,2,2,658.6150000002235,541.8050000008661,3
sub100,real,89,common,1,2,2,280.74000000185333,1259.270000002347,3
sub100,real,90,common,1,2,2,1118.5850000001956,10.11500000092201,3
sub100,real,91,common,0,2,2,2651.2699999986216,425.4749999998603,3
sub100,real,92,common,1,2,2,117.68999999924563,473.75500000291504,3
sub100,real,93,common,0,2,2,255.80500000086613,890.559999999823,3
sub100,real,94,common,0,2,2,353.5649999976158,446.73499999777414,3
sub100,real,95,rare,1,2,2,131.6850000002887,2075.724999998696,2
sub100,real,96,common,0,2,2,96.20999999972992,647.1850000014529,3
sub100,real,97,common,1,2,2,223.12500000046566,300.0599999977276,3
sub100,real,98,common,1,2,2,372.02500000060536,54.659999998053536,3
sub100,real,99,common,0,2,2,804.0999999977648,21.884999998146668,3
sub100,real,100,rare,1,2,2,268.2049999968149,400.9299999999348,2
sub100,real,101,common,0,1,2,1174.8599999991711,421.560000002617,2
sub100,real,102,common,0,2,1,182.3550000009127,3111.469999999972,3
sub100,real,103,common,1,2,2,77.45000000065193,97.49499999801628,3
sub100,real,104,rare,0,1,1,138.10999999986961,105.31500000087544,3
sub100,real,105,rare,1,2,2,151.9350000016857,10.889999997569248,2
sub100,real,106,common,1,1,2,32.11999999987893,50.82000000029802,2
sub100,real,107,common,0,2,1,527.0200000014156,110.29000000050291,3
sub100,real,108,rare,0,2,1,362.57499999925494,41.9500000027474,2
sub100,real,109,common,0,2,2,111.60500000184402,285.20999999833293,3
sub100,real,110,rare,0,2,2,599.4450000035577,740.6799999990035,2
sub100,real,111,common,1,1,1,27.62000000081025,424.32999999797903,2
sub100,real,112,rare,1,2,2,276.16000000131316,188.3800000033807,2
sub100,real,113,common,1,2,1,588.6599999975879,316.25999999954365,3
sub100,real,114,common,1,2,2,556.1900000029709,156.03000000212342,3
sub100,real,115,common,1,2,1,30.01000000233762,207.55000000284053,3
sub100,real,116,common,0,1,1,585.8700000026729,167.15499999909662,2
sub100,real,117,rare,1,1,1,343.37999999849126,227.49000000115484,3
sub100,real,118,common,1,1,1,975.725000000326,13.68999999971129,2
sub100,real,119,common,1,1,1,54.860000000102445,94.32000000029802,2
sub100,real,120,common,1,1,1,440.73999999812804,56.020000000018626,2
sub100,real,121,common,1,1,1,12.535000001545995,1321.0050000017509,2
sub100,real,122,rare,1,1,1,209.55999999912456,15.095000002533197,3
sub100,real,123,common,0,1,1,637.0249999999069,65.11500000115484,2
sub100,real,124,common,0,1,1,445.31500000087544,1608.8950000011828,2
sub100,real,125,common,0,1,1,306.8600000005681,1812.8550000002142,2
sub100,real,126,common,1,1,1,384.83999999891967,224.99500000057742,2
sub100,real,127,common,1,1,1,141.51000000117347,140.94499999913387,2
sub100,real,128,common,0,1,1,799.1550000007264,40.74999999650754,2
sub100,real,129,common,0,1,1,195.85500000184402,204.4800000002142,2
sub100,real,130,common,1,1,1,1612.7600000000093,259.8800000012852,2
sub100,real,131,common,1,1,1,145.8299999977462,282.3599999975413,2
sub100,real,132,common,0,1,1,0.6499999980442226,285.26000000024214,2
sub100,real,133,common,1,1,1,401.79999999981374,478.9500000006519,2
sub100,real,134,common,1,1,1,940.3999999994412,7.960000002756715,2
sub100,real,135,common,0,1,1,418.4500000011176,385.77000000094995,2
sub100,real,136,rare,0,1,1,218.2299999985844,340.1649999981746,3
sub100,real,137,common,1,1,1,365.6650000009686,335.10000000009313,2
sub100,real,138,rare,0,1,1,406.179999998305,2523.8349999999627,3
sub100,real,139,common,0,1,1,289.78999999910593,696.3549999962561,2
sub100,real,140,rare,0,1,1,101.28999999910593,120.45500000054017,3
sub100,real,141,common,1,1,1,6.15000000083819,1257.0950000006706,2
sub100,real,142,common,0,1,1,211.54999999981374,3533.3749999990687,2
sub100,real,143,rare,0,1,1,59.05499999783933,510.1749999993481,3
sub100,real,144,rare,0,1,1,1618.2050000028685,216.87000000011176,3
sub100,real,145,common,1,1,1,1512.5200000004843,1433.554999999702,2
sub100,real,146,common,0,1,1,1237.1699999999255,1551.709999999497,2
sub100,real,147,rare,1,1,2,172.83499999763444,157.01000000257045,3
sub100,real,148,common,0,2,2,56.290000000502914,26.16499999910593,3
sub100,real,149,rare,1,2,2,103.80000000074506,117.08999999938533,2
sub100,real,150,rare,0,1,1,622.3400000017136,2620.689999999944,3
sub100,real,151,rare,1,1,2,676.9249999993481,92.089999998454,3
sub100,real,152,rare,0,1,2,1.9150000005029142,50.43499999726191,3
sub100,real,153,common,0,1,2,0.47500000055879354,491.89999999757856,2
sub100,real,154,common,0,1,2,7.24499999685213,619.5999999982305,2
sub100,real,155,common,0,1,1,422.5250000017695,449.8300000014715,2
sub100,real,156,common,0,2,2,253.0800000024028,751.4100000006147,3
sub100,real,157,rare,0,1,2,26.369999999646097,149.07499999785796,3
sub100,real,158,common,0,2,2,609.7449999982491,118.46499999985099,3
sub100,real,159,common,0,2,1,141.09499999927357,1254.5649999994785,3
sub100,real,160,rare,0,1,1,648.3049999987707,534.8850000007078,3
sub100,real,161,common,0,1,0,121.98500000173226,NA,2
sub100,real,162,common,1,1,2,2438.9350000019185,78.6549999974668,2
sub100,real,163,common,1,2,1,495.7700000014156,673.5200000000186,3
sub100,real,164,common,1,1,1,853.9549999986775,1026.5849999999627,2
sub100,real,165,rare,1,1,1,359.86500000208616,224.20499999867752,3
sub100,real,166,common,1,1,1,603.695000001695,669.2750000003725,2
sub100,real,167,rare,1,1,1,171.99500000057742,263.56500000087544,3
sub100,real,168,common,1,1,1,934.1549999993294,18.029999999329448,2
sub100,real,169,common,1,1,1,833.214999998454,717.2900000005029,2
sub100,real,170,common,0,1,1,109.29500000178814,44.27499999990687,2
sub100,real,171,NA,0,0,1,NA,89.714999998454,0
sub100,real,172,common,1,1,1,289.19500000122935,217.51500000013039,2
sub100,real,173,common,0,1,1,2270.239999997895,1092.9749999996275,2
sub100,real,174,rare,1,1,1,2081.7999999998137,240.30499999923632,3
sub100,real,175,common,0,1,1,93.60999999986961,142.98499999847263,2
sub100,real,176,common,1,1,1,162.68999999715015,461.8750000009313,2
sub100,real,177,common,1,2,2,66.05000000167638,116.47000000067055,3
sub100,real,178,common,1,1,1,190.46499999938533,476.70500000100583,2
sub100,real,179,common,0,1,1,859.1149999992922,803.0149999978021,2
sub100,real,180,common,1,1,1,944.6349999997765,939.8099999995902,2
sub100,real,181,common,1,1,1,352.03499999968335,542.2249999972992,2
sub100,real,182,common,1,1,1,1157.769999998156,257.7149999993853,2
sub100,real,183,common,0,1,1,234.86499999882653,1811.6999999983236,2
sub100,real,184,common,0,1,1,397.8700000005774,2020.434999998659,2
sub100,real,185,rare,1,1,1,1494.6550000021234,1936.4950000015087,3
sub100,real,186,common,1,1,1,2928.0349999968894,2490.2650000001304,2
sub100,real,187,common,1,1,1,2061.6450000014156,586.5850000008941,2
sub100,real,188,NA,0,0,1,NA,408.65499999932945,0
sub100,real,189,rare,1,1,1,1889.3249999997206,849.4900000002235,3
sub100,real,190,common,0,1,1,306.0349999978207,0.6250000004656613,2
sub100,real,191,common,0,1,1,298.589999998454,1219.7800000030547,2
sub100,real,192,common,0,1,0,1981.7050000019372,NA,2
sub100,real,193,common,1,1,1,271.86000000080094,2437.5849999999627,2
sub100,real,194,NA,0,0,0,NA,NA,0
sub100,real,195,rare,1,1,1,1924.1750000002794,1500.5350000024773,3
sub100,real,196,common,0,1,1,85.45999999856576,139.33499999996275,2
sub100,real,197,rare,1,1,1,1630.004999998957,2143.555000002496,3
sub100,real,198,common,1,1,1,575.2350000003353,1078.8549999995157,2
sub100,real,199,common,0,1,1,2956.429999998305,162.73499999800697,2
sub100,real,200,NA,0,1,1,3494.7649999996647,48.50500000268221,0
sub101,real,1,common,0,0,2,1885.260000010021,843.9100000541657,0
sub101,real,2,common,0,1,1,506.0600000433624,808.2100000465289,2
sub101,real,3,rare,1,2,2,571.5649999910966,578.9550000336021,2
sub101,real,4,common,1,2,1,317.64499994460493,954.4800000730902,3
sub101,real,5,rare,1,2,2,980.8699999703094,489.824999938719,2
sub101,real,6,rare,1,2,2,401.6100000590086,417.6900000311434,2
sub101,real,7,rare,0,2,2,391.72499999403954,569.1150000784546,2
sub101,real,8,rare,1,2,2,373.19499999284744,397.45499996934086,2
sub101,real,9,common,0,2,1,267.2550000716001,574.7800000244752,3
sub101,real,10,common,1,2,1,254.97999996878207,491.1250000586733,3
sub101,real,11,common,0,2,1,374.4650000007823,531.1649999348447,3
sub101,real,12,common,1,2,1,310.4900000616908,532.245000009425,3
sub101,real,13,common,0,2,1,276.3099999865517,699.724999954924,3
sub101,real,14,common,1,2,2,317.2150000464171,995.4600000055507,3
sub101,real,15,common,1,2,2,429.134999983944,529.7049999935552,3
sub101,real,16,rare,1,2,2,267.8600000217557,402.1550000179559,2
sub101,real,17,common,0,2,2,281.734999967739,496.309999958612,3
sub101,real,18,common,0,2,1,382.24999990779907,537.209999980405,3
sub101,real,19,rare,1,2,2,271.3350000558421,350.75500002130866,2
sub101,real,20,rare,1,2,2,417.47499990742654,537.1450000675395,2
sub101,real,21,rare,0,2,2,472.7699999930337,632.5400000205263,2
sub101,real,22,rare,1,2,2,255.18500001635402,395.4399999929592,2
sub101,real,23,common,1,2,2,344.2199999699369,572.2449999302626,3
sub101,real,24,common,1,2,2,323.7799999769777,543.125000083819,3
sub101,real,25,common,1,2,2,337.13999995961785,781.7950000753626,3
sub101,real,26,common,1,2,2,208.91500008292496,565.1799999177456,3
sub101,real,27,rare,0,2,2,498.24500002432615,435.31999993138015,2
sub101,real,28,common,0,2,2,318.70000006165355,394.5449999300763,3
sub101,real,29,common,0,2,1,245.99500000476837,544.4050000514835,3
sub101,real,30,common,0,2,2,343.4000000124797,923.0949999764562,3
sub101,real,31,rare,1,2,1,284.3400000128895,882.9000000841916,2
sub101,real,32,rare,1,2,1,367.9250000277534,602.8850000584498,2
sub101,real,33,common,1,2,1,441.03999994695187,440.01500005833805,3
sub101,real,34,common,1,2,1,359.4100000336766,1008.8899999391288,3
sub101,real,35,common,0,2,1,423.2149999588728,608.6249999934807,3
sub101,real,36,common,0,2,2,394.71500006038696,564.2549999756739,3
sub101,real,37,common,0,2,1,398.04000000003725,635.7950000092387,3
sub101,real,38,rare,1,2,1,313.89500002842396,535.1100000552833,2
sub101,real,39,common,0,2,2,411.0499999951571,339.464999968186,3
sub101,real,40,common,1,2,1,498.5500000184402,968.05999998468906,3
sub101,real,41,common,0,2,1,473.7399999285117,798.8649999024346,3
sub101,real,42,rare,1,2,2,280.19000007770956,597.9649999644607,2
sub101,real,43,rare,1,2,2,310.38500007707626,358.85999992024153,2
sub101,real,44,common,1,2,2,375.194999971427,596.8350000912324,3
sub101,real,45,rare,0,2,2,506.3800000352785,518.43000005465,2
sub101,real,46,rare,0,2,1,524.2700000526384,366.3650000235066,2
sub101,real,47,rare,1,2,2,372.2800000105053,572.9799999389797,2
sub101,real,48,rare,1,2,2,515.7700000563636,863.8349999673665,2
sub101,real,49,common,1,2,2,355.4149999981746,958.3049999782816,3
sub101,real,50,rare,1,2,2,1081.0200000414625,451.45499997306615,2
sub101,real,51,common,0,2,2,1270.699999993667,321.2749999947846,3
sub101,real,52,common,1,2,1,331.3550000311807,305.87999999988824,3
sub101,real,53,common,0,2,1,346.99499991256744,491.6850000154227,3
sub101,real,54,rare,0,1,1,276.42999996896833,496.32999999448657,3
sub101,real,55,common,1,1,1,298.53500006720424,859.4099999172613,2
sub101,real,56,common,0,1,1,298.36999997496605,457.9050000756979,2
sub101,real,57,common,1,1,2,434.9449999863282,918.9699999988079,2
sub101,real,58,rare,0,1,2,270.8400000119582,667.4549999879673,3
sub101,real,59,common,0,2,1,656.6650000168011,520.1749999541789,3
sub101,real,60,common,1,2,2,626.8200000049546,354.9549999879673,3
sub101,real,61,common,1,2,2,457.4600000632927,452.69499998539686,3
sub101,real,62,common,0,2,2,455.34999994561076,529.0299999760464,3
sub101,real,63,rare,1,2,2,323.2100000604987,431.89499992877245,2
sub101,real,64,rare,1,2,2,312.900000018999,379.1199999395758,2
sub101,real,65,common,1,2,1,327.3850000696257,795.9999999729916,3
sub101,real,66,rare,1,2,2,376.43500010017306,346.7299999902025,2
sub101,real,67,common,1,2,1,568.959999945946,660.1000000955537,3
sub101,real,68,rare,1,2,2,360.7649999903515,452.82000000588596,2
sub101,real,69,rare,0,2,2,649.6449999976903,638.7200000463054,2
sub101,real,70,rare,0,2,1,1287.609999999404,491.35500006377697,2
sub101,real,71,common,0,2,1,355.6150000076741,1472.9850000003353,3
sub101,real,72,common,1,2,2,342.39000000525266,535.0750000216067,3
sub101,real,73,common,1,2,2,325.0449999468401,668.0700000142679,3
sub101,real,74,rare,0,2,2,679.72999997437,406.79999999701977,2
sub101,real,75,common,0,2,2,322.1200000261888,605.9400000376627,3
sub101,real,76,common,1,2,1,458.4849999519065,620.8150000311434,3
sub101,real,77,common,0,2,1,813.4749999735504,590.8100000815466,3
sub101,real,78,common,1,2,2,417.0849999645725,696.9350000144914,3
sub101,real,79,rare,1,2,1,444.52999997884035,1394.5599999278784,2
sub101,real,80,common,0,2,2,317.47999996878207,541.0449999617413,3
sub101,real,81,rare,1,2,1,316.87500001862645,415.720000048168,2
sub101,real,82,common,0,2,1,318.8700000755489,1021.2899999460205,3
sub101,real,83,common,0,2,2,258.7199999252334,435.49499998334795,3
sub101,real,84,common,1,2,1,354.2750000488013,612.569999997504,3
sub101,real,85,rare,1,2,1,327.18999998178333,587.3849999625236,2
sub101,real,86,rare,0,2,1,489.2599999438971,581.8750000325963,2
sub101,real,87,common,1,2,2,318.83500004187226,964.5149999996647,3
sub101,real,88,common,0,2,2,389.7899999283254,412.63499995693564,3
sub101,real,89,common,0,2,1,767.3200001008809,607.1349999401718,3
sub101,real,90,common,1,2,2,423.5800000606105,339.86000006552786,3
sub101,real,91,common,0,2,2,386.1350000370294,624.0550000220537,3
sub101,real,92,rare,0,2,2,308.1850000889972,541.4700000546873,2
sub101,real,93,common,0,2,1,344.83499999623746,664.1700000036508,3
sub101,real,94,rare,1,2,1,308.10999998357147,738.9599999878556,2
sub101,real,95,rare,1,2,1,465.86499991826713,397.4600000074133,2
sub101,real,96,common,0,2,2,410.98499996587634,372.33499996364117,3
sub101,real,97,common,0,1,2,87.68499991856515,621.3849999476224,2
sub101,real,98,common,0,2,2,362.67500009853393,954.8900000518188,3
sub101,real,99,common,0,2,1,323.9649999886751,419.3149999482557,3
sub101,real,100,rare,0,2,1,480.4700000677258,361.9549999712035,2
sub101,real,101,common,0,2,1,1900.139999925159,623.410000000149,3
sub101,real,102,common,0,2,2,1050.58000003919,615.4849999584258,3
sub101,real,103,common,0,1,1,519.2699999315664,705.0700000254437,2
sub101,real,104,common,0,1,2,762.0599999791011,442.5999999511987,2
sub101,real,105,common,0,1,1,353.63500006496906,917.1599999535829,2
sub101,real,106,common,0,2,2,326.8699999898672,424.44999993313104,3
sub101,real,107,common,1,2,1,376.44500005990267,512.6549999695271,3
sub101,real,108,common,1,2,1,581.7749999696389,498.77499998547137,3
sub101,real,109,common,1,2,1,342.8050000220537,809.6000000368804,3
sub101,real,110,common,0,2,1,702.9549999861047,418.6350000090897,3
sub101,real,111,rare,1,2,1,446.87500002328306,564.2350000562146,2
sub101,real,112,common,1,2,2,332.40999991539866,475.63000000081956,3
sub101,real,113,common,1,2,2,871.1200000252575,678.6749999737367,3
sub101,real,114,rare,0,2,1,364.8749999701977,465.37999995052814,2
sub101,real,115,rare,0,2,2,642.8649999434128,279.1900000302121,2
sub101,real,116,rare,0,2,1,436.54999998398125,530.9049999341369,2
sub101,real,117,common,0,2,2,485.66000000573695,792.9400000721216,3
sub101,real,118,common,1,2,1,492.34499991871417,546.100000035949,3
sub101,real,119,common,0,2,1,354.00499997194856,392.03500002622604,3
sub101,real,120,common,0,2,2,1719.7499999310821,492.5299999304116,3
sub101,real,121,common,0,2,1,402.849999954924,445.32500009518117,3
sub101,real,122,common,0,2,2,247.92500003241003,630.364999989979,3
sub101,real,123,common,0,1,2,346.1850000312552,548.8749999785796,2
sub101,real,124,common,1,1,1,224.01999996509403,465.459999977611,2
sub101,real,125,rare,1,1,2,306.98500003200024,464.19000008609146,3
sub101,real,126,common,0,1,1,392.5949999829754,578.5850000102073,2
sub101,real,127,rare,1,1,2,293.9699999988079,371.79500004276633,3
sub101,real,128,rare,1,1,2,328.08000000659376,753.374999971129,3
sub101,real,129,rare,1,1,2,255.72499993722886,371.0399999981746,3
sub101,real,130,common,1,1,1,491.6100000264123,1060.924999997951,2
sub101,real,131,common,0,1,1,497.4399999482557,315.6149999704212,2
sub101,real,132,common,0,1,2,241.67999997735023,659.294999903068,2
sub101,real,133,common,0,1,1,302.2350000683218,644.43999994546175,2
sub101,real,134,common,0,1,2,326.95000001695007,349.2499999701977,2
sub101,real,135,common,0,2,1,251.9249999895692,310.2200001012534,3
sub101,real,136,common,1,2,2,230.42000003624707,547.4099999992177,3
sub101,real,137,common,0,2,2,374.5249999919906,489.7000000346452,3
sub101,real,138,rare,0,2,1,243.23000002186745,1278.2049999805167,2
sub101,real,139,common,1,2,1,295.77500000596046,557.2000000393018,3
sub101,real,140,common,1,2,1,401.22999995946884,627.4200000334531,3
sub101,real,141,rare,0,2,2,449.64500004425645,367.4999999348074,2
sub101,real,142,common,1,2,1,842.1749999979511,346.6049999697134,3
sub101,real,143,common,0,2,1,307.92499997187406,698.0299999704584,3
sub101,real,144,common,0,2,2,621.1599999805912,422.62500000651926,3
sub101,real,145,common,1,2,1,830.7149999309331,496.2649999652058,3
sub101,real,146,common,0,2,1,781.2350000021979,534.6999999601394,3
sub101,real,147,common,1,2,1,450.1350000500679,340.22000001277775,3
sub101,real,148,common,1,2,1,501.6250000335276,381.5150000154972,3
sub101,real,149,common,0,2,1,389.4850000506267,404.1549999965355,3
sub101,real,150,common,0,2,1,357.48500004410744,609.8749999655411,3
sub101,real,151,common,0,2,2,2401.064999983646,426.4200000325218,3
sub101,real,152,common,1,2,1,243.56500001158565,720.219999901019,3
sub101,real,153,common,1,2,2,355.8849999681115,803.0949999811128,3
sub101,real,154,rare,0,2,1,311.8900000117719,682.7200000407174,2
sub101,real,155,common,0,2,2,2599.075000034645,2751.1999999405816,3
sub101,real,156,common,1,2,2,236.26000003423542,426.8750000046566,3
sub101,real,157,rare,1,2,1,429.1699999012053,486.6850000107661,2
sub101,real,158,common,0,2,2,271.91000001039356,631.0199999716133,3
sub101,real,159,rare,0,2,1,273.59999995678663,567.3849999438971,2
sub101,real,160,common,0,2,2,288.0699998931959,246.78500008303672,3
sub101,real,161,common,0,2,1,388.80499999504536,691.6800000471994,3
sub101,real,162,common,1,2,2,760.9550000634044,307.8199999872595,3
sub101,real,163,rare,0,2,2,398.9800000563264,548.9400000078604,2
sub101,real,164,common,1,2,2,454.20999999623746,622.8250000858679,3
sub101,real,165,rare,1,2,1,339.59999994840473,333.45499995630234,2
sub101,real,166,rare,1,2,1,269.35499999672174,865.6000000191852,2
sub101,real,167,common,1,2,2,298.59500005841255,504.7649999614805,3
sub101,real,168,common,1,2,2,307.02000006567687,387.43000000249594,3
sub101,real,169,rare,1,2,1,334.1449999716133,605.9849999146536,2
sub101,real,170,common,1,2,2,301.78500001784414,432.52000003121793,3
sub101,real,171,rare,0,1,1,339.0849999850616,563.8200000394136,3
sub101,real,172,common,1,2,2,299.570000031963,332.18999998643994,3
sub101,real,173,common,1,2,2,276.2250000378117,299.81999995652586,3
sub101,real,174,common,1,2,2,372.6650000317022,400.6650000810623,3
sub101,real,175,common,0,2,2,282.8849999932572,412.42499998770654,3
sub101,real,176,common,0,2,1,385.48000005539507,449.3400000501424,3
sub101,real,177,common,0,2,1,169.91999989841133,213.43000000342727,3
sub101,real,178,rare,0,2,2,216.32499992847443,328.8699999684468,2
sub101,real,179,rare,1,2,1,305.1249999552965,495.2200000407174,2
sub101,real,180,common,0,2,2,375.11999998241663,328.5599999362603,3
sub101,real,181,rare,1,2,1,272.12500001769513,283.59000000637025,2
sub101,real,182,common,0,2,1,316.21499999891967,266.91000000573695,3
sub101,real,183,common,0,2,2,214.36500002164394,475.43500002939254,3
sub101,real,184,rare,1,2,1,281.45500004757196,355.5400000186637,2
sub101,real,185,rare,1,2,1,292.52500005532056,378.9000000106171,2
sub101,real,186,rare,0,2,1,530.2500000689179,845.9900000598282,2
sub101,real,187,common,0,2,2,266.67500007897615,418.7000000383705,3
sub101,real,188,common,0,2,1,454.6150000533089,503.8700000150129,3
sub101,real,189,rare,1,2,2,271.3350000558421,427.96000000089407,2
sub101,real,190,common,1,2,2,311.8499999400228,1399.2099999450147,3
sub101,real,191,common,0,2,2,489.5949999336153,302.1500000031665,3
sub101,real,192,rare,1,2,2,438.8499999186024,484.67999999411404,2
sub101,real,193,rare,0,2,2,0.3250000299885869,327.5800000410527,2
sub101,real,194,common,0,2,1,422.9899999918416,324.47999995201826,3
sub101,real,195,common,1,2,2,295.81499996129423,321.485000080429,3
sub101,real,196,common,0,2,1,379.2899999534711,389.0400000382215,3
sub101,real,197,common,0,2,2,368.04500001017004,807.1299999719486,3
sub101,real,198,rare,0,2,2,355.15000007580966,419.15999993216246,2
sub101,real,199,rare,0,2,1,384.26500000059605,440.10000000707805,2
sub101,real,200,common,0,2,2,988.8100000098348,326.86500006821007,3
sub102,real,1,common,0,1,2,1435.7500000623986,1636.6250000428408,2
sub102,real,2,common,1,2,1,634.0199999976903,1520.8850000053644,3
sub102,real,3,rare,1,1,2,1745.3850000165403,1917.3850000370294,3
sub102,real,4,rare,1,2,2,317.21000000834465,2295.935000060126,2
sub102,real,5,common,1,1,1,317.090000025928,1772.1550000132993,2
sub102,real,6,common,0,2,1,309.77499997243285,3519.304999965243,3
sub102,real,7,rare,0,1,2,592.9000000469387,1386.7150000296533,3
sub102,real,8,common,1,2,1,507.29999993927777,1178.4150000894442,3
sub102,real,9,common,1,1,1,1234.2949999729171,1594.8599999537691,2
sub102,real,10,common,0,2,1,359.59000000730157,1458.2500000251457,3
sub102,real,11,rare,1,1,2,442.6749999402091,1539.9349998915568,3
sub102,real,12,rare,1,2,1,1527.8000000398606,1271.8249999452382,2
sub102,real,13,common,1,2,1,386.39999995939434,1820.934999966994,3
sub102,real,14,common,0,1,1,824.6250000083819,2727.8199999127537,2
sub102,real,15,common,1,2,2,932.5699999462813,1882.2099999524653,3
sub102,real,16,common,1,1,1,296.3299999246374,1226.535000023432,2
sub102,real,17,rare,1,2,1,303.0049999943003,1510.6200000736862,2
sub102,real,18,rare,0,1,2,304.5200000051409,1032.6549999881536,3
sub102,real,19,common,1,2,2,662.03000000678,1421.9899999443442,3
sub102,real,20,rare,0,1,1,435.6499999994412,1082.7950000530109,3
sub102,real,21,common,0,2,2,321.52499991934747,1092.2349999891594,3
sub102,real,22,common,1,1,1,483.2199999364093,2527.5350000010803,2
sub102,real,23,rare,0,2,2,398.28000008128583,1582.509999978356,2
sub102,real,24,common,0,2,1,320.81999990623444,1968.75,3
sub102,real,25,common,0,1,1,359.43000006955117,1786.7050000932068,2
sub102,real,26,common,1,1,2,1559.4900000141934,2074.644999927841,2
sub102,real,27,common,1,2,2,1646.3150000199676,2025.0050000613555,3
sub102,real,28,common,1,1,1,758.75499995891,2258.3299999823794,2
sub102,real,29,common,1,2,2,375.8300000336021,2071.125000016764,3
sub102,real,30,common,1,1,1,536.1200000625104,2275.950000039302,2
sub102,real,31,common,0,2,2,518.1800000136718,1790.7750000013039,3
sub102,real,32,common,1,1,1,689.6249999990687,1193.7349999789149,2
sub102,real,33,common,0,1,1,746.1249999469146,573.4550000634044,2
sub102,real,34,common,1,2,2,497.4200000287965,929.8249999992549,3
sub102,real,35,rare,0,1,1,361.4600000437349,2284.535000100732,3
sub102,real,36,common,1,2,2,357.7400000067428,684.3149999622256,3
sub102,real,37,common,0,2,2,751.3299999991432,683.9749999344349,3
sub102,real,38,common,1,1,1,40.30999995302409,894.1549999872223,2
sub102,real,39,rare,1,2,1,45.559999998658895,1351.6100000124425,2
sub102,real,40,rare,0,1,1,1895.490000024438,2436.005000025034,3
sub102,real,41,common,1,2,2,2519.1549999872223,1369.204999995418,3
sub102,real,42,rare,1,1,1,1224.2499999701977,1050.66499998793,3
sub102,real,43,rare,0,2,1,2601.0700000915676,1155.2000000374392,2
sub102,real,44,common,1,1,2,280.8799999766052,2039.83500006143,2
sub102,real,45,rare,1,1,1,634.4100000569597,1684.7800000105053,3
sub102,real,46,common,0,2,2,498.81499994080514,1153.5750000039116,3
sub102,real,47,common,1,1,1,205.78499999828637,1059.1049999929965,2
sub102,real,48,common,1,2,2,1988.9849999453872,1037.1000000741333,3
sub102,real,49,common,0,1,1,447.6149999536574,611.185000045225,2
sub102,real,50,rare,0,2,1,346.8550000106916,1868.9349999185652,2
sub102,real,51,common,1,1,2,1517.8349999478087,1292.7449999842793,2
sub102,real,52,rare,1,2,1,597.4799999967217,1291.4800000144169,2
sub102,real,53,common,0,1,2,927.8400000184774,782.8749999171123,2
sub102,real,54,common,0,2,1,364.6650000009686,1057.6250000158325,3
sub102,real,55,common,1,1,2,681.4099999610335,2527.334999991581,2
sub102,real,56,common,0,2,2,333.4500000346452,2109.3950000358745,3
sub102,real,57,common,0,1,2,298.18500007968396,1718.7699999194592,2
sub102,real,58,rare,0,1,1,375.4750000080094,1084.1299999738112,3
sub102,real,59,rare,1,2,1,264.3099999986589,2193.3299999218434,2
sub102,real,60,common,1,2,2,365.1349999709055,2147.744999965653,3
sub102,real,61,common,0,1,2,682.2950000641868,2804.3349999934435,2
sub102,real,62,NA,0,0,0,NA,NA,0
sub102,real,63,common,0,2,0,723.0299999937415,NA,3
sub102,real,64,common,0,1,2,433.8649999117479,1753.2600000267848,2
sub102,real,65,rare,1,1,1,745.4999999608845,1854.7249999828637,3
sub102,real,66,rare,1,2,1,2484.4649999868125,841.2150000222027,2
sub102,real,67,common,0,2,1,2100.414999993518,1239.4799999892712,3
sub102,real,68,common,0,2,2,361.81500006932765,661.5100000053644,3
sub102,real,69,rare,0,1,2,1894.9149999534711,2932.7899999916553,3
sub102,real,70,common,0,1,1,2395.6250000046566,3097.8549999417737,2
sub102,real,71,common,0,1,2,2086.295000044629,593.2899999897927,2
sub102,real,72,common,1,2,2,930.9999999823049,1381.3549999613315,3
sub102,real,73,rare,1,2,1,1658.3749999990687,972.7249999996275,2
sub102,real,74,common,1,1,2,2293.9499999629334,1004.0099999168888,2
sub102,real,75,common,1,2,1,916.289999964647,703.7600000621751,3
sub102,real,76,common,1,1,2,454.1100000496954,622.8950000368059,2
sub102,real,77,rare,1,2,1,441.6699999710545,508.8850000174716,2
sub102,real,78,common,0,1,2,374.97999996412545,424.35999994631857,2
sub102,real,79,rare,1,2,1,381.96999998763204,420.89999991003424,2
sub102,real,80,NA,0,0,1,NA,977.9499999713153,0
sub102,real,81,rare,1,1,2,726.0049999458715,797.0150000182912,3
sub102,real,82,NA,0,0,0,NA,NA,0
sub102,real,83,NA,0,0,2,NA,589.7650000406429,0
sub102,real,84,common,1,2,1,1873.8199999788776,509.9499999778345,3
sub102,real,85,rare,1,2,1,2564.810000010766,637.6949999248609,2
sub102,real,86,rare,0,1,2,346.1799999931827,464.35000002384186,3
sub102,real,87,rare,1,2,1,1738.4600000223145,551.7400000244379,2
sub102,real,88,rare,0,2,1,2276.5849999850616,2716.1250000353903,2
sub102,real,89,common,0,1,2,606.9050000514835,943.0949999950826,2
sub102,real,90,NA,0,0,0,NA,NA,0
sub102,real,91,rare,1,1,1,1026.8050000304356,1108.379999990575,3
sub102,real,92,NA,0,0,0,NA,NA,0
sub102,real,93,NA,0,0,0,NA,NA,0
sub102,real,94,rare,0,2,1,1073.285000049509,459.3100000638515,2
sub102,real,95,common,0,2,2,652.1699998993427,480.6749999988824,3
sub102,real,96,common,1,1,2,1208.0099999438971,561.5099999122322,2
sub102,real,97,NA,0,0,0,NA,NA,0
sub102,real,98,common,0,2,1,405.6649999693036,1007.6300000073388,3
sub102,real,99,rare,0,2,1,1014.5649999612942,1030.0550000974908,2
sub102,real,100,NA,0,2,2,3526.7100000055507,729.7649999381974,0
sub102,real,101,common,0,2,2,2067.3599999863654,300.2649999689311,3
sub102,real,102,common,0,1,2,983.4949999349192,699.4699999922886,2
sub102,real,103,NA,0,0,0,NA,NA,0
sub102,real,104,common,0,1,0,734.264999977313,NA,2
sub102,real,105,NA,0,0,0,NA,NA,0
sub102,real,106,NA,0,0,0,NA,NA,0
sub102,real,107,NA,0,0,0,NA,NA,0
sub102,real,108,NA,0,0,0,NA,NA,0
sub102,real,109,NA,0,0,0,NA,NA,0
sub102,real,110,common,1,1,2,893.889999948442,213.96500000264496,2
sub102,real,111,common,1,2,1,240.46500003896654,20.995000028051436,3
sub102,real,112,rare,0,1,0,314.4599999068305,NA,3
sub102,real,113,NA,0,2,2,3819.1749999532476,724.0799999563023,0
sub102,real,114,rare,1,1,1,204.99499992001802,638.9750000089407,3
sub102,real,115,common,0,2,1,397.9200000176206,750.9700000518933,3
sub102,real,116,rare,1,2,1,1373.9549999590963,561.879999935627,2
sub102,real,117,NA,0,0,0,NA,NA,0
sub102,real,118,NA,0,0,0,NA,NA,0
sub102,real,119,common,0,1,0,465.9850000170991,NA,2
sub102,real,120,common,0,1,2,21.35000005364418,742.5899999216199,2
sub102,real,121,common,1,1,2,534.0699999360368,2542.024999973364,2
sub102,real,122,NA,0,0,0,NA,NA,0
sub102,real,123,rare,1,1,1,411.1750000156462,420.32999999355525,3
sub102,real,124,rare,0,1,0,2155.8749999385327,NA,3
sub102,real,125,rare,0,2,1,1765.125000034459,377.80500005465,2
sub102,real,126,rare,1,2,1,322.5050000473857,361.65500001516193,2
sub102,real,127,rare,1,2,0,94.175000092946,820.5950000556186,2
sub102,real,128,NA,0,0,0,NA,NA,0
sub102,real,129,common,1,2,2,1741.1050000227988,1708.794999984093,3
sub102,real,130,common,0,1,2,62.09000002127141,353.06500003207475,2
sub102,real,131,common,1,2,0,1624.0000000689179,709.2750000301749,3
sub102,real,132,rare,1,2,1,1675.0900000333786,2184.239999973215,2
sub102,real,133,common,1,2,2,877.8450000099838,271.8399999430403,3
sub102,real,134,common,0,1,1,685.3800000390038,404.9949999898672,2
sub102,real,135,common,0,2,1,1003.5350000252947,913.1649999180809,3
sub102,real,136,NA,0,0,0,NA,NA,0
sub102,real,137,NA,0,0,0,NA,NA,0
sub102,real,138,common,1,2,1,269.2350000143051,263.10999994166195,3
sub102,real,139,rare,1,2,1,1776.090000057593,272.400000016205,2
sub102,real,140,rare,1,1,1,471.2949999375269,138.34499998483807,3
sub102,real,141,common,1,2,1,347.19500003848225,399.2749999742955,3
sub102,real,142,rare,1,2,1,1608.339999918826,153.53999997023493,2
sub102,real,143,common,0,2,2,315.9750000340864,2122.495000017807,3
sub102,real,144,NA,0,0,0,NA,NA,0
sub102,real,145,NA,0,0,0,NA,NA,0
sub102,real,146,NA,0,0,0,NA,NA,0
sub102,real,147,rare,0,1,1,157.15999994426966,3400.2150000305846,3
sub102,real,148,rare,0,1,0,296.8400000827387,NA,3
sub102,real,149,NA,0,0,0,NA,NA,0
sub102,real,150,NA,0,0,0,NA,NA,0
sub102,real,151,NA,0,2,1,3698.8649999257177,928.6200000206009,0
sub102,real,152,rare,1,2,1,2593.4699999634176,352.4350000079721,2
sub102,real,153,rare,1,1,2,291.1050000693649,581.5700000384822,3
sub102,real,154,common,0,2,1,1099.2000000551343,389.3699999898672,3
sub102,real,155,common,1,2,1,1008.9500000467524,953.7149999523535,3
sub102,real,156,common,1,1,2,299.99500000849366,2349.8449999606237,2
sub102,real,157,common,0,2,1,2100.3700000001118,2417.714999988675,3
sub102,real,158,NA,0,0,2,NA,92.77500002644956,0
sub102,real,159,rare,0,2,2,348.6499999416992,1152.570000034757,2
sub102,real,160,rare,0,1,2,3000.029999995604,1109.2250000219792,3
sub102,real,161,rare,1,2,1,2275.8450000546873,499.00999991223216,2
sub102,real,162,common,1,2,1,1304.5649999985471,2615.559999947436,3
sub102,real,163,rare,0,2,1,475.7800000952557,683.3750000223517,2
sub102,real,164,rare,1,2,1,0.8650000672787428,819.0799999283627,2
sub102,real,165,common,0,2,1,353.2450000056997,922.7099999552593,3
sub102,real,166,NA,0,2,0,3010.664999950677,NA,0
sub102,real,167,common,0,2,1,304.3850000249222,371.54500000178814,3
sub102,real,168,common,0,2,2,2480.735000106506,925.8299999637529,3
sub102,real,169,common,0,1,2,1232.2600000770763,149.16000002995133,2
sub102,real,170,common,1,1,1,0.6650000577792525,670.3149999957532,2
sub102,real,171,common,1,1,2,473.7550000427291,468.80500006955117,2
sub102,real,172,rare,0,1,2,336.7500000167638,380.7250000536442,3
sub102,real,173,common,0,1,2,266.2049999926239,1362.1249999850988,2
sub102,real,174,common,1,1,1,134.31500003207475,1141.9999999925494,2
sub102,real,175,rare,0,2,1,379.50999999884516,452.3449999978766,2
sub102,real,176,common,1,1,2,879.7350000822917,42.51499997917563,2
sub102,real,177,rare,1,2,2,2480.779999983497,760.0950000341982,2
sub102,real,178,rare,0,2,1,222.62000001501292,402.7350000105798,2
sub102,real,179,NA,0,0,2,NA,335.8050000388175,0
sub102,real,180,common,1,2,1,1967.7499999525025,58.9650000911206,3
sub102,real,181,common,0,2,1,514.350000070408,253.23500006925315,3
sub102,real,182,common,0,1,2,918.3600000105798,1032.3399999178946,2
sub102,real,183,NA,0,0,2,NA,46.72500002197921,0
sub102,real,184,common,1,2,1,575.3750000149012,1311.2550000660121,3
sub102,real,185,rare,1,2,2,643.4850000077859,2211.1499999882653,2
sub102,real,186,NA,0,2,2,3751.5150000108406,410.59000010136515,0
sub102,real,187,NA,0,0,0,NA,NA,0
sub102,real,188,common,0,2,1,419.80000003241,59.82000008225441,3
sub102,real,189,NA,0,2,2,3504.994999966584,106.21500003617257,0
sub102,real,190,common,0,2,2,14.590000035241246,1088.5599999455735,3
sub102,real,191,common,0,1,0,145.00999997835606,NA,2
sub102,real,192,common,0,2,1,2614.1500000376254,512.3550000134856,3
sub102,real,193,common,0,1,1,1111.970000085421,199.1799999959767,2
sub102,real,194,common,0,2,1,339.1350000165403,661.94500005804,3
sub102,real,195,common,0,2,2,350.83000001031905,2000.745000084862,3
sub102,real,196,rare,0,1,2,27.549999998882413,3033.0100000137463,3
sub102,real,197,rare,1,2,1,504.4899999629706,1662.6299999188632,2
sub102,real,198,common,0,2,0,2974.5399999665096,NA,3
sub102,real,199,rare,0,2,1,1204.9199999310076,553.5799999488518,2
sub102,real,200,rare,1,2,1,24.274999974295497,110.7649999903515,2
sub103,real,1,common,0,1,1,974.3299999999581,595.809999999823,2
sub103,real,2,common,1,1,1,355.3400000000838,233.80000000016298,2
sub103,real,3,rare,0,1,1,228.30000000004657,127.42000000004191,3
sub103,real,4,common,0,1,1,483.3800000001211,240.0800000000745,2
sub103,real,5,common,1,1,1,394.23499999998603,248.10499999986496,2
sub103,real,6,common,0,1,1,366.58499999996275,215.11999999999534,2
sub103,real,7,common,1,1,1,530.0899999999674,71.33500000007916,2
sub103,real,8,common,0,1,1,550.4400000000605,22.979999999981374,2
sub103,real,9,common,0,1,1,463.1450000000186,394.9350000000559,2
sub103,real,10,common,0,1,1,407.5350000000326,338.28499999979977,2
sub103,real,11,rare,0,1,1,537.535000000149,330.85000000009313,3
sub103,real,12,common,1,1,1,403.70999999996275,466.9300000000512,2
sub103,real,13,common,0,1,1,648.4849999998696,399.7499999998836,2
sub103,real,14,common,0,1,1,269.65500000002794,563.2150000000838,2
sub103,real,15,rare,0,1,1,428.15500000002794,216.88999999989755,3
sub103,real,16,common,1,2,2,525.75,278.4650000000838,3
sub103,real,17,rare,0,2,2,599.2750000000233,306.94999999995343,2
sub103,real,18,common,1,2,2,324.19000000006054,261.0549999999348,3
sub103,real,19,common,1,2,2,499.52499999990687,192.85499999998137,3
sub103,real,20,common,1,2,0,478.4000000002561,79.70999999996275,3
sub103,real,21,common,1,2,2,439.9200000000419,313.00499999988824,3
sub103,real,22,common,1,2,2,475.6549999999115,403.19999999995343,3
sub103,real,23,rare,1,2,2,378.1649999998044,424.13999999989755,2
sub103,real,24,rare,1,2,2,415.46999999985565,278.03999999992084,2
sub103,real,25,common,1,2,2,464.51499999989755,334.7050000000745,3
sub103,real,26,common,0,2,2,347.1350000000093,57.14499999990221,3
sub103,real,27,common,0,1,1,558.0149999997811,320.3699999998789,2
sub103,real,28,common,0,1,1,410.46000000007916,465.19999999995343,2
sub103,real,29,common,1,2,2,373.28000000002794,328.375,3
sub103,real,30,common,0,2,2,598.854999999865,251.90000000002328,3
sub103,real,31,rare,0,2,1,515.9449999999488,442.46999999997206,2
sub103,real,32,common,1,2,2,810.895000000135,417.28999999992084,3
sub103,real,33,common,0,2,2,837.5650000000605,439.9200000000419,3
sub103,real,34,common,0,2,2,534.9350000001723,557.5749999999534,3
sub103,real,35,rare,1,0,1,580.6499999999069,673.2600000000093,0
sub103,real,36,common,1,1,1,582.7849999999162,494.8499999999767,2
sub103,real,37,rare,1,1,1,520.2450000001118,694.464999999851,3
sub103,real,38,common,0,1,1,542.4249999998137,344.7799999999115,2
sub103,real,39,rare,1,1,1,448.60000000020955,430.9549999999581,3
sub103,real,40,common,0,1,1,387.4550000000745,496.6150000001071,2
sub103,real,41,common,0,0,1,420.18000000016764,1870.395000000135,0
sub103,real,42,common,0,1,1,455.4200000000419,713.6499999999069,2
sub103,real,43,rare,0,2,1,551.3549999999814,522.734999999986,2
sub103,real,44,common,1,2,2,1430.454999999958,668.0250000000233,3
sub103,real,45,rare,0,2,0,512.5350000000326,514.6350000000093,2
sub103,real,46,rare,1,2,2,662.2599999997765,528.4799999999814,2
sub103,real,47,common,1,2,2,1543.7699999999022,777.0999999999767,3
sub103,real,48,common,1,2,2,438.39000000001397,495.54999999993015,3
sub103,real,49,rare,0,2,2,485.87999999988824,945.2549999998882,2
sub103,real,50,common,1,2,2,526.8550000000978,990.2049999997253,3
sub103,real,51,common,1,2,2,1281.4550000000745,493.48999999975786,3
sub103,real,52,common,0,2,2,580.6000000000931,557.3599999998696,3
sub103,real,53,rare,0,2,2,521.0700000000652,792.4799999999814,2
sub103,real,54,common,1,2,2,504.0449999999255,962.6300000001211,3
sub103,real,55,common,1,2,2,652.8149999999441,468.05999999982305,3
sub103,real,56,common,1,2,2,499.7049999998417,608.8349999999627,3
sub103,real,57,common,1,2,2,538.4050000000279,439.2449999998789,3
sub103,real,58,common,1,2,2,594.8900000001304,787.9000000001397,3
sub103,real,59,rare,1,2,2,431.97500000009313,702.2999999998137,2
sub103,real,60,common,0,2,2,655.1850000000559,863.2350000001024,3
sub103,real,61,rare,1,2,2,783.2550000001211,822.4799999999814,2
sub103,real,62,rare,1,2,2,658.6699999996927,705.7749999999069,2
sub103,real,63,common,1,2,2,600.2199999999721,709.3000000000466,3
sub103,real,64,common,1,2,2,483.3049999999348,588.6749999998137,3
sub103,real,65,common,1,2,2,539.0649999999441,903.690000000177,3
sub103,real,66,rare,1,2,2,612.9899999999907,492.1349999997765,2
sub103,real,67,common,1,2,2,637.5,1328.1899999999441,3
sub103,real,68,rare,1,2,2,647.4550000000745,474.71999999997206,2
sub103,real,69,common,1,2,2,416.96999999997206,554.3549999999814,3
sub103,real,70,rare,0,2,2,656.2450000001118,698.8400000000838,2
sub103,real,71,rare,0,2,2,2186.820000000065,501.7849999999162,2
sub103,real,72,rare,0,2,2,393.3599999998696,1174.2700000000186,2
sub103,real,73,common,1,0,1,1165.9550000000745,369.54000000003725,0
sub103,real,74,common,1,1,1,527.3249999999534,580.7299999999814,2
sub103,real,75,common,1,1,1,1410.75,326.7349999998696,2
sub103,real,76,rare,1,1,1,520.589999999851,580.1200000001118,3
sub103,real,77,common,0,1,1,560.7000000001863,536.8200000000652,2
sub103,real,78,common,0,1,1,609.5199999997858,615.9300000004005,2
sub103,real,79,rare,0,2,2,537.214999999851,647.4250000000466,2
sub103,real,80,rare,0,1,1,779.5550000001676,514.9850000003353,3
sub103,real,81,rare,1,1,1,672.9899999999907,1867.2949999999255,3
sub103,real,82,common,0,1,1,459.9299999999348,488.2550000001211,2
sub103,real,83,common,1,1,1,481.88500000024214,971.4050000002608,2
sub103,real,84,common,1,1,1,834.8299999998417,1643.1100000001024,2
sub103,real,85,common,1,1,1,519.5799999998417,657.7799999997951,2
sub103,real,86,rare,1,1,1,437.9450000000652,717.7349999998696,3
sub103,real,87,rare,0,1,1,2449.560000000056,1760.8850000002421,3
sub103,real,88,common,0,1,1,539.1899999999441,785.1000000000931,2
sub103,real,89,common,0,1,1,723.5450000003912,413.4049999997951,2
sub103,real,90,common,0,1,1,793.3149999999441,614.9500000001863,2
sub103,real,91,rare,1,1,1,391.5399999995716,1594.6699999999255,3
sub103,real,92,common,0,1,1,518.2249999998603,560.4099999999162,2
sub103,real,93,common,1,1,1,734.4699999999721,490.30500000016764,2
sub103,real,94,common,0,1,1,498.0649999997113,375.53000000026077,2
sub103,real,95,common,1,1,1,404.5600000002887,547.8349999999627,2
sub103,real,96,common,0,1,1,826.6950000000652,719.1300000001211,2
sub103,real,97,common,1,1,1,524.2349999998696,569.0200000000186,2
sub103,real,98,common,0,1,1,1123.6800000001676,657.8349999999627,2
sub103,real,99,rare,0,1,1,460.48999999975786,721.1749999995809,3
sub103,real,100,common,0,2,2,508.8950000000186,795.4800000002142,3
sub103,real,101,common,0,1,1,1249.2399999999907,364.214999999851,2
sub103,real,102,common,0,1,1,552.0799999998417,423.8549999999814,2
sub103,real,103,common,0,2,2,409.6649999995716,700.2700000004843,3
sub103,real,104,rare,1,2,2,103.18500000005588,467.4899999999907,2
sub103,real,105,common,1,2,2,55.389999999897555,440.12000000011176,3
sub103,real,106,common,0,2,2,717.2399999999907,681.1899999999441,3
sub103,real,107,rare,1,2,2,367.1100000003353,621.9850000003353,2
sub103,real,108,common,0,2,2,523.0699999998324,813.8100000002887,3
sub103,real,109,rare,0,2,2,657.5749999997206,797.3950000000186,2
sub103,real,110,common,1,2,2,447.9349999995902,546.3450000002049,3
sub103,real,111,common,1,2,2,999.8999999999069,368.1300000003539,3
sub103,real,112,common,0,2,2,588.8799999996554,1202.9549999996088,3
sub103,real,113,rare,1,2,2,714.5749999999534,358.55000000004657,2
sub103,real,114,rare,0,2,2,401.76499999989755,688.1699999999255,2
sub103,real,115,rare,1,2,2,771.1700000001583,577.4500000001863,2
sub103,real,116,common,0,2,2,512.8899999998976,435.4500000004191,3
sub103,real,117,common,0,2,2,390.55000000004657,539.6099999998696,3
sub103,real,118,common,1,1,1,909.9799999997485,867.3999999999069,2
sub103,real,119,rare,0,1,1,471.6399999996647,1418.964999999851,3
sub103,real,120,common,0,1,1,43.925000000046566,284.2150000000838,2
sub103,real,121,common,0,1,1,374.4350000000559,458.50000000023283,2
sub103,real,122,common,0,1,1,881.1099999996368,1278.1100000003353,2
sub103,real,123,common,0,1,1,603.3050000001676,866.6699999999255,2
sub103,real,124,common,0,2,2,736.9549999998417,559.8049999999348,3
sub103,real,125,rare,1,2,2,930.315000000177,582.0750000001863,2
sub103,real,126,common,0,2,2,770.6100000001024,644.4200000001583,3
sub103,real,127,common,0,2,2,889.0649999999441,649.3249999997206,3
sub103,real,128,common,1,1,1,1461.3400000000838,1144.1350000000093,2
sub103,real,129,common,1,1,1,521.3650000002235,699.6350000000093,2
sub103,real,130,common,0,1,1,980.4550000003073,795.5949999999721,2
sub103,real,131,common,0,1,1,138.5,451.3000000002794,2
sub103,real,132,NA,0,0,1,NA,26.114999999990687,0
sub103,real,133,common,0,1,1,95.2050000000745,744.1149999999907,2
sub103,real,134,rare,0,1,1,360.0149999996647,548.625,3
sub103,real,135,rare,0,1,1,177.35000000009313,422.6399999996647,3
sub103,real,136,common,0,2,2,121.93500000005588,415.9749999998603,3
sub103,real,137,common,0,2,0,490.99000000045635,2467.9849999998696,3
sub103,real,138,rare,0,1,2,935.9150000000373,527.0299999997951,3
sub103,real,139,common,1,1,1,321.7799999997951,444.75,2
sub103,real,140,common,1,1,1,448.2100000001956,506.4150000002701,2
sub103,real,141,common,0,1,1,434.875,487.0449999999255,2
sub103,real,142,common,1,1,1,720.2500000004657,444.5649999997113,2
sub103,real,143,rare,0,1,1,554.7900000000373,479.5100000000093,3
sub103,real,144,common,0,1,1,507.85000000009313,121.27999999979511,2
sub103,real,145,rare,0,1,1,424.2349999998696,1073.125,3
sub103,real,146,common,1,1,1,377.6199999996461,576.3799999998882,2
sub103,real,147,common,0,1,1,388.3849999997765,612.1549999997951,2
sub103,real,148,common,1,1,1,190.05999999982305,375.82499999995343,2
sub103,real,149,rare,1,1,1,499.28000000002794,1338.3149999999441,3
sub103,real,150,common,1,1,1,518.1149999999907,295.59000000031665,2
sub103,real,151,common,1,1,1,533.7600000000093,502.3699999998789,2
sub103,real,152,common,0,1,1,423.0450000001583,378.47999999974854,2
sub103,real,153,common,0,2,2,680.5349999999162,619.5699999998324,3
sub103,real,154,common,0,2,2,740.7849999999162,829.3500000005588,3
sub103,real,155,common,1,2,2,404.12999999988824,731.0949999999721,3
sub103,real,156,common,0,2,2,409.839999999851,446.4899999999907,3
sub103,real,157,rare,1,2,2,452.87499999976717,533.7800000002608,2
sub103,real,158,common,0,2,2,552.695000000298,625.945000000298,3
sub103,real,159,common,0,2,2,610.1199999998789,683.4200000001583,3
sub103,real,160,common,0,1,1,430.8149999997113,457.8550000002142,2
sub103,real,161,common,0,1,1,525.929999999702,554.3499999998603,2
sub103,real,162,common,0,1,1,510.339999999851,353.6399999996647,2
sub103,real,163,common,0,1,1,455.8899999996647,435.0799999998417,2
sub103,real,164,rare,0,1,1,569.4500000001863,442.75000000023283,3
sub103,real,165,common,1,1,1,235.3350000004284,494.4749999998603,2
sub103,real,166,rare,1,1,1,469.0149999996647,82.28499999991618,3
sub103,real,167,common,0,1,1,359.5099999997765,370.3149999999441,2
sub103,real,168,common,1,1,1,1866.4600000001956,421.87999999988824,2
sub103,real,169,common,0,1,1,335.57499999995343,331.9099999999162,2
sub103,real,170,common,1,1,1,558.5749999999534,530.1049999999814,2
sub103,real,171,common,1,1,1,406.0700000000652,370.5700000000652,2
sub103,real,172,rare,1,1,0,256.5199999997858,645.0699999998324,3
sub103,real,173,rare,1,1,2,538.2449999996461,464.5799999998417,3
sub103,real,174,common,1,2,2,406.34499999973923,553.8350000001956,3
sub103,real,175,common,1,2,2,151.91500000050291,355.4450000000652,3
sub103,real,176,common,0,2,2,397.21999999973923,8.264999999897555,3
sub103,real,177,common,1,1,1,1091.3500000000931,499.6650000002701,2
sub103,real,178,rare,1,1,1,420.90999999968335,623.6750000002794,3
sub103,real,179,common,0,1,1,485.92500000004657,982.6699999999255,2
sub103,real,180,common,1,1,1,1510.6299999998882,864.9750000000931,2
sub103,real,181,common,0,1,1,420.6649999995716,616.3249999999534,2
sub103,real,182,rare,1,1,1,442.1549999997951,771.7550000003539,3
sub103,real,183,common,0,1,1,651.3850000000093,373.9049999997951,2
sub103,real,184,common,1,0,1,502.4749999998603,363.24500000011176,0
sub103,real,185,common,0,0,2,134.7249999998603,350.22500000009313,0
sub103,real,186,common,0,2,2,435.8100000000559,528.6199999998789,3
sub103,real,187,rare,1,1,1,467.45000000018626,754.9499999999534,3
sub103,real,188,rare,0,1,0,162.22999999974854,322.21999999997206,3
sub103,real,189,common,1,1,1,366.2950000001583,386.81999999983236,2
sub103,real,190,common,0,1,1,811.7000000001863,381.7100000001956,2
sub103,real,191,rare,1,1,1,631.1099999996368,67.21500000008382,3
sub103,real,192,common,0,1,1,1046.6850000002887,584.0950000002049,2
sub103,real,193,common,0,1,1,713.2050000000745,746.4799999997485,2
sub103,real,194,common,0,1,1,428.68499999982305,418.4549999998417,2
sub103,real,195,common,1,1,0,266.46499999961816,598.6400000001304,2
sub103,real,196,rare,1,0,0,41.769999999785796,596.0450000003912,0
sub103,real,197,common,0,2,2,474.3349999997299,166.95500000054017,3
sub103,real,198,rare,1,2,0,435.27499999990687,439.44999999995343,2
sub103,real,199,rare,1,2,2,437.0350000008475,283.5200000000186,2
sub103,real,200,rare,0,2,2,395.125,110.39499999955297,2
sub104,real,1,common,1,1,1,862.184999999939,482.57500000007,2
sub104,real,2,common,0,1,1,318.559999999939,395.165000000037,2
sub104,real,3,common,0,1,1,397.79999999993,579.050000000047,2
sub104,real,4,common,1,1,2,541.189999999944,444.169999999925,2
sub104,real,5,rare,0,1,1,421.354999999981,643.434999999939,3
sub104,real,6,rare,1,1,2,357.759999999893,514.239999999991,3
sub104,real,7,common,1,1,2,398.130000000121,520.659999999916,2
sub104,real,8,common,1,1,2,403.784999999916,594.134999999776,2
sub104,real,9,common,1,1,2,321.385000000009,440,2
sub104,real,10,common,1,1,2,324.184999999939,410.984999999986,2
sub104,real,11,common,0,1,2,379.489999999991,468.069999999949,2
sub104,real,12,common,1,1,2,612.984999999986,512.635000000009,2
sub104,real,13,rare,1,1,2,312.044999999925,986.369999999763,3
sub104,real,14,common,0,1,2,327.174999999814,466.400000000023,2
sub104,real,15,rare,1,1,2,433.459999999963,762.79999999993,3
sub104,real,16,common,1,1,2,516.849999999977,624.985000000102,2
sub104,real,17,common,0,1,2,322.584999999963,343.73499999987,2
sub104,real,18,rare,1,2,2,303.810000000056,610.094999999972,2
sub104,real,19,common,1,2,2,327.939999999944,566.780000000028,3
sub104,real,20,rare,1,2,2,356.564999999828,483.569999999949,2
sub104,real,21,common,0,2,2,595.080000000075,361.969999999856,3
sub104,real,22,common,1,1,2,292.020000000135,362.194999999949,2
sub104,real,23,common,1,1,2,349.089999999851,400.60999999987,2
sub104,real,24,rare,1,1,2,300.780000000028,530.7150000002,3
sub104,real,25,rare,1,1,2,402.175000000163,367.644999999786,3
sub104,real,26,rare,1,1,2,363.735000000102,435.285000000033,3
sub104,real,27,rare,1,1,2,345.935000000056,503.224999999977,3
sub104,real,28,common,1,1,2,421.140000000014,503.130000000005,2
sub104,real,29,common,0,1,2,286.084999999963,345.199999999953,2
sub104,real,30,common,0,2,2,614.160000000149,406.594999999856,3
sub104,real,31,common,0,2,2,371.539999999921,454.854999999865,3
sub104,real,32,common,1,2,1,301.399999999907,456.815000000061,3
sub104,real,33,common,0,2,1,347.480000000098,419.354999999981,3
sub104,real,34,common,1,2,1,526.479999999981,347.380000000237,3
sub104,real,35,rare,0,2,1,333.390000000014,418.415000000154,2
sub104,real,36,common,1,2,1,300.120000000112,419.064999999828,3
sub104,real,37,rare,1,2,2,340.165000000154,1523.93499999994,2
sub104,real,38,rare,0,1,1,193.714999999851,574.525000000023,3
sub104,real,39,common,1,1,2,469.340000000084,473.354999999865,2
sub104,real,40,common,1,1,2,294.534999999916,542.039999999804,2
sub104,real,41,common,1,1,2,339.304999999935,394.135000000009,2
sub104,real,42,rare,0,1,2,405.894999999902,432.764999999781,3
sub104,real,43,rare,0,1,1,409.540000000037,448.949999999953,3
sub104,real,44,common,0,1,2,321.885000000126,448.824999999953,2
sub104,real,45,common,0,1,1,318.714999999967,752.570000000182,2
sub104,real,46,common,0,1,2,334.700000000186,407.560000000172,2
sub104,real,47,common,0,2,2,293.910000000149,360.525000000023,3
sub104,real,48,common,0,2,1,663.560000000172,360.795000000042,3
sub104,real,49,rare,0,1,2,948.690000000177,971.375000000116,3
sub104,real,50,common,0,1,1,290.634999999776,441.309999999939,2
sub104,real,51,common,0,1,1,1226.63000000012,493.205000000075,2
sub104,real,52,rare,1,1,2,323.239999999991,327.260000000009,3
sub104,real,53,rare,1,2,2,302.565000000177,793.82500000007,2
sub104,real,54,rare,1,1,2,673.814999999828,601.740000000107,3
sub104,real,55,common,0,1,2,276.339999999851,616.895000000135,2
sub104,real,56,common,1,2,2,539.259999999776,391.73499999987,3
sub104,real,57,rare,1,2,2,312.235000000102,1286.81999999983,2
sub104,real,58,rare,1,2,2,389.734999999986,913.970000000088,2
sub104,real,59,common,1,2,2,340.615000000107,483.190000000177,3
sub104,real,60,common,1,2,2,349.025000000023,675.070000000065,3
sub104,real,61,common,1,2,2,471.214999999967,640.319999999949,3
sub104,real,62,rare,0,2,2,1355.99499999988,526.92499999993,2
sub104,real,63,rare,1,2,2,311.130000000005,409.164999999804,2
sub104,real,64,common,0,2,2,324.174999999814,506.180000000168,3
sub104,real,65,common,1,2,2,321.194999999832,440.054999999702,3
sub104,real,66,rare,1,2,2,277.610000000102,465.805000000168,2
sub104,real,67,common,1,2,2,364.060000000056,494.559999999823,3
sub104,real,68,rare,0,2,2,1067.93500000006,496.259999999776,2
sub104,real,69,common,0,2,2,341.605000000214,384.689999999944,3
sub104,real,70,common,1,2,2,307.379999999888,545.415000000037,3
sub104,real,71,common,1,2,2,325.139999999898,431.944999999832,3
sub104,real,72,common,0,2,2,339.790000000037,451.300000000279,3
sub104,real,73,common,1,2,1,398.760000000009,486.735000000102,3
sub104,real,74,rare,1,2,2,250.685000000056,890.925000000047,2
sub104,real,75,rare,0,2,2,350.659999999916,782.665000000037,2
sub104,real,76,common,0,2,1,425.699999999953,945.310000000056,3
sub104,real,77,common,1,2,2,318.114999999991,542.750000000233,3
sub104,real,78,rare,0,2,2,332.840000000084,495.429999999935,2
sub104,real,79,common,0,2,2,335.110000000102,359.190000000177,3
sub104,real,80,common,0,1,1,284.330000000307,361.794999999925,2
sub104,real,81,rare,1,1,2,278.209999999963,1023.75,3
sub104,real,82,common,0,2,2,357.925000000047,664.694999999832,3
sub104,real,83,rare,1,2,2,529.090000000084,1563.94500000007,2
sub104,real,84,common,1,1,2,315.804999999935,726.535000000149,2
sub104,real,85,common,0,1,2,452.625000000233,925.189999999944,2
sub104,real,86,common,0,1,2,516.030000000028,519.874999999767,2
sub104,real,87,rare,1,2,1,723.570000000065,1272.15500000003,2
sub104,real,88,rare,1,1,2,379.685000000056,1224.15500000003,3
sub104,real,89,common,0,1,1,444.839999999851,527.830000000075,2
sub104,real,90,common,1,2,2,376.949999999721,489.959999999963,3
sub104,real,91,common,0,2,2,342.214999999851,744.22499999986,3
sub104,real,92,common,0,2,2,321.494999999879,345.425000000047,3
sub104,real,93,common,0,1,1,5.93999999994412,418.369999999879,2
sub104,real,94,common,0,1,1,416.314999999944,839.130000000121,2
sub104,real,95,common,1,1,2,403.260000000009,414.119999999879,2
sub104,real,96,rare,0,1,1,324.84999999986,1047.74999999977,3
sub104,real,97,common,1,1,2,335.114999999991,406.610000000102,2
sub104,real,98,rare,0,1,2,347.479999999749,1010.51999999979,3
sub104,real,99,common,0,1,2,321.580000000075,510.25,2
sub104,real,100,rare,0,1,1,293.209999999963,672.435000000056,3
sub104,real,101,common,1,1,2,1330.50499999989,537.169999999925,2
sub104,real,102,common,1,1,2,441.625000000233,546.174999999814,2
sub104,real,103,common,1,1,2,269.680000000168,423.704999999842,2
sub104,real,104,common,1,1,2,722.679999999935,752.885000000009,2
sub104,real,105,rare,1,1,2,325.625,936.655000000028,3
sub104,real,106,rare,1,1,2,380.230000000214,375.030000000028,3
sub104,real,107,rare,0,1,2,432.120000000112,726.434999999823,3
sub104,real,108,common,0,1,2,321.125,433.074999999953,2
sub104,real,109,common,0,1,2,349.725000000093,456.635000000009,2
sub104,real,110,common,1,1,1,435.784999999916,371.444999999832,2
sub104,real,111,rare,1,1,1,540.479999999981,385.520000000251,3
sub104,real,112,rare,0,1,1,323.064999999944,705.339999999851,3
sub104,real,113,common,0,1,1,165.800000000047,717.219999999972,2
sub104,real,114,common,1,1,1,354.329999999842,800.34999999986,2
sub104,real,115,common,1,1,1,470.205000000075,735.40000000014,2
sub104,real,116,common,1,1,1,335.689999999711,639.664999999804,2
sub104,real,117,common,0,1,1,299.77500000014,503.149999999907,2
sub104,real,118,common,1,1,1,328.750000000233,610.425000000047,2
sub104,real,119,common,1,1,1,328.505000000354,497.259999999776,2
sub104,real,120,rare,0,1,2,306.340000000084,1047.15999999992,3
sub104,real,121,common,0,1,1,302.239999999991,472.449999999953,2
sub104,real,122,rare,0,1,2,324.795000000158,1375.1100000001,3
sub104,real,123,common,0,1,1,396.729999999981,391.804999999935,2
sub104,real,124,common,1,1,2,313.854999999981,472.524999999907,2
sub104,real,125,common,1,1,2,663.634999999776,694.934999999823,2
sub104,real,126,common,0,1,2,711.294999999925,528.169999999925,2
sub104,real,127,common,1,1,2,358.169999999925,488.774999999674,2
sub104,real,128,common,1,1,2,340.804999999702,428.505000000354,2
sub104,real,129,common,1,1,2,333.549999999814,400.694999999832,2
sub104,real,130,rare,0,1,2,363.405000000028,378.294999999925,3
sub104,real,131,rare,0,1,1,342.535000000149,550.105000000214,3
sub104,real,132,rare,0,1,1,269.145000000019,504.350000000093,3
sub104,real,133,common,0,1,2,357.520000000019,566.700000000186,2
sub104,real,134,common,1,1,2,300.729999999981,577.52500000014,2
sub104,real,135,rare,0,1,2,349.404999999795,1198.26500000013,3
sub104,real,136,rare,0,1,1,317.185000000289,682.635000000242,3
sub104,real,137,common,0,1,2,307.010000000009,421.875,2
sub104,real,138,common,1,1,2,386.165000000037,423.010000000009,2
sub104,real,139,common,0,1,1,357.879999999888,976.085000000196,2
sub104,real,140,rare,0,1,2,318.225000000093,953.125,3
sub104,real,141,rare,0,1,1,361.979999999981,688.844999999739,3
sub104,real,142,rare,0,1,2,285.675000000047,871.284999999683,3
sub104,real,143,common,0,1,2,515.869999999646,911.975000000093,2
sub104,real,144,common,0,1,2,344.955000000075,441.469999999739,2
sub104,real,145,common,0,1,1,347.644999999786,655.804999999935,2
sub104,real,146,common,1,1,1,447.060000000056,624.209999999963,2
sub104,real,147,common,0,1,1,631.625,497.044999999925,2
sub104,real,148,rare,0,1,1,482.555000000168,367.945000000065,3
sub104,real,149,common,1,1,1,308.024999999907,393.125000000233,2
sub104,real,150,common,0,1,1,347.760000000242,448.690000000177,2
sub104,real,151,rare,1,1,1,940.495000000345,1176.31999999983,3
sub104,real,152,common,0,1,1,333.020000000019,648.965000000317,2
sub104,real,153,common,1,2,1,282.705000000075,400.780000000494,3
sub104,real,154,common,1,2,1,337.660000000149,521.029999999795,3
sub104,real,155,rare,0,2,1,298.354999999749,463.935000000289,2
sub104,real,156,rare,0,2,2,284.449999999953,640.904999999795,2
sub104,real,157,rare,0,2,2,324.799999999814,618.64000000013,2
sub104,real,158,rare,0,2,1,249.274999999674,833.685000000056,2
sub104,real,159,rare,1,1,1,339.72499999986,432.804999999935,3
sub104,real,160,rare,1,1,1,348.270000000019,449.869999999879,3
sub104,real,161,rare,1,1,1,547.510000000242,618.125,3
sub104,real,162,rare,0,1,1,354.119999999879,681.175000000279,3
sub104,real,163,rare,1,1,1,451.759999999776,511.130000000354,3
sub104,real,164,rare,1,1,1,845.350000000093,707.570000000065,3
sub104,real,165,common,1,1,1,1147.60500000021,1304.27499999991,2
sub104,real,166,common,0,1,1,412.239999999991,1942.61999999988,2
sub104,real,167,common,0,1,2,728.595000000205,1049.21500000008,2
sub104,real,168,common,0,1,2,1253.14999999991,800.675000000047,2
sub104,real,169,common,0,1,1,841.949999999953,568.744999999879,2
sub104,real,170,common,0,2,1,329.960000000196,442.255000000121,3
sub104,real,171,common,1,2,1,326.270000000019,391.149999999907,3
sub104,real,172,common,0,2,1,325.814999999711,458.055000000168,3
sub104,real,173,common,1,2,1,365.975000000093,471.134999999776,3
sub104,real,174,common,1,2,1,333.0699999996,382.674999999814,3
sub104,real,175,rare,1,2,1,357.304999999935,462.820000000065,2
sub104,real,176,common,1,2,1,326.204999999842,633.850000000093,3
sub104,real,177,common,0,2,1,322.810000000289,456.949999999953,3
sub104,real,178,common,1,2,1,326.70999999973,426.455000000307,3
sub104,real,179,rare,0,2,1,387.905000000028,1183.07500000042,2
sub104,real,180,common,1,2,1,323.954999999842,619.510000000009,3
sub104,real,181,rare,1,2,1,266.459999999963,1192.29499999993,2
sub104,real,182,common,0,2,1,287.40000000014,776.135000000009,3
sub104,real,183,common,0,2,1,318.344999999739,480.270000000019,3
sub104,real,184,common,1,2,2,316.790000000037,417.074999999953,3
sub104,real,185,rare,0,2,1,405.580000000075,725.559999999823,2
sub104,real,186,common,1,2,2,348.450000000419,417.429999999935,3
sub104,real,187,common,0,2,2,293.669999999925,815.669999999925,3
sub104,real,188,common,0,2,2,508.990000000224,458.405000000261,3
sub104,real,189,rare,1,1,2,285.845000000205,1081.13999999966,3
sub104,real,190,common,1,1,1,346.14000000013,385.89000000013,2
sub104,real,191,rare,0,1,2,315.404999999795,528.66500000027,3
sub104,real,192,rare,0,1,2,267.930000000168,601.229999999749,3
sub104,real,193,rare,1,1,1,298.519999999786,888.010000000242,3
sub104,real,194,rare,1,1,1,333.200000000186,407.415000000037,3
sub104,real,195,common,1,1,1,332.860000000102,1121.27499999991,2
sub104,real,196,rare,0,1,1,323.324999999721,567.804999999935,3
sub104,real,197,common,0,1,1,334.034999999916,655.685000000056,2
sub104,real,198,common,1,1,1,336.024999999441,889.205000000075,2
sub104,real,199,common,1,1,1,292.565000000177,519.844999999739,2
sub104,real,200,common,1,1,1,452.905000000028,496.219999999972,2
sub105,real,1,common,1,2,2,1202.9699999984587,1252.5700000042561,3
sub105,real,2,rare,1,2,2,443.77499999967404,1074.2249999966007,2
sub105,real,3,common,1,2,2,414.2199999986915,688.7649999989662,3
sub105,real,4,common,0,2,2,337.16000000271015,460.76499999617226,3
sub105,real,5,common,1,2,2,322.295000005397,638.9849999977741,3
sub105,real,6,rare,1,2,2,334.6999999994878,1167.8749999990687,2
sub105,real,7,rare,0,2,2,390.01500000455417,406.2999999951571,2
sub105,real,8,common,1,2,2,294.7050000001909,464.6599999978207,3
sub105,real,9,common,1,2,2,302.75000000256114,388.785000002943,3
sub105,real,10,rare,1,2,2,307.89499999803957,534.8200000007637,2
sub105,real,11,common,1,2,2,301.39000000059605,352.7350000003353,3
sub105,real,12,rare,0,2,2,272.7999999988824,546.4950000022072,2
sub105,real,13,rare,0,2,2,298.57500000076834,524.3049999990035,2
sub105,real,14,rare,1,2,1,289.50500000058673,776.804999994114,2
sub105,real,15,common,1,2,2,333.95000000018626,835.4200000029523,3
sub105,real,16,common,1,2,2,497.5600000034319,897.15000000433065,3
sub105,real,17,common,1,2,2,295.97999999532476,696.2800000037532,3
sub105,real,18,common,0,2,2,593.9599999983329,543.7199999942677,3
sub105,real,19,common,1,2,2,304.72999999613967,634.8300000026356,3
sub105,real,20,rare,1,2,1,275.6500000032829,943.7599999946542,2
sub105,real,21,common,1,2,2,288.14499999862164,968.8099999985425,3
sub105,real,22,common,1,2,2,405.3700000003446,585.9200000049314,3
sub105,real,23,rare,1,2,1,262.40999999572523,915.3050000022631,2
sub105,real,24,rare,0,2,1,392.2400000010384,758.5699999982025,2
sub105,real,25,common,1,2,2,274.22500000102445,508.8099999993574,3
sub105,real,26,common,1,2,2,285.0999999938067,465.32999999902677,3
sub105,real,27,common,1,2,2,400.59499999904074,603.6500000045635,3
sub105,real,28,common,1,2,2,585.1249999979045,612.3250000018161,3
sub105,real,29,common,1,2,2,897.4149999995716,663.9150000046939,3
sub105,real,30,rare,1,2,1,1062.575000003446,1929.3150000011083,2
sub105,real,31,common,1,2,2,368.73999999812804,960.0050000008196,3
sub105,real,32,common,1,2,2,841.0549999971408,924.3900000001304,3
sub105,real,33,common,0,2,2,537.195000004489,598.105000004638,3
sub105,real,34,common,1,2,2,331.9449999979697,381.49500000150874,3
sub105,real,35,common,1,2,2,310.35500000137836,475.41500000073574,3
sub105,real,36,common,1,2,2,305.2399999941699,423.3249999959953,3
sub105,real,37,common,1,2,2,357.40500000235625,379.96999999461696,3
sub105,real,38,common,0,2,2,325.8300000014715,432.01499999850057,3
sub105,real,39,common,1,2,2,296.8800000017509,531.9749999979977,3
sub105,real,40,common,0,2,2,331.1050000048708,458.78000000072643,3
sub105,real,41,common,0,2,2,383.4750000021886,1043.1299999980256,3
sub105,real,42,common,1,2,1,940.3249999959953,624.7899999944493,3
sub105,real,43,rare,1,2,1,340.76000000629574,1177.7750000036322,2
sub105,real,44,common,0,2,1,438.4300000020303,423.47500000335276,3
sub105,real,45,common,1,2,1,407.8450000016019,514.2300000006799,3
sub105,real,46,common,0,2,1,528.2700000025798,436.69999999855645,3
sub105,real,47,common,1,1,1,710.0900000005495,315.64500000234693,2
sub105,real,48,common,1,1,1,404.71500000427477,373.275000005262,2
sub105,real,49,rare,0,1,1,477.3249999997206,348.0150000031572,3
sub105,real,50,common,1,1,1,440.3999999994412,535.3449999964796,2
sub105,real,51,rare,0,2,2,1634.724999996135,751.9249999967869,2
sub105,real,52,common,1,2,2,406.0349999999162,387.2399999962654,3
sub105,real,53,common,1,2,2,410.660000001546,626.8200000049546,3
sub105,real,54,common,1,2,2,304.8449999985751,522.5100000023376,3
sub105,real,55,common,1,2,2,298.85499999369495,367.72000000206754,3
sub105,real,56,common,0,2,2,320.92500000004657,523.9700000020675,3
sub105,real,57,rare,1,2,2,306.8700000003446,871.9799999962561,2
sub105,real,58,rare,1,2,2,356.62500000046566,483.17499999399297,2
sub105,real,59,rare,1,2,2,321.17499999748543,459.61499999975786,2
sub105,real,60,common,1,2,2,303.8500000038184,473.4100000059698,3
sub105,real,61,common,0,2,2,285.6749999993481,365.0049999996554,3
sub105,real,62,rare,0,2,2,259.68999999877997,639.82499999855645,2
sub105,real,63,common,0,2,2,294.0499999965541,395.5550000029616,3
sub105,real,64,common,1,2,1,699.0550000045914,408.79999999748543,3
sub105,real,65,common,0,2,1,350.27500000433065,373.7750000001397,3
sub105,real,66,rare,0,2,2,746.5000000011642,1169.5800000017043,2
sub105,real,67,common,0,2,1,416.6750000005122,622.4100000036415,3
sub105,real,68,rare,1,1,1,355.4050000021234,378.8849999983795,3
sub105,real,69,common,1,1,1,313.2599999953527,1704.34500000556,2
sub105,real,70,rare,0,1,1,552.5100000011735,968.9100000034086,3
sub105,real,71,common,1,1,1,540.1449999988545,480.84000000404194,2
sub105,real,72,common,1,1,1,310.40000000200234,662.3299999991432,2
sub105,real,73,rare,0,1,2,497.38999999687076,803.2899999960791,3
sub105,real,74,rare,1,1,2,357.5349999954924,919.935000005411,3
sub105,real,75,common,1,1,1,385.85000000614673,573.0900000054389,2
sub105,real,76,common,1,1,1,360.68999999412335,692.5849999971688,2
sub105,real,77,rare,1,1,2,359.8749999946449,872.8000000047032,3
sub105,real,78,common,0,1,1,475.96499999798834,648.1500000008382,2
sub105,real,79,common,1,1,1,367.1399999947753,500.0949999957811,2
sub105,real,80,rare,0,1,2,332.26500000455417,858.1900000062305,3
sub105,real,81,rare,0,1,2,340.07499999995343,753.114999999525,3
sub105,real,82,rare,0,1,1,370.3449999957811,608.7249999982305,3
sub105,real,83,common,1,1,1,316.5399999998044,633.3749999974389,2
sub105,real,84,common,1,1,1,312.275000003865,439.48499999544583,2
sub105,real,85,common,1,1,1,339.5400000009686,639.4900000013877,2
sub105,real,86,common,0,1,1,326.48499999777414,501.09999999403954,2
sub105,real,87,rare,0,1,1,333.0550000027288,384.65999999595806,3
sub105,real,88,common,1,1,1,362.2199999955483,538.59500000556,2
sub105,real,89,rare,1,1,2,410.4399999997113,667.7300000011455,3
sub105,real,90,common,0,1,1,379.1599999968894,598.664999997709,2
sub105,real,91,common,0,1,1,316.79000000446104,457.19500000262633,2
sub105,real,92,common,1,1,2,320.1100000005681,482.1599999994505,2
sub105,real,93,rare,1,1,2,518.6450000037439,739.0649999943562,3
sub105,real,94,rare,1,1,2,428.3450000002049,812.434999999823,3
sub105,real,95,common,0,1,2,352.2999999988824,512.2150000024121,2
sub105,real,96,common,1,1,2,310.57500000298023,519.5949999978766,2
sub105,real,97,common,1,1,2,395.0249999980442,588.1800000059884,2
sub105,real,98,common,1,1,2,420.19499999890104,447.94499999983236,2
sub105,real,99,common,0,1,2,453.9999999979045,609.8899999996647,2
sub105,real,100,common,1,1,2,399.23999999882653,477.15999999502674,2
sub105,real,101,common,0,2,2,2317.9999999993015,692.854999993695,3
sub105,real,102,rare,0,2,2,351.345000002766,969.019999996759,2
sub105,real,103,common,0,2,2,1851.7250000005588,663.0949999964796,3
sub105,real,104,common,0,2,1,582.9599999997299,766.7400000062771,3
sub105,real,105,common,0,2,1,348.6350000021048,773.3749999969732,3
sub105,real,106,common,1,1,2,387.4549999963492,428.8400000005495,2
sub105,real,107,common,0,1,2,417.0299999967683,557.4549999947194,2
sub105,real,108,common,0,1,2,430.7000000043772,453.2550000003539,2
sub105,real,109,common,0,1,1,284.7750000001397,440.759999997681,2
sub105,real,110,rare,1,1,1,303.6400000054855,1071.4399999997113,3
sub105,real,111,rare,1,1,1,402.43000000179745,911.3199999993667,3
sub105,real,112,common,0,1,1,357.7650000008289,497.40000000037253,2
sub105,real,113,common,0,2,1,335.33499999623746,519.3450000006706,3
sub105,real,114,common,1,2,1,345.8150000006426,428.67999999737367,3
sub105,real,115,common,1,2,1,354.7550000003539,492.4299999985378,3
sub105,real,116,rare,1,2,1,367.31999999750406,1439.149999998277,2
sub105,real,117,common,1,2,1,485.5699999970384,615.9100000003818,3
sub105,real,118,common,0,2,1,451.73500000243075,584.0150000003632,3
sub105,real,119,common,0,2,1,311.2550000003539,584.5600000028498,3
sub105,real,120,common,1,2,2,569.7949999959674,442.76999999419786,3
sub105,real,121,common,1,2,2,509.105000004638,401.4799999932293,3
sub105,real,122,common,0,2,2,375.86500000185333,708.4249999970198,3
sub105,real,123,common,1,2,2,384.474999998929,493.5650000043679,3
sub105,real,124,common,0,2,2,391.800000004936,403.35999999661,3
sub105,real,125,common,0,2,2,391.78499999968335,285.11499999882653,3
sub105,real,126,common,1,1,2,949.4750000012573,409.84000000031665,2
sub105,real,127,common,0,1,2,334.18499999982305,289.00499999849126,2
sub105,real,128,common,0,1,2,288.5749999987893,319.78999999398366,2
sub105,real,129,rare,0,1,1,177.48500000010245,355.0600000016857,3
sub105,real,130,common,1,1,1,382.31000000075437,387.7100000027567,2
sub105,real,131,common,0,1,1,282.50000000116415,484.24000000511296,2
sub105,real,132,common,0,1,1,286.03000000305474,398.4249999995809,2
sub105,real,133,common,1,2,2,717.6049999978859,392.3950000028126,3
sub105,real,134,common,1,2,2,336.3899999966379,364.5350000006147,3
sub105,real,135,rare,0,2,2,352.68000000342727,951.8499999977648,2
sub105,real,136,rare,0,2,2,410.88000000291504,713.585000005085,2
sub105,real,137,common,1,2,2,333.6750000016764,537.3549999929965,3
sub105,real,138,rare,0,2,1,321.9949999982491,748.375000002794,2
sub105,real,139,common,1,2,2,293.0350000024773,430.07000000216067,3
sub105,real,140,common,0,2,2,428.9149999967776,779.9200000008568,3
sub105,real,141,common,1,2,2,294.2399999955669,524.2500000020955,3
sub105,real,142,common,1,2,2,338.51499999593943,385.72500000009313,3
sub105,real,143,rare,0,2,1,354.58500000089407,849.5650000041351,2
