subject_id,practice_trial,age,trial,transition,reward,choice_1,choice_2,rt_1,rt_2,previous_reward,previous_transition,previous_choice,stay,age_group
sub1,real,17.05555556,10,common,1,1,2,263.55000003241,554.3850001413375,Reward,common,1,1,Adolescents
sub1,real,17.05555556,11,rare,0,1,2,433.8150001130998,1334.8600000608712,Reward,common,1,1,Adolescents
sub1,real,17.05555556,12,common,0,1,2,352.5000000372529,753.2200000714511,No Reward,rare,1,1,Adolescents
sub1,real,17.05555556,13,rare,0,2,2,541.8599999975413,1374.0049998741597,No Reward,common,1,0,Adolescents
sub1,real,17.05555556,14,common,0,1,1,273.30999984405935,1316.530000185594,No Reward,rare,2,0,Adolescents
sub1,real,17.05555556,15,common,0,2,2,321.76500000059605,1042.0050001703203,No Reward,common,1,0,Adolescents
sub1,real,17.05555556,16,common,0,2,1,277.765000006184,622.1099998801947,No Reward,common,2,1,Adolescents
sub1,real,17.05555556,17,common,1,1,2,404.8149997834116,758.0500000622123,No Reward,common,2,0,Adolescents
sub1,real,17.05555556,18,common,0,1,2,309.8649999592453,473.93500013276935,Reward,common,1,1,Adolescents
sub1,real,17.05555556,19,common,0,1,1,308.930000057444,478.0899998731911,No Reward,common,1,1,Adolescents
sub1,real,17.05555556,20,common,0,1,2,277.8900000266731,422.34999989159405,No Reward,common,1,1,Adolescents
sub1,real,17.05555556,21,common,1,2,2,722.150000045076,925.6049999967217,No Reward,common,1,0,Adolescents
sub1,real,17.05555556,22,rare,1,2,2,438.6400000657886,551.1799999512732,Reward,common,2,1,Adolescents
sub1,real,17.05555556,23,common,0,2,2,547.9150000028312,547.8550000116229,Reward,rare,2,1,Adolescents
sub1,real,17.05555556,24,common,0,1,2,282.6050000730902,475.1299999188632,No Reward,common,2,0,Adolescents
sub1,real,17.05555556,25,common,1,2,2,422.9399999603629,325.4999998025596,No Reward,common,1,0,Adolescents
sub1,real,17.05555556,26,common,1,2,2,284.41000008024275,381.8099999334663,Reward,common,2,1,Adolescents
sub1,real,17.05555556,27,rare,1,1,2,307.5749999843538,301.41500011086464,Reward,common,2,0,Adolescents
sub1,real,17.05555556,28,rare,1,2,2,261.6900000721216,789.2700000666082,Reward,rare,1,0,Adolescents
sub1,real,17.05555556,29,common,1,1,2,315.8050000201911,579.9349998123944,Reward,rare,2,0,Adolescents
sub1,real,17.05555556,30,common,0,1,2,258.75500007532537,386.83999981731176,Reward,common,1,1,Adolescents
sub1,real,17.05555556,31,common,1,2,2,265.54500008933246,448.43999994918704,No Reward,common,1,0,Adolescents
sub1,real,17.05555556,32,rare,0,2,2,263.52500007487833,360.70499988272786,Reward,common,2,1,Adolescents
sub1,real,17.05555556,33,rare,0,1,2,1269.4900000933558,340.0099999271333,No Reward,rare,2,0,Adolescents
sub1,real,17.05555556,34,common,0,1,2,331.5050001256168,404.27000005729496,No Reward,rare,1,1,Adolescents
sub1,real,17.05555556,35,common,0,2,2,843.2550001889467,472.22999995574355,No Reward,common,1,0,Adolescents
sub1,real,17.05555556,36,rare,1,1,2,29.229999985545874,332.16500002890825,No Reward,common,2,0,Adolescents
sub1,real,17.05555556,37,common,1,1,2,504.8149998765439,831.7399998195469,Reward,rare,1,1,Adolescents
sub1,real,17.05555556,38,rare,1,1,2,268.92500021494925,405.9750000014901,Reward,common,1,1,Adolescents
sub1,real,17.05555556,39,rare,0,1,2,364.2550001386553,508.34499998018146,Reward,rare,1,1,Adolescents
sub1,real,17.05555556,40,common,1,1,2,291.3200000766665,627.1949999500066,No Reward,rare,1,1,Adolescents
sub1,real,17.05555556,41,common,0,1,2,142.73000019602478,355.77999986708164,Reward,common,1,1,Adolescents
sub1,real,17.05555556,42,common,0,1,2,816.080000018701,440.35499985329807,No Reward,common,1,1,Adolescents
sub1,real,17.05555556,43,rare,1,2,2,276.20500000193715,274.34500004164875,No Reward,common,1,0,Adolescents
sub1,real,17.05555556,44,common,0,2,2,308.3399999886751,613.7650001328439,Reward,rare,2,1,Adolescents
sub1,real,17.05555556,45,common,0,1,2,423.5000000335276,683.1749998964369,No Reward,common,2,0,Adolescents
sub1,real,17.05555556,46,common,1,2,2,535.3649999015033,423.4449998475611,No Reward,common,1,0,Adolescents
sub1,real,17.05555556,47,common,1,1,2,344.0849999897182,389.5799999590963,Reward,common,2,0,Adolescents
sub1,real,17.05555556,48,common,1,1,2,362.4849999323487,375.7949999999255,Reward,common,1,1,Adolescents
sub1,real,17.05555556,49,rare,0,1,2,284.57999997772276,421.7699998989701,Reward,common,1,1,Adolescents
sub1,real,17.05555556,50,common,1,2,2,317.85500003024936,857.5800000689924,No Reward,rare,1,0,Adolescents
sub1,real,17.05555556,51,rare,0,2,2,955.9400000143796,511.5200001746416,Reward,common,2,1,Adolescents
sub1,real,17.05555556,52,common,1,2,2,527.4400000926107,587.9250001162291,No Reward,rare,2,1,Adolescents
sub1,real,17.05555556,53,rare,0,2,1,318.60000011511147,1221.129999961704,Reward,common,2,1,Adolescents
sub1,real,17.05555556,54,rare,1,1,2,611.5699999500066,350.73000006377697,No Reward,rare,2,0,Adolescents
sub1,real,17.05555556,55,common,1,2,2,390.54000005126,336.6150001529604,Reward,rare,1,0,Adolescents
sub1,real,17.05555556,56,rare,0,2,2,533.2799998577684,940.1750001125038,Reward,common,2,1,Adolescents
sub1,real,17.05555556,57,common,0,2,2,461.60499984398484,612.6200000289828,No Reward,rare,2,1,Adolescents
sub1,real,17.05555556,58,common,0,1,2,296.99499998241663,35.685000009834766,No Reward,common,2,0,Adolescents
sub1,real,17.05555556,59,common,1,2,2,308.54499991983175,280.060000019148,No Reward,common,1,0,Adolescents
sub1,real,17.05555556,60,common,0,2,2,385.72999997995794,386.9349998421967,Reward,common,2,1,Adolescents
sub1,real,17.05555556,61,rare,1,2,2,275.11500008404255,297.6600001566112,No Reward,common,2,1,Adolescents
sub1,real,17.05555556,62,rare,1,2,2,300.9949999395758,394.05500004068017,Reward,rare,2,1,Adolescents
sub1,real,17.05555556,63,rare,1,2,2,367.1499998308718,280.23499995470047,Reward,rare,2,1,Adolescents
sub1,real,17.05555556,64,common,0,2,2,331.03500003926456,1070.6899999640882,Reward,rare,2,1,Adolescents
sub1,real,17.05555556,65,common,0,1,2,286.6650000214577,359.5699998550117,No Reward,common,2,0,Adolescents
sub1,real,17.05555556,66,common,0,2,2,323.5049999784678,364.1800000332296,No Reward,common,1,0,Adolescents
sub1,real,17.05555556,67,common,1,2,2,459.2450000345707,346.5749998576939,No Reward,common,2,1,Adolescents
sub1,real,17.05555556,68,rare,0,2,2,335.74000000953674,518.9000000245869,Reward,common,2,1,Adolescents
sub1,real,17.05555556,69,common,0,1,1,214.7499998100102,776.4649998862296,No Reward,rare,2,0,Adolescents
sub1,real,17.05555556,70,common,1,2,2,867.7300000563264,339.2649998422712,No Reward,common,1,0,Adolescents
sub1,real,17.05555556,71,rare,0,2,2,622.3549998831004,704.3749999720603,Reward,common,2,1,Adolescents
sub1,real,17.05555556,72,common,1,2,2,334.6150000579655,611.6100000217557,No Reward,rare,2,1,Adolescents
sub1,real,17.05555556,73,common,0,2,2,303.94999985583127,332.5149999000132,Reward,common,2,1,Adolescents
sub1,real,17.05555556,74,rare,0,2,2,1095.9749999456108,361.03500006720424,No Reward,common,2,1,Adolescents
sub1,real,17.05555556,75,rare,1,1,2,590.0099999271333,762.2950000222772,No Reward,rare,2,0,Adolescents
sub1,real,17.05555556,76,common,1,1,2,431.370000122115,859.1750001069158,Reward,rare,1,1,Adolescents
sub1,real,17.05555556,77,common,1,2,2,908.0650000832975,540.8199999947101,Reward,common,1,0,Adolescents
sub1,real,17.05555556,78,common,0,2,2,310.8850000426173,392.214999999851,Reward,common,2,1,Adolescents
sub1,real,17.05555556,79,common,1,2,2,326.89999998547137,373.579999897629,No Reward,common,2,1,Adolescents
sub1,real,17.05555556,80,rare,0,2,2,349.22000020742416,776.0350001044571,Reward,common,2,1,Adolescents
sub1,real,17.05555556,81,rare,0,2,2,350.67999991588295,407.15500013902783,No Reward,rare,2,1,Adolescents
sub1,real,17.05555556,82,rare,0,1,2,386.8050000164658,653.4899999387562,No Reward,rare,2,0,Adolescents
sub1,real,17.05555556,83,common,1,2,2,294.8900000192225,645.8899998106062,No Reward,rare,1,0,Adolescents
sub1,real,17.05555556,84,rare,0,2,2,1984.1299999970943,641.4550000336021,Reward,common,2,1,Adolescents
sub1,real,17.05555556,85,common,0,1,2,266.9150000438094,490.25000003166497,No Reward,rare,2,0,Adolescents
sub1,real,17.05555556,86,rare,0,1,1,700.2549997996539,443.7600001692772,No Reward,common,1,1,Adolescents
sub1,real,17.05555556,87,common,0,2,1,510.49500005319715,428.8999999407679,No Reward,rare,1,0,Adolescents
sub1,real,17.05555556,88,common,0,2,2,391.49999991059303,426.19000002741814,No Reward,common,2,1,Adolescents
sub1,real,17.05555556,89,common,1,1,2,162.830000044778,361.8700001388788,No Reward,common,2,0,Adolescents
sub1,real,17.05555556,90,common,0,1,2,260.1099999155849,341.70000022277236,Reward,common,1,1,Adolescents
sub1,real,17.05555556,91,common,0,1,2,266.1349999252707,345.11999995447695,No Reward,common,1,1,Adolescents
sub1,real,17.05555556,92,common,0,2,2,329.3649998959154,502.1050001960248,No Reward,common,1,0,Adolescents
sub1,real,17.05555556,93,common,0,2,2,560.7949998229742,586.5700000431389,No Reward,common,2,1,Adolescents
sub1,real,17.05555556,94,rare,0,2,1,363.79499989561737,279.5250001363456,No Reward,common,2,1,Adolescents
sub1,real,17.05555556,95,common,0,2,2,393.8400000333786,409.85499997623265,No Reward,rare,2,1,Adolescents
sub1,real,17.05555556,96,rare,1,1,2,318.4199999086559,585.5350000783801,No Reward,common,2,0,Adolescents
sub1,real,17.05555556,97,common,1,1,2,264.02000011876225,671.4200000278652,Reward,rare,1,1,Adolescents
sub1,real,17.05555556,98,common,1,1,2,305.4599999450147,375.97499997355044,Reward,common,1,1,Adolescents
sub1,real,17.05555556,99,rare,0,1,2,569.3900000769645,453.07000004686415,Reward,common,1,1,Adolescents
sub1,real,17.05555556,100,common,0,2,2,370.060000102967,449.8250000178814,No Reward,rare,1,0,Adolescents
sub1,real,17.05555556,101,common,1,1,2,930.0800000783056,408.1250000745058,No Reward,common,2,0,Adolescents
sub1,real,17.05555556,102,common,0,1,2,406.59000002779067,537.779999896884,Reward,common,1,1,Adolescents
sub1,real,17.05555556,103,common,0,2,2,541.1099998746067,576.935000019148,No Reward,common,1,0,Adolescents
sub1,real,17.05555556,104,rare,0,1,2,299.654999980703,482.48000000603497,No Reward,common,2,0,Adolescents
sub1,real,17.05555556,105,common,0,1,2,364.1049999278039,422.78000013902783,No Reward,rare,1,1,Adolescents
sub1,real,17.05555556,106,rare,1,2,2,412.63499995693564,313.70999990031123,No Reward,common,1,0,Adolescents
sub1,real,17.05555556,107,common,1,2,2,330.1349999383092,685.7799999415874,Reward,rare,2,1,Adolescents
sub1,real,17.05555556,108,common,1,1,2,408.0650000832975,500.9700001683086,Reward,common,2,0,Adolescents
sub1,real,17.05555556,109,rare,1,1,2,32.06499991938472,420.7349999342114,Reward,common,1,1,Adolescents
sub1,real,17.05555556,110,common,1,1,2,432.2150000371039,292.45500010438263,Reward,rare,1,1,Adolescents
sub1,real,17.05555556,111,common,1,1,2,599.3500000331551,399.7349999845028,Reward,common,1,1,Adolescents
sub1,real,17.05555556,112,common,0,2,2,347.97500004060566,329.76000010967255,Reward,common,1,0,Adolescents
sub1,real,17.05555556,113,rare,1,1,2,103.39999990537763,594.8699999134988,No Reward,common,2,0,Adolescents
sub1,real,17.05555556,114,common,0,1,2,21.004999987781048,286.3000000361353,Reward,rare,1,1,Adolescents
sub1,real,17.05555556,115,rare,1,1,2,364.50499994680285,467.65999984927475,No Reward,common,1,1,Adolescents
sub1,real,17.05555556,116,common,0,2,2,175.64000003039837,437.7599998842925,Reward,rare,1,0,Adolescents
sub1,real,17.05555556,117,common,1,1,2,358.38000010699034,354.4099999126047,No Reward,common,2,0,Adolescents
sub1,real,17.05555556,118,common,1,1,2,249.99499996192753,458.3000000566244,Reward,common,1,1,Adolescents
sub1,real,17.05555556,119,common,0,1,2,241.6699999012053,455.13000013306737,Reward,common,1,1,Adolescents
sub1,real,17.05555556,120,common,1,2,2,387.73999991826713,308.07500006631017,No Reward,common,1,0,Adolescents
sub1,real,17.05555556,121,rare,1,2,2,262.6600000075996,506.98999990709126,Reward,common,2,1,Adolescents
sub1,real,17.05555556,122,common,1,1,2,240.385000128299,322.87999987602234,Reward,rare,2,0,Adolescents
sub1,real,17.05555556,123,common,0,1,2,35.74500000104308,406.2650001142174,Reward,common,1,1,Adolescents
sub1,real,17.05555556,124,common,0,2,2,2672.9749999940395,955.0999999046326,No Reward,common,1,0,Adolescents
sub1,real,17.05555556,125,common,1,1,2,100.31500016339123,376.09999999403954,No Reward,common,2,0,Adolescents
sub1,real,17.05555556,126,common,0,1,2,257.54000013694167,269.7550000157207,Reward,common,1,1,Adolescents
sub1,real,17.05555556,127,common,1,1,2,251.70000013895333,405.9199998155236,No Reward,common,1,1,Adolescents
sub1,real,17.05555556,128,common,0,1,2,321.54500018805265,392.2749999910593,Reward,common,1,1,Adolescents
sub1,real,17.05555556,129,common,0,2,2,355.9900000691414,493.11999999918044,No Reward,common,1,0,Adolescents
sub1,real,17.05555556,130,common,0,1,2,716.3400000426918,269.20000021345913,No Reward,common,2,0,Adolescents
sub1,real,17.05555556,131,rare,1,2,2,283.34500011987984,546.0399999283254,No Reward,common,1,0,Adolescents
sub1,real,17.05555556,132,common,1,1,2,836.7550000548363,466.4749999064952,Reward,rare,2,0,Adolescents
sub1,real,17.05555556,133,rare,0,1,2,933.2449999637902,509.3549999874085,Reward,common,1,1,Adolescents
sub1,real,17.05555556,134,common,1,1,2,674.2749998811632,572.3549998365343,No Reward,rare,1,1,Adolescents
sub1,real,17.05555556,135,common,1,1,2,466.1699999123812,443.37500003166497,Reward,common,1,1,Adolescents
sub1,real,17.05555556,136,common,1,1,2,555.7900001294911,364.9450000375509,Reward,common,1,1,Adolescents
sub1,real,17.05555556,137,common,0,1,2,453.0750000849366,584.7199999261647,Reward,common,1,1,Adolescents
sub1,real,17.05555556,138,common,0,2,2,282.20999985933304,791.7750000488013,No Reward,common,1,0,Adolescents
sub1,real,17.05555556,139,common,1,1,2,167.79499989934266,435.6499998830259,No Reward,common,2,0,Adolescents
sub1,real,17.05555556,140,common,1,1,2,256.1149999964982,387.8850000910461,Reward,common,1,1,Adolescents
sub1,real,17.05555556,141,common,1,1,2,280.765000032261,341.0750001203269,Reward,common,1,1,Adolescents
sub1,real,17.05555556,142,common,1,1,2,345.1549999881536,449.54499998129904,Reward,common,1,1,Adolescents
sub1,real,17.05555556,143,common,1,1,2,225.0700001604855,385.63999999314547,Reward,common,1,1,Adolescents
sub1,real,17.05555556,144,common,1,1,2,294.06500002369285,469.1200000233948,Reward,common,1,1,Adolescents
sub1,real,17.05555556,145,rare,0,1,2,393.03999999538064,890.2499999385327,Reward,common,1,1,Adolescents
sub1,real,17.05555556,146,common,1,1,2,10.590000078082085,446.95000001229346,No Reward,rare,1,1,Adolescents
sub1,real,17.05555556,147,common,0,1,2,259.97999985702336,410.4349999688566,Reward,common,1,1,Adolescents
sub1,real,17.05555556,148,common,1,1,2,210.02999995835125,536.324999993667,No Reward,common,1,1,Adolescents
sub1,real,17.05555556,149,common,0,1,2,292.8299999330193,383.05499986745417,Reward,common,1,1,Adolescents
sub1,real,17.05555556,150,rare,1,2,2,267.4899999983609,458.1400000024587,No Reward,common,1,0,Adolescents
sub1,real,17.05555556,151,common,1,1,2,524.0299999713898,296.875,Reward,rare,2,0,Adolescents
sub1,real,17.05555556,152,rare,0,1,2,235.0699999369681,364.5599998999387,Reward,common,1,1,Adolescents
sub1,real,17.05555556,153,rare,1,1,2,189.09500003792346,372.0549999270588,No Reward,rare,1,1,Adolescents
sub1,real,17.05555556,154,common,1,1,2,262.97500007785857,458.56000017374754,Reward,rare,1,1,Adolescents
sub1,real,17.05555556,155,common,0,1,2,301.1100001167506,595.90999991633,Reward,common,1,1,Adolescents
sub1,real,17.05555556,156,rare,0,1,2,325.7200000807643,401.5949999447912,No Reward,common,1,1,Adolescents
sub1,real,17.05555556,157,common,1,2,2,370.3950000926852,493.8149999361485,No Reward,rare,1,0,Adolescents
sub1,real,17.05555556,158,common,0,1,2,2530.385000165552,437.6499999780208,Reward,common,2,0,Adolescents
sub1,real,17.05555556,159,rare,1,2,2,251.15999998524785,394.7950000874698,No Reward,common,1,0,Adolescents
sub1,real,17.05555556,160,rare,1,1,2,289.8399999830872,699.1500000003725,Reward,rare,2,0,Adolescents
sub1,real,17.05555556,161,common,0,2,2,385.5050001293421,1097.6099998224527,Reward,rare,1,0,Adolescents
sub1,real,17.05555556,162,rare,1,1,2,292.6149999257177,372.535000089556,No Reward,common,2,0,Adolescents
sub1,real,17.05555556,163,common,0,1,2,1137.8200000617653,539.5850001368672,Reward,rare,1,1,Adolescents
sub1,real,17.05555556,164,rare,1,1,2,665.2799998410046,319.04500001110137,No Reward,common,1,1,Adolescents
sub1,real,17.05555556,165,common,1,1,2,606.2149999197572,1572.1899999771267,Reward,rare,1,1,Adolescents
sub1,real,17.05555556,166,common,1,2,2,545.1950000133365,663.4649999905378,Reward,common,1,0,Adolescents
sub1,real,17.05555556,167,common,1,2,2,253.09500005096197,286.894999910146,Reward,common,2,1,Adolescents
sub1,real,17.05555556,168,common,0,2,2,268.489999929443,427.6699998881668,Reward,common,2,1,Adolescents
sub1,real,17.05555556,169,common,0,1,2,273.3299999963492,350.61000008136034,No Reward,common,2,0,Adolescents
sub1,real,17.05555556,170,common,1,2,2,292.54000005312264,318.6300001107156,No Reward,common,1,0,Adolescents
sub1,real,17.05555556,171,rare,0,2,2,277.0649997983128,458.0399999395013,Reward,common,2,1,Adolescents
sub1,real,17.05555556,172,common,0,2,2,247.96499987132847,361.9399999734014,No Reward,rare,2,1,Adolescents
sub1,real,17.05555556,173,rare,1,2,2,338.32000009715557,362.5399998854846,No Reward,common,2,1,Adolescents
sub1,real,17.05555556,174,common,1,1,2,48.7750000320375,412.2000001370907,Reward,rare,2,0,Adolescents
sub1,real,17.05555556,175,common,0,1,2,346.43000015057623,548.6799997743219,Reward,common,1,1,Adolescents
sub1,real,17.05555556,176,common,1,2,2,273.6949999816716,390.7149999868125,No Reward,common,1,0,Adolescents
sub1,real,17.05555556,177,common,1,2,2,261.5800001658499,429.2099999729544,Reward,common,2,1,Adolescents
sub1,real,17.05555556,178,common,0,2,2,348.255000077188,380.1750000566244,Reward,common,2,1,Adolescents
sub1,real,17.05555556,179,common,0,1,2,321.50500011630356,344.76500004529953,No Reward,common,2,0,Adolescents
sub1,real,17.05555556,180,common,1,2,2,349.54000008292496,411.42000001855195,No Reward,common,1,0,Adolescents
sub1,real,17.05555556,181,common,1,2,2,201.42500009387732,388.9250000938773,Reward,common,2,1,Adolescents
sub1,real,17.05555556,182,rare,1,2,2,362.4299999792129,493.59999992884696,Reward,common,2,1,Adolescents
sub1,real,17.05555556,183,common,1,2,2,329.4899999164045,688.9800000935793,Reward,rare,2,1,Adolescents
sub1,real,17.05555556,184,common,1,2,2,298.4849999193102,347.5050001870841,Reward,common,2,1,Adolescents
sub1,real,17.05555556,185,common,0,2,2,449.5500000193715,496.1450002156198,Reward,common,2,1,Adolescents
sub1,real,17.05555556,186,rare,0,1,2,363.9549999497831,352.0800000987947,No Reward,common,2,0,Adolescents
sub1,real,17.05555556,187,common,1,1,2,359.94999995455146,461.57000004313886,No Reward,rare,1,1,Adolescents
sub1,real,17.05555556,188,common,1,1,2,319.78000001981854,468.9100000541657,Reward,common,1,1,Adolescents
sub1,real,17.05555556,189,common,0,1,2,378.8250000216067,518.7900001183152,Reward,common,1,1,Adolescents
sub1,real,17.05555556,190,common,0,2,2,522.2950000315905,560.4650001041591,No Reward,common,1,0,Adolescents
sub1,real,17.05555556,191,rare,0,2,2,382.3450000490993,395.7499999087304,No Reward,common,2,1,Adolescents
sub1,real,17.05555556,192,common,0,1,2,331.3400000333786,407.24000008776784,No Reward,rare,2,0,Adolescents
sub1,real,17.05555556,193,common,1,2,2,458.1349999643862,305.74500001966953,No Reward,common,1,0,Adolescents
sub1,real,17.05555556,194,rare,0,2,2,234.95499999262393,288.8599999714643,Reward,common,2,1,Adolescents
sub1,real,17.05555556,195,common,0,2,2,291.884999955073,467.475000070408,No Reward,rare,2,1,Adolescents
sub1,real,17.05555556,196,common,1,1,1,200.1449998933822,249.79500006884336,No Reward,common,2,0,Adolescents
sub1,real,17.05555556,197,rare,1,1,1,279.08500004559755,373.58999997377396,Reward,common,1,1,Adolescents
sub1,real,17.05555556,198,common,1,1,1,51.02499993517995,362.1300000231713,Reward,rare,1,1,Adolescents
sub1,real,17.05555556,199,rare,0,1,1,411.5300001576543,631.3000000081956,Reward,common,1,1,Adolescents
sub1,real,17.05555556,200,common,0,1,1,268.8300001900643,420.21000012755394,No Reward,rare,1,1,Adolescents
sub10,real,13.97222222,10,common,1,1,2,724.1700000013225,862.8649999736808,No Reward,rare,2,0,Adolescents
sub10,real,13.97222222,11,rare,0,2,1,902.8849999886006,3238.8450000435114,Reward,common,1,0,Adolescents
sub10,real,13.97222222,12,common,1,1,1,433.90999996336177,917.4249999923632,No Reward,rare,2,0,Adolescents
sub10,real,13.97222222,13,common,1,2,2,605.2949999575503,558.7750000413507,Reward,common,1,0,Adolescents
sub10,real,13.97222222,14,common,1,1,2,1105.2949999575503,522.1350000356324,Reward,common,2,0,Adolescents
sub10,real,13.97222222,15,rare,1,2,1,468.13499997369945,1722.4449999630451,Reward,common,1,0,Adolescents
sub10,real,13.97222222,16,common,0,1,2,554.5249999850057,1993.6849999940023,Reward,rare,2,0,Adolescents
sub10,real,13.97222222,17,common,0,2,2,452.980000001844,745.4649999854155,No Reward,common,1,0,Adolescents
sub10,real,13.97222222,18,common,1,1,1,649.0350000094622,601.0750000132248,No Reward,common,2,0,Adolescents
sub10,real,13.97222222,19,rare,1,2,1,600.4599999869242,951.3949999818578,Reward,common,1,0,Adolescents
sub10,real,13.97222222,20,common,1,2,2,1687.4199999729171,503.9799999794923,Reward,rare,2,1,Adolescents
sub10,real,13.97222222,21,rare,1,1,1,518.4100000187755,1496.3749999878928,Reward,common,2,0,Adolescents
sub10,real,13.97222222,22,common,0,1,1,895.9000000031665,767.6199999987148,Reward,rare,1,1,Adolescents
sub10,real,13.97222222,23,common,1,1,2,943.2600000291131,665.7899999991059,No Reward,common,1,1,Adolescents
sub10,real,13.97222222,24,rare,0,2,1,461.07999997911975,963.1899999803863,Reward,common,1,0,Adolescents
sub10,real,13.97222222,25,common,0,2,2,945.2349999919534,755.170000018552,No Reward,rare,2,1,Adolescents
sub10,real,13.97222222,26,common,1,1,1,626.5250000287779,1123.665000020992,No Reward,common,2,0,Adolescents
sub10,real,13.97222222,27,common,1,2,1,546.4650000212714,609.1050000395626,Reward,common,1,0,Adolescents
sub10,real,13.97222222,28,rare,0,1,1,573.1050000176765,411.68499999912456,Reward,common,2,0,Adolescents
sub10,real,13.97222222,29,common,1,2,1,57.28499998804182,947.6900000008754,No Reward,rare,1,0,Adolescents
sub10,real,13.97222222,30,rare,1,1,1,757.210000010673,514.8549999576062,Reward,common,2,0,Adolescents
sub10,real,13.97222222,31,rare,0,2,1,677.3350000148639,791.1849999800324,Reward,rare,1,0,Adolescents
sub10,real,13.97222222,32,common,0,1,1,1475.1450000330806,1416.8599999975413,No Reward,rare,2,0,Adolescents
sub10,real,13.97222222,33,common,1,1,2,513.6599999968894,441.89000001642853,No Reward,common,1,1,Adolescents
sub10,real,13.97222222,34,common,1,2,2,584.8600000026636,476.03499999968335,Reward,common,1,0,Adolescents
sub10,real,13.97222222,35,common,0,1,2,427.2800000035204,564.7949999547563,Reward,common,2,0,Adolescents
sub10,real,13.97222222,36,common,1,2,2,503.52500000735745,619.1150000086054,No Reward,common,1,0,Adolescents
sub10,real,13.97222222,37,common,0,1,1,547.8250000160187,572.0749999745749,Reward,common,2,0,Adolescents
sub10,real,13.97222222,38,rare,1,1,2,667.955000011716,657.5300000258721,No Reward,common,1,1,Adolescents
sub10,real,13.97222222,39,common,1,1,2,605.9099999838509,583.9799999957904,Reward,rare,1,1,Adolescents
sub10,real,13.97222222,40,rare,0,2,2,1585.2799999993294,468.85999996447936,Reward,common,1,0,Adolescents
sub10,real,13.97222222,41,common,1,2,2,750.9849999914877,437.73000000510365,No Reward,rare,2,1,Adolescents
sub10,real,13.97222222,42,rare,1,2,2,419.4650000426918,809.3950000475161,Reward,common,2,1,Adolescents
sub10,real,13.97222222,43,common,0,2,2,704.2749999673106,571.4300000108778,Reward,rare,2,1,Adolescents
sub10,real,13.97222222,44,rare,1,1,2,592.5050000078045,898.9700000383891,No Reward,common,2,0,Adolescents
sub10,real,13.97222222,45,common,1,2,2,671.8000000109896,597.0799999777228,Reward,rare,1,0,Adolescents
sub10,real,13.97222222,46,common,1,2,2,864.9549999972805,892.2100000199862,Reward,common,2,1,Adolescents
sub10,real,13.97222222,47,common,1,1,2,582.6250000391155,472.1399999689311,Reward,common,2,0,Adolescents
sub10,real,13.97222222,48,rare,1,2,2,533.7750000180677,898.064999957569,Reward,common,1,0,Adolescents
sub10,real,13.97222222,49,common,1,1,2,497.77000001631677,956.2249999726191,Reward,rare,2,0,Adolescents
sub10,real,13.97222222,50,common,1,2,2,346.1999999708496,504.88000002224,Reward,common,1,0,Adolescents
sub10,real,13.97222222,51,common,0,1,1,1401.804999972228,1096.384999982547,Reward,common,2,0,Adolescents
sub10,real,13.97222222,52,common,1,1,2,512.3749999911524,587.9149999818765,No Reward,common,1,1,Adolescents
sub10,real,13.97222222,53,common,0,2,1,668.6399999889545,549.7750000213273,Reward,common,1,0,Adolescents
sub10,real,13.97222222,54,common,1,2,2,490.9500000067055,453.0699999886565,No Reward,common,2,1,Adolescents
sub10,real,13.97222222,55,common,1,2,2,590.7550000119954,417.49000002164394,Reward,common,2,1,Adolescents
sub10,real,13.97222222,56,common,1,1,2,638.7250000261702,615.6649999902584,Reward,common,2,0,Adolescents
sub10,real,13.97222222,57,common,0,2,2,500.5300000193529,519.2650000099093,Reward,common,1,0,Adolescents
sub10,real,13.97222222,58,common,1,1,2,382.1150000439957,1213.6049999971874,No Reward,common,2,0,Adolescents
sub10,real,13.97222222,59,common,1,2,1,1672.77499998454,1364.5350000006147,Reward,common,1,0,Adolescents
sub10,real,13.97222222,60,rare,0,1,1,1511.2349999835715,1301.4749999856576,Reward,common,2,0,Adolescents
sub10,real,13.97222222,61,common,1,2,1,1265.590000024531,621.1550000007264,No Reward,rare,1,0,Adolescents
sub10,real,13.97222222,62,common,1,1,2,1404.7000000136904,1235.4449999984354,Reward,common,2,0,Adolescents
sub10,real,13.97222222,63,common,0,2,1,1685.8449999708682,947.1449999837205,Reward,common,1,0,Adolescents
sub10,real,13.97222222,64,common,1,1,2,726.7850000062026,486.70000000856817,No Reward,common,2,0,Adolescents
sub10,real,13.97222222,65,common,0,2,1,674.6900000143796,1169.2750000511296,Reward,common,1,0,Adolescents
sub10,real,13.97222222,66,common,1,1,2,1231.2650000094436,632.7550000278279,No Reward,common,2,0,Adolescents
sub10,real,13.97222222,67,rare,1,2,2,442.8150000167079,779.4149999972433,Reward,common,1,0,Adolescents
sub10,real,13.97222222,68,rare,1,1,2,1128.995000035502,1493.799999996554,Reward,rare,2,0,Adolescents
sub10,real,13.97222222,69,common,0,2,2,1428.9950000238605,1341.4149999734946,Reward,rare,1,0,Adolescents
sub10,real,13.97222222,70,common,1,2,2,956.3600000110455,1364.8599999723956,No Reward,common,2,1,Adolescents
sub10,real,13.97222222,71,common,0,2,1,2587.3849999625236,2054.9299999838695,Reward,common,2,1,Adolescents
sub10,real,13.97222222,72,common,1,2,2,2392.6800000481308,1250.9299999801442,No Reward,common,2,1,Adolescents
sub10,real,13.97222222,73,common,0,1,2,1658.3899999968708,2241.9649999937974,Reward,common,2,0,Adolescents
sub10,real,13.97222222,74,common,0,2,1,1759.4399999943562,1403.4400000236928,No Reward,common,1,0,Adolescents
sub10,real,13.97222222,75,common,1,2,2,1322.9799999971874,420.40000000270084,No Reward,common,2,1,Adolescents
sub10,real,13.97222222,76,common,0,1,2,474.2499999701977,469.36500002630055,Reward,common,2,0,Adolescents
sub10,real,13.97222222,77,rare,0,1,2,462.59000001009554,1204.6050000353716,No Reward,common,1,1,Adolescents
sub10,real,13.97222222,78,rare,0,1,1,558.0349999945611,1118.9800000283867,No Reward,rare,1,1,Adolescents
sub10,real,13.97222222,79,common,1,1,1,467.60500001255423,734.2600000556558,No Reward,rare,1,1,Adolescents
sub10,real,13.97222222,80,common,1,2,1,763.0450000287965,635.0000000093132,Reward,common,1,0,Adolescents
sub10,real,13.97222222,81,rare,0,1,1,480.0449999747798,599.3250000174157,Reward,common,2,0,Adolescents
sub10,real,13.97222222,82,common,1,1,1,662.6200000173412,800.5949999787845,No Reward,rare,1,1,Adolescents
sub10,real,13.97222222,83,common,0,2,1,551.1149999802001,652.5400000391528,Reward,common,1,0,Adolescents
sub10,real,13.97222222,84,common,1,2,2,388.9649999910034,482.9800000297837,No Reward,common,2,1,Adolescents
sub10,real,13.97222222,85,common,0,1,1,562.0600000256673,456.18500001728535,Reward,common,2,0,Adolescents
sub10,real,13.97222222,86,rare,0,2,2,436.565000039991,518.5399999609217,No Reward,common,1,0,Adolescents
sub10,real,13.97222222,87,common,0,2,2,687.0149999740534,598.9300000364892,No Reward,rare,2,1,Adolescents
sub10,real,13.97222222,88,common,1,1,1,417.37499996088445,765.3900000150315,No Reward,common,2,0,Adolescents
sub10,real,13.97222222,89,rare,0,2,2,488.16000000806525,535.3400000021793,Reward,common,1,0,Adolescents
sub10,real,13.97222222,90,common,0,2,2,809.9899999797344,914.9350000079721,No Reward,rare,2,1,Adolescents
sub10,real,13.97222222,91,common,0,2,1,604.1349999723025,1371.5249999659136,No Reward,common,2,1,Adolescents
sub10,real,13.97222222,92,rare,1,2,1,760.0349999847822,1722.7999999886379,No Reward,common,2,1,Adolescents
sub10,real,13.97222222,93,rare,0,2,1,477.27000003214926,1622.090000018943,Reward,rare,2,1,Adolescents
sub10,real,13.97222222,94,common,0,2,2,596.3249999913387,567.3700000043027,No Reward,rare,2,1,Adolescents
sub10,real,13.97222222,95,common,0,2,1,467.1749999979511,635.489999956917,No Reward,common,2,1,Adolescents
sub10,real,13.97222222,96,common,0,2,2,381.56000000890344,602.6849999907427,No Reward,common,2,1,Adolescents
sub10,real,13.97222222,97,common,0,2,1,660.3400000021793,426.18500004755333,No Reward,common,2,1,Adolescents
sub10,real,13.97222222,98,rare,0,1,1,917.1499999938533,376.0650000185706,No Reward,common,2,0,Adolescents
sub10,real,13.97222222,99,common,1,1,1,460.5699999956414,468.2499999762513,No Reward,rare,1,1,Adolescents
sub10,real,13.97222222,100,common,0,2,1,475.23500001989305,614.8600000306033,Reward,common,1,0,Adolescents
sub10,real,13.97222222,101,common,1,1,1,1628.8800000329502,471.94000001763925,No Reward,common,2,0,Adolescents
sub10,real,13.97222222,102,common,0,1,2,465.48000001348555,483.5650000022724,Reward,common,1,1,Adolescents
sub10,real,13.97222222,103,common,1,1,1,645.8400000119582,482.86000004736707,No Reward,common,1,1,Adolescents
sub10,real,13.97222222,104,rare,0,2,2,609.4699999666773,413.46999997040257,Reward,common,1,0,Adolescents
sub10,real,13.97222222,105,common,0,2,2,366.19500000961125,497.39999999292195,No Reward,rare,2,1,Adolescents
sub10,real,13.97222222,106,common,0,2,1,443.87999997707084,422.36500000581145,No Reward,common,2,1,Adolescents
sub10,real,13.97222222,107,rare,0,2,2,467.6750000216998,453.62499996554106,No Reward,common,2,1,Adolescents
sub10,real,13.97222222,108,rare,0,2,1,449.46500001242384,1215.8150000032037,No Reward,rare,2,1,Adolescents
sub10,real,13.97222222,109,common,0,2,1,627.390000037849,1237.3449999722652,No Reward,rare,2,1,Adolescents
sub10,real,13.97222222,110,rare,1,2,1,533.4550000261515,831.2399999704212,No Reward,common,2,1,Adolescents
sub10,real,13.97222222,111,rare,1,2,1,578.4950000233948,897.7849999791943,Reward,rare,2,1,Adolescents
sub10,real,13.97222222,112,common,1,2,2,674.8999999836087,1468.9249999937601,Reward,rare,2,1,Adolescents
sub10,real,13.97222222,113,common,0,1,1,497.9499999899417,583.0100000021048,Reward,common,2,0,Adolescents
sub10,real,13.97222222,114,common,0,2,1,523.5700000193901,776.7900000326335,No Reward,common,1,0,Adolescents
sub10,real,13.97222222,115,common,1,2,2,1285.0650000036694,666.1149999708869,No Reward,common,2,1,Adolescents
sub10,real,13.97222222,116,common,1,1,1,519.3350000190549,467.5099999876693,Reward,common,2,0,Adolescents
sub10,real,13.97222222,117,common,1,2,2,702.7200000011362,619.6149999741465,Reward,common,1,0,Adolescents
sub10,real,13.97222222,118,common,0,1,1,450.32999996328726,485.86499999510124,Reward,common,2,0,Adolescents
sub10,real,13.97222222,119,common,1,2,2,420.4800000297837,497.92500003241,No Reward,common,1,0,Adolescents
sub10,real,13.97222222,120,common,1,1,1,643.7549999682233,691.640000033658,Reward,common,2,0,Adolescents
sub10,real,13.97222222,121,rare,0,2,1,462.2249999665655,1180.4099999717437,Reward,common,1,0,Adolescents
sub10,real,13.97222222,122,common,1,2,2,830.5849999887869,1409.4849999528378,No Reward,rare,2,1,Adolescents
sub10,real,13.97222222,123,common,0,1,1,722.1650000428781,1455.1249999785796,Reward,common,2,0,Adolescents
sub10,real,13.97222222,124,common,0,2,2,544.0949999610893,1028.4399999654852,No Reward,common,1,0,Adolescents
sub10,real,13.97222222,125,rare,1,1,1,970.5499999690801,989.8050000192598,No Reward,common,2,0,Adolescents
sub10,real,13.97222222,126,rare,0,2,1,806.0849999892525,1223.7650000024587,Reward,rare,1,0,Adolescents
sub10,real,13.97222222,127,rare,0,2,1,579.9750000005588,1380.524999985937,No Reward,rare,2,1,Adolescents
sub10,real,13.97222222,128,rare,0,1,1,1877.405000035651,1217.6149999722838,No Reward,rare,2,0,Adolescents
sub10,real,13.97222222,129,common,1,1,1,716.6250000009313,1194.3650000030175,No Reward,rare,1,1,Adolescents
sub10,real,13.97222222,130,rare,0,2,1,653.7950000492856,1300.2500000293367,Reward,common,1,0,Adolescents
sub10,real,13.97222222,131,rare,1,2,1,1060.5050000012852,883.144999970682,No Reward,rare,2,1,Adolescents
sub10,real,13.97222222,132,common,0,2,2,815.4499999945983,1444.5249999989755,Reward,rare,2,1,Adolescents
sub10,real,13.97222222,133,common,1,1,1,795.0249999994412,892.4049999914132,No Reward,common,2,0,Adolescents
sub10,real,13.97222222,134,common,0,2,2,930.7350000017323,789.3399999593385,Reward,common,1,0,Adolescents
sub10,real,13.97222222,135,rare,0,2,1,436.8949999916367,1274.12000001641,No Reward,common,2,1,Adolescents
sub10,real,13.97222222,136,common,0,2,1,578.0249999952503,692.0699999900535,No Reward,rare,2,1,Adolescents
sub10,real,13.97222222,137,common,0,2,1,529.5599999953993,577.8000000282191,No Reward,common,2,1,Adolescents
sub10,real,13.97222222,138,common,1,2,1,536.2250000471249,477.3750000167638,No Reward,common,2,1,Adolescents
sub10,real,13.97222222,139,common,0,1,1,639.5200000260957,1261.949999956414,Reward,common,2,0,Adolescents
sub10,real,13.97222222,140,common,1,2,2,906.69999999227,1362.0149999624118,No Reward,common,1,0,Adolescents
sub10,real,13.97222222,141,rare,1,1,2,519.365000014659,814.9649999686517,Reward,common,2,0,Adolescents
sub10,real,13.97222222,142,common,0,1,1,441.73000002047047,1217.7349999547005,Reward,rare,1,1,Adolescents
sub10,real,13.97222222,143,common,0,1,1,568.8850000151433,676.1399999959394,No Reward,common,1,1,Adolescents
sub10,real,13.97222222,144,rare,0,1,2,571.5849999687634,1296.9650000450201,No Reward,common,1,1,Adolescents
sub10,real,13.97222222,145,common,1,1,2,581.5850000362843,511.3899999996647,No Reward,rare,1,1,Adolescents
sub10,real,13.97222222,146,common,1,2,1,783.0499999690801,733.7399999960326,Reward,common,1,0,Adolescents
sub10,real,13.97222222,147,rare,1,1,1,412.07999998005107,951.0250000166707,Reward,common,2,0,Adolescents
sub10,real,13.97222222,148,rare,1,1,2,605.1949999528006,963.0599999800324,Reward,rare,1,1,Adolescents
sub10,real,13.97222222,149,rare,0,1,1,425.66499998793006,1280.4999999934807,Reward,rare,1,1,Adolescents
sub10,real,13.97222222,150,rare,1,1,2,427.2449999698438,2189.4500000053085,No Reward,rare,1,1,Adolescents
sub10,real,13.97222222,151,common,1,1,1,1881.5150000154972,513.7600000016391,Reward,rare,1,1,Adolescents
sub10,real,13.97222222,152,common,0,1,2,478.66500000236556,597.1649999846704,Reward,common,1,1,Adolescents
sub10,real,13.97222222,153,rare,1,1,2,436.4350000396371,1343.460000003688,No Reward,common,1,1,Adolescents
sub10,real,13.97222222,154,common,1,2,1,462.9749999730848,799.959999974817,Reward,rare,1,0,Adolescents
sub10,real,13.97222222,155,common,1,2,2,807.7650000341237,626.2899999856018,Reward,common,2,1,Adolescents
sub10,real,13.97222222,156,common,0,2,1,626.6449999529868,581.6750000230968,Reward,common,2,1,Adolescents
sub10,real,13.97222222,157,common,0,2,2,408.8449999690056,492.374999972526,No Reward,common,2,1,Adolescents
sub10,real,13.97222222,158,rare,0,2,2,438.6850000009872,1664.310000021942,No Reward,common,2,1,Adolescents
sub10,real,13.97222222,159,common,1,1,1,357.785000000149,415.86999996798113,No Reward,rare,2,0,Adolescents
sub10,real,13.97222222,160,rare,1,1,1,407.0699999574572,1244.3550000316463,Reward,common,1,1,Adolescents
sub10,real,13.97222222,161,common,1,1,1,826.375000004191,608.1250000279397,Reward,rare,1,1,Adolescents
sub10,real,13.97222222,162,common,0,1,1,608.890000032261,591.6849999921396,Reward,common,1,1,Adolescents
sub10,real,13.97222222,163,common,1,1,2,547.7050000336021,448.4449999872595,No Reward,common,1,1,Adolescents
sub10,real,13.97222222,164,common,1,2,1,403.2100000185892,475.05499998806044,Reward,common,1,0,Adolescents
sub10,real,13.97222222,165,common,0,1,2,361.06999998446554,505.63000002875924,Reward,common,2,0,Adolescents
sub10,real,13.97222222,166,rare,1,2,2,434.270000027027,996.0449999780394,No Reward,common,1,0,Adolescents
sub10,real,13.97222222,167,common,0,2,1,492.4999999930151,606.6749999881722,Reward,rare,2,1,Adolescents
sub10,real,13.97222222,168,rare,0,1,2,452.2399999550544,466.1049999995157,No Reward,common,2,0,Adolescents
sub10,real,13.97222222,169,common,0,2,1,405.3100000019185,521.5300000272691,No Reward,rare,1,0,Adolescents
sub10,real,13.97222222,170,common,0,1,1,620.7099999883212,566.9000000343658,No Reward,common,2,0,Adolescents
sub10,real,13.97222222,171,common,0,1,2,397.91499997954816,798.4350000042468,No Reward,common,1,1,Adolescents
sub10,real,13.97222222,172,common,1,1,1,423.06500003905967,663.6050000088289,No Reward,common,1,1,Adolescents
sub10,real,13.97222222,173,rare,1,2,1,346.34000004734844,1169.9899999657646,Reward,common,1,0,Adolescents
sub10,real,13.97222222,174,rare,1,2,1,389.74999997299165,900.4249999998137,Reward,rare,2,1,Adolescents
sub10,real,13.97222222,175,common,0,2,2,366.80499999783933,701.4849999686703,Reward,rare,2,1,Adolescents
sub10,real,13.97222222,176,common,1,2,1,353.4599999547936,487.7299999934621,No Reward,common,2,1,Adolescents
sub10,real,13.97222222,177,common,0,2,1,602.2249999805354,433.1149999634363,Reward,common,2,1,Adolescents
sub10,real,13.97222222,178,rare,1,1,1,273.00499996636063,903.2400000141934,No Reward,common,2,0,Adolescents
sub10,real,13.97222222,179,rare,1,1,1,359.9600000306964,557.6749999891035,Reward,rare,1,1,Adolescents
sub10,real,13.97222222,180,rare,0,1,1,337.9049999639392,570.6249999930151,Reward,rare,1,1,Adolescents
sub10,real,13.97222222,181,common,0,1,1,337.485000025481,584.6549999550916,No Reward,rare,1,1,Adolescents
sub10,real,13.97222222,182,common,0,1,2,474.26499996799976,478.049999976065,No Reward,common,1,1,Adolescents
sub10,real,13.97222222,183,common,1,1,1,539.2400000127964,723.0400000116788,No Reward,common,1,1,Adolescents
sub10,real,13.97222222,184,common,1,2,1,424.3600000045262,505.42500003939494,Reward,common,1,0,Adolescents
sub10,real,13.97222222,185,common,0,2,1,392.71499996539205,594.4000000017695,Reward,common,2,1,Adolescents
sub10,real,13.97222222,186,rare,1,2,1,401.5500000095926,828.3149999915622,No Reward,common,2,1,Adolescents
sub10,real,13.97222222,187,rare,0,2,1,361.220000020694,746.3749999878928,Reward,rare,2,1,Adolescents
sub10,real,13.97222222,188,common,0,2,1,386.15000003483146,670.685000019148,No Reward,rare,2,1,Adolescents
sub10,real,13.97222222,189,common,1,1,2,444.1549999755807,499.6000000392087,No Reward,common,2,0,Adolescents
sub10,real,13.97222222,190,rare,1,2,2,437.15999997220933,769.0200000070035,Reward,common,1,0,Adolescents
sub10,real,13.97222222,191,common,0,1,2,380.91999996686354,457.24499999778345,Reward,rare,2,0,Adolescents
sub10,real,13.97222222,192,common,1,1,2,629.7800000174902,565.1450000004843,No Reward,common,1,1,Adolescents
sub10,real,13.97222222,193,common,1,2,2,705.8749999850988,451.9150000414811,Reward,common,1,0,Adolescents
sub10,real,13.97222222,194,common,1,1,2,672.6800000178628,471.3149999734014,Reward,common,2,0,Adolescents
sub10,real,13.97222222,195,common,0,2,2,425.9550000424497,637.1650000219233,Reward,common,1,0,Adolescents
sub10,real,13.97222222,196,common,1,1,2,262.95499998377636,461.39999997103587,No Reward,common,2,0,Adolescents
sub10,real,13.97222222,197,common,1,1,2,440.15999999828637,697.6750000030734,Reward,common,1,1,Adolescents
sub10,real,13.97222222,198,common,1,1,2,492.65999998897314,490.36499997600913,Reward,common,1,1,Adolescents
sub10,real,13.97222222,199,common,1,2,2,751.1749999830499,656.7800000193529,Reward,common,1,0,Adolescents
sub10,real,13.97222222,200,rare,0,1,2,479.1599999880418,921.8299999483861,Reward,common,2,0,Adolescents
sub100,real,10.71388889,10,rare,1,1,2,31.975000001722947,368.5200000000186,Reward,rare,1,1,Children
sub100,real,10.71388889,11,common,1,1,2,53.30999999935739,272.95500000042375,Reward,rare,1,1,Children
sub100,real,10.71388889,12,common,1,1,2,589.5549999986542,485.4249999988824,Reward,common,1,1,Children
sub100,real,10.71388889,13,rare,1,1,2,339.80000000155997,869.7799999973504,Reward,common,1,1,Children
sub100,real,10.71388889,14,common,0,1,1,470.7349999989383,1204.685000000638,Reward,rare,1,1,Children
sub100,real,10.71388889,15,rare,1,1,2,421.45000000169966,242.6800000029616,No Reward,common,1,1,Children
sub100,real,10.71388889,16,common,1,1,2,873.6900000004098,810.4400000011083,Reward,rare,1,1,Children
sub100,real,10.71388889,17,common,1,1,2,925.5950000005541,334.05999999749474,Reward,common,1,1,Children
sub100,real,10.71388889,18,common,1,1,2,147.2700000012992,739.1600000009639,Reward,common,1,1,Children
sub100,real,10.71388889,19,common,1,1,2,278.3999999992084,406.3349999997299,Reward,common,1,1,Children
sub100,real,10.71388889,20,common,1,1,1,1737.619999999879,494.21500000252854,Reward,common,1,1,Children
sub100,real,10.71388889,21,common,0,1,2,467.97499999962747,12.05000000121072,Reward,common,1,1,Children
sub100,real,10.71388889,22,rare,0,1,1,927.1649999973597,2205.0850000013597,No Reward,common,1,1,Children
sub100,real,10.71388889,23,rare,0,1,1,1063.1149999971967,1520.7799999988638,No Reward,rare,1,1,Children
sub100,real,10.71388889,24,rare,1,2,1,349.6099999975413,322.0500000024913,No Reward,rare,1,0,Children
sub100,real,10.71388889,25,common,1,1,2,451.36000000278,1274.7850000014296,Reward,rare,2,0,Children
sub100,real,10.71388889,26,common,1,1,2,396.3149999980815,554.5549999987707,Reward,common,1,1,Children
sub100,real,10.71388889,27,rare,0,1,2,248.82499999867287,96.92999999970198,Reward,common,1,1,Children
sub100,real,10.71388889,28,rare,1,1,2,377.5550000027288,262.78499999898486,No Reward,rare,1,1,Children
sub100,real,10.71388889,29,common,1,1,1,505.489999999525,2124.5099999977974,Reward,rare,1,1,Children
sub100,real,10.71388889,30,common,0,1,2,19.939999998314306,347.8849999993108,Reward,common,1,1,Children
sub100,real,10.71388889,31,rare,0,1,1,401.81999999913387,591.3299999992596,No Reward,common,1,1,Children
sub100,real,10.71388889,32,common,1,1,1,1010.1700000013225,241.28000000212342,No Reward,rare,1,1,Children
sub100,real,10.71388889,33,common,1,1,1,1121.5049999991897,678.6949999986682,Reward,common,1,1,Children
sub100,real,10.71388889,34,common,1,1,1,369.6750000017928,1359.4800000027753,Reward,common,1,1,Children
sub100,real,10.71388889,35,common,1,2,1,373.1200000002282,349.9599999994971,Reward,common,1,0,Children
sub100,real,10.71388889,36,common,1,2,1,344.7599999998929,150.08499999751803,Reward,common,2,1,Children
sub100,real,10.71388889,37,rare,1,1,2,768.0350000009639,599.9049999990966,Reward,common,2,0,Children
sub100,real,10.71388889,38,rare,1,2,2,32.25000000023283,182.039999999688,Reward,rare,1,0,Children
sub100,real,10.71388889,39,common,1,1,1,285.23000000126194,138.75000000186265,Reward,rare,2,0,Children
sub100,real,10.71388889,40,common,0,2,1,4.630000003031455,1.2300000017276034,Reward,common,1,0,Children
sub100,real,10.71388889,41,rare,1,1,2,147.90499999804888,144.16499999794178,No Reward,common,2,0,Children
sub100,real,10.71388889,42,common,0,2,1,0.4700000026496127,40.909999999799766,Reward,rare,1,0,Children
sub100,real,10.71388889,43,common,1,2,2,69.41499999817461,139.63499999954365,No Reward,common,2,1,Children
sub100,real,10.71388889,45,common,0,1,2,305.7750000007218,270.3750000001164,Reward,common,2,0,Children
sub100,real,10.71388889,46,common,0,1,1,7.8000000030733645,2134.489999996731,No Reward,common,1,1,Children
sub100,real,10.71388889,47,common,0,1,1,1352.7350000004517,67.85500000114553,No Reward,common,1,1,Children
sub100,real,10.71388889,48,rare,1,1,2,900.2199999995064,465.86000000021886,No Reward,common,1,1,Children
sub100,real,10.71388889,49,common,0,2,1,105.92999999795575,1583.3549999989336,Reward,rare,1,0,Children
sub100,real,10.71388889,50,rare,0,2,1,36.82500000286382,24.61000000045169,No Reward,common,2,1,Children
sub100,real,10.71388889,51,rare,1,1,2,1358.1049999992829,194.12999999988824,No Reward,rare,2,0,Children
sub100,real,10.71388889,52,common,0,2,2,35.60500000114553,26.56500000017695,Reward,rare,1,0,Children
sub100,real,10.71388889,53,common,0,2,2,10.655000001657754,47.81000000005588,No Reward,common,2,1,Children
sub100,real,10.71388889,54,rare,1,2,1,99.22999999974854,12.200000000884756,No Reward,common,2,1,Children
sub100,real,10.71388889,55,rare,1,2,2,108.34999999869615,9.649999999906868,Reward,rare,2,1,Children
sub100,real,10.71388889,56,rare,1,2,2,134.4649999991525,231.85999999986961,Reward,rare,2,1,Children
sub100,real,10.71388889,57,rare,0,1,2,18.110000000800937,18.860000000102445,Reward,rare,2,0,Children
sub100,real,10.71388889,58,common,1,2,2,7.395000000717118,71.98499999870546,No Reward,rare,1,0,Children
sub100,real,10.71388889,59,common,0,2,2,76.69499999959953,480.40000000037253,Reward,common,2,1,Children
sub100,real,10.71388889,60,common,1,1,2,60.11000000219792,133.2299999995157,No Reward,common,2,0,Children
sub100,real,10.71388889,61,rare,1,2,2,1114.1750000023749,214.3900000010617,Reward,common,1,0,Children
sub100,real,10.71388889,62,common,0,2,1,0.5899999996181577,2122.4650000003166,Reward,rare,2,1,Children
sub100,real,10.71388889,63,rare,0,2,2,2861.945000000531,62.519999999552965,No Reward,common,2,1,Children
sub100,real,10.71388889,64,common,1,1,2,33.6649999988731,304.9700000009034,No Reward,rare,2,0,Children
sub100,real,10.71388889,65,common,1,1,2,142.13999999989755,0.6250000006984919,Reward,common,1,1,Children
sub100,real,10.71388889,66,common,0,2,2,34.644999999785796,13.839999999618158,Reward,common,1,0,Children
sub100,real,10.71388889,67,common,1,1,2,590.2749999987427,0.6649999995715916,No Reward,common,2,0,Children
sub100,real,10.71388889,68,common,1,1,2,49.17999999830499,35.44999999948777,Reward,common,1,1,Children
sub100,real,10.71388889,69,rare,1,2,1,18.355000000214204,27.415000000502914,Reward,common,1,0,Children
sub100,real,10.71388889,70,common,1,2,2,174.18000000179745,147.49999999906868,Reward,rare,2,1,Children
sub100,real,10.71388889,71,common,1,1,2,114.12000000220723,373.599999998929,Reward,common,2,0,Children
sub100,real,10.71388889,72,common,1,1,2,301.554999998305,518.6499999980442,Reward,common,1,1,Children
sub100,real,10.71388889,73,rare,0,1,2,19.355000000447035,693.525000002468,Reward,common,1,1,Children
sub100,real,10.71388889,74,common,0,1,2,1028.3400000007823,86.64499999955297,No Reward,rare,1,1,Children
sub100,real,10.71388889,75,common,0,2,2,1288.290000000503,18.325000000884756,No Reward,common,1,0,Children
sub100,real,10.71388889,76,rare,0,1,1,58.22999999881722,177.03500000061467,No Reward,common,2,0,Children
sub100,real,10.71388889,77,common,1,2,2,189.93500000215136,793.9550000010058,No Reward,rare,1,0,Children
sub100,real,10.71388889,78,rare,1,2,2,585.1299999996554,657.1399999991991,Reward,common,2,1,Children
sub100,real,10.71388889,79,common,1,1,1,8.625000002095476,408.3250000004191,Reward,rare,2,0,Children
sub100,real,10.71388889,80,rare,0,1,1,145.30500000179745,1399.93500000122,Reward,common,1,1,Children
sub100,real,10.71388889,81,common,1,2,2,227.5450000015553,1694.985000001965,No Reward,rare,1,0,Children
sub100,real,10.71388889,83,common,1,1,1,0.4299999999348074,58.68500000005588,Reward,common,2,0,Children
sub100,real,10.71388889,84,common,0,1,2,69.03999999840744,304.3900000010617,Reward,common,1,1,Children
sub100,real,10.71388889,85,common,1,1,2,351.07000000053085,25.78999999957159,No Reward,common,1,1,Children
sub100,real,10.71388889,86,common,0,2,2,12.044999999459833,124.32999999867752,Reward,common,1,0,Children
sub100,real,10.71388889,87,rare,1,2,2,136.81999999959953,623.285000001546,No Reward,common,2,1,Children
sub100,real,10.71388889,88,common,0,2,2,658.6150000002235,541.8050000008661,Reward,rare,2,1,Children
sub100,real,10.71388889,89,common,1,2,2,280.74000000185333,1259.270000002347,No Reward,common,2,1,Children
sub100,real,10.71388889,90,common,1,2,2,1118.5850000001956,10.11500000092201,Reward,common,2,1,Children
sub100,real,10.71388889,91,common,0,2,2,2651.2699999986216,425.4749999998603,Reward,common,2,1,Children
sub100,real,10.71388889,92,common,1,2,2,117.68999999924563,473.75500000291504,No Reward,common,2,1,Children
sub100,real,10.71388889,93,common,0,2,2,255.80500000086613,890.559999999823,Reward,common,2,1,Children
sub100,real,10.71388889,94,common,0,2,2,353.5649999976158,446.73499999777414,No Reward,common,2,1,Children
sub100,real,10.71388889,95,rare,1,2,2,131.6850000002887,2075.724999998696,No Reward,common,2,1,Children
sub100,real,10.71388889,96,common,0,2,2,96.20999999972992,647.1850000014529,Reward,rare,2,1,Children
sub100,real,10.71388889,97,common,1,2,2,223.12500000046566,300.0599999977276,No Reward,common,2,1,Children
sub100,real,10.71388889,98,common,1,2,2,372.02500000060536,54.659999998053536,Reward,common,2,1,Children
sub100,real,10.71388889,99,common,0,2,2,804.0999999977648,21.884999998146668,Reward,common,2,1,Children
sub100,real,10.71388889,100,rare,1,2,2,268.2049999968149,400.9299999999348,No Reward,common,2,1,Children
sub100,real,10.71388889,101,common,0,1,2,1174.8599999991711,421.560000002617,Reward,rare,2,0,Children
sub100,real,10.71388889,102,common,0,2,1,182.3550000009127,3111.469999999972,No Reward,common,1,0,Children
sub100,real,10.71388889,103,common,1,2,2,77.45000000065193,97.49499999801628,No Reward,common,2,1,Children
sub100,real,10.71388889,104,rare,0,1,1,138.10999999986961,105.31500000087544,Reward,common,2,0,Children
sub100,real,10.71388889,105,rare,1,2,2,151.9350000016857,10.889999997569248,No Reward,rare,1,0,Children
sub100,real,10.71388889,106,common,1,1,2,32.11999999987893,50.82000000029802,Reward,rare,2,0,Children
sub100,real,10.71388889,107,common,0,2,1,527.0200000014156,110.29000000050291,Reward,common,1,0,Children
sub100,real,10.71388889,108,rare,0,2,1,362.57499999925494,41.9500000027474,No Reward,common,2,1,Children
sub100,real,10.71388889,109,common,0,2,2,111.60500000184402,285.20999999833293,No Reward,rare,2,1,Children
sub100,real,10.71388889,110,rare,0,2,2,599.4450000035577,740.6799999990035,No Reward,common,2,1,Children
sub100,real,10.71388889,111,common,1,1,1,27.62000000081025,424.32999999797903,No Reward,rare,2,0,Children
sub100,real,10.71388889,112,rare,1,2,2,276.16000000131316,188.3800000033807,Reward,common,1,0,Children
sub100,real,10.71388889,113,common,1,2,1,588.6599999975879,316.25999999954365,Reward,rare,2,1,Children
sub100,real,10.71388889,114,common,1,2,2,556.1900000029709,156.03000000212342,Reward,common,2,1,Children
sub100,real,10.71388889,115,common,1,2,1,30.01000000233762,207.55000000284053,Reward,common,2,1,Children
sub100,real,10.71388889,116,common,0,1,1,585.8700000026729,167.15499999909662,Reward,common,2,0,Children
sub100,real,10.71388889,117,rare,1,1,1,343.37999999849126,227.49000000115484,No Reward,common,1,1,Children
sub100,real,10.71388889,118,common,1,1,1,975.725000000326,13.68999999971129,Reward,rare,1,1,Children
sub100,real,10.71388889,119,common,1,1,1,54.860000000102445,94.32000000029802,Reward,common,1,1,Children
sub100,real,10.71388889,120,common,1,1,1,440.73999999812804,56.020000000018626,Reward,common,1,1,Children
sub100,real,10.71388889,121,common,1,1,1,12.535000001545995,1321.0050000017509,Reward,common,1,1,Children
sub100,real,10.71388889,122,rare,1,1,1,209.55999999912456,15.095000002533197,Reward,common,1,1,Children
sub100,real,10.71388889,123,common,0,1,1,637.0249999999069,65.11500000115484,Reward,rare,1,1,Children
sub100,real,10.71388889,124,common,0,1,1,445.31500000087544,1608.8950000011828,No Reward,common,1,1,Children
sub100,real,10.71388889,125,common,0,1,1,306.8600000005681,1812.8550000002142,No Reward,common,1,1,Children
sub100,real,10.71388889,126,common,1,1,1,384.83999999891967,224.99500000057742,No Reward,common,1,1,Children
sub100,real,10.71388889,127,common,1,1,1,141.51000000117347,140.94499999913387,Reward,common,1,1,Children
sub100,real,10.71388889,128,common,0,1,1,799.1550000007264,40.74999999650754,Reward,common,1,1,Children
sub100,real,10.71388889,129,common,0,1,1,195.85500000184402,204.4800000002142,No Reward,common,1,1,Children
sub100,real,10.71388889,130,common,1,1,1,1612.7600000000093,259.8800000012852,No Reward,common,1,1,Children
sub100,real,10.71388889,131,common,1,1,1,145.8299999977462,282.3599999975413,Reward,common,1,1,Children
sub100,real,10.71388889,132,common,0,1,1,0.6499999980442226,285.26000000024214,Reward,common,1,1,Children
sub100,real,10.71388889,133,common,1,1,1,401.79999999981374,478.9500000006519,No Reward,common,1,1,Children
sub100,real,10.71388889,134,common,1,1,1,940.3999999994412,7.960000002756715,Reward,common,1,1,Children
sub100,real,10.71388889,135,common,0,1,1,418.4500000011176,385.77000000094995,Reward,common,1,1,Children
sub100,real,10.71388889,136,rare,0,1,1,218.2299999985844,340.1649999981746,No Reward,common,1,1,Children
sub100,real,10.71388889,137,common,1,1,1,365.6650000009686,335.10000000009313,No Reward,rare,1,1,Children
sub100,real,10.71388889,138,rare,0,1,1,406.179999998305,2523.8349999999627,Reward,common,1,1,Children
sub100,real,10.71388889,139,common,0,1,1,289.78999999910593,696.3549999962561,No Reward,rare,1,1,Children
sub100,real,10.71388889,140,rare,0,1,1,101.28999999910593,120.45500000054017,No Reward,common,1,1,Children
sub100,real,10.71388889,141,common,1,1,1,6.15000000083819,1257.0950000006706,No Reward,rare,1,1,Children
sub100,real,10.71388889,142,common,0,1,1,211.54999999981374,3533.3749999990687,Reward,common,1,1,Children
sub100,real,10.71388889,143,rare,0,1,1,59.05499999783933,510.1749999993481,No Reward,common,1,1,Children
sub100,real,10.71388889,144,rare,0,1,1,1618.2050000028685,216.87000000011176,No Reward,rare,1,1,Children
sub100,real,10.71388889,145,common,1,1,1,1512.5200000004843,1433.554999999702,No Reward,rare,1,1,Children
sub100,real,10.71388889,146,common,0,1,1,1237.1699999999255,1551.709999999497,Reward,common,1,1,Children
sub100,real,10.71388889,147,rare,1,1,2,172.83499999763444,157.01000000257045,No Reward,common,1,1,Children
sub100,real,10.71388889,148,common,0,2,2,56.290000000502914,26.16499999910593,Reward,rare,1,0,Children
sub100,real,10.71388889,149,rare,1,2,2,103.80000000074506,117.08999999938533,No Reward,common,2,1,Children
sub100,real,10.71388889,150,rare,0,1,1,622.3400000017136,2620.689999999944,Reward,rare,2,0,Children
sub100,real,10.71388889,151,rare,1,1,2,676.9249999993481,92.089999998454,No Reward,rare,1,1,Children
sub100,real,10.71388889,152,rare,0,1,2,1.9150000005029142,50.43499999726191,Reward,rare,1,1,Children
sub100,real,10.71388889,153,common,0,1,2,0.47500000055879354,491.89999999757856,No Reward,rare,1,1,Children
sub100,real,10.71388889,154,common,0,1,2,7.24499999685213,619.5999999982305,No Reward,common,1,1,Children
sub100,real,10.71388889,155,common,0,1,1,422.5250000017695,449.8300000014715,No Reward,common,1,1,Children
sub100,real,10.71388889,156,common,0,2,2,253.0800000024028,751.4100000006147,No Reward,common,1,0,Children
sub100,real,10.71388889,157,rare,0,1,2,26.369999999646097,149.07499999785796,No Reward,common,2,0,Children
sub100,real,10.71388889,158,common,0,2,2,609.7449999982491,118.46499999985099,No Reward,rare,1,0,Children
sub100,real,10.71388889,159,common,0,2,1,141.09499999927357,1254.5649999994785,No Reward,common,2,1,Children
sub100,real,10.71388889,160,rare,0,1,1,648.3049999987707,534.8850000007078,No Reward,common,2,0,Children
sub100,real,10.71388889,162,common,1,1,2,2438.9350000019185,78.6549999974668,No Reward,rare,1,1,Children
sub100,real,10.71388889,163,common,1,2,1,495.7700000014156,673.5200000000186,Reward,common,1,0,Children
sub100,real,10.71388889,164,common,1,1,1,853.9549999986775,1026.5849999999627,Reward,common,2,0,Children
sub100,real,10.71388889,165,rare,1,1,1,359.86500000208616,224.20499999867752,Reward,common,1,1,Children
sub100,real,10.71388889,166,common,1,1,1,603.695000001695,669.2750000003725,Reward,rare,1,1,Children
sub100,real,10.71388889,167,rare,1,1,1,171.99500000057742,263.56500000087544,Reward,common,1,1,Children
sub100,real,10.71388889,168,common,1,1,1,934.1549999993294,18.029999999329448,Reward,rare,1,1,Children
sub100,real,10.71388889,169,common,1,1,1,833.214999998454,717.2900000005029,Reward,common,1,1,Children
sub100,real,10.71388889,170,common,0,1,1,109.29500000178814,44.27499999990687,Reward,common,1,1,Children
sub100,real,10.71388889,172,common,1,1,1,289.19500000122935,217.51500000013039,No Reward,common,1,1,Children
sub100,real,10.71388889,173,common,0,1,1,2270.239999997895,1092.9749999996275,Reward,common,1,1,Children
sub100,real,10.71388889,174,rare,1,1,1,2081.7999999998137,240.30499999923632,No Reward,common,1,1,Children
sub100,real,10.71388889,175,common,0,1,1,93.60999999986961,142.98499999847263,Reward,rare,1,1,Children
sub100,real,10.71388889,176,common,1,1,1,162.68999999715015,461.8750000009313,No Reward,common,1,1,Children
sub100,real,10.71388889,177,common,1,2,2,66.05000000167638,116.47000000067055,Reward,common,1,0,Children
sub100,real,10.71388889,178,common,1,1,1,190.46499999938533,476.70500000100583,Reward,common,2,0,Children
sub100,real,10.71388889,179,common,0,1,1,859.1149999992922,803.0149999978021,Reward,common,1,1,Children
sub100,real,10.71388889,180,common,1,1,1,944.6349999997765,939.8099999995902,No Reward,common,1,1,Children
sub100,real,10.71388889,181,common,1,1,1,352.03499999968335,542.2249999972992,Reward,common,1,1,Children
sub100,real,10.71388889,182,common,1,1,1,1157.769999998156,257.7149999993853,Reward,common,1,1,Children
sub100,real,10.71388889,183,common,0,1,1,234.86499999882653,1811.6999999983236,Reward,common,1,1,Children
sub100,real,10.71388889,184,common,0,1,1,397.8700000005774,2020.434999998659,No Reward,common,1,1,Children
sub100,real,10.71388889,185,rare,1,1,1,1494.6550000021234,1936.4950000015087,No Reward,common,1,1,Children
sub100,real,10.71388889,186,common,1,1,1,2928.0349999968894,2490.2650000001304,Reward,rare,1,1,Children
sub100,real,10.71388889,187,common,1,1,1,2061.6450000014156,586.5850000008941,Reward,common,1,1,Children
sub100,real,10.71388889,189,rare,1,1,1,1889.3249999997206,849.4900000002235,Reward,common,1,1,Children
sub100,real,10.71388889,190,common,0,1,1,306.0349999978207,0.6250000004656613,Reward,rare,1,1,Children
sub100,real,10.71388889,191,common,0,1,1,298.589999998454,1219.7800000030547,No Reward,common,1,1,Children
sub100,real,10.71388889,193,common,1,1,1,271.86000000080094,2437.5849999999627,No Reward,common,1,1,Children
sub100,real,10.71388889,195,rare,1,1,1,1924.1750000002794,1500.5350000024773,Reward,common,1,1,Children
sub100,real,10.71388889,196,common,0,1,1,85.45999999856576,139.33499999996275,Reward,rare,1,1,Children
sub100,real,10.71388889,197,rare,1,1,1,1630.004999998957,2143.555000002496,No Reward,common,1,1,Children
sub100,real,10.71388889,198,common,1,1,1,575.2350000003353,1078.8549999995157,Reward,rare,1,1,Children
sub100,real,10.71388889,199,common,0,1,1,2956.429999998305,162.73499999800697,Reward,common,1,1,Children
sub101,real,18.47777778,10,common,1,2,1,254.97999996878207,491.1250000586733,No Reward,common,2,1,Adults
sub101,real,18.47777778,11,common,0,2,1,374.4650000007823,531.1649999348447,Reward,common,2,1,Adults
sub101,real,18.47777778,12,common,1,2,1,310.4900000616908,532.245000009425,No Reward,common,2,1,Adults
sub101,real,18.47777778,13,common,0,2,1,276.3099999865517,699.724999954924,Reward,common,2,1,Adults
sub101,real,18.47777778,14,common,1,2,2,317.2150000464171,995.4600000055507,No Reward,common,2,1,Adults
sub101,real,18.47777778,15,common,1,2,2,429.134999983944,529.7049999935552,Reward,common,2,1,Adults
sub101,real,18.47777778,16,rare,1,2,2,267.8600000217557,402.1550000179559,Reward,common,2,1,Adults
sub101,real,18.47777778,17,common,0,2,2,281.734999967739,496.309999958612,Reward,rare,2,1,Adults
sub101,real,18.47777778,18,common,0,2,1,382.24999990779907,537.209999980405,No Reward,common,2,1,Adults
sub101,real,18.47777778,19,rare,1,2,2,271.3350000558421,350.75500002130866,No Reward,common,2,1,Adults
sub101,real,18.47777778,20,rare,1,2,2,417.47499990742654,537.1450000675395,Reward,rare,2,1,Adults
sub101,real,18.47777778,21,rare,0,2,2,472.7699999930337,632.5400000205263,Reward,rare,2,1,Adults
sub101,real,18.47777778,22,rare,1,2,2,255.18500001635402,395.4399999929592,No Reward,rare,2,1,Adults
sub101,real,18.47777778,23,common,1,2,2,344.2199999699369,572.2449999302626,Reward,rare,2,1,Adults
sub101,real,18.47777778,24,common,1,2,2,323.7799999769777,543.125000083819,Reward,common,2,1,Adults
sub101,real,18.47777778,25,common,1,2,2,337.13999995961785,781.7950000753626,Reward,common,2,1,Adults
sub101,real,18.47777778,26,common,1,2,2,208.91500008292496,565.1799999177456,Reward,common,2,1,Adults
sub101,real,18.47777778,27,rare,0,2,2,498.24500002432615,435.31999993138015,Reward,common,2,1,Adults
sub101,real,18.47777778,28,common,0,2,2,318.70000006165355,394.5449999300763,No Reward,rare,2,1,Adults
sub101,real,18.47777778,29,common,0,2,1,245.99500000476837,544.4050000514835,No Reward,common,2,1,Adults
sub101,real,18.47777778,30,common,0,2,2,343.4000000124797,923.0949999764562,No Reward,common,2,1,Adults
sub101,real,18.47777778,31,rare,1,2,1,284.3400000128895,882.9000000841916,No Reward,common,2,1,Adults
sub101,real,18.47777778,32,rare,1,2,1,367.9250000277534,602.8850000584498,Reward,rare,2,1,Adults
sub101,real,18.47777778,33,common,1,2,1,441.03999994695187,440.01500005833805,Reward,rare,2,1,Adults
sub101,real,18.47777778,34,common,1,2,1,359.4100000336766,1008.8899999391288,Reward,common,2,1,Adults
sub101,real,18.47777778,35,common,0,2,1,423.2149999588728,608.6249999934807,Reward,common,2,1,Adults
sub101,real,18.47777778,36,common,0,2,2,394.71500006038696,564.2549999756739,No Reward,common,2,1,Adults
sub101,real,18.47777778,37,common,0,2,1,398.04000000003725,635.7950000092387,No Reward,common,2,1,Adults
sub101,real,18.47777778,38,rare,1,2,1,313.89500002842396,535.1100000552833,No Reward,common,2,1,Adults
sub101,real,18.47777778,39,common,0,2,2,411.0499999951571,339.464999968186,Reward,rare,2,1,Adults
sub101,real,18.47777778,40,common,1,2,1,498.5500000184402,968.05999998468906,No Reward,common,2,1,Adults
sub101,real,18.47777778,41,common,0,2,1,473.7399999285117,798.8649999024346,Reward,common,2,1,Adults
sub101,real,18.47777778,42,rare,1,2,2,280.19000007770956,597.9649999644607,No Reward,common,2,1,Adults
sub101,real,18.47777778,43,rare,1,2,2,310.38500007707626,358.85999992024153,Reward,rare,2,1,Adults
sub101,real,18.47777778,44,common,1,2,2,375.194999971427,596.8350000912324,Reward,rare,2,1,Adults
sub101,real,18.47777778,45,rare,0,2,2,506.3800000352785,518.43000005465,Reward,common,2,1,Adults
sub101,real,18.47777778,46,rare,0,2,1,524.2700000526384,366.3650000235066,No Reward,rare,2,1,Adults
sub101,real,18.47777778,47,rare,1,2,2,372.2800000105053,572.9799999389797,No Reward,rare,2,1,Adults
sub101,real,18.47777778,48,rare,1,2,2,515.7700000563636,863.8349999673665,Reward,rare,2,1,Adults
sub101,real,18.47777778,49,common,1,2,2,355.4149999981746,958.3049999782816,Reward,rare,2,1,Adults
sub101,real,18.47777778,50,rare,1,2,2,1081.0200000414625,451.45499997306615,Reward,common,2,1,Adults
sub101,real,18.47777778,51,common,0,2,2,1270.699999993667,321.2749999947846,Reward,rare,2,1,Adults
sub101,real,18.47777778,52,common,1,2,1,331.3550000311807,305.87999999988824,No Reward,common,2,1,Adults
sub101,real,18.47777778,53,common,0,2,1,346.99499991256744,491.6850000154227,Reward,common,2,1,Adults
sub101,real,18.47777778,54,rare,0,1,1,276.42999996896833,496.32999999448657,No Reward,common,2,0,Adults
sub101,real,18.47777778,55,common,1,1,1,298.53500006720424,859.4099999172613,No Reward,rare,1,1,Adults
sub101,real,18.47777778,56,common,0,1,1,298.36999997496605,457.9050000756979,Reward,common,1,1,Adults
sub101,real,18.47777778,57,common,1,1,2,434.9449999863282,918.9699999988079,No Reward,common,1,1,Adults
sub101,real,18.47777778,58,rare,0,1,2,270.8400000119582,667.4549999879673,Reward,common,1,1,Adults
sub101,real,18.47777778,59,common,0,2,1,656.6650000168011,520.1749999541789,No Reward,rare,1,0,Adults
sub101,real,18.47777778,60,common,1,2,2,626.8200000049546,354.9549999879673,No Reward,common,2,1,Adults
sub101,real,18.47777778,61,common,1,2,2,457.4600000632927,452.69499998539686,Reward,common,2,1,Adults
sub101,real,18.47777778,62,common,0,2,2,455.34999994561076,529.0299999760464,Reward,common,2,1,Adults
sub101,real,18.47777778,63,rare,1,2,2,323.2100000604987,431.89499992877245,No Reward,common,2,1,Adults
sub101,real,18.47777778,64,rare,1,2,2,312.900000018999,379.1199999395758,Reward,rare,2,1,Adults
sub101,real,18.47777778,65,common,1,2,1,327.3850000696257,795.9999999729916,Reward,rare,2,1,Adults
sub101,real,18.47777778,66,rare,1,2,2,376.43500010017306,346.7299999902025,Reward,common,2,1,Adults
sub101,real,18.47777778,67,common,1,2,1,568.959999945946,660.1000000955537,Reward,rare,2,1,Adults
sub101,real,18.47777778,68,rare,1,2,2,360.7649999903515,452.82000000588596,Reward,common,2,1,Adults
sub101,real,18.47777778,69,rare,0,2,2,649.6449999976903,638.7200000463054,Reward,rare,2,1,Adults
sub101,real,18.47777778,70,rare,0,2,1,1287.609999999404,491.35500006377697,No Reward,rare,2,1,Adults
sub101,real,18.47777778,71,common,0,2,1,355.6150000076741,1472.9850000003353,No Reward,rare,2,1,Adults
sub101,real,18.47777778,72,common,1,2,2,342.39000000525266,535.0750000216067,No Reward,common,2,1,Adults
sub101,real,18.47777778,73,common,1,2,2,325.0449999468401,668.0700000142679,Reward,common,2,1,Adults
sub101,real,18.47777778,74,rare,0,2,2,679.72999997437,406.79999999701977,Reward,common,2,1,Adults
sub101,real,18.47777778,75,common,0,2,2,322.1200000261888,605.9400000376627,No Reward,rare,2,1,Adults
sub101,real,18.47777778,76,common,1,2,1,458.4849999519065,620.8150000311434,No Reward,common,2,1,Adults
sub101,real,18.47777778,77,common,0,2,1,813.4749999735504,590.8100000815466,Reward,common,2,1,Adults
sub101,real,18.47777778,78,common,1,2,2,417.0849999645725,696.9350000144914,No Reward,common,2,1,Adults
sub101,real,18.47777778,79,rare,1,2,1,444.52999997884035,1394.5599999278784,Reward,common,2,1,Adults
sub101,real,18.47777778,80,common,0,2,2,317.47999996878207,541.0449999617413,Reward,rare,2,1,Adults
sub101,real,18.47777778,81,rare,1,2,1,316.87500001862645,415.720000048168,No Reward,common,2,1,Adults
sub101,real,18.47777778,82,common,0,2,1,318.8700000755489,1021.2899999460205,Reward,rare,2,1,Adults
sub101,real,18.47777778,83,common,0,2,2,258.7199999252334,435.49499998334795,No Reward,common,2,1,Adults
sub101,real,18.47777778,84,common,1,2,1,354.2750000488013,612.569999997504,No Reward,common,2,1,Adults
sub101,real,18.47777778,85,rare,1,2,1,327.18999998178333,587.3849999625236,Reward,common,2,1,Adults
sub101,real,18.47777778,86,rare,0,2,1,489.2599999438971,581.8750000325963,Reward,rare,2,1,Adults
sub101,real,18.47777778,87,common,1,2,2,318.83500004187226,964.5149999996647,No Reward,rare,2,1,Adults
sub101,real,18.47777778,88,common,0,2,2,389.7899999283254,412.63499995693564,Reward,common,2,1,Adults
sub101,real,18.47777778,89,common,0,2,1,767.3200001008809,607.1349999401718,No Reward,common,2,1,Adults
sub101,real,18.47777778,90,common,1,2,2,423.5800000606105,339.86000006552786,No Reward,common,2,1,Adults
sub101,real,18.47777778,91,common,0,2,2,386.1350000370294,624.0550000220537,Reward,common,2,1,Adults
sub101,real,18.47777778,92,rare,0,2,2,308.1850000889972,541.4700000546873,No Reward,common,2,1,Adults
sub101,real,18.47777778,93,common,0,2,1,344.83499999623746,664.1700000036508,No Reward,rare,2,1,Adults
sub101,real,18.47777778,94,rare,1,2,1,308.10999998357147,738.9599999878556,No Reward,common,2,1,Adults
sub101,real,18.47777778,95,rare,1,2,1,465.86499991826713,397.4600000074133,Reward,rare,2,1,Adults
sub101,real,18.47777778,96,common,0,2,2,410.98499996587634,372.33499996364117,Reward,rare,2,1,Adults
sub101,real,18.47777778,97,common,0,1,2,87.68499991856515,621.3849999476224,No Reward,common,2,0,Adults
sub101,real,18.47777778,98,common,0,2,2,362.67500009853393,954.8900000518188,No Reward,common,1,0,Adults
sub101,real,18.47777778,99,common,0,2,1,323.9649999886751,419.3149999482557,No Reward,common,2,1,Adults
sub101,real,18.47777778,100,rare,0,2,1,480.4700000677258,361.9549999712035,No Reward,common,2,1,Adults
sub101,real,18.47777778,101,common,0,2,1,1900.139999925159,623.410000000149,No Reward,rare,2,1,Adults
sub101,real,18.47777778,102,common,0,2,2,1050.58000003919,615.4849999584258,No Reward,common,2,1,Adults
sub101,real,18.47777778,103,common,0,1,1,519.2699999315664,705.0700000254437,No Reward,common,2,0,Adults
sub101,real,18.47777778,104,common,0,1,2,762.0599999791011,442.5999999511987,No Reward,common,1,1,Adults
sub101,real,18.47777778,105,common,0,1,1,353.63500006496906,917.1599999535829,No Reward,common,1,1,Adults
sub101,real,18.47777778,106,common,0,2,2,326.8699999898672,424.44999993313104,No Reward,common,1,0,Adults
sub101,real,18.47777778,107,common,1,2,1,376.44500005990267,512.6549999695271,No Reward,common,2,1,Adults
sub101,real,18.47777778,108,common,1,2,1,581.7749999696389,498.77499998547137,Reward,common,2,1,Adults
sub101,real,18.47777778,109,common,1,2,1,342.8050000220537,809.6000000368804,Reward,common,2,1,Adults
sub101,real,18.47777778,110,common,0,2,1,702.9549999861047,418.6350000090897,Reward,common,2,1,Adults
sub101,real,18.47777778,111,rare,1,2,1,446.87500002328306,564.2350000562146,No Reward,common,2,1,Adults
sub101,real,18.47777778,112,common,1,2,2,332.40999991539866,475.63000000081956,Reward,rare,2,1,Adults
sub101,real,18.47777778,113,common,1,2,2,871.1200000252575,678.6749999737367,Reward,common,2,1,Adults
sub101,real,18.47777778,114,rare,0,2,1,364.8749999701977,465.37999995052814,Reward,common,2,1,Adults
sub101,real,18.47777778,115,rare,0,2,2,642.8649999434128,279.1900000302121,No Reward,rare,2,1,Adults
sub101,real,18.47777778,116,rare,0,2,1,436.54999998398125,530.9049999341369,No Reward,rare,2,1,Adults
sub101,real,18.47777778,117,common,0,2,2,485.66000000573695,792.9400000721216,No Reward,rare,2,1,Adults
sub101,real,18.47777778,118,common,1,2,1,492.34499991871417,546.100000035949,No Reward,common,2,1,Adults
sub101,real,18.47777778,119,common,0,2,1,354.00499997194856,392.03500002622604,Reward,common,2,1,Adults
sub101,real,18.47777778,120,common,0,2,2,1719.7499999310821,492.5299999304116,No Reward,common,2,1,Adults
sub101,real,18.47777778,121,common,0,2,1,402.849999954924,445.32500009518117,No Reward,common,2,1,Adults
sub101,real,18.47777778,122,common,0,2,2,247.92500003241003,630.364999989979,No Reward,common,2,1,Adults
sub101,real,18.47777778,123,common,0,1,2,346.1850000312552,548.8749999785796,No Reward,common,2,0,Adults
sub101,real,18.47777778,124,common,1,1,1,224.01999996509403,465.459999977611,No Reward,common,1,1,Adults
sub101,real,18.47777778,125,rare,1,1,2,306.98500003200024,464.19000008609146,Reward,common,1,1,Adults
sub101,real,18.47777778,126,common,0,1,1,392.5949999829754,578.5850000102073,Reward,rare,1,1,Adults
sub101,real,18.47777778,127,rare,1,1,2,293.9699999988079,371.79500004276633,No Reward,common,1,1,Adults
sub101,real,18.47777778,128,rare,1,1,2,328.08000000659376,753.374999971129,Reward,rare,1,1,Adults
sub101,real,18.47777778,129,rare,1,1,2,255.72499993722886,371.0399999981746,Reward,rare,1,1,Adults
sub101,real,18.47777778,130,common,1,1,1,491.6100000264123,1060.924999997951,Reward,rare,1,1,Adults
sub101,real,18.47777778,131,common,0,1,1,497.4399999482557,315.6149999704212,Reward,common,1,1,Adults
sub101,real,18.47777778,132,common,0,1,2,241.67999997735023,659.294999903068,No Reward,common,1,1,Adults
sub101,real,18.47777778,133,common,0,1,1,302.2350000683218,644.43999994546175,No Reward,common,1,1,Adults
sub101,real,18.47777778,134,common,0,1,2,326.95000001695007,349.2499999701977,No Reward,common,1,1,Adults
sub101,real,18.47777778,135,common,0,2,1,251.9249999895692,310.2200001012534,No Reward,common,1,0,Adults
sub101,real,18.47777778,136,common,1,2,2,230.42000003624707,547.4099999992177,No Reward,common,2,1,Adults
sub101,real,18.47777778,137,common,0,2,2,374.5249999919906,489.7000000346452,Reward,common,2,1,Adults
sub101,real,18.47777778,138,rare,0,2,1,243.23000002186745,1278.2049999805167,No Reward,common,2,1,Adults
sub101,real,18.47777778,139,common,1,2,1,295.77500000596046,557.2000000393018,No Reward,rare,2,1,Adults
sub101,real,18.47777778,140,common,1,2,1,401.22999995946884,627.4200000334531,Reward,common,2,1,Adults
sub101,real,18.47777778,141,rare,0,2,2,449.64500004425645,367.4999999348074,Reward,common,2,1,Adults
sub101,real,18.47777778,142,common,1,2,1,842.1749999979511,346.6049999697134,No Reward,rare,2,1,Adults
sub101,real,18.47777778,143,common,0,2,1,307.92499997187406,698.0299999704584,Reward,common,2,1,Adults
sub101,real,18.47777778,144,common,0,2,2,621.1599999805912,422.62500000651926,No Reward,common,2,1,Adults
sub101,real,18.47777778,145,common,1,2,1,830.7149999309331,496.2649999652058,No Reward,common,2,1,Adults
sub101,real,18.47777778,146,common,0,2,1,781.2350000021979,534.6999999601394,Reward,common,2,1,Adults
sub101,real,18.47777778,147,common,1,2,1,450.1350000500679,340.22000001277775,No Reward,common,2,1,Adults
sub101,real,18.47777778,148,common,1,2,1,501.6250000335276,381.5150000154972,Reward,common,2,1,Adults
sub101,real,18.47777778,149,common,0,2,1,389.4850000506267,404.1549999965355,Reward,common,2,1,Adults
sub101,real,18.47777778,150,common,0,2,1,357.48500004410744,609.8749999655411,No Reward,common,2,1,Adults
sub101,real,18.47777778,151,common,0,2,2,2401.064999983646,426.4200000325218,No Reward,common,2,1,Adults
sub101,real,18.47777778,152,common,1,2,1,243.56500001158565,720.219999901019,No Reward,common,2,1,Adults
sub101,real,18.47777778,153,common,1,2,2,355.8849999681115,803.0949999811128,Reward,common,2,1,Adults
sub101,real,18.47777778,154,rare,0,2,1,311.8900000117719,682.7200000407174,Reward,common,2,1,Adults
sub101,real,18.47777778,155,common,0,2,2,2599.075000034645,2751.1999999405816,No Reward,rare,2,1,Adults
sub101,real,18.47777778,156,common,1,2,2,236.26000003423542,426.8750000046566,No Reward,common,2,1,Adults
sub101,real,18.47777778,157,rare,1,2,1,429.1699999012053,486.6850000107661,Reward,common,2,1,Adults
sub101,real,18.47777778,158,common,0,2,2,271.91000001039356,631.0199999716133,Reward,rare,2,1,Adults
sub101,real,18.47777778,159,rare,0,2,1,273.59999995678663,567.3849999438971,No Reward,common,2,1,Adults
sub101,real,18.47777778,160,common,0,2,2,288.0699998931959,246.78500008303672,No Reward,rare,2,1,Adults
sub101,real,18.47777778,161,common,0,2,1,388.80499999504536,691.6800000471994,No Reward,common,2,1,Adults
sub101,real,18.47777778,162,common,1,2,2,760.9550000634044,307.8199999872595,No Reward,common,2,1,Adults
sub101,real,18.47777778,163,rare,0,2,2,398.9800000563264,548.9400000078604,Reward,common,2,1,Adults
sub101,real,18.47777778,164,common,1,2,2,454.20999999623746,622.8250000858679,No Reward,rare,2,1,Adults
sub101,real,18.47777778,165,rare,1,2,1,339.59999994840473,333.45499995630234,Reward,common,2,1,Adults
sub101,real,18.47777778,166,rare,1,2,1,269.35499999672174,865.6000000191852,Reward,rare,2,1,Adults
sub101,real,18.47777778,167,common,1,2,2,298.59500005841255,504.7649999614805,Reward,rare,2,1,Adults
sub101,real,18.47777778,168,common,1,2,2,307.02000006567687,387.43000000249594,Reward,common,2,1,Adults
sub101,real,18.47777778,169,rare,1,2,1,334.1449999716133,605.9849999146536,Reward,common,2,1,Adults
sub101,real,18.47777778,170,common,1,2,2,301.78500001784414,432.52000003121793,Reward,rare,2,1,Adults
sub101,real,18.47777778,171,rare,0,1,1,339.0849999850616,563.8200000394136,Reward,common,2,0,Adults
sub101,real,18.47777778,172,common,1,2,2,299.570000031963,332.18999998643994,No Reward,rare,1,0,Adults
sub101,real,18.47777778,173,common,1,2,2,276.2250000378117,299.81999995652586,Reward,common,2,1,Adults
sub101,real,18.47777778,174,common,1,2,2,372.6650000317022,400.6650000810623,Reward,common,2,1,Adults
sub101,real,18.47777778,175,common,0,2,2,282.8849999932572,412.42499998770654,Reward,common,2,1,Adults
sub101,real,18.47777778,176,common,0,2,1,385.48000005539507,449.3400000501424,No Reward,common,2,1,Adults
sub101,real,18.47777778,177,common,0,2,1,169.91999989841133,213.43000000342727,No Reward,common,2,1,Adults
sub101,real,18.47777778,178,rare,0,2,2,216.32499992847443,328.8699999684468,No Reward,common,2,1,Adults
sub101,real,18.47777778,179,rare,1,2,1,305.1249999552965,495.2200000407174,No Reward,rare,2,1,Adults
sub101,real,18.47777778,180,common,0,2,2,375.11999998241663,328.5599999362603,Reward,rare,2,1,Adults
sub101,real,18.47777778,181,rare,1,2,1,272.12500001769513,283.59000000637025,No Reward,common,2,1,Adults
sub101,real,18.47777778,182,common,0,2,1,316.21499999891967,266.91000000573695,Reward,rare,2,1,Adults
sub101,real,18.47777778,183,common,0,2,2,214.36500002164394,475.43500002939254,No Reward,common,2,1,Adults
sub101,real,18.47777778,184,rare,1,2,1,281.45500004757196,355.5400000186637,No Reward,common,2,1,Adults
sub101,real,18.47777778,185,rare,1,2,1,292.52500005532056,378.9000000106171,Reward,rare,2,1,Adults
sub101,real,18.47777778,186,rare,0,2,1,530.2500000689179,845.9900000598282,Reward,rare,2,1,Adults
sub101,real,18.47777778,187,common,0,2,2,266.67500007897615,418.7000000383705,No Reward,rare,2,1,Adults
sub101,real,18.47777778,188,common,0,2,1,454.6150000533089,503.8700000150129,No Reward,common,2,1,Adults
sub101,real,18.47777778,189,rare,1,2,2,271.3350000558421,427.96000000089407,No Reward,common,2,1,Adults
sub101,real,18.47777778,190,common,1,2,2,311.8499999400228,1399.2099999450147,Reward,rare,2,1,Adults
sub101,real,18.47777778,191,common,0,2,2,489.5949999336153,302.1500000031665,Reward,common,2,1,Adults
sub101,real,18.47777778,192,rare,1,2,2,438.8499999186024,484.67999999411404,No Reward,common,2,1,Adults
sub101,real,18.47777778,193,rare,0,2,2,0.3250000299885869,327.5800000410527,Reward,rare,2,1,Adults
sub101,real,18.47777778,194,common,0,2,1,422.9899999918416,324.47999995201826,No Reward,rare,2,1,Adults
sub101,real,18.47777778,195,common,1,2,2,295.81499996129423,321.485000080429,No Reward,common,2,1,Adults
sub101,real,18.47777778,196,common,0,2,1,379.2899999534711,389.0400000382215,Reward,common,2,1,Adults
sub101,real,18.47777778,197,common,0,2,2,368.04500001017004,807.1299999719486,No Reward,common,2,1,Adults
sub101,real,18.47777778,198,rare,0,2,2,355.15000007580966,419.15999993216246,No Reward,common,2,1,Adults
sub101,real,18.47777778,199,rare,0,2,1,384.26500000059605,440.10000000707805,No Reward,rare,2,1,Adults
sub101,real,18.47777778,200,common,0,2,2,988.8100000098348,326.86500006821007,No Reward,rare,2,1,Adults
sub102,real,18.24722222,10,common,0,2,1,359.59000000730157,1458.2500000251457,Reward,common,1,0,Adults
sub102,real,18.24722222,11,rare,1,1,2,442.6749999402091,1539.9349998915568,No Reward,common,2,0,Adults
sub102,real,18.24722222,12,rare,1,2,1,1527.8000000398606,1271.8249999452382,Reward,rare,1,0,Adults
sub102,real,18.24722222,13,common,1,2,1,386.39999995939434,1820.934999966994,Reward,rare,2,1,Adults
sub102,real,18.24722222,14,common,0,1,1,824.6250000083819,2727.8199999127537,Reward,common,2,0,Adults
sub102,real,18.24722222,15,common,1,2,2,932.5699999462813,1882.2099999524653,No Reward,common,1,0,Adults
sub102,real,18.24722222,16,common,1,1,1,296.3299999246374,1226.535000023432,Reward,common,2,0,Adults
sub102,real,18.24722222,17,rare,1,2,1,303.0049999943003,1510.6200000736862,Reward,common,1,0,Adults
sub102,real,18.24722222,18,rare,0,1,2,304.5200000051409,1032.6549999881536,Reward,rare,2,0,Adults
sub102,real,18.24722222,19,common,1,2,2,662.03000000678,1421.9899999443442,No Reward,rare,1,0,Adults
sub102,real,18.24722222,20,rare,0,1,1,435.6499999994412,1082.7950000530109,Reward,common,2,0,Adults
sub102,real,18.24722222,21,common,0,2,2,321.52499991934747,1092.2349999891594,No Reward,rare,1,0,Adults
sub102,real,18.24722222,22,common,1,1,1,483.2199999364093,2527.5350000010803,No Reward,common,2,0,Adults
sub102,real,18.24722222,23,rare,0,2,2,398.28000008128583,1582.509999978356,Reward,common,1,0,Adults
sub102,real,18.24722222,24,common,0,2,1,320.81999990623444,1968.75,No Reward,rare,2,1,Adults
sub102,real,18.24722222,25,common,0,1,1,359.43000006955117,1786.7050000932068,No Reward,common,2,0,Adults
sub102,real,18.24722222,26,common,1,1,2,1559.4900000141934,2074.644999927841,No Reward,common,1,1,Adults
sub102,real,18.24722222,27,common,1,2,2,1646.3150000199676,2025.0050000613555,Reward,common,1,0,Adults
sub102,real,18.24722222,28,common,1,1,1,758.75499995891,2258.3299999823794,Reward,common,2,0,Adults
sub102,real,18.24722222,29,common,1,2,2,375.8300000336021,2071.125000016764,Reward,common,1,0,Adults
sub102,real,18.24722222,30,common,1,1,1,536.1200000625104,2275.950000039302,Reward,common,2,0,Adults
sub102,real,18.24722222,31,common,0,2,2,518.1800000136718,1790.7750000013039,Reward,common,1,0,Adults
sub102,real,18.24722222,32,common,1,1,1,689.6249999990687,1193.7349999789149,No Reward,common,2,0,Adults
sub102,real,18.24722222,33,common,0,1,1,746.1249999469146,573.4550000634044,Reward,common,1,1,Adults
sub102,real,18.24722222,34,common,1,2,2,497.4200000287965,929.8249999992549,No Reward,common,1,0,Adults
sub102,real,18.24722222,35,rare,0,1,1,361.4600000437349,2284.535000100732,Reward,common,2,0,Adults
sub102,real,18.24722222,36,common,1,2,2,357.7400000067428,684.3149999622256,No Reward,rare,1,0,Adults
sub102,real,18.24722222,37,common,0,2,2,751.3299999991432,683.9749999344349,Reward,common,2,1,Adults
sub102,real,18.24722222,38,common,1,1,1,40.30999995302409,894.1549999872223,No Reward,common,2,0,Adults
sub102,real,18.24722222,39,rare,1,2,1,45.559999998658895,1351.6100000124425,Reward,common,1,0,Adults
sub102,real,18.24722222,40,rare,0,1,1,1895.490000024438,2436.005000025034,Reward,rare,2,0,Adults
sub102,real,18.24722222,41,common,1,2,2,2519.1549999872223,1369.204999995418,No Reward,rare,1,0,Adults
sub102,real,18.24722222,42,rare,1,1,1,1224.2499999701977,1050.66499998793,Reward,common,2,0,Adults
sub102,real,18.24722222,43,rare,0,2,1,2601.0700000915676,1155.2000000374392,Reward,rare,1,0,Adults
sub102,real,18.24722222,44,common,1,1,2,280.8799999766052,2039.83500006143,No Reward,rare,2,0,Adults
sub102,real,18.24722222,45,rare,1,1,1,634.4100000569597,1684.7800000105053,Reward,common,1,1,Adults
sub102,real,18.24722222,46,common,0,2,2,498.81499994080514,1153.5750000039116,Reward,rare,1,0,Adults
sub102,real,18.24722222,47,common,1,1,1,205.78499999828637,1059.1049999929965,No Reward,common,2,0,Adults
sub102,real,18.24722222,48,common,1,2,2,1988.9849999453872,1037.1000000741333,Reward,common,1,0,Adults
sub102,real,18.24722222,49,common,0,1,1,447.6149999536574,611.185000045225,Reward,common,2,0,Adults
sub102,real,18.24722222,50,rare,0,2,1,346.8550000106916,1868.9349999185652,No Reward,common,1,0,Adults
sub102,real,18.24722222,51,common,1,1,2,1517.8349999478087,1292.7449999842793,No Reward,rare,2,0,Adults
sub102,real,18.24722222,52,rare,1,2,1,597.4799999967217,1291.4800000144169,Reward,common,1,0,Adults
sub102,real,18.24722222,53,common,0,1,2,927.8400000184774,782.8749999171123,Reward,rare,2,0,Adults
sub102,real,18.24722222,54,common,0,2,1,364.6650000009686,1057.6250000158325,No Reward,common,1,0,Adults
sub102,real,18.24722222,55,common,1,1,2,681.4099999610335,2527.334999991581,No Reward,common,2,0,Adults
sub102,real,18.24722222,56,common,0,2,2,333.4500000346452,2109.3950000358745,Reward,common,1,0,Adults
sub102,real,18.24722222,57,common,0,1,2,298.18500007968396,1718.7699999194592,No Reward,common,2,0,Adults
sub102,real,18.24722222,58,rare,0,1,1,375.4750000080094,1084.1299999738112,No Reward,common,1,1,Adults
sub102,real,18.24722222,59,rare,1,2,1,264.3099999986589,2193.3299999218434,No Reward,rare,1,0,Adults
sub102,real,18.24722222,60,common,1,2,2,365.1349999709055,2147.744999965653,Reward,rare,2,1,Adults
sub102,real,18.24722222,61,common,0,1,2,682.2950000641868,2804.3349999934435,Reward,common,2,0,Adults
sub102,real,18.24722222,64,common,0,1,2,433.8649999117479,1753.2600000267848,No Reward,common,1,1,Adults
sub102,real,18.24722222,65,rare,1,1,1,745.4999999608845,1854.7249999828637,No Reward,common,1,1,Adults
sub102,real,18.24722222,66,rare,1,2,1,2484.4649999868125,841.2150000222027,Reward,rare,1,0,Adults
sub102,real,18.24722222,67,common,0,2,1,2100.414999993518,1239.4799999892712,Reward,rare,2,1,Adults
sub102,real,18.24722222,68,common,0,2,2,361.81500006932765,661.5100000053644,No Reward,common,2,1,Adults
sub102,real,18.24722222,69,rare,0,1,2,1894.9149999534711,2932.7899999916553,No Reward,common,2,0,Adults
sub102,real,18.24722222,70,common,0,1,1,2395.6250000046566,3097.8549999417737,No Reward,rare,1,1,Adults
sub102,real,18.24722222,71,common,0,1,2,2086.295000044629,593.2899999897927,No Reward,common,1,1,Adults
sub102,real,18.24722222,72,common,1,2,2,930.9999999823049,1381.3549999613315,No Reward,common,1,0,Adults
sub102,real,18.24722222,73,rare,1,2,1,1658.3749999990687,972.7249999996275,Reward,common,2,1,Adults
sub102,real,18.24722222,74,common,1,1,2,2293.9499999629334,1004.0099999168888,Reward,rare,2,0,Adults
sub102,real,18.24722222,75,common,1,2,1,916.289999964647,703.7600000621751,Reward,common,1,0,Adults
sub102,real,18.24722222,76,common,1,1,2,454.1100000496954,622.8950000368059,Reward,common,2,0,Adults
sub102,real,18.24722222,77,rare,1,2,1,441.6699999710545,508.8850000174716,Reward,common,1,0,Adults
sub102,real,18.24722222,78,common,0,1,2,374.97999996412545,424.35999994631857,Reward,rare,2,0,Adults
sub102,real,18.24722222,79,rare,1,2,1,381.96999998763204,420.89999991003424,No Reward,common,1,0,Adults
sub102,real,18.24722222,81,rare,1,1,2,726.0049999458715,797.0150000182912,Reward,rare,2,0,Adults
sub102,real,18.24722222,84,common,1,2,1,1873.8199999788776,509.9499999778345,Reward,rare,1,0,Adults
sub102,real,18.24722222,85,rare,1,2,1,2564.810000010766,637.6949999248609,Reward,common,2,1,Adults
sub102,real,18.24722222,86,rare,0,1,2,346.1799999931827,464.35000002384186,Reward,rare,2,0,Adults
sub102,real,18.24722222,87,rare,1,2,1,1738.4600000223145,551.7400000244379,No Reward,rare,1,0,Adults
sub102,real,18.24722222,88,rare,0,2,1,2276.5849999850616,2716.1250000353903,Reward,rare,2,1,Adults
sub102,real,18.24722222,89,common,0,1,2,606.9050000514835,943.0949999950826,No Reward,rare,2,0,Adults
sub102,real,18.24722222,91,rare,1,1,1,1026.8050000304356,1108.379999990575,No Reward,common,1,1,Adults
sub102,real,18.24722222,94,rare,0,2,1,1073.285000049509,459.3100000638515,Reward,rare,1,0,Adults
sub102,real,18.24722222,95,common,0,2,2,652.1699998993427,480.6749999988824,No Reward,rare,2,1,Adults
sub102,real,18.24722222,96,common,1,1,2,1208.0099999438971,561.5099999122322,No Reward,common,2,0,Adults
sub102,real,18.24722222,98,common,0,2,1,405.6649999693036,1007.6300000073388,Reward,common,1,0,Adults
sub102,real,18.24722222,99,rare,0,2,1,1014.5649999612942,1030.0550000974908,No Reward,common,2,1,Adults
sub102,real,18.24722222,101,common,0,2,2,2067.3599999863654,300.2649999689311,No Reward,rare,2,1,Adults
sub102,real,18.24722222,102,common,0,1,2,983.4949999349192,699.4699999922886,No Reward,common,2,0,Adults
sub102,real,18.24722222,110,common,1,1,2,893.889999948442,213.96500000264496,No Reward,common,1,1,Adults
sub102,real,18.24722222,111,common,1,2,1,240.46500003896654,20.995000028051436,Reward,common,1,0,Adults
sub102,real,18.24722222,114,rare,1,1,1,204.99499992001802,638.9750000089407,Reward,common,2,0,Adults
sub102,real,18.24722222,115,common,0,2,1,397.9200000176206,750.9700000518933,Reward,rare,1,0,Adults
sub102,real,18.24722222,116,rare,1,2,1,1373.9549999590963,561.879999935627,No Reward,common,2,1,Adults
sub102,real,18.24722222,120,common,0,1,2,21.35000005364418,742.5899999216199,Reward,rare,2,0,Adults
sub102,real,18.24722222,121,common,1,1,2,534.0699999360368,2542.024999973364,No Reward,common,1,1,Adults
sub102,real,18.24722222,123,rare,1,1,1,411.1750000156462,420.32999999355525,Reward,common,1,1,Adults
sub102,real,18.24722222,125,rare,0,2,1,1765.125000034459,377.80500005465,Reward,rare,1,0,Adults
sub102,real,18.24722222,126,rare,1,2,1,322.5050000473857,361.65500001516193,No Reward,rare,2,1,Adults
sub102,real,18.24722222,129,common,1,2,2,1741.1050000227988,1708.794999984093,Reward,rare,2,1,Adults
sub102,real,18.24722222,130,common,0,1,2,62.09000002127141,353.06500003207475,Reward,common,2,0,Adults
sub102,real,18.24722222,132,rare,1,2,1,1675.0900000333786,2184.239999973215,No Reward,common,1,0,Adults
sub102,real,18.24722222,133,common,1,2,2,877.8450000099838,271.8399999430403,Reward,rare,2,1,Adults
sub102,real,18.24722222,134,common,0,1,1,685.3800000390038,404.9949999898672,Reward,common,2,0,Adults
sub102,real,18.24722222,135,common,0,2,1,1003.5350000252947,913.1649999180809,No Reward,common,1,0,Adults
sub102,real,18.24722222,138,common,1,2,1,269.2350000143051,263.10999994166195,No Reward,common,2,1,Adults
sub102,real,18.24722222,139,rare,1,2,1,1776.090000057593,272.400000016205,Reward,common,2,1,Adults
sub102,real,18.24722222,140,rare,1,1,1,471.2949999375269,138.34499998483807,Reward,rare,2,0,Adults
sub102,real,18.24722222,141,common,1,2,1,347.19500003848225,399.2749999742955,Reward,rare,1,0,Adults
sub102,real,18.24722222,142,rare,1,2,1,1608.339999918826,153.53999997023493,Reward,common,2,1,Adults
sub102,real,18.24722222,143,common,0,2,2,315.9750000340864,2122.495000017807,Reward,rare,2,1,Adults
sub102,real,18.24722222,147,rare,0,1,1,157.15999994426966,3400.2150000305846,No Reward,common,2,0,Adults
sub102,real,18.24722222,152,rare,1,2,1,2593.4699999634176,352.4350000079721,No Reward,rare,1,0,Adults
sub102,real,18.24722222,153,rare,1,1,2,291.1050000693649,581.5700000384822,Reward,rare,2,0,Adults
sub102,real,18.24722222,154,common,0,2,1,1099.2000000551343,389.3699999898672,Reward,rare,1,0,Adults
sub102,real,18.24722222,155,common,1,2,1,1008.9500000467524,953.7149999523535,No Reward,common,2,1,Adults
sub102,real,18.24722222,156,common,1,1,2,299.99500000849366,2349.8449999606237,Reward,common,2,0,Adults
sub102,real,18.24722222,157,common,0,2,1,2100.3700000001118,2417.714999988675,Reward,common,1,0,Adults
sub102,real,18.24722222,159,rare,0,2,2,348.6499999416992,1152.570000034757,No Reward,common,2,1,Adults
sub102,real,18.24722222,160,rare,0,1,2,3000.029999995604,1109.2250000219792,No Reward,rare,2,0,Adults
sub102,real,18.24722222,161,rare,1,2,1,2275.8450000546873,499.00999991223216,No Reward,rare,1,0,Adults
sub102,real,18.24722222,162,common,1,2,1,1304.5649999985471,2615.559999947436,Reward,rare,2,1,Adults
sub102,real,18.24722222,163,rare,0,2,1,475.7800000952557,683.3750000223517,Reward,common,2,1,Adults
sub102,real,18.24722222,164,rare,1,2,1,0.8650000672787428,819.0799999283627,No Reward,rare,2,1,Adults
sub102,real,18.24722222,165,common,0,2,1,353.2450000056997,922.7099999552593,Reward,rare,2,1,Adults
sub102,real,18.24722222,167,common,0,2,1,304.3850000249222,371.54500000178814,No Reward,common,2,1,Adults
sub102,real,18.24722222,168,common,0,2,2,2480.735000106506,925.8299999637529,No Reward,common,2,1,Adults
sub102,real,18.24722222,169,common,0,1,2,1232.2600000770763,149.16000002995133,No Reward,common,2,0,Adults
sub102,real,18.24722222,170,common,1,1,1,0.6650000577792525,670.3149999957532,No Reward,common,1,1,Adults
sub102,real,18.24722222,171,common,1,1,2,473.7550000427291,468.80500006955117,Reward,common,1,1,Adults
sub102,real,18.24722222,172,rare,0,1,2,336.7500000167638,380.7250000536442,Reward,common,1,1,Adults
sub102,real,18.24722222,173,common,0,1,2,266.2049999926239,1362.1249999850988,No Reward,rare,1,1,Adults
sub102,real,18.24722222,174,common,1,1,1,134.31500003207475,1141.9999999925494,No Reward,common,1,1,Adults
sub102,real,18.24722222,175,rare,0,2,1,379.50999999884516,452.3449999978766,Reward,common,1,0,Adults
sub102,real,18.24722222,176,common,1,1,2,879.7350000822917,42.51499997917563,No Reward,rare,2,0,Adults
sub102,real,18.24722222,177,rare,1,2,2,2480.779999983497,760.0950000341982,Reward,common,1,0,Adults
sub102,real,18.24722222,178,rare,0,2,1,222.62000001501292,402.7350000105798,Reward,rare,2,1,Adults
sub102,real,18.24722222,180,common,1,2,1,1967.7499999525025,58.9650000911206,No Reward,rare,2,1,Adults
sub102,real,18.24722222,181,common,0,2,1,514.350000070408,253.23500006925315,Reward,common,2,1,Adults
sub102,real,18.24722222,182,common,0,1,2,918.3600000105798,1032.3399999178946,No Reward,common,2,0,Adults
sub102,real,18.24722222,184,common,1,2,1,575.3750000149012,1311.2550000660121,No Reward,common,1,0,Adults
sub102,real,18.24722222,185,rare,1,2,2,643.4850000077859,2211.1499999882653,Reward,common,2,1,Adults
sub102,real,18.24722222,188,common,0,2,1,419.80000003241,59.82000008225441,Reward,rare,2,1,Adults
sub102,real,18.24722222,190,common,0,2,2,14.590000035241246,1088.5599999455735,No Reward,common,2,1,Adults
sub102,real,18.24722222,192,common,0,2,1,2614.1500000376254,512.3550000134856,No Reward,common,2,1,Adults
sub102,real,18.24722222,193,common,0,1,1,1111.970000085421,199.1799999959767,No Reward,common,2,0,Adults
sub102,real,18.24722222,194,common,0,2,1,339.1350000165403,661.94500005804,No Reward,common,1,0,Adults
sub102,real,18.24722222,195,common,0,2,2,350.83000001031905,2000.745000084862,No Reward,common,2,1,Adults
sub102,real,18.24722222,196,rare,0,1,2,27.549999998882413,3033.0100000137463,No Reward,common,2,0,Adults
sub102,real,18.24722222,197,rare,1,2,1,504.4899999629706,1662.6299999188632,No Reward,rare,1,0,Adults
sub102,real,18.24722222,199,rare,0,2,1,1204.9199999310076,553.5799999488518,Reward,rare,2,1,Adults
sub102,real,18.24722222,200,rare,1,2,1,24.274999974295497,110.7649999903515,No Reward,rare,2,1,Adults
sub103,real,18.77222222,10,common,0,1,1,407.5350000000326,338.28499999979977,No Reward,common,1,1,Adults
sub103,real,18.77222222,11,rare,0,1,1,537.535000000149,330.85000000009313,No Reward,common,1,1,Adults
sub103,real,18.77222222,12,common,1,1,1,403.70999999996275,466.9300000000512,No Reward,rare,1,1,Adults
sub103,real,18.77222222,13,common,0,1,1,648.4849999998696,399.7499999998836,Reward,common,1,1,Adults
sub103,real,18.77222222,14,common,0,1,1,269.65500000002794,563.2150000000838,No Reward,common,1,1,Adults
sub103,real,18.77222222,15,rare,0,1,1,428.15500000002794,216.88999999989755,No Reward,common,1,1,Adults
sub103,real,18.77222222,16,common,1,2,2,525.75,278.4650000000838,No Reward,rare,1,0,Adults
sub103,real,18.77222222,17,rare,0,2,2,599.2750000000233,306.94999999995343,Reward,common,2,1,Adults
sub103,real,18.77222222,18,common,1,2,2,324.19000000006054,261.0549999999348,No Reward,rare,2,1,Adults
sub103,real,18.77222222,19,common,1,2,2,499.52499999990687,192.85499999998137,Reward,common,2,1,Adults
sub103,real,18.77222222,21,common,1,2,2,439.9200000000419,313.00499999988824,Reward,common,2,1,Adults
sub103,real,18.77222222,22,common,1,2,2,475.6549999999115,403.19999999995343,Reward,common,2,1,Adults
sub103,real,18.77222222,23,rare,1,2,2,378.1649999998044,424.13999999989755,Reward,common,2,1,Adults
sub103,real,18.77222222,24,rare,1,2,2,415.46999999985565,278.03999999992084,Reward,rare,2,1,Adults
sub103,real,18.77222222,25,common,1,2,2,464.51499999989755,334.7050000000745,Reward,rare,2,1,Adults
sub103,real,18.77222222,26,common,0,2,2,347.1350000000093,57.14499999990221,Reward,common,2,1,Adults
sub103,real,18.77222222,27,common,0,1,1,558.0149999997811,320.3699999998789,No Reward,common,2,0,Adults
sub103,real,18.77222222,28,common,0,1,1,410.46000000007916,465.19999999995343,No Reward,common,1,1,Adults
sub103,real,18.77222222,29,common,1,2,2,373.28000000002794,328.375,No Reward,common,1,0,Adults
sub103,real,18.77222222,30,common,0,2,2,598.854999999865,251.90000000002328,Reward,common,2,1,Adults
sub103,real,18.77222222,31,rare,0,2,1,515.9449999999488,442.46999999997206,No Reward,common,2,1,Adults
sub103,real,18.77222222,32,common,1,2,2,810.895000000135,417.28999999992084,No Reward,rare,2,1,Adults
sub103,real,18.77222222,33,common,0,2,2,837.5650000000605,439.9200000000419,Reward,common,2,1,Adults
sub103,real,18.77222222,34,common,0,2,2,534.9350000001723,557.5749999999534,No Reward,common,2,1,Adults
sub103,real,18.77222222,36,common,1,1,1,582.7849999999162,494.8499999999767,No Reward,common,2,0,Adults
sub103,real,18.77222222,37,rare,1,1,1,520.2450000001118,694.464999999851,Reward,common,1,1,Adults
sub103,real,18.77222222,38,common,0,1,1,542.4249999998137,344.7799999999115,Reward,rare,1,1,Adults
sub103,real,18.77222222,39,rare,1,1,1,448.60000000020955,430.9549999999581,No Reward,common,1,1,Adults
sub103,real,18.77222222,40,common,0,1,1,387.4550000000745,496.6150000001071,Reward,rare,1,1,Adults
sub103,real,18.77222222,42,common,0,1,1,455.4200000000419,713.6499999999069,No Reward,common,1,1,Adults
sub103,real,18.77222222,43,rare,0,2,1,551.3549999999814,522.734999999986,No Reward,common,1,0,Adults
sub103,real,18.77222222,44,common,1,2,2,1430.454999999958,668.0250000000233,No Reward,rare,2,1,Adults
sub103,real,18.77222222,46,rare,1,2,2,662.2599999997765,528.4799999999814,Reward,common,2,1,Adults
sub103,real,18.77222222,47,common,1,2,2,1543.7699999999022,777.0999999999767,Reward,rare,2,1,Adults
sub103,real,18.77222222,48,common,1,2,2,438.39000000001397,495.54999999993015,Reward,common,2,1,Adults
sub103,real,18.77222222,49,rare,0,2,2,485.87999999988824,945.2549999998882,Reward,common,2,1,Adults
sub103,real,18.77222222,50,common,1,2,2,526.8550000000978,990.2049999997253,No Reward,rare,2,1,Adults
sub103,real,18.77222222,51,common,1,2,2,1281.4550000000745,493.48999999975786,Reward,common,2,1,Adults
sub103,real,18.77222222,52,common,0,2,2,580.6000000000931,557.3599999998696,Reward,common,2,1,Adults
sub103,real,18.77222222,53,rare,0,2,2,521.0700000000652,792.4799999999814,No Reward,common,2,1,Adults
sub103,real,18.77222222,54,common,1,2,2,504.0449999999255,962.6300000001211,No Reward,rare,2,1,Adults
sub103,real,18.77222222,55,common,1,2,2,652.8149999999441,468.05999999982305,Reward,common,2,1,Adults
sub103,real,18.77222222,56,common,1,2,2,499.7049999998417,608.8349999999627,Reward,common,2,1,Adults
sub103,real,18.77222222,57,common,1,2,2,538.4050000000279,439.2449999998789,Reward,common,2,1,Adults
sub103,real,18.77222222,58,common,1,2,2,594.8900000001304,787.9000000001397,Reward,common,2,1,Adults
sub103,real,18.77222222,59,rare,1,2,2,431.97500000009313,702.2999999998137,Reward,common,2,1,Adults
sub103,real,18.77222222,60,common,0,2,2,655.1850000000559,863.2350000001024,Reward,rare,2,1,Adults
sub103,real,18.77222222,61,rare,1,2,2,783.2550000001211,822.4799999999814,No Reward,common,2,1,Adults
sub103,real,18.77222222,62,rare,1,2,2,658.6699999996927,705.7749999999069,Reward,rare,2,1,Adults
sub103,real,18.77222222,63,common,1,2,2,600.2199999999721,709.3000000000466,Reward,rare,2,1,Adults
sub103,real,18.77222222,64,common,1,2,2,483.3049999999348,588.6749999998137,Reward,common,2,1,Adults
sub103,real,18.77222222,65,common,1,2,2,539.0649999999441,903.690000000177,Reward,common,2,1,Adults
sub103,real,18.77222222,66,rare,1,2,2,612.9899999999907,492.1349999997765,Reward,common,2,1,Adults
sub103,real,18.77222222,67,common,1,2,2,637.5,1328.1899999999441,Reward,rare,2,1,Adults
sub103,real,18.77222222,68,rare,1,2,2,647.4550000000745,474.71999999997206,Reward,common,2,1,Adults
sub103,real,18.77222222,69,common,1,2,2,416.96999999997206,554.3549999999814,Reward,rare,2,1,Adults
sub103,real,18.77222222,70,rare,0,2,2,656.2450000001118,698.8400000000838,Reward,common,2,1,Adults
sub103,real,18.77222222,71,rare,0,2,2,2186.820000000065,501.7849999999162,No Reward,rare,2,1,Adults
