trial_type,trial_index,time_elapsed,internal_node_id,rocket_sides,red_planet_first_rocket,red_display_order,purple_display_order,interactions,blur_events,focus_events,fullscreenenter_events,fullscreenexit_events,rt,stimulus,key_press,button_pressed,success,duration,valid_pressed,rts,keys,planet_text,right_text,left_text,center_text,chosen_text,reward_text,trial_stage,practice_trial,transition_type,choice,transition,reward,timestamp,subject_id
pavlovia,0,14,0.0-0.0,TRUE,TRUE,TRUE,TRUE,"
","
","
","
","
",NA,NA,NA,NA,NA,NA,NA,NA,NA,NA,NA,NA,NA,NA,NA,NA,NA,NA,NA,NA,NA,NA,sub110
html-keyboard-response,1,1036,0.0-1.0,TRUE,TRUE,TRUE,TRUE,"
","
","
","
","
",1020,Welcome! Press the space bar to begin.,32,NA,NA,NA,NA,NA,NA,NA,NA,NA,NA,NA,NA,NA,NA,NA,NA,NA,NA,NA,sub110
audio-keyboard-response,2,4486,0.0-2.0,TRUE,TRUE,TRUE,TRUE,"
","
","
","
","
",3451,audio/beep_loop.wav,32,NA,NA,NA,NA,NA,NA,NA,NA,NA,NA,NA,NA,NA,NA,NA,NA,NA,NA,NA,sub110
audio-button-response,3,8224,0.0-3.0,TRUE,TRUE,TRUE,TRUE,"
","
","
","
","
",NaN,audio/fish.mp3,NA,1,NA,NA,NA,NA,NA,NA,NA,NA,NA,NA,NA,NA,NA,NA,NA,NA,NA,NA,sub110
audio-button-response,4,10749,0.0-4.0,TRUE,TRUE,TRUE,TRUE,"""event"",""trial"",""time""
""fullscreenenter"",""5"",""14470""
","
","
","""event"",""trial"",""time""
""fullscreenenter"",""5"",""14470""
","
",NaN,audio/tiger.mp3,NA,4,NA,NA,NA,NA,NA,NA,NA,NA,NA,NA,NA,NA,NA,NA,NA,NA,NA,NA,sub110
fullscreen,5,15209,0.0-5.0,TRUE,TRUE,TRUE,TRUE,"""event"",""trial"",""time""
""fullscreenenter"",""5"",""14470""
","
","
","""event"",""trial"",""time""
""fullscreenenter"",""5"",""14470""
","
",NA,NA,NA,NA,TRUE,NA,NA,NA,NA,NA,NA,NA,NA,NA,NA,NA,NA,NA,NA,NA,NA,NA,sub110
d3-instructions,6,30914,0.0-6.0,TRUE,TRUE,TRUE,TRUE,"""event"",""trial"",""time""
""fullscreenenter"",""5"",""14470""
","
","
","""event"",""trial"",""time""
""fullscreenenter"",""5"",""14470""
","
",NA,NA,NA,NA,NA,NA,NA,NA,NA,NA,NA,NA,NA,NA,NA,NA,NA,NA,NA,NA,NA,NA,sub110
d3-instructions,7,40578,0.0-7.0,TRUE,TRUE,TRUE,TRUE,"""event"",""trial"",""time""
""fullscreenenter"",""5"",""14470""
","
","
","""event"",""trial"",""time""
""fullscreenenter"",""5"",""14470""
","
",NA,NA,NA,NA,NA,NA,NA,NA,NA,NA,NA,NA,NA,NA,NA,NA,NA,NA,NA,NA,NA,NA,sub110
d3-instructions,8,48500,0.0-8.0,TRUE,TRUE,TRUE,TRUE,"""event"",""trial"",""time""
""fullscreenenter"",""5"",""14470""
","
","
","""event"",""trial"",""time""
""fullscreenenter"",""5"",""14470""
","
",NA,NA,NA,NA,NA,NA,NA,NA,NA,NA,NA,NA,NA,NA,NA,NA,NA,NA,NA,NA,NA,NA,sub110
d3-instructions,9,61120,0.0-9.0,TRUE,TRUE,TRUE,TRUE,"""event"",""trial"",""time""
""fullscreenenter"",""5"",""14470""
","
","
","""event"",""trial"",""time""
""fullscreenenter"",""5"",""14470""
","
",NA,NA,NA,NA,NA,NA,NA,NA,NA,NA,NA,NA,NA,NA,NA,NA,NA,NA,NA,NA,NA,NA,sub110
d3-instructions,10,82408,0.0-10.0,TRUE,TRUE,TRUE,TRUE,"""event"",""trial"",""time""
""fullscreenenter"",""5"",""14470""
","
","
","""event"",""trial"",""time""
""fullscreenenter"",""5"",""14470""
","
",NA,NA,NA,NA,NA,NA,NA,NA,NA,NA,NA,NA,NA,NA,NA,NA,NA,NA,NA,NA,NA,NA,sub110
d3-animate-choice,11,85472,0.0-11.0,TRUE,TRUE,TRUE,TRUE,"""event"",""trial"",""time""
""fullscreenenter"",""5"",""14470""
","
","
","""event"",""trial"",""time""
""fullscreenenter"",""5"",""14470""
","
",1056,NA,49,NA,NA,3000,1,2878,48,images/tutgreenplanet.jpg,images/tutalien1,images/tutalien2,null,images/tutalien2,NA,NA,practice,null,NA,NA,NA,NA,sub110
d3-animate-choice,12,88351,0.0-12.0,TRUE,TRUE,TRUE,TRUE,"""event"",""trial"",""time""
""fullscreenenter"",""5"",""14470""
","
","
","""event"",""trial"",""time""
""fullscreenenter"",""5"",""14470""
","
",873,NA,48,NA,NA,3000,1,1679,48,images/tutgreenplanet.jpg,images/tutalien1,images/tutalien2,null,images/tutalien1,NA,NA,practice,null,NA,NA,NA,NA,sub110
d3-animate-choice,13,92095,0.0-13.0,TRUE,TRUE,TRUE,TRUE,"""event"",""trial"",""time""
""fullscreenenter"",""5"",""14470""
","
","
","""event"",""trial"",""time""
""fullscreenenter"",""5"",""14470""
","
",1739,NA,49,NA,NA,3000,1,24763045,4948,images/tutgreenplanet.jpg,images/tutalien1,images/tutalien2,null,images/tutalien2,NA,NA,practice,null,NA,NA,NA,NA,sub110
d3-animate-choice,14,94733,0.0-14.0,TRUE,TRUE,TRUE,TRUE,"""event"",""trial"",""time""
""fullscreenenter"",""5"",""14470""
","
","
","""event"",""trial"",""time""
""fullscreenenter"",""5"",""14470""
","
",634,NA,48,NA,NA,3000,1,9281193161322252e3,4848484848,images/tutgreenplanet.jpg,images/tutalien1,images/tutalien2,null,images/tutalien1,NA,NA,practice,null,NA,NA,NA,NA,sub110
d3-instructions,15,101692,0.0-15.0,TRUE,TRUE,TRUE,TRUE,"""event"",""trial"",""time""
""fullscreenenter"",""5"",""14470""
","
","
","""event"",""trial"",""time""
""fullscreenenter"",""5"",""14470""
","
",NA,NA,NA,NA,NA,NA,NA,NA,NA,NA,NA,NA,NA,NA,NA,NA,NA,NA,NA,NA,NA,NA,sub110
d3-instructions,16,111485,0.0-16.0,TRUE,TRUE,TRUE,TRUE,"""event"",""trial"",""time""
""fullscreenenter"",""5"",""14470""
","
","
","""event"",""trial"",""time""
""fullscreenenter"",""5"",""14470""
","
",NA,NA,NA,NA,NA,NA,NA,NA,NA,NA,NA,NA,NA,NA,NA,NA,NA,NA,NA,NA,NA,NA,sub110
d3-instructions,17,121077,0.0-17.0,TRUE,TRUE,TRUE,TRUE,"""event"",""trial"",""time""
""fullscreenenter"",""5"",""14470""
","
","
","""event"",""trial"",""time""
""fullscreenenter"",""5"",""14470""
","
",NA,NA,NA,NA,NA,NA,NA,NA,NA,NA,NA,NA,NA,NA,NA,NA,NA,NA,NA,NA,NA,NA,sub110
d3-instructions,18,134873,0.0-18.0,TRUE,TRUE,TRUE,TRUE,"""event"",""trial"",""time""
""fullscreenenter"",""5"",""14470""
","
","
","""event"",""trial"",""time""
""fullscreenenter"",""5"",""14470""
","
",NA,NA,NA,NA,NA,NA,NA,NA,NA,NA,NA,NA,NA,NA,NA,NA,NA,NA,NA,NA,NA,NA,sub110
d3-instructions,19,149635,0.0-19.0,TRUE,TRUE,TRUE,TRUE,"""event"",""trial"",""time""
""fullscreenenter"",""5"",""14470""
","
","
","""event"",""trial"",""time""
""fullscreenenter"",""5"",""14470""
","
",NA,NA,NA,NA,NA,NA,NA,NA,NA,NA,NA,NA,NA,NA,NA,NA,NA,NA,NA,NA,NA,NA,sub110
d3-animate-choice,20,153305,0.0-20.0,TRUE,TRUE,TRUE,TRUE,"""event"",""trial"",""time""
""fullscreenenter"",""5"",""14470""
","
","
","""event"",""trial"",""time""
""fullscreenenter"",""5"",""14470""
","
",1665,NA,49,NA,NA,3000,1,NA,NA,images/tutyellowplanet.jpg,null,images/tutalien3,null,images/tutalien3,images/t.png,NA,practice,null,NA,NA,NA,NA,sub110
d3-animate-choice,21,155811,0.0-21.0,TRUE,TRUE,TRUE,TRUE,"""event"",""trial"",""time""
""fullscreenenter"",""5"",""14470""
","
","
","""event"",""trial"",""time""
""fullscreenenter"",""5"",""14470""
","
",503,NA,49,NA,NA,3000,1,NA,NA,images/tutyellowplanet.jpg,null,images/tutalien3,null,images/tutalien3,images/t.png,NA,practice,null,NA,NA,NA,NA,sub110
d3-animate-choice,22,158222,0.0-22.0,TRUE,TRUE,TRUE,TRUE,"""event"",""trial"",""time""
""fullscreenenter"",""5"",""14470""
","
","
","""event"",""trial"",""time""
""fullscreenenter"",""5"",""14470""
","
",406,NA,49,NA,NA,3000,1,NA,NA,images/tutyellowplanet.jpg,null,images/tutalien3,null,images/tutalien3,images/t.png,NA,practice,null,NA,NA,NA,NA,sub110
d3-animate-choice,23,160648,0.0-23.0,TRUE,TRUE,TRUE,TRUE,"""event"",""trial"",""time""
""fullscreenenter"",""5"",""14470""
","
","
","""event"",""trial"",""time""
""fullscreenenter"",""5"",""14470""
","
",424,NA,49,NA,NA,3000,1,NA,NA,images/tutyellowplanet.jpg,null,images/tutalien3,null,images/tutalien3,images/t.png,NA,practice,null,NA,NA,NA,NA,sub110
d3-animate-choice,24,163052,0.0-24.0,TRUE,TRUE,TRUE,TRUE,"""event"",""trial"",""time""
""fullscreenenter"",""5"",""14470""
","
","
","""event"",""trial"",""time""
""fullscreenenter"",""5"",""14470""
","
",399,NA,49,NA,NA,3000,1,NA,NA,images/tutyellowplanet.jpg,null,images/tutalien3,null,images/tutalien3,images/t.png,NA,practice,null,NA,NA,NA,NA,sub110
d3-animate-choice,25,165431,0.0-25.0,TRUE,TRUE,TRUE,TRUE,"""event"",""trial"",""time""
""fullscreenenter"",""5"",""14470""
","
","
","""event"",""trial"",""time""
""fullscreenenter"",""5"",""14470""
","
",376,NA,49,NA,NA,3000,1,NA,NA,images/tutyellowplanet.jpg,null,images/tutalien3,null,images/tutalien3,images/t.png,NA,practice,null,NA,NA,NA,NA,sub110
d3-animate-choice,26,167780,0.0-26.0,TRUE,TRUE,TRUE,TRUE,"""event"",""trial"",""time""
""fullscreenenter"",""5"",""14470""
","
","
","""event"",""trial"",""time""
""fullscreenenter"",""5"",""14470""
","
",342,NA,49,NA,NA,3000,1,NA,NA,images/tutyellowplanet.jpg,null,images/tutalien3,null,images/tutalien3,images/nothing.png,NA,practice,null,NA,NA,NA,NA,sub110
d3-animate-choice,27,170215,0.0-27.0,TRUE,TRUE,TRUE,TRUE,"""event"",""trial"",""time""
""fullscreenenter"",""5"",""14470""
","
","
","""event"",""trial"",""time""
""fullscreenenter"",""5"",""14470""
","
",429,NA,49,NA,NA,3000,1,NA,NA,images/tutyellowplanet.jpg,null,images/tutalien3,null,images/tutalien3,images/nothing.png,NA,practice,null,NA,NA,NA,NA,sub110
d3-animate-choice,28,172570,0.0-28.0,TRUE,TRUE,TRUE,TRUE,"""event"",""trial"",""time""
""fullscreenenter"",""5"",""14470""
","
","
","""event"",""trial"",""time""
""fullscreenenter"",""5"",""14470""
","
",351,NA,49,NA,NA,3000,1,NA,NA,images/tutyellowplanet.jpg,null,images/tutalien3,null,images/tutalien3,images/nothing.png,NA,practice,null,NA,NA,NA,NA,sub110
d3-animate-choice,29,174955,0.0-29.0,TRUE,TRUE,TRUE,TRUE,"""event"",""trial"",""time""
""fullscreenenter"",""5"",""14470""
","
","
","""event"",""trial"",""time""
""fullscreenenter"",""5"",""14470""
","
",381,NA,49,NA,NA,3000,1,NA,NA,images/tutyellowplanet.jpg,null,images/tutalien3,null,images/tutalien3,images/t.png,NA,practice,null,NA,NA,NA,NA,sub110
d3-instructions,30,182689,0.0-30.0,TRUE,TRUE,TRUE,TRUE,"""event"",""trial"",""time""
""fullscreenenter"",""5"",""14470""
","
","
","""event"",""trial"",""time""
""fullscreenenter"",""5"",""14470""
","
",NA,NA,NA,NA,NA,NA,NA,NA,NA,NA,NA,NA,NA,NA,NA,NA,NA,NA,NA,NA,NA,NA,sub110
d3-instructions,31,193194,0.0-31.0,TRUE,TRUE,TRUE,TRUE,"""event"",""trial"",""time""
""fullscreenenter"",""5"",""14470""
","
","
","""event"",""trial"",""time""
""fullscreenenter"",""5"",""14470""
","
",NA,NA,NA,NA,NA,NA,NA,NA,NA,NA,NA,NA,NA,NA,NA,NA,NA,NA,NA,NA,NA,NA,sub110
d3-instructions,32,200756,0.0-32.0,TRUE,TRUE,TRUE,TRUE,"""event"",""trial"",""time""
""fullscreenenter"",""5"",""14470""
","
","
","""event"",""trial"",""time""
""fullscreenenter"",""5"",""14470""
","
",NA,NA,NA,NA,NA,NA,NA,NA,NA,NA,NA,NA,NA,NA,NA,NA,NA,NA,NA,NA,NA,NA,sub110
d3-instructions,33,211547,0.0-33.0,TRUE,TRUE,TRUE,TRUE,"""event"",""trial"",""time""
""fullscreenenter"",""5"",""14470""
","
","
","""event"",""trial"",""time""
""fullscreenenter"",""5"",""14470""
","
",NA,NA,NA,NA,NA,NA,NA,NA,NA,NA,NA,NA,NA,NA,NA,NA,NA,NA,NA,NA,NA,NA,sub110
d3-animate-choice,34,215440,0.0-34.0,TRUE,TRUE,TRUE,TRUE,"""event"",""trial"",""time""
""fullscreenenter"",""5"",""14470""
","
","
","""event"",""trial"",""time""
""fullscreenenter"",""5"",""14470""
","
",1887,NA,48,NA,NA,3000,1,NA,NA,images/tutgreenplanet.jpg,images/tutalien1,images/tutalien2,null,images/tutalien1,images/nothing.png,NA,practice,null,NA,NA,NA,NA,sub110
d3-animate-choice,35,219655,0.0-35.0,TRUE,TRUE,TRUE,TRUE,"""event"",""trial"",""time""
""fullscreenenter"",""5"",""14470""
","
","
","""event"",""trial"",""time""
""fullscreenenter"",""5"",""14470""
","
",2212,NA,49,NA,NA,3000,1,NA,NA,images/tutgreenplanet.jpg,images/tutalien1,images/tutalien2,null,images/tutalien2,images/nothing.png,NA,practice,null,NA,NA,NA,NA,sub110
d3-animate-choice,36,222955,0.0-36.0,TRUE,TRUE,TRUE,TRUE,"""event"",""trial"",""time""
""fullscreenenter"",""5"",""14470""
","
","
","""event"",""trial"",""time""
""fullscreenenter"",""5"",""14470""
","
",1293,NA,49,NA,NA,3000,1,NA,NA,images/tutgreenplanet.jpg,images/tutalien1,images/tutalien2,null,images/tutalien2,images/t.png,NA,practice,null,NA,NA,NA,NA,sub110
d3-animate-choice,37,226029,0.0-37.0,TRUE,TRUE,TRUE,TRUE,"""event"",""trial"",""time""
""fullscreenenter"",""5"",""14470""
","
","
","""event"",""trial"",""time""
""fullscreenenter"",""5"",""14470""
","
",1070,NA,49,NA,NA,3000,1,NA,NA,images/tutgreenplanet.jpg,images/tutalien1,images/tutalien2,null,images/tutalien2,images/t.png,NA,practice,null,NA,NA,NA,NA,sub110
d3-animate-choice,38,229257,0.0-38.0,TRUE,TRUE,TRUE,TRUE,"""event"",""trial"",""time""
""fullscreenenter"",""5"",""14470""
","
","
","""event"",""trial"",""time""
""fullscreenenter"",""5"",""14470""
","
",1223,NA,49,NA,NA,3000,1,NA,NA,images/tutgreenplanet.jpg,images/tutalien1,images/tutalien2,null,images/tutalien2,images/t.png,NA,practice,null,NA,NA,NA,NA,sub110
d3-animate-choice,39,231790,0.0-39.0,TRUE,TRUE,TRUE,TRUE,"""event"",""trial"",""time""
""fullscreenenter"",""5"",""14470""
","
","
","""event"",""trial"",""time""
""fullscreenenter"",""5"",""14470""
","
",529,NA,49,NA,NA,3000,1,NA,NA,images/tutgreenplanet.jpg,images/tutalien1,images/tutalien2,null,images/tutalien2,images/t.png,NA,practice,null,NA,NA,NA,NA,sub110
d3-animate-choice,40,234633,0.0-40.0,TRUE,TRUE,TRUE,TRUE,"""event"",""trial"",""time""
""fullscreenenter"",""5"",""14470""
","
","
","""event"",""trial"",""time""
""fullscreenenter"",""5"",""14470""
","
",840,NA,49,NA,NA,3000,1,NA,NA,images/tutgreenplanet.jpg,images/tutalien1,images/tutalien2,null,images/tutalien2,images/t.png,NA,practice,null,NA,NA,NA,NA,sub110
d3-animate-choice,41,237305,0.0-41.0,TRUE,TRUE,TRUE,TRUE,"""event"",""trial"",""time""
""fullscreenenter"",""5"",""14470""
","
","
","""event"",""trial"",""time""
""fullscreenenter"",""5"",""14470""
","
",666,NA,49,NA,NA,3000,1,NA,NA,images/tutgreenplanet.jpg,images/tutalien1,images/tutalien2,null,images/tutalien2,images/t.png,NA,practice,null,NA,NA,NA,NA,sub110
d3-animate-choice,42,239870,0.0-42.0,TRUE,TRUE,TRUE,TRUE,"""event"",""trial"",""time""
""fullscreenenter"",""5"",""14470""
","
","
","""event"",""trial"",""time""
""fullscreenenter"",""5"",""14470""
","
",561,NA,49,NA,NA,3000,1,NA,NA,images/tutgreenplanet.jpg,images/tutalien1,images/tutalien2,null,images/tutalien2,images/t.png,NA,practice,null,NA,NA,NA,NA,sub110
d3-animate-choice,43,242299,0.0-43.0,TRUE,TRUE,TRUE,TRUE,"""event"",""trial"",""time""
""fullscreenenter"",""5"",""14470""
","
","
","""event"",""trial"",""time""
""fullscreenenter"",""5"",""14470""
","
",424,NA,49,NA,NA,3000,1,NA,NA,images/tutgreenplanet.jpg,images/tutalien1,images/tutalien2,null,images/tutalien2,images/t.png,NA,practice,null,NA,NA,NA,NA,sub110
d3-instructions,44,259858,0.0-44.0,TRUE,TRUE,TRUE,TRUE,"""event"",""trial"",""time""
""fullscreenenter"",""5"",""14470""
","
","
","""event"",""trial"",""time""
""fullscreenenter"",""5"",""14470""
","
",NA,NA,NA,NA,NA,NA,NA,NA,NA,NA,NA,NA,NA,NA,NA,NA,NA,NA,NA,NA,NA,NA,sub110
d3-instructions,45,266501,0.0-45.0,TRUE,TRUE,TRUE,TRUE,"""event"",""trial"",""time""
""fullscreenenter"",""5"",""14470""
","
","
","""event"",""trial"",""time""
""fullscreenenter"",""5"",""14470""
","
",NA,NA,NA,NA,NA,NA,NA,NA,NA,NA,NA,NA,NA,NA,NA,NA,NA,NA,NA,NA,NA,NA,sub110
d3-instructions,46,272279,0.0-46.0,TRUE,TRUE,TRUE,TRUE,"""event"",""trial"",""time""
""fullscreenenter"",""5"",""14470""
","
","
","""event"",""trial"",""time""
""fullscreenenter"",""5"",""14470""
","
",NA,NA,NA,NA,NA,NA,NA,NA,NA,NA,NA,NA,NA,NA,NA,NA,NA,NA,NA,NA,NA,NA,sub110
d3-instructions,47,290159,0.0-47.0,TRUE,TRUE,TRUE,TRUE,"""event"",""trial"",""time""
""fullscreenenter"",""5"",""14470""
","
","
","""event"",""trial"",""time""
""fullscreenenter"",""5"",""14470""
","
",NA,NA,NA,NA,NA,NA,NA,NA,NA,NA,NA,NA,NA,NA,NA,NA,NA,NA,NA,NA,NA,NA,sub110
d3-instructions,48,296707,0.0-48.0,TRUE,TRUE,TRUE,TRUE,"""event"",""trial"",""time""
""fullscreenenter"",""5"",""14470""
","
","
","""event"",""trial"",""time""
""fullscreenenter"",""5"",""14470""
","
",NA,NA,NA,NA,NA,NA,NA,NA,NA,NA,NA,NA,NA,NA,NA,NA,NA,NA,NA,NA,NA,NA,sub110
d3-instructions,49,308099,0.0-49.0,TRUE,TRUE,TRUE,TRUE,"""event"",""trial"",""time""
""fullscreenenter"",""5"",""14470""
","
","
","""event"",""trial"",""time""
""fullscreenenter"",""5"",""14470""
","
",NA,NA,NA,NA,NA,NA,NA,NA,NA,NA,NA,NA,NA,NA,NA,NA,NA,NA,NA,NA,NA,NA,sub110
d3-instructions,50,317440,0.0-50.0,TRUE,TRUE,TRUE,TRUE,"""event"",""trial"",""time""
""fullscreenenter"",""5"",""14470""
","
","
","""event"",""trial"",""time""
""fullscreenenter"",""5"",""14470""
","
",NA,NA,NA,NA,NA,NA,NA,NA,NA,NA,NA,NA,NA,NA,NA,NA,NA,NA,NA,NA,NA,NA,sub110
d3-instructions,51,320777,0.0-51.0,TRUE,TRUE,TRUE,TRUE,"""event"",""trial"",""time""
""fullscreenenter"",""5"",""14470""
","
","
","""event"",""trial"",""time""
""fullscreenenter"",""5"",""14470""
","
",NA,NA,NA,NA,NA,NA,NA,NA,NA,NA,NA,NA,NA,NA,NA,NA,NA,NA,NA,NA,NA,NA,sub110
d3-instructions,52,323916,0.0-52.0,TRUE,TRUE,TRUE,TRUE,"""event"",""trial"",""time""
""fullscreenenter"",""5"",""14470""
","
","
","""event"",""trial"",""time""
""fullscreenenter"",""5"",""14470""
","
",NA,NA,NA,NA,NA,NA,NA,NA,NA,NA,NA,NA,NA,NA,NA,NA,NA,NA,NA,NA,NA,NA,sub110
d3-instructions,53,337352,0.0-53.0,TRUE,TRUE,TRUE,TRUE,"""event"",""trial"",""time""
""fullscreenenter"",""5"",""14470""
","
","
","""event"",""trial"",""time""
""fullscreenenter"",""5"",""14470""
","
",NA,NA,NA,NA,NA,NA,NA,NA,NA,NA,NA,NA,NA,NA,NA,NA,NA,NA,NA,NA,NA,NA,sub110
d3-instructions,54,350040,0.0-54.0,TRUE,TRUE,TRUE,TRUE,"""event"",""trial"",""time""
""fullscreenenter"",""5"",""14470""
","
","
","""event"",""trial"",""time""
""fullscreenenter"",""5"",""14470""
","
",NA,NA,NA,NA,NA,NA,NA,NA,NA,NA,NA,NA,NA,NA,NA,NA,NA,NA,NA,NA,NA,NA,sub110
d3-instructions,55,360471,0.0-55.0,TRUE,TRUE,TRUE,TRUE,"""event"",""trial"",""time""
""fullscreenenter"",""5"",""14470""
","
","
","""event"",""trial"",""time""
""fullscreenenter"",""5"",""14470""
","
",NA,NA,NA,NA,NA,NA,NA,NA,NA,NA,NA,NA,NA,NA,NA,NA,NA,NA,NA,NA,NA,NA,sub110
d3-instructions,56,368625,0.0-56.0,TRUE,TRUE,TRUE,TRUE,"""event"",""trial"",""time""
""fullscreenenter"",""5"",""14470""
","
","
","""event"",""trial"",""time""
""fullscreenenter"",""5"",""14470""
","
",NA,NA,NA,NA,NA,NA,NA,NA,NA,NA,NA,NA,NA,NA,NA,NA,NA,NA,NA,NA,NA,NA,sub110
d3-instructions,57,378857,0.0-57.0,TRUE,TRUE,TRUE,TRUE,"""event"",""trial"",""time""
""fullscreenenter"",""5"",""14470""
","
","
","""event"",""trial"",""time""
""fullscreenenter"",""5"",""14470""
","
",NA,NA,NA,NA,NA,NA,NA,NA,NA,NA,NA,NA,NA,NA,NA,NA,NA,NA,NA,NA,NA,NA,sub110
d3-instructions,58,390482,0.0-58.0,TRUE,TRUE,TRUE,TRUE,"""event"",""trial"",""time""
""fullscreenenter"",""5"",""14470""
","
","
","""event"",""trial"",""time""
""fullscreenenter"",""5"",""14470""
","
",NA,NA,NA,NA,NA,NA,NA,NA,NA,NA,NA,NA,NA,NA,NA,NA,NA,NA,NA,NA,NA,NA,sub110
d3-instructions,59,396477,0.0-59.0,TRUE,TRUE,TRUE,TRUE,"""event"",""trial"",""time""
""fullscreenenter"",""5"",""14470""
","
","
","""event"",""trial"",""time""
""fullscreenenter"",""5"",""14470""
","
",NA,NA,NA,NA,NA,NA,NA,NA,NA,NA,NA,NA,NA,NA,NA,NA,NA,NA,NA,NA,NA,NA,sub110
d3-instructions,60,404034,0.0-60.0,TRUE,TRUE,TRUE,TRUE,"""event"",""trial"",""time""
""fullscreenenter"",""5"",""14470""
","
","
","""event"",""trial"",""time""
""fullscreenenter"",""5"",""14470""
","
",NA,NA,NA,NA,NA,NA,NA,NA,NA,NA,NA,NA,NA,NA,NA,NA,NA,NA,NA,NA,NA,NA,sub110
d3-animate-choice,61,407188,0.0-61.0-0.0,TRUE,TRUE,TRUE,TRUE,"""event"",""trial"",""time""
""fullscreenenter"",""5"",""14470""
","
","
","""event"",""trial"",""time""
""fullscreenenter"",""5"",""14470""
","
",1146,NA,48,NA,NA,3000,1,NA,NA,images/earth.jpg,images/tutrocket1,images/tutrocket2,null,images/tutrocket1,NA,1,practice,null,2,NA,NA,NA,sub110
d3-animate-choice,62,411199,0.0-61.0-1.0,TRUE,TRUE,TRUE,TRUE,"""event"",""trial"",""time""
""fullscreenenter"",""5"",""14470""
","
","
","""event"",""trial"",""time""
""fullscreenenter"",""5"",""14470""
","
",2668,NA,49,NA,NA,3000,1,NA,NA,images/tutyellowplanet.jpg,images/tutalien4,images/tutalien3,images/tutrocket1,images/tutalien3,NA,2,practice,false,1,rare,0,2020-06-26T20:48:12Z,sub110
two-step-fixation,63,412203,0.0-61.0-2.0,TRUE,TRUE,TRUE,TRUE,"""event"",""trial"",""time""
""fullscreenenter"",""5"",""14470""
","
","
","""event"",""trial"",""time""
""fullscreenenter"",""5"",""14470""
","
",NA,images/earth.jpg,NA,NA,NA,NA,NA,NA,NA,NA,NA,NA,NA,NA,NA,fixation,NA,NA,NA,NA,NA,NA,sub110
d3-animate-choice,64,416082,0.0-61.0-0.1,TRUE,TRUE,TRUE,TRUE,"""event"",""trial"",""time""
""fullscreenenter"",""5"",""14470""
","
","
","""event"",""trial"",""time""
""fullscreenenter"",""5"",""14470""
","
",1872,NA,49,NA,NA,3000,1,NA,NA,images/earth.jpg,images/tutrocket1,images/tutrocket2,null,images/tutrocket2,NA,1,practice,null,1,NA,NA,NA,sub110
d3-animate-choice,65,419866,0.0-61.0-1.1,TRUE,TRUE,TRUE,TRUE,"""event"",""trial"",""time""
""fullscreenenter"",""5"",""14470""
","
","
","""event"",""trial"",""time""
""fullscreenenter"",""5"",""14470""
","
",1780,NA,48,NA,NA,3000,1,NA,NA,images/tutgreenplanet.jpg,images/tutalien2,images/tutalien1,images/tutrocket2,images/tutalien2,images/nothing.png,2,practice,false,2,rare,0,2020-06-26T20:48:21Z,sub110
two-step-fixation,66,420868,0.0-61.0-2.1,TRUE,TRUE,TRUE,TRUE,"""event"",""trial"",""time""
""fullscreenenter"",""5"",""14470""
","
","
","""event"",""trial"",""time""
""fullscreenenter"",""5"",""14470""
","
",NA,images/earth.jpg,NA,NA,NA,NA,NA,NA,NA,NA,NA,NA,NA,NA,NA,fixation,NA,NA,NA,NA,NA,NA,sub110
d3-animate-choice,67,424653,0.0-61.0-0.2,TRUE,TRUE,TRUE,TRUE,"""event"",""trial"",""time""
""fullscreenenter"",""5"",""14470""
","
","
","""event"",""trial"",""time""
""fullscreenenter"",""5"",""14470""
","
",1782,NA,49,NA,NA,3000,1,NA,NA,images/earth.jpg,images/tutrocket1,images/tutrocket2,null,images/tutrocket2,NA,1,practice,null,1,NA,NA,NA,sub110
d3-animate-choice,68,427804,0.0-61.0-1.2,TRUE,TRUE,TRUE,TRUE,"""event"",""trial"",""time""
""fullscreenenter"",""5"",""14470""
","
","
","""event"",""trial"",""time""
""fullscreenenter"",""5"",""14470""
","
",1146,NA,49,NA,NA,3000,1,NA,NA,images/tutyellowplanet.jpg,images/tutalien4,images/tutalien3,images/tutrocket2,images/tutalien3,images/t.png,2,practice,true,1,common,1,2020-06-26T20:48:29Z,sub110
two-step-fixation,69,428807,0.0-61.0-2.2,TRUE,TRUE,TRUE,TRUE,"""event"",""trial"",""time""
""fullscreenenter"",""5"",""14470""
","
","
","""event"",""trial"",""time""
""fullscreenenter"",""5"",""14470""
","
",NA,images/earth.jpg,NA,NA,NA,NA,NA,NA,NA,NA,NA,NA,NA,NA,NA,fixation,NA,NA,NA,NA,NA,NA,sub110
d3-animate-choice,70,431718,0.0-61.0-0.3,TRUE,TRUE,TRUE,TRUE,"""event"",""trial"",""time""
""fullscreenenter"",""5"",""14470""
","
","
","""event"",""trial"",""time""
""fullscreenenter"",""5"",""14470""
","
",907,NA,49,NA,NA,3000,1,NA,NA,images/earth.jpg,images/tutrocket1,images/tutrocket2,null,images/tutrocket2,NA,1,practice,null,1,NA,NA,NA,sub110
d3-animate-choice,71,434892,0.0-61.0-1.3,TRUE,TRUE,TRUE,TRUE,"""event"",""trial"",""time""
""fullscreenenter"",""5"",""14470""
","
","
","""event"",""trial"",""time""
""fullscreenenter"",""5"",""14470""
","
",1171,NA,48,NA,NA,3000,1,NA,NA,images/tutgreenplanet.jpg,images/tutalien2,images/tutalien1,images/tutrocket2,images/tutalien2,images/nothing.png,2,practice,false,2,rare,0,2020-06-26T20:48:36Z,sub110
two-step-fixation,72,435893,0.0-61.0-2.3,TRUE,TRUE,TRUE,TRUE,"""event"",""trial"",""time""
""fullscreenenter"",""5"",""14470""
","
","
","""event"",""trial"",""time""
""fullscreenenter"",""5"",""14470""
","
",NA,images/earth.jpg,NA,NA,NA,NA,NA,NA,NA,NA,NA,NA,NA,NA,NA,fixation,NA,NA,NA,NA,NA,NA,sub110
d3-animate-choice,73,439895,0.0-61.0-0.4,TRUE,TRUE,TRUE,TRUE,"""event"",""trial"",""time""
""fullscreenenter"",""5"",""14470""
","
","
","""event"",""trial"",""time""
""fullscreenenter"",""5"",""14470""
","
",2124,NA,49,NA,NA,3000,1,NA,NA,images/earth.jpg,images/tutrocket1,images/tutrocket2,null,images/tutrocket2,NA,1,practice,null,1,NA,NA,NA,sub110
d3-animate-choice,74,443562,0.0-61.0-1.4,TRUE,TRUE,TRUE,TRUE,"""event"",""trial"",""time""
""fullscreenenter"",""5"",""14470""
","
","
","""event"",""trial"",""time""
""fullscreenenter"",""5"",""14470""
","
",1664,NA,49,NA,NA,3000,1,NA,NA,images/tutyellowplanet.jpg,images/tutalien4,images/tutalien3,images/tutrocket2,images/tutalien3,images/nothing.png,2,practice,true,1,common,0,2020-06-26T20:48:44Z,sub110
two-step-fixation,75,444564,0.0-61.0-2.4,TRUE,TRUE,TRUE,TRUE,"""event"",""trial"",""time""
""fullscreenenter"",""5"",""14470""
","
","
","""event"",""trial"",""time""
""fullscreenenter"",""5"",""14470""
","
",NA,images/earth.jpg,NA,NA,NA,NA,NA,NA,NA,NA,NA,NA,NA,NA,NA,fixation,NA,NA,NA,NA,NA,NA,sub110
d3-animate-choice,76,447830,0.0-61.0-0.5,TRUE,TRUE,TRUE,TRUE,"""event"",""trial"",""time""
""fullscreenenter"",""5"",""14470""
","
","
","""event"",""trial"",""time""
""fullscreenenter"",""5"",""14470""
","
",1262,NA,48,NA,NA,3000,1,NA,NA,images/earth.jpg,images/tutrocket1,images/tutrocket2,null,images/tutrocket1,NA,1,practice,null,2,NA,NA,NA,sub110
d3-animate-choice,77,451038,0.0-61.0-1.5,TRUE,TRUE,TRUE,TRUE,"""event"",""trial"",""time""
""fullscreenenter"",""5"",""14470""
","
","
","""event"",""trial"",""time""
""fullscreenenter"",""5"",""14470""
","
",1204,NA,48,NA,NA,3000,1,NA,NA,images/tutgreenplanet.jpg,images/tutalien2,images/tutalien1,images/tutrocket1,images/tutalien2,images/t.png,2,practice,true,2,common,1,2020-06-26T20:48:52Z,sub110
two-step-fixation,78,452039,0.0-61.0-2.5,TRUE,TRUE,TRUE,TRUE,"""event"",""trial"",""time""
""fullscreenenter"",""5"",""14470""
","
","
","""event"",""trial"",""time""
""fullscreenenter"",""5"",""14470""
","
",NA,images/earth.jpg,NA,NA,NA,NA,NA,NA,NA,NA,NA,NA,NA,NA,NA,fixation,NA,NA,NA,NA,NA,NA,sub110
d3-animate-choice,79,454712,0.0-61.0-0.6,TRUE,TRUE,TRUE,TRUE,"""event"",""trial"",""time""
""fullscreenenter"",""5"",""14470""
","
","
","""event"",""trial"",""time""
""fullscreenenter"",""5"",""14470""
","
",668,NA,48,NA,NA,3000,1,NA,NA,images/earth.jpg,images/tutrocket1,images/tutrocket2,null,images/tutrocket1,NA,1,practice,null,2,NA,NA,NA,sub110
d3-animate-choice,80,458476,0.0-61.0-1.6,TRUE,TRUE,TRUE,TRUE,"""event"",""trial"",""time""
""fullscreenenter"",""5"",""14470""
","
","
","""event"",""trial"",""time""
""fullscreenenter"",""5"",""14470""
","
",1760,NA,48,NA,NA,3000,1,NA,NA,images/tutyellowplanet.jpg,images/tutalien4,images/tutalien3,images/tutrocket1,images/tutalien4,images/nothing.png,2,practice,false,2,rare,0,2020-06-26T20:48:59Z,sub110
two-step-fixation,81,459478,0.0-61.0-2.6,TRUE,TRUE,TRUE,TRUE,"""event"",""trial"",""time""
""fullscreenenter"",""5"",""14470""
","
","
","""event"",""trial"",""time""
""fullscreenenter"",""5"",""14470""
","
",NA,images/earth.jpg,NA,NA,NA,NA,NA,NA,NA,NA,NA,NA,NA,NA,NA,fixation,NA,NA,NA,NA,NA,NA,sub110
d3-animate-choice,82,462453,0.0-61.0-0.7,TRUE,TRUE,TRUE,TRUE,"""event"",""trial"",""time""
""fullscreenenter"",""5"",""14470""
","
","
","""event"",""trial"",""time""
""fullscreenenter"",""5"",""14470""
","
",970,NA,49,NA,NA,3000,1,NA,NA,images/earth.jpg,images/tutrocket1,images/tutrocket2,null,images/tutrocket2,NA,1,practice,null,1,NA,NA,NA,sub110
d3-animate-choice,83,465550,0.0-61.0-1.7,TRUE,TRUE,TRUE,TRUE,"""event"",""trial"",""time""
""fullscreenenter"",""5"",""14470""
","
","
","""event"",""trial"",""time""
""fullscreenenter"",""5"",""14470""
","
",1094,NA,49,NA,NA,3000,1,NA,NA,images/tutyellowplanet.jpg,images/tutalien4,images/tutalien3,images/tutrocket2,images/tutalien3,images/t.png,2,practice,true,1,common,1,2020-06-26T20:49:06Z,sub110
two-step-fixation,84,466552,0.0-61.0-2.7,TRUE,TRUE,TRUE,TRUE,"""event"",""trial"",""time""
""fullscreenenter"",""5"",""14470""
","
","
","""event"",""trial"",""time""
""fullscreenenter"",""5"",""14470""
","
",NA,images/earth.jpg,NA,NA,NA,NA,NA,NA,NA,NA,NA,NA,NA,NA,NA,fixation,NA,NA,NA,NA,NA,NA,sub110
d3-animate-choice,85,469243,0.0-61.0-0.8,TRUE,TRUE,TRUE,TRUE,"""event"",""trial"",""time""
""fullscreenenter"",""5"",""14470""
","
","
","""event"",""trial"",""time""
""fullscreenenter"",""5"",""14470""
","
",689,NA,49,NA,NA,3000,1,NA,NA,images/earth.jpg,images/tutrocket1,images/tutrocket2,null,images/tutrocket2,NA,1,practice,null,1,NA,NA,NA,sub110
d3-animate-choice,86,471689,0.0-61.0-1.8,TRUE,TRUE,TRUE,TRUE,"""event"",""trial"",""time""
""fullscreenenter"",""5"",""14470""
","
","
","""event"",""trial"",""time""
""fullscreenenter"",""5"",""14470""
","
",443,NA,48,NA,NA,3000,1,NA,NA,images/tutyellowplanet.jpg,images/tutalien4,images/tutalien3,images/tutrocket2,images/tutalien4,images/t.png,2,practice,true,2,common,1,2020-06-26T20:49:13Z,sub110
two-step-fixation,87,472693,0.0-61.0-2.8,TRUE,TRUE,TRUE,TRUE,"""event"",""trial"",""time""
""fullscreenenter"",""5"",""14470""
","
","
","""event"",""trial"",""time""
""fullscreenenter"",""5"",""14470""
","
",NA,images/earth.jpg,NA,NA,NA,NA,NA,NA,NA,NA,NA,NA,NA,NA,NA,fixation,NA,NA,NA,NA,NA,NA,sub110
d3-animate-choice,88,476083,0.0-61.0-0.9,TRUE,TRUE,TRUE,TRUE,"""event"",""trial"",""time""
""fullscreenenter"",""5"",""14470""
","
","
","""event"",""trial"",""time""
""fullscreenenter"",""5"",""14470""
","
",1387,NA,48,NA,NA,3000,1,NA,NA,images/earth.jpg,images/tutrocket1,images/tutrocket2,null,images/tutrocket1,NA,1,practice,null,2,NA,NA,NA,sub110
d3-animate-choice,89,478507,0.0-61.0-1.9,TRUE,TRUE,TRUE,TRUE,"""event"",""trial"",""time""
""fullscreenenter"",""5"",""14470""
","
","
","""event"",""trial"",""time""
""fullscreenenter"",""5"",""14470""
","
",420,NA,48,NA,NA,3000,1,NA,NA,images/tutyellowplanet.jpg,images/tutalien4,images/tutalien3,images/tutrocket1,images/tutalien4,images/t.png,2,practice,false,2,rare,1,2020-06-26T20:49:19Z,sub110
two-step-fixation,90,479509,0.0-61.0-2.9,TRUE,TRUE,TRUE,TRUE,"""event"",""trial"",""time""
""fullscreenenter"",""5"",""14470""
","
","
","""event"",""trial"",""time""
""fullscreenenter"",""5"",""14470""
","
",NA,images/earth.jpg,NA,NA,NA,NA,NA,NA,NA,NA,NA,NA,NA,NA,NA,fixation,NA,NA,NA,NA,NA,NA,sub110
d3-animate-choice,91,482150,0.0-61.0-0.10,TRUE,TRUE,TRUE,TRUE,"""event"",""trial"",""time""
""fullscreenenter"",""5"",""14470""
","
","
","""event"",""trial"",""time""
""fullscreenenter"",""5"",""14470""
","
",637,NA,49,NA,NA,3000,1,NA,NA,images/earth.jpg,images/tutrocket1,images/tutrocket2,null,images/tutrocket2,NA,1,practice,null,1,NA,NA,NA,sub110
d3-animate-choice,92,485128,0.0-61.0-1.10,TRUE,TRUE,TRUE,TRUE,"""event"",""trial"",""time""
""fullscreenenter"",""5"",""14470""
","
","
","""event"",""trial"",""time""
""fullscreenenter"",""5"",""14470""
","
",975,NA,49,NA,NA,3000,1,NA,NA,images/tutyellowplanet.jpg,images/tutalien4,images/tutalien3,images/tutrocket2,images/tutalien3,images/t.png,2,practice,true,1,common,1,2020-06-26T20:49:26Z,sub110
two-step-fixation,93,486132,0.0-61.0-2.10,TRUE,TRUE,TRUE,TRUE,"""event"",""trial"",""time""
""fullscreenenter"",""5"",""14470""
","
","
","""event"",""trial"",""time""
""fullscreenenter"",""5"",""14470""
","
",NA,images/earth.jpg,NA,NA,NA,NA,NA,NA,NA,NA,NA,NA,NA,NA,NA,fixation,NA,NA,NA,NA,NA,NA,sub110
d3-animate-choice,94,488654,0.0-61.0-0.11,TRUE,TRUE,TRUE,TRUE,"""event"",""trial"",""time""
""fullscreenenter"",""5"",""14470""
","
","
","""event"",""trial"",""time""
""fullscreenenter"",""5"",""14470""
","
",520,NA,48,NA,NA,3000,1,NA,NA,images/earth.jpg,images/tutrocket1,images/tutrocket2,null,images/tutrocket1,NA,1,practice,null,2,NA,NA,NA,sub110
d3-animate-choice,95,492605,0.0-61.0-1.11,TRUE,TRUE,TRUE,TRUE,"""event"",""trial"",""time""
""fullscreenenter"",""5"",""14470""
","
","
","""event"",""trial"",""time""
""fullscreenenter"",""5"",""14470""
","
",1943,NA,49,NA,NA,3000,1,NA,NA,images/tutyellowplanet.jpg,images/tutalien4,images/tutalien3,images/tutrocket1,images/tutalien3,images/t.png,2,practice,false,1,rare,1,2020-06-26T20:49:33Z,sub110
two-step-fixation,96,493606,0.0-61.0-2.11,TRUE,TRUE,TRUE,TRUE,"""event"",""trial"",""time""
""fullscreenenter"",""5"",""14470""
","
","
","""event"",""trial"",""time""
""fullscreenenter"",""5"",""14470""
","
",NA,images/earth.jpg,NA,NA,NA,NA,NA,NA,NA,NA,NA,NA,NA,NA,NA,fixation,NA,NA,NA,NA,NA,NA,sub110
d3-animate-choice,97,496163,0.0-61.0-0.12,TRUE,TRUE,TRUE,TRUE,"""event"",""trial"",""time""
""fullscreenenter"",""5"",""14470""
","
","
","""event"",""trial"",""time""
""fullscreenenter"",""5"",""14470""
","
",553,NA,48,NA,NA,3000,1,NA,NA,images/earth.jpg,images/tutrocket1,images/tutrocket2,null,images/tutrocket1,NA,1,practice,null,2,NA,NA,NA,sub110
d3-animate-choice,98,499998,0.0-61.0-1.12,TRUE,TRUE,TRUE,TRUE,"""event"",""trial"",""time""
""fullscreenenter"",""5"",""14470""
","
","
","""event"",""trial"",""time""
""fullscreenenter"",""5"",""14470""
","
",1831,NA,49,NA,NA,3000,1,NA,NA,images/tutgreenplanet.jpg,images/tutalien2,images/tutalien1,images/tutrocket1,images/tutalien1,images/t.png,2,practice,true,1,common,1,2020-06-26T20:49:41Z,sub110
two-step-fixation,99,500999,0.0-61.0-2.12,TRUE,TRUE,TRUE,TRUE,"""event"",""trial"",""time""
""fullscreenenter"",""5"",""14470""
","
","
","""event"",""trial"",""time""
""fullscreenenter"",""5"",""14470""
","
",NA,images/earth.jpg,NA,NA,NA,NA,NA,NA,NA,NA,NA,NA,NA,NA,NA,fixation,NA,NA,NA,NA,NA,NA,sub110
d3-animate-choice,100,503916,0.0-61.0-0.13,TRUE,TRUE,TRUE,TRUE,"""event"",""trial"",""time""
""fullscreenenter"",""5"",""14470""
","
","
","""event"",""trial"",""time""
""fullscreenenter"",""5"",""14470""
","
",913,NA,49,NA,NA,3000,1,NA,NA,images/earth.jpg,images/tutrocket1,images/tutrocket2,null,images/tutrocket2,NA,1,practice,null,1,NA,NA,NA,sub110
d3-animate-choice,101,506555,0.0-61.0-1.13,TRUE,TRUE,TRUE,TRUE,"""event"",""trial"",""time""
""fullscreenenter"",""5"",""14470""
","
","
","""event"",""trial"",""time""
""fullscreenenter"",""5"",""14470""
","
",635,NA,49,NA,NA,3000,1,1294,49,images/tutyellowplanet.jpg,images/tutalien4,images/tutalien3,images/tutrocket2,images/tutalien3,images/nothing.png,2,practice,true,1,common,0,2020-06-26T20:49:47Z,sub110
two-step-fixation,102,507555,0.0-61.0-2.13,TRUE,TRUE,TRUE,TRUE,"""event"",""trial"",""time""
""fullscreenenter"",""5"",""14470""
","
","
","""event"",""trial"",""time""
""fullscreenenter"",""5"",""14470""
","
",NA,images/earth.jpg,NA,NA,NA,NA,NA,NA,NA,NA,NA,NA,NA,NA,NA,fixation,NA,NA,NA,NA,NA,NA,sub110
d3-animate-choice,103,509927,0.0-61.0-0.14,TRUE,TRUE,TRUE,TRUE,"""event"",""trial"",""time""
""fullscreenenter"",""5"",""14470""
","
","
","""event"",""trial"",""time""
""fullscreenenter"",""5"",""14470""
","
",367,NA,48,NA,NA,3000,1,NA,NA,images/earth.jpg,images/tutrocket1,images/tutrocket2,null,images/tutrocket1,NA,1,practice,null,2,NA,NA,NA,sub110
d3-animate-choice,104,512592,0.0-61.0-1.14,TRUE,TRUE,TRUE,TRUE,"""event"",""trial"",""time""
""fullscreenenter"",""5"",""14470""
","
","
","""event"",""trial"",""time""
""fullscreenenter"",""5"",""14470""
","
",661,NA,48,NA,NA,3000,1,NA,NA,images/tutgreenplanet.jpg,images/tutalien2,images/tutalien1,images/tutrocket1,images/tutalien2,images/t.png,2,practice,true,2,common,1,2020-06-26T20:49:53Z,sub110
two-step-fixation,105,513594,0.0-61.0-2.14,TRUE,TRUE,TRUE,TRUE,"""event"",""trial"",""time""
""fullscreenenter"",""5"",""14470""
","
","
","""event"",""trial"",""time""
""fullscreenenter"",""5"",""14470""
","
",NA,images/earth.jpg,NA,NA,NA,NA,NA,NA,NA,NA,NA,NA,NA,NA,NA,fixation,NA,NA,NA,NA,NA,NA,sub110
d3-animate-choice,106,516139,0.0-61.0-0.15,TRUE,TRUE,TRUE,TRUE,"""event"",""trial"",""time""
""fullscreenenter"",""5"",""14470""
","
","
","""event"",""trial"",""time""
""fullscreenenter"",""5"",""14470""
","
",544,NA,48,NA,NA,3000,1,NA,NA,images/earth.jpg,images/tutrocket1,images/tutrocket2,null,images/tutrocket1,NA,1,practice,null,2,NA,NA,NA,sub110
d3-animate-choice,107,520144,0.0-61.0-1.15,TRUE,TRUE,TRUE,TRUE,"""event"",""trial"",""time""
""fullscreenenter"",""5"",""14470""
","
","
","""event"",""trial"",""time""
""fullscreenenter"",""5"",""14470""
","
",2137,NA,48,NA,NA,3000,1,NA,NA,images/tutgreenplanet.jpg,images/tutalien2,images/tutalien1,images/tutrocket1,images/tutalien2,images/nothing.png,2,practice,true,2,common,0,2020-06-26T20:50:01Z,sub110
two-step-fixation,108,521145,0.0-61.0-2.15,TRUE,TRUE,TRUE,TRUE,"""event"",""trial"",""time""
""fullscreenenter"",""5"",""14470""
","
","
","""event"",""trial"",""time""
""fullscreenenter"",""5"",""14470""
","
",NA,images/earth.jpg,NA,NA,NA,NA,NA,NA,NA,NA,NA,NA,NA,NA,NA,fixation,NA,NA,NA,NA,NA,NA,sub110
d3-animate-choice,109,523511,0.0-61.0-0.16,TRUE,TRUE,TRUE,TRUE,"""event"",""trial"",""time""
""fullscreenenter"",""5"",""14470""
","
","
","""event"",""trial"",""time""
""fullscreenenter"",""5"",""14470""
","
",361,NA,49,NA,NA,3000,1,NA,NA,images/earth.jpg,images/tutrocket1,images/tutrocket2,null,images/tutrocket2,NA,1,practice,null,1,NA,NA,NA,sub110
d3-animate-choice,110,525988,0.0-61.0-1.16,TRUE,TRUE,TRUE,TRUE,"""event"",""trial"",""time""
""fullscreenenter"",""5"",""14470""
","
","
","""event"",""trial"",""time""
""fullscreenenter"",""5"",""14470""
","
",472,NA,49,NA,NA,3000,1,NA,NA,images/tutyellowplanet.jpg,images/tutalien4,images/tutalien3,images/tutrocket2,images/tutalien3,images/t.png,2,practice,true,1,common,1,2020-06-26T20:50:07Z,sub110
two-step-fixation,111,526992,0.0-61.0-2.16,TRUE,TRUE,TRUE,TRUE,"""event"",""trial"",""time""
""fullscreenenter"",""5"",""14470""
","
","
","""event"",""trial"",""time""
""fullscreenenter"",""5"",""14470""
","
",NA,images/earth.jpg,NA,NA,NA,NA,NA,NA,NA,NA,NA,NA,NA,NA,NA,fixation,NA,NA,NA,NA,NA,NA,sub110
d3-animate-choice,112,529499,0.0-61.0-0.17,TRUE,TRUE,TRUE,TRUE,"""event"",""trial"",""time""
""fullscreenenter"",""5"",""14470""
","
","
","""event"",""trial"",""time""
""fullscreenenter"",""5"",""14470""
","
",501,NA,48,NA,NA,3000,1,NA,NA,images/earth.jpg,images/tutrocket1,images/tutrocket2,null,images/tutrocket1,NA,1,practice,null,2,NA,NA,NA,sub110
d3-animate-choice,113,532031,0.0-61.0-1.17,TRUE,TRUE,TRUE,TRUE,"""event"",""trial"",""time""
""fullscreenenter"",""5"",""14470""
","
","
","""event"",""trial"",""time""
""fullscreenenter"",""5"",""14470""
","
",527,NA,49,NA,NA,3000,1,NA,NA,images/tutyellowplanet.jpg,images/tutalien4,images/tutalien3,images/tutrocket1,images/tutalien3,images/nothing.png,2,practice,false,1,rare,0,2020-06-26T20:50:13Z,sub110
two-step-fixation,114,533033,0.0-61.0-2.17,TRUE,TRUE,TRUE,TRUE,"""event"",""trial"",""time""
""fullscreenenter"",""5"",""14470""
","
","
","""event"",""trial"",""time""
""fullscreenenter"",""5"",""14470""
","
",NA,images/earth.jpg,NA,NA,NA,NA,NA,NA,NA,NA,NA,NA,NA,NA,NA,fixation,NA,NA,NA,NA,NA,NA,sub110
d3-animate-choice,115,535551,0.0-61.0-0.18,TRUE,TRUE,TRUE,TRUE,"""event"",""trial"",""time""
""fullscreenenter"",""5"",""14470""
","
","
","""event"",""trial"",""time""
""fullscreenenter"",""5"",""14470""
","
",516,NA,49,NA,NA,3000,1,NA,NA,images/earth.jpg,images/tutrocket1,images/tutrocket2,null,images/tutrocket2,NA,1,practice,null,1,NA,NA,NA,sub110
d3-animate-choice,116,539554,0.0-61.0-1.18,TRUE,TRUE,TRUE,TRUE,"""event"",""trial"",""time""
""fullscreenenter"",""5"",""14470""
","
","
","""event"",""trial"",""time""
""fullscreenenter"",""5"",""14470""
","
",2180,NA,49,NA,NA,3000,1,NA,NA,images/tutgreenplanet.jpg,images/tutalien2,images/tutalien1,images/tutrocket2,images/tutalien1,images/nothing.png,2,practice,false,1,rare,0,2020-06-26T20:50:20Z,sub110
two-step-fixation,117,540556,0.0-61.0-2.18,TRUE,TRUE,TRUE,TRUE,"""event"",""trial"",""time""
""fullscreenenter"",""5"",""14470""
","
","
","""event"",""trial"",""time""
""fullscreenenter"",""5"",""14470""
","
",NA,images/earth.jpg,NA,NA,NA,NA,NA,NA,NA,NA,NA,NA,NA,NA,NA,fixation,NA,NA,NA,NA,NA,NA,sub110
d3-animate-choice,118,544033,0.0-61.0-0.19,TRUE,TRUE,TRUE,TRUE,"""event"",""trial"",""time""
""fullscreenenter"",""5"",""14470""
","
","
","""event"",""trial"",""time""
""fullscreenenter"",""5"",""14470""
","
",1472,NA,48,NA,NA,3000,1,NA,NA,images/earth.jpg,images/tutrocket1,images/tutrocket2,null,images/tutrocket1,NA,1,practice,null,2,NA,NA,NA,sub110
d3-animate-choice,119,547754,0.0-61.0-1.19,TRUE,TRUE,TRUE,TRUE,"""event"",""trial"",""time""
""fullscreenenter"",""5"",""14470""
","
","
","""event"",""trial"",""time""
""fullscreenenter"",""5"",""14470""
","
",1717,NA,48,NA,NA,3000,1,NA,NA,images/tutgreenplanet.jpg,images/tutalien2,images/tutalien1,images/tutrocket1,images/tutalien2,images/t.png,2,practice,true,2,common,1,2020-06-26T20:50:29Z,sub110
two-step-fixation,120,548755,0.0-61.0-2.19,TRUE,TRUE,TRUE,TRUE,"""event"",""trial"",""time""
""fullscreenenter"",""5"",""14470""
","
","
","""event"",""trial"",""time""
""fullscreenenter"",""5"",""14470""
","
",NA,images/earth.jpg,NA,NA,NA,NA,NA,NA,NA,NA,NA,NA,NA,NA,NA,fixation,NA,NA,NA,NA,NA,NA,sub110
d3-instructions,121,553825,0.0-62.0,TRUE,TRUE,TRUE,TRUE,"""event"",""trial"",""time""
""fullscreenenter"",""5"",""14470""
","
","
","""event"",""trial"",""time""
""fullscreenenter"",""5"",""14470""
","
",NA,NA,NA,NA,NA,NA,NA,NA,NA,NA,NA,NA,NA,NA,NA,NA,NA,NA,NA,NA,NA,NA,sub110
audio-keyboard-response,122,557382,0.0-63.0,TRUE,TRUE,TRUE,TRUE,"""event"",""trial"",""time""
""fullscreenenter"",""5"",""14470""
","
","
","""event"",""trial"",""time""
""fullscreenenter"",""5"",""14470""
","
",3558,audio/instructions/treasure_feedback.wav,32,NA,NA,NA,NA,NA,NA,NA,NA,NA,NA,NA,NA,NA,NA,NA,NA,NA,NA,NA,sub110
d3-instructions,123,578601,0.0-64.0,TRUE,TRUE,TRUE,TRUE,"""event"",""trial"",""time""
""fullscreenenter"",""5"",""14470""
","
","
","""event"",""trial"",""time""
""fullscreenenter"",""5"",""14470""
","
",NA,NA,NA,NA,NA,NA,NA,NA,NA,NA,NA,NA,NA,NA,NA,NA,NA,NA,NA,NA,NA,NA,sub110
d3-instructions,124,592799,0.0-65.0,TRUE,TRUE,TRUE,TRUE,"""event"",""trial"",""time""
""fullscreenenter"",""5"",""14470""
","
","
","""event"",""trial"",""time""
""fullscreenenter"",""5"",""14470""
","
",NA,NA,NA,NA,NA,NA,NA,NA,NA,NA,NA,NA,NA,NA,NA,NA,NA,NA,NA,NA,NA,NA,sub110
d3-instructions,125,617565,0.0-66.0,TRUE,TRUE,TRUE,TRUE,"""event"",""trial"",""time""
""fullscreenenter"",""5"",""14470""
","
","
","""event"",""trial"",""time""
""fullscreenenter"",""5"",""14470""
","
",NA,NA,NA,NA,NA,NA,NA,NA,NA,NA,NA,NA,NA,NA,NA,NA,NA,NA,NA,NA,NA,NA,sub110
d3-instructions,126,635134,0.0-67.0,TRUE,TRUE,TRUE,TRUE,"""event"",""trial"",""time""
""fullscreenenter"",""5"",""14470""
","
","
","""event"",""trial"",""time""
""fullscreenenter"",""5"",""14470""
","
",NA,NA,NA,NA,NA,NA,NA,NA,NA,NA,NA,NA,NA,NA,NA,NA,NA,NA,NA,NA,NA,NA,sub110
d3-instructions,127,643719,0.0-68.0,TRUE,TRUE,TRUE,TRUE,"""event"",""trial"",""time""
""fullscreenenter"",""5"",""14470""
","
","
","""event"",""trial"",""time""
""fullscreenenter"",""5"",""14470""
","
",NA,NA,NA,NA,NA,NA,NA,NA,NA,NA,NA,NA,NA,NA,NA,NA,NA,NA,NA,NA,NA,NA,sub110
instructions-quiz,128,645878,0.0-69.0,TRUE,TRUE,TRUE,TRUE,"""event"",""trial"",""time""
""fullscreenenter"",""5"",""14470""
","
","
","""event"",""trial"",""time""
""fullscreenenter"",""5"",""14470""
","
",2157,audio/quiz/Q1_Prompt.wav,NA,1,NA,NA,NA,NA,NA,NA,NA,NA,NA,NA,NA,NA,NA,NA,NA,NA,NA,NA,sub110
audio-keyboard-response,129,655051,0.0-70.0,TRUE,TRUE,TRUE,TRUE,"""event"",""trial"",""time""
""fullscreenenter"",""5"",""14470""
","
","
","""event"",""trial"",""time""
""fullscreenenter"",""5"",""14470""
","
",null,audio/quiz/Q1_Correct.wav,null,NA,NA,NA,NA,NA,NA,NA,NA,NA,NA,NA,NA,NA,NA,NA,NA,NA,NA,NA,sub110
instructions-quiz,130,660400,0.0-71.0,TRUE,TRUE,TRUE,TRUE,"""event"",""trial"",""time""
""fullscreenenter"",""5"",""14470""
","
","
","""event"",""trial"",""time""
""fullscreenenter"",""5"",""14470""
","
",5347,audio/quiz/Q2_Prompt.wav,NA,0,NA,NA,NA,NA,NA,NA,NA,NA,NA,NA,NA,NA,NA,NA,NA,NA,NA,NA,sub110
audio-keyboard-response,131,673273,0.0-72.0,TRUE,TRUE,TRUE,TRUE,"""event"",""trial"",""time""
""fullscreenenter"",""5"",""14470""
","
","
","""event"",""trial"",""time""
""fullscreenenter"",""5"",""14470""
","
",null,audio/quiz/Q2_Correct.wav,null,NA,NA,NA,NA,NA,NA,NA,NA,NA,NA,NA,NA,NA,NA,NA,NA,NA,NA,NA,sub110
instructions-quiz,132,675797,0.0-73.0,TRUE,TRUE,TRUE,TRUE,"""event"",""trial"",""time""
""fullscreenenter"",""5"",""14470""
","
","
","""event"",""trial"",""time""
""fullscreenenter"",""5"",""14470""
","
",2524,audio/quiz/Q3_Prompt.wav,NA,1,NA,NA,NA,NA,NA,NA,NA,NA,NA,NA,NA,NA,NA,NA,NA,NA,NA,NA,sub110
audio-keyboard-response,133,681601,0.0-74.0,TRUE,TRUE,TRUE,TRUE,"""event"",""trial"",""time""
""fullscreenenter"",""5"",""14470""
","
","
","""event"",""trial"",""time""
""fullscreenenter"",""5"",""14470""
","
",null,audio/quiz/Q3_Correct.wav,null,NA,NA,NA,NA,NA,NA,NA,NA,NA,NA,NA,NA,NA,NA,NA,NA,NA,NA,NA,sub110
d3-instructions,134,695277,0.0-75.0,TRUE,TRUE,TRUE,TRUE,"""event"",""trial"",""time""
""fullscreenenter"",""5"",""14470""
","
","
","""event"",""trial"",""time""
""fullscreenenter"",""5"",""14470""
","
",NA,NA,NA,NA,NA,NA,NA,NA,NA,NA,NA,NA,NA,NA,NA,NA,NA,NA,NA,NA,NA,NA,sub110
d3-animate-choice,135,698100,0.0-76.0-0.0,TRUE,TRUE,TRUE,TRUE,"""event"",""trial"",""time""
""fullscreenenter"",""5"",""14470""
","
","
","""event"",""trial"",""time""
""fullscreenenter"",""5"",""14470""
","
",821,NA,49,NA,NA,3000,1,NA,NA,images/earth.jpg,images/rocket2,images/rocket1,null,images/rocket1,NA,1,real,null,1,NA,NA,NA,sub110
d3-animate-choice,136,701111,0.0-76.0-1.0,TRUE,TRUE,TRUE,TRUE,"""event"",""trial"",""time""
""fullscreenenter"",""5"",""14470""
","
","
","""event"",""trial"",""time""
""fullscreenenter"",""5"",""14470""
","
",1008,NA,49,NA,NA,3000,1,NA,NA,images/redplanet1.jpg,images/alien2,images/alien1,images/rocket1,images/alien1,images/nothing.png,2,real,true,1,common,0,2020-06-26T20:53:02Z,sub110
two-step-fixation,137,702116,0.0-76.0-2.0,TRUE,TRUE,TRUE,TRUE,"""event"",""trial"",""time""
""fullscreenenter"",""5"",""14470""
","
","
","""event"",""trial"",""time""
""fullscreenenter"",""5"",""14470""
","
",NA,images/earth.jpg,NA,NA,NA,NA,NA,NA,NA,NA,NA,NA,NA,NA,NA,fixation,NA,NA,NA,NA,NA,NA,sub110
d3-animate-choice,138,704759,0.0-76.0-0.1,TRUE,TRUE,TRUE,TRUE,"""event"",""trial"",""time""
""fullscreenenter"",""5"",""14470""
","
","
","""event"",""trial"",""time""
""fullscreenenter"",""5"",""14470""
","
",640,NA,48,NA,NA,3000,1,NA,NA,images/earth.jpg,images/rocket2,images/rocket1,null,images/rocket2,NA,1,real,null,2,NA,NA,NA,sub110
d3-animate-choice,139,707251,0.0-76.0-1.1,TRUE,TRUE,TRUE,TRUE,"""event"",""trial"",""time""
""fullscreenenter"",""5"",""14470""
","
","
","""event"",""trial"",""time""
""fullscreenenter"",""5"",""14470""
","
",487,NA,49,NA,NA,3000,1,NA,NA,images/purpleplanet.jpg,images/alien4,images/alien3,images/rocket2,images/alien3,images/nothing.png,2,real,true,1,common,0,2020-06-26T20:53:08Z,sub110
two-step-fixation,140,708252,0.0-76.0-2.1,TRUE,TRUE,TRUE,TRUE,"""event"",""trial"",""time""
""fullscreenenter"",""5"",""14470""
","
","
","""event"",""trial"",""time""
""fullscreenenter"",""5"",""14470""
","
",NA,images/earth.jpg,NA,NA,NA,NA,NA,NA,NA,NA,NA,NA,NA,NA,NA,fixation,NA,NA,NA,NA,NA,NA,sub110
d3-animate-choice,141,711056,0.0-76.0-0.2,TRUE,TRUE,TRUE,TRUE,"""event"",""trial"",""time""
""fullscreenenter"",""5"",""14470""
","
","
","""event"",""trial"",""time""
""fullscreenenter"",""5"",""14470""
","
",797,NA,49,NA,NA,3000,1,NA,NA,images/earth.jpg,images/rocket2,images/rocket1,null,images/rocket1,NA,1,real,null,1,NA,NA,NA,sub110
d3-animate-choice,142,713741,0.0-76.0-1.2,TRUE,TRUE,TRUE,TRUE,"""event"",""trial"",""time""
""fullscreenenter"",""5"",""14470""
","
","
","""event"",""trial"",""time""
""fullscreenenter"",""5"",""14470""
","
",681,NA,48,NA,NA,3000,1,NA,NA,images/redplanet1.jpg,images/alien2,images/alien1,images/rocket1,images/alien2,images/t.png,2,real,true,2,common,1,2020-06-26T20:53:15Z,sub110
two-step-fixation,143,714747,0.0-76.0-2.2,TRUE,TRUE,TRUE,TRUE,"""event"",""trial"",""time""
""fullscreenenter"",""5"",""14470""
","
","
","""event"",""trial"",""time""
""fullscreenenter"",""5"",""14470""
","
",NA,images/earth.jpg,NA,NA,NA,NA,NA,NA,NA,NA,NA,NA,NA,NA,NA,fixation,NA,NA,NA,NA,NA,NA,sub110
d3-animate-choice,144,717158,0.0-76.0-0.3,TRUE,TRUE,TRUE,TRUE,"""event"",""trial"",""time""
""fullscreenenter"",""5"",""14470""
","
","
","""event"",""trial"",""time""
""fullscreenenter"",""5"",""14470""
","
",405,NA,49,NA,NA,3000,1,NA,NA,images/earth.jpg,images/rocket2,images/rocket1,null,images/rocket1,NA,1,real,null,1,NA,NA,NA,sub110
d3-animate-choice,145,719705,0.0-76.0-1.3,TRUE,TRUE,TRUE,TRUE,"""event"",""trial"",""time""
""fullscreenenter"",""5"",""14470""
","
","
","""event"",""trial"",""time""
""fullscreenenter"",""5"",""14470""
","
",541,NA,48,NA,NA,3000,1,NA,NA,images/redplanet1.jpg,images/alien2,images/alien1,images/rocket1,images/alien2,images/t.png,2,real,true,2,common,1,2020-06-26T20:53:21Z,sub110
two-step-fixation,146,720708,0.0-76.0-2.3,TRUE,TRUE,TRUE,TRUE,"""event"",""trial"",""time""
""fullscreenenter"",""5"",""14470""
","
","
","""event"",""trial"",""time""
""fullscreenenter"",""5"",""14470""
","
",NA,images/earth.jpg,NA,NA,NA,NA,NA,NA,NA,NA,NA,NA,NA,NA,NA,fixation,NA,NA,NA,NA,NA,NA,sub110
d3-animate-choice,147,724599,0.0-76.0-0.4,TRUE,TRUE,TRUE,TRUE,"""event"",""trial"",""time""
""fullscreenenter"",""5"",""14470""
","
","
","""event"",""trial"",""time""
""fullscreenenter"",""5"",""14470""
","
",1889,NA,48,NA,NA,3000,1,NA,NA,images/earth.jpg,images/rocket2,images/rocket1,null,images/rocket2,NA,1,real,null,2,NA,NA,NA,sub110
d3-animate-choice,148,728245,0.0-76.0-1.4,TRUE,TRUE,TRUE,TRUE,"""event"",""trial"",""time""
""fullscreenenter"",""5"",""14470""
","
","
","""event"",""trial"",""time""
""fullscreenenter"",""5"",""14470""
","
",634,NA,50,NA,NA,3000,1,1642,48,images/purpleplanet.jpg,images/alien4,images/alien3,images/rocket2,images/alien4,images/t.png,2,real,true,NA,common,1,2020-06-26T20:53:29Z,sub110
two-step-fixation,149,729247,0.0-76.0-2.4,TRUE,TRUE,TRUE,TRUE,"""event"",""trial"",""time""
""fullscreenenter"",""5"",""14470""
","
","
","""event"",""trial"",""time""
""fullscreenenter"",""5"",""14470""
","
",NA,images/earth.jpg,NA,NA,NA,NA,NA,NA,NA,NA,NA,NA,NA,NA,NA,fixation,NA,NA,NA,NA,NA,NA,sub110
d3-animate-choice,150,733246,0.0-76.0-0.5,TRUE,TRUE,TRUE,TRUE,"""event"",""trial"",""time""
""fullscreenenter"",""5"",""14470""
","
","
","""event"",""trial"",""time""
""fullscreenenter"",""5"",""14470""
","
",1996,NA,49,NA,NA,3000,1,NA,NA,images/earth.jpg,images/rocket2,images/rocket1,null,images/rocket1,NA,1,real,null,1,NA,NA,NA,sub110
d3-animate-choice,151,736120,0.0-76.0-1.5,TRUE,TRUE,TRUE,TRUE,"""event"",""trial"",""time""
""fullscreenenter"",""5"",""14470""
","
","
","""event"",""trial"",""time""
""fullscreenenter"",""5"",""14470""
","
",870,NA,48,NA,NA,3000,1,NA,NA,images/purpleplanet.jpg,images/alien4,images/alien3,images/rocket1,images/alien4,images/t.png,2,real,false,2,rare,1,2020-06-26T20:53:37Z,sub110
two-step-fixation,152,737122,0.0-76.0-2.5,TRUE,TRUE,TRUE,TRUE,"""event"",""trial"",""time""
""fullscreenenter"",""5"",""14470""
","
","
","""event"",""trial"",""time""
""fullscreenenter"",""5"",""14470""
","
",NA,images/earth.jpg,NA,NA,NA,NA,NA,NA,NA,NA,NA,NA,NA,NA,NA,fixation,NA,NA,NA,NA,NA,NA,sub110
d3-animate-choice,153,739511,0.0-76.0-0.6,TRUE,TRUE,TRUE,TRUE,"""event"",""trial"",""time""
""fullscreenenter"",""5"",""14470""
","
","
","""event"",""trial"",""time""
""fullscreenenter"",""5"",""14470""
","
",387,NA,49,NA,NA,3000,1,NA,NA,images/earth.jpg,images/rocket2,images/rocket1,null,images/rocket1,NA,1,real,null,1,NA,NA,NA,sub110
d3-animate-choice,154,742028,0.0-76.0-1.6,TRUE,TRUE,TRUE,TRUE,"""event"",""trial"",""time""
""fullscreenenter"",""5"",""14470""
","
","
","""event"",""trial"",""time""
""fullscreenenter"",""5"",""14470""
","
",512,NA,48,NA,NA,3000,1,NA,NA,images/purpleplanet.jpg,images/alien4,images/alien3,images/rocket1,images/alien4,images/t.png,2,real,false,2,rare,1,2020-06-26T20:53:43Z,sub110
two-step-fixation,155,743030,0.0-76.0-2.6,TRUE,TRUE,TRUE,TRUE,"""event"",""trial"",""time""
""fullscreenenter"",""5"",""14470""
","
","
","""event"",""trial"",""time""
""fullscreenenter"",""5"",""14470""
","
",NA,images/earth.jpg,NA,NA,NA,NA,NA,NA,NA,NA,NA,NA,NA,NA,NA,fixation,NA,NA,NA,NA,NA,NA,sub110
d3-animate-choice,156,745527,0.0-76.0-0.7,TRUE,TRUE,TRUE,TRUE,"""event"",""trial"",""time""
""fullscreenenter"",""5"",""14470""
","
","
","""event"",""trial"",""time""
""fullscreenenter"",""5"",""14470""
","
",491,NA,49,NA,NA,3000,1,NA,NA,images/earth.jpg,images/rocket2,images/rocket1,null,images/rocket1,NA,1,real,null,1,NA,NA,NA,sub110
d3-animate-choice,157,748018,0.0-76.0-1.7,TRUE,TRUE,TRUE,TRUE,"""event"",""trial"",""time""
""fullscreenenter"",""5"",""14470""
","
","
","""event"",""trial"",""time""
""fullscreenenter"",""5"",""14470""
","
",488,NA,48,NA,NA,3000,1,NA,NA,images/purpleplanet.jpg,images/alien4,images/alien3,images/rocket1,images/alien4,images/t.png,2,real,false,2,rare,1,2020-06-26T20:53:49Z,sub110
two-step-fixation,158,749022,0.0-76.0-2.7,TRUE,TRUE,TRUE,TRUE,"""event"",""trial"",""time""
""fullscreenenter"",""5"",""14470""
","
","
","""event"",""trial"",""time""
""fullscreenenter"",""5"",""14470""
","
",NA,images/earth.jpg,NA,NA,NA,NA,NA,NA,NA,NA,NA,NA,NA,NA,NA,fixation,NA,NA,NA,NA,NA,NA,sub110
d3-animate-choice,159,751529,0.0-76.0-0.8,TRUE,TRUE,TRUE,TRUE,"""event"",""trial"",""time""
""fullscreenenter"",""5"",""14470""
","
","
","""event"",""trial"",""time""
""fullscreenenter"",""5"",""14470""
","
",501,NA,49,NA,NA,3000,1,NA,NA,images/earth.jpg,images/rocket2,images/rocket1,null,images/rocket1,NA,1,real,null,1,NA,NA,NA,sub110
d3-animate-choice,160,754299,0.0-76.0-1.8,TRUE,TRUE,TRUE,TRUE,"""event"",""trial"",""time""
""fullscreenenter"",""5"",""14470""
","
","
","""event"",""trial"",""time""
""fullscreenenter"",""5"",""14470""
","
",767,NA,48,NA,NA,3000,1,NA,NA,images/purpleplanet.jpg,images/alien4,images/alien3,images/rocket1,images/alien4,images/t.png,2,real,false,2,rare,1,2020-06-26T20:53:55Z,sub110
two-step-fixation,161,755301,0.0-76.0-2.8,TRUE,TRUE,TRUE,TRUE,"""event"",""trial"",""time""
""fullscreenenter"",""5"",""14470""
","
","
","""event"",""trial"",""time""
""fullscreenenter"",""5"",""14470""
","
",NA,images/earth.jpg,NA,NA,NA,NA,NA,NA,NA,NA,NA,NA,NA,NA,NA,fixation,NA,NA,NA,NA,NA,NA,sub110
d3-animate-choice,162,757689,0.0-76.0-0.9,TRUE,TRUE,TRUE,TRUE,"""event"",""trial"",""time""
""fullscreenenter"",""5"",""14470""
","
","
","""event"",""trial"",""time""
""fullscreenenter"",""5"",""14470""
","
",386,NA,48,NA,NA,3000,1,NA,NA,images/earth.jpg,images/rocket2,images/rocket1,null,images/rocket2,NA,1,real,null,2,NA,NA,NA,sub110
d3-animate-choice,163,761114,0.0-76.0-1.9,TRUE,TRUE,TRUE,TRUE,"""event"",""trial"",""time""
""fullscreenenter"",""5"",""14470""
","
","
","""event"",""trial"",""time""
""fullscreenenter"",""5"",""14470""
","
",1418,NA,48,NA,NA,3000,1,NA,NA,images/purpleplanet.jpg,images/alien4,images/alien3,images/rocket2,images/alien4,images/t.png,2,real,true,2,common,1,2020-06-26T20:54:02Z,sub110
two-step-fixation,164,762118,0.0-76.0-2.9,TRUE,TRUE,TRUE,TRUE,"""event"",""trial"",""time""
""fullscreenenter"",""5"",""14470""
","
","
","""event"",""trial"",""time""
""fullscreenenter"",""5"",""14470""
","
",NA,images/earth.jpg,NA,NA,NA,NA,NA,NA,NA,NA,NA,NA,NA,NA,NA,fixation,NA,NA,NA,NA,NA,NA,sub110
d3-animate-choice,165,764847,0.0-76.0-0.10,TRUE,TRUE,TRUE,TRUE,"""event"",""trial"",""time""
""fullscreenenter"",""5"",""14470""
","
","
","""event"",""trial"",""time""
""fullscreenenter"",""5"",""14470""
","
",727,NA,49,NA,NA,3000,1,NA,NA,images/earth.jpg,images/rocket2,images/rocket1,null,images/rocket1,NA,1,real,null,1,NA,NA,NA,sub110
d3-animate-choice,166,768031,0.0-76.0-1.10,TRUE,TRUE,TRUE,TRUE,"""event"",""trial"",""time""
""fullscreenenter"",""5"",""14470""
","
","
","""event"",""trial"",""time""
""fullscreenenter"",""5"",""14470""
","
",1181,NA,49,NA,NA,3000,1,NA,NA,images/redplanet1.jpg,images/alien2,images/alien1,images/rocket1,images/alien1,images/nothing.png,2,real,true,1,common,0,2020-06-26T20:54:09Z,sub110
two-step-fixation,167,769032,0.0-76.0-2.10,TRUE,TRUE,TRUE,TRUE,"""event"",""trial"",""time""
""fullscreenenter"",""5"",""14470""
","
","
","""event"",""trial"",""time""
""fullscreenenter"",""5"",""14470""
","
",NA,images/earth.jpg,NA,NA,NA,NA,NA,NA,NA,NA,NA,NA,NA,NA,NA,fixation,NA,NA,NA,NA,NA,NA,sub110
d3-animate-choice,168,771761,0.0-76.0-0.11,TRUE,TRUE,TRUE,TRUE,"""event"",""trial"",""time""
""fullscreenenter"",""5"",""14470""
","
","
","""event"",""trial"",""time""
""fullscreenenter"",""5"",""14470""
","
",725,NA,49,NA,NA,3000,1,NA,NA,images/earth.jpg,images/rocket2,images/rocket1,null,images/rocket1,NA,1,real,null,1,NA,NA,NA,sub110
d3-animate-choice,169,775044,0.0-76.0-1.11,TRUE,TRUE,TRUE,TRUE,"""event"",""trial"",""time""
""fullscreenenter"",""5"",""14470""
","
","
","""event"",""trial"",""time""
""fullscreenenter"",""5"",""14470""
","
",1277,NA,48,NA,NA,3000,1,NA,NA,images/redplanet1.jpg,images/alien2,images/alien1,images/rocket1,images/alien2,images/t.png,2,real,true,2,common,1,2020-06-26T20:54:16Z,sub110
two-step-fixation,170,776045,0.0-76.0-2.11,TRUE,TRUE,TRUE,TRUE,"""event"",""trial"",""time""
""fullscreenenter"",""5"",""14470""
","
","
","""event"",""trial"",""time""
""fullscreenenter"",""5"",""14470""
","
",NA,images/earth.jpg,NA,NA,NA,NA,NA,NA,NA,NA,NA,NA,NA,NA,NA,fixation,NA,NA,NA,NA,NA,NA,sub110
d3-animate-choice,171,778718,0.0-76.0-0.12,TRUE,TRUE,TRUE,TRUE,"""event"",""trial"",""time""
""fullscreenenter"",""5"",""14470""
","
","
","""event"",""trial"",""time""
""fullscreenenter"",""5"",""14470""
","
",667,NA,49,NA,NA,3000,1,NA,NA,images/earth.jpg,images/rocket2,images/rocket1,null,images/rocket1,NA,1,real,null,1,NA,NA,NA,sub110
d3-animate-choice,172,781405,0.0-76.0-1.12,TRUE,TRUE,TRUE,TRUE,"""event"",""trial"",""time""
""fullscreenenter"",""5"",""14470""
","
","
","""event"",""trial"",""time""
""fullscreenenter"",""5"",""14470""
","
",685,NA,48,NA,NA,3000,1,NA,NA,images/purpleplanet.jpg,images/alien4,images/alien3,images/rocket1,images/alien4,images/t.png,2,real,false,2,rare,1,2020-06-26T20:54:22Z,sub110
two-step-fixation,173,782410,0.0-76.0-2.12,TRUE,TRUE,TRUE,TRUE,"""event"",""trial"",""time""
""fullscreenenter"",""5"",""14470""
","
","
","""event"",""trial"",""time""
""fullscreenenter"",""5"",""14470""
","
",NA,images/earth.jpg,NA,NA,NA,NA,NA,NA,NA,NA,NA,NA,NA,NA,NA,fixation,NA,NA,NA,NA,NA,NA,sub110
d3-animate-choice,174,784811,0.0-76.0-0.13,TRUE,TRUE,TRUE,TRUE,"""event"",""trial"",""time""
""fullscreenenter"",""5"",""14470""
","
","
","""event"",""trial"",""time""
""fullscreenenter"",""5"",""14470""
","
",395,NA,48,NA,NA,3000,1,NA,NA,images/earth.jpg,images/rocket2,images/rocket1,null,images/rocket2,NA,1,real,null,2,NA,NA,NA,sub110
d3-animate-choice,175,787430,0.0-76.0-1.13,TRUE,TRUE,TRUE,TRUE,"""event"",""trial"",""time""
""fullscreenenter"",""5"",""14470""
","
","
","""event"",""trial"",""time""
""fullscreenenter"",""5"",""14470""
","
",615,NA,48,NA,NA,3000,1,NA,NA,images/purpleplanet.jpg,images/alien4,images/alien3,images/rocket2,images/alien4,images/t.png,2,real,true,2,common,1,2020-06-26T20:54:28Z,sub110
two-step-fixation,176,788433,0.0-76.0-2.13,TRUE,TRUE,TRUE,TRUE,"""event"",""trial"",""time""
""fullscreenenter"",""5"",""14470""
","
","
","""event"",""trial"",""time""
""fullscreenenter"",""5"",""14470""
","
",NA,images/earth.jpg,NA,NA,NA,NA,NA,NA,NA,NA,NA,NA,NA,NA,NA,fixation,NA,NA,NA,NA,NA,NA,sub110
d3-animate-choice,177,791342,0.0-76.0-0.14,TRUE,TRUE,TRUE,TRUE,"""event"",""trial"",""time""
""fullscreenenter"",""5"",""14470""
","
","
","""event"",""trial"",""time""
""fullscreenenter"",""5"",""14470""
","
",905,NA,49,NA,NA,3000,1,NA,NA,images/earth.jpg,images/rocket2,images/rocket1,null,images/rocket1,NA,1,real,null,1,NA,NA,NA,sub110
d3-animate-choice,178,793917,0.0-76.0-1.14,TRUE,TRUE,TRUE,TRUE,"""event"",""trial"",""time""
""fullscreenenter"",""5"",""14470""
","
","
","""event"",""trial"",""time""
""fullscreenenter"",""5"",""14470""
","
",572,NA,48,NA,NA,3000,1,NA,NA,images/purpleplanet.jpg,images/alien4,images/alien3,images/rocket1,images/alien4,images/t.png,2,real,false,2,rare,1,2020-06-26T20:54:35Z,sub110
two-step-fixation,179,794920,0.0-76.0-2.14,TRUE,TRUE,TRUE,TRUE,"""event"",""trial"",""time""
""fullscreenenter"",""5"",""14470""
","
","
","""event"",""trial"",""time""
""fullscreenenter"",""5"",""14470""
","
",NA,images/earth.jpg,NA,NA,NA,NA,NA,NA,NA,NA,NA,NA,NA,NA,NA,fixation,NA,NA,NA,NA,NA,NA,sub110
d3-animate-choice,180,797306,0.0-76.0-0.15,TRUE,TRUE,TRUE,TRUE,"""event"",""trial"",""time""
""fullscreenenter"",""5"",""14470""
","
","
","""event"",""trial"",""time""
""fullscreenenter"",""5"",""14470""
","
",379,NA,49,NA,NA,3000,1,NA,NA,images/earth.jpg,images/rocket2,images/rocket1,null,images/rocket1,NA,1,real,null,1,NA,NA,NA,sub110
d3-animate-choice,181,799742,0.0-76.0-1.15,TRUE,TRUE,TRUE,TRUE,"""event"",""trial"",""time""
""fullscreenenter"",""5"",""14470""
","
","
","""event"",""trial"",""time""
""fullscreenenter"",""5"",""14470""
","
",430,NA,48,NA,NA,3000,1,NA,NA,images/purpleplanet.jpg,images/alien4,images/alien3,images/rocket1,images/alien4,images/t.png,2,real,false,2,rare,1,2020-06-26T20:54:41Z,sub110
two-step-fixation,182,800746,0.0-76.0-2.15,TRUE,TRUE,TRUE,TRUE,"""event"",""trial"",""time""
""fullscreenenter"",""5"",""14470""
","
","
","""event"",""trial"",""time""
""fullscreenenter"",""5"",""14470""
","
",NA,images/earth.jpg,NA,NA,NA,NA,NA,NA,NA,NA,NA,NA,NA,NA,NA,fixation,NA,NA,NA,NA,NA,NA,sub110
d3-animate-choice,183,803189,0.0-76.0-0.16,TRUE,TRUE,TRUE,TRUE,"""event"",""trial"",""time""
""fullscreenenter"",""5"",""14470""
","
","
","""event"",""trial"",""time""
""fullscreenenter"",""5"",""14470""
","
",441,NA,49,NA,NA,3000,1,NA,NA,images/earth.jpg,images/rocket2,images/rocket1,null,images/rocket1,NA,1,real,null,1,NA,NA,NA,sub110
d3-animate-choice,184,805753,0.0-76.0-1.16,TRUE,TRUE,TRUE,TRUE,"""event"",""trial"",""time""
""fullscreenenter"",""5"",""14470""
","
","
","""event"",""trial"",""time""
""fullscreenenter"",""5"",""14470""
","
",559,NA,48,NA,NA,3000,1,NA,NA,images/purpleplanet.jpg,images/alien4,images/alien3,images/rocket1,images/alien4,images/t.png,2,real,false,2,rare,1,2020-06-26T20:54:47Z,sub110
two-step-fixation,185,806754,0.0-76.0-2.16,TRUE,TRUE,TRUE,TRUE,"""event"",""trial"",""time""
""fullscreenenter"",""5"",""14470""
","
","
","""event"",""trial"",""time""
""fullscreenenter"",""5"",""14470""
","
",NA,images/earth.jpg,NA,NA,NA,NA,NA,NA,NA,NA,NA,NA,NA,NA,NA,fixation,NA,NA,NA,NA,NA,NA,sub110
d3-animate-choice,186,809175,0.0-76.0-0.17,TRUE,TRUE,TRUE,TRUE,"""event"",""trial"",""time""
""fullscreenenter"",""5"",""14470""
","
","
","""event"",""trial"",""time""
""fullscreenenter"",""5"",""14470""
","
",415,NA,48,NA,NA,3000,1,NA,NA,images/earth.jpg,images/rocket2,images/rocket1,null,images/rocket2,NA,1,real,null,2,NA,NA,NA,sub110
d3-animate-choice,187,811953,0.0-76.0-1.17,TRUE,TRUE,TRUE,TRUE,"""event"",""trial"",""time""
""fullscreenenter"",""5"",""14470""
","
","
","""event"",""trial"",""time""
""fullscreenenter"",""5"",""14470""
","
",775,NA,48,NA,NA,3000,1,NA,NA,images/purpleplanet.jpg,images/alien4,images/alien3,images/rocket2,images/alien4,images/t.png,2,real,true,2,common,1,2020-06-26T20:54:53Z,sub110
two-step-fixation,188,812954,0.0-76.0-2.17,TRUE,TRUE,TRUE,TRUE,"""event"",""trial"",""time""
""fullscreenenter"",""5"",""14470""
","
","
","""event"",""trial"",""time""
""fullscreenenter"",""5"",""14470""
","
",NA,images/earth.jpg,NA,NA,NA,NA,NA,NA,NA,NA,NA,NA,NA,NA,NA,fixation,NA,NA,NA,NA,NA,NA,sub110
d3-animate-choice,189,815543,0.0-76.0-0.18,TRUE,TRUE,TRUE,TRUE,"""event"",""trial"",""time""
""fullscreenenter"",""5"",""14470""
","
","
","""event"",""trial"",""time""
""fullscreenenter"",""5"",""14470""
","
",583,NA,49,NA,NA,3000,1,NA,NA,images/earth.jpg,images/rocket2,images/rocket1,null,images/rocket1,NA,1,real,null,1,NA,NA,NA,sub110
d3-animate-choice,190,818172,0.0-76.0-1.18,TRUE,TRUE,TRUE,TRUE,"""event"",""trial"",""time""
""fullscreenenter"",""5"",""14470""
","
","
","""event"",""trial"",""time""
""fullscreenenter"",""5"",""14470""
","
",622,NA,48,NA,NA,3000,1,NA,NA,images/purpleplanet.jpg,images/alien4,images/alien3,images/rocket1,images/alien4,images/t.png,2,real,false,2,rare,1,2020-06-26T20:54:59Z,sub110
two-step-fixation,191,819176,0.0-76.0-2.18,TRUE,TRUE,TRUE,TRUE,"""event"",""trial"",""time""
""fullscreenenter"",""5"",""14470""
","
","
","""event"",""trial"",""time""
""fullscreenenter"",""5"",""14470""
","
",NA,images/earth.jpg,NA,NA,NA,NA,NA,NA,NA,NA,NA,NA,NA,NA,NA,fixation,NA,NA,NA,NA,NA,NA,sub110
d3-animate-choice,192,821444,0.0-76.0-0.19,TRUE,TRUE,TRUE,TRUE,"""event"",""trial"",""time""
""fullscreenenter"",""5"",""14470""
","
","
","""event"",""trial"",""time""
""fullscreenenter"",""5"",""14470""
","
",266,NA,49,NA,NA,3000,1,NA,NA,images/earth.jpg,images/rocket2,images/rocket1,null,images/rocket1,NA,1,real,null,1,NA,NA,NA,sub110
d3-animate-choice,193,823787,0.0-76.0-1.19,TRUE,TRUE,TRUE,TRUE,"""event"",""trial"",""time""
""fullscreenenter"",""5"",""14470""
","
","
","""event"",""trial"",""time""
""fullscreenenter"",""5"",""14470""
","
",340,NA,48,NA,NA,3000,1,NA,NA,images/redplanet1.jpg,images/alien2,images/alien1,images/rocket1,images/alien2,images/t.png,2,real,true,2,common,1,2020-06-26T20:55:05Z,sub110
two-step-fixation,194,824788,0.0-76.0-2.19,TRUE,TRUE,TRUE,TRUE,"""event"",""trial"",""time""
""fullscreenenter"",""5"",""14470""
","
","
","""event"",""trial"",""time""
""fullscreenenter"",""5"",""14470""
","
",NA,images/earth.jpg,NA,NA,NA,NA,NA,NA,NA,NA,NA,NA,NA,NA,NA,fixation,NA,NA,NA,NA,NA,NA,sub110
d3-animate-choice,195,827224,0.0-76.0-0.20,TRUE,TRUE,TRUE,TRUE,"""event"",""trial"",""time""
""fullscreenenter"",""5"",""14470""
","
","
","""event"",""trial"",""time""
""fullscreenenter"",""5"",""14470""
","
",431,NA,49,NA,NA,3000,1,NA,NA,images/earth.jpg,images/rocket2,images/rocket1,null,images/rocket1,NA,1,real,null,1,NA,NA,NA,sub110
d3-animate-choice,196,829747,0.0-76.0-1.20,TRUE,TRUE,TRUE,TRUE,"""event"",""trial"",""time""
""fullscreenenter"",""5"",""14470""
","
","
","""event"",""trial"",""time""
""fullscreenenter"",""5"",""14470""
","
",519,NA,48,NA,NA,3000,1,NA,NA,images/redplanet1.jpg,images/alien2,images/alien1,images/rocket1,images/alien2,images/nothing.png,2,real,true,2,common,0,2020-06-26T20:55:11Z,sub110
two-step-fixation,197,830749,0.0-76.0-2.20,TRUE,TRUE,TRUE,TRUE,"""event"",""trial"",""time""
""fullscreenenter"",""5"",""14470""
","
","
","""event"",""trial"",""time""
""fullscreenenter"",""5"",""14470""
","
",NA,images/earth.jpg,NA,NA,NA,NA,NA,NA,NA,NA,NA,NA,NA,NA,NA,fixation,NA,NA,NA,NA,NA,NA,sub110
d3-animate-choice,198,833456,0.0-76.0-0.21,TRUE,TRUE,TRUE,TRUE,"""event"",""trial"",""time""
""fullscreenenter"",""5"",""14470""
","
","
","""event"",""trial"",""time""
""fullscreenenter"",""5"",""14470""
","
",701,NA,49,NA,NA,3000,1,NA,NA,images/earth.jpg,images/rocket2,images/rocket1,null,images/rocket1,NA,1,real,null,1,NA,NA,NA,sub110
d3-animate-choice,199,836503,0.0-76.0-1.21,TRUE,TRUE,TRUE,TRUE,"""event"",""trial"",""time""
""fullscreenenter"",""5"",""14470""
","
","
","""event"",""trial"",""time""
""fullscreenenter"",""5"",""14470""
","
",1042,NA,49,NA,NA,3000,1,NA,NA,images/redplanet1.jpg,images/alien2,images/alien1,images/rocket1,images/alien1,images/t.png,2,real,true,1,common,1,2020-06-26T20:55:17Z,sub110
two-step-fixation,200,837504,0.0-76.0-2.21,TRUE,TRUE,TRUE,TRUE,"""event"",""trial"",""time""
""fullscreenenter"",""5"",""14470""
","
","
","""event"",""trial"",""time""
""fullscreenenter"",""5"",""14470""
","
",NA,images/earth.jpg,NA,NA,NA,NA,NA,NA,NA,NA,NA,NA,NA,NA,NA,fixation,NA,NA,NA,NA,NA,NA,sub110
d3-animate-choice,201,840198,0.0-76.0-0.22,TRUE,TRUE,TRUE,TRUE,"""event"",""trial"",""time""
""fullscreenenter"",""5"",""14470""
","
","
","""event"",""trial"",""time""
""fullscreenenter"",""5"",""14470""
","
",688,NA,48,NA,NA,3000,1,NA,NA,images/earth.jpg,images/rocket2,images/rocket1,null,images/rocket2,NA,1,real,null,2,NA,NA,NA,sub110
d3-animate-choice,202,843005,0.0-76.0-1.22,TRUE,TRUE,TRUE,TRUE,"""event"",""trial"",""time""
""fullscreenenter"",""5"",""14470""
","
","
","""event"",""trial"",""time""
""fullscreenenter"",""5"",""14470""
","
",803,NA,48,NA,NA,3000,1,NA,NA,images/purpleplanet.jpg,images/alien4,images/alien3,images/rocket2,images/alien4,images/t.png,2,real,true,2,common,1,2020-06-26T20:55:24Z,sub110
two-step-fixation,203,844008,0.0-76.0-2.22,TRUE,TRUE,TRUE,TRUE,"""event"",""trial"",""time""
""fullscreenenter"",""5"",""14470""
","
","
","""event"",""trial"",""time""
""fullscreenenter"",""5"",""14470""
","
",NA,images/earth.jpg,NA,NA,NA,NA,NA,NA,NA,NA,NA,NA,NA,NA,NA,fixation,NA,NA,NA,NA,NA,NA,sub110
d3-animate-choice,204,846421,0.0-76.0-0.23,TRUE,TRUE,TRUE,TRUE,"""event"",""trial"",""time""
""fullscreenenter"",""5"",""14470""
","
","
","""event"",""trial"",""time""
""fullscreenenter"",""5"",""14470""
","
",406,NA,49,NA,NA,3000,1,NA,NA,images/earth.jpg,images/rocket2,images/rocket1,null,images/rocket1,NA,1,real,null,1,NA,NA,NA,sub110
d3-animate-choice,205,849350,0.0-76.0-1.23,TRUE,TRUE,TRUE,TRUE,"""event"",""trial"",""time""
""fullscreenenter"",""5"",""14470""
","
","
","""event"",""trial"",""time""
""fullscreenenter"",""5"",""14470""
","
",925,NA,49,NA,NA,3000,1,NA,NA,images/redplanet1.jpg,images/alien2,images/alien1,images/rocket1,images/alien1,images/t.png,2,real,true,1,common,1,2020-06-26T20:55:30Z,sub110
two-step-fixation,206,850354,0.0-76.0-2.23,TRUE,TRUE,TRUE,TRUE,"""event"",""trial"",""time""
""fullscreenenter"",""5"",""14470""
","
","
","""event"",""trial"",""time""
""fullscreenenter"",""5"",""14470""
","
",NA,images/earth.jpg,NA,NA,NA,NA,NA,NA,NA,NA,NA,NA,NA,NA,NA,fixation,NA,NA,NA,NA,NA,NA,sub110
d3-animate-choice,207,854359,0.0-76.0-0.24,TRUE,TRUE,TRUE,TRUE,"""event"",""trial"",""time""
""fullscreenenter"",""5"",""14470""
","
","
","""event"",""trial"",""time""
""fullscreenenter"",""5"",""14470""
","
",2386,NA,48,NA,NA,3000,1,NA,NA,images/earth.jpg,images/rocket2,images/rocket1,null,images/rocket2,NA,1,real,null,2,NA,NA,NA,sub110
d3-animate-choice,208,857085,0.0-76.0-1.24,TRUE,TRUE,TRUE,TRUE,"""event"",""trial"",""time""
""fullscreenenter"",""5"",""14470""
","
","
","""event"",""trial"",""time""
""fullscreenenter"",""5"",""14470""
","
",723,NA,48,NA,NA,3000,1,NA,NA,images/purpleplanet.jpg,images/alien4,images/alien3,images/rocket2,images/alien4,images/t.png,2,real,true,2,common,1,2020-06-26T20:55:38Z,sub110
two-step-fixation,209,858089,0.0-76.0-2.24,TRUE,TRUE,TRUE,TRUE,"""event"",""trial"",""time""
""fullscreenenter"",""5"",""14470""
","
","
","""event"",""trial"",""time""
""fullscreenenter"",""5"",""14470""
","
",NA,images/earth.jpg,NA,NA,NA,NA,NA,NA,NA,NA,NA,NA,NA,NA,NA,fixation,NA,NA,NA,NA,NA,NA,sub110
d3-animate-choice,210,860443,0.0-76.0-0.25,TRUE,TRUE,TRUE,TRUE,"""event"",""trial"",""time""
""fullscreenenter"",""5"",""14470""
","
","
","""event"",""trial"",""time""
""fullscreenenter"",""5"",""14470""
","
",349,NA,48,NA,NA,3000,1,NA,NA,images/earth.jpg,images/rocket2,images/rocket1,null,images/rocket2,NA,1,real,null,2,NA,NA,NA,sub110
d3-animate-choice,211,863315,0.0-76.0-1.25,TRUE,TRUE,TRUE,TRUE,"""event"",""trial"",""time""
""fullscreenenter"",""5"",""14470""
","
","
","""event"",""trial"",""time""
""fullscreenenter"",""5"",""14470""
","
",866,NA,48,NA,NA,3000,1,NA,NA,images/purpleplanet.jpg,images/alien4,images/alien3,images/rocket2,images/alien4,images/t.png,2,real,true,2,common,1,2020-06-26T20:55:44Z,sub110
two-step-fixation,212,864319,0.0-76.0-2.25,TRUE,TRUE,TRUE,TRUE,"""event"",""trial"",""time""
""fullscreenenter"",""5"",""14470""
","
","
","""event"",""trial"",""time""
""fullscreenenter"",""5"",""14470""
","
",NA,images/earth.jpg,NA,NA,NA,NA,NA,NA,NA,NA,NA,NA,NA,NA,NA,fixation,NA,NA,NA,NA,NA,NA,sub110
d3-animate-choice,213,866777,0.0-76.0-0.26,TRUE,TRUE,TRUE,TRUE,"""event"",""trial"",""time""
""fullscreenenter"",""5"",""14470""
","
","
","""event"",""trial"",""time""
""fullscreenenter"",""5"",""14470""
","
",454,NA,49,NA,NA,3000,1,NA,NA,images/earth.jpg,images/rocket2,images/rocket1,null,images/rocket1,NA,1,real,null,1,NA,NA,NA,sub110
d3-animate-choice,214,869622,0.0-76.0-1.26,TRUE,TRUE,TRUE,TRUE,"""event"",""trial"",""time""
""fullscreenenter"",""5"",""14470""
","
","
","""event"",""trial"",""time""
""fullscreenenter"",""5"",""14470""
","
",843,NA,49,NA,NA,3000,1,NA,NA,images/redplanet1.jpg,images/alien2,images/alien1,images/rocket1,images/alien1,images/nothing.png,2,real,true,1,common,0,2020-06-26T20:55:50Z,sub110
two-step-fixation,215,870625,0.0-76.0-2.26,TRUE,TRUE,TRUE,TRUE,"""event"",""trial"",""time""
""fullscreenenter"",""5"",""14470""
","
","
","""event"",""trial"",""time""
""fullscreenenter"",""5"",""14470""
","
",NA,images/earth.jpg,NA,NA,NA,NA,NA,NA,NA,NA,NA,NA,NA,NA,NA,fixation,NA,NA,NA,NA,NA,NA,sub110
d3-animate-choice,216,874085,0.0-76.0-0.27,TRUE,TRUE,TRUE,TRUE,"""event"",""trial"",""time""
""fullscreenenter"",""5"",""14470""
","
","
","""event"",""trial"",""time""
""fullscreenenter"",""5"",""14470""
","
",1453,NA,48,NA,NA,3000,1,NA,NA,images/earth.jpg,images/rocket2,images/rocket1,null,images/rocket2,NA,1,real,null,2,NA,NA,NA,sub110
d3-animate-choice,217,876790,0.0-76.0-1.27,TRUE,TRUE,TRUE,TRUE,"""event"",""trial"",""time""
""fullscreenenter"",""5"",""14470""
","
","
","""event"",""trial"",""time""
""fullscreenenter"",""5"",""14470""
","
",701,NA,48,NA,NA,3000,1,NA,NA,images/purpleplanet.jpg,images/alien4,images/alien3,images/rocket2,images/alien4,images/t.png,2,real,true,2,common,1,2020-06-26T20:55:58Z,sub110
two-step-fixation,218,877792,0.0-76.0-2.27,TRUE,TRUE,TRUE,TRUE,"""event"",""trial"",""time""
""fullscreenenter"",""5"",""14470""
","
","
","""event"",""trial"",""time""
""fullscreenenter"",""5"",""14470""
","
",NA,images/earth.jpg,NA,NA,NA,NA,NA,NA,NA,NA,NA,NA,NA,NA,NA,fixation,NA,NA,NA,NA,NA,NA,sub110
d3-animate-choice,219,880494,0.0-76.0-0.28,TRUE,TRUE,TRUE,TRUE,"""event"",""trial"",""time""
""fullscreenenter"",""5"",""14470""
","
","
","""event"",""trial"",""time""
""fullscreenenter"",""5"",""14470""
","
",700,NA,49,NA,NA,3000,1,NA,NA,images/earth.jpg,images/rocket2,images/rocket1,null,images/rocket1,NA,1,real,null,1,NA,NA,NA,sub110
d3-animate-choice,220,883647,0.0-76.0-1.28,TRUE,TRUE,TRUE,TRUE,"""event"",""trial"",""time""
""fullscreenenter"",""5"",""14470""
","
","
","""event"",""trial"",""time""
""fullscreenenter"",""5"",""14470""
","
",1146,NA,48,NA,NA,3000,1,NA,NA,images/purpleplanet.jpg,images/alien4,images/alien3,images/rocket1,images/alien4,images/nothing.png,2,real,false,2,rare,0,2020-06-26T20:56:05Z,sub110
two-step-fixation,221,884648,0.0-76.0-2.28,TRUE,TRUE,TRUE,TRUE,"""event"",""trial"",""time""
""fullscreenenter"",""5"",""14470""
","
","
","""event"",""trial"",""time""
""fullscreenenter"",""5"",""14470""
","
",NA,images/earth.jpg,NA,NA,NA,NA,NA,NA,NA,NA,NA,NA,NA,NA,NA,fixation,NA,NA,NA,NA,NA,NA,sub110
d3-animate-choice,222,887420,0.0-76.0-0.29,TRUE,TRUE,TRUE,TRUE,"""event"",""trial"",""time""
""fullscreenenter"",""5"",""14470""
","
","
","""event"",""trial"",""time""
""fullscreenenter"",""5"",""14470""
","
",769,NA,48,NA,NA,3000,1,NA,NA,images/earth.jpg,images/rocket2,images/rocket1,null,images/rocket2,NA,1,real,null,2,NA,NA,NA,sub110
d3-animate-choice,223,889951,0.0-76.0-1.29,TRUE,TRUE,TRUE,TRUE,"""event"",""trial"",""time""
""fullscreenenter"",""5"",""14470""
","
","
","""event"",""trial"",""time""
""fullscreenenter"",""5"",""14470""
","
",525,NA,49,NA,NA,3000,1,NA,NA,images/purpleplanet.jpg,images/alien4,images/alien3,images/rocket2,images/alien3,images/nothing.png,2,real,true,1,common,0,2020-06-26T20:56:11Z,sub110
two-step-fixation,224,890955,0.0-76.0-2.29,TRUE,TRUE,TRUE,TRUE,"""event"",""trial"",""time""
""fullscreenenter"",""5"",""14470""
","
","
","""event"",""trial"",""time""
""fullscreenenter"",""5"",""14470""
","
",NA,images/earth.jpg,NA,NA,NA,NA,NA,NA,NA,NA,NA,NA,NA,NA,NA,fixation,NA,NA,NA,NA,NA,NA,sub110
d3-animate-choice,225,893994,0.0-76.0-0.30,TRUE,TRUE,TRUE,TRUE,"""event"",""trial"",""time""
""fullscreenenter"",""5"",""14470""
","
","
","""event"",""trial"",""time""
""fullscreenenter"",""5"",""14470""
","
",1036,NA,49,NA,NA,3000,1,NA,NA,images/earth.jpg,images/rocket2,images/rocket1,null,images/rocket1,NA,1,real,null,1,NA,NA,NA,sub110
d3-animate-choice,226,898003,0.0-76.0-1.30,TRUE,TRUE,TRUE,TRUE,"""event"",""trial"",""time""
""fullscreenenter"",""5"",""14470""
","
","
","""event"",""trial"",""time""
""fullscreenenter"",""5"",""14470""
","
",2022,NA,48,NA,NA,3000,1,NA,NA,images/redplanet1.jpg,images/alien2,images/alien1,images/rocket1,images/alien2,images/t.png,2,real,true,2,common,1,2020-06-26T20:56:19Z,sub110
two-step-fixation,227,899007,0.0-76.0-2.30,TRUE,TRUE,TRUE,TRUE,"""event"",""trial"",""time""
""fullscreenenter"",""5"",""14470""
","
","
","""event"",""trial"",""time""
""fullscreenenter"",""5"",""14470""
","
",NA,images/earth.jpg,NA,NA,NA,NA,NA,NA,NA,NA,NA,NA,NA,NA,NA,fixation,NA,NA,NA,NA,NA,NA,sub110
d3-animate-choice,228,902185,0.0-76.0-0.31,TRUE,TRUE,TRUE,TRUE,"""event"",""trial"",""time""
""fullscreenenter"",""5"",""14470""
","
","
","""event"",""trial"",""time""
""fullscreenenter"",""5"",""14470""
","
",1172,NA,49,NA,NA,3000,1,NA,NA,images/earth.jpg,images/rocket2,images/rocket1,null,images/rocket1,NA,1,real,null,1,NA,NA,NA,sub110
d3-animate-choice,229,905558,0.0-76.0-1.31,TRUE,TRUE,TRUE,TRUE,"""event"",""trial"",""time""
""fullscreenenter"",""5"",""14470""
","
","
","""event"",""trial"",""time""
""fullscreenenter"",""5"",""14470""
","
",1369,NA,48,NA,NA,3000,1,NA,NA,images/redplanet1.jpg,images/alien2,images/alien1,images/rocket1,images/alien2,images/t.png,2,real,true,2,common,1,2020-06-26T20:56:26Z,sub110
two-step-fixation,230,906560,0.0-76.0-2.31,TRUE,TRUE,TRUE,TRUE,"""event"",""trial"",""time""
""fullscreenenter"",""5"",""14470""
","
","
","""event"",""trial"",""time""
""fullscreenenter"",""5"",""14470""
","
",NA,images/earth.jpg,NA,NA,NA,NA,NA,NA,NA,NA,NA,NA,NA,NA,NA,fixation,NA,NA,NA,NA,NA,NA,sub110
d3-animate-choice,231,910086,0.0-76.0-0.32,TRUE,TRUE,TRUE,TRUE,"""event"",""trial"",""time""
""fullscreenenter"",""5"",""14470""
","
","
","""event"",""trial"",""time""
""fullscreenenter"",""5"",""14470""
","
",1522,NA,49,NA,NA,3000,1,NA,NA,images/earth.jpg,images/rocket2,images/rocket1,null,images/rocket1,NA,1,real,null,1,NA,NA,NA,sub110
d3-animate-choice,232,913764,0.0-76.0-1.32,TRUE,TRUE,TRUE,TRUE,"""event"",""trial"",""time""
""fullscreenenter"",""5"",""14470""
","
","
","""event"",""trial"",""time""
""fullscreenenter"",""5"",""14470""
","
",1673,NA,49,NA,NA,3000,1,NA,NA,images/purpleplanet.jpg,images/alien4,images/alien3,images/rocket1,images/alien3,images/nothing.png,2,real,false,1,rare,0,2020-06-26T20:56:35Z,sub110
two-step-fixation,233,914765,0.0-76.0-2.32,TRUE,TRUE,TRUE,TRUE,"""event"",""trial"",""time""
""fullscreenenter"",""5"",""14470""
","
","
","""event"",""trial"",""time""
""fullscreenenter"",""5"",""14470""
","
",NA,images/earth.jpg,NA,NA,NA,NA,NA,NA,NA,NA,NA,NA,NA,NA,NA,fixation,NA,NA,NA,NA,NA,NA,sub110
d3-animate-choice,234,917325,0.0-76.0-0.33,TRUE,TRUE,TRUE,TRUE,"""event"",""trial"",""time""
""fullscreenenter"",""5"",""14470""
","
","
","""event"",""trial"",""time""
""fullscreenenter"",""5"",""14470""
","
",556,NA,49,NA,NA,3000,1,NA,NA,images/earth.jpg,images/rocket2,images/rocket1,null,images/rocket1,NA,1,real,null,1,NA,NA,NA,sub110
d3-animate-choice,235,921125,0.0-76.0-1.33,TRUE,TRUE,TRUE,TRUE,"""event"",""trial"",""time""
""fullscreenenter"",""5"",""14470""
","
","
","""event"",""trial"",""time""
""fullscreenenter"",""5"",""14470""
","
",1793,NA,48,NA,NA,3000,1,NA,NA,images/redplanet1.jpg,images/alien2,images/alien1,images/rocket1,images/alien2,images/nothing.png,2,real,true,2,common,0,2020-06-26T20:56:42Z,sub110
two-step-fixation,236,922126,0.0-76.0-2.33,TRUE,TRUE,TRUE,TRUE,"""event"",""trial"",""time""
""fullscreenenter"",""5"",""14470""
","
","
","""event"",""trial"",""time""
""fullscreenenter"",""5"",""14470""
","
",NA,images/earth.jpg,NA,NA,NA,NA,NA,NA,NA,NA,NA,NA,NA,NA,NA,fixation,NA,NA,NA,NA,NA,NA,sub110
d3-animate-choice,237,924501,0.0-76.0-0.34,TRUE,TRUE,TRUE,TRUE,"""event"",""trial"",""time""
""fullscreenenter"",""5"",""14470""
","
","
","""event"",""trial"",""time""
""fullscreenenter"",""5"",""14470""
","
",370,NA,49,NA,NA,3000,1,NA,NA,images/earth.jpg,images/rocket2,images/rocket1,null,images/rocket1,NA,1,real,null,1,NA,NA,NA,sub110
d3-animate-choice,238,927072,0.0-76.0-1.34,TRUE,TRUE,TRUE,TRUE,"""event"",""trial"",""time""
""fullscreenenter"",""5"",""14470""
","
","
","""event"",""trial"",""time""
""fullscreenenter"",""5"",""14470""
","
",569,NA,49,NA,NA,3000,1,NA,NA,images/purpleplanet.jpg,images/alien4,images/alien3,images/rocket1,images/alien3,images/nothing.png,2,real,false,1,rare,0,2020-06-26T20:56:48Z,sub110
two-step-fixation,239,928074,0.0-76.0-2.34,TRUE,TRUE,TRUE,TRUE,"""event"",""trial"",""time""
""fullscreenenter"",""5"",""14470""
","
","
","""event"",""trial"",""time""
""fullscreenenter"",""5"",""14470""
","
",NA,images/earth.jpg,NA,NA,NA,NA,NA,NA,NA,NA,NA,NA,NA,NA,NA,fixation,NA,NA,NA,NA,NA,NA,sub110
d3-animate-choice,240,931347,0.0-76.0-0.35,TRUE,TRUE,TRUE,TRUE,"""event"",""trial"",""time""
""fullscreenenter"",""5"",""14470""
","
","
","""event"",""trial"",""time""
""fullscreenenter"",""5"",""14470""
","
",1270,NA,48,NA,NA,3000,1,NA,NA,images/earth.jpg,images/rocket2,images/rocket1,null,images/rocket2,NA,1,real,null,2,NA,NA,NA,sub110
d3-animate-choice,241,934061,0.0-76.0-1.35,TRUE,TRUE,TRUE,TRUE,"""event"",""trial"",""time""
""fullscreenenter"",""5"",""14470""
","
","
","""event"",""trial"",""time""
""fullscreenenter"",""5"",""14470""
","
",709,NA,48,NA,NA,3000,1,NA,NA,images/purpleplanet.jpg,images/alien4,images/alien3,images/rocket2,images/alien4,images/t.png,2,real,true,2,common,1,2020-06-26T20:56:55Z,sub110
two-step-fixation,242,935066,0.0-76.0-2.35,TRUE,TRUE,TRUE,TRUE,"""event"",""trial"",""time""
""fullscreenenter"",""5"",""14470""
","
","
","""event"",""trial"",""time""
""fullscreenenter"",""5"",""14470""
","
",NA,images/earth.jpg,NA,NA,NA,NA,NA,NA,NA,NA,NA,NA,NA,NA,NA,fixation,NA,NA,NA,NA,NA,NA,sub110
d3-animate-choice,243,937449,0.0-76.0-0.36,TRUE,TRUE,TRUE,TRUE,"""event"",""trial"",""time""
""fullscreenenter"",""5"",""14470""
","
","
","""event"",""trial"",""time""
""fullscreenenter"",""5"",""14470""
","
",380,NA,49,NA,NA,3000,1,NA,NA,images/earth.jpg,images/rocket2,images/rocket1,null,images/rocket1,NA,1,real,null,1,NA,NA,NA,sub110
d3-animate-choice,244,940139,0.0-76.0-1.36,TRUE,TRUE,TRUE,TRUE,"""event"",""trial"",""time""
""fullscreenenter"",""5"",""14470""
","
","
","""event"",""trial"",""time""
""fullscreenenter"",""5"",""14470""
","
",686,NA,48,NA,NA,3000,1,NA,NA,images/purpleplanet.jpg,images/alien4,images/alien3,images/rocket1,images/alien4,images/t.png,2,real,false,2,rare,1,2020-06-26T20:57:01Z,sub110
two-step-fixation,245,941144,0.0-76.0-2.36,TRUE,TRUE,TRUE,TRUE,"""event"",""trial"",""time""
""fullscreenenter"",""5"",""14470""
","
","
","""event"",""trial"",""time""
""fullscreenenter"",""5"",""14470""
","
",NA,images/earth.jpg,NA,NA,NA,NA,NA,NA,NA,NA,NA,NA,NA,NA,NA,fixation,NA,NA,NA,NA,NA,NA,sub110
d3-animate-choice,246,943922,0.0-76.0-0.37,TRUE,TRUE,TRUE,TRUE,"""event"",""trial"",""time""
""fullscreenenter"",""5"",""14470""
","
","
","""event"",""trial"",""time""
""fullscreenenter"",""5"",""14470""
","
",775,NA,49,NA,NA,3000,1,NA,NA,images/earth.jpg,images/rocket2,images/rocket1,null,images/rocket1,NA,1,real,null,1,NA,NA,NA,sub110
d3-animate-choice,247,947286,0.0-76.0-1.37,TRUE,TRUE,TRUE,TRUE,"""event"",""trial"",""time""
""fullscreenenter"",""5"",""14470""
","
","
","""event"",""trial"",""time""
""fullscreenenter"",""5"",""14470""
","
",1357,NA,48,NA,NA,3000,1,NA,NA,images/redplanet1.jpg,images/alien2,images/alien1,images/rocket1,images/alien2,images/t.png,2,real,true,2,common,1,2020-06-26T20:57:08Z,sub110
two-step-fixation,248,948287,0.0-76.0-2.37,TRUE,TRUE,TRUE,TRUE,"""event"",""trial"",""time""
""fullscreenenter"",""5"",""14470""
","
","
","""event"",""trial"",""time""
""fullscreenenter"",""5"",""14470""
","
",NA,images/earth.jpg,NA,NA,NA,NA,NA,NA,NA,NA,NA,NA,NA,NA,NA,fixation,NA,NA,NA,NA,NA,NA,sub110
d3-animate-choice,249,950640,0.0-76.0-0.38,TRUE,TRUE,TRUE,TRUE,"""event"",""trial"",""time""
""fullscreenenter"",""5"",""14470""
","
","
","""event"",""trial"",""time""
""fullscreenenter"",""5"",""14470""
","
",351,NA,49,NA,NA,3000,1,NA,NA,images/earth.jpg,images/rocket2,images/rocket1,null,images/rocket1,NA,1,real,null,1,NA,NA,NA,sub110
d3-animate-choice,250,953439,0.0-76.0-1.38,TRUE,TRUE,TRUE,TRUE,"""event"",""trial"",""time""
""fullscreenenter"",""5"",""14470""
","
","
","""event"",""trial"",""time""
""fullscreenenter"",""5"",""14470""
","
",794,NA,48,NA,NA,3000,1,NA,NA,images/redplanet1.jpg,images/alien2,images/alien1,images/rocket1,images/alien2,images/t.png,2,real,true,2,common,1,2020-06-26T20:57:14Z,sub110
two-step-fixation,251,954440,0.0-76.0-2.38,TRUE,TRUE,TRUE,TRUE,"""event"",""trial"",""time""
""fullscreenenter"",""5"",""14470""
","
","
","""event"",""trial"",""time""
""fullscreenenter"",""5"",""14470""
","
",NA,images/earth.jpg,NA,NA,NA,NA,NA,NA,NA,NA,NA,NA,NA,NA,NA,fixation,NA,NA,NA,NA,NA,NA,sub110
d3-animate-choice,252,956820,0.0-76.0-0.39,TRUE,TRUE,TRUE,TRUE,"""event"",""trial"",""time""
""fullscreenenter"",""5"",""14470""
","
","
","""event"",""trial"",""time""
""fullscreenenter"",""5"",""14470""
","
",374,NA,49,NA,NA,3000,1,NA,NA,images/earth.jpg,images/rocket2,images/rocket1,null,images/rocket1,NA,1,real,null,1,NA,NA,NA,sub110
d3-animate-choice,253,959463,0.0-76.0-1.39,TRUE,TRUE,TRUE,TRUE,"""event"",""trial"",""time""
""fullscreenenter"",""5"",""14470""
","
","
","""event"",""trial"",""time""
""fullscreenenter"",""5"",""14470""
","
",640,NA,48,NA,NA,3000,1,NA,NA,images/redplanet1.jpg,images/alien2,images/alien1,images/rocket1,images/alien2,images/t.png,2,real,true,2,common,1,2020-06-26T20:57:20Z,sub110
two-step-fixation,254,960465,0.0-76.0-2.39,TRUE,TRUE,TRUE,TRUE,"""event"",""trial"",""time""
""fullscreenenter"",""5"",""14470""
","
","
","""event"",""trial"",""time""
""fullscreenenter"",""5"",""14470""
","
",NA,images/earth.jpg,NA,NA,NA,NA,NA,NA,NA,NA,NA,NA,NA,NA,NA,fixation,NA,NA,NA,NA,NA,NA,sub110
d3-animate-choice,255,962827,0.0-76.0-0.40,TRUE,TRUE,TRUE,TRUE,"""event"",""trial"",""time""
""fullscreenenter"",""5"",""14470""
","
","
","""event"",""trial"",""time""
""fullscreenenter"",""5"",""14470""
","
",359,NA,48,NA,NA,3000,1,NA,NA,images/earth.jpg,images/rocket2,images/rocket1,null,images/rocket2,NA,1,real,null,2,NA,NA,NA,sub110
d3-animate-choice,256,965467,0.0-76.0-1.40,TRUE,TRUE,TRUE,TRUE,"""event"",""trial"",""time""
""fullscreenenter"",""5"",""14470""
","
","
","""event"",""trial"",""time""
""fullscreenenter"",""5"",""14470""
","
",634,NA,48,NA,NA,3000,1,NA,NA,images/purpleplanet.jpg,images/alien4,images/alien3,images/rocket2,images/alien4,images/t.png,2,real,true,2,common,1,2020-06-26T20:57:26Z,sub110
two-step-fixation,257,966468,0.0-76.0-2.40,TRUE,TRUE,TRUE,TRUE,"""event"",""trial"",""time""
""fullscreenenter"",""5"",""14470""
","
","
","""event"",""trial"",""time""
""fullscreenenter"",""5"",""14470""
","
",NA,images/earth.jpg,NA,NA,NA,NA,NA,NA,NA,NA,NA,NA,NA,NA,NA,fixation,NA,NA,NA,NA,NA,NA,sub110
d3-animate-choice,258,968835,0.0-76.0-0.41,TRUE,TRUE,TRUE,TRUE,"""event"",""trial"",""time""
""fullscreenenter"",""5"",""14470""
","
","
","""event"",""trial"",""time""
""fullscreenenter"",""5"",""14470""
","
",363,NA,49,NA,NA,3000,1,NA,NA,images/earth.jpg,images/rocket2,images/rocket1,null,images/rocket1,NA,1,real,null,1,NA,NA,NA,sub110
d3-animate-choice,259,971354,0.0-76.0-1.41,TRUE,TRUE,TRUE,TRUE,"""event"",""trial"",""time""
""fullscreenenter"",""5"",""14470""
","
","
","""event"",""trial"",""time""
""fullscreenenter"",""5"",""14470""
","
",517,NA,48,NA,NA,3000,1,NA,NA,images/redplanet1.jpg,images/alien2,images/alien1,images/rocket1,images/alien2,images/nothing.png,2,real,true,2,common,0,2020-06-26T20:57:32Z,sub110
two-step-fixation,260,972357,0.0-76.0-2.41,TRUE,TRUE,TRUE,TRUE,"""event"",""trial"",""time""
""fullscreenenter"",""5"",""14470""
","
","
","""event"",""trial"",""time""
""fullscreenenter"",""5"",""14470""
","
",NA,images/earth.jpg,NA,NA,NA,NA,NA,NA,NA,NA,NA,NA,NA,NA,NA,fixation,NA,NA,NA,NA,NA,NA,sub110
d3-animate-choice,261,974994,0.0-76.0-0.42,TRUE,TRUE,TRUE,TRUE,"""event"",""trial"",""time""
""fullscreenenter"",""5"",""14470""
","
","
","""event"",""trial"",""time""
""fullscreenenter"",""5"",""14470""
","
",631,NA,49,NA,NA,3000,1,NA,NA,images/earth.jpg,images/rocket2,images/rocket1,null,images/rocket1,NA,1,real,null,1,NA,NA,NA,sub110
d3-animate-choice,262,978421,0.0-76.0-1.42,TRUE,TRUE,TRUE,TRUE,"""event"",""trial"",""time""
""fullscreenenter"",""5"",""14470""
","
","
","""event"",""trial"",""time""
""fullscreenenter"",""5"",""14470""
","
",1423,NA,48,NA,NA,3000,1,NA,NA,images/redplanet1.jpg,images/alien2,images/alien1,images/rocket1,images/alien2,images/t.png,2,real,true,2,common,1,2020-06-26T20:57:39Z,sub110
two-step-fixation,263,979425,0.0-76.0-2.42,TRUE,TRUE,TRUE,TRUE,"""event"",""trial"",""time""
""fullscreenenter"",""5"",""14470""
","
","
","""event"",""trial"",""time""
""fullscreenenter"",""5"",""14470""
","
",NA,images/earth.jpg,NA,NA,NA,NA,NA,NA,NA,NA,NA,NA,NA,NA,NA,fixation,NA,NA,NA,NA,NA,NA,sub110
d3-animate-choice,264,982084,0.0-76.0-0.43,TRUE,TRUE,TRUE,TRUE,"""event"",""trial"",""time""
""fullscreenenter"",""5"",""14470""
","
","
","""event"",""trial"",""time""
""fullscreenenter"",""5"",""14470""
","
",656,NA,49,NA,NA,3000,1,NA,NA,images/earth.jpg,images/rocket2,images/rocket1,null,images/rocket1,NA,1,real,null,1,NA,NA,NA,sub110
d3-animate-choice,265,984711,0.0-76.0-1.43,TRUE,TRUE,TRUE,TRUE,"""event"",""trial"",""time""
""fullscreenenter"",""5"",""14470""
","
","
","""event"",""trial"",""time""
""fullscreenenter"",""5"",""14470""
","
",625,NA,48,NA,NA,3000,1,NA,NA,images/redplanet1.jpg,images/alien2,images/alien1,images/rocket1,images/alien2,images/t.png,2,real,true,2,common,1,2020-06-26T20:57:46Z,sub110
two-step-fixation,266,985715,0.0-76.0-2.43,TRUE,TRUE,TRUE,TRUE,"""event"",""trial"",""time""
""fullscreenenter"",""5"",""14470""
","
","
","""event"",""trial"",""time""
""fullscreenenter"",""5"",""14470""
","
",NA,images/earth.jpg,NA,NA,NA,NA,NA,NA,NA,NA,NA,NA,NA,NA,NA,fixation,NA,NA,NA,NA,NA,NA,sub110
d3-animate-choice,267,988148,0.0-76.0-0.44,TRUE,TRUE,TRUE,TRUE,"""event"",""trial"",""time""
""fullscreenenter"",""5"",""14470""
","
","
","""event"",""trial"",""time""
""fullscreenenter"",""5"",""14470""
","
",426,NA,48,NA,NA,3000,1,NA,NA,images/earth.jpg,images/rocket2,images/rocket1,null,images/rocket2,NA,1,real,null,2,NA,NA,NA,sub110
d3-animate-choice,268,991169,0.0-76.0-1.44,TRUE,TRUE,TRUE,TRUE,"""event"",""trial"",""time""
""fullscreenenter"",""5"",""14470""
","
","
","""event"",""trial"",""time""
""fullscreenenter"",""5"",""14470""
","
",1019,NA,48,NA,NA,3000,1,NA,NA,images/purpleplanet.jpg,images/alien4,images/alien3,images/rocket2,images/alien4,images/t.png,2,real,true,2,common,1,2020-06-26T20:57:52Z,sub110
two-step-fixation,269,992171,0.0-76.0-2.44,TRUE,TRUE,TRUE,TRUE,"""event"",""trial"",""time""
""fullscreenenter"",""5"",""14470""
","
","
","""event"",""trial"",""time""
""fullscreenenter"",""5"",""14470""
","
",NA,images/earth.jpg,NA,NA,NA,NA,NA,NA,NA,NA,NA,NA,NA,NA,NA,fixation,NA,NA,NA,NA,NA,NA,sub110
d3-animate-choice,270,994879,0.0-76.0-0.45,TRUE,TRUE,TRUE,TRUE,"""event"",""trial"",""time""
""fullscreenenter"",""5"",""14470""
","
","
","""event"",""trial"",""time""
""fullscreenenter"",""5"",""14470""
","
",703,NA,49,NA,NA,3000,1,NA,NA,images/earth.jpg,images/rocket2,images/rocket1,null,images/rocket1,NA,1,real,null,1,NA,NA,NA,sub110
d3-animate-choice,271,997543,0.0-76.0-1.45,TRUE,TRUE,TRUE,TRUE,"""event"",""trial"",""time""
""fullscreenenter"",""5"",""14470""
","
","
","""event"",""trial"",""time""
""fullscreenenter"",""5"",""14470""
","
",660,NA,48,NA,NA,3000,1,NA,NA,images/redplanet1.jpg,images/alien2,images/alien1,images/rocket1,images/alien2,images/t.png,2,real,true,2,common,1,2020-06-26T20:57:58Z,sub110
two-step-fixation,272,998545,0.0-76.0-2.45,TRUE,TRUE,TRUE,TRUE,"""event"",""trial"",""time""
""fullscreenenter"",""5"",""14470""
","
","
","""event"",""trial"",""time""
""fullscreenenter"",""5"",""14470""
","
",NA,images/earth.jpg,NA,NA,NA,NA,NA,NA,NA,NA,NA,NA,NA,NA,NA,fixation,NA,NA,NA,NA,NA,NA,sub110
d3-animate-choice,273,1001003,0.0-76.0-0.46,TRUE,TRUE,TRUE,TRUE,"""event"",""trial"",""time""
""fullscreenenter"",""5"",""14470""
","
","
","""event"",""trial"",""time""
""fullscreenenter"",""5"",""14470""
","
",453,NA,49,NA,NA,3000,1,NA,NA,images/earth.jpg,images/rocket2,images/rocket1,null,images/rocket1,NA,1,real,null,1,NA,NA,NA,sub110
d3-animate-choice,274,1003442,0.0-76.0-1.46,TRUE,TRUE,TRUE,TRUE,"""event"",""trial"",""time""
""fullscreenenter"",""5"",""14470""
","
","
","""event"",""trial"",""time""
""fullscreenenter"",""5"",""14470""
","
",435,NA,48,NA,NA,3000,1,NA,NA,images/purpleplanet.jpg,images/alien4,images/alien3,images/rocket1,images/alien4,images/t.png,2,real,false,2,rare,1,2020-06-26T20:58:04Z,sub110
two-step-fixation,275,1004443,0.0-76.0-2.46,TRUE,TRUE,TRUE,TRUE,"""event"",""trial"",""time""
""fullscreenenter"",""5"",""14470""
","
","
","""event"",""trial"",""time""
""fullscreenenter"",""5"",""14470""
","
",NA,images/earth.jpg,NA,NA,NA,NA,NA,NA,NA,NA,NA,NA,NA,NA,NA,fixation,NA,NA,NA,NA,NA,NA,sub110
d3-animate-choice,276,1006908,0.0-76.0-0.47,TRUE,TRUE,TRUE,TRUE,"""event"",""trial"",""time""
""fullscreenenter"",""5"",""14470""
","
","
","""event"",""trial"",""time""
""fullscreenenter"",""5"",""14470""
","
",460,NA,49,NA,NA,3000,1,NA,NA,images/earth.jpg,images/rocket2,images/rocket1,null,images/rocket1,NA,1,real,null,1,NA,NA,NA,sub110
d3-animate-choice,277,1009555,0.0-76.0-1.47,TRUE,TRUE,TRUE,TRUE,"""event"",""trial"",""time""
""fullscreenenter"",""5"",""14470""
","
","
","""event"",""trial"",""time""
""fullscreenenter"",""5"",""14470""
","
",644,NA,48,NA,NA,3000,1,NA,NA,images/redplanet1.jpg,images/alien2,images/alien1,images/rocket1,images/alien2,images/t.png,2,real,true,2,common,1,2020-06-26T20:58:10Z,sub110
two-step-fixation,278,1010561,0.0-76.0-2.47,TRUE,TRUE,TRUE,TRUE,"""event"",""trial"",""time""
""fullscreenenter"",""5"",""14470""
","
","
","""event"",""trial"",""time""
""fullscreenenter"",""5"",""14470""
","
",NA,images/earth.jpg,NA,NA,NA,NA,NA,NA,NA,NA,NA,NA,NA,NA,NA,fixation,NA,NA,NA,NA,NA,NA,sub110
d3-animate-choice,279,1012927,0.0-76.0-0.48,TRUE,TRUE,TRUE,TRUE,"""event"",""trial"",""time""
""fullscreenenter"",""5"",""14470""
","
","
","""event"",""trial"",""time""
""fullscreenenter"",""5"",""14470""
","
",364,NA,48,NA,NA,3000,1,NA,NA,images/earth.jpg,images/rocket2,images/rocket1,null,images/rocket2,NA,1,real,null,2,NA,NA,NA,sub110
d3-animate-choice,280,1015494,0.0-76.0-1.48,TRUE,TRUE,TRUE,TRUE,"""event"",""trial"",""time""
""fullscreenenter"",""5"",""14470""
","
","
","""event"",""trial"",""time""
""fullscreenenter"",""5"",""14470""
","
",565,NA,48,NA,NA,3000,1,NA,NA,images/purpleplanet.jpg,images/alien4,images/alien3,images/rocket2,images/alien4,images/t.png,2,real,true,2,common,1,2020-06-26T20:58:16Z,sub110
two-step-fixation,281,1016495,0.0-76.0-2.48,TRUE,TRUE,TRUE,TRUE,"""event"",""trial"",""time""
""fullscreenenter"",""5"",""14470""
","
","
","""event"",""trial"",""time""
""fullscreenenter"",""5"",""14470""
","
",NA,images/earth.jpg,NA,NA,NA,NA,NA,NA,NA,NA,NA,NA,NA,NA,NA,fixation,NA,NA,NA,NA,NA,NA,sub110
d3-animate-choice,282,1018931,0.0-76.0-0.49,TRUE,TRUE,TRUE,TRUE,"""event"",""trial"",""time""
""fullscreenenter"",""5"",""14470""
","
","
","""event"",""trial"",""time""
""fullscreenenter"",""5"",""14470""
","
",431,NA,48,NA,NA,3000,1,NA,NA,images/earth.jpg,images/rocket2,images/rocket1,null,images/rocket2,NA,1,real,null,2,NA,NA,NA,sub110
d3-animate-choice,283,1021873,0.0-76.0-1.49,TRUE,TRUE,TRUE,TRUE,"""event"",""trial"",""time""
""fullscreenenter"",""5"",""14470""
","
","
","""event"",""trial"",""time""
""fullscreenenter"",""5"",""14470""
","
",937,NA,48,NA,NA,3000,1,NA,NA,images/redplanet1.jpg,images/alien2,images/alien1,images/rocket2,images/alien2,images/nothing.png,2,real,false,2,rare,0,2020-06-26T20:58:23Z,sub110
two-step-fixation,284,1022875,0.0-76.0-2.49,TRUE,TRUE,TRUE,TRUE,"""event"",""trial"",""time""
""fullscreenenter"",""5"",""14470""
","
","
","""event"",""trial"",""time""
""fullscreenenter"",""5"",""14470""
","
",NA,images/earth.jpg,NA,NA,NA,NA,NA,NA,NA,NA,NA,NA,NA,NA,NA,fixation,NA,NA,NA,NA,NA,NA,sub110
audio-button-response-2,285,1074176,0.0-77.0,TRUE,TRUE,TRUE,TRUE,"""event"",""trial"",""time""
""fullscreenenter"",""5"",""14470""
","
","
","""event"",""trial"",""time""
""fullscreenenter"",""5"",""14470""
","
",51298,audio/instructions/break_1.wav,NA,0,NA,NA,NA,NA,NA,NA,NA,NA,NA,NA,NA,NA,NA,NA,NA,NA,NA,NA,sub110
d3-animate-choice,286,1077121,0.0-78.0-0.0,TRUE,TRUE,TRUE,TRUE,"""event"",""trial"",""time""
""fullscreenenter"",""5"",""14470""
","
","
","""event"",""trial"",""time""
""fullscreenenter"",""5"",""14470""
","
",942,NA,49,NA,NA,3000,1,NA,NA,images/earth.jpg,images/rocket2,images/rocket1,null,images/rocket1,NA,1,real,null,1,NA,NA,NA,sub110
d3-animate-choice,287,1081121,0.0-78.0-1.0,TRUE,TRUE,TRUE,TRUE,"""event"",""trial"",""time""
""fullscreenenter"",""5"",""14470""
","
","
","""event"",""trial"",""time""
""fullscreenenter"",""5"",""14470""
","
",1993,NA,49,NA,NA,3000,1,NA,NA,images/redplanet1.jpg,images/alien2,images/alien1,images/rocket1,images/alien1,images/nothing.png,2,real,true,1,common,0,2020-06-26T20:59:22Z,sub110
two-step-fixation,288,1082123,0.0-78.0-2.0,TRUE,TRUE,TRUE,TRUE,"""event"",""trial"",""time""
""fullscreenenter"",""5"",""14470""
","
","
","""event"",""trial"",""time""
""fullscreenenter"",""5"",""14470""
","
",NA,images/earth.jpg,NA,NA,NA,NA,NA,NA,NA,NA,NA,NA,NA,NA,NA,fixation,NA,NA,NA,NA,NA,NA,sub110
d3-animate-choice,289,1085875,0.0-78.0-0.1,TRUE,TRUE,TRUE,TRUE,"""event"",""trial"",""time""
""fullscreenenter"",""5"",""14470""
","
","
","""event"",""trial"",""time""
""fullscreenenter"",""5"",""14470""
","
",329,NA,50,NA,NA,3000,1,1749,48,images/earth.jpg,images/rocket2,images/rocket1,null,images/rocket2,NA,1,real,null,NA,NA,NA,NA,sub110
d3-animate-choice,290,1088775,0.0-78.0-1.1,TRUE,TRUE,TRUE,TRUE,"""event"",""trial"",""time""
""fullscreenenter"",""5"",""14470""
","
","
","""event"",""trial"",""time""
""fullscreenenter"",""5"",""14470""
","
",896,NA,48,NA,NA,3000,1,NA,NA,images/purpleplanet.jpg,images/alien4,images/alien3,images/rocket2,images/alien4,images/t.png,2,real,true,2,common,1,2020-06-26T20:59:30Z,sub110
two-step-fixation,291,1089776,0.0-78.0-2.1,TRUE,TRUE,TRUE,TRUE,"""event"",""trial"",""time""
""fullscreenenter"",""5"",""14470""
","
","
","""event"",""trial"",""time""
""fullscreenenter"",""5"",""14470""
","
