trial_type,trial_index,time_elapsed,internal_node_id,rocket_sides,red_planet_first_rocket,red_display_order,purple_display_order,interactions,blur_events,focus_events,fullscreenenter_events,fullscreenexit_events,rt,stimulus,key_press,button_pressed,success,duration,valid_pressed,rts,keys,planet_text,right_text,left_text,center_text,chosen_text,reward_text,trial_stage,practice_trial,transition_type,choice,transition,reward,timestamp,subject_id
pavlovia,0,7,0.0-0.0,TRUE,FALSE,TRUE,TRUE,"
","
","
","
","
",NA,NA,NA,NA,NA,NA,NA,NA,NA,NA,NA,NA,NA,NA,NA,NA,NA,NA,NA,NA,NA,NA,sub104
html-keyboard-response,1,1050,0.0-1.0,TRUE,FALSE,TRUE,TRUE,"
","
","
","
","
",1040.055000000053,Welcome! Press the space bar to begin.,32,NA,NA,NA,NA,NA,NA,NA,NA,NA,NA,NA,NA,NA,NA,NA,NA,NA,NA,NA,sub104
audio-keyboard-response,2,3976,0.0-2.0,TRUE,FALSE,TRUE,TRUE,"
","
","
","
","
",2676,audio/beep_loop.wav,32,NA,NA,NA,NA,NA,NA,NA,NA,NA,NA,NA,NA,NA,NA,NA,NA,NA,NA,NA,sub104
audio-button-response,3,5972,0.0-3.0,TRUE,FALSE,TRUE,TRUE,"
","
","
","
","
",NaN,audio/fish.mp3,NA,1,NA,NA,NA,NA,NA,NA,NA,NA,NA,NA,NA,NA,NA,NA,NA,NA,NA,NA,sub104
audio-button-response,4,8789,0.0-4.0,TRUE,FALSE,TRUE,TRUE,"""event"",""trial"",""time""
""fullscreenenter"",""5"",""17264""
","
","
","""event"",""trial"",""time""
""fullscreenenter"",""5"",""17264""
","
",NaN,audio/tiger.mp3,NA,4,NA,NA,NA,NA,NA,NA,NA,NA,NA,NA,NA,NA,NA,NA,NA,NA,NA,NA,sub104
fullscreen,5,18153,0.0-5.0,TRUE,FALSE,TRUE,TRUE,"""event"",""trial"",""time""
""fullscreenenter"",""5"",""17264""
","
","
","""event"",""trial"",""time""
""fullscreenenter"",""5"",""17264""
","
",NA,NA,NA,NA,TRUE,NA,NA,NA,NA,NA,NA,NA,NA,NA,NA,NA,NA,NA,NA,NA,NA,NA,sub104
d3-instructions,6,31489,0.0-6.0,TRUE,FALSE,TRUE,TRUE,"""event"",""trial"",""time""
""fullscreenenter"",""5"",""17264""
","
","
","""event"",""trial"",""time""
""fullscreenenter"",""5"",""17264""
","
",NA,NA,NA,NA,NA,NA,NA,NA,NA,NA,NA,NA,NA,NA,NA,NA,NA,NA,NA,NA,NA,NA,sub104
d3-instructions,7,39732,0.0-7.0,TRUE,FALSE,TRUE,TRUE,"""event"",""trial"",""time""
""fullscreenenter"",""5"",""17264""
","
","
","""event"",""trial"",""time""
""fullscreenenter"",""5"",""17264""
","
",NA,NA,NA,NA,NA,NA,NA,NA,NA,NA,NA,NA,NA,NA,NA,NA,NA,NA,NA,NA,NA,NA,sub104
d3-instructions,8,46896,0.0-8.0,TRUE,FALSE,TRUE,TRUE,"""event"",""trial"",""time""
""fullscreenenter"",""5"",""17264""
","
","
","""event"",""trial"",""time""
""fullscreenenter"",""5"",""17264""
","
",NA,NA,NA,NA,NA,NA,NA,NA,NA,NA,NA,NA,NA,NA,NA,NA,NA,NA,NA,NA,NA,NA,sub104
d3-instructions,9,57696,0.0-9.0,TRUE,FALSE,TRUE,TRUE,"""event"",""trial"",""time""
""fullscreenenter"",""5"",""17264""
","
","
","""event"",""trial"",""time""
""fullscreenenter"",""5"",""17264""
","
",NA,NA,NA,NA,NA,NA,NA,NA,NA,NA,NA,NA,NA,NA,NA,NA,NA,NA,NA,NA,NA,NA,sub104
d3-instructions,10,77315,0.0-10.0,TRUE,FALSE,TRUE,TRUE,"""event"",""trial"",""time""
""fullscreenenter"",""5"",""17264""
","
","
","""event"",""trial"",""time""
""fullscreenenter"",""5"",""17264""
","
",NA,NA,NA,NA,NA,NA,NA,NA,NA,NA,NA,NA,NA,NA,NA,NA,NA,NA,NA,NA,NA,NA,sub104
d3-animate-choice,11,80075,0.0-11.0,TRUE,FALSE,TRUE,TRUE,"""event"",""trial"",""time""
""fullscreenenter"",""5"",""17264""
","
","
","""event"",""trial"",""time""
""fullscreenenter"",""5"",""17264""
","
",747.0799999999872,NA,49,NA,NA,3000,1,"1570.285000000018,2602.7350000000442",4848,images/tutgreenplanet.jpg,images/tutalien1,images/tutalien2,null,images/tutalien2,NA,NA,practice,null,NA,NA,NA,NA,sub104
d3-animate-choice,12,83393,0.0-12.0,TRUE,FALSE,TRUE,TRUE,"""event"",""trial"",""time""
""fullscreenenter"",""5"",""17264""
","
","
","""event"",""trial"",""time""
""fullscreenenter"",""5"",""17264""
","
",1308.7450000000536,NA,48,NA,NA,3000,1,NA,NA,images/tutgreenplanet.jpg,images/tutalien1,images/tutalien2,null,images/tutalien1,NA,NA,practice,null,NA,NA,NA,NA,sub104
d3-animate-choice,13,87059,0.0-13.0,TRUE,FALSE,TRUE,TRUE,"""event"",""trial"",""time""
""fullscreenenter"",""5"",""17264""
","
","
","""event"",""trial"",""time""
""fullscreenenter"",""5"",""17264""
","
",1655.1100000000297,NA,49,NA,NA,3000,1,NA,NA,images/tutgreenplanet.jpg,images/tutalien1,images/tutalien2,null,images/tutalien2,NA,NA,practice,null,NA,NA,NA,NA,sub104
d3-animate-choice,14,89519,0.0-14.0,TRUE,FALSE,TRUE,TRUE,"""event"",""trial"",""time""
""fullscreenenter"",""5"",""17264""
","
","
","""event"",""trial"",""time""
""fullscreenenter"",""5"",""17264""
","
",453.55499999994936,NA,48,NA,NA,3000,1,NA,NA,images/tutgreenplanet.jpg,images/tutalien1,images/tutalien2,null,images/tutalien1,NA,NA,practice,null,NA,NA,NA,NA,sub104
d3-instructions,15,95989,0.0-15.0,TRUE,FALSE,TRUE,TRUE,"""event"",""trial"",""time""
""fullscreenenter"",""5"",""17264""
","
","
","""event"",""trial"",""time""
""fullscreenenter"",""5"",""17264""
","
",NA,NA,NA,NA,NA,NA,NA,NA,NA,NA,NA,NA,NA,NA,NA,NA,NA,NA,NA,NA,NA,NA,sub104
d3-instructions,16,102735,0.0-16.0,TRUE,FALSE,TRUE,TRUE,"""event"",""trial"",""time""
""fullscreenenter"",""5"",""17264""
","
","
","""event"",""trial"",""time""
""fullscreenenter"",""5"",""17264""
","
",NA,NA,NA,NA,NA,NA,NA,NA,NA,NA,NA,NA,NA,NA,NA,NA,NA,NA,NA,NA,NA,NA,sub104
d3-instructions,17,111594,0.0-17.0,TRUE,FALSE,TRUE,TRUE,"""event"",""trial"",""time""
""fullscreenenter"",""5"",""17264""
","
","
","""event"",""trial"",""time""
""fullscreenenter"",""5"",""17264""
","
",NA,NA,NA,NA,NA,NA,NA,NA,NA,NA,NA,NA,NA,NA,NA,NA,NA,NA,NA,NA,NA,NA,sub104
d3-instructions,18,124360,0.0-18.0,TRUE,FALSE,TRUE,TRUE,"""event"",""trial"",""time""
""fullscreenenter"",""5"",""17264""
","
","
","""event"",""trial"",""time""
""fullscreenenter"",""5"",""17264""
","
",NA,NA,NA,NA,NA,NA,NA,NA,NA,NA,NA,NA,NA,NA,NA,NA,NA,NA,NA,NA,NA,NA,sub104
d3-instructions,19,139089,0.0-19.0,TRUE,FALSE,TRUE,TRUE,"""event"",""trial"",""time""
""fullscreenenter"",""5"",""17264""
","
","
","""event"",""trial"",""time""
""fullscreenenter"",""5"",""17264""
","
",NA,NA,NA,NA,NA,NA,NA,NA,NA,NA,NA,NA,NA,NA,NA,NA,NA,NA,NA,NA,NA,NA,sub104
d3-animate-choice,20,142134,0.0-20.0,TRUE,FALSE,TRUE,TRUE,"""event"",""trial"",""time""
""fullscreenenter"",""5"",""17264""
","
","
","""event"",""trial"",""time""
""fullscreenenter"",""5"",""17264""
","
",1036.3499999999476,NA,49,NA,NA,3000,1,NA,NA,images/tutyellowplanet.jpg,null,images/tutalien3,null,images/tutalien3,images/t.png,NA,practice,null,NA,NA,NA,NA,sub104
d3-animate-choice,21,144502,0.0-21.0,TRUE,FALSE,TRUE,TRUE,"""event"",""trial"",""time""
""fullscreenenter"",""5"",""17264""
","
","
","""event"",""trial"",""time""
""fullscreenenter"",""5"",""17264""
","
",359.93499999996857,NA,49,NA,NA,3000,1,NA,NA,images/tutyellowplanet.jpg,null,images/tutalien3,null,images/tutalien3,images/t.png,NA,practice,null,NA,NA,NA,NA,sub104
d3-animate-choice,22,146755,0.0-22.0,TRUE,FALSE,TRUE,TRUE,"""event"",""trial"",""time""
""fullscreenenter"",""5"",""17264""
","
","
","""event"",""trial"",""time""
""fullscreenenter"",""5"",""17264""
","
",248.670000000071,NA,49,NA,NA,3000,1,NA,NA,images/tutyellowplanet.jpg,null,images/tutalien3,null,images/tutalien3,images/t.png,NA,practice,null,NA,NA,NA,NA,sub104
d3-animate-choice,23,148990,0.0-23.0,TRUE,FALSE,TRUE,TRUE,"""event"",""trial"",""time""
""fullscreenenter"",""5"",""17264""
","
","
","""event"",""trial"",""time""
""fullscreenenter"",""5"",""17264""
","
",227.53999999997905,NA,49,NA,NA,3000,1,NA,NA,images/tutyellowplanet.jpg,null,images/tutalien3,null,images/tutalien3,images/t.png,NA,practice,null,NA,NA,NA,NA,sub104
d3-animate-choice,24,151277,0.0-24.0,TRUE,FALSE,TRUE,TRUE,"""event"",""trial"",""time""
""fullscreenenter"",""5"",""17264""
","
","
","""event"",""trial"",""time""
""fullscreenenter"",""5"",""17264""
","
",280.38000000003376,NA,49,NA,NA,3000,1,NA,NA,images/tutyellowplanet.jpg,null,images/tutalien3,null,images/tutalien3,images/t.png,NA,practice,null,NA,NA,NA,NA,sub104
d3-animate-choice,25,153602,0.0-25.0,TRUE,FALSE,TRUE,TRUE,"""event"",""trial"",""time""
""fullscreenenter"",""5"",""17264""
","
","
","""event"",""trial"",""time""
""fullscreenenter"",""5"",""17264""
","
",320.579999999929,NA,49,NA,NA,3000,1,NA,NA,images/tutyellowplanet.jpg,null,images/tutalien3,null,images/tutalien3,images/t.png,NA,practice,null,NA,NA,NA,NA,sub104
d3-animate-choice,26,155947,0.0-26.0,TRUE,FALSE,TRUE,TRUE,"""event"",""trial"",""time""
""fullscreenenter"",""5"",""17264""
","
","
","""event"",""trial"",""time""
""fullscreenenter"",""5"",""17264""
","
",339.36000000007334,NA,49,NA,NA,3000,1,NA,NA,images/tutyellowplanet.jpg,null,images/tutalien3,null,images/tutalien3,images/t.png,NA,practice,null,NA,NA,NA,NA,sub104
d3-animate-choice,27,158134,0.0-27.0,TRUE,FALSE,TRUE,TRUE,"""event"",""trial"",""time""
""fullscreenenter"",""5"",""17264""
","
","
","""event"",""trial"",""time""
""fullscreenenter"",""5"",""17264""
","
",178.32499999998254,NA,49,NA,NA,3000,1,1946.530000000057,49,images/tutyellowplanet.jpg,null,images/tutalien3,null,images/tutalien3,images/t.png,NA,practice,null,NA,NA,NA,NA,sub104
d3-animate-choice,28,160565,0.0-28.0,TRUE,FALSE,TRUE,TRUE,"""event"",""trial"",""time""
""fullscreenenter"",""5"",""17264""
","
","
","""event"",""trial"",""time""
""fullscreenenter"",""5"",""17264""
","
",423.740000000078,NA,49,NA,NA,3000,1,NA,NA,images/tutyellowplanet.jpg,null,images/tutalien3,null,images/tutalien3,images/nothing.png,NA,practice,null,NA,NA,NA,NA,sub104
d3-animate-choice,29,162875,0.0-29.0,TRUE,FALSE,TRUE,TRUE,"""event"",""trial"",""time""
""fullscreenenter"",""5"",""17264""
","
","
","""event"",""trial"",""time""
""fullscreenenter"",""5"",""17264""
","
",305.7750000000233,NA,49,NA,NA,3000,1,NA,NA,images/tutyellowplanet.jpg,null,images/tutalien3,null,images/tutalien3,images/t.png,NA,practice,null,NA,NA,NA,NA,sub104
d3-instructions,30,169647,0.0-30.0,TRUE,FALSE,TRUE,TRUE,"""event"",""trial"",""time""
""fullscreenenter"",""5"",""17264""
","
","
","""event"",""trial"",""time""
""fullscreenenter"",""5"",""17264""
","
",NA,NA,NA,NA,NA,NA,NA,NA,NA,NA,NA,NA,NA,NA,NA,NA,NA,NA,NA,NA,NA,NA,sub104
d3-instructions,31,179563,0.0-31.0,TRUE,FALSE,TRUE,TRUE,"""event"",""trial"",""time""
""fullscreenenter"",""5"",""17264""
","
","
","""event"",""trial"",""time""
""fullscreenenter"",""5"",""17264""
","
",NA,NA,NA,NA,NA,NA,NA,NA,NA,NA,NA,NA,NA,NA,NA,NA,NA,NA,NA,NA,NA,NA,sub104
d3-instructions,32,187157,0.0-32.0,TRUE,FALSE,TRUE,TRUE,"""event"",""trial"",""time""
""fullscreenenter"",""5"",""17264""
","
","
","""event"",""trial"",""time""
""fullscreenenter"",""5"",""17264""
","
",NA,NA,NA,NA,NA,NA,NA,NA,NA,NA,NA,NA,NA,NA,NA,NA,NA,NA,NA,NA,NA,NA,sub104
d3-instructions,33,198169,0.0-33.0,TRUE,FALSE,TRUE,TRUE,"""event"",""trial"",""time""
""fullscreenenter"",""5"",""17264""
","
","
","""event"",""trial"",""time""
""fullscreenenter"",""5"",""17264""
","
",NA,NA,NA,NA,NA,NA,NA,NA,NA,NA,NA,NA,NA,NA,NA,NA,NA,NA,NA,NA,NA,NA,sub104
d3-animate-choice,34,201298,0.0-34.0,TRUE,FALSE,TRUE,TRUE,"""event"",""trial"",""time""
""fullscreenenter"",""5"",""17264""
","
","
","""event"",""trial"",""time""
""fullscreenenter"",""5"",""17264""
","
",1124.765000000014,NA,49,NA,NA,3000,1,NA,NA,images/tutgreenplanet.jpg,images/tutalien1,images/tutalien2,null,images/tutalien2,images/t.png,NA,practice,null,NA,NA,NA,NA,sub104
d3-animate-choice,35,203684,0.0-35.0,TRUE,FALSE,TRUE,TRUE,"""event"",""trial"",""time""
""fullscreenenter"",""5"",""17264""
","
","
","""event"",""trial"",""time""
""fullscreenenter"",""5"",""17264""
","
",379.4199999999837,NA,48,NA,NA,3000,1,NA,NA,images/tutgreenplanet.jpg,images/tutalien1,images/tutalien2,null,images/tutalien1,images/nothing.png,NA,practice,null,NA,NA,NA,NA,sub104
d3-animate-choice,36,205988,0.0-36.0,TRUE,FALSE,TRUE,TRUE,"""event"",""trial"",""time""
""fullscreenenter"",""5"",""17264""
","
","
","""event"",""trial"",""time""
""fullscreenenter"",""5"",""17264""
","
",296.2149999999674,NA,49,NA,NA,3000,1,NA,NA,images/tutgreenplanet.jpg,images/tutalien1,images/tutalien2,null,images/tutalien2,images/t.png,NA,practice,null,NA,NA,NA,NA,sub104
d3-animate-choice,37,208417,0.0-37.0,TRUE,FALSE,TRUE,TRUE,"""event"",""trial"",""time""
""fullscreenenter"",""5"",""17264""
","
","
","""event"",""trial"",""time""
""fullscreenenter"",""5"",""17264""
","
",422.87999999994645,NA,49,NA,NA,3000,1,NA,NA,images/tutgreenplanet.jpg,images/tutalien1,images/tutalien2,null,images/tutalien2,images/t.png,NA,practice,null,NA,NA,NA,NA,sub104
d3-animate-choice,38,210829,0.0-38.0,TRUE,FALSE,TRUE,TRUE,"""event"",""trial"",""time""
""fullscreenenter"",""5"",""17264""
","
","
","""event"",""trial"",""time""
""fullscreenenter"",""5"",""17264""
","
",404.5649999999441,NA,49,NA,NA,3000,1,NA,NA,images/tutgreenplanet.jpg,images/tutalien1,images/tutalien2,null,images/tutalien2,images/t.png,NA,practice,null,NA,NA,NA,NA,sub104
d3-animate-choice,39,213155,0.0-39.0,TRUE,FALSE,TRUE,TRUE,"""event"",""trial"",""time""
""fullscreenenter"",""5"",""17264""
","
","
","""event"",""trial"",""time""
""fullscreenenter"",""5"",""17264""
","
",318.945000000007,NA,49,NA,NA,3000,1,NA,NA,images/tutgreenplanet.jpg,images/tutalien1,images/tutalien2,null,images/tutalien2,images/t.png,NA,practice,null,NA,NA,NA,NA,sub104
d3-animate-choice,40,215502,0.0-40.0,TRUE,FALSE,TRUE,TRUE,"""event"",""trial"",""time""
""fullscreenenter"",""5"",""17264""
","
","
","""event"",""trial"",""time""
""fullscreenenter"",""5"",""17264""
","
",336.80000000001746,NA,49,NA,NA,3000,1,NA,NA,images/tutgreenplanet.jpg,images/tutalien1,images/tutalien2,null,images/tutalien2,images/t.png,NA,practice,null,NA,NA,NA,NA,sub104
d3-animate-choice,41,217755,0.0-41.0,TRUE,FALSE,TRUE,TRUE,"""event"",""trial"",""time""
""fullscreenenter"",""5"",""17264""
","
","
","""event"",""trial"",""time""
""fullscreenenter"",""5"",""17264""
","
",246.9550000000745,NA,49,NA,NA,3000,1,NA,NA,images/tutgreenplanet.jpg,images/tutalien1,images/tutalien2,null,images/tutalien2,images/t.png,NA,practice,null,NA,NA,NA,NA,sub104
d3-animate-choice,42,220005,0.0-42.0,TRUE,FALSE,TRUE,TRUE,"""event"",""trial"",""time""
""fullscreenenter"",""5"",""17264""
","
","
","""event"",""trial"",""time""
""fullscreenenter"",""5"",""17264""
","
",241.8850000000093,NA,49,NA,NA,3000,1,NA,NA,images/tutgreenplanet.jpg,images/tutalien1,images/tutalien2,null,images/tutalien2,images/t.png,NA,practice,null,NA,NA,NA,NA,sub104
d3-animate-choice,43,222179,0.0-43.0,TRUE,FALSE,TRUE,TRUE,"""event"",""trial"",""time""
""fullscreenenter"",""5"",""17264""
","
","
","""event"",""trial"",""time""
""fullscreenenter"",""5"",""17264""
","
",168.32499999998254,NA,49,NA,NA,3000,1,NA,NA,images/tutgreenplanet.jpg,images/tutalien1,images/tutalien2,null,images/tutalien2,images/t.png,NA,practice,null,NA,NA,NA,NA,sub104
d3-instructions,44,235159,0.0-44.0,TRUE,FALSE,TRUE,TRUE,"""event"",""trial"",""time""
""fullscreenenter"",""5"",""17264""
","
","
","""event"",""trial"",""time""
""fullscreenenter"",""5"",""17264""
","
",NA,NA,NA,NA,NA,NA,NA,NA,NA,NA,NA,NA,NA,NA,NA,NA,NA,NA,NA,NA,NA,NA,sub104
d3-instructions,45,240922,0.0-45.0,TRUE,FALSE,TRUE,TRUE,"""event"",""trial"",""time""
""fullscreenenter"",""5"",""17264""
","
","
","""event"",""trial"",""time""
""fullscreenenter"",""5"",""17264""
","
",NA,NA,NA,NA,NA,NA,NA,NA,NA,NA,NA,NA,NA,NA,NA,NA,NA,NA,NA,NA,NA,NA,sub104
d3-instructions,46,245360,0.0-46.0,TRUE,FALSE,TRUE,TRUE,"""event"",""trial"",""time""
""fullscreenenter"",""5"",""17264""
","
","
","""event"",""trial"",""time""
""fullscreenenter"",""5"",""17264""
","
",NA,NA,NA,NA,NA,NA,NA,NA,NA,NA,NA,NA,NA,NA,NA,NA,NA,NA,NA,NA,NA,NA,sub104
d3-instructions,47,262224,0.0-47.0,TRUE,FALSE,TRUE,TRUE,"""event"",""trial"",""time""
""fullscreenenter"",""5"",""17264""
","
","
","""event"",""trial"",""time""
""fullscreenenter"",""5"",""17264""
","
",NA,NA,NA,NA,NA,NA,NA,NA,NA,NA,NA,NA,NA,NA,NA,NA,NA,NA,NA,NA,NA,NA,sub104
d3-instructions,48,268635,0.0-48.0,TRUE,FALSE,TRUE,TRUE,"""event"",""trial"",""time""
""fullscreenenter"",""5"",""17264""
","
","
","""event"",""trial"",""time""
""fullscreenenter"",""5"",""17264""
","
",NA,NA,NA,NA,NA,NA,NA,NA,NA,NA,NA,NA,NA,NA,NA,NA,NA,NA,NA,NA,NA,NA,sub104
d3-instructions,49,279769,0.0-49.0,TRUE,FALSE,TRUE,TRUE,"""event"",""trial"",""time""
""fullscreenenter"",""5"",""17264""
","
","
","""event"",""trial"",""time""
""fullscreenenter"",""5"",""17264""
","
",NA,NA,NA,NA,NA,NA,NA,NA,NA,NA,NA,NA,NA,NA,NA,NA,NA,NA,NA,NA,NA,NA,sub104
d3-instructions,50,288287,0.0-50.0,TRUE,FALSE,TRUE,TRUE,"""event"",""trial"",""time""
""fullscreenenter"",""5"",""17264""
","
","
","""event"",""trial"",""time""
""fullscreenenter"",""5"",""17264""
","
",NA,NA,NA,NA,NA,NA,NA,NA,NA,NA,NA,NA,NA,NA,NA,NA,NA,NA,NA,NA,NA,NA,sub104
d3-instructions,51,291118,0.0-51.0,TRUE,FALSE,TRUE,TRUE,"""event"",""trial"",""time""
""fullscreenenter"",""5"",""17264""
","
","
","""event"",""trial"",""time""
""fullscreenenter"",""5"",""17264""
","
",NA,NA,NA,NA,NA,NA,NA,NA,NA,NA,NA,NA,NA,NA,NA,NA,NA,NA,NA,NA,NA,NA,sub104
d3-instructions,52,294055,0.0-52.0,TRUE,FALSE,TRUE,TRUE,"""event"",""trial"",""time""
""fullscreenenter"",""5"",""17264""
","
","
","""event"",""trial"",""time""
""fullscreenenter"",""5"",""17264""
","
",NA,NA,NA,NA,NA,NA,NA,NA,NA,NA,NA,NA,NA,NA,NA,NA,NA,NA,NA,NA,NA,NA,sub104
d3-instructions,53,305920,0.0-53.0,TRUE,FALSE,TRUE,TRUE,"""event"",""trial"",""time""
""fullscreenenter"",""5"",""17264""
","
","
","""event"",""trial"",""time""
""fullscreenenter"",""5"",""17264""
","
",NA,NA,NA,NA,NA,NA,NA,NA,NA,NA,NA,NA,NA,NA,NA,NA,NA,NA,NA,NA,NA,NA,sub104
d3-instructions,54,318283,0.0-54.0,TRUE,FALSE,TRUE,TRUE,"""event"",""trial"",""time""
""fullscreenenter"",""5"",""17264""
","
","
","""event"",""trial"",""time""
""fullscreenenter"",""5"",""17264""
","
",NA,NA,NA,NA,NA,NA,NA,NA,NA,NA,NA,NA,NA,NA,NA,NA,NA,NA,NA,NA,NA,NA,sub104
d3-instructions,55,328019,0.0-55.0,TRUE,FALSE,TRUE,TRUE,"""event"",""trial"",""time""
""fullscreenenter"",""5"",""17264""
","
","
","""event"",""trial"",""time""
""fullscreenenter"",""5"",""17264""
","
",NA,NA,NA,NA,NA,NA,NA,NA,NA,NA,NA,NA,NA,NA,NA,NA,NA,NA,NA,NA,NA,NA,sub104
d3-instructions,56,336395,0.0-56.0,TRUE,FALSE,TRUE,TRUE,"""event"",""trial"",""time""
""fullscreenenter"",""5"",""17264""
","
","
","""event"",""trial"",""time""
""fullscreenenter"",""5"",""17264""
","
",NA,NA,NA,NA,NA,NA,NA,NA,NA,NA,NA,NA,NA,NA,NA,NA,NA,NA,NA,NA,NA,NA,sub104
d3-instructions,57,348185,0.0-57.0,TRUE,FALSE,TRUE,TRUE,"""event"",""trial"",""time""
""fullscreenenter"",""5"",""17264""
","
","
","""event"",""trial"",""time""
""fullscreenenter"",""5"",""17264""
","
",NA,NA,NA,NA,NA,NA,NA,NA,NA,NA,NA,NA,NA,NA,NA,NA,NA,NA,NA,NA,NA,NA,sub104
d3-instructions,58,358723,0.0-58.0,TRUE,FALSE,TRUE,TRUE,"""event"",""trial"",""time""
""fullscreenenter"",""5"",""17264""
","
","
","""event"",""trial"",""time""
""fullscreenenter"",""5"",""17264""
","
",NA,NA,NA,NA,NA,NA,NA,NA,NA,NA,NA,NA,NA,NA,NA,NA,NA,NA,NA,NA,NA,NA,sub104
d3-instructions,59,363494,0.0-59.0,TRUE,FALSE,TRUE,TRUE,"""event"",""trial"",""time""
""fullscreenenter"",""5"",""17264""
","
","
","""event"",""trial"",""time""
""fullscreenenter"",""5"",""17264""
","
",NA,NA,NA,NA,NA,NA,NA,NA,NA,NA,NA,NA,NA,NA,NA,NA,NA,NA,NA,NA,NA,NA,sub104
d3-instructions,60,370050,0.0-60.0,TRUE,FALSE,TRUE,TRUE,"""event"",""trial"",""time""
""fullscreenenter"",""5"",""17264""
","
","
","""event"",""trial"",""time""
""fullscreenenter"",""5"",""17264""
","
",NA,NA,NA,NA,NA,NA,NA,NA,NA,NA,NA,NA,NA,NA,NA,NA,NA,NA,NA,NA,NA,NA,sub104
d3-animate-choice,61,373243,0.0-61.0-0.0,TRUE,FALSE,TRUE,TRUE,"""event"",""trial"",""time""
""fullscreenenter"",""5"",""17264""
","
","
","""event"",""trial"",""time""
""fullscreenenter"",""5"",""17264""
","
",1186.6849999999977,NA,48,NA,NA,3000,1,NA,NA,images/earth.jpg,images/tutrocket2,images/tutrocket1,null,images/tutrocket2,NA,1,practice,null,2,NA,NA,NA,sub104
d3-animate-choice,62,376382,0.0-61.0-1.0,TRUE,FALSE,TRUE,TRUE,"""event"",""trial"",""time""
""fullscreenenter"",""5"",""17264""
","
","
","""event"",""trial"",""time""
""fullscreenenter"",""5"",""17264""
","
",1128.6299999999464,NA,49,NA,NA,3000,1,NA,NA,images/tutgreenplanet.jpg,images/tutalien2,images/tutalien1,images/tutrocket2,images/tutalien1,images/nothing.png,2,practice,true,1,common,0,2020-06-20T17:21:38Z,sub104
two-step-fixation,63,377390,0.0-61.0-2.0,TRUE,FALSE,TRUE,TRUE,"""event"",""trial"",""time""
""fullscreenenter"",""5"",""17264""
","
","
","""event"",""trial"",""time""
""fullscreenenter"",""5"",""17264""
","
",NA,images/earth.jpg,NA,NA,NA,NA,NA,NA,NA,NA,NA,NA,NA,NA,NA,fixation,NA,NA,NA,NA,NA,NA,sub104
d3-animate-choice,64,381195,0.0-61.0-0.1,TRUE,FALSE,TRUE,TRUE,"""event"",""trial"",""time""
""fullscreenenter"",""5"",""17264""
","
","
","""event"",""trial"",""time""
""fullscreenenter"",""5"",""17264""
","
",1798.9749999999185,NA,49,NA,NA,3000,1,NA,NA,images/earth.jpg,images/tutrocket2,images/tutrocket1,null,images/tutrocket1,NA,1,practice,null,1,NA,NA,NA,sub104
d3-animate-choice,65,384495,0.0-61.0-1.1,TRUE,FALSE,TRUE,TRUE,"""event"",""trial"",""time""
""fullscreenenter"",""5"",""17264""
","
","
","""event"",""trial"",""time""
""fullscreenenter"",""5"",""17264""
","
",1290.1600000000326,NA,49,NA,NA,3000,1,NA,NA,images/tutgreenplanet.jpg,images/tutalien2,images/tutalien1,images/tutrocket1,images/tutalien1,images/nothing.png,2,practice,false,1,rare,0,2020-06-20T17:21:46Z,sub104
two-step-fixation,66,385505,0.0-61.0-2.1,TRUE,FALSE,TRUE,TRUE,"""event"",""trial"",""time""
""fullscreenenter"",""5"",""17264""
","
","
","""event"",""trial"",""time""
""fullscreenenter"",""5"",""17264""
","
",NA,images/earth.jpg,NA,NA,NA,NA,NA,NA,NA,NA,NA,NA,NA,NA,NA,fixation,NA,NA,NA,NA,NA,NA,sub104
d3-animate-choice,67,387891,0.0-61.0-0.2,TRUE,FALSE,TRUE,TRUE,"""event"",""trial"",""time""
""fullscreenenter"",""5"",""17264""
","
","
","""event"",""trial"",""time""
""fullscreenenter"",""5"",""17264""
","
",380.16500000003725,NA,49,NA,NA,3000,1,NA,NA,images/earth.jpg,images/tutrocket2,images/tutrocket1,null,images/tutrocket1,NA,1,practice,null,1,NA,NA,NA,sub104
d3-animate-choice,68,390572,0.0-61.0-1.2,TRUE,FALSE,TRUE,TRUE,"""event"",""trial"",""time""
""fullscreenenter"",""5"",""17264""
","
","
","""event"",""trial"",""time""
""fullscreenenter"",""5"",""17264""
","
",674.0449999999837,NA,48,NA,NA,3000,1,NA,NA,images/tutgreenplanet.jpg,images/tutalien2,images/tutalien1,images/tutrocket1,images/tutalien2,images/t.png,2,practice,false,2,rare,1,2020-06-20T17:21:52Z,sub104
two-step-fixation,69,391577,0.0-61.0-2.2,TRUE,FALSE,TRUE,TRUE,"""event"",""trial"",""time""
""fullscreenenter"",""5"",""17264""
","
","
","""event"",""trial"",""time""
""fullscreenenter"",""5"",""17264""
","
",NA,images/earth.jpg,NA,NA,NA,NA,NA,NA,NA,NA,NA,NA,NA,NA,NA,fixation,NA,NA,NA,NA,NA,NA,sub104
d3-animate-choice,70,394386,0.0-61.0-0.3,TRUE,FALSE,TRUE,TRUE,"""event"",""trial"",""time""
""fullscreenenter"",""5"",""17264""
","
","
","""event"",""trial"",""time""
""fullscreenenter"",""5"",""17264""
","
",803.2099999999627,NA,49,NA,NA,3000,1,NA,NA,images/earth.jpg,images/tutrocket2,images/tutrocket1,null,images/tutrocket1,NA,1,practice,null,1,NA,NA,NA,sub104
d3-animate-choice,71,397447,0.0-61.0-1.3,TRUE,FALSE,TRUE,TRUE,"""event"",""trial"",""time""
""fullscreenenter"",""5"",""17264""
","
","
","""event"",""trial"",""time""
""fullscreenenter"",""5"",""17264""
","
",1051.6399999998976,NA,49,NA,NA,3000,1,NA,NA,images/tutyellowplanet.jpg,images/tutalien4,images/tutalien3,images/tutrocket1,images/tutalien3,images/nothing.png,2,practice,true,1,common,0,2020-06-20T17:21:59Z,sub104
two-step-fixation,72,398456,0.0-61.0-2.3,TRUE,FALSE,TRUE,TRUE,"""event"",""trial"",""time""
""fullscreenenter"",""5"",""17264""
","
","
","""event"",""trial"",""time""
""fullscreenenter"",""5"",""17264""
","
",NA,images/earth.jpg,NA,NA,NA,NA,NA,NA,NA,NA,NA,NA,NA,NA,NA,fixation,NA,NA,NA,NA,NA,NA,sub104
d3-animate-choice,73,400904,0.0-61.0-0.4,TRUE,FALSE,TRUE,TRUE,"""event"",""trial"",""time""
""fullscreenenter"",""5"",""17264""
","
","
","""event"",""trial"",""time""
""fullscreenenter"",""5"",""17264""
","
",437.41499999997905,NA,49,NA,NA,3000,1,NA,NA,images/earth.jpg,images/tutrocket2,images/tutrocket1,null,images/tutrocket1,NA,1,practice,null,1,NA,NA,NA,sub104
d3-animate-choice,74,403930,0.0-61.0-1.4,TRUE,FALSE,TRUE,TRUE,"""event"",""trial"",""time""
""fullscreenenter"",""5"",""17264""
","
","
","""event"",""trial"",""time""
""fullscreenenter"",""5"",""17264""
","
",1021.1849999999395,NA,48,NA,NA,3000,1,NA,NA,images/tutyellowplanet.jpg,images/tutalien4,images/tutalien3,images/tutrocket1,images/tutalien4,images/t.png,2,practice,true,2,common,1,2020-06-20T17:22:05Z,sub104
two-step-fixation,75,404935,0.0-61.0-2.4,TRUE,FALSE,TRUE,TRUE,"""event"",""trial"",""time""
""fullscreenenter"",""5"",""17264""
","
","
","""event"",""trial"",""time""
""fullscreenenter"",""5"",""17264""
","
",NA,images/earth.jpg,NA,NA,NA,NA,NA,NA,NA,NA,NA,NA,NA,NA,NA,fixation,NA,NA,NA,NA,NA,NA,sub104
d3-animate-choice,76,407276,0.0-61.0-0.5,TRUE,FALSE,TRUE,TRUE,"""event"",""trial"",""time""
""fullscreenenter"",""5"",""17264""
","
","
","""event"",""trial"",""time""
""fullscreenenter"",""5"",""17264""
","
",334.3850000000093,NA,49,NA,NA,3000,1,NA,NA,images/earth.jpg,images/tutrocket2,images/tutrocket1,null,images/tutrocket1,NA,1,practice,null,1,NA,NA,NA,sub104
d3-animate-choice,77,409812,0.0-61.0-1.5,TRUE,FALSE,TRUE,TRUE,"""event"",""trial"",""time""
""fullscreenenter"",""5"",""17264""
","
","
","""event"",""trial"",""time""
""fullscreenenter"",""5"",""17264""
","
",529.8400000000838,NA,48,NA,NA,3000,1,NA,NA,images/tutyellowplanet.jpg,images/tutalien4,images/tutalien3,images/tutrocket1,images/tutalien4,images/t.png,2,practice,true,2,common,1,2020-06-20T17:22:11Z,sub104
two-step-fixation,78,410817,0.0-61.0-2.5,TRUE,FALSE,TRUE,TRUE,"""event"",""trial"",""time""
""fullscreenenter"",""5"",""17264""
","
","
","""event"",""trial"",""time""
""fullscreenenter"",""5"",""17264""
","
",NA,images/earth.jpg,NA,NA,NA,NA,NA,NA,NA,NA,NA,NA,NA,NA,NA,fixation,NA,NA,NA,NA,NA,NA,sub104
d3-animate-choice,79,413226,0.0-61.0-0.6,TRUE,FALSE,TRUE,TRUE,"""event"",""trial"",""time""
""fullscreenenter"",""5"",""17264""
","
","
","""event"",""trial"",""time""
""fullscreenenter"",""5"",""17264""
","
",404.82500000001164,NA,49,NA,NA,3000,1,NA,NA,images/earth.jpg,images/tutrocket2,images/tutrocket1,null,images/tutrocket1,NA,1,practice,null,1,NA,NA,NA,sub104
d3-animate-choice,80,415750,0.0-61.0-1.6,TRUE,FALSE,TRUE,TRUE,"""event"",""trial"",""time""
""fullscreenenter"",""5"",""17264""
","
","
","""event"",""trial"",""time""
""fullscreenenter"",""5"",""17264""
","
",514.7750000000233,NA,48,NA,NA,3000,1,NA,NA,images/tutyellowplanet.jpg,images/tutalien4,images/tutalien3,images/tutrocket1,images/tutalien4,images/nothing.png,2,practice,true,2,common,0,2020-06-20T17:22:17Z,sub104
two-step-fixation,81,416760,0.0-61.0-2.6,TRUE,FALSE,TRUE,TRUE,"""event"",""trial"",""time""
""fullscreenenter"",""5"",""17264""
","
","
","""event"",""trial"",""time""
""fullscreenenter"",""5"",""17264""
","
",NA,images/earth.jpg,NA,NA,NA,NA,NA,NA,NA,NA,NA,NA,NA,NA,NA,fixation,NA,NA,NA,NA,NA,NA,sub104
d3-animate-choice,82,419197,0.0-61.0-0.7,TRUE,FALSE,TRUE,TRUE,"""event"",""trial"",""time""
""fullscreenenter"",""5"",""17264""
","
","
","""event"",""trial"",""time""
""fullscreenenter"",""5"",""17264""
","
",428.84499999991385,NA,48,NA,NA,3000,1,NA,NA,images/earth.jpg,images/tutrocket2,images/tutrocket1,null,images/tutrocket2,NA,1,practice,null,2,NA,NA,NA,sub104
d3-animate-choice,83,422124,0.0-61.0-1.7,TRUE,FALSE,TRUE,TRUE,"""event"",""trial"",""time""
""fullscreenenter"",""5"",""17264""
","
","
","""event"",""trial"",""time""
""fullscreenenter"",""5"",""17264""
","
",920.070000000007,NA,48,NA,NA,3000,1,NA,NA,images/tutgreenplanet.jpg,images/tutalien2,images/tutalien1,images/tutrocket2,images/tutalien2,images/t.png,2,practice,true,2,common,1,2020-06-20T17:22:24Z,sub104
two-step-fixation,84,423130,0.0-61.0-2.7,TRUE,FALSE,TRUE,TRUE,"""event"",""trial"",""time""
""fullscreenenter"",""5"",""17264""
","
","
","""event"",""trial"",""time""
""fullscreenenter"",""5"",""17264""
","
",NA,images/earth.jpg,NA,NA,NA,NA,NA,NA,NA,NA,NA,NA,NA,NA,NA,fixation,NA,NA,NA,NA,NA,NA,sub104
d3-animate-choice,85,425583,0.0-61.0-0.8,TRUE,FALSE,TRUE,TRUE,"""event"",""trial"",""time""
""fullscreenenter"",""5"",""17264""
","
","
","""event"",""trial"",""time""
""fullscreenenter"",""5"",""17264""
","
",443.8500000000349,NA,48,NA,NA,3000,1,NA,NA,images/earth.jpg,images/tutrocket2,images/tutrocket1,null,images/tutrocket2,NA,1,practice,null,2,NA,NA,NA,sub104
d3-animate-choice,86,428515,0.0-61.0-1.8,TRUE,FALSE,TRUE,TRUE,"""event"",""trial"",""time""
""fullscreenenter"",""5"",""17264""
","
","
","""event"",""trial"",""time""
""fullscreenenter"",""5"",""17264""
","
",924.7649999999558,NA,48,NA,NA,3000,1,NA,NA,images/tutyellowplanet.jpg,images/tutalien4,images/tutalien3,images/tutrocket2,images/tutalien4,images/nothing.png,2,practice,false,2,rare,0,2020-06-20T17:22:30Z,sub104
two-step-fixation,87,429522,0.0-61.0-2.8,TRUE,FALSE,TRUE,TRUE,"""event"",""trial"",""time""
""fullscreenenter"",""5"",""17264""
","
","
","""event"",""trial"",""time""
""fullscreenenter"",""5"",""17264""
","
",NA,images/earth.jpg,NA,NA,NA,NA,NA,NA,NA,NA,NA,NA,NA,NA,NA,fixation,NA,NA,NA,NA,NA,NA,sub104
d3-animate-choice,88,432082,0.0-61.0-0.9,TRUE,FALSE,TRUE,TRUE,"""event"",""trial"",""time""
""fullscreenenter"",""5"",""17264""
","
","
","""event"",""trial"",""time""
""fullscreenenter"",""5"",""17264""
","
",554.4999999999418,NA,49,NA,NA,3000,1,NA,NA,images/earth.jpg,images/tutrocket2,images/tutrocket1,null,images/tutrocket1,NA,1,practice,null,1,NA,NA,NA,sub104
d3-animate-choice,89,434715,0.0-61.0-1.9,TRUE,FALSE,TRUE,TRUE,"""event"",""trial"",""time""
""fullscreenenter"",""5"",""17264""
","
","
","""event"",""trial"",""time""
""fullscreenenter"",""5"",""17264""
","
",627.335000000021,NA,49,NA,NA,3000,1,NA,NA,images/tutyellowplanet.jpg,images/tutalien4,images/tutalien3,images/tutrocket1,images/tutalien3,images/nothing.png,2,practice,true,1,common,0,2020-06-20T17:22:36Z,sub104
two-step-fixation,90,435720,0.0-61.0-2.9,TRUE,FALSE,TRUE,TRUE,"""event"",""trial"",""time""
""fullscreenenter"",""5"",""17264""
","
","
","""event"",""trial"",""time""
""fullscreenenter"",""5"",""17264""
","
",NA,images/earth.jpg,NA,NA,NA,NA,NA,NA,NA,NA,NA,NA,NA,NA,NA,fixation,NA,NA,NA,NA,NA,NA,sub104
d3-animate-choice,91,438350,0.0-61.0-0.10,TRUE,FALSE,TRUE,TRUE,"""event"",""trial"",""time""
""fullscreenenter"",""5"",""17264""
","
","
","""event"",""trial"",""time""
""fullscreenenter"",""5"",""17264""
","
",620.7699999999604,NA,48,NA,NA,3000,1,NA,NA,images/earth.jpg,images/tutrocket2,images/tutrocket1,null,images/tutrocket2,NA,1,practice,null,2,NA,NA,NA,sub104
d3-animate-choice,92,440908,0.0-61.0-1.10,TRUE,FALSE,TRUE,TRUE,"""event"",""trial"",""time""
""fullscreenenter"",""5"",""17264""
","
","
","""event"",""trial"",""time""
""fullscreenenter"",""5"",""17264""
","
",550.4599999999627,NA,48,NA,NA,3000,1,NA,NA,images/tutyellowplanet.jpg,images/tutalien4,images/tutalien3,images/tutrocket2,images/tutalien4,images/t.png,2,practice,false,2,rare,1,2020-06-20T17:22:42Z,sub104
two-step-fixation,93,441916,0.0-61.0-2.10,TRUE,FALSE,TRUE,TRUE,"""event"",""trial"",""time""
""fullscreenenter"",""5"",""17264""
","
","
","""event"",""trial"",""time""
""fullscreenenter"",""5"",""17264""
","
",NA,images/earth.jpg,NA,NA,NA,NA,NA,NA,NA,NA,NA,NA,NA,NA,NA,fixation,NA,NA,NA,NA,NA,NA,sub104
d3-animate-choice,94,444566,0.0-61.0-0.11,TRUE,FALSE,TRUE,TRUE,"""event"",""trial"",""time""
""fullscreenenter"",""5"",""17264""
","
","
","""event"",""trial"",""time""
""fullscreenenter"",""5"",""17264""
","
",642.6700000001001,NA,48,NA,NA,3000,1,NA,NA,images/earth.jpg,images/tutrocket2,images/tutrocket1,null,images/tutrocket2,NA,1,practice,null,2,NA,NA,NA,sub104
d3-animate-choice,95,447480,0.0-61.0-1.11,TRUE,FALSE,TRUE,TRUE,"""event"",""trial"",""time""
""fullscreenenter"",""5"",""17264""
","
","
","""event"",""trial"",""time""
""fullscreenenter"",""5"",""17264""
","
",907.5999999999767,NA,48,NA,NA,3000,1,NA,NA,images/tutgreenplanet.jpg,images/tutalien2,images/tutalien1,images/tutrocket2,images/tutalien2,images/nothing.png,2,practice,true,2,common,0,2020-06-20T17:22:49Z,sub104
two-step-fixation,96,448486,0.0-61.0-2.11,TRUE,FALSE,TRUE,TRUE,"""event"",""trial"",""time""
""fullscreenenter"",""5"",""17264""
","
","
","""event"",""trial"",""time""
""fullscreenenter"",""5"",""17264""
","
",NA,images/earth.jpg,NA,NA,NA,NA,NA,NA,NA,NA,NA,NA,NA,NA,NA,fixation,NA,NA,NA,NA,NA,NA,sub104
d3-animate-choice,97,450950,0.0-61.0-0.12,TRUE,FALSE,TRUE,TRUE,"""event"",""trial"",""time""
""fullscreenenter"",""5"",""17264""
","
","
","""event"",""trial"",""time""
""fullscreenenter"",""5"",""17264""
","
",457.7950000000419,NA,48,NA,NA,3000,1,NA,NA,images/earth.jpg,images/tutrocket2,images/tutrocket1,null,images/tutrocket2,NA,1,practice,null,2,NA,NA,NA,sub104
d3-animate-choice,98,453528,0.0-61.0-1.12,TRUE,FALSE,TRUE,TRUE,"""event"",""trial"",""time""
""fullscreenenter"",""5"",""17264""
","
","
","""event"",""trial"",""time""
""fullscreenenter"",""5"",""17264""
","
",569.125,NA,48,NA,NA,3000,1,NA,NA,images/tutgreenplanet.jpg,images/tutalien2,images/tutalien1,images/tutrocket2,images/tutalien2,images/nothing.png,2,practice,true,2,common,0,2020-06-20T17:22:55Z,sub104
two-step-fixation,99,454534,0.0-61.0-2.12,TRUE,FALSE,TRUE,TRUE,"""event"",""trial"",""time""
""fullscreenenter"",""5"",""17264""
","
","
","""event"",""trial"",""time""
""fullscreenenter"",""5"",""17264""
","
",NA,images/earth.jpg,NA,NA,NA,NA,NA,NA,NA,NA,NA,NA,NA,NA,NA,fixation,NA,NA,NA,NA,NA,NA,sub104
d3-animate-choice,100,457087,0.0-61.0-0.13,TRUE,FALSE,TRUE,TRUE,"""event"",""trial"",""time""
""fullscreenenter"",""5"",""17264""
","
","
","""event"",""trial"",""time""
""fullscreenenter"",""5"",""17264""
","
",544.8149999999441,NA,48,NA,NA,3000,1,NA,NA,images/earth.jpg,images/tutrocket2,images/tutrocket1,null,images/tutrocket2,NA,1,practice,null,2,NA,NA,NA,sub104
d3-animate-choice,101,459744,0.0-61.0-1.13,TRUE,FALSE,TRUE,TRUE,"""event"",""trial"",""time""
""fullscreenenter"",""5"",""17264""
","
","
","""event"",""trial"",""time""
""fullscreenenter"",""5"",""17264""
","
",649.1600000000326,NA,48,NA,NA,3000,1,NA,NA,images/tutyellowplanet.jpg,images/tutalien4,images/tutalien3,images/tutrocket2,images/tutalien4,images/nothing.png,2,practice,false,2,rare,0,2020-06-20T17:23:01Z,sub104
two-step-fixation,102,460750,0.0-61.0-2.13,TRUE,FALSE,TRUE,TRUE,"""event"",""trial"",""time""
""fullscreenenter"",""5"",""17264""
","
","
","""event"",""trial"",""time""
""fullscreenenter"",""5"",""17264""
","
",NA,images/earth.jpg,NA,NA,NA,NA,NA,NA,NA,NA,NA,NA,NA,NA,NA,fixation,NA,NA,NA,NA,NA,NA,sub104
d3-animate-choice,103,463173,0.0-61.0-0.14,TRUE,FALSE,TRUE,TRUE,"""event"",""trial"",""time""
""fullscreenenter"",""5"",""17264""
","
","
","""event"",""trial"",""time""
""fullscreenenter"",""5"",""17264""
","
",417.0550000000512,NA,48,NA,NA,3000,1,NA,NA,images/earth.jpg,images/tutrocket2,images/tutrocket1,null,images/tutrocket2,NA,1,practice,null,2,NA,NA,NA,sub104
d3-animate-choice,104,465852,0.0-61.0-1.14,TRUE,FALSE,TRUE,TRUE,"""event"",""trial"",""time""
""fullscreenenter"",""5"",""17264""
","
","
","""event"",""trial"",""time""
""fullscreenenter"",""5"",""17264""
","
",675.0049999998882,NA,49,NA,NA,3000,1,NA,NA,images/tutyellowplanet.jpg,images/tutalien4,images/tutalien3,images/tutrocket2,images/tutalien3,images/nothing.png,2,practice,false,1,rare,0,2020-06-20T17:23:07Z,sub104
two-step-fixation,105,466857,0.0-61.0-2.14,TRUE,FALSE,TRUE,TRUE,"""event"",""trial"",""time""
""fullscreenenter"",""5"",""17264""
","
","
","""event"",""trial"",""time""
""fullscreenenter"",""5"",""17264""
","
",NA,images/earth.jpg,NA,NA,NA,NA,NA,NA,NA,NA,NA,NA,NA,NA,NA,fixation,NA,NA,NA,NA,NA,NA,sub104
d3-animate-choice,106,469183,0.0-61.0-0.15,TRUE,FALSE,TRUE,TRUE,"""event"",""trial"",""time""
""fullscreenenter"",""5"",""17264""
","
","
","""event"",""trial"",""time""
""fullscreenenter"",""5"",""17264""
","
",318.3950000000186,NA,48,NA,NA,3000,1,NA,NA,images/earth.jpg,images/tutrocket2,images/tutrocket1,null,images/tutrocket2,NA,1,practice,null,2,NA,NA,NA,sub104
d3-animate-choice,107,471590,0.0-61.0-1.15,TRUE,FALSE,TRUE,TRUE,"""event"",""trial"",""time""
""fullscreenenter"",""5"",""17264""
","
","
","""event"",""trial"",""time""
""fullscreenenter"",""5"",""17264""
","
",401.2600000000093,NA,48,NA,NA,3000,1,NA,NA,images/tutyellowplanet.jpg,images/tutalien4,images/tutalien3,images/tutrocket2,images/tutalien4,images/t.png,2,practice,false,2,rare,1,2020-06-20T17:23:13Z,sub104
two-step-fixation,108,472596,0.0-61.0-2.15,TRUE,FALSE,TRUE,TRUE,"""event"",""trial"",""time""
""fullscreenenter"",""5"",""17264""
","
","
","""event"",""trial"",""time""
""fullscreenenter"",""5"",""17264""
","
",NA,images/earth.jpg,NA,NA,NA,NA,NA,NA,NA,NA,NA,NA,NA,NA,NA,fixation,NA,NA,NA,NA,NA,NA,sub104
d3-animate-choice,109,474990,0.0-61.0-0.16,TRUE,FALSE,TRUE,TRUE,"""event"",""trial"",""time""
""fullscreenenter"",""5"",""17264""
","
","
","""event"",""trial"",""time""
""fullscreenenter"",""5"",""17264""
","
",387.88000000000466,NA,48,NA,NA,3000,1,NA,NA,images/earth.jpg,images/tutrocket2,images/tutrocket1,null,images/tutrocket2,NA,1,practice,null,2,NA,NA,NA,sub104
d3-animate-choice,110,477456,0.0-61.0-1.16,TRUE,FALSE,TRUE,TRUE,"""event"",""trial"",""time""
""fullscreenenter"",""5"",""17264""
","
","
","""event"",""trial"",""time""
""fullscreenenter"",""5"",""17264""
","
",457.1699999999255,NA,48,NA,NA,3000,1,NA,NA,images/tutyellowplanet.jpg,images/tutalien4,images/tutalien3,images/tutrocket2,images/tutalien4,images/nothing.png,2,practice,false,2,rare,0,2020-06-20T17:23:19Z,sub104
two-step-fixation,111,478461,0.0-61.0-2.16,TRUE,FALSE,TRUE,TRUE,"""event"",""trial"",""time""
""fullscreenenter"",""5"",""17264""
","
","
","""event"",""trial"",""time""
""fullscreenenter"",""5"",""17264""
","
",NA,images/earth.jpg,NA,NA,NA,NA,NA,NA,NA,NA,NA,NA,NA,NA,NA,fixation,NA,NA,NA,NA,NA,NA,sub104
d3-animate-choice,112,480876,0.0-61.0-0.17,TRUE,FALSE,TRUE,TRUE,"""event"",""trial"",""time""
""fullscreenenter"",""5"",""17264""
","
","
","""event"",""trial"",""time""
""fullscreenenter"",""5"",""17264""
","
",409.9899999999907,NA,49,NA,NA,3000,1,NA,NA,images/earth.jpg,images/tutrocket2,images/tutrocket1,null,images/tutrocket1,NA,1,practice,null,1,NA,NA,NA,sub104
d3-animate-choice,113,483497,0.0-61.0-1.17,TRUE,FALSE,TRUE,TRUE,"""event"",""trial"",""time""
""fullscreenenter"",""5"",""17264""
","
","
","""event"",""trial"",""time""
""fullscreenenter"",""5"",""17264""
","
",611.2449999999371,NA,49,NA,NA,3000,1,NA,NA,images/tutgreenplanet.jpg,images/tutalien2,images/tutalien1,images/tutrocket1,images/tutalien1,images/t.png,2,practice,false,1,rare,1,2020-06-20T17:23:25Z,sub104
two-step-fixation,114,484503,0.0-61.0-2.17,TRUE,FALSE,TRUE,TRUE,"""event"",""trial"",""time""
""fullscreenenter"",""5"",""17264""
","
","
","""event"",""trial"",""time""
""fullscreenenter"",""5"",""17264""
","
",NA,images/earth.jpg,NA,NA,NA,NA,NA,NA,NA,NA,NA,NA,NA,NA,NA,fixation,NA,NA,NA,NA,NA,NA,sub104
d3-animate-choice,115,487063,0.0-61.0-0.18,TRUE,FALSE,TRUE,TRUE,"""event"",""trial"",""time""
""fullscreenenter"",""5"",""17264""
","
","
","""event"",""trial"",""time""
""fullscreenenter"",""5"",""17264""
","
",551.0350000000326,NA,49,NA,NA,3000,1,NA,NA,images/earth.jpg,images/tutrocket2,images/tutrocket1,null,images/tutrocket1,NA,1,practice,null,1,NA,NA,NA,sub104
d3-animate-choice,116,489431,0.0-61.0-1.18,TRUE,FALSE,TRUE,TRUE,"""event"",""trial"",""time""
""fullscreenenter"",""5"",""17264""
","
","
","""event"",""trial"",""time""
""fullscreenenter"",""5"",""17264""
","
",360.05999999993946,NA,49,NA,NA,3000,1,NA,NA,images/tutgreenplanet.jpg,images/tutalien2,images/tutalien1,images/tutrocket1,images/tutalien1,images/nothing.png,2,practice,false,1,rare,0,2020-06-20T17:23:31Z,sub104
two-step-fixation,117,490436,0.0-61.0-2.18,TRUE,FALSE,TRUE,TRUE,"""event"",""trial"",""time""
""fullscreenenter"",""5"",""17264""
","
","
","""event"",""trial"",""time""
""fullscreenenter"",""5"",""17264""
","
",NA,images/earth.jpg,NA,NA,NA,NA,NA,NA,NA,NA,NA,NA,NA,NA,NA,fixation,NA,NA,NA,NA,NA,NA,sub104
d3-animate-choice,118,492631,0.0-61.0-0.19,TRUE,FALSE,TRUE,TRUE,"""event"",""trial"",""time""
""fullscreenenter"",""5"",""17264""
","
","
","""event"",""trial"",""time""
""fullscreenenter"",""5"",""17264""
","
",187.1599999999744,NA,49,NA,NA,3000,1,NA,NA,images/earth.jpg,images/tutrocket2,images/tutrocket1,null,images/tutrocket1,NA,1,practice,null,1,NA,NA,NA,sub104
d3-animate-choice,119,495046,0.0-61.0-1.19,TRUE,FALSE,TRUE,TRUE,"""event"",""trial"",""time""
""fullscreenenter"",""5"",""17264""
","
","
","""event"",""trial"",""time""
""fullscreenenter"",""5"",""17264""
","
",409.31500000000233,NA,48,NA,NA,3000,1,NA,NA,images/tutgreenplanet.jpg,images/tutalien2,images/tutalien1,images/tutrocket1,images/tutalien2,images/nothing.png,2,practice,false,2,rare,0,2020-06-20T17:23:36Z,sub104
two-step-fixation,120,496050,0.0-61.0-2.19,TRUE,FALSE,TRUE,TRUE,"""event"",""trial"",""time""
""fullscreenenter"",""5"",""17264""
","
","
","""event"",""trial"",""time""
""fullscreenenter"",""5"",""17264""
","
",NA,images/earth.jpg,NA,NA,NA,NA,NA,NA,NA,NA,NA,NA,NA,NA,NA,fixation,NA,NA,NA,NA,NA,NA,sub104
d3-instructions,121,502843,0.0-62.0,TRUE,FALSE,TRUE,TRUE,"""event"",""trial"",""time""
""fullscreenenter"",""5"",""17264""
","
","
","""event"",""trial"",""time""
""fullscreenenter"",""5"",""17264""
","
",NA,NA,NA,NA,NA,NA,NA,NA,NA,NA,NA,NA,NA,NA,NA,NA,NA,NA,NA,NA,NA,NA,sub104
audio-keyboard-response,122,507589,0.0-63.0,TRUE,FALSE,TRUE,TRUE,"""event"",""trial"",""time""
""fullscreenenter"",""5"",""17264""
","
","
","""event"",""trial"",""time""
""fullscreenenter"",""5"",""17264""
","
",4743,audio/instructions/treasure_feedback.wav,32,NA,NA,NA,NA,NA,NA,NA,NA,NA,NA,NA,NA,NA,NA,NA,NA,NA,NA,NA,sub104
d3-instructions,123,526698,0.0-64.0,TRUE,FALSE,TRUE,TRUE,"""event"",""trial"",""time""
""fullscreenenter"",""5"",""17264""
","
","
","""event"",""trial"",""time""
""fullscreenenter"",""5"",""17264""
","
",NA,NA,NA,NA,NA,NA,NA,NA,NA,NA,NA,NA,NA,NA,NA,NA,NA,NA,NA,NA,NA,NA,sub104
d3-instructions,124,542001,0.0-65.0,TRUE,FALSE,TRUE,TRUE,"""event"",""trial"",""time""
""fullscreenenter"",""5"",""17264""
","
","
","""event"",""trial"",""time""
""fullscreenenter"",""5"",""17264""
","
",NA,NA,NA,NA,NA,NA,NA,NA,NA,NA,NA,NA,NA,NA,NA,NA,NA,NA,NA,NA,NA,NA,sub104
d3-instructions,125,566460,0.0-66.0,TRUE,FALSE,TRUE,TRUE,"""event"",""trial"",""time""
""fullscreenenter"",""5"",""17264""
","
","
","""event"",""trial"",""time""
""fullscreenenter"",""5"",""17264""
","
",NA,NA,NA,NA,NA,NA,NA,NA,NA,NA,NA,NA,NA,NA,NA,NA,NA,NA,NA,NA,NA,NA,sub104
d3-instructions,126,582805,0.0-67.0,TRUE,FALSE,TRUE,TRUE,"""event"",""trial"",""time""
""fullscreenenter"",""5"",""17264""
","
","
","""event"",""trial"",""time""
""fullscreenenter"",""5"",""17264""
","
",NA,NA,NA,NA,NA,NA,NA,NA,NA,NA,NA,NA,NA,NA,NA,NA,NA,NA,NA,NA,NA,NA,sub104
d3-instructions,127,595259,0.0-68.0,TRUE,FALSE,TRUE,TRUE,"""event"",""trial"",""time""
""fullscreenenter"",""5"",""17264""
","
","
","""event"",""trial"",""time""
""fullscreenenter"",""5"",""17264""
","
",NA,NA,NA,NA,NA,NA,NA,NA,NA,NA,NA,NA,NA,NA,NA,NA,NA,NA,NA,NA,NA,NA,sub104
instructions-quiz,128,599916,0.0-69.0,TRUE,FALSE,TRUE,TRUE,"""event"",""trial"",""time""
""fullscreenenter"",""5"",""17264""
","
","
","""event"",""trial"",""time""
""fullscreenenter"",""5"",""17264""
","
",4653.820000000065,audio/quiz/Q1_Prompt.wav,NA,1,NA,NA,NA,NA,NA,NA,NA,NA,NA,NA,NA,NA,NA,NA,NA,NA,NA,NA,sub104
audio-keyboard-response,129,608328,0.0-70.0,TRUE,FALSE,TRUE,TRUE,"""event"",""trial"",""time""
""fullscreenenter"",""5"",""17264""
","
","
","""event"",""trial"",""time""
""fullscreenenter"",""5"",""17264""
","
",8411,audio/quiz/Q1_Correct.wav,32,NA,NA,NA,NA,NA,NA,NA,NA,NA,NA,NA,NA,NA,NA,NA,NA,NA,NA,NA,sub104
instructions-quiz,130,617386,0.0-71.0,TRUE,FALSE,TRUE,TRUE,"""event"",""trial"",""time""
""fullscreenenter"",""5"",""17264""
","
","
","""event"",""trial"",""time""
""fullscreenenter"",""5"",""17264""
","
",9055.324999999953,audio/quiz/Q2_Prompt.wav,NA,0,NA,NA,NA,NA,NA,NA,NA,NA,NA,NA,NA,NA,NA,NA,NA,NA,NA,NA,sub104
audio-keyboard-response,131,628364,0.0-72.0,TRUE,FALSE,TRUE,TRUE,"""event"",""trial"",""time""
""fullscreenenter"",""5"",""17264""
","
","
","""event"",""trial"",""time""
""fullscreenenter"",""5"",""17264""
","
",10971,audio/quiz/Q2_Correct.wav,32,NA,NA,NA,NA,NA,NA,NA,NA,NA,NA,NA,NA,NA,NA,NA,NA,NA,NA,NA,sub104
instructions-quiz,132,633107,0.0-73.0,TRUE,FALSE,TRUE,TRUE,"""event"",""trial"",""time""
""fullscreenenter"",""5"",""17264""
","
","
","""event"",""trial"",""time""
""fullscreenenter"",""5"",""17264""
","
",4741.0950000000885,audio/quiz/Q3_Prompt.wav,NA,1,NA,NA,NA,NA,NA,NA,NA,NA,NA,NA,NA,NA,NA,NA,NA,NA,NA,NA,sub104
audio-keyboard-response,133,637359,0.0-74.0,TRUE,FALSE,TRUE,TRUE,"""event"",""trial"",""time""
""fullscreenenter"",""5"",""17264""
","
","
","""event"",""trial"",""time""
""fullscreenenter"",""5"",""17264""
","
",4249,audio/quiz/Q3_Correct.wav,32,NA,NA,NA,NA,NA,NA,NA,NA,NA,NA,NA,NA,NA,NA,NA,NA,NA,NA,NA,sub104
d3-instructions,134,650718,0.0-75.0,TRUE,FALSE,TRUE,TRUE,"""event"",""trial"",""time""
""fullscreenenter"",""5"",""17264""
","
","
","""event"",""trial"",""time""
""fullscreenenter"",""5"",""17264""
","
",NA,NA,NA,NA,NA,NA,NA,NA,NA,NA,NA,NA,NA,NA,NA,NA,NA,NA,NA,NA,NA,NA,sub104
d3-animate-choice,135,653585,0.0-76.0-0.0,TRUE,FALSE,TRUE,TRUE,"""event"",""trial"",""time""
""fullscreenenter"",""5"",""17264""
","
","
","""event"",""trial"",""time""
""fullscreenenter"",""5"",""17264""
","
",862.1849999999395,NA,49,NA,NA,3000,1,NA,NA,images/earth.jpg,images/rocket2,images/rocket1,null,images/rocket1,NA,1,real,null,1,NA,NA,NA,sub104
d3-animate-choice,136,656073,0.0-76.0-1.0,TRUE,FALSE,TRUE,TRUE,"""event"",""trial"",""time""
""fullscreenenter"",""5"",""17264""
","
","
","""event"",""trial"",""time""
""fullscreenenter"",""5"",""17264""
","
",482.57500000006985,NA,49,NA,NA,3000,1,NA,NA,images/purpleplanet.jpg,images/alien4,images/alien3,images/rocket1,images/alien3,images/t.png,2,real,true,1,common,1,2020-06-20T17:26:18Z,sub104
two-step-fixation,137,657078,0.0-76.0-2.0,TRUE,FALSE,TRUE,TRUE,"""event"",""trial"",""time""
""fullscreenenter"",""5"",""17264""
","
","
","""event"",""trial"",""time""
""fullscreenenter"",""5"",""17264""
","
",NA,images/earth.jpg,NA,NA,NA,NA,NA,NA,NA,NA,NA,NA,NA,NA,NA,fixation,NA,NA,NA,NA,NA,NA,sub104
d3-animate-choice,138,659400,0.0-76.0-0.1,TRUE,FALSE,TRUE,TRUE,"""event"",""trial"",""time""
""fullscreenenter"",""5"",""17264""
","
","
","""event"",""trial"",""time""
""fullscreenenter"",""5"",""17264""
","
",318.55999999993946,NA,49,NA,NA,3000,1,NA,NA,images/earth.jpg,images/rocket2,images/rocket1,null,images/rocket1,NA,1,real,null,1,NA,NA,NA,sub104
d3-animate-choice,139,661800,0.0-76.0-1.1,TRUE,FALSE,TRUE,TRUE,"""event"",""trial"",""time""
""fullscreenenter"",""5"",""17264""
","
","
","""event"",""trial"",""time""
""fullscreenenter"",""5"",""17264""
","
",395.16500000003725,NA,49,NA,NA,3000,1,NA,NA,images/purpleplanet.jpg,images/alien4,images/alien3,images/rocket1,images/alien3,images/nothing.png,2,real,true,1,common,0,2020-06-20T17:26:23Z,sub104
two-step-fixation,140,662806,0.0-76.0-2.1,TRUE,FALSE,TRUE,TRUE,"""event"",""trial"",""time""
""fullscreenenter"",""5"",""17264""
","
","
","""event"",""trial"",""time""
""fullscreenenter"",""5"",""17264""
","
",NA,images/earth.jpg,NA,NA,NA,NA,NA,NA,NA,NA,NA,NA,NA,NA,NA,fixation,NA,NA,NA,NA,NA,NA,sub104
d3-animate-choice,141,665209,0.0-76.0-0.2,TRUE,FALSE,TRUE,TRUE,"""event"",""trial"",""time""
""fullscreenenter"",""5"",""17264""
","
","
","""event"",""trial"",""time""
""fullscreenenter"",""5"",""17264""
","
",397.79999999993015,NA,49,NA,NA,3000,1,NA,NA,images/earth.jpg,images/rocket2,images/rocket1,null,images/rocket1,NA,1,real,null,1,NA,NA,NA,sub104
d3-animate-choice,142,667794,0.0-76.0-1.2,TRUE,FALSE,TRUE,TRUE,"""event"",""trial"",""time""
""fullscreenenter"",""5"",""17264""
","
","
","""event"",""trial"",""time""
""fullscreenenter"",""5"",""17264""
","
",579.0500000000466,NA,49,NA,NA,3000,1,NA,NA,images/purpleplanet.jpg,images/alien4,images/alien3,images/rocket1,images/alien3,images/nothing.png,2,real,true,1,common,0,2020-06-20T17:26:29Z,sub104
two-step-fixation,143,668798,0.0-76.0-2.2,TRUE,FALSE,TRUE,TRUE,"""event"",""trial"",""time""
""fullscreenenter"",""5"",""17264""
","
","
","""event"",""trial"",""time""
""fullscreenenter"",""5"",""17264""
","
",NA,images/earth.jpg,NA,NA,NA,NA,NA,NA,NA,NA,NA,NA,NA,NA,NA,fixation,NA,NA,NA,NA,NA,NA,sub104
d3-animate-choice,144,671345,0.0-76.0-0.3,TRUE,FALSE,TRUE,TRUE,"""event"",""trial"",""time""
""fullscreenenter"",""5"",""17264""
","
","
","""event"",""trial"",""time""
""fullscreenenter"",""5"",""17264""
","
",541.1899999999441,NA,49,NA,NA,3000,1,NA,NA,images/earth.jpg,images/rocket2,images/rocket1,null,images/rocket1,NA,1,real,null,1,NA,NA,NA,sub104
d3-animate-choice,145,673795,0.0-76.0-1.3,TRUE,FALSE,TRUE,TRUE,"""event"",""trial"",""time""
""fullscreenenter"",""5"",""17264""
","
","
","""event"",""trial"",""time""
""fullscreenenter"",""5"",""17264""
","
",444.1699999999255,NA,48,NA,NA,3000,1,NA,NA,images/purpleplanet.jpg,images/alien4,images/alien3,images/rocket1,images/alien4,images/t.png,2,real,true,2,common,1,2020-06-20T17:26:35Z,sub104
two-step-fixation,146,674799,0.0-76.0-2.3,TRUE,FALSE,TRUE,TRUE,"""event"",""trial"",""time""
""fullscreenenter"",""5"",""17264""
","
","
","""event"",""trial"",""time""
""fullscreenenter"",""5"",""17264""
","
",NA,images/earth.jpg,NA,NA,NA,NA,NA,NA,NA,NA,NA,NA,NA,NA,NA,fixation,NA,NA,NA,NA,NA,NA,sub104
d3-animate-choice,147,677225,0.0-76.0-0.4,TRUE,FALSE,TRUE,TRUE,"""event"",""trial"",""time""
""fullscreenenter"",""5"",""17264""
","
","
","""event"",""trial"",""time""
""fullscreenenter"",""5"",""17264""
","
",421.3549999999814,NA,49,NA,NA,3000,1,NA,NA,images/earth.jpg,images/rocket2,images/rocket1,null,images/rocket1,NA,1,real,null,1,NA,NA,NA,sub104
d3-animate-choice,148,679874,0.0-76.0-1.4,TRUE,FALSE,TRUE,TRUE,"""event"",""trial"",""time""
""fullscreenenter"",""5"",""17264""
","
","
","""event"",""trial"",""time""
""fullscreenenter"",""5"",""17264""
","
",643.4349999999395,NA,49,NA,NA,3000,1,NA,NA,images/redplanet1.jpg,images/alien2,images/alien1,images/rocket1,images/alien1,images/nothing.png,2,real,false,1,rare,0,2020-06-20T17:26:41Z,sub104
two-step-fixation,149,680879,0.0-76.0-2.4,TRUE,FALSE,TRUE,TRUE,"""event"",""trial"",""time""
""fullscreenenter"",""5"",""17264""
","
","
","""event"",""trial"",""time""
""fullscreenenter"",""5"",""17264""
","
",NA,images/earth.jpg,NA,NA,NA,NA,NA,NA,NA,NA,NA,NA,NA,NA,NA,fixation,NA,NA,NA,NA,NA,NA,sub104
d3-animate-choice,150,683243,0.0-76.0-0.5,TRUE,FALSE,TRUE,TRUE,"""event"",""trial"",""time""
""fullscreenenter"",""5"",""17264""
","
","
","""event"",""trial"",""time""
""fullscreenenter"",""5"",""17264""
","
",357.7599999998929,NA,49,NA,NA,3000,1,NA,NA,images/earth.jpg,images/rocket2,images/rocket1,null,images/rocket1,NA,1,real,null,1,NA,NA,NA,sub104
d3-animate-choice,151,685766,0.0-76.0-1.5,TRUE,FALSE,TRUE,TRUE,"""event"",""trial"",""time""
""fullscreenenter"",""5"",""17264""
","
","
","""event"",""trial"",""time""
""fullscreenenter"",""5"",""17264""
","
",514.2399999999907,NA,48,NA,NA,3000,1,NA,NA,images/redplanet1.jpg,images/alien2,images/alien1,images/rocket1,images/alien2,images/t.png,2,real,false,2,rare,1,2020-06-20T17:26:47Z,sub104
two-step-fixation,152,686773,0.0-76.0-2.5,TRUE,FALSE,TRUE,TRUE,"""event"",""trial"",""time""
""fullscreenenter"",""5"",""17264""
","
","
","""event"",""trial"",""time""
""fullscreenenter"",""5"",""17264""
","
",NA,images/earth.jpg,NA,NA,NA,NA,NA,NA,NA,NA,NA,NA,NA,NA,NA,fixation,NA,NA,NA,NA,NA,NA,sub104
d3-animate-choice,153,689179,0.0-76.0-0.6,TRUE,FALSE,TRUE,TRUE,"""event"",""trial"",""time""
""fullscreenenter"",""5"",""17264""
","
","
","""event"",""trial"",""time""
""fullscreenenter"",""5"",""17264""
","
",398.1300000001211,NA,49,NA,NA,3000,1,NA,NA,images/earth.jpg,images/rocket2,images/rocket1,null,images/rocket1,NA,1,real,null,1,NA,NA,NA,sub104
d3-animate-choice,154,691706,0.0-76.0-1.6,TRUE,FALSE,TRUE,TRUE,"""event"",""trial"",""time""
""fullscreenenter"",""5"",""17264""
","
","
","""event"",""trial"",""time""
""fullscreenenter"",""5"",""17264""
","
",520.6599999999162,NA,48,NA,NA,3000,1,NA,NA,images/purpleplanet.jpg,images/alien4,images/alien3,images/rocket1,images/alien4,images/t.png,2,real,true,2,common,1,2020-06-20T17:26:53Z,sub104
two-step-fixation,155,692713,0.0-76.0-2.6,TRUE,FALSE,TRUE,TRUE,"""event"",""trial"",""time""
""fullscreenenter"",""5"",""17264""
","
","
","""event"",""trial"",""time""
""fullscreenenter"",""5"",""17264""
","
",NA,images/earth.jpg,NA,NA,NA,NA,NA,NA,NA,NA,NA,NA,NA,NA,NA,fixation,NA,NA,NA,NA,NA,NA,sub104
d3-animate-choice,156,695122,0.0-76.0-0.7,TRUE,FALSE,TRUE,TRUE,"""event"",""trial"",""time""
""fullscreenenter"",""5"",""17264""
","
","
","""event"",""trial"",""time""
""fullscreenenter"",""5"",""17264""
","
",403.7849999999162,NA,49,NA,NA,3000,1,NA,NA,images/earth.jpg,images/rocket2,images/rocket1,null,images/rocket1,NA,1,real,null,1,NA,NA,NA,sub104
d3-animate-choice,157,697725,0.0-76.0-1.7,TRUE,FALSE,TRUE,TRUE,"""event"",""trial"",""time""
""fullscreenenter"",""5"",""17264""
","
","
","""event"",""trial"",""time""
""fullscreenenter"",""5"",""17264""
","
",594.1349999997765,NA,48,NA,NA,3000,1,NA,NA,images/purpleplanet.jpg,images/alien4,images/alien3,images/rocket1,images/alien4,images/t.png,2,real,true,2,common,1,2020-06-20T17:26:59Z,sub104
two-step-fixation,158,698730,0.0-76.0-2.7,TRUE,FALSE,TRUE,TRUE,"""event"",""trial"",""time""
""fullscreenenter"",""5"",""17264""
","
","
","""event"",""trial"",""time""
""fullscreenenter"",""5"",""17264""
","
",NA,images/earth.jpg,NA,NA,NA,NA,NA,NA,NA,NA,NA,NA,NA,NA,NA,fixation,NA,NA,NA,NA,NA,NA,sub104
d3-animate-choice,159,701059,0.0-76.0-0.8,TRUE,FALSE,TRUE,TRUE,"""event"",""trial"",""time""
""fullscreenenter"",""5"",""17264""
","
","
","""event"",""trial"",""time""
""fullscreenenter"",""5"",""17264""
","
",321.3850000000093,NA,49,NA,NA,3000,1,NA,NA,images/earth.jpg,images/rocket2,images/rocket1,null,images/rocket1,NA,1,real,null,1,NA,NA,NA,sub104
d3-animate-choice,160,703505,0.0-76.0-1.8,TRUE,FALSE,TRUE,TRUE,"""event"",""trial"",""time""
""fullscreenenter"",""5"",""17264""
","
","
","""event"",""trial"",""time""
""fullscreenenter"",""5"",""17264""
","
",440,NA,48,NA,NA,3000,1,NA,NA,images/purpleplanet.jpg,images/alien4,images/alien3,images/rocket1,images/alien4,images/t.png,2,real,true,2,common,1,2020-06-20T17:27:05Z,sub104
two-step-fixation,161,704510,0.0-76.0-2.8,TRUE,FALSE,TRUE,TRUE,"""event"",""trial"",""time""
""fullscreenenter"",""5"",""17264""
","
","
","""event"",""trial"",""time""
""fullscreenenter"",""5"",""17264""
","
",NA,images/earth.jpg,NA,NA,NA,NA,NA,NA,NA,NA,NA,NA,NA,NA,NA,fixation,NA,NA,NA,NA,NA,NA,sub104
d3-animate-choice,162,706842,0.0-76.0-0.9,TRUE,FALSE,TRUE,TRUE,"""event"",""trial"",""time""
""fullscreenenter"",""5"",""17264""
","
","
","""event"",""trial"",""time""
""fullscreenenter"",""5"",""17264""
","
",324.18499999993946,NA,49,NA,NA,3000,1,NA,NA,images/earth.jpg,images/rocket2,images/rocket1,null,images/rocket1,NA,1,real,null,1,NA,NA,NA,sub104
d3-animate-choice,163,709259,0.0-76.0-1.9,TRUE,FALSE,TRUE,TRUE,"""event"",""trial"",""time""
""fullscreenenter"",""5"",""17264""
","
","
","""event"",""trial"",""time""
""fullscreenenter"",""5"",""17264""
","
",410.98499999998603,NA,48,NA,NA,3000,1,NA,NA,images/purpleplanet.jpg,images/alien4,images/alien3,images/rocket1,images/alien4,images/t.png,2,real,true,2,common,1,2020-06-20T17:27:11Z,sub104
two-step-fixation,164,710265,0.0-76.0-2.9,TRUE,FALSE,TRUE,TRUE,"""event"",""trial"",""time""
""fullscreenenter"",""5"",""17264""
","
","
","""event"",""trial"",""time""
""fullscreenenter"",""5"",""17264""
","
",NA,images/earth.jpg,NA,NA,NA,NA,NA,NA,NA,NA,NA,NA,NA,NA,NA,fixation,NA,NA,NA,NA,NA,NA,sub104
d3-animate-choice,165,712654,0.0-76.0-0.10,TRUE,FALSE,TRUE,TRUE,"""event"",""trial"",""time""
""fullscreenenter"",""5"",""17264""
","
","
","""event"",""trial"",""time""
""fullscreenenter"",""5"",""17264""
","
",379.4899999999907,NA,49,NA,NA,3000,1,NA,NA,images/earth.jpg,images/rocket2,images/rocket1,null,images/rocket1,NA,1,real,null,1,NA,NA,NA,sub104
d3-animate-choice,166,715129,0.0-76.0-1.10,TRUE,FALSE,TRUE,TRUE,"""event"",""trial"",""time""
""fullscreenenter"",""5"",""17264""
","
","
","""event"",""trial"",""time""
""fullscreenenter"",""5"",""17264""
","
",468.0699999999488,NA,48,NA,NA,3000,1,NA,NA,images/purpleplanet.jpg,images/alien4,images/alien3,images/rocket1,images/alien4,images/nothing.png,2,real,true,2,common,0,2020-06-20T17:27:17Z,sub104
two-step-fixation,167,716135,0.0-76.0-2.10,TRUE,FALSE,TRUE,TRUE,"""event"",""trial"",""time""
""fullscreenenter"",""5"",""17264""
","
","
","""event"",""trial"",""time""
""fullscreenenter"",""5"",""17264""
","
",NA,images/earth.jpg,NA,NA,NA,NA,NA,NA,NA,NA,NA,NA,NA,NA,NA,fixation,NA,NA,NA,NA,NA,NA,sub104
d3-animate-choice,168,718756,0.0-76.0-0.11,TRUE,FALSE,TRUE,TRUE,"""event"",""trial"",""time""
""fullscreenenter"",""5"",""17264""
","
","
","""event"",""trial"",""time""
""fullscreenenter"",""5"",""17264""
","
",612.984999999986,NA,49,NA,NA,3000,1,NA,NA,images/earth.jpg,images/rocket2,images/rocket1,null,images/rocket1,NA,1,real,null,1,NA,NA,NA,sub104
d3-animate-choice,169,721275,0.0-76.0-1.11,TRUE,FALSE,TRUE,TRUE,"""event"",""trial"",""time""
""fullscreenenter"",""5"",""17264""
","
","
","""event"",""trial"",""time""
""fullscreenenter"",""5"",""17264""
","
",512.6350000000093,NA,48,NA,NA,3000,1,NA,NA,images/purpleplanet.jpg,images/alien4,images/alien3,images/rocket1,images/alien4,images/t.png,2,real,true,2,common,1,2020-06-20T17:27:23Z,sub104
two-step-fixation,170,722282,0.0-76.0-2.11,TRUE,FALSE,TRUE,TRUE,"""event"",""trial"",""time""
""fullscreenenter"",""5"",""17264""
","
","
","""event"",""trial"",""time""
""fullscreenenter"",""5"",""17264""
","
",NA,images/earth.jpg,NA,NA,NA,NA,NA,NA,NA,NA,NA,NA,NA,NA,NA,fixation,NA,NA,NA,NA,NA,NA,sub104
d3-animate-choice,171,724600,0.0-76.0-0.12,TRUE,FALSE,TRUE,TRUE,"""event"",""trial"",""time""
""fullscreenenter"",""5"",""17264""
","
","
","""event"",""trial"",""time""
""fullscreenenter"",""5"",""17264""
","
",312.0449999999255,NA,49,NA,NA,3000,1,NA,NA,images/earth.jpg,images/rocket2,images/rocket1,null,images/rocket1,NA,1,real,null,1,NA,NA,NA,sub104
d3-animate-choice,172,727593,0.0-76.0-1.12,TRUE,FALSE,TRUE,TRUE,"""event"",""trial"",""time""
""fullscreenenter"",""5"",""17264""
","
","
","""event"",""trial"",""time""
""fullscreenenter"",""5"",""17264""
","
",986.3699999997625,NA,48,NA,NA,3000,1,NA,NA,images/redplanet1.jpg,images/alien2,images/alien1,images/rocket1,images/alien2,images/t.png,2,real,false,2,rare,1,2020-06-20T17:27:29Z,sub104
two-step-fixation,173,728597,0.0-76.0-2.12,TRUE,FALSE,TRUE,TRUE,"""event"",""trial"",""time""
""fullscreenenter"",""5"",""17264""
","
","
","""event"",""trial"",""time""
""fullscreenenter"",""5"",""17264""
","
",NA,images/earth.jpg,NA,NA,NA,NA,NA,NA,NA,NA,NA,NA,NA,NA,NA,fixation,NA,NA,NA,NA,NA,NA,sub104
d3-animate-choice,174,730930,0.0-76.0-0.13,TRUE,FALSE,TRUE,TRUE,"""event"",""trial"",""time""
""fullscreenenter"",""5"",""17264""
","
","
","""event"",""trial"",""time""
""fullscreenenter"",""5"",""17264""
","
",327.17499999981374,NA,49,NA,NA,3000,1,NA,NA,images/earth.jpg,images/rocket2,images/rocket1,null,images/rocket1,NA,1,real,null,1,NA,NA,NA,sub104
d3-animate-choice,175,733404,0.0-76.0-1.13,TRUE,FALSE,TRUE,TRUE,"""event"",""trial"",""time""
""fullscreenenter"",""5"",""17264""
","
","
","""event"",""trial"",""time""
""fullscreenenter"",""5"",""17264""
","
",466.4000000000233,NA,48,NA,NA,3000,1,NA,NA,images/purpleplanet.jpg,images/alien4,images/alien3,images/rocket1,images/alien4,images/nothing.png,2,real,true,2,common,0,2020-06-20T17:27:35Z,sub104
two-step-fixation,176,734409,0.0-76.0-2.13,TRUE,FALSE,TRUE,TRUE,"""event"",""trial"",""time""
""fullscreenenter"",""5"",""17264""
","
","
","""event"",""trial"",""time""
""fullscreenenter"",""5"",""17264""
","
",NA,images/earth.jpg,NA,NA,NA,NA,NA,NA,NA,NA,NA,NA,NA,NA,NA,fixation,NA,NA,NA,NA,NA,NA,sub104
d3-animate-choice,177,736849,0.0-76.0-0.14,TRUE,FALSE,TRUE,TRUE,"""event"",""trial"",""time""
""fullscreenenter"",""5"",""17264""
","
","
","""event"",""trial"",""time""
""fullscreenenter"",""5"",""17264""
","
",433.45999999996275,NA,49,NA,NA,3000,1,NA,NA,images/earth.jpg,images/rocket2,images/rocket1,null,images/rocket1,NA,1,real,null,1,NA,NA,NA,sub104
d3-animate-choice,178,739618,0.0-76.0-1.14,TRUE,FALSE,TRUE,TRUE,"""event"",""trial"",""time""
""fullscreenenter"",""5"",""17264""
","
","
","""event"",""trial"",""time""
""fullscreenenter"",""5"",""17264""
","
",762.7999999999302,NA,48,NA,NA,3000,1,NA,NA,images/redplanet1.jpg,images/alien2,images/alien1,images/rocket1,images/alien2,images/t.png,2,real,false,2,rare,1,2020-06-20T17:27:41Z,sub104
two-step-fixation,179,740623,0.0-76.0-2.14,TRUE,FALSE,TRUE,TRUE,"""event"",""trial"",""time""
""fullscreenenter"",""5"",""17264""
","
","
","""event"",""trial"",""time""
""fullscreenenter"",""5"",""17264""
","
",NA,images/earth.jpg,NA,NA,NA,NA,NA,NA,NA,NA,NA,NA,NA,NA,NA,fixation,NA,NA,NA,NA,NA,NA,sub104
d3-animate-choice,180,743147,0.0-76.0-0.15,TRUE,FALSE,TRUE,TRUE,"""event"",""trial"",""time""
""fullscreenenter"",""5"",""17264""
","
","
","""event"",""trial"",""time""
""fullscreenenter"",""5"",""17264""
","
",516.8499999999767,NA,49,NA,NA,3000,1,NA,NA,images/earth.jpg,images/rocket2,images/rocket1,null,images/rocket1,NA,1,real,null,1,NA,NA,NA,sub104
d3-animate-choice,181,745778,0.0-76.0-1.15,TRUE,FALSE,TRUE,TRUE,"""event"",""trial"",""time""
""fullscreenenter"",""5"",""17264""
","
","
","""event"",""trial"",""time""
""fullscreenenter"",""5"",""17264""
","
",624.9850000001024,NA,48,NA,NA,3000,1,NA,NA,images/purpleplanet.jpg,images/alien4,images/alien3,images/rocket1,images/alien4,images/t.png,2,real,true,2,common,1,2020-06-20T17:27:47Z,sub104
two-step-fixation,182,746785,0.0-76.0-2.15,TRUE,FALSE,TRUE,TRUE,"""event"",""trial"",""time""
""fullscreenenter"",""5"",""17264""
","
","
","""event"",""trial"",""time""
""fullscreenenter"",""5"",""17264""
","
",NA,images/earth.jpg,NA,NA,NA,NA,NA,NA,NA,NA,NA,NA,NA,NA,NA,fixation,NA,NA,NA,NA,NA,NA,sub104
d3-animate-choice,183,749115,0.0-76.0-0.16,TRUE,FALSE,TRUE,TRUE,"""event"",""trial"",""time""
""fullscreenenter"",""5"",""17264""
","
","
","""event"",""trial"",""time""
""fullscreenenter"",""5"",""17264""
","
",322.58499999996275,NA,49,NA,NA,3000,1,NA,NA,images/earth.jpg,images/rocket2,images/rocket1,null,images/rocket1,NA,1,real,null,1,NA,NA,NA,sub104
d3-animate-choice,184,751469,0.0-76.0-1.16,TRUE,FALSE,TRUE,TRUE,"""event"",""trial"",""time""
""fullscreenenter"",""5"",""17264""
","
","
","""event"",""trial"",""time""
""fullscreenenter"",""5"",""17264""
","
",343.7349999998696,NA,48,NA,NA,3000,1,NA,NA,images/purpleplanet.jpg,images/alien4,images/alien3,images/rocket1,images/alien4,images/nothing.png,2,real,true,2,common,0,2020-06-20T17:27:53Z,sub104
two-step-fixation,185,752476,0.0-76.0-2.16,TRUE,FALSE,TRUE,TRUE,"""event"",""trial"",""time""
""fullscreenenter"",""5"",""17264""
","
","
","""event"",""trial"",""time""
""fullscreenenter"",""5"",""17264""
","
",NA,images/earth.jpg,NA,NA,NA,NA,NA,NA,NA,NA,NA,NA,NA,NA,NA,fixation,NA,NA,NA,NA,NA,NA,sub104
d3-animate-choice,186,754786,0.0-76.0-0.17,TRUE,FALSE,TRUE,TRUE,"""event"",""trial"",""time""
""fullscreenenter"",""5"",""17264""
","
","
","""event"",""trial"",""time""
""fullscreenenter"",""5"",""17264""
","
",303.8100000000559,NA,48,NA,NA,3000,1,NA,NA,images/earth.jpg,images/rocket2,images/rocket1,null,images/rocket2,NA,1,real,null,2,NA,NA,NA,sub104
d3-animate-choice,187,757403,0.0-76.0-1.17,TRUE,FALSE,TRUE,TRUE,"""event"",""trial"",""time""
""fullscreenenter"",""5"",""17264""
","
","
","""event"",""trial"",""time""
""fullscreenenter"",""5"",""17264""
","
",610.0949999999721,NA,48,NA,NA,3000,1,NA,NA,images/purpleplanet.jpg,images/alien4,images/alien3,images/rocket2,images/alien4,images/t.png,2,real,false,2,rare,1,2020-06-20T17:27:59Z,sub104
two-step-fixation,188,758410,0.0-76.0-2.17,TRUE,FALSE,TRUE,TRUE,"""event"",""trial"",""time""
""fullscreenenter"",""5"",""17264""
","
","
","""event"",""trial"",""time""
""fullscreenenter"",""5"",""17264""
","
",NA,images/earth.jpg,NA,NA,NA,NA,NA,NA,NA,NA,NA,NA,NA,NA,NA,fixation,NA,NA,NA,NA,NA,NA,sub104
d3-animate-choice,189,760746,0.0-76.0-0.18,TRUE,FALSE,TRUE,TRUE,"""event"",""trial"",""time""
""fullscreenenter"",""5"",""17264""
","
","
","""event"",""trial"",""time""
""fullscreenenter"",""5"",""17264""
","
",327.9399999999441,NA,48,NA,NA,3000,1,NA,NA,images/earth.jpg,images/rocket2,images/rocket1,null,images/rocket2,NA,1,real,null,2,NA,NA,NA,sub104
d3-animate-choice,190,763318,0.0-76.0-1.18,TRUE,FALSE,TRUE,TRUE,"""event"",""trial"",""time""
""fullscreenenter"",""5"",""17264""
","
","
","""event"",""trial"",""time""
""fullscreenenter"",""5"",""17264""
","
",566.7800000000279,NA,48,NA,NA,3000,1,NA,NA,images/redplanet1.jpg,images/alien2,images/alien1,images/rocket2,images/alien2,images/t.png,2,real,true,2,common,1,2020-06-20T17:28:05Z,sub104
two-step-fixation,191,764322,0.0-76.0-2.18,TRUE,FALSE,TRUE,TRUE,"""event"",""trial"",""time""
""fullscreenenter"",""5"",""17264""
","
","
","""event"",""trial"",""time""
""fullscreenenter"",""5"",""17264""
","
",NA,images/earth.jpg,NA,NA,NA,NA,NA,NA,NA,NA,NA,NA,NA,NA,NA,fixation,NA,NA,NA,NA,NA,NA,sub104
d3-animate-choice,192,766686,0.0-76.0-0.19,TRUE,FALSE,TRUE,TRUE,"""event"",""trial"",""time""
""fullscreenenter"",""5"",""17264""
","
","
","""event"",""trial"",""time""
""fullscreenenter"",""5"",""17264""
","
",356.5649999998277,NA,48,NA,NA,3000,1,NA,NA,images/earth.jpg,images/rocket2,images/rocket1,null,images/rocket2,NA,1,real,null,2,NA,NA,NA,sub104
d3-animate-choice,193,769177,0.0-76.0-1.19,TRUE,FALSE,TRUE,TRUE,"""event"",""trial"",""time""
""fullscreenenter"",""5"",""17264""
","
","
","""event"",""trial"",""time""
""fullscreenenter"",""5"",""17264""
","
",483.5699999999488,NA,48,NA,NA,3000,1,NA,NA,images/purpleplanet.jpg,images/alien4,images/alien3,images/rocket2,images/alien4,images/t.png,2,real,false,2,rare,1,2020-06-20T17:28:11Z,sub104
two-step-fixation,194,770183,0.0-76.0-2.19,TRUE,FALSE,TRUE,TRUE,"""event"",""trial"",""time""
""fullscreenenter"",""5"",""17264""
","
","
","""event"",""trial"",""time""
""fullscreenenter"",""5"",""17264""
","
",NA,images/earth.jpg,NA,NA,NA,NA,NA,NA,NA,NA,NA,NA,NA,NA,NA,fixation,NA,NA,NA,NA,NA,NA,sub104
d3-animate-choice,195,772783,0.0-76.0-0.20,TRUE,FALSE,TRUE,TRUE,"""event"",""trial"",""time""
""fullscreenenter"",""5"",""17264""
","
","
","""event"",""trial"",""time""
""fullscreenenter"",""5"",""17264""
","
",595.0800000000745,NA,48,NA,NA,3000,1,NA,NA,images/earth.jpg,images/rocket2,images/rocket1,null,images/rocket2,NA,1,real,null,2,NA,NA,NA,sub104
d3-animate-choice,196,775151,0.0-76.0-1.20,TRUE,FALSE,TRUE,TRUE,"""event"",""trial"",""time""
""fullscreenenter"",""5"",""17264""
","
","
","""event"",""trial"",""time""
""fullscreenenter"",""5"",""17264""
","
",361.96999999985565,NA,48,NA,NA,3000,1,NA,NA,images/redplanet1.jpg,images/alien2,images/alien1,images/rocket2,images/alien2,images/nothing.png,2,real,true,2,common,0,2020-06-20T17:28:17Z,sub104
two-step-fixation,197,776156,0.0-76.0-2.20,TRUE,FALSE,TRUE,TRUE,"""event"",""trial"",""time""
""fullscreenenter"",""5"",""17264""
","
","
","""event"",""trial"",""time""
""fullscreenenter"",""5"",""17264""
","
",NA,images/earth.jpg,NA,NA,NA,NA,NA,NA,NA,NA,NA,NA,NA,NA,NA,fixation,NA,NA,NA,NA,NA,NA,sub104
d3-animate-choice,198,778455,0.0-76.0-0.21,TRUE,FALSE,TRUE,TRUE,"""event"",""trial"",""time""
""fullscreenenter"",""5"",""17264""
","
","
","""event"",""trial"",""time""
""fullscreenenter"",""5"",""17264""
","
",292.02000000013504,NA,49,NA,NA,3000,1,NA,NA,images/earth.jpg,images/rocket2,images/rocket1,null,images/rocket1,NA,1,real,null,1,NA,NA,NA,sub104
d3-animate-choice,199,780823,0.0-76.0-1.21,TRUE,FALSE,TRUE,TRUE,"""event"",""trial"",""time""
""fullscreenenter"",""5"",""17264""
","
","
","""event"",""trial"",""time""
""fullscreenenter"",""5"",""17264""
","
",362.1949999999488,NA,48,NA,NA,3000,1,NA,NA,images/purpleplanet.jpg,images/alien4,images/alien3,images/rocket1,images/alien4,images/t.png,2,real,true,2,common,1,2020-06-20T17:28:22Z,sub104
two-step-fixation,200,781827,0.0-76.0-2.21,TRUE,FALSE,TRUE,TRUE,"""event"",""trial"",""time""
""fullscreenenter"",""5"",""17264""
","
","
","""event"",""trial"",""time""
""fullscreenenter"",""5"",""17264""
","
",NA,images/earth.jpg,NA,NA,NA,NA,NA,NA,NA,NA,NA,NA,NA,NA,NA,fixation,NA,NA,NA,NA,NA,NA,sub104
d3-animate-choice,201,784183,0.0-76.0-0.22,TRUE,FALSE,TRUE,TRUE,"""event"",""trial"",""time""
""fullscreenenter"",""5"",""17264""
","
","
","""event"",""trial"",""time""
""fullscreenenter"",""5"",""17264""
","
",349.089999999851,NA,49,NA,NA,3000,1,NA,NA,images/earth.jpg,images/rocket2,images/rocket1,null,images/rocket1,NA,1,real,null,1,NA,NA,NA,sub104
d3-animate-choice,202,786589,0.0-76.0-1.22,TRUE,FALSE,TRUE,TRUE,"""event"",""trial"",""time""
""fullscreenenter"",""5"",""17264""
","
","
","""event"",""trial"",""time""
""fullscreenenter"",""5"",""17264""
","
",400.6099999998696,NA,48,NA,NA,3000,1,NA,NA,images/purpleplanet.jpg,images/alien4,images/alien3,images/rocket1,images/alien4,images/t.png,2,real,true,2,common,1,2020-06-20T17:28:28Z,sub104
two-step-fixation,203,787595,0.0-76.0-2.22,TRUE,FALSE,TRUE,TRUE,"""event"",""trial"",""time""
""fullscreenenter"",""5"",""17264""
","
","
","""event"",""trial"",""time""
""fullscreenenter"",""5"",""17264""
","
",NA,images/earth.jpg,NA,NA,NA,NA,NA,NA,NA,NA,NA,NA,NA,NA,NA,fixation,NA,NA,NA,NA,NA,NA,sub104
d3-animate-choice,204,789902,0.0-76.0-0.23,TRUE,FALSE,TRUE,TRUE,"""event"",""trial"",""time""
""fullscreenenter"",""5"",""17264""
","
","
","""event"",""trial"",""time""
""fullscreenenter"",""5"",""17264""
","
",300.78000000002794,NA,49,NA,NA,3000,1,NA,NA,images/earth.jpg,images/rocket2,images/rocket1,null,images/rocket1,NA,1,real,null,1,NA,NA,NA,sub104
d3-animate-choice,205,792438,0.0-76.0-1.23,TRUE,FALSE,TRUE,TRUE,"""event"",""trial"",""time""
""fullscreenenter"",""5"",""17264""
","
","
","""event"",""trial"",""time""
""fullscreenenter"",""5"",""17264""
","
",530.7150000002002,NA,48,NA,NA,3000,1,NA,NA,images/redplanet1.jpg,images/alien2,images/alien1,images/rocket1,images/alien2,images/t.png,2,real,false,2,rare,1,2020-06-20T17:28:34Z,sub104
two-step-fixation,206,793446,0.0-76.0-2.23,TRUE,FALSE,TRUE,TRUE,"""event"",""trial"",""time""
""fullscreenenter"",""5"",""17264""
","
","
","""event"",""trial"",""time""
""fullscreenenter"",""5"",""17264""
","
",NA,images/earth.jpg,NA,NA,NA,NA,NA,NA,NA,NA,NA,NA,NA,NA,NA,fixation,NA,NA,NA,NA,NA,NA,sub104
d3-animate-choice,207,795855,0.0-76.0-0.24,TRUE,FALSE,TRUE,TRUE,"""event"",""trial"",""time""
""fullscreenenter"",""5"",""17264""
","
","
","""event"",""trial"",""time""
""fullscreenenter"",""5"",""17264""
","
",402.175000000163,NA,49,NA,NA,3000,1,NA,NA,images/earth.jpg,images/rocket2,images/rocket1,null,images/rocket1,NA,1,real,null,1,NA,NA,NA,sub104
d3-animate-choice,208,798230,0.0-76.0-1.24,TRUE,FALSE,TRUE,TRUE,"""event"",""trial"",""time""
""fullscreenenter"",""5"",""17264""
","
","
","""event"",""trial"",""time""
""fullscreenenter"",""5"",""17264""
","
",367.6449999997858,NA,48,NA,NA,3000,1,NA,NA,images/redplanet1.jpg,images/alien2,images/alien1,images/rocket1,images/alien2,images/t.png,2,real,false,2,rare,1,2020-06-20T17:28:40Z,sub104
two-step-fixation,209,799235,0.0-76.0-2.24,TRUE,FALSE,TRUE,TRUE,"""event"",""trial"",""time""
""fullscreenenter"",""5"",""17264""
","
","
","""event"",""trial"",""time""
""fullscreenenter"",""5"",""17264""
","
",NA,images/earth.jpg,NA,NA,NA,NA,NA,NA,NA,NA,NA,NA,NA,NA,NA,fixation,NA,NA,NA,NA,NA,NA,sub104
d3-animate-choice,210,801605,0.0-76.0-0.25,TRUE,FALSE,TRUE,TRUE,"""event"",""trial"",""time""
""fullscreenenter"",""5"",""17264""
","
","
","""event"",""trial"",""time""
""fullscreenenter"",""5"",""17264""
","
",363.73500000010245,NA,49,NA,NA,3000,1,NA,NA,images/earth.jpg,images/rocket2,images/rocket1,null,images/rocket1,NA,1,real,null,1,NA,NA,NA,sub104
d3-animate-choice,211,804047,0.0-76.0-1.25,TRUE,FALSE,TRUE,TRUE,"""event"",""trial"",""time""
""fullscreenenter"",""5"",""17264""
","
","
","""event"",""trial"",""time""
""fullscreenenter"",""5"",""17264""
","
",435.2850000000326,NA,48,NA,NA,3000,1,NA,NA,images/redplanet1.jpg,images/alien2,images/alien1,images/rocket1,images/alien2,images/t.png,2,real,false,2,rare,1,2020-06-20T17:28:45Z,sub104
two-step-fixation,212,805055,0.0-76.0-2.25,TRUE,FALSE,TRUE,TRUE,"""event"",""trial"",""time""
""fullscreenenter"",""5"",""17264""
","
","
","""event"",""trial"",""time""
""fullscreenenter"",""5"",""17264""
","
",NA,images/earth.jpg,NA,NA,NA,NA,NA,NA,NA,NA,NA,NA,NA,NA,NA,fixation,NA,NA,NA,NA,NA,NA,sub104
d3-animate-choice,213,807407,0.0-76.0-0.26,TRUE,FALSE,TRUE,TRUE,"""event"",""trial"",""time""
""fullscreenenter"",""5"",""17264""
","
","
","""event"",""trial"",""time""
""fullscreenenter"",""5"",""17264""
","
",345.9350000000559,NA,49,NA,NA,3000,1,NA,NA,images/earth.jpg,images/rocket2,images/rocket1,null,images/rocket1,NA,1,real,null,1,NA,NA,NA,sub104
d3-animate-choice,214,809917,0.0-76.0-1.26,TRUE,FALSE,TRUE,TRUE,"""event"",""trial"",""time""
""fullscreenenter"",""5"",""17264""
","
","
","""event"",""trial"",""time""
""fullscreenenter"",""5"",""17264""
","
",503.2249999999767,NA,48,NA,NA,3000,1,NA,NA,images/redplanet1.jpg,images/alien2,images/alien1,images/rocket1,images/alien2,images/t.png,2,real,false,2,rare,1,2020-06-20T17:28:51Z,sub104
two-step-fixation,215,810922,0.0-76.0-2.26,TRUE,FALSE,TRUE,TRUE,"""event"",""trial"",""time""
""fullscreenenter"",""5"",""17264""
","
","
","""event"",""trial"",""time""
""fullscreenenter"",""5"",""17264""
","
",NA,images/earth.jpg,NA,NA,NA,NA,NA,NA,NA,NA,NA,NA,NA,NA,NA,fixation,NA,NA,NA,NA,NA,NA,sub104
d3-animate-choice,216,813353,0.0-76.0-0.27,TRUE,FALSE,TRUE,TRUE,"""event"",""trial"",""time""
""fullscreenenter"",""5"",""17264""
","
","
","""event"",""trial"",""time""
""fullscreenenter"",""5"",""17264""
","
",421.14000000001397,NA,49,NA,NA,3000,1,NA,NA,images/earth.jpg,images/rocket2,images/rocket1,null,images/rocket1,NA,1,real,null,1,NA,NA,NA,sub104
d3-animate-choice,217,815861,0.0-76.0-1.27,TRUE,FALSE,TRUE,TRUE,"""event"",""trial"",""time""
""fullscreenenter"",""5"",""17264""
","
","
","""event"",""trial"",""time""
""fullscreenenter"",""5"",""17264""
","
",503.13000000000466,NA,48,NA,NA,3000,1,NA,NA,images/purpleplanet.jpg,images/alien4,images/alien3,images/rocket1,images/alien4,images/t.png,2,real,true,2,common,1,2020-06-20T17:28:57Z,sub104
two-step-fixation,218,816865,0.0-76.0-2.27,TRUE,FALSE,TRUE,TRUE,"""event"",""trial"",""time""
""fullscreenenter"",""5"",""17264""
","
","
","""event"",""trial"",""time""
""fullscreenenter"",""5"",""17264""
","
",NA,images/earth.jpg,NA,NA,NA,NA,NA,NA,NA,NA,NA,NA,NA,NA,NA,fixation,NA,NA,NA,NA,NA,NA,sub104
d3-animate-choice,219,819157,0.0-76.0-0.28,TRUE,FALSE,TRUE,TRUE,"""event"",""trial"",""time""
""fullscreenenter"",""5"",""17264""
","
","
","""event"",""trial"",""time""
""fullscreenenter"",""5"",""17264""
","
",286.08499999996275,NA,49,NA,NA,3000,1,NA,NA,images/earth.jpg,images/rocket2,images/rocket1,null,images/rocket1,NA,1,real,null,1,NA,NA,NA,sub104
d3-animate-choice,220,821508,0.0-76.0-1.28,TRUE,FALSE,TRUE,TRUE,"""event"",""trial"",""time""
""fullscreenenter"",""5"",""17264""
","
","
","""event"",""trial"",""time""
""fullscreenenter"",""5"",""17264""
","
",345.19999999995343,NA,48,NA,NA,3000,1,NA,NA,images/purpleplanet.jpg,images/alien4,images/alien3,images/rocket1,images/alien4,images/nothing.png,2,real,true,2,common,0,2020-06-20T17:29:03Z,sub104
two-step-fixation,221,822513,0.0-76.0-2.28,TRUE,FALSE,TRUE,TRUE,"""event"",""trial"",""time""
""fullscreenenter"",""5"",""17264""
","
","
","""event"",""trial"",""time""
""fullscreenenter"",""5"",""17264""
","
",NA,images/earth.jpg,NA,NA,NA,NA,NA,NA,NA,NA,NA,NA,NA,NA,NA,fixation,NA,NA,NA,NA,NA,NA,sub104
d3-animate-choice,222,825134,0.0-76.0-0.29,TRUE,FALSE,TRUE,TRUE,"""event"",""trial"",""time""
""fullscreenenter"",""5"",""17264""
","
","
","""event"",""trial"",""time""
""fullscreenenter"",""5"",""17264""
","
",614.160000000149,NA,48,NA,NA,3000,1,NA,NA,images/earth.jpg,images/rocket2,images/rocket1,null,images/rocket2,NA,1,real,null,2,NA,NA,NA,sub104
d3-animate-choice,223,827551,0.0-76.0-1.29,TRUE,FALSE,TRUE,TRUE,"""event"",""trial"",""time""
""fullscreenenter"",""5"",""17264""
","
","
","""event"",""trial"",""time""
""fullscreenenter"",""5"",""17264""
","
",406.59499999985565,NA,48,NA,NA,3000,1,NA,NA,images/redplanet1.jpg,images/alien2,images/alien1,images/rocket2,images/alien2,images/nothing.png,2,real,true,2,common,0,2020-06-20T17:29:09Z,sub104
two-step-fixation,224,828555,0.0-76.0-2.29,TRUE,FALSE,TRUE,TRUE,"""event"",""trial"",""time""
""fullscreenenter"",""5"",""17264""
","
","
","""event"",""trial"",""time""
""fullscreenenter"",""5"",""17264""
","
",NA,images/earth.jpg,NA,NA,NA,NA,NA,NA,NA,NA,NA,NA,NA,NA,NA,fixation,NA,NA,NA,NA,NA,NA,sub104
d3-animate-choice,225,830935,0.0-76.0-0.30,TRUE,FALSE,TRUE,TRUE,"""event"",""trial"",""time""
""fullscreenenter"",""5"",""17264""
","
","
","""event"",""trial"",""time""
""fullscreenenter"",""5"",""17264""
","
",371.53999999992084,NA,48,NA,NA,3000,1,NA,NA,images/earth.jpg,images/rocket2,images/rocket1,null,images/rocket2,NA,1,real,null,2,NA,NA,NA,sub104
d3-animate-choice,226,833397,0.0-76.0-1.30,TRUE,FALSE,TRUE,TRUE,"""event"",""trial"",""time""
""fullscreenenter"",""5"",""17264""
","
","
","""event"",""trial"",""time""
""fullscreenenter"",""5"",""17264""
","
",454.85499999986496,NA,48,NA,NA,3000,1,NA,NA,images/redplanet1.jpg,images/alien2,images/alien1,images/rocket2,images/alien2,images/nothing.png,2,real,true,2,common,0,2020-06-20T17:29:15Z,sub104
two-step-fixation,227,834402,0.0-76.0-2.30,TRUE,FALSE,TRUE,TRUE,"""event"",""trial"",""time""
""fullscreenenter"",""5"",""17264""
","
","
","""event"",""trial"",""time""
""fullscreenenter"",""5"",""17264""
","
",NA,images/earth.jpg,NA,NA,NA,NA,NA,NA,NA,NA,NA,NA,NA,NA,NA,fixation,NA,NA,NA,NA,NA,NA,sub104
d3-animate-choice,228,836710,0.0-76.0-0.31,TRUE,FALSE,TRUE,TRUE,"""event"",""trial"",""time""
""fullscreenenter"",""5"",""17264""
","
","
","""event"",""trial"",""time""
""fullscreenenter"",""5"",""17264""
","
",301.39999999990687,NA,48,NA,NA,3000,1,NA,NA,images/earth.jpg,images/rocket2,images/rocket1,null,images/rocket2,NA,1,real,null,2,NA,NA,NA,sub104
d3-animate-choice,229,839172,0.0-76.0-1.31,TRUE,FALSE,TRUE,TRUE,"""event"",""trial"",""time""
""fullscreenenter"",""5"",""17264""
","
","
","""event"",""trial"",""time""
""fullscreenenter"",""5"",""17264""
","
",456.81500000006054,NA,49,NA,NA,3000,1,NA,NA,images/redplanet1.jpg,images/alien2,images/alien1,images/rocket2,images/alien1,images/t.png,2,real,true,1,common,1,2020-06-20T17:29:21Z,sub104
two-step-fixation,230,840178,0.0-76.0-2.31,TRUE,FALSE,TRUE,TRUE,"""event"",""trial"",""time""
""fullscreenenter"",""5"",""17264""
","
","
","""event"",""trial"",""time""
""fullscreenenter"",""5"",""17264""
","
",NA,images/earth.jpg,NA,NA,NA,NA,NA,NA,NA,NA,NA,NA,NA,NA,NA,fixation,NA,NA,NA,NA,NA,NA,sub104
d3-animate-choice,231,842531,0.0-76.0-0.32,TRUE,FALSE,TRUE,TRUE,"""event"",""trial"",""time""
""fullscreenenter"",""5"",""17264""
","
","
","""event"",""trial"",""time""
""fullscreenenter"",""5"",""17264""
","
",347.4800000000978,NA,48,NA,NA,3000,1,NA,NA,images/earth.jpg,images/rocket2,images/rocket1,null,images/rocket2,NA,1,real,null,2,NA,NA,NA,sub104
d3-animate-choice,232,844956,0.0-76.0-1.32,TRUE,FALSE,TRUE,TRUE,"""event"",""trial"",""time""
""fullscreenenter"",""5"",""17264""
","
","
","""event"",""trial"",""time""
""fullscreenenter"",""5"",""17264""
","
",419.3549999999814,NA,49,NA,NA,3000,1,NA,NA,images/redplanet1.jpg,images/alien2,images/alien1,images/rocket2,images/alien1,images/nothing.png,2,real,true,1,common,0,2020-06-20T17:29:26Z,sub104
two-step-fixation,233,845960,0.0-76.0-2.32,TRUE,FALSE,TRUE,TRUE,"""event"",""trial"",""time""
""fullscreenenter"",""5"",""17264""
","
","
","""event"",""trial"",""time""
""fullscreenenter"",""5"",""17264""
","
",NA,images/earth.jpg,NA,NA,NA,NA,NA,NA,NA,NA,NA,NA,NA,NA,NA,fixation,NA,NA,NA,NA,NA,NA,sub104
d3-animate-choice,234,848491,0.0-76.0-0.33,TRUE,FALSE,TRUE,TRUE,"""event"",""trial"",""time""
""fullscreenenter"",""5"",""17264""
","
","
","""event"",""trial"",""time""
""fullscreenenter"",""5"",""17264""
","
",526.4799999999814,NA,48,NA,NA,3000,1,NA,NA,images/earth.jpg,images/rocket2,images/rocket1,null,images/rocket2,NA,1,real,null,2,NA,NA,NA,sub104
d3-animate-choice,235,850846,0.0-76.0-1.33,TRUE,FALSE,TRUE,TRUE,"""event"",""trial"",""time""
""fullscreenenter"",""5"",""17264""
","
","
","""event"",""trial"",""time""
""fullscreenenter"",""5"",""17264""
","
",347.3800000002375,NA,49,NA,NA,3000,1,NA,NA,images/redplanet1.jpg,images/alien2,images/alien1,images/rocket2,images/alien1,images/t.png,2,real,true,1,common,1,2020-06-20T17:29:32Z,sub104
two-step-fixation,236,851855,0.0-76.0-2.33,TRUE,FALSE,TRUE,TRUE,"""event"",""trial"",""time""
""fullscreenenter"",""5"",""17264""
","
","
","""event"",""trial"",""time""
""fullscreenenter"",""5"",""17264""
","
",NA,images/earth.jpg,NA,NA,NA,NA,NA,NA,NA,NA,NA,NA,NA,NA,NA,fixation,NA,NA,NA,NA,NA,NA,sub104
d3-animate-choice,237,854195,0.0-76.0-0.34,TRUE,FALSE,TRUE,TRUE,"""event"",""trial"",""time""
""fullscreenenter"",""5"",""17264""
","
","
","""event"",""trial"",""time""
""fullscreenenter"",""5"",""17264""
","
",333.39000000001397,NA,48,NA,NA,3000,1,NA,NA,images/earth.jpg,images/rocket2,images/rocket1,null,images/rocket2,NA,1,real,null,2,NA,NA,NA,sub104
d3-animate-choice,238,856621,0.0-76.0-1.34,TRUE,FALSE,TRUE,TRUE,"""event"",""trial"",""time""
""fullscreenenter"",""5"",""17264""
","
","
","""event"",""trial"",""time""
""fullscreenenter"",""5"",""17264""
","
",418.41500000015367,NA,49,NA,NA,3000,1,NA,NA,images/purpleplanet.jpg,images/alien4,images/alien3,images/rocket2,images/alien3,images/nothing.png,2,real,false,1,rare,0,2020-06-20T17:29:38Z,sub104
two-step-fixation,239,857626,0.0-76.0-2.34,TRUE,FALSE,TRUE,TRUE,"""event"",""trial"",""time""
""fullscreenenter"",""5"",""17264""
","
","
","""event"",""trial"",""time""
""fullscreenenter"",""5"",""17264""
","
",NA,images/earth.jpg,NA,NA,NA,NA,NA,NA,NA,NA,NA,NA,NA,NA,NA,fixation,NA,NA,NA,NA,NA,NA,sub104
d3-animate-choice,240,859932,0.0-76.0-0.35,TRUE,FALSE,TRUE,TRUE,"""event"",""trial"",""time""
""fullscreenenter"",""5"",""17264""
","
","
","""event"",""trial"",""time""
""fullscreenenter"",""5"",""17264""
","
",300.12000000011176,NA,48,NA,NA,3000,1,NA,NA,images/earth.jpg,images/rocket2,images/rocket1,null,images/rocket2,NA,1,real,null,2,NA,NA,NA,sub104
d3-animate-choice,241,862356,0.0-76.0-1.35,TRUE,FALSE,TRUE,TRUE,"""event"",""trial"",""time""
""fullscreenenter"",""5"",""17264""
","
","
","""event"",""trial"",""time""
""fullscreenenter"",""5"",""17264""
","
",419.0649999998277,NA,49,NA,NA,3000,1,NA,NA,images/redplanet1.jpg,images/alien2,images/alien1,images/rocket2,images/alien1,images/t.png,2,real,true,1,common,1,2020-06-20T17:29:44Z,sub104
two-step-fixation,242,863361,0.0-76.0-2.35,TRUE,FALSE,TRUE,TRUE,"""event"",""trial"",""time""
""fullscreenenter"",""5"",""17264""
","
","
","""event"",""trial"",""time""
""fullscreenenter"",""5"",""17264""
","
",NA,images/earth.jpg,NA,NA,NA,NA,NA,NA,NA,NA,NA,NA,NA,NA,NA,fixation,NA,NA,NA,NA,NA,NA,sub104
d3-animate-choice,243,865707,0.0-76.0-0.36,TRUE,FALSE,TRUE,TRUE,"""event"",""trial"",""time""
""fullscreenenter"",""5"",""17264""
","
","
","""event"",""trial"",""time""
""fullscreenenter"",""5"",""17264""
","
",340.16500000015367,NA,48,NA,NA,3000,1,NA,NA,images/earth.jpg,images/rocket2,images/rocket1,null,images/rocket2,NA,1,real,null,2,NA,NA,NA,sub104
d3-animate-choice,244,869239,0.0-76.0-1.36,TRUE,FALSE,TRUE,TRUE,"""event"",""trial"",""time""
""fullscreenenter"",""5"",""17264""
","
","
","""event"",""trial"",""time""
""fullscreenenter"",""5"",""17264""
","
",1523.9349999999395,NA,48,NA,NA,3000,1,NA,NA,images/purpleplanet.jpg,images/alien4,images/alien3,images/rocket2,images/alien4,images/t.png,2,real,false,2,rare,1,2020-06-20T17:29:51Z,sub104
two-step-fixation,245,870247,0.0-76.0-2.36,TRUE,FALSE,TRUE,TRUE,"""event"",""trial"",""time""
""fullscreenenter"",""5"",""17264""
","
","
","""event"",""trial"",""time""
""fullscreenenter"",""5"",""17264""
","
",NA,images/earth.jpg,NA,NA,NA,NA,NA,NA,NA,NA,NA,NA,NA,NA,NA,fixation,NA,NA,NA,NA,NA,NA,sub104
d3-animate-choice,246,872449,0.0-76.0-0.37,TRUE,FALSE,TRUE,TRUE,"""event"",""trial"",""time""
""fullscreenenter"",""5"",""17264""
","
","
","""event"",""trial"",""time""
""fullscreenenter"",""5"",""17264""
","
",193.714999999851,NA,49,NA,NA,3000,1,NA,NA,images/earth.jpg,images/rocket2,images/rocket1,null,images/rocket1,NA,1,real,null,1,NA,NA,NA,sub104
d3-animate-choice,247,875029,0.0-76.0-1.37,TRUE,FALSE,TRUE,TRUE,"""event"",""trial"",""time""
""fullscreenenter"",""5"",""17264""
","
","
","""event"",""trial"",""time""
""fullscreenenter"",""5"",""17264""
","
",574.5250000000233,NA,49,NA,NA,3000,1,NA,NA,images/redplanet1.jpg,images/alien2,images/alien1,images/rocket1,images/alien1,images/nothing.png,2,real,false,1,rare,0,2020-06-20T17:29:56Z,sub104
two-step-fixation,248,876035,0.0-76.0-2.37,TRUE,FALSE,TRUE,TRUE,"""event"",""trial"",""time""
""fullscreenenter"",""5"",""17264""
","
","
","""event"",""trial"",""time""
""fullscreenenter"",""5"",""17264""
","
",NA,images/earth.jpg,NA,NA,NA,NA,NA,NA,NA,NA,NA,NA,NA,NA,NA,fixation,NA,NA,NA,NA,NA,NA,sub104
d3-animate-choice,249,878511,0.0-76.0-0.38,TRUE,FALSE,TRUE,TRUE,"""event"",""trial"",""time""
""fullscreenenter"",""5"",""17264""
","
","
","""event"",""trial"",""time""
""fullscreenenter"",""5"",""17264""
","
",469.3400000000838,NA,49,NA,NA,3000,1,NA,NA,images/earth.jpg,images/rocket2,images/rocket1,null,images/rocket1,NA,1,real,null,1,NA,NA,NA,sub104
d3-animate-choice,250,880990,0.0-76.0-1.38,TRUE,FALSE,TRUE,TRUE,"""event"",""trial"",""time""
""fullscreenenter"",""5"",""17264""
","
","
","""event"",""trial"",""time""
""fullscreenenter"",""5"",""17264""
","
",473.35499999986496,NA,48,NA,NA,3000,1,NA,NA,images/purpleplanet.jpg,images/alien4,images/alien3,images/rocket1,images/alien4,images/t.png,2,real,true,2,common,1,2020-06-20T17:30:02Z,sub104
two-step-fixation,251,881995,0.0-76.0-2.38,TRUE,FALSE,TRUE,TRUE,"""event"",""trial"",""time""
""fullscreenenter"",""5"",""17264""
","
","
","""event"",""trial"",""time""
""fullscreenenter"",""5"",""17264""
","
",NA,images/earth.jpg,NA,NA,NA,NA,NA,NA,NA,NA,NA,NA,NA,NA,NA,fixation,NA,NA,NA,NA,NA,NA,sub104
d3-animate-choice,252,884297,0.0-76.0-0.39,TRUE,FALSE,TRUE,TRUE,"""event"",""trial"",""time""
""fullscreenenter"",""5"",""17264""
","
","
","""event"",""trial"",""time""
""fullscreenenter"",""5"",""17264""
","
",294.5349999999162,NA,49,NA,NA,3000,1,NA,NA,images/earth.jpg,images/rocket2,images/rocket1,null,images/rocket1,NA,1,real,null,1,NA,NA,NA,sub104
d3-animate-choice,253,886847,0.0-76.0-1.39,TRUE,FALSE,TRUE,TRUE,"""event"",""trial"",""time""
""fullscreenenter"",""5"",""17264""
","
","
","""event"",""trial"",""time""
""fullscreenenter"",""5"",""17264""
","
",542.0399999998044,NA,48,NA,NA,3000,1,NA,NA,images/purpleplanet.jpg,images/alien4,images/alien3,images/rocket1,images/alien4,images/t.png,2,real,true,2,common,1,2020-06-20T17:30:08Z,sub104
two-step-fixation,254,887852,0.0-76.0-2.39,TRUE,FALSE,TRUE,TRUE,"""event"",""trial"",""time""
""fullscreenenter"",""5"",""17264""
","
","
","""event"",""trial"",""time""
""fullscreenenter"",""5"",""17264""
","
",NA,images/earth.jpg,NA,NA,NA,NA,NA,NA,NA,NA,NA,NA,NA,NA,NA,fixation,NA,NA,NA,NA,NA,NA,sub104
d3-animate-choice,255,890197,0.0-76.0-0.40,TRUE,FALSE,TRUE,TRUE,"""event"",""trial"",""time""
""fullscreenenter"",""5"",""17264""
","
","
","""event"",""trial"",""time""
""fullscreenenter"",""5"",""17264""
","
",339.3049999999348,NA,49,NA,NA,3000,1,NA,NA,images/earth.jpg,images/rocket2,images/rocket1,null,images/rocket1,NA,1,real,null,1,NA,NA,NA,sub104
d3-animate-choice,256,892597,0.0-76.0-1.40,TRUE,FALSE,TRUE,TRUE,"""event"",""trial"",""time""
""fullscreenenter"",""5"",""17264""
","
","
","""event"",""trial"",""time""
""fullscreenenter"",""5"",""17264""
","
",394.1350000000093,NA,48,NA,NA,3000,1,NA,NA,images/purpleplanet.jpg,images/alien4,images/alien3,images/rocket1,images/alien4,images/t.png,2,real,true,2,common,1,2020-06-20T17:30:14Z,sub104
two-step-fixation,257,893603,0.0-76.0-2.40,TRUE,FALSE,TRUE,TRUE,"""event"",""trial"",""time""
""fullscreenenter"",""5"",""17264""
","
","
","""event"",""trial"",""time""
""fullscreenenter"",""5"",""17264""
","
",NA,images/earth.jpg,NA,NA,NA,NA,NA,NA,NA,NA,NA,NA,NA,NA,NA,fixation,NA,NA,NA,NA,NA,NA,sub104
d3-animate-choice,258,896014,0.0-76.0-0.41,TRUE,FALSE,TRUE,TRUE,"""event"",""trial"",""time""
""fullscreenenter"",""5"",""17264""
","
","
","""event"",""trial"",""time""
""fullscreenenter"",""5"",""17264""
","
",405.8949999999022,NA,49,NA,NA,3000,1,NA,NA,images/earth.jpg,images/rocket2,images/rocket1,null,images/rocket1,NA,1,real,null,1,NA,NA,NA,sub104
d3-animate-choice,259,898455,0.0-76.0-1.41,TRUE,FALSE,TRUE,TRUE,"""event"",""trial"",""time""
""fullscreenenter"",""5"",""17264""
","
","
","""event"",""trial"",""time""
""fullscreenenter"",""5"",""17264""
","
",432.76499999978114,NA,48,NA,NA,3000,1,NA,NA,images/redplanet1.jpg,images/alien2,images/alien1,images/rocket1,images/alien2,images/nothing.png,2,real,false,2,rare,0,2020-06-20T17:30:20Z,sub104
two-step-fixation,260,899462,0.0-76.0-2.41,TRUE,FALSE,TRUE,TRUE,"""event"",""trial"",""time""
""fullscreenenter"",""5"",""17264""
","
","
","""event"",""trial"",""time""
""fullscreenenter"",""5"",""17264""
","
",NA,images/earth.jpg,NA,NA,NA,NA,NA,NA,NA,NA,NA,NA,NA,NA,NA,fixation,NA,NA,NA,NA,NA,NA,sub104
d3-animate-choice,261,901878,0.0-76.0-0.42,TRUE,FALSE,TRUE,TRUE,"""event"",""trial"",""time""
""fullscreenenter"",""5"",""17264""
","
","
","""event"",""trial"",""time""
""fullscreenenter"",""5"",""17264""
","
",409.54000000003725,NA,49,NA,NA,3000,1,NA,NA,images/earth.jpg,images/rocket2,images/rocket1,null,images/rocket1,NA,1,real,null,1,NA,NA,NA,sub104
d3-animate-choice,262,904333,0.0-76.0-1.42,TRUE,FALSE,TRUE,TRUE,"""event"",""trial"",""time""
""fullscreenenter"",""5"",""17264""
","
","
","""event"",""trial"",""time""
""fullscreenenter"",""5"",""17264""
","
",448.94999999995343,NA,49,NA,NA,3000,1,NA,NA,images/redplanet1.jpg,images/alien2,images/alien1,images/rocket1,images/alien1,images/nothing.png,2,real,false,1,rare,0,2020-06-20T17:30:26Z,sub104
two-step-fixation,263,905342,0.0-76.0-2.42,TRUE,FALSE,TRUE,TRUE,"""event"",""trial"",""time""
""fullscreenenter"",""5"",""17264""
","
","
","""event"",""trial"",""time""
""fullscreenenter"",""5"",""17264""
","
",NA,images/earth.jpg,NA,NA,NA,NA,NA,NA,NA,NA,NA,NA,NA,NA,NA,fixation,NA,NA,NA,NA,NA,NA,sub104
d3-animate-choice,264,907670,0.0-76.0-0.43,TRUE,FALSE,TRUE,TRUE,"""event"",""trial"",""time""
""fullscreenenter"",""5"",""17264""
","
","
","""event"",""trial"",""time""
""fullscreenenter"",""5"",""17264""
","
",321.88500000012573,NA,49,NA,NA,3000,1,NA,NA,images/earth.jpg,images/rocket2,images/rocket1,null,images/rocket1,NA,1,real,null,1,NA,NA,NA,sub104
d3-animate-choice,265,910125,0.0-76.0-1.43,TRUE,FALSE,TRUE,TRUE,"""event"",""trial"",""time""
""fullscreenenter"",""5"",""17264""
","
","
","""event"",""trial"",""time""
""fullscreenenter"",""5"",""17264""
","
",448.82499999995343,NA,48,NA,NA,3000,1,NA,NA,images/purpleplanet.jpg,images/alien4,images/alien3,images/rocket1,images/alien4,images/nothing.png,2,real,true,2,common,0,2020-06-20T17:30:32Z,sub104
two-step-fixation,266,911130,0.0-76.0-2.43,TRUE,FALSE,TRUE,TRUE,"""event"",""trial"",""time""
""fullscreenenter"",""5"",""17264""
","
","
","""event"",""trial"",""time""
""fullscreenenter"",""5"",""17264""
","
",NA,images/earth.jpg,NA,NA,NA,NA,NA,NA,NA,NA,NA,NA,NA,NA,NA,fixation,NA,NA,NA,NA,NA,NA,sub104
d3-animate-choice,267,913454,0.0-76.0-0.44,TRUE,FALSE,TRUE,TRUE,"""event"",""trial"",""time""
""fullscreenenter"",""5"",""17264""
","
","
","""event"",""trial"",""time""
""fullscreenenter"",""5"",""17264""
","
",318.7149999999674,NA,49,NA,NA,3000,1,NA,NA,images/earth.jpg,images/rocket2,images/rocket1,null,images/rocket1,NA,1,real,null,1,NA,NA,NA,sub104
d3-animate-choice,268,916213,0.0-76.0-1.44,TRUE,FALSE,TRUE,TRUE,"""event"",""trial"",""time""
""fullscreenenter"",""5"",""17264""
","
","
","""event"",""trial"",""time""
""fullscreenenter"",""5"",""17264""
","
",752.5700000001816,NA,49,NA,NA,3000,1,NA,NA,images/purpleplanet.jpg,images/alien4,images/alien3,images/rocket1,images/alien3,images/nothing.png,2,real,true,1,common,0,2020-06-20T17:30:38Z,sub104
two-step-fixation,269,917218,0.0-76.0-2.44,TRUE,FALSE,TRUE,TRUE,"""event"",""trial"",""time""
""fullscreenenter"",""5"",""17264""
","
","
","""event"",""trial"",""time""
""fullscreenenter"",""5"",""17264""
","
",NA,images/earth.jpg,NA,NA,NA,NA,NA,NA,NA,NA,NA,NA,NA,NA,NA,fixation,NA,NA,NA,NA,NA,NA,sub104
d3-animate-choice,270,919559,0.0-76.0-0.45,TRUE,FALSE,TRUE,TRUE,"""event"",""trial"",""time""
""fullscreenenter"",""5"",""17264""
","
","
","""event"",""trial"",""time""
""fullscreenenter"",""5"",""17264""
","
",334.70000000018626,NA,49,NA,NA,3000,1,NA,NA,images/earth.jpg,images/rocket2,images/rocket1,null,images/rocket1,NA,1,real,null,1,NA,NA,NA,sub104
d3-animate-choice,271,921972,0.0-76.0-1.45,TRUE,FALSE,TRUE,TRUE,"""event"",""trial"",""time""
""fullscreenenter"",""5"",""17264""
","
","
","""event"",""trial"",""time""
""fullscreenenter"",""5"",""17264""
","
",407.5600000001723,NA,48,NA,NA,3000,1,NA,NA,images/purpleplanet.jpg,images/alien4,images/alien3,images/rocket1,images/alien4,images/nothing.png,2,real,true,2,common,0,2020-06-20T17:30:43Z,sub104
two-step-fixation,272,922977,0.0-76.0-2.45,TRUE,FALSE,TRUE,TRUE,"""event"",""trial"",""time""
""fullscreenenter"",""5"",""17264""
","
","
","""event"",""trial"",""time""
""fullscreenenter"",""5"",""17264""
","
",NA,images/earth.jpg,NA,NA,NA,NA,NA,NA,NA,NA,NA,NA,NA,NA,NA,fixation,NA,NA,NA,NA,NA,NA,sub104
d3-animate-choice,273,925278,0.0-76.0-0.46,TRUE,FALSE,TRUE,TRUE,"""event"",""trial"",""time""
""fullscreenenter"",""5"",""17264""
","
","
","""event"",""trial"",""time""
""fullscreenenter"",""5"",""17264""
","
",293.910000000149,NA,48,NA,NA,3000,1,NA,NA,images/earth.jpg,images/rocket2,images/rocket1,null,images/rocket2,NA,1,real,null,2,NA,NA,NA,sub104
d3-animate-choice,274,927644,0.0-76.0-1.46,TRUE,FALSE,TRUE,TRUE,"""event"",""trial"",""time""
""fullscreenenter"",""5"",""17264""
","
","
","""event"",""trial"",""time""
""fullscreenenter"",""5"",""17264""
","
",360.5250000000233,NA,48,NA,NA,3000,1,NA,NA,images/redplanet1.jpg,images/alien2,images/alien1,images/rocket2,images/alien2,images/nothing.png,2,real,true,2,common,0,2020-06-20T17:30:49Z,sub104
two-step-fixation,275,928653,0.0-76.0-2.46,TRUE,FALSE,TRUE,TRUE,"""event"",""trial"",""time""
""fullscreenenter"",""5"",""17264""
","
","
","""event"",""trial"",""time""
""fullscreenenter"",""5"",""17264""
","
",NA,images/earth.jpg,NA,NA,NA,NA,NA,NA,NA,NA,NA,NA,NA,NA,NA,fixation,NA,NA,NA,NA,NA,NA,sub104
d3-animate-choice,276,931322,0.0-76.0-0.47,TRUE,FALSE,TRUE,TRUE,"""event"",""trial"",""time""
""fullscreenenter"",""5"",""17264""
","
","
","""event"",""trial"",""time""
""fullscreenenter"",""5"",""17264""
","
",663.5600000001723,NA,48,NA,NA,3000,1,NA,NA,images/earth.jpg,images/rocket2,images/rocket1,null,images/rocket2,NA,1,real,null,2,NA,NA,NA,sub104
d3-animate-choice,277,933690,0.0-76.0-1.47,TRUE,FALSE,TRUE,TRUE,"""event"",""trial"",""time""
""fullscreenenter"",""5"",""17264""
","
","
","""event"",""trial"",""time""
""fullscreenenter"",""5"",""17264""
","
",360.7950000000419,NA,49,NA,NA,3000,1,NA,NA,images/redplanet1.jpg,images/alien2,images/alien1,images/rocket2,images/alien1,images/nothing.png,2,real,true,1,common,0,2020-06-20T17:30:55Z,sub104
two-step-fixation,278,934696,0.0-76.0-2.47,TRUE,FALSE,TRUE,TRUE,"""event"",""trial"",""time""
""fullscreenenter"",""5"",""17264""
","
","
","""event"",""trial"",""time""
""fullscreenenter"",""5"",""17264""
","
",NA,images/earth.jpg,NA,NA,NA,NA,NA,NA,NA,NA,NA,NA,NA,NA,NA,fixation,NA,NA,NA,NA,NA,NA,sub104
d3-animate-choice,279,937650,0.0-76.0-0.48,TRUE,FALSE,TRUE,TRUE,"""event"",""trial"",""time""
""fullscreenenter"",""5"",""17264""
","
","
","""event"",""trial"",""time""
""fullscreenenter"",""5"",""17264""
","
",948.690000000177,NA,49,NA,NA,3000,1,NA,NA,images/earth.jpg,images/rocket2,images/rocket1,null,images/rocket1,NA,1,real,null,1,NA,NA,NA,sub104
d3-animate-choice,280,940630,0.0-76.0-1.48,TRUE,FALSE,TRUE,TRUE,"""event"",""trial"",""time""
""fullscreenenter"",""5"",""17264""
","
","
","""event"",""trial"",""time""
""fullscreenenter"",""5"",""17264""
","
",971.3750000001164,NA,48,NA,NA,3000,1,NA,NA,images/redplanet1.jpg,images/alien2,images/alien1,images/rocket1,images/alien2,images/nothing.png,2,real,false,2,rare,0,2020-06-20T17:31:02Z,sub104
two-step-fixation,281,941636,0.0-76.0-2.48,TRUE,FALSE,TRUE,TRUE,"""event"",""trial"",""time""
""fullscreenenter"",""5"",""17264""
","
","
","""event"",""trial"",""time""
""fullscreenenter"",""5"",""17264""
","
",NA,images/earth.jpg,NA,NA,NA,NA,NA,NA,NA,NA,NA,NA,NA,NA,NA,fixation,NA,NA,NA,NA,NA,NA,sub104
d3-animate-choice,282,943932,0.0-76.0-0.49,TRUE,FALSE,TRUE,TRUE,"""event"",""trial"",""time""
""fullscreenenter"",""5"",""17264""
","
","
","""event"",""trial"",""time""
""fullscreenenter"",""5"",""17264""
","
",290.6349999997765,NA,49,NA,NA,3000,1,NA,NA,images/earth.jpg,images/rocket2,images/rocket1,null,images/rocket1,NA,1,real,null,1,NA,NA,NA,sub104
d3-animate-choice,283,946380,0.0-76.0-1.49,TRUE,FALSE,TRUE,TRUE,"""event"",""trial"",""time""
""fullscreenenter"",""5"",""17264""
","
","
","""event"",""trial"",""time""
""fullscreenenter"",""5"",""17264""
","
