trial_type,trial_index,time_elapsed,internal_node_id,rocket_sides,red_planet_first_rocket,red_display_order,purple_display_order,interactions,blur_events,focus_events,fullscreenenter_events,fullscreenexit_events,rt,stimulus,key_press,button_pressed,success,duration,valid_pressed,rts,keys,planet_text,right_text,left_text,center_text,chosen_text,reward_text,trial_stage,practice_trial,transition_type,choice,transition,reward,timestamp,subject_id
pavlovia,0,4,0.0-0.0,TRUE,TRUE,TRUE,TRUE,"
","
","
","
","
",NA,NA,NA,NA,NA,NA,NA,NA,NA,NA,NA,NA,NA,NA,NA,NA,NA,NA,NA,NA,NA,NA,sub10
html-keyboard-response,1,2533,0.0-1.0,TRUE,TRUE,TRUE,TRUE,"
","
","
","
","
",2528.394999972079,Welcome! Press the space bar to begin.,32,NA,NA,NA,NA,NA,NA,NA,NA,NA,NA,NA,NA,NA,NA,NA,NA,NA,NA,NA,sub10
audio-keyboard-response,2,6651,0.0-2.0,TRUE,TRUE,TRUE,TRUE,"
","
","
","
","
",3781,audio/beep_loop.wav,32,NA,NA,NA,NA,NA,NA,NA,NA,NA,NA,NA,NA,NA,NA,NA,NA,NA,NA,NA,sub10
audio-button-response,3,9884,0.0-3.0,TRUE,TRUE,TRUE,TRUE,"
","
","
","
","
",NaN,audio/fish.mp3,NA,1,NA,NA,NA,NA,NA,NA,NA,NA,NA,NA,NA,NA,NA,NA,NA,NA,NA,NA,sub10
audio-button-response,4,13701,0.0-4.0,TRUE,TRUE,TRUE,TRUE,"""event"",""trial"",""time""
""fullscreenenter"",""5"",""22060""
","
","
","""event"",""trial"",""time""
""fullscreenenter"",""5"",""22060""
","
",NaN,audio/tiger.mp3,NA,4,NA,NA,NA,NA,NA,NA,NA,NA,NA,NA,NA,NA,NA,NA,NA,NA,NA,NA,sub10
fullscreen,5,23059,0.0-5.0,TRUE,TRUE,TRUE,TRUE,"""event"",""trial"",""time""
""fullscreenenter"",""5"",""22060""
","
","
","""event"",""trial"",""time""
""fullscreenenter"",""5"",""22060""
","
",NA,NA,NA,NA,TRUE,NA,NA,NA,NA,NA,NA,NA,NA,NA,NA,NA,NA,NA,NA,NA,NA,NA,sub10
d3-instructions,6,50080,0.0-6.0,TRUE,TRUE,TRUE,TRUE,"""event"",""trial"",""time""
""fullscreenenter"",""5"",""22060""
","
","
","""event"",""trial"",""time""
""fullscreenenter"",""5"",""22060""
","
",NA,NA,NA,NA,NA,NA,NA,NA,NA,NA,NA,NA,NA,NA,NA,NA,NA,NA,NA,NA,NA,NA,sub10
d3-instructions,7,61052,0.0-7.0,TRUE,TRUE,TRUE,TRUE,"""event"",""trial"",""time""
""fullscreenenter"",""5"",""22060""
","
","
","""event"",""trial"",""time""
""fullscreenenter"",""5"",""22060""
","
",NA,NA,NA,NA,NA,NA,NA,NA,NA,NA,NA,NA,NA,NA,NA,NA,NA,NA,NA,NA,NA,NA,sub10
d3-instructions,8,69767,0.0-8.0,TRUE,TRUE,TRUE,TRUE,"""event"",""trial"",""time""
""fullscreenenter"",""5"",""22060""
","
","
","""event"",""trial"",""time""
""fullscreenenter"",""5"",""22060""
","
",NA,NA,NA,NA,NA,NA,NA,NA,NA,NA,NA,NA,NA,NA,NA,NA,NA,NA,NA,NA,NA,NA,sub10
d3-instructions,9,84775,0.0-9.0,TRUE,TRUE,TRUE,TRUE,"""event"",""trial"",""time""
""fullscreenenter"",""5"",""22060""
","
","
","""event"",""trial"",""time""
""fullscreenenter"",""5"",""22060""
","
",NA,NA,NA,NA,NA,NA,NA,NA,NA,NA,NA,NA,NA,NA,NA,NA,NA,NA,NA,NA,NA,NA,sub10
d3-instructions,10,105334,0.0-10.0,TRUE,TRUE,TRUE,TRUE,"""event"",""trial"",""time""
""fullscreenenter"",""5"",""22060""
","
","
","""event"",""trial"",""time""
""fullscreenenter"",""5"",""22060""
","
",NA,NA,NA,NA,NA,NA,NA,NA,NA,NA,NA,NA,NA,NA,NA,NA,NA,NA,NA,NA,NA,NA,sub10
d3-animate-choice,11,108578,0.0-11.0,TRUE,TRUE,TRUE,TRUE,"""event"",""trial"",""time""
""fullscreenenter"",""5"",""22060""
","
","
","""event"",""trial"",""time""
""fullscreenenter"",""5"",""22060""
","
",1238.7849999940954,NA,49,NA,NA,3000,1,"2373.63499996718,3022.3349999869242",4848,images/tutgreenplanet.jpg,images/tutalien1,images/tutalien2,null,images/tutalien2,NA,NA,practice,null,NA,NA,NA,NA,sub10
d3-animate-choice,12,110779,0.0-12.0,TRUE,TRUE,TRUE,TRUE,"""event"",""trial"",""time""
""fullscreenenter"",""5"",""22060""
","
","
","""event"",""trial"",""time""
""fullscreenenter"",""5"",""22060""
","
",195.59499999741092,NA,49,NA,NA,3000,1,"1281.5750000299886,1863.8100000098348",4848,images/tutgreenplanet.jpg,images/tutalien1,images/tutalien2,null,images/tutalien2,NA,NA,practice,null,NA,NA,NA,NA,sub10
d3-animate-choice,13,112994,0.0-13.0,TRUE,TRUE,TRUE,TRUE,"""event"",""trial"",""time""
""fullscreenenter"",""5"",""22060""
","
","
","""event"",""trial"",""time""
""fullscreenenter"",""5"",""22060""
","
",208.22500000940636,NA,48,NA,NA,3000,1,2110.9700000379235,49,images/tutgreenplanet.jpg,images/tutalien1,images/tutalien2,null,images/tutalien1,NA,NA,practice,null,NA,NA,NA,NA,sub10
d3-animate-choice,14,115466,0.0-14.0,TRUE,TRUE,TRUE,TRUE,"""event"",""trial"",""time""
""fullscreenenter"",""5"",""22060""
","
","
","""event"",""trial"",""time""
""fullscreenenter"",""5"",""22060""
","
",465.80000000540167,NA,49,NA,NA,3000,1,2137.3899999889545,48,images/tutgreenplanet.jpg,images/tutalien1,images/tutalien2,null,images/tutalien2,NA,NA,practice,null,NA,NA,NA,NA,sub10
d3-instructions,15,122125,0.0-15.0,TRUE,TRUE,TRUE,TRUE,"""event"",""trial"",""time""
""fullscreenenter"",""5"",""22060""
","
","
","""event"",""trial"",""time""
""fullscreenenter"",""5"",""22060""
","
",NA,NA,NA,NA,NA,NA,NA,NA,NA,NA,NA,NA,NA,NA,NA,NA,NA,NA,NA,NA,NA,NA,sub10
d3-instructions,16,129343,0.0-16.0,TRUE,TRUE,TRUE,TRUE,"""event"",""trial"",""time""
""fullscreenenter"",""5"",""22060""
","
","
","""event"",""trial"",""time""
""fullscreenenter"",""5"",""22060""
","
",NA,NA,NA,NA,NA,NA,NA,NA,NA,NA,NA,NA,NA,NA,NA,NA,NA,NA,NA,NA,NA,NA,sub10
d3-instructions,17,138275,0.0-17.0,TRUE,TRUE,TRUE,TRUE,"""event"",""trial"",""time""
""fullscreenenter"",""5"",""22060""
","
","
","""event"",""trial"",""time""
""fullscreenenter"",""5"",""22060""
","
",NA,NA,NA,NA,NA,NA,NA,NA,NA,NA,NA,NA,NA,NA,NA,NA,NA,NA,NA,NA,NA,NA,sub10
d3-instructions,18,151961,0.0-18.0,TRUE,TRUE,TRUE,TRUE,"""event"",""trial"",""time""
""fullscreenenter"",""5"",""22060""
","
","
","""event"",""trial"",""time""
""fullscreenenter"",""5"",""22060""
","
",NA,NA,NA,NA,NA,NA,NA,NA,NA,NA,NA,NA,NA,NA,NA,NA,NA,NA,NA,NA,NA,NA,sub10
d3-instructions,19,167461,0.0-19.0,TRUE,TRUE,TRUE,TRUE,"""event"",""trial"",""time""
""fullscreenenter"",""5"",""22060""
","
","
","""event"",""trial"",""time""
""fullscreenenter"",""5"",""22060""
","
",NA,NA,NA,NA,NA,NA,NA,NA,NA,NA,NA,NA,NA,NA,NA,NA,NA,NA,NA,NA,NA,NA,sub10
d3-animate-choice,20,170685,0.0-20.0,TRUE,TRUE,TRUE,TRUE,"""event"",""trial"",""time""
""fullscreenenter"",""5"",""22060""
","
","
","""event"",""trial"",""time""
""fullscreenenter"",""5"",""22060""
","
",1218.4099999722093,NA,49,NA,NA,3000,1,"1682.0299999671988,2146.999999997206",4949,images/tutyellowplanet.jpg,null,images/tutalien3,null,images/tutalien3,images/nothing.png,NA,practice,null,NA,NA,NA,NA,sub10
d3-animate-choice,21,172891,0.0-21.0,TRUE,TRUE,TRUE,TRUE,"""event"",""trial"",""time""
""fullscreenenter"",""5"",""22060""
","
","
","""event"",""trial"",""time""
""fullscreenenter"",""5"",""22060""
","
",201.0399999562651,NA,49,NA,NA,3000,1,"689.9099999573082,1896.0799999767914",4949,images/tutyellowplanet.jpg,null,images/tutalien3,null,images/tutalien3,images/t.png,NA,practice,null,NA,NA,NA,NA,sub10
d3-animate-choice,22,175296,0.0-22.0,TRUE,TRUE,TRUE,TRUE,"""event"",""trial"",""time""
""fullscreenenter"",""5"",""22060""
","
","
","""event"",""trial"",""time""
""fullscreenenter"",""5"",""22060""
","
",400.7899999851361,NA,49,NA,NA,3000,1,"974.515000008978,2394.6499999728985",4949,images/tutyellowplanet.jpg,null,images/tutalien3,null,images/tutalien3,images/t.png,NA,practice,null,NA,NA,NA,NA,sub10
d3-animate-choice,23,177794,0.0-23.0,TRUE,TRUE,TRUE,TRUE,"""event"",""trial"",""time""
""fullscreenenter"",""5"",""22060""
","
","
","""event"",""trial"",""time""
""fullscreenenter"",""5"",""22060""
","
",496.2400000076741,NA,49,NA,NA,3000,1,1361.3349999650382,49,images/tutyellowplanet.jpg,null,images/tutalien3,null,images/tutalien3,images/t.png,NA,practice,null,NA,NA,NA,NA,sub10
d3-animate-choice,24,179807,0.0-24.0,TRUE,TRUE,TRUE,TRUE,"""event"",""trial"",""time""
""fullscreenenter"",""5"",""22060""
","
","
","""event"",""trial"",""time""
""fullscreenenter"",""5"",""22060""
","
",11.0199999762699,NA,49,NA,NA,3000,1,813.495000009425,49,images/tutyellowplanet.jpg,null,images/tutalien3,null,images/tutalien3,images/t.png,NA,practice,null,NA,NA,NA,NA,sub10
d3-animate-choice,25,182434,0.0-25.0,TRUE,TRUE,TRUE,TRUE,"""event"",""trial"",""time""
""fullscreenenter"",""5"",""22060""
","
","
","""event"",""trial"",""time""
""fullscreenenter"",""5"",""22060""
","
",622.510000015609,NA,49,NA,NA,3000,1,1357.9950000275858,49,images/tutyellowplanet.jpg,null,images/tutalien3,null,images/tutalien3,images/nothing.png,NA,practice,null,NA,NA,NA,NA,sub10
d3-animate-choice,26,187720,0.0-26.0,TRUE,TRUE,TRUE,TRUE,"""event"",""trial"",""time""
""fullscreenenter"",""5"",""22060""
","
","
","""event"",""trial"",""time""
""fullscreenenter"",""5"",""22060""
","
",3279.2699999990873,NA,49,NA,NA,3000,1,"3681.4400000148453,4357.514999981504,4878.570000000764",494949,images/tutyellowplanet.jpg,null,images/tutalien3,null,images/tutalien3,images/t.png,NA,practice,null,NA,NA,NA,NA,sub10
d3-animate-choice,27,190093,0.0-27.0,TRUE,TRUE,TRUE,TRUE,"""event"",""trial"",""time""
""fullscreenenter"",""5"",""22060""
","
","
","""event"",""trial"",""time""
""fullscreenenter"",""5"",""22060""
","
",367.1300000278279,NA,49,NA,NA,3000,1,"885.3999999701045,1519.384999992326,2194.145000015851",494949,images/tutyellowplanet.jpg,null,images/tutalien3,null,images/tutalien3,images/nothing.png,NA,practice,null,NA,NA,NA,NA,sub10
d3-animate-choice,28,192514,0.0-28.0,TRUE,TRUE,TRUE,TRUE,"""event"",""trial"",""time""
""fullscreenenter"",""5"",""22060""
","
","
","""event"",""trial"",""time""
""fullscreenenter"",""5"",""22060""
","
",414.72000000067055,NA,49,NA,NA,3000,1,"988.4799999999814,1550.6850000238046,2151.2450000154786",494949,images/tutyellowplanet.jpg,null,images/tutalien3,null,images/tutalien3,images/nothing.png,NA,practice,null,NA,NA,NA,NA,sub10
d3-animate-choice,29,195042,0.0-29.0,TRUE,TRUE,TRUE,TRUE,"""event"",""trial"",""time""
""fullscreenenter"",""5"",""22060""
","
","
","""event"",""trial"",""time""
""fullscreenenter"",""5"",""22060""
","
",521.9949999591336,NA,49,NA,NA,3000,1,"1059.224999975413,2125.464999990072",4949,images/tutyellowplanet.jpg,null,images/tutalien3,null,images/tutalien3,images/t.png,NA,practice,null,NA,NA,NA,NA,sub10
d3-instructions,30,202481,0.0-30.0,TRUE,TRUE,TRUE,TRUE,"""event"",""trial"",""time""
""fullscreenenter"",""5"",""22060""
","
","
","""event"",""trial"",""time""
""fullscreenenter"",""5"",""22060""
","
",NA,NA,NA,NA,NA,NA,NA,NA,NA,NA,NA,NA,NA,NA,NA,NA,NA,NA,NA,NA,NA,NA,sub10
d3-instructions,31,212777,0.0-31.0,TRUE,TRUE,TRUE,TRUE,"""event"",""trial"",""time""
""fullscreenenter"",""5"",""22060""
","
","
","""event"",""trial"",""time""
""fullscreenenter"",""5"",""22060""
","
",NA,NA,NA,NA,NA,NA,NA,NA,NA,NA,NA,NA,NA,NA,NA,NA,NA,NA,NA,NA,NA,NA,sub10
d3-instructions,32,220510,0.0-32.0,TRUE,TRUE,TRUE,TRUE,"""event"",""trial"",""time""
""fullscreenenter"",""5"",""22060""
","
","
","""event"",""trial"",""time""
""fullscreenenter"",""5"",""22060""
","
",NA,NA,NA,NA,NA,NA,NA,NA,NA,NA,NA,NA,NA,NA,NA,NA,NA,NA,NA,NA,NA,NA,sub10
d3-instructions,33,232719,0.0-33.0,TRUE,TRUE,TRUE,TRUE,"""event"",""trial"",""time""
""fullscreenenter"",""5"",""22060""
","
","
","""event"",""trial"",""time""
""fullscreenenter"",""5"",""22060""
","
",NA,NA,NA,NA,NA,NA,NA,NA,NA,NA,NA,NA,NA,NA,NA,NA,NA,NA,NA,NA,NA,NA,sub10
d3-animate-choice,34,238600,0.0-34.0,TRUE,TRUE,TRUE,TRUE,"""event"",""trial"",""time""
""fullscreenenter"",""5"",""22060""
","
","
","""event"",""trial"",""time""
""fullscreenenter"",""5"",""22060""
","
",3876.845000020694,NA,49,NA,NA,3000,1,NA,NA,images/tutgreenplanet.jpg,images/tutalien1,images/tutalien2,null,images/tutalien2,images/t.png,NA,practice,null,NA,NA,NA,NA,sub10
d3-animate-choice,35,241846,0.0-35.0,TRUE,TRUE,TRUE,TRUE,"""event"",""trial"",""time""
""fullscreenenter"",""5"",""22060""
","
","
","""event"",""trial"",""time""
""fullscreenenter"",""5"",""22060""
","
",1240.3449999983422,NA,48,NA,NA,3000,1,NA,NA,images/tutgreenplanet.jpg,images/tutalien1,images/tutalien2,null,images/tutalien1,images/nothing.png,NA,practice,null,NA,NA,NA,NA,sub10
d3-animate-choice,36,248322,0.0-36.0,TRUE,TRUE,TRUE,TRUE,"""event"",""trial"",""time""
""fullscreenenter"",""5"",""22060""
","
","
","""event"",""trial"",""time""
""fullscreenenter"",""5"",""22060""
","
",4472.780000010971,NA,49,NA,NA,3000,1,NA,NA,images/tutgreenplanet.jpg,images/tutalien1,images/tutalien2,null,images/tutalien2,images/t.png,NA,practice,null,NA,NA,NA,NA,sub10
d3-animate-choice,37,251202,0.0-37.0,TRUE,TRUE,TRUE,TRUE,"""event"",""trial"",""time""
""fullscreenenter"",""5"",""22060""
","
","
","""event"",""trial"",""time""
""fullscreenenter"",""5"",""22060""
","
",875.2949999761768,NA,49,NA,NA,3000,1,NA,NA,images/tutgreenplanet.jpg,images/tutalien1,images/tutalien2,null,images/tutalien2,images/t.png,NA,practice,null,NA,NA,NA,NA,sub10
d3-animate-choice,38,253913,0.0-38.0,TRUE,TRUE,TRUE,TRUE,"""event"",""trial"",""time""
""fullscreenenter"",""5"",""22060""
","
","
","""event"",""trial"",""time""
""fullscreenenter"",""5"",""22060""
","
",708.1400000024587,NA,49,NA,NA,3000,1,NA,NA,images/tutgreenplanet.jpg,images/tutalien1,images/tutalien2,null,images/tutalien2,images/t.png,NA,practice,null,NA,NA,NA,NA,sub10
d3-animate-choice,39,256820,0.0-39.0,TRUE,TRUE,TRUE,TRUE,"""event"",""trial"",""time""
""fullscreenenter"",""5"",""22060""
","
","
","""event"",""trial"",""time""
""fullscreenenter"",""5"",""22060""
","
",904.3650000239722,NA,49,NA,NA,3000,1,NA,NA,images/tutgreenplanet.jpg,images/tutalien1,images/tutalien2,null,images/tutalien2,images/t.png,NA,practice,null,NA,NA,NA,NA,sub10
d3-animate-choice,40,259857,0.0-40.0,TRUE,TRUE,TRUE,TRUE,"""event"",""trial"",""time""
""fullscreenenter"",""5"",""22060""
","
","
","""event"",""trial"",""time""
""fullscreenenter"",""5"",""22060""
","
",1032.3499999940395,NA,49,NA,NA,3000,1,NA,NA,images/tutgreenplanet.jpg,images/tutalien1,images/tutalien2,null,images/tutalien2,images/t.png,NA,practice,null,NA,NA,NA,NA,sub10
d3-animate-choice,41,262445,0.0-41.0,TRUE,TRUE,TRUE,TRUE,"""event"",""trial"",""time""
""fullscreenenter"",""5"",""22060""
","
","
","""event"",""trial"",""time""
""fullscreenenter"",""5"",""22060""
","
",583.634999988135,NA,49,NA,NA,3000,1,NA,NA,images/tutgreenplanet.jpg,images/tutalien1,images/tutalien2,null,images/tutalien2,images/t.png,NA,practice,null,NA,NA,NA,NA,sub10
d3-animate-choice,42,265300,0.0-42.0,TRUE,TRUE,TRUE,TRUE,"""event"",""trial"",""time""
""fullscreenenter"",""5"",""22060""
","
","
","""event"",""trial"",""time""
""fullscreenenter"",""5"",""22060""
","
",849.4300000020303,NA,49,NA,NA,3000,1,NA,NA,images/tutgreenplanet.jpg,images/tutalien1,images/tutalien2,null,images/tutalien2,images/t.png,NA,practice,null,NA,NA,NA,NA,sub10
d3-animate-choice,43,268038,0.0-43.0,TRUE,TRUE,TRUE,TRUE,"""event"",""trial"",""time""
""fullscreenenter"",""5"",""22060""
","
","
","""event"",""trial"",""time""
""fullscreenenter"",""5"",""22060""
","
",734.6550000365824,NA,49,NA,NA,3000,1,NA,NA,images/tutgreenplanet.jpg,images/tutalien1,images/tutalien2,null,images/tutalien2,images/t.png,NA,practice,null,NA,NA,NA,NA,sub10
d3-instructions,44,283184,0.0-44.0,TRUE,TRUE,TRUE,TRUE,"""event"",""trial"",""time""
""fullscreenenter"",""5"",""22060""
","
","
","""event"",""trial"",""time""
""fullscreenenter"",""5"",""22060""
","
",NA,NA,NA,NA,NA,NA,NA,NA,NA,NA,NA,NA,NA,NA,NA,NA,NA,NA,NA,NA,NA,NA,sub10
d3-instructions,45,290345,0.0-45.0,TRUE,TRUE,TRUE,TRUE,"""event"",""trial"",""time""
""fullscreenenter"",""5"",""22060""
","
","
","""event"",""trial"",""time""
""fullscreenenter"",""5"",""22060""
","
",NA,NA,NA,NA,NA,NA,NA,NA,NA,NA,NA,NA,NA,NA,NA,NA,NA,NA,NA,NA,NA,NA,sub10
d3-instructions,46,296335,0.0-46.0,TRUE,TRUE,TRUE,TRUE,"""event"",""trial"",""time""
""fullscreenenter"",""5"",""22060""
","
","
","""event"",""trial"",""time""
""fullscreenenter"",""5"",""22060""
","
",NA,NA,NA,NA,NA,NA,NA,NA,NA,NA,NA,NA,NA,NA,NA,NA,NA,NA,NA,NA,NA,NA,sub10
d3-instructions,47,314711,0.0-47.0,TRUE,TRUE,TRUE,TRUE,"""event"",""trial"",""time""
""fullscreenenter"",""5"",""22060""
","
","
","""event"",""trial"",""time""
""fullscreenenter"",""5"",""22060""
","
",NA,NA,NA,NA,NA,NA,NA,NA,NA,NA,NA,NA,NA,NA,NA,NA,NA,NA,NA,NA,NA,NA,sub10
d3-instructions,48,323296,0.0-48.0,TRUE,TRUE,TRUE,TRUE,"""event"",""trial"",""time""
""fullscreenenter"",""5"",""22060""
","
","
","""event"",""trial"",""time""
""fullscreenenter"",""5"",""22060""
","
",NA,NA,NA,NA,NA,NA,NA,NA,NA,NA,NA,NA,NA,NA,NA,NA,NA,NA,NA,NA,NA,NA,sub10
d3-instructions,49,334927,0.0-49.0,TRUE,TRUE,TRUE,TRUE,"""event"",""trial"",""time""
""fullscreenenter"",""5"",""22060""
","
","
","""event"",""trial"",""time""
""fullscreenenter"",""5"",""22060""
","
",NA,NA,NA,NA,NA,NA,NA,NA,NA,NA,NA,NA,NA,NA,NA,NA,NA,NA,NA,NA,NA,NA,sub10
d3-instructions,50,344843,0.0-50.0,TRUE,TRUE,TRUE,TRUE,"""event"",""trial"",""time""
""fullscreenenter"",""5"",""22060""
","
","
","""event"",""trial"",""time""
""fullscreenenter"",""5"",""22060""
","
",NA,NA,NA,NA,NA,NA,NA,NA,NA,NA,NA,NA,NA,NA,NA,NA,NA,NA,NA,NA,NA,NA,sub10
d3-instructions,51,348338,0.0-51.0,TRUE,TRUE,TRUE,TRUE,"""event"",""trial"",""time""
""fullscreenenter"",""5"",""22060""
","
","
","""event"",""trial"",""time""
""fullscreenenter"",""5"",""22060""
","
",NA,NA,NA,NA,NA,NA,NA,NA,NA,NA,NA,NA,NA,NA,NA,NA,NA,NA,NA,NA,NA,NA,sub10
d3-instructions,52,353203,0.0-52.0,TRUE,TRUE,TRUE,TRUE,"""event"",""trial"",""time""
""fullscreenenter"",""5"",""22060""
","
","
","""event"",""trial"",""time""
""fullscreenenter"",""5"",""22060""
","
",NA,NA,NA,NA,NA,NA,NA,NA,NA,NA,NA,NA,NA,NA,NA,NA,NA,NA,NA,NA,NA,NA,sub10
d3-instructions,53,365802,0.0-53.0,TRUE,TRUE,TRUE,TRUE,"""event"",""trial"",""time""
""fullscreenenter"",""5"",""22060""
","
","
","""event"",""trial"",""time""
""fullscreenenter"",""5"",""22060""
","
",NA,NA,NA,NA,NA,NA,NA,NA,NA,NA,NA,NA,NA,NA,NA,NA,NA,NA,NA,NA,NA,NA,sub10
d3-instructions,54,378642,0.0-54.0,TRUE,TRUE,TRUE,TRUE,"""event"",""trial"",""time""
""fullscreenenter"",""5"",""22060""
","
","
","""event"",""trial"",""time""
""fullscreenenter"",""5"",""22060""
","
",NA,NA,NA,NA,NA,NA,NA,NA,NA,NA,NA,NA,NA,NA,NA,NA,NA,NA,NA,NA,NA,NA,sub10
d3-instructions,55,389401,0.0-55.0,TRUE,TRUE,TRUE,TRUE,"""event"",""trial"",""time""
""fullscreenenter"",""5"",""22060""
","
","
","""event"",""trial"",""time""
""fullscreenenter"",""5"",""22060""
","
",NA,NA,NA,NA,NA,NA,NA,NA,NA,NA,NA,NA,NA,NA,NA,NA,NA,NA,NA,NA,NA,NA,sub10
d3-instructions,56,398055,0.0-56.0,TRUE,TRUE,TRUE,TRUE,"""event"",""trial"",""time""
""fullscreenenter"",""5"",""22060""
","
","
","""event"",""trial"",""time""
""fullscreenenter"",""5"",""22060""
","
",NA,NA,NA,NA,NA,NA,NA,NA,NA,NA,NA,NA,NA,NA,NA,NA,NA,NA,NA,NA,NA,NA,sub10
d3-instructions,57,408349,0.0-57.0,TRUE,TRUE,TRUE,TRUE,"""event"",""trial"",""time""
""fullscreenenter"",""5"",""22060""
","
","
","""event"",""trial"",""time""
""fullscreenenter"",""5"",""22060""
","
",NA,NA,NA,NA,NA,NA,NA,NA,NA,NA,NA,NA,NA,NA,NA,NA,NA,NA,NA,NA,NA,NA,sub10
d3-instructions,58,420577,0.0-58.0,TRUE,TRUE,TRUE,TRUE,"""event"",""trial"",""time""
""fullscreenenter"",""5"",""22060""
","
","
","""event"",""trial"",""time""
""fullscreenenter"",""5"",""22060""
","
",NA,NA,NA,NA,NA,NA,NA,NA,NA,NA,NA,NA,NA,NA,NA,NA,NA,NA,NA,NA,NA,NA,sub10
d3-instructions,59,426916,0.0-59.0,TRUE,TRUE,TRUE,TRUE,"""event"",""trial"",""time""
""fullscreenenter"",""5"",""22060""
","
","
","""event"",""trial"",""time""
""fullscreenenter"",""5"",""22060""
","
",NA,NA,NA,NA,NA,NA,NA,NA,NA,NA,NA,NA,NA,NA,NA,NA,NA,NA,NA,NA,NA,NA,sub10
d3-instructions,60,434994,0.0-60.0,TRUE,TRUE,TRUE,TRUE,"""event"",""trial"",""time""
""fullscreenenter"",""5"",""22060""
","
","
","""event"",""trial"",""time""
""fullscreenenter"",""5"",""22060""
","
",NA,NA,NA,NA,NA,NA,NA,NA,NA,NA,NA,NA,NA,NA,NA,NA,NA,NA,NA,NA,NA,NA,sub10
d3-animate-choice,61,438805,0.0-61.0-0.0,TRUE,TRUE,TRUE,TRUE,"""event"",""trial"",""time""
""fullscreenenter"",""5"",""22060""
","
","
","""event"",""trial"",""time""
""fullscreenenter"",""5"",""22060""
","
",1806.2450000434183,NA,49,NA,NA,3000,1,NA,NA,images/earth.jpg,images/tutrocket2,images/tutrocket1,null,images/tutrocket1,NA,1,practice,null,1,NA,NA,NA,sub10
d3-animate-choice,62,442812,0.0-61.0-1.0,TRUE,TRUE,TRUE,TRUE,"""event"",""trial"",""time""
""fullscreenenter"",""5"",""22060""
","
","
","""event"",""trial"",""time""
""fullscreenenter"",""5"",""22060""
","
",2534.1649999609217,NA,49,NA,NA,3000,1,NA,NA,images/tutgreenplanet.jpg,images/tutalien2,images/tutalien1,images/tutrocket1,images/tutalien1,images/nothing.png,2,practice,true,1,common,0,2020-06-12T19:37:17Z,sub10
two-step-fixation,63,443819,0.0-61.0-2.0,TRUE,TRUE,TRUE,TRUE,"""event"",""trial"",""time""
""fullscreenenter"",""5"",""22060""
","
","
","""event"",""trial"",""time""
""fullscreenenter"",""5"",""22060""
","
",NA,images/earth.jpg,NA,NA,NA,NA,NA,NA,NA,NA,NA,NA,NA,NA,NA,fixation,NA,NA,NA,NA,NA,NA,sub10
d3-animate-choice,64,446784,0.0-61.0-0.1,TRUE,TRUE,TRUE,TRUE,"""event"",""trial"",""time""
""fullscreenenter"",""5"",""22060""
","
","
","""event"",""trial"",""time""
""fullscreenenter"",""5"",""22060""
","
",959.2849999899045,NA,48,NA,NA,3000,1,NA,NA,images/earth.jpg,images/tutrocket2,images/tutrocket1,null,images/tutrocket2,NA,1,practice,null,2,NA,NA,NA,sub10
d3-animate-choice,65,450037,0.0-61.0-1.1,TRUE,TRUE,TRUE,TRUE,"""event"",""trial"",""time""
""fullscreenenter"",""5"",""22060""
","
","
","""event"",""trial"",""time""
""fullscreenenter"",""5"",""22060""
","
",1250.89999998454,NA,49,NA,NA,3000,1,NA,NA,images/tutyellowplanet.jpg,images/tutalien4,images/tutalien3,images/tutrocket2,images/tutalien3,images/nothing.png,2,practice,true,1,common,0,2020-06-12T19:37:24Z,sub10
two-step-fixation,66,451042,0.0-61.0-2.1,TRUE,TRUE,TRUE,TRUE,"""event"",""trial"",""time""
""fullscreenenter"",""5"",""22060""
","
","
","""event"",""trial"",""time""
""fullscreenenter"",""5"",""22060""
","
",NA,images/earth.jpg,NA,NA,NA,NA,NA,NA,NA,NA,NA,NA,NA,NA,NA,fixation,NA,NA,NA,NA,NA,NA,sub10
d3-animate-choice,67,454075,0.0-61.0-0.2,TRUE,TRUE,TRUE,TRUE,"""event"",""trial"",""time""
""fullscreenenter"",""5"",""22060""
","
","
","""event"",""trial"",""time""
""fullscreenenter"",""5"",""22060""
","
",1025.8299999986775,NA,49,NA,NA,3000,1,NA,NA,images/earth.jpg,images/tutrocket2,images/tutrocket1,null,images/tutrocket1,NA,1,practice,null,1,NA,NA,NA,sub10
d3-animate-choice,68,457256,0.0-61.0-1.2,TRUE,TRUE,TRUE,TRUE,"""event"",""trial"",""time""
""fullscreenenter"",""5"",""22060""
","
","
","""event"",""trial"",""time""
""fullscreenenter"",""5"",""22060""
","
",1178.3900000154972,NA,48,NA,NA,3000,1,NA,NA,images/tutgreenplanet.jpg,images/tutalien2,images/tutalien1,images/tutrocket1,images/tutalien2,images/nothing.png,2,practice,true,2,common,0,2020-06-12T19:37:31Z,sub10
two-step-fixation,69,458261,0.0-61.0-2.2,TRUE,TRUE,TRUE,TRUE,"""event"",""trial"",""time""
""fullscreenenter"",""5"",""22060""
","
","
","""event"",""trial"",""time""
""fullscreenenter"",""5"",""22060""
","
",NA,images/earth.jpg,NA,NA,NA,NA,NA,NA,NA,NA,NA,NA,NA,NA,NA,fixation,NA,NA,NA,NA,NA,NA,sub10
d3-animate-choice,70,461139,0.0-61.0-0.3,TRUE,TRUE,TRUE,TRUE,"""event"",""trial"",""time""
""fullscreenenter"",""5"",""22060""
","
","
","""event"",""trial"",""time""
""fullscreenenter"",""5"",""22060""
","
",873.4399999957532,NA,48,NA,NA,3000,1,NA,NA,images/earth.jpg,images/tutrocket2,images/tutrocket1,null,images/tutrocket2,NA,1,practice,null,2,NA,NA,NA,sub10
d3-animate-choice,71,464017,0.0-61.0-1.3,TRUE,TRUE,TRUE,TRUE,"""event"",""trial"",""time""
""fullscreenenter"",""5"",""22060""
","
","
","""event"",""trial"",""time""
""fullscreenenter"",""5"",""22060""
","
",875.1199999824166,NA,48,NA,NA,3000,1,NA,NA,images/tutyellowplanet.jpg,images/tutalien4,images/tutalien3,images/tutrocket2,images/tutalien4,images/t.png,2,practice,true,2,common,1,2020-06-12T19:37:38Z,sub10
two-step-fixation,72,465023,0.0-61.0-2.3,TRUE,TRUE,TRUE,TRUE,"""event"",""trial"",""time""
""fullscreenenter"",""5"",""22060""
","
","
","""event"",""trial"",""time""
""fullscreenenter"",""5"",""22060""
","
",NA,images/earth.jpg,NA,NA,NA,NA,NA,NA,NA,NA,NA,NA,NA,NA,NA,fixation,NA,NA,NA,NA,NA,NA,sub10
d3-animate-choice,73,468221,0.0-61.0-0.4,TRUE,TRUE,TRUE,TRUE,"""event"",""trial"",""time""
""fullscreenenter"",""5"",""22060""
","
","
","""event"",""trial"",""time""
""fullscreenenter"",""5"",""22060""
","
",1189.9299999931827,NA,48,NA,NA,3000,1,NA,NA,images/earth.jpg,images/tutrocket2,images/tutrocket1,null,images/tutrocket2,NA,1,practice,null,2,NA,NA,NA,sub10
d3-animate-choice,74,472226,0.0-61.0-1.4,TRUE,TRUE,TRUE,TRUE,"""event"",""trial"",""time""
""fullscreenenter"",""5"",""22060""
","
","
","""event"",""trial"",""time""
""fullscreenenter"",""5"",""22060""
","
",2346.7950000194833,NA,48,NA,NA,3000,1,NA,NA,images/tutgreenplanet.jpg,images/tutalien2,images/tutalien1,images/tutrocket2,images/tutalien2,images/t.png,2,practice,false,2,rare,1,2020-06-12T19:37:46Z,sub10
two-step-fixation,75,473233,0.0-61.0-2.4,TRUE,TRUE,TRUE,TRUE,"""event"",""trial"",""time""
""fullscreenenter"",""5"",""22060""
","
","
","""event"",""trial"",""time""
""fullscreenenter"",""5"",""22060""
","
",NA,images/earth.jpg,NA,NA,NA,NA,NA,NA,NA,NA,NA,NA,NA,NA,NA,fixation,NA,NA,NA,NA,NA,NA,sub10
d3-animate-choice,76,476466,0.0-61.0-0.5,TRUE,TRUE,TRUE,TRUE,"""event"",""trial"",""time""
""fullscreenenter"",""5"",""22060""
","
","
","""event"",""trial"",""time""
""fullscreenenter"",""5"",""22060""
","
",1229.375000053551,NA,48,NA,NA,3000,1,NA,NA,images/earth.jpg,images/tutrocket2,images/tutrocket1,null,images/tutrocket2,NA,1,practice,null,2,NA,NA,NA,sub10
d3-animate-choice,77,480472,0.0-61.0-1.5,TRUE,TRUE,TRUE,TRUE,"""event"",""trial"",""time""
""fullscreenenter"",""5"",""22060""
","
","
","""event"",""trial"",""time""
""fullscreenenter"",""5"",""22060""
","
",2889.4750000326894,NA,48,NA,NA,3000,1,NA,NA,images/tutgreenplanet.jpg,images/tutalien2,images/tutalien1,images/tutrocket2,images/tutalien2,NA,2,practice,false,2,rare,0,2020-06-12T19:37:55Z,sub10
two-step-fixation,78,481479,0.0-61.0-2.5,TRUE,TRUE,TRUE,TRUE,"""event"",""trial"",""time""
""fullscreenenter"",""5"",""22060""
","
","
","""event"",""trial"",""time""
""fullscreenenter"",""5"",""22060""
","
",NA,images/earth.jpg,NA,NA,NA,NA,NA,NA,NA,NA,NA,NA,NA,NA,NA,fixation,NA,NA,NA,NA,NA,NA,sub10
d3-animate-choice,79,484393,0.0-61.0-0.6,TRUE,TRUE,TRUE,TRUE,"""event"",""trial"",""time""
""fullscreenenter"",""5"",""22060""
","
","
","""event"",""trial"",""time""
""fullscreenenter"",""5"",""22060""
","
",910.2699999930337,NA,49,NA,NA,3000,1,NA,NA,images/earth.jpg,images/tutrocket2,images/tutrocket1,null,images/tutrocket1,NA,1,practice,null,1,NA,NA,NA,sub10
d3-animate-choice,80,487547,0.0-61.0-1.6,TRUE,TRUE,TRUE,TRUE,"""event"",""trial"",""time""
""fullscreenenter"",""5"",""22060""
","
","
","""event"",""trial"",""time""
""fullscreenenter"",""5"",""22060""
","
",1150.2549999859184,NA,48,NA,NA,3000,1,NA,NA,images/tutyellowplanet.jpg,images/tutalien4,images/tutalien3,images/tutrocket1,images/tutalien4,images/t.png,2,practice,false,2,rare,1,2020-06-12T19:38:02Z,sub10
two-step-fixation,81,488550,0.0-61.0-2.6,TRUE,TRUE,TRUE,TRUE,"""event"",""trial"",""time""
""fullscreenenter"",""5"",""22060""
","
","
","""event"",""trial"",""time""
""fullscreenenter"",""5"",""22060""
","
",NA,images/earth.jpg,NA,NA,NA,NA,NA,NA,NA,NA,NA,NA,NA,NA,NA,fixation,NA,NA,NA,NA,NA,NA,sub10
d3-animate-choice,82,491159,0.0-61.0-0.7,TRUE,TRUE,TRUE,TRUE,"""event"",""trial"",""time""
""fullscreenenter"",""5"",""22060""
","
","
","""event"",""trial"",""time""
""fullscreenenter"",""5"",""22060""
","
",604.2550000129268,NA,48,NA,NA,3000,1,NA,NA,images/earth.jpg,images/tutrocket2,images/tutrocket1,null,images/tutrocket2,NA,1,practice,null,2,NA,NA,NA,sub10
d3-animate-choice,83,494247,0.0-61.0-1.7,TRUE,TRUE,TRUE,TRUE,"""event"",""trial"",""time""
""fullscreenenter"",""5"",""22060""
","
","
","""event"",""trial"",""time""
""fullscreenenter"",""5"",""22060""
","
",1084.8550000227988,NA,48,NA,NA,3000,1,NA,NA,images/tutyellowplanet.jpg,images/tutalien4,images/tutalien3,images/tutrocket2,images/tutalien4,images/t.png,2,practice,true,2,common,1,2020-06-12T19:38:08Z,sub10
two-step-fixation,84,495251,0.0-61.0-2.7,TRUE,TRUE,TRUE,TRUE,"""event"",""trial"",""time""
""fullscreenenter"",""5"",""22060""
","
","
","""event"",""trial"",""time""
""fullscreenenter"",""5"",""22060""
","
",NA,images/earth.jpg,NA,NA,NA,NA,NA,NA,NA,NA,NA,NA,NA,NA,NA,fixation,NA,NA,NA,NA,NA,NA,sub10
d3-animate-choice,85,497911,0.0-61.0-0.8,TRUE,TRUE,TRUE,TRUE,"""event"",""trial"",""time""
""fullscreenenter"",""5"",""22060""
","
","
","""event"",""trial"",""time""
""fullscreenenter"",""5"",""22060""
","
",654.8600000096485,NA,49,NA,NA,3000,1,NA,NA,images/earth.jpg,images/tutrocket2,images/tutrocket1,null,images/tutrocket1,NA,1,practice,null,1,NA,NA,NA,sub10
d3-animate-choice,86,500827,0.0-61.0-1.8,TRUE,TRUE,TRUE,TRUE,"""event"",""trial"",""time""
""fullscreenenter"",""5"",""22060""
","
","
","""event"",""trial"",""time""
""fullscreenenter"",""5"",""22060""
","
",912.5249999924563,NA,49,NA,NA,3000,1,NA,NA,images/tutgreenplanet.jpg,images/tutalien2,images/tutalien1,images/tutrocket1,images/tutalien1,images/nothing.png,2,practice,true,1,common,0,2020-06-12T19:38:15Z,sub10
two-step-fixation,87,501831,0.0-61.0-2.8,TRUE,TRUE,TRUE,TRUE,"""event"",""trial"",""time""
""fullscreenenter"",""5"",""22060""
","
","
","""event"",""trial"",""time""
""fullscreenenter"",""5"",""22060""
","
",NA,images/earth.jpg,NA,NA,NA,NA,NA,NA,NA,NA,NA,NA,NA,NA,NA,fixation,NA,NA,NA,NA,NA,NA,sub10
d3-animate-choice,88,504674,0.0-61.0-0.9,TRUE,TRUE,TRUE,TRUE,"""event"",""trial"",""time""
""fullscreenenter"",""5"",""22060""
","
","
","""event"",""trial"",""time""
""fullscreenenter"",""5"",""22060""
","
",837.3950000386685,NA,48,NA,NA,3000,1,NA,NA,images/earth.jpg,images/tutrocket2,images/tutrocket1,null,images/tutrocket2,NA,1,practice,null,2,NA,NA,NA,sub10
d3-animate-choice,89,507412,0.0-61.0-1.9,TRUE,TRUE,TRUE,TRUE,"""event"",""trial"",""time""
""fullscreenenter"",""5"",""22060""
","
","
","""event"",""trial"",""time""
""fullscreenenter"",""5"",""22060""
","
",735.1099999505095,NA,49,NA,NA,3000,1,NA,NA,images/tutyellowplanet.jpg,images/tutalien4,images/tutalien3,images/tutrocket2,images/tutalien3,images/nothing.png,2,practice,true,1,common,0,2020-06-12T19:38:22Z,sub10
two-step-fixation,90,508417,0.0-61.0-2.9,TRUE,TRUE,TRUE,TRUE,"""event"",""trial"",""time""
""fullscreenenter"",""5"",""22060""
","
","
","""event"",""trial"",""time""
""fullscreenenter"",""5"",""22060""
","
",NA,images/earth.jpg,NA,NA,NA,NA,NA,NA,NA,NA,NA,NA,NA,NA,NA,fixation,NA,NA,NA,NA,NA,NA,sub10
d3-animate-choice,91,511212,0.0-61.0-0.10,TRUE,TRUE,TRUE,TRUE,"""event"",""trial"",""time""
""fullscreenenter"",""5"",""22060""
","
","
","""event"",""trial"",""time""
""fullscreenenter"",""5"",""22060""
","
",790.755000023637,NA,49,NA,NA,3000,1,NA,NA,images/earth.jpg,images/tutrocket2,images/tutrocket1,null,images/tutrocket1,NA,1,practice,null,1,NA,NA,NA,sub10
d3-animate-choice,92,513744,0.0-61.0-1.10,TRUE,TRUE,TRUE,TRUE,"""event"",""trial"",""time""
""fullscreenenter"",""5"",""22060""
","
","
","""event"",""trial"",""time""
""fullscreenenter"",""5"",""22060""
","
",529.0950000053272,NA,48,NA,NA,3000,1,NA,NA,images/tutgreenplanet.jpg,images/tutalien2,images/tutalien1,images/tutrocket1,images/tutalien2,images/t.png,2,practice,true,2,common,1,2020-06-12T19:38:28Z,sub10
two-step-fixation,93,514748,0.0-61.0-2.10,TRUE,TRUE,TRUE,TRUE,"""event"",""trial"",""time""
""fullscreenenter"",""5"",""22060""
","
","
","""event"",""trial"",""time""
""fullscreenenter"",""5"",""22060""
","
",NA,images/earth.jpg,NA,NA,NA,NA,NA,NA,NA,NA,NA,NA,NA,NA,NA,fixation,NA,NA,NA,NA,NA,NA,sub10
d3-animate-choice,94,517260,0.0-61.0-0.11,TRUE,TRUE,TRUE,TRUE,"""event"",""trial"",""time""
""fullscreenenter"",""5"",""22060""
","
","
","""event"",""trial"",""time""
""fullscreenenter"",""5"",""22060""
","
",507.95999995898455,NA,48,NA,NA,3000,1,NA,NA,images/earth.jpg,images/tutrocket2,images/tutrocket1,null,images/tutrocket2,NA,1,practice,null,2,NA,NA,NA,sub10
d3-animate-choice,95,519829,0.0-61.0-1.11,TRUE,TRUE,TRUE,TRUE,"""event"",""trial"",""time""
""fullscreenenter"",""5"",""22060""
","
","
","""event"",""trial"",""time""
""fullscreenenter"",""5"",""22060""
","
",564.9299999931827,NA,48,NA,NA,3000,1,NA,NA,images/tutyellowplanet.jpg,images/tutalien4,images/tutalien3,images/tutrocket2,images/tutalien4,images/nothing.png,2,practice,true,2,common,0,2020-06-12T19:38:34Z,sub10
two-step-fixation,96,520834,0.0-61.0-2.11,TRUE,TRUE,TRUE,TRUE,"""event"",""trial"",""time""
""fullscreenenter"",""5"",""22060""
","
","
","""event"",""trial"",""time""
""fullscreenenter"",""5"",""22060""
","
",NA,images/earth.jpg,NA,NA,NA,NA,NA,NA,NA,NA,NA,NA,NA,NA,NA,fixation,NA,NA,NA,NA,NA,NA,sub10
d3-animate-choice,97,523388,0.0-61.0-0.12,TRUE,TRUE,TRUE,TRUE,"""event"",""trial"",""time""
""fullscreenenter"",""5"",""22060""
","
","
","""event"",""trial"",""time""
""fullscreenenter"",""5"",""22060""
","
",549.6599999605678,NA,49,NA,NA,3000,1,NA,NA,images/earth.jpg,images/tutrocket2,images/tutrocket1,null,images/tutrocket1,NA,1,practice,null,1,NA,NA,NA,sub10
d3-animate-choice,98,526556,0.0-61.0-1.12,TRUE,TRUE,TRUE,TRUE,"""event"",""trial"",""time""
""fullscreenenter"",""5"",""22060""
","
","
","""event"",""trial"",""time""
""fullscreenenter"",""5"",""22060""
","
",1162.705000024289,NA,48,NA,NA,3000,1,NA,NA,images/tutgreenplanet.jpg,images/tutalien2,images/tutalien1,images/tutrocket1,images/tutalien2,images/nothing.png,2,practice,true,2,common,0,2020-06-12T19:38:41Z,sub10
two-step-fixation,99,527561,0.0-61.0-2.12,TRUE,TRUE,TRUE,TRUE,"""event"",""trial"",""time""
""fullscreenenter"",""5"",""22060""
","
","
","""event"",""trial"",""time""
""fullscreenenter"",""5"",""22060""
","
",NA,images/earth.jpg,NA,NA,NA,NA,NA,NA,NA,NA,NA,NA,NA,NA,NA,fixation,NA,NA,NA,NA,NA,NA,sub10
d3-animate-choice,100,530599,0.0-61.0-0.13,TRUE,TRUE,TRUE,TRUE,"""event"",""trial"",""time""
""fullscreenenter"",""5"",""22060""
","
","
","""event"",""trial"",""time""
""fullscreenenter"",""5"",""22060""
","
",1029.6950000338256,NA,49,NA,NA,3000,1,NA,NA,images/earth.jpg,images/tutrocket2,images/tutrocket1,null,images/tutrocket1,NA,1,practice,null,1,NA,NA,NA,sub10
d3-animate-choice,101,533618,0.0-61.0-1.13,TRUE,TRUE,TRUE,TRUE,"""event"",""trial"",""time""
""fullscreenenter"",""5"",""22060""
","
","
","""event"",""trial"",""time""
""fullscreenenter"",""5"",""22060""
","
",1014.8150000022724,NA,49,NA,NA,3000,1,NA,NA,images/tutyellowplanet.jpg,images/tutalien4,images/tutalien3,images/tutrocket1,images/tutalien3,images/t.png,2,practice,false,1,rare,1,2020-06-12T19:38:48Z,sub10
two-step-fixation,102,534622,0.0-61.0-2.13,TRUE,TRUE,TRUE,TRUE,"""event"",""trial"",""time""
""fullscreenenter"",""5"",""22060""
","
","
","""event"",""trial"",""time""
""fullscreenenter"",""5"",""22060""
","
",NA,images/earth.jpg,NA,NA,NA,NA,NA,NA,NA,NA,NA,NA,NA,NA,NA,fixation,NA,NA,NA,NA,NA,NA,sub10
d3-animate-choice,103,537239,0.0-61.0-0.14,TRUE,TRUE,TRUE,TRUE,"""event"",""trial"",""time""
""fullscreenenter"",""5"",""22060""
","
","
","""event"",""trial"",""time""
""fullscreenenter"",""5"",""22060""
","
",615.0800000177696,NA,48,NA,NA,3000,1,NA,NA,images/earth.jpg,images/tutrocket2,images/tutrocket1,null,images/tutrocket2,NA,1,practice,null,2,NA,NA,NA,sub10
d3-animate-choice,104,540679,0.0-61.0-1.14,TRUE,TRUE,TRUE,TRUE,"""event"",""trial"",""time""
""fullscreenenter"",""5"",""22060""
","
","
","""event"",""trial"",""time""
""fullscreenenter"",""5"",""22060""
","
",1434.0749999973923,NA,49,NA,NA,3000,1,NA,NA,images/tutgreenplanet.jpg,images/tutalien2,images/tutalien1,images/tutrocket2,images/tutalien1,images/t.png,2,practice,false,1,rare,1,2020-06-12T19:38:55Z,sub10
two-step-fixation,105,541682,0.0-61.0-2.14,TRUE,TRUE,TRUE,TRUE,"""event"",""trial"",""time""
""fullscreenenter"",""5"",""22060""
","
","
","""event"",""trial"",""time""
""fullscreenenter"",""5"",""22060""
","
",NA,images/earth.jpg,NA,NA,NA,NA,NA,NA,NA,NA,NA,NA,NA,NA,NA,fixation,NA,NA,NA,NA,NA,NA,sub10
d3-animate-choice,106,545496,0.0-61.0-0.15,TRUE,TRUE,TRUE,TRUE,"""event"",""trial"",""time""
""fullscreenenter"",""5"",""22060""
","
","
","""event"",""trial"",""time""
""fullscreenenter"",""5"",""22060""
","
",1809.8699999973178,NA,49,NA,NA,3000,1,NA,NA,images/earth.jpg,images/tutrocket2,images/tutrocket1,null,images/tutrocket1,NA,1,practice,null,1,NA,NA,NA,sub10
d3-animate-choice,107,549506,0.0-61.0-1.15,TRUE,TRUE,TRUE,TRUE,"""event"",""trial"",""time""
""fullscreenenter"",""5"",""22060""
","
","
","""event"",""trial"",""time""
""fullscreenenter"",""5"",""22060""
","
",2550.4450000007637,NA,48,NA,NA,3000,1,NA,NA,images/tutgreenplanet.jpg,images/tutalien2,images/tutalien1,images/tutrocket1,images/tutalien2,images/t.png,2,practice,true,2,common,1,2020-06-12T19:39:04Z,sub10
two-step-fixation,108,550509,0.0-61.0-2.15,TRUE,TRUE,TRUE,TRUE,"""event"",""trial"",""time""
""fullscreenenter"",""5"",""22060""
","
","
","""event"",""trial"",""time""
""fullscreenenter"",""5"",""22060""
","
",NA,images/earth.jpg,NA,NA,NA,NA,NA,NA,NA,NA,NA,NA,NA,NA,NA,fixation,NA,NA,NA,NA,NA,NA,sub10
d3-animate-choice,109,553199,0.0-61.0-0.16,TRUE,TRUE,TRUE,TRUE,"""event"",""trial"",""time""
""fullscreenenter"",""5"",""22060""
","
","
","""event"",""trial"",""time""
""fullscreenenter"",""5"",""22060""
","
",686.2249999539927,NA,48,NA,NA,3000,1,NA,NA,images/earth.jpg,images/tutrocket2,images/tutrocket1,null,images/tutrocket2,NA,1,practice,null,2,NA,NA,NA,sub10
d3-animate-choice,110,557206,0.0-61.0-1.16,TRUE,TRUE,TRUE,TRUE,"""event"",""trial"",""time""
""fullscreenenter"",""5"",""22060""
","
","
","""event"",""trial"",""time""
""fullscreenenter"",""5"",""22060""
","
",null,NA,null,NA,NA,3000,0,NA,NA,images/tutyellowplanet.jpg,images/tutalien4,images/tutalien3,images/tutrocket2,NA,NA,2,practice,true,NA,common,0,2020-06-12T19:39:11Z,sub10
two-step-fixation,111,558211,0.0-61.0-2.16,TRUE,TRUE,TRUE,TRUE,"""event"",""trial"",""time""
""fullscreenenter"",""5"",""22060""
","
","
","""event"",""trial"",""time""
""fullscreenenter"",""5"",""22060""
","
",NA,images/earth.jpg,NA,NA,NA,NA,NA,NA,NA,NA,NA,NA,NA,NA,NA,fixation,NA,NA,NA,NA,NA,NA,sub10
d3-animate-choice,112,560928,0.0-61.0-0.17,TRUE,TRUE,TRUE,TRUE,"""event"",""trial"",""time""
""fullscreenenter"",""5"",""22060""
","
","
","""event"",""trial"",""time""
""fullscreenenter"",""5"",""22060""
","
",711.4699999801815,NA,49,NA,NA,3000,1,NA,NA,images/earth.jpg,images/tutrocket2,images/tutrocket1,null,images/tutrocket1,NA,1,practice,null,1,NA,NA,NA,sub10
d3-animate-choice,113,563511,0.0-61.0-1.17,TRUE,TRUE,TRUE,TRUE,"""event"",""trial"",""time""
""fullscreenenter"",""5"",""22060""
","
","
","""event"",""trial"",""time""
""fullscreenenter"",""5"",""22060""
","
",578.5150000010617,NA,48,NA,NA,3000,1,NA,NA,images/tutgreenplanet.jpg,images/tutalien2,images/tutalien1,images/tutrocket1,images/tutalien2,images/nothing.png,2,practice,true,2,common,0,2020-06-12T19:39:18Z,sub10
two-step-fixation,114,564519,0.0-61.0-2.17,TRUE,TRUE,TRUE,TRUE,"""event"",""trial"",""time""
""fullscreenenter"",""5"",""22060""
","
","
","""event"",""trial"",""time""
""fullscreenenter"",""5"",""22060""
","
",NA,images/earth.jpg,NA,NA,NA,NA,NA,NA,NA,NA,NA,NA,NA,NA,NA,fixation,NA,NA,NA,NA,NA,NA,sub10
d3-animate-choice,115,567399,0.0-61.0-0.18,TRUE,TRUE,TRUE,TRUE,"""event"",""trial"",""time""
""fullscreenenter"",""5"",""22060""
","
","
","""event"",""trial"",""time""
""fullscreenenter"",""5"",""22060""
","
",873.1949999928474,NA,48,NA,NA,3000,1,NA,NA,images/earth.jpg,images/tutrocket2,images/tutrocket1,null,images/tutrocket2,NA,1,practice,null,2,NA,NA,NA,sub10
d3-animate-choice,116,569916,0.0-61.0-1.18,TRUE,TRUE,TRUE,TRUE,"""event"",""trial"",""time""
""fullscreenenter"",""5"",""22060""
","
","
","""event"",""trial"",""time""
""fullscreenenter"",""5"",""22060""
","
",514.2000000341795,NA,48,NA,NA,3000,1,NA,NA,images/tutyellowplanet.jpg,images/tutalien4,images/tutalien3,images/tutrocket2,images/tutalien4,images/t.png,2,practice,true,2,common,1,2020-06-12T19:39:24Z,sub10
two-step-fixation,117,570920,0.0-61.0-2.18,TRUE,TRUE,TRUE,TRUE,"""event"",""trial"",""time""
""fullscreenenter"",""5"",""22060""
","
","
","""event"",""trial"",""time""
""fullscreenenter"",""5"",""22060""
","
",NA,images/earth.jpg,NA,NA,NA,NA,NA,NA,NA,NA,NA,NA,NA,NA,NA,fixation,NA,NA,NA,NA,NA,NA,sub10
d3-animate-choice,118,573416,0.0-61.0-0.19,TRUE,TRUE,TRUE,TRUE,"""event"",""trial"",""time""
""fullscreenenter"",""5"",""22060""
","
","
","""event"",""trial"",""time""
""fullscreenenter"",""5"",""22060""
","
",492.57000000216067,NA,49,NA,NA,3000,1,NA,NA,images/earth.jpg,images/tutrocket2,images/tutrocket1,null,images/tutrocket1,NA,1,practice,null,1,NA,NA,NA,sub10
d3-animate-choice,119,576130,0.0-61.0-1.19,TRUE,TRUE,TRUE,TRUE,"""event"",""trial"",""time""
""fullscreenenter"",""5"",""22060""
","
","
","""event"",""trial"",""time""
""fullscreenenter"",""5"",""22060""
","
",711.0649999813177,NA,49,NA,NA,3000,1,NA,NA,images/tutgreenplanet.jpg,images/tutalien2,images/tutalien1,images/tutrocket1,images/tutalien1,images/nothing.png,2,practice,true,1,common,0,2020-06-12T19:39:30Z,sub10
two-step-fixation,120,577133,0.0-61.0-2.19,TRUE,TRUE,TRUE,TRUE,"""event"",""trial"",""time""
""fullscreenenter"",""5"",""22060""
","
","
","""event"",""trial"",""time""
""fullscreenenter"",""5"",""22060""
","
",NA,images/earth.jpg,NA,NA,NA,NA,NA,NA,NA,NA,NA,NA,NA,NA,NA,fixation,NA,NA,NA,NA,NA,NA,sub10
d3-instructions,121,584826,0.0-62.0,TRUE,TRUE,TRUE,TRUE,"""event"",""trial"",""time""
""fullscreenenter"",""5"",""22060""
","
","
","""event"",""trial"",""time""
""fullscreenenter"",""5"",""22060""
","
",NA,NA,NA,NA,NA,NA,NA,NA,NA,NA,NA,NA,NA,NA,NA,NA,NA,NA,NA,NA,NA,NA,sub10
audio-keyboard-response,122,593550,0.0-63.0,TRUE,TRUE,TRUE,TRUE,"""event"",""trial"",""time""
""fullscreenenter"",""5"",""22060""
","
","
","""event"",""trial"",""time""
""fullscreenenter"",""5"",""22060""
","
",8725,audio/instructions/treasure_feedback.wav,32,NA,NA,NA,NA,NA,NA,NA,NA,NA,NA,NA,NA,NA,NA,NA,NA,NA,NA,NA,sub10
d3-instructions,123,615138,0.0-64.0,TRUE,TRUE,TRUE,TRUE,"""event"",""trial"",""time""
""fullscreenenter"",""5"",""22060""
","
","
","""event"",""trial"",""time""
""fullscreenenter"",""5"",""22060""
","
",NA,NA,NA,NA,NA,NA,NA,NA,NA,NA,NA,NA,NA,NA,NA,NA,NA,NA,NA,NA,NA,NA,sub10
d3-instructions,124,629571,0.0-65.0,TRUE,TRUE,TRUE,TRUE,"""event"",""trial"",""time""
""fullscreenenter"",""5"",""22060""
","
","
","""event"",""trial"",""time""
""fullscreenenter"",""5"",""22060""
","
",NA,NA,NA,NA,NA,NA,NA,NA,NA,NA,NA,NA,NA,NA,NA,NA,NA,NA,NA,NA,NA,NA,sub10
d3-instructions,125,654930,0.0-66.0,TRUE,TRUE,TRUE,TRUE,"""event"",""trial"",""time""
""fullscreenenter"",""5"",""22060""
","
","
","""event"",""trial"",""time""
""fullscreenenter"",""5"",""22060""
","
",NA,NA,NA,NA,NA,NA,NA,NA,NA,NA,NA,NA,NA,NA,NA,NA,NA,NA,NA,NA,NA,NA,sub10
d3-instructions,126,671854,0.0-67.0,TRUE,TRUE,TRUE,TRUE,"""event"",""trial"",""time""
""fullscreenenter"",""5"",""22060""
","
","
","""event"",""trial"",""time""
""fullscreenenter"",""5"",""22060""
","
",NA,NA,NA,NA,NA,NA,NA,NA,NA,NA,NA,NA,NA,NA,NA,NA,NA,NA,NA,NA,NA,NA,sub10
d3-instructions,127,683015,0.0-68.0,TRUE,TRUE,TRUE,TRUE,"""event"",""trial"",""time""
""fullscreenenter"",""5"",""22060""
","
","
","""event"",""trial"",""time""
""fullscreenenter"",""5"",""22060""
","
",NA,NA,NA,NA,NA,NA,NA,NA,NA,NA,NA,NA,NA,NA,NA,NA,NA,NA,NA,NA,NA,NA,sub10
instructions-quiz,128,685783,0.0-69.0,TRUE,TRUE,TRUE,TRUE,"""event"",""trial"",""time""
""fullscreenenter"",""5"",""22060""
","
","
","""event"",""trial"",""time""
""fullscreenenter"",""5"",""22060""
","
",2766.5500000002794,audio/quiz/Q1_Prompt.wav,NA,1,NA,NA,NA,NA,NA,NA,NA,NA,NA,NA,NA,NA,NA,NA,NA,NA,NA,NA,sub10
audio-keyboard-response,129,694951,0.0-70.0,TRUE,TRUE,TRUE,TRUE,"""event"",""trial"",""time""
""fullscreenenter"",""5"",""22060""
","
","
","""event"",""trial"",""time""
""fullscreenenter"",""5"",""22060""
","
",null,audio/quiz/Q1_Correct.wav,null,NA,NA,NA,NA,NA,NA,NA,NA,NA,NA,NA,NA,NA,NA,NA,NA,NA,NA,NA,sub10
instructions-quiz,130,702452,0.0-71.0,TRUE,TRUE,TRUE,TRUE,"""event"",""trial"",""time""
""fullscreenenter"",""5"",""22060""
","
","
","""event"",""trial"",""time""
""fullscreenenter"",""5"",""22060""
","
",7499.9949999619275,audio/quiz/Q2_Prompt.wav,NA,0,NA,NA,NA,NA,NA,NA,NA,NA,NA,NA,NA,NA,NA,NA,NA,NA,NA,NA,sub10
audio-keyboard-response,131,715319,0.0-72.0,TRUE,TRUE,TRUE,TRUE,"""event"",""trial"",""time""
""fullscreenenter"",""5"",""22060""
","
","
","""event"",""trial"",""time""
""fullscreenenter"",""5"",""22060""
","
",null,audio/quiz/Q2_Correct.wav,null,NA,NA,NA,NA,NA,NA,NA,NA,NA,NA,NA,NA,NA,NA,NA,NA,NA,NA,NA,sub10
instructions-quiz,132,719591,0.0-73.0,TRUE,TRUE,TRUE,TRUE,"""event"",""trial"",""time""
""fullscreenenter"",""5"",""22060""
","
","
","""event"",""trial"",""time""
""fullscreenenter"",""5"",""22060""
","
",4270.459999970626,audio/quiz/Q3_Prompt.wav,NA,1,NA,NA,NA,NA,NA,NA,NA,NA,NA,NA,NA,NA,NA,NA,NA,NA,NA,NA,sub10
audio-keyboard-response,133,725394,0.0-74.0,TRUE,TRUE,TRUE,TRUE,"""event"",""trial"",""time""
""fullscreenenter"",""5"",""22060""
","
","
","""event"",""trial"",""time""
""fullscreenenter"",""5"",""22060""
","
",null,audio/quiz/Q3_Correct.wav,null,NA,NA,NA,NA,NA,NA,NA,NA,NA,NA,NA,NA,NA,NA,NA,NA,NA,NA,NA,sub10
d3-instructions,134,740046,0.0-75.0,TRUE,TRUE,TRUE,TRUE,"""event"",""trial"",""time""
""fullscreenenter"",""5"",""22060""
","
","
","""event"",""trial"",""time""
""fullscreenenter"",""5"",""22060""
","
",NA,NA,NA,NA,NA,NA,NA,NA,NA,NA,NA,NA,NA,NA,NA,NA,NA,NA,NA,NA,NA,NA,sub10
d3-animate-choice,135,744041,0.0-76.0-0.0,TRUE,TRUE,TRUE,TRUE,"""event"",""trial"",""time""
""fullscreenenter"",""5"",""22060""
","
","
","""event"",""trial"",""time""
""fullscreenenter"",""5"",""22060""
","
",1992.9999999585561,NA,48,NA,NA,3000,1,NA,NA,images/earth.jpg,images/rocket2,images/rocket1,null,images/rocket2,NA,1,real,null,2,NA,NA,NA,sub10
d3-animate-choice,136,747975,0.0-76.0-1.0,TRUE,TRUE,TRUE,TRUE,"""event"",""trial"",""time""
""fullscreenenter"",""5"",""22060""
","
","
","""event"",""trial"",""time""
""fullscreenenter"",""5"",""22060""
","
",1931.4049999811687,NA,49,NA,NA,3000,1,NA,NA,images/purpleplanet.jpg,images/alien4,images/alien3,images/rocket2,images/alien3,images/nothing.png,2,real,true,1,common,0,2020-06-12T19:42:22Z,sub10
two-step-fixation,137,748979,0.0-76.0-2.0,TRUE,TRUE,TRUE,TRUE,"""event"",""trial"",""time""
""fullscreenenter"",""5"",""22060""
","
","
","""event"",""trial"",""time""
""fullscreenenter"",""5"",""22060""
","
",NA,images/earth.jpg,NA,NA,NA,NA,NA,NA,NA,NA,NA,NA,NA,NA,NA,fixation,NA,NA,NA,NA,NA,NA,sub10
d3-animate-choice,138,751746,0.0-76.0-0.1,TRUE,TRUE,TRUE,TRUE,"""event"",""trial"",""time""
""fullscreenenter"",""5"",""22060""
","
","
","""event"",""trial"",""time""
""fullscreenenter"",""5"",""22060""
","
",762.7499999944121,NA,48,NA,NA,3000,1,NA,NA,images/earth.jpg,images/rocket2,images/rocket1,null,images/rocket2,NA,1,real,null,2,NA,NA,NA,sub10
d3-animate-choice,139,754952,0.0-76.0-1.1,TRUE,TRUE,TRUE,TRUE,"""event"",""trial"",""time""
""fullscreenenter"",""5"",""22060""
","
","
","""event"",""trial"",""time""
""fullscreenenter"",""5"",""22060""
","
",1203.754999965895,NA,48,NA,NA,3000,1,NA,NA,images/purpleplanet.jpg,images/alien4,images/alien3,images/rocket2,images/alien4,images/t.png,2,real,true,2,common,1,2020-06-12T19:42:29Z,sub10
two-step-fixation,140,755955,0.0-76.0-2.1,TRUE,TRUE,TRUE,TRUE,"""event"",""trial"",""time""
""fullscreenenter"",""5"",""22060""
","
","
","""event"",""trial"",""time""
""fullscreenenter"",""5"",""22060""
","
",NA,images/earth.jpg,NA,NA,NA,NA,NA,NA,NA,NA,NA,NA,NA,NA,NA,fixation,NA,NA,NA,NA,NA,NA,sub10
d3-animate-choice,141,758708,0.0-76.0-0.2,TRUE,TRUE,TRUE,TRUE,"""event"",""trial"",""time""
""fullscreenenter"",""5"",""22060""
","
","
","""event"",""trial"",""time""
""fullscreenenter"",""5"",""22060""
","
",750.0200000358745,NA,49,NA,NA,3000,1,NA,NA,images/earth.jpg,images/rocket2,images/rocket1,null,images/rocket1,NA,1,real,null,1,NA,NA,NA,sub10
d3-animate-choice,142,762031,0.0-76.0-1.2,TRUE,TRUE,TRUE,TRUE,"""event"",""trial"",""time""
""fullscreenenter"",""5"",""22060""
","
","
","""event"",""trial"",""time""
""fullscreenenter"",""5"",""22060""
","
",1319.5399999967776,NA,49,NA,NA,3000,1,NA,NA,images/redplanet1.jpg,images/alien2,images/alien1,images/rocket1,images/alien1,images/nothing.png,2,real,true,1,common,0,2020-06-12T19:42:36Z,sub10
two-step-fixation,143,763034,0.0-76.0-2.2,TRUE,TRUE,TRUE,TRUE,"""event"",""trial"",""time""
""fullscreenenter"",""5"",""22060""
","
","
","""event"",""trial"",""time""
""fullscreenenter"",""5"",""22060""
","
",NA,images/earth.jpg,NA,NA,NA,NA,NA,NA,NA,NA,NA,NA,NA,NA,NA,fixation,NA,NA,NA,NA,NA,NA,sub10
d3-animate-choice,144,765707,0.0-76.0-0.3,TRUE,TRUE,TRUE,TRUE,"""event"",""trial"",""time""
""fullscreenenter"",""5"",""22060""
","
","
","""event"",""trial"",""time""
""fullscreenenter"",""5"",""22060""
","
",670.6549999653362,NA,49,NA,NA,3000,1,NA,NA,images/earth.jpg,images/rocket2,images/rocket1,null,images/rocket1,NA,1,real,null,1,NA,NA,NA,sub10
d3-animate-choice,145,768734,0.0-76.0-1.3,TRUE,TRUE,TRUE,TRUE,"""event"",""trial"",""time""
""fullscreenenter"",""5"",""22060""
","
","
","""event"",""trial"",""time""
""fullscreenenter"",""5"",""22060""
","
",1023.1000000494532,NA,48,NA,NA,3000,1,NA,NA,images/redplanet1.jpg,images/alien2,images/alien1,images/rocket1,images/alien2,images/t.png,2,real,true,2,common,1,2020-06-12T19:42:43Z,sub10
two-step-fixation,146,769737,0.0-76.0-2.3,TRUE,TRUE,TRUE,TRUE,"""event"",""trial"",""time""
""fullscreenenter"",""5"",""22060""
","
","
","""event"",""trial"",""time""
""fullscreenenter"",""5"",""22060""
","
",NA,images/earth.jpg,NA,NA,NA,NA,NA,NA,NA,NA,NA,NA,NA,NA,NA,fixation,NA,NA,NA,NA,NA,NA,sub10
d3-animate-choice,147,772685,0.0-76.0-0.4,TRUE,TRUE,TRUE,TRUE,"""event"",""trial"",""time""
""fullscreenenter"",""5"",""22060""
","
","
","""event"",""trial"",""time""
""fullscreenenter"",""5"",""22060""
","
",942.1050000237301,NA,49,NA,NA,3000,1,NA,NA,images/earth.jpg,images/rocket2,images/rocket1,null,images/rocket1,NA,1,real,null,1,NA,NA,NA,sub10
d3-animate-choice,148,775377,0.0-76.0-1.4,TRUE,TRUE,TRUE,TRUE,"""event"",""trial"",""time""
""fullscreenenter"",""5"",""22060""
","
","
","""event"",""trial"",""time""
""fullscreenenter"",""5"",""22060""
","
",687.6800000318326,NA,48,NA,NA,3000,1,NA,NA,images/redplanet1.jpg,images/alien2,images/alien1,images/rocket1,images/alien2,images/t.png,2,real,true,2,common,1,2020-06-12T19:42:50Z,sub10
two-step-fixation,149,776379,0.0-76.0-2.4,TRUE,TRUE,TRUE,TRUE,"""event"",""trial"",""time""
""fullscreenenter"",""5"",""22060""
","
","
","""event"",""trial"",""time""
""fullscreenenter"",""5"",""22060""
","
",NA,images/earth.jpg,NA,NA,NA,NA,NA,NA,NA,NA,NA,NA,NA,NA,NA,fixation,NA,NA,NA,NA,NA,NA,sub10
d3-animate-choice,150,778983,0.0-76.0-0.5,TRUE,TRUE,TRUE,TRUE,"""event"",""trial"",""time""
""fullscreenenter"",""5"",""22060""
","
","
","""event"",""trial"",""time""
""fullscreenenter"",""5"",""22060""
","
",601.0050000040792,NA,48,NA,NA,3000,1,NA,NA,images/earth.jpg,images/rocket2,images/rocket1,null,images/rocket2,NA,1,real,null,2,NA,NA,NA,sub10
d3-animate-choice,151,781855,0.0-76.0-1.5,TRUE,TRUE,TRUE,TRUE,"""event"",""trial"",""time""
""fullscreenenter"",""5"",""22060""
","
","
","""event"",""trial"",""time""
""fullscreenenter"",""5"",""22060""
","
",868.4900000225753,NA,48,NA,NA,3000,1,NA,NA,images/purpleplanet.jpg,images/alien4,images/alien3,images/rocket2,images/alien4,images/t.png,2,real,true,2,common,1,2020-06-12T19:42:56Z,sub10
two-step-fixation,152,782859,0.0-76.0-2.5,TRUE,TRUE,TRUE,TRUE,"""event"",""trial"",""time""
""fullscreenenter"",""5"",""22060""
","
","
","""event"",""trial"",""time""
""fullscreenenter"",""5"",""22060""
","
",NA,images/earth.jpg,NA,NA,NA,NA,NA,NA,NA,NA,NA,NA,NA,NA,NA,fixation,NA,NA,NA,NA,NA,NA,sub10
d3-animate-choice,153,785445,0.0-76.0-0.6,TRUE,TRUE,TRUE,TRUE,"""event"",""trial"",""time""
""fullscreenenter"",""5"",""22060""
","
","
","""event"",""trial"",""time""
""fullscreenenter"",""5"",""22060""
","
",580.8299999916926,NA,49,NA,NA,3000,1,NA,NA,images/earth.jpg,images/rocket2,images/rocket1,null,images/rocket1,NA,1,real,null,1,NA,NA,NA,sub10
d3-animate-choice,154,788107,0.0-76.0-1.6,TRUE,TRUE,TRUE,TRUE,"""event"",""trial"",""time""
""fullscreenenter"",""5"",""22060""
","
","
","""event"",""trial"",""time""
""fullscreenenter"",""5"",""22060""
","
",659.734999993816,NA,48,NA,NA,3000,1,NA,NA,images/redplanet1.jpg,images/alien2,images/alien1,images/rocket1,images/alien2,images/t.png,2,real,true,2,common,1,2020-06-12T19:43:02Z,sub10
two-step-fixation,155,789111,0.0-76.0-2.6,TRUE,TRUE,TRUE,TRUE,"""event"",""trial"",""time""
""fullscreenenter"",""5"",""22060""
","
","
","""event"",""trial"",""time""
""fullscreenenter"",""5"",""22060""
","
",NA,images/earth.jpg,NA,NA,NA,NA,NA,NA,NA,NA,NA,NA,NA,NA,NA,fixation,NA,NA,NA,NA,NA,NA,sub10
d3-animate-choice,156,791701,0.0-76.0-0.7,TRUE,TRUE,TRUE,TRUE,"""event"",""trial"",""time""
""fullscreenenter"",""5"",""22060""
","
","
","""event"",""trial"",""time""
""fullscreenenter"",""5"",""22060""
","
",586.3949999911711,NA,48,NA,NA,3000,1,NA,NA,images/earth.jpg,images/rocket2,images/rocket1,null,images/rocket2,NA,1,real,null,2,NA,NA,NA,sub10
d3-animate-choice,157,794507,0.0-76.0-1.7,TRUE,TRUE,TRUE,TRUE,"""event"",""trial"",""time""
""fullscreenenter"",""5"",""22060""
","
","
","""event"",""trial"",""time""
""fullscreenenter"",""5"",""22060""
","
",801.5049999812618,NA,48,NA,NA,3000,1,NA,NA,images/purpleplanet.jpg,images/alien4,images/alien3,images/rocket2,images/alien4,images/t.png,2,real,true,2,common,1,2020-06-12T19:43:09Z,sub10
two-step-fixation,158,795510,0.0-76.0-2.7,TRUE,TRUE,TRUE,TRUE,"""event"",""trial"",""time""
""fullscreenenter"",""5"",""22060""
","
","
","""event"",""trial"",""time""
""fullscreenenter"",""5"",""22060""
","
",NA,images/earth.jpg,NA,NA,NA,NA,NA,NA,NA,NA,NA,NA,NA,NA,NA,fixation,NA,NA,NA,NA,NA,NA,sub10
d3-animate-choice,159,798314,0.0-76.0-0.8,TRUE,TRUE,TRUE,TRUE,"""event"",""trial"",""time""
""fullscreenenter"",""5"",""22060""
","
","
","""event"",""trial"",""time""
""fullscreenenter"",""5"",""22060""
","
",800.725000037346,NA,48,NA,NA,3000,1,NA,NA,images/earth.jpg,images/rocket2,images/rocket1,null,images/rocket2,NA,1,real,null,2,NA,NA,NA,sub10
d3-animate-choice,160,801976,0.0-76.0-1.8,TRUE,TRUE,TRUE,TRUE,"""event"",""trial"",""time""
""fullscreenenter"",""5"",""22060""
","
","
","""event"",""trial"",""time""
""fullscreenenter"",""5"",""22060""
","
",1659.3700000084937,NA,48,NA,NA,3000,1,NA,NA,images/redplanet1.jpg,images/alien2,images/alien1,images/rocket2,images/alien2,images/nothing.png,2,real,false,2,rare,0,2020-06-12T19:43:16Z,sub10
two-step-fixation,161,802978,0.0-76.0-2.8,TRUE,TRUE,TRUE,TRUE,"""event"",""trial"",""time""
""fullscreenenter"",""5"",""22060""
","
","
","""event"",""trial"",""time""
""fullscreenenter"",""5"",""22060""
","
",NA,images/earth.jpg,NA,NA,NA,NA,NA,NA,NA,NA,NA,NA,NA,NA,NA,fixation,NA,NA,NA,NA,NA,NA,sub10
d3-animate-choice,162,805706,0.0-76.0-0.9,TRUE,TRUE,TRUE,TRUE,"""event"",""trial"",""time""
""fullscreenenter"",""5"",""22060""
","
","
","""event"",""trial"",""time""
""fullscreenenter"",""5"",""22060""
","
",724.1700000013225,NA,49,NA,NA,3000,1,NA,NA,images/earth.jpg,images/rocket2,images/rocket1,null,images/rocket1,NA,1,real,null,1,NA,NA,NA,sub10
d3-animate-choice,163,808571,0.0-76.0-1.9,TRUE,TRUE,TRUE,TRUE,"""event"",""trial"",""time""
""fullscreenenter"",""5"",""22060""
","
","
","""event"",""trial"",""time""
""fullscreenenter"",""5"",""22060""
","
",862.8649999736808,NA,48,NA,NA,3000,1,NA,NA,images/redplanet1.jpg,images/alien2,images/alien1,images/rocket1,images/alien2,images/t.png,2,real,true,2,common,1,2020-06-12T19:43:23Z,sub10
two-step-fixation,164,809574,0.0-76.0-2.9,TRUE,TRUE,TRUE,TRUE,"""event"",""trial"",""time""
""fullscreenenter"",""5"",""22060""
","
","
","""event"",""trial"",""time""
""fullscreenenter"",""5"",""22060""
","
",NA,images/earth.jpg,NA,NA,NA,NA,NA,NA,NA,NA,NA,NA,NA,NA,NA,fixation,NA,NA,NA,NA,NA,NA,sub10
d3-animate-choice,165,812481,0.0-76.0-0.10,TRUE,TRUE,TRUE,TRUE,"""event"",""trial"",""time""
""fullscreenenter"",""5"",""22060""
","
","
","""event"",""trial"",""time""
""fullscreenenter"",""5"",""22060""
","
",902.8849999886006,NA,48,NA,NA,3000,1,NA,NA,images/earth.jpg,images/rocket2,images/rocket1,null,images/rocket2,NA,1,real,null,2,NA,NA,NA,sub10
d3-animate-choice,166,816486,0.0-76.0-1.10,TRUE,TRUE,TRUE,TRUE,"""event"",""trial"",""time""
""fullscreenenter"",""5"",""22060""
","
","
","""event"",""trial"",""time""
""fullscreenenter"",""5"",""22060""
","
",3238.8450000435114,NA,49,NA,NA,3000,0,NA,NA,images/redplanet1.jpg,images/alien2,images/alien1,images/rocket2,NA,NA,2,real,false,1,rare,0,2020-06-12T19:43:31Z,sub10
two-step-fixation,167,817490,0.0-76.0-2.10,TRUE,TRUE,TRUE,TRUE,"""event"",""trial"",""time""
""fullscreenenter"",""5"",""22060""
","
","
","""event"",""trial"",""time""
""fullscreenenter"",""5"",""22060""
","
",NA,images/earth.jpg,NA,NA,NA,NA,NA,NA,NA,NA,NA,NA,NA,NA,NA,fixation,NA,NA,NA,NA,NA,NA,sub10
d3-animate-choice,168,819928,0.0-76.0-0.11,TRUE,TRUE,TRUE,TRUE,"""event"",""trial"",""time""
""fullscreenenter"",""5"",""22060""
","
","
","""event"",""trial"",""time""
""fullscreenenter"",""5"",""22060""
","
",433.90999996336177,NA,49,NA,NA,3000,1,NA,NA,images/earth.jpg,images/rocket2,images/rocket1,null,images/rocket1,NA,1,real,null,1,NA,NA,NA,sub10
d3-animate-choice,169,822852,0.0-76.0-1.11,TRUE,TRUE,TRUE,TRUE,"""event"",""trial"",""time""
""fullscreenenter"",""5"",""22060""
","
","
","""event"",""trial"",""time""
""fullscreenenter"",""5"",""22060""
","
",917.4249999923632,NA,49,NA,NA,3000,1,NA,NA,images/redplanet1.jpg,images/alien2,images/alien1,images/rocket1,images/alien1,images/t.png,2,real,true,1,common,1,2020-06-12T19:43:37Z,sub10
two-step-fixation,170,823855,0.0-76.0-2.11,TRUE,TRUE,TRUE,TRUE,"""event"",""trial"",""time""
""fullscreenenter"",""5"",""22060""
","
","
","""event"",""trial"",""time""
""fullscreenenter"",""5"",""22060""
","
",NA,images/earth.jpg,NA,NA,NA,NA,NA,NA,NA,NA,NA,NA,NA,NA,NA,fixation,NA,NA,NA,NA,NA,NA,sub10
d3-animate-choice,171,826468,0.0-76.0-0.12,TRUE,TRUE,TRUE,TRUE,"""event"",""trial"",""time""
""fullscreenenter"",""5"",""22060""
","
","
","""event"",""trial"",""time""
""fullscreenenter"",""5"",""22060""
","
",605.2949999575503,NA,48,NA,NA,3000,1,NA,NA,images/earth.jpg,images/rocket2,images/rocket1,null,images/rocket2,NA,1,real,null,2,NA,NA,NA,sub10
d3-animate-choice,172,829031,0.0-76.0-1.12,TRUE,TRUE,TRUE,TRUE,"""event"",""trial"",""time""
""fullscreenenter"",""5"",""22060""
","
","
","""event"",""trial"",""time""
""fullscreenenter"",""5"",""22060""
","
",558.7750000413507,NA,48,NA,NA,3000,1,NA,NA,images/purpleplanet.jpg,images/alien4,images/alien3,images/rocket2,images/alien4,images/t.png,2,real,true,2,common,1,2020-06-12T19:43:43Z,sub10
two-step-fixation,173,830038,0.0-76.0-2.12,TRUE,TRUE,TRUE,TRUE,"""event"",""trial"",""time""
""fullscreenenter"",""5"",""22060""
","
","
","""event"",""trial"",""time""
""fullscreenenter"",""5"",""22060""
","
",NA,images/earth.jpg,NA,NA,NA,NA,NA,NA,NA,NA,NA,NA,NA,NA,NA,fixation,NA,NA,NA,NA,NA,NA,sub10
d3-animate-choice,174,833147,0.0-76.0-0.13,TRUE,TRUE,TRUE,TRUE,"""event"",""trial"",""time""
""fullscreenenter"",""5"",""22060""
","
","
","""event"",""trial"",""time""
""fullscreenenter"",""5"",""22060""
","
",1105.2949999575503,NA,49,NA,NA,3000,1,NA,NA,images/earth.jpg,images/rocket2,images/rocket1,null,images/rocket1,NA,1,real,null,1,NA,NA,NA,sub10
d3-animate-choice,175,835674,0.0-76.0-1.13,TRUE,TRUE,TRUE,TRUE,"""event"",""trial"",""time""
""fullscreenenter"",""5"",""22060""
","
","
","""event"",""trial"",""time""
""fullscreenenter"",""5"",""22060""
","
",522.1350000356324,NA,48,NA,NA,3000,1,NA,NA,images/redplanet1.jpg,images/alien2,images/alien1,images/rocket1,images/alien2,images/t.png,2,real,true,2,common,1,2020-06-12T19:43:50Z,sub10
two-step-fixation,176,836680,0.0-76.0-2.13,TRUE,TRUE,TRUE,TRUE,"""event"",""trial"",""time""
""fullscreenenter"",""5"",""22060""
","
","
","""event"",""trial"",""time""
""fullscreenenter"",""5"",""22060""
","
",NA,images/earth.jpg,NA,NA,NA,NA,NA,NA,NA,NA,NA,NA,NA,NA,NA,fixation,NA,NA,NA,NA,NA,NA,sub10
d3-animate-choice,177,839153,0.0-76.0-0.14,TRUE,TRUE,TRUE,TRUE,"""event"",""trial"",""time""
""fullscreenenter"",""5"",""22060""
","
","
","""event"",""trial"",""time""
""fullscreenenter"",""5"",""22060""
","
",468.13499997369945,NA,48,NA,NA,3000,1,NA,NA,images/earth.jpg,images/rocket2,images/rocket1,null,images/rocket2,NA,1,real,null,2,NA,NA,NA,sub10
d3-animate-choice,178,842880,0.0-76.0-1.14,TRUE,TRUE,TRUE,TRUE,"""event"",""trial"",""time""
""fullscreenenter"",""5"",""22060""
","
","
","""event"",""trial"",""time""
""fullscreenenter"",""5"",""22060""
","
",1722.4449999630451,NA,49,NA,NA,3000,1,NA,NA,images/redplanet1.jpg,images/alien2,images/alien1,images/rocket2,images/alien1,images/t.png,2,real,false,1,rare,1,2020-06-12T19:43:57Z,sub10
two-step-fixation,179,843884,0.0-76.0-2.14,TRUE,TRUE,TRUE,TRUE,"""event"",""trial"",""time""
""fullscreenenter"",""5"",""22060""
","
","
","""event"",""trial"",""time""
""fullscreenenter"",""5"",""22060""
","
",NA,images/earth.jpg,NA,NA,NA,NA,NA,NA,NA,NA,NA,NA,NA,NA,NA,fixation,NA,NA,NA,NA,NA,NA,sub10
d3-animate-choice,180,846441,0.0-76.0-0.15,TRUE,TRUE,TRUE,TRUE,"""event"",""trial"",""time""
""fullscreenenter"",""5"",""22060""
","
","
","""event"",""trial"",""time""
""fullscreenenter"",""5"",""22060""
","
",554.5249999850057,NA,49,NA,NA,3000,1,NA,NA,images/earth.jpg,images/rocket2,images/rocket1,null,images/rocket1,NA,1,real,null,1,NA,NA,NA,sub10
d3-animate-choice,181,850438,0.0-76.0-1.15,TRUE,TRUE,TRUE,TRUE,"""event"",""trial"",""time""
""fullscreenenter"",""5"",""22060""
","
","
","""event"",""trial"",""time""
""fullscreenenter"",""5"",""22060""
","
",1993.6849999940023,NA,48,NA,NA,3000,1,NA,NA,images/redplanet1.jpg,images/alien2,images/alien1,images/rocket1,images/alien2,images/nothing.png,2,real,true,2,common,0,2020-06-12T19:44:05Z,sub10
two-step-fixation,182,851442,0.0-76.0-2.15,TRUE,TRUE,TRUE,TRUE,"""event"",""trial"",""time""
""fullscreenenter"",""5"",""22060""
","
","
","""event"",""trial"",""time""
""fullscreenenter"",""5"",""22060""
","
",NA,images/earth.jpg,NA,NA,NA,NA,NA,NA,NA,NA,NA,NA,NA,NA,NA,fixation,NA,NA,NA,NA,NA,NA,sub10
d3-animate-choice,183,853901,0.0-76.0-0.16,TRUE,TRUE,TRUE,TRUE,"""event"",""trial"",""time""
""fullscreenenter"",""5"",""22060""
","
","
","""event"",""trial"",""time""
""fullscreenenter"",""5"",""22060""
","
",452.980000001844,NA,48,NA,NA,3000,1,NA,NA,images/earth.jpg,images/rocket2,images/rocket1,null,images/rocket2,NA,1,real,null,2,NA,NA,NA,sub10
d3-animate-choice,184,856649,0.0-76.0-1.16,TRUE,TRUE,TRUE,TRUE,"""event"",""trial"",""time""
""fullscreenenter"",""5"",""22060""
","
","
","""event"",""trial"",""time""
""fullscreenenter"",""5"",""22060""
","
",745.4649999854155,NA,48,NA,NA,3000,1,NA,NA,images/purpleplanet.jpg,images/alien4,images/alien3,images/rocket2,images/alien4,images/nothing.png,2,real,true,2,common,0,2020-06-12T19:44:11Z,sub10
two-step-fixation,185,857654,0.0-76.0-2.16,TRUE,TRUE,TRUE,TRUE,"""event"",""trial"",""time""
""fullscreenenter"",""5"",""22060""
","
","
","""event"",""trial"",""time""
""fullscreenenter"",""5"",""22060""
","
",NA,images/earth.jpg,NA,NA,NA,NA,NA,NA,NA,NA,NA,NA,NA,NA,NA,fixation,NA,NA,NA,NA,NA,NA,sub10
d3-animate-choice,186,860308,0.0-76.0-0.17,TRUE,TRUE,TRUE,TRUE,"""event"",""trial"",""time""
""fullscreenenter"",""5"",""22060""
","
","
","""event"",""trial"",""time""
""fullscreenenter"",""5"",""22060""
","
",649.0350000094622,NA,49,NA,NA,3000,1,NA,NA,images/earth.jpg,images/rocket2,images/rocket1,null,images/rocket1,NA,1,real,null,1,NA,NA,NA,sub10
d3-animate-choice,187,862912,0.0-76.0-1.17,TRUE,TRUE,TRUE,TRUE,"""event"",""trial"",""time""
""fullscreenenter"",""5"",""22060""
","
","
","""event"",""trial"",""time""
""fullscreenenter"",""5"",""22060""
","
",601.0750000132248,NA,49,NA,NA,3000,1,NA,NA,images/redplanet1.jpg,images/alien2,images/alien1,images/rocket1,images/alien1,images/t.png,2,real,true,1,common,1,2020-06-12T19:44:17Z,sub10
two-step-fixation,188,863916,0.0-76.0-2.17,TRUE,TRUE,TRUE,TRUE,"""event"",""trial"",""time""
""fullscreenenter"",""5"",""22060""
","
","
","""event"",""trial"",""time""
""fullscreenenter"",""5"",""22060""
","
",NA,images/earth.jpg,NA,NA,NA,NA,NA,NA,NA,NA,NA,NA,NA,NA,NA,fixation,NA,NA,NA,NA,NA,NA,sub10
d3-animate-choice,189,866521,0.0-76.0-0.18,TRUE,TRUE,TRUE,TRUE,"""event"",""trial"",""time""
""fullscreenenter"",""5"",""22060""
","
","
","""event"",""trial"",""time""
""fullscreenenter"",""5"",""22060""
","
",600.4599999869242,NA,48,NA,NA,3000,1,NA,NA,images/earth.jpg,images/rocket2,images/rocket1,null,images/rocket2,NA,1,real,null,2,NA,NA,NA,sub10
d3-animate-choice,190,869476,0.0-76.0-1.18,TRUE,TRUE,TRUE,TRUE,"""event"",""trial"",""time""
""fullscreenenter"",""5"",""22060""
","
","
","""event"",""trial"",""time""
""fullscreenenter"",""5"",""22060""
","
",951.3949999818578,NA,49,NA,NA,3000,1,NA,NA,images/redplanet1.jpg,images/alien2,images/alien1,images/rocket2,images/alien1,images/t.png,2,real,false,1,rare,1,2020-06-12T19:44:24Z,sub10
two-step-fixation,191,870480,0.0-76.0-2.18,TRUE,TRUE,TRUE,TRUE,"""event"",""trial"",""time""
""fullscreenenter"",""5"",""22060""
","
","
","""event"",""trial"",""time""
""fullscreenenter"",""5"",""22060""
","
",NA,images/earth.jpg,NA,NA,NA,NA,NA,NA,NA,NA,NA,NA,NA,NA,NA,fixation,NA,NA,NA,NA,NA,NA,sub10
d3-animate-choice,192,874175,0.0-76.0-0.19,TRUE,TRUE,TRUE,TRUE,"""event"",""trial"",""time""
""fullscreenenter"",""5"",""22060""
","
","
","""event"",""trial"",""time""
""fullscreenenter"",""5"",""22060""
","
",1687.4199999729171,NA,48,NA,NA,3000,1,NA,NA,images/earth.jpg,images/rocket2,images/rocket1,null,images/rocket2,NA,1,real,null,2,NA,NA,NA,sub10
d3-animate-choice,193,876687,0.0-76.0-1.19,TRUE,TRUE,TRUE,TRUE,"""event"",""trial"",""time""
""fullscreenenter"",""5"",""22060""
","
","
","""event"",""trial"",""time""
""fullscreenenter"",""5"",""22060""
","
",503.9799999794923,NA,48,NA,NA,3000,1,NA,NA,images/purpleplanet.jpg,images/alien4,images/alien3,images/rocket2,images/alien4,images/t.png,2,real,true,2,common,1,2020-06-12T19:44:31Z,sub10
two-step-fixation,194,877695,0.0-76.0-2.19,TRUE,TRUE,TRUE,TRUE,"""event"",""trial"",""time""
""fullscreenenter"",""5"",""22060""
","
","
","""event"",""trial"",""time""
""fullscreenenter"",""5"",""22060""
","
",NA,images/earth.jpg,NA,NA,NA,NA,NA,NA,NA,NA,NA,NA,NA,NA,NA,fixation,NA,NA,NA,NA,NA,NA,sub10
d3-animate-choice,195,880218,0.0-76.0-0.20,TRUE,TRUE,TRUE,TRUE,"""event"",""trial"",""time""
""fullscreenenter"",""5"",""22060""
","
","
","""event"",""trial"",""time""
""fullscreenenter"",""5"",""22060""
","
",518.4100000187755,NA,49,NA,NA,3000,1,NA,NA,images/earth.jpg,images/rocket2,images/rocket1,null,images/rocket1,NA,1,real,null,1,NA,NA,NA,sub10
d3-animate-choice,196,883718,0.0-76.0-1.20,TRUE,TRUE,TRUE,TRUE,"""event"",""trial"",""time""
""fullscreenenter"",""5"",""22060""
","
","
","""event"",""trial"",""time""
""fullscreenenter"",""5"",""22060""
","
",1496.3749999878928,NA,49,NA,NA,3000,1,NA,NA,images/purpleplanet.jpg,images/alien4,images/alien3,images/rocket1,images/alien3,images/t.png,2,real,false,1,rare,1,2020-06-12T19:44:38Z,sub10
two-step-fixation,197,884724,0.0-76.0-2.20,TRUE,TRUE,TRUE,TRUE,"""event"",""trial"",""time""
""fullscreenenter"",""5"",""22060""
","
","
","""event"",""trial"",""time""
""fullscreenenter"",""5"",""22060""
","
",NA,images/earth.jpg,NA,NA,NA,NA,NA,NA,NA,NA,NA,NA,NA,NA,NA,fixation,NA,NA,NA,NA,NA,NA,sub10
d3-animate-choice,198,887626,0.0-76.0-0.21,TRUE,TRUE,TRUE,TRUE,"""event"",""trial"",""time""
""fullscreenenter"",""5"",""22060""
","
","
","""event"",""trial"",""time""
""fullscreenenter"",""5"",""22060""
","
",895.9000000031665,NA,49,NA,NA,3000,1,NA,NA,images/earth.jpg,images/rocket2,images/rocket1,null,images/rocket1,NA,1,real,null,1,NA,NA,NA,sub10
d3-animate-choice,199,890399,0.0-76.0-1.21,TRUE,TRUE,TRUE,TRUE,"""event"",""trial"",""time""
""fullscreenenter"",""5"",""22060""
","
","
","""event"",""trial"",""time""
""fullscreenenter"",""5"",""22060""
","
",767.6199999987148,NA,49,NA,NA,3000,1,NA,NA,images/redplanet1.jpg,images/alien2,images/alien1,images/rocket1,images/alien1,images/nothing.png,2,real,true,1,common,0,2020-06-12T19:44:45Z,sub10
two-step-fixation,200,891402,0.0-76.0-2.21,TRUE,TRUE,TRUE,TRUE,"""event"",""trial"",""time""
""fullscreenenter"",""5"",""22060""
","
","
","""event"",""trial"",""time""
""fullscreenenter"",""5"",""22060""
","
",NA,images/earth.jpg,NA,NA,NA,NA,NA,NA,NA,NA,NA,NA,NA,NA,NA,fixation,NA,NA,NA,NA,NA,NA,sub10
d3-animate-choice,201,894350,0.0-76.0-0.22,TRUE,TRUE,TRUE,TRUE,"""event"",""trial"",""time""
""fullscreenenter"",""5"",""22060""
","
","
","""event"",""trial"",""time""
""fullscreenenter"",""5"",""22060""
","
",943.2600000291131,NA,49,NA,NA,3000,1,NA,NA,images/earth.jpg,images/rocket2,images/rocket1,null,images/rocket1,NA,1,real,null,1,NA,NA,NA,sub10
d3-animate-choice,202,897021,0.0-76.0-1.22,TRUE,TRUE,TRUE,TRUE,"""event"",""trial"",""time""
""fullscreenenter"",""5"",""22060""
","
","
","""event"",""trial"",""time""
""fullscreenenter"",""5"",""22060""
","
",665.7899999991059,NA,48,NA,NA,3000,1,NA,NA,images/redplanet1.jpg,images/alien2,images/alien1,images/rocket1,images/alien2,images/t.png,2,real,true,2,common,1,2020-06-12T19:44:51Z,sub10
two-step-fixation,203,898024,0.0-76.0-2.22,TRUE,TRUE,TRUE,TRUE,"""event"",""trial"",""time""
""fullscreenenter"",""5"",""22060""
","
","
","""event"",""trial"",""time""
""fullscreenenter"",""5"",""22060""
","
",NA,images/earth.jpg,NA,NA,NA,NA,NA,NA,NA,NA,NA,NA,NA,NA,NA,fixation,NA,NA,NA,NA,NA,NA,sub10
d3-animate-choice,204,900489,0.0-76.0-0.23,TRUE,TRUE,TRUE,TRUE,"""event"",""trial"",""time""
""fullscreenenter"",""5"",""22060""
","
","
","""event"",""trial"",""time""
""fullscreenenter"",""5"",""22060""
","
",461.07999997911975,NA,48,NA,NA,3000,1,NA,NA,images/earth.jpg,images/rocket2,images/rocket1,null,images/rocket2,NA,1,real,null,2,NA,NA,NA,sub10
d3-animate-choice,205,903455,0.0-76.0-1.23,TRUE,TRUE,TRUE,TRUE,"""event"",""trial"",""time""
""fullscreenenter"",""5"",""22060""
","
","
","""event"",""trial"",""time""
""fullscreenenter"",""5"",""22060""
","
",963.1899999803863,NA,49,NA,NA,3000,1,NA,NA,images/redplanet1.jpg,images/alien2,images/alien1,images/rocket2,images/alien1,images/nothing.png,2,real,false,1,rare,0,2020-06-12T19:44:58Z,sub10
two-step-fixation,206,904463,0.0-76.0-2.23,TRUE,TRUE,TRUE,TRUE,"""event"",""trial"",""time""
""fullscreenenter"",""5"",""22060""
","
","
","""event"",""trial"",""time""
""fullscreenenter"",""5"",""22060""
","
",NA,images/earth.jpg,NA,NA,NA,NA,NA,NA,NA,NA,NA,NA,NA,NA,NA,fixation,NA,NA,NA,NA,NA,NA,sub10
d3-animate-choice,207,907412,0.0-76.0-0.24,TRUE,TRUE,TRUE,TRUE,"""event"",""trial"",""time""
""fullscreenenter"",""5"",""22060""
","
","
","""event"",""trial"",""time""
""fullscreenenter"",""5"",""22060""
","
",945.2349999919534,NA,48,NA,NA,3000,1,NA,NA,images/earth.jpg,images/rocket2,images/rocket1,null,images/rocket2,NA,1,real,null,2,NA,NA,NA,sub10
d3-animate-choice,208,910175,0.0-76.0-1.24,TRUE,TRUE,TRUE,TRUE,"""event"",""trial"",""time""
""fullscreenenter"",""5"",""22060""
","
","
","""event"",""trial"",""time""
""fullscreenenter"",""5"",""22060""
","
",755.170000018552,NA,48,NA,NA,3000,1,NA,NA,images/purpleplanet.jpg,images/alien4,images/alien3,images/rocket2,images/alien4,images/nothing.png,2,real,true,2,common,0,2020-06-12T19:45:04Z,sub10
two-step-fixation,209,911183,0.0-76.0-2.24,TRUE,TRUE,TRUE,TRUE,"""event"",""trial"",""time""
""fullscreenenter"",""5"",""22060""
","
","
","""event"",""trial"",""time""
""fullscreenenter"",""5"",""22060""
","
",NA,images/earth.jpg,NA,NA,NA,NA,NA,NA,NA,NA,NA,NA,NA,NA,NA,fixation,NA,NA,NA,NA,NA,NA,sub10
d3-animate-choice,210,913813,0.0-76.0-0.25,TRUE,TRUE,TRUE,TRUE,"""event"",""trial"",""time""
""fullscreenenter"",""5"",""22060""
","
","
","""event"",""trial"",""time""
""fullscreenenter"",""5"",""22060""
","
",626.5250000287779,NA,49,NA,NA,3000,1,NA,NA,images/earth.jpg,images/rocket2,images/rocket1,null,images/rocket1,NA,1,real,null,1,NA,NA,NA,sub10
d3-animate-choice,211,916941,0.0-76.0-1.25,TRUE,TRUE,TRUE,TRUE,"""event"",""trial"",""time""
""fullscreenenter"",""5"",""22060""
","
","
","""event"",""trial"",""time""
""fullscreenenter"",""5"",""22060""
","
",1123.665000020992,NA,49,NA,NA,3000,1,NA,NA,images/redplanet1.jpg,images/alien2,images/alien1,images/rocket1,images/alien1,images/t.png,2,real,true,1,common,1,2020-06-12T19:45:11Z,sub10
two-step-fixation,212,917945,0.0-76.0-2.25,TRUE,TRUE,TRUE,TRUE,"""event"",""trial"",""time""
""fullscreenenter"",""5"",""22060""
","
","
","""event"",""trial"",""time""
""fullscreenenter"",""5"",""22060""
","
",NA,images/earth.jpg,NA,NA,NA,NA,NA,NA,NA,NA,NA,NA,NA,NA,NA,fixation,NA,NA,NA,NA,NA,NA,sub10
d3-animate-choice,213,920496,0.0-76.0-0.26,TRUE,TRUE,TRUE,TRUE,"""event"",""trial"",""time""
""fullscreenenter"",""5"",""22060""
","
","
","""event"",""trial"",""time""
""fullscreenenter"",""5"",""22060""
","
",546.4650000212714,NA,48,NA,NA,3000,1,NA,NA,images/earth.jpg,images/rocket2,images/rocket1,null,images/rocket2,NA,1,real,null,2,NA,NA,NA,sub10
d3-animate-choice,214,923108,0.0-76.0-1.26,TRUE,TRUE,TRUE,TRUE,"""event"",""trial"",""time""
""fullscreenenter"",""5"",""22060""
","
","
","""event"",""trial"",""time""
""fullscreenenter"",""5"",""22060""
","
",609.1050000395626,NA,49,NA,NA,3000,1,NA,NA,images/purpleplanet.jpg,images/alien4,images/alien3,images/rocket2,images/alien3,images/t.png,2,real,true,1,common,1,2020-06-12T19:45:17Z,sub10
two-step-fixation,215,924112,0.0-76.0-2.26,TRUE,TRUE,TRUE,TRUE,"""event"",""trial"",""time""
""fullscreenenter"",""5"",""22060""
","
","
","""event"",""trial"",""time""
""fullscreenenter"",""5"",""22060""
","
",NA,images/earth.jpg,NA,NA,NA,NA,NA,NA,NA,NA,NA,NA,NA,NA,NA,fixation,NA,NA,NA,NA,NA,NA,sub10
d3-animate-choice,216,926692,0.0-76.0-0.27,TRUE,TRUE,TRUE,TRUE,"""event"",""trial"",""time""
""fullscreenenter"",""5"",""22060""
","
","
","""event"",""trial"",""time""
""fullscreenenter"",""5"",""22060""
","
",573.1050000176765,NA,49,NA,NA,3000,1,NA,NA,images/earth.jpg,images/rocket2,images/rocket1,null,images/rocket1,NA,1,real,null,1,NA,NA,NA,sub10
d3-animate-choice,217,929108,0.0-76.0-1.27,TRUE,TRUE,TRUE,TRUE,"""event"",""trial"",""time""
""fullscreenenter"",""5"",""22060""
","
","
","""event"",""trial"",""time""
""fullscreenenter"",""5"",""22060""
","
",411.68499999912456,NA,49,NA,NA,3000,1,NA,NA,images/purpleplanet.jpg,images/alien4,images/alien3,images/rocket1,images/alien3,images/nothing.png,2,real,false,1,rare,0,2020-06-12T19:45:23Z,sub10
two-step-fixation,218,930111,0.0-76.0-2.27,TRUE,TRUE,TRUE,TRUE,"""event"",""trial"",""time""
""fullscreenenter"",""5"",""22060""
","
","
","""event"",""trial"",""time""
""fullscreenenter"",""5"",""22060""
","
",NA,images/earth.jpg,NA,NA,NA,NA,NA,NA,NA,NA,NA,NA,NA,NA,NA,fixation,NA,NA,NA,NA,NA,NA,sub10
d3-animate-choice,219,932175,0.0-76.0-0.28,TRUE,TRUE,TRUE,TRUE,"""event"",""trial"",""time""
""fullscreenenter"",""5"",""22060""
","
","
","""event"",""trial"",""time""
""fullscreenenter"",""5"",""22060""
","
",57.28499998804182,NA,48,NA,NA,3000,1,NA,NA,images/earth.jpg,images/rocket2,images/rocket1,null,images/rocket2,NA,1,real,null,2,NA,NA,NA,sub10
d3-animate-choice,220,935126,0.0-76.0-1.28,TRUE,TRUE,TRUE,TRUE,"""event"",""trial"",""time""
""fullscreenenter"",""5"",""22060""
","
","
","""event"",""trial"",""time""
""fullscreenenter"",""5"",""22060""
","
",947.6900000008754,NA,49,NA,NA,3000,1,NA,NA,images/purpleplanet.jpg,images/alien4,images/alien3,images/rocket2,images/alien3,images/t.png,2,real,true,1,common,1,2020-06-12T19:45:29Z,sub10
two-step-fixation,221,936132,0.0-76.0-2.28,TRUE,TRUE,TRUE,TRUE,"""event"",""trial"",""time""
""fullscreenenter"",""5"",""22060""
","
","
","""event"",""trial"",""time""
""fullscreenenter"",""5"",""22060""
","
",NA,images/earth.jpg,NA,NA,NA,NA,NA,NA,NA,NA,NA,NA,NA,NA,NA,fixation,NA,NA,NA,NA,NA,NA,sub10
d3-animate-choice,222,938894,0.0-76.0-0.29,TRUE,TRUE,TRUE,TRUE,"""event"",""trial"",""time""
""fullscreenenter"",""5"",""22060""
","
","
","""event"",""trial"",""time""
""fullscreenenter"",""5"",""22060""
","
",757.210000010673,NA,49,NA,NA,3000,1,NA,NA,images/earth.jpg,images/rocket2,images/rocket1,null,images/rocket1,NA,1,real,null,1,NA,NA,NA,sub10
d3-animate-choice,223,941412,0.0-76.0-1.29,TRUE,TRUE,TRUE,TRUE,"""event"",""trial"",""time""
""fullscreenenter"",""5"",""22060""
","
","
","""event"",""trial"",""time""
""fullscreenenter"",""5"",""22060""
","
",514.8549999576062,NA,49,NA,NA,3000,1,NA,NA,images/purpleplanet.jpg,images/alien4,images/alien3,images/rocket1,images/alien3,images/t.png,2,real,false,1,rare,1,2020-06-12T19:45:36Z,sub10
two-step-fixation,224,942415,0.0-76.0-2.29,TRUE,TRUE,TRUE,TRUE,"""event"",""trial"",""time""
""fullscreenenter"",""5"",""22060""
","
","
","""event"",""trial"",""time""
""fullscreenenter"",""5"",""22060""
","
",NA,images/earth.jpg,NA,NA,NA,NA,NA,NA,NA,NA,NA,NA,NA,NA,NA,fixation,NA,NA,NA,NA,NA,NA,sub10
d3-animate-choice,225,945095,0.0-76.0-0.30,TRUE,TRUE,TRUE,TRUE,"""event"",""trial"",""time""
""fullscreenenter"",""5"",""22060""
","
","
","""event"",""trial"",""time""
""fullscreenenter"",""5"",""22060""
","
",677.3350000148639,NA,48,NA,NA,3000,1,NA,NA,images/earth.jpg,images/rocket2,images/rocket1,null,images/rocket2,NA,1,real,null,2,NA,NA,NA,sub10
d3-animate-choice,226,947889,0.0-76.0-1.30,TRUE,TRUE,TRUE,TRUE,"""event"",""trial"",""time""
""fullscreenenter"",""5"",""22060""
","
","
","""event"",""trial"",""time""
""fullscreenenter"",""5"",""22060""
","
",791.1849999800324,NA,49,NA,NA,3000,1,NA,NA,images/redplanet1.jpg,images/alien2,images/alien1,images/rocket2,images/alien1,images/nothing.png,2,real,false,1,rare,0,2020-06-12T19:45:42Z,sub10
two-step-fixation,227,948893,0.0-76.0-2.30,TRUE,TRUE,TRUE,TRUE,"""event"",""trial"",""time""
""fullscreenenter"",""5"",""22060""
","
","
","""event"",""trial"",""time""
""fullscreenenter"",""5"",""22060""
","
",NA,images/earth.jpg,NA,NA,NA,NA,NA,NA,NA,NA,NA,NA,NA,NA,NA,fixation,NA,NA,NA,NA,NA,NA,sub10
d3-animate-choice,228,952372,0.0-76.0-0.31,TRUE,TRUE,TRUE,TRUE,"""event"",""trial"",""time""
""fullscreenenter"",""5"",""22060""
","
","
","""event"",""trial"",""time""
""fullscreenenter"",""5"",""22060""
","
",1475.1450000330806,NA,49,NA,NA,3000,1,NA,NA,images/earth.jpg,images/rocket2,images/rocket1,null,images/rocket1,NA,1,real,null,1,NA,NA,NA,sub10
d3-animate-choice,229,955794,0.0-76.0-1.31,TRUE,TRUE,TRUE,TRUE,"""event"",""trial"",""time""
""fullscreenenter"",""5"",""22060""
","
","
","""event"",""trial"",""time""
""fullscreenenter"",""5"",""22060""
","
",1416.8599999975413,NA,49,NA,NA,3000,1,NA,NA,images/redplanet1.jpg,images/alien2,images/alien1,images/rocket1,images/alien1,images/nothing.png,2,real,true,1,common,0,2020-06-12T19:45:50Z,sub10
two-step-fixation,230,956799,0.0-76.0-2.31,TRUE,TRUE,TRUE,TRUE,"""event"",""trial"",""time""
""fullscreenenter"",""5"",""22060""
","
","
","""event"",""trial"",""time""
""fullscreenenter"",""5"",""22060""
","
",NA,images/earth.jpg,NA,NA,NA,NA,NA,NA,NA,NA,NA,NA,NA,NA,NA,fixation,NA,NA,NA,NA,NA,NA,sub10
d3-animate-choice,231,959319,0.0-76.0-0.32,TRUE,TRUE,TRUE,TRUE,"""event"",""trial"",""time""
""fullscreenenter"",""5"",""22060""
","
","
","""event"",""trial"",""time""
""fullscreenenter"",""5"",""22060""
","
",513.6599999968894,NA,49,NA,NA,3000,1,NA,NA,images/earth.jpg,images/rocket2,images/rocket1,null,images/rocket1,NA,1,real,null,1,NA,NA,NA,sub10
d3-animate-choice,232,961764,0.0-76.0-1.32,TRUE,TRUE,TRUE,TRUE,"""event"",""trial"",""time""
""fullscreenenter"",""5"",""22060""
","
","
","""event"",""trial"",""time""
""fullscreenenter"",""5"",""22060""
","
",441.89000001642853,NA,48,NA,NA,3000,1,NA,NA,images/redplanet1.jpg,images/alien2,images/alien1,images/rocket1,images/alien2,images/t.png,2,real,true,2,common,1,2020-06-12T19:45:56Z,sub10
two-step-fixation,233,962770,0.0-76.0-2.32,TRUE,TRUE,TRUE,TRUE,"""event"",""trial"",""time""
""fullscreenenter"",""5"",""22060""
","
","
","""event"",""trial"",""time""
""fullscreenenter"",""5"",""22060""
","
",NA,images/earth.jpg,NA,NA,NA,NA,NA,NA,NA,NA,NA,NA,NA,NA,NA,fixation,NA,NA,NA,NA,NA,NA,sub10
d3-animate-choice,234,965360,0.0-76.0-0.33,TRUE,TRUE,TRUE,TRUE,"""event"",""trial"",""time""
""fullscreenenter"",""5"",""22060""
","
","
","""event"",""trial"",""time""
""fullscreenenter"",""5"",""22060""
","
",584.8600000026636,NA,48,NA,NA,3000,1,NA,NA,images/earth.jpg,images/rocket2,images/rocket1,null,images/rocket2,NA,1,real,null,2,NA,NA,NA,sub10
d3-animate-choice,235,967839,0.0-76.0-1.33,TRUE,TRUE,TRUE,TRUE,"""event"",""trial"",""time""
""fullscreenenter"",""5"",""22060""
","
","
","""event"",""trial"",""time""
""fullscreenenter"",""5"",""22060""
","
",476.03499999968335,NA,48,NA,NA,3000,1,NA,NA,images/purpleplanet.jpg,images/alien4,images/alien3,images/rocket2,images/alien4,images/t.png,2,real,true,2,common,1,2020-06-12T19:46:02Z,sub10
two-step-fixation,236,968842,0.0-76.0-2.33,TRUE,TRUE,TRUE,TRUE,"""event"",""trial"",""time""
""fullscreenenter"",""5"",""22060""
","
","
","""event"",""trial"",""time""
""fullscreenenter"",""5"",""22060""
","
",NA,images/earth.jpg,NA,NA,NA,NA,NA,NA,NA,NA,NA,NA,NA,NA,NA,fixation,NA,NA,NA,NA,NA,NA,sub10
d3-animate-choice,237,971276,0.0-76.0-0.34,TRUE,TRUE,TRUE,TRUE,"""event"",""trial"",""time""
""fullscreenenter"",""5"",""22060""
","
","
","""event"",""trial"",""time""
""fullscreenenter"",""5"",""22060""
","
",427.2800000035204,NA,49,NA,NA,3000,1,NA,NA,images/earth.jpg,images/rocket2,images/rocket1,null,images/rocket1,NA,1,real,null,1,NA,NA,NA,sub10
d3-animate-choice,238,973844,0.0-76.0-1.34,TRUE,TRUE,TRUE,TRUE,"""event"",""trial"",""time""
""fullscreenenter"",""5"",""22060""
","
","
","""event"",""trial"",""time""
""fullscreenenter"",""5"",""22060""
","
",564.7949999547563,NA,48,NA,NA,3000,1,NA,NA,images/redplanet1.jpg,images/alien2,images/alien1,images/rocket1,images/alien2,images/nothing.png,2,real,true,2,common,0,2020-06-12T19:46:08Z,sub10
two-step-fixation,239,974847,0.0-76.0-2.34,TRUE,TRUE,TRUE,TRUE,"""event"",""trial"",""time""
""fullscreenenter"",""5"",""22060""
","
","
","""event"",""trial"",""time""
""fullscreenenter"",""5"",""22060""
","
",NA,images/earth.jpg,NA,NA,NA,NA,NA,NA,NA,NA,NA,NA,NA,NA,NA,fixation,NA,NA,NA,NA,NA,NA,sub10
d3-animate-choice,240,977354,0.0-76.0-0.35,TRUE,TRUE,TRUE,TRUE,"""event"",""trial"",""time""
""fullscreenenter"",""5"",""22060""
","
","
","""event"",""trial"",""time""
""fullscreenenter"",""5"",""22060""
","
",503.52500000735745,NA,48,NA,NA,3000,1,NA,NA,images/earth.jpg,images/rocket2,images/rocket1,null,images/rocket2,NA,1,real,null,2,NA,NA,NA,sub10
d3-animate-choice,241,979977,0.0-76.0-1.35,TRUE,TRUE,TRUE,TRUE,"""event"",""trial"",""time""
""fullscreenenter"",""5"",""22060""
","
","
","""event"",""trial"",""time""
""fullscreenenter"",""5"",""22060""
","
",619.1150000086054,NA,48,NA,NA,3000,1,NA,NA,images/purpleplanet.jpg,images/alien4,images/alien3,images/rocket2,images/alien4,images/t.png,2,real,true,2,common,1,2020-06-12T19:46:14Z,sub10
two-step-fixation,242,980983,0.0-76.0-2.35,TRUE,TRUE,TRUE,TRUE,"""event"",""trial"",""time""
""fullscreenenter"",""5"",""22060""
","
","
","""event"",""trial"",""time""
""fullscreenenter"",""5"",""22060""
","
",NA,images/earth.jpg,NA,NA,NA,NA,NA,NA,NA,NA,NA,NA,NA,NA,NA,fixation,NA,NA,NA,NA,NA,NA,sub10
d3-animate-choice,243,983534,0.0-76.0-0.36,TRUE,TRUE,TRUE,TRUE,"""event"",""trial"",""time""
""fullscreenenter"",""5"",""22060""
","
","
","""event"",""trial"",""time""
""fullscreenenter"",""5"",""22060""
","
",547.8250000160187,NA,49,NA,NA,3000,1,NA,NA,images/earth.jpg,images/rocket2,images/rocket1,null,images/rocket1,NA,1,real,null,1,NA,NA,NA,sub10
d3-animate-choice,244,986110,0.0-76.0-1.36,TRUE,TRUE,TRUE,TRUE,"""event"",""trial"",""time""
""fullscreenenter"",""5"",""22060""
","
","
","""event"",""trial"",""time""
""fullscreenenter"",""5"",""22060""
","
",572.0749999745749,NA,49,NA,NA,3000,1,NA,NA,images/redplanet1.jpg,images/alien2,images/alien1,images/rocket1,images/alien1,images/nothing.png,2,real,true,1,common,0,2020-06-12T19:46:20Z,sub10
two-step-fixation,245,987116,0.0-76.0-2.36,TRUE,TRUE,TRUE,TRUE,"""event"",""trial"",""time""
""fullscreenenter"",""5"",""22060""
","
","
","""event"",""trial"",""time""
""fullscreenenter"",""5"",""22060""
","
",NA,images/earth.jpg,NA,NA,NA,NA,NA,NA,NA,NA,NA,NA,NA,NA,NA,fixation,NA,NA,NA,NA,NA,NA,sub10
d3-animate-choice,246,989787,0.0-76.0-0.37,TRUE,TRUE,TRUE,TRUE,"""event"",""trial"",""time""
""fullscreenenter"",""5"",""22060""
","
","
","""event"",""trial"",""time""
""fullscreenenter"",""5"",""22060""
","
",667.955000011716,NA,49,NA,NA,3000,1,NA,NA,images/earth.jpg,images/rocket2,images/rocket1,null,images/rocket1,NA,1,real,null,1,NA,NA,NA,sub10
d3-animate-choice,247,992449,0.0-76.0-1.37,TRUE,TRUE,TRUE,TRUE,"""event"",""trial"",""time""
""fullscreenenter"",""5"",""22060""
","
","
","""event"",""trial"",""time""
""fullscreenenter"",""5"",""22060""
","
",657.5300000258721,NA,48,NA,NA,3000,1,NA,NA,images/purpleplanet.jpg,images/alien4,images/alien3,images/rocket1,images/alien4,images/t.png,2,real,false,2,rare,1,2020-06-12T19:46:27Z,sub10
two-step-fixation,248,993456,0.0-76.0-2.37,TRUE,TRUE,TRUE,TRUE,"""event"",""trial"",""time""
""fullscreenenter"",""5"",""22060""
","
","
","""event"",""trial"",""time""
""fullscreenenter"",""5"",""22060""
","
",NA,images/earth.jpg,NA,NA,NA,NA,NA,NA,NA,NA,NA,NA,NA,NA,NA,fixation,NA,NA,NA,NA,NA,NA,sub10
d3-animate-choice,249,996067,0.0-76.0-0.38,TRUE,TRUE,TRUE,TRUE,"""event"",""trial"",""time""
""fullscreenenter"",""5"",""22060""
","
","
","""event"",""trial"",""time""
""fullscreenenter"",""5"",""22060""
","
",605.9099999838509,NA,49,NA,NA,3000,1,NA,NA,images/earth.jpg,images/rocket2,images/rocket1,null,images/rocket1,NA,1,real,null,1,NA,NA,NA,sub10
d3-animate-choice,250,998654,0.0-76.0-1.38,TRUE,TRUE,TRUE,TRUE,"""event"",""trial"",""time""
""fullscreenenter"",""5"",""22060""
","
","
","""event"",""trial"",""time""
""fullscreenenter"",""5"",""22060""
","
",583.9799999957904,NA,48,NA,NA,3000,1,NA,NA,images/redplanet1.jpg,images/alien2,images/alien1,images/rocket1,images/alien2,images/t.png,2,real,true,2,common,1,2020-06-12T19:46:33Z,sub10
two-step-fixation,251,999658,0.0-76.0-2.38,TRUE,TRUE,TRUE,TRUE,"""event"",""trial"",""time""
""fullscreenenter"",""5"",""22060""
","
","
","""event"",""trial"",""time""
""fullscreenenter"",""5"",""22060""
","
",NA,images/earth.jpg,NA,NA,NA,NA,NA,NA,NA,NA,NA,NA,NA,NA,NA,fixation,NA,NA,NA,NA,NA,NA,sub10
d3-animate-choice,252,1003247,0.0-76.0-0.39,TRUE,TRUE,TRUE,TRUE,"""event"",""trial"",""time""
""fullscreenenter"",""5"",""22060""
","
","
","""event"",""trial"",""time""
""fullscreenenter"",""5"",""22060""
","
",1585.2799999993294,NA,48,NA,NA,3000,1,NA,NA,images/earth.jpg,images/rocket2,images/rocket1,null,images/rocket2,NA,1,real,null,2,NA,NA,NA,sub10
d3-animate-choice,253,1005720,0.0-76.0-1.39,TRUE,TRUE,TRUE,TRUE,"""event"",""trial"",""time""
""fullscreenenter"",""5"",""22060""
","
","
","""event"",""trial"",""time""
""fullscreenenter"",""5"",""22060""
","
",468.85999996447936,NA,48,NA,NA,3000,1,NA,NA,images/redplanet1.jpg,images/alien2,images/alien1,images/rocket2,images/alien2,images/nothing.png,2,real,false,2,rare,0,2020-06-12T19:46:40Z,sub10
two-step-fixation,254,1006724,0.0-76.0-2.39,TRUE,TRUE,TRUE,TRUE,"""event"",""trial"",""time""
""fullscreenenter"",""5"",""22060""
","
","
","""event"",""trial"",""time""
""fullscreenenter"",""5"",""22060""
","
",NA,images/earth.jpg,NA,NA,NA,NA,NA,NA,NA,NA,NA,NA,NA,NA,NA,fixation,NA,NA,NA,NA,NA,NA,sub10
d3-animate-choice,255,1009479,0.0-76.0-0.40,TRUE,TRUE,TRUE,TRUE,"""event"",""trial"",""time""
""fullscreenenter"",""5"",""22060""
","
","
","""event"",""trial"",""time""
""fullscreenenter"",""5"",""22060""
","
",750.9849999914877,NA,48,NA,NA,3000,1,NA,NA,images/earth.jpg,images/rocket2,images/rocket1,null,images/rocket2,NA,1,real,null,2,NA,NA,NA,sub10
d3-animate-choice,256,1011921,0.0-76.0-1.40,TRUE,TRUE,TRUE,TRUE,"""event"",""trial"",""time""
""fullscreenenter"",""5"",""22060""
","
","
","""event"",""trial"",""time""
""fullscreenenter"",""5"",""22060""
","
",437.73000000510365,NA,48,NA,NA,3000,1,NA,NA,images/purpleplanet.jpg,images/alien4,images/alien3,images/rocket2,images/alien4,images/t.png,2,real,true,2,common,1,2020-06-12T19:46:46Z,sub10
two-step-fixation,257,1012927,0.0-76.0-2.40,TRUE,TRUE,TRUE,TRUE,"""event"",""trial"",""time""
""fullscreenenter"",""5"",""22060""
","
","
","""event"",""trial"",""time""
""fullscreenenter"",""5"",""22060""
","
",NA,images/earth.jpg,NA,NA,NA,NA,NA,NA,NA,NA,NA,NA,NA,NA,NA,fixation,NA,NA,NA,NA,NA,NA,sub10
d3-animate-choice,258,1015349,0.0-76.0-0.41,TRUE,TRUE,TRUE,TRUE,"""event"",""trial"",""time""
""fullscreenenter"",""5"",""22060""
","
","
","""event"",""trial"",""time""
""fullscreenenter"",""5"",""22060""
","
",419.4650000426918,NA,48,NA,NA,3000,1,NA,NA,images/earth.jpg,images/rocket2,images/rocket1,null,images/rocket2,NA,1,real,null,2,NA,NA,NA,sub10
d3-animate-choice,259,1018162,0.0-76.0-1.41,TRUE,TRUE,TRUE,TRUE,"""event"",""trial"",""time""
""fullscreenenter"",""5"",""22060""
","
","
","""event"",""trial"",""time""
""fullscreenenter"",""5"",""22060""
","
",809.3950000475161,NA,48,NA,NA,3000,1,NA,NA,images/redplanet1.jpg,images/alien2,images/alien1,images/rocket2,images/alien2,images/t.png,2,real,false,2,rare,1,2020-06-12T19:46:52Z,sub10
two-step-fixation,260,1019166,0.0-76.0-2.41,TRUE,TRUE,TRUE,TRUE,"""event"",""trial"",""time""
""fullscreenenter"",""5"",""22060""
","
","
","""event"",""trial"",""time""
""fullscreenenter"",""5"",""22060""
","
",NA,images/earth.jpg,NA,NA,NA,NA,NA,NA,NA,NA,NA,NA,NA,NA,NA,fixation,NA,NA,NA,NA,NA,NA,sub10
d3-animate-choice,261,1021873,0.0-76.0-0.42,TRUE,TRUE,TRUE,TRUE,"""event"",""trial"",""time""
""fullscreenenter"",""5"",""22060""
","
","
","""event"",""trial"",""time""
""fullscreenenter"",""5"",""22060""
","
",704.2749999673106,NA,48,NA,NA,3000,1,NA,NA,images/earth.jpg,images/rocket2,images/rocket1,null,images/rocket2,NA,1,real,null,2,NA,NA,NA,sub10
d3-animate-choice,262,1024449,0.0-76.0-1.42,TRUE,TRUE,TRUE,TRUE,"""event"",""trial"",""time""
""fullscreenenter"",""5"",""22060""
","
","
","""event"",""trial"",""time""
""fullscreenenter"",""5"",""22060""
","
",571.4300000108778,NA,48,NA,NA,3000,1,NA,NA,images/purpleplanet.jpg,images/alien4,images/alien3,images/rocket2,images/alien4,images/nothing.png,2,real,true,2,common,0,2020-06-12T19:46:59Z,sub10
two-step-fixation,263,1025456,0.0-76.0-2.42,TRUE,TRUE,TRUE,TRUE,"""event"",""trial"",""time""
""fullscreenenter"",""5"",""22060""
","
","
","""event"",""trial"",""time""
""fullscreenenter"",""5"",""22060""
","
",NA,images/earth.jpg,NA,NA,NA,NA,NA,NA,NA,NA,NA,NA,NA,NA,NA,fixation,NA,NA,NA,NA,NA,NA,sub10
d3-animate-choice,264,1028051,0.0-76.0-0.43,TRUE,TRUE,TRUE,TRUE,"""event"",""trial"",""time""
""fullscreenenter"",""5"",""22060""
","
","
","""event"",""trial"",""time""
""fullscreenenter"",""5"",""22060""
","
",592.5050000078045,NA,49,NA,NA,3000,1,NA,NA,images/earth.jpg,images/rocket2,images/rocket1,null,images/rocket1,NA,1,real,null,1,NA,NA,NA,sub10
d3-animate-choice,265,1030954,0.0-76.0-1.43,TRUE,TRUE,TRUE,TRUE,"""event"",""trial"",""time""
""fullscreenenter"",""5"",""22060""
","
","
","""event"",""trial"",""time""
""fullscreenenter"",""5"",""22060""
","
",898.9700000383891,NA,48,NA,NA,3000,1,NA,NA,images/purpleplanet.jpg,images/alien4,images/alien3,images/rocket1,images/alien4,images/t.png,2,real,false,2,rare,1,2020-06-12T19:47:05Z,sub10
two-step-fixation,266,1031957,0.0-76.0-2.43,TRUE,TRUE,TRUE,TRUE,"""event"",""trial"",""time""
""fullscreenenter"",""5"",""22060""
","
","
","""event"",""trial"",""time""
""fullscreenenter"",""5"",""22060""
","
",NA,images/earth.jpg,NA,NA,NA,NA,NA,NA,NA,NA,NA,NA,NA,NA,NA,fixation,NA,NA,NA,NA,NA,NA,sub10
d3-animate-choice,267,1034635,0.0-76.0-0.44,TRUE,TRUE,TRUE,TRUE,"""event"",""trial"",""time""
""fullscreenenter"",""5"",""22060""
","
","
","""event"",""trial"",""time""
""fullscreenenter"",""5"",""22060""
","
",671.8000000109896,NA,48,NA,NA,3000,1,NA,NA,images/earth.jpg,images/rocket2,images/rocket1,null,images/rocket2,NA,1,real,null,2,NA,NA,NA,sub10
d3-animate-choice,268,1037236,0.0-76.0-1.44,TRUE,TRUE,TRUE,TRUE,"""event"",""trial"",""time""
""fullscreenenter"",""5"",""22060""
","
","
","""event"",""trial"",""time""
""fullscreenenter"",""5"",""22060""
","
",597.0799999777228,NA,48,NA,NA,3000,1,NA,NA,images/purpleplanet.jpg,images/alien4,images/alien3,images/rocket2,images/alien4,images/t.png,2,real,true,2,common,1,2020-06-12T19:47:11Z,sub10
two-step-fixation,269,1038242,0.0-76.0-2.44,TRUE,TRUE,TRUE,TRUE,"""event"",""trial"",""time""
""fullscreenenter"",""5"",""22060""
","
","
","""event"",""trial"",""time""
""fullscreenenter"",""5"",""22060""
","
",NA,images/earth.jpg,NA,NA,NA,NA,NA,NA,NA,NA,NA,NA,NA,NA,NA,fixation,NA,NA,NA,NA,NA,NA,sub10
d3-animate-choice,270,1041110,0.0-76.0-0.45,TRUE,TRUE,TRUE,TRUE,"""event"",""trial"",""time""
""fullscreenenter"",""5"",""22060""
","
","
","""event"",""trial"",""time""
""fullscreenenter"",""5"",""22060""
","
",864.9549999972805,NA,48,NA,NA,3000,1,NA,NA,images/earth.jpg,images/rocket2,images/rocket1,null,images/rocket2,NA,1,real,null,2,NA,NA,NA,sub10
d3-animate-choice,271,1044006,0.0-76.0-1.45,TRUE,TRUE,TRUE,TRUE,"""event"",""trial"",""time""
""fullscreenenter"",""5"",""22060""
","
","
","""event"",""trial"",""time""
""fullscreenenter"",""5"",""22060""
","
",892.2100000199862,NA,48,NA,NA,3000,1,NA,NA,images/purpleplanet.jpg,images/alien4,images/alien3,images/rocket2,images/alien4,images/t.png,2,real,true,2,common,1,2020-06-12T19:47:18Z,sub10
two-step-fixation,272,1045012,0.0-76.0-2.45,TRUE,TRUE,TRUE,TRUE,"""event"",""trial"",""time""
""fullscreenenter"",""5"",""22060""
","
","
","""event"",""trial"",""time""
""fullscreenenter"",""5"",""22060""
","
",NA,images/earth.jpg,NA,NA,NA,NA,NA,NA,NA,NA,NA,NA,NA,NA,NA,fixation,NA,NA,NA,NA,NA,NA,sub10
d3-animate-choice,273,1047598,0.0-76.0-0.46,TRUE,TRUE,TRUE,TRUE,"""event"",""trial"",""time""
""fullscreenenter"",""5"",""22060""
","
","
","""event"",""trial"",""time""
""fullscreenenter"",""5"",""22060""
","
",582.6250000391155,NA,49,NA,NA,3000,1,NA,NA,images/earth.jpg,images/rocket2,images/rocket1,null,images/rocket1,NA,1,real,null,1,NA,NA,NA,sub10
d3-animate-choice,274,1050074,0.0-76.0-1.46,TRUE,TRUE,TRUE,TRUE,"""event"",""trial"",""time""
""fullscreenenter"",""5"",""22060""
","
","
","""event"",""trial"",""time""
""fullscreenenter"",""5"",""22060""
","
",472.1399999689311,NA,48,NA,NA,3000,1,NA,NA,images/redplanet1.jpg,images/alien2,images/alien1,images/rocket1,images/alien2,images/t.png,2,real,true,2,common,1,2020-06-12T19:47:24Z,sub10
two-step-fixation,275,1051078,0.0-76.0-2.46,TRUE,TRUE,TRUE,TRUE,"""event"",""trial"",""time""
""fullscreenenter"",""5"",""22060""
","
","
","""event"",""trial"",""time""
""fullscreenenter"",""5"",""22060""
","
",NA,images/earth.jpg,NA,NA,NA,NA,NA,NA,NA,NA,NA,NA,NA,NA,NA,fixation,NA,NA,NA,NA,NA,NA,sub10
d3-animate-choice,276,1053615,0.0-76.0-0.47,TRUE,TRUE,TRUE,TRUE,"""event"",""trial"",""time""
""fullscreenenter"",""5"",""22060""
","
","
","""event"",""trial"",""time""
""fullscreenenter"",""5"",""22060""
","
",533.7750000180677,NA,48,NA,NA,3000,1,NA,NA,images/earth.jpg,images/rocket2,images/rocket1,null,images/rocket2,NA,1,real,null,2,NA,NA,NA,sub10
d3-animate-choice,277,1056516,0.0-76.0-1.47,TRUE,TRUE,TRUE,TRUE,"""event"",""trial"",""time""
""fullscreenenter"",""5"",""22060""
","
","
","""event"",""trial"",""time""
""fullscreenenter"",""5"",""22060""
","
",898.064999957569,NA,48,NA,NA,3000,1,NA,NA,images/redplanet1.jpg,images/alien2,images/alien1,images/rocket2,images/alien2,images/t.png,2,real,false,2,rare,1,2020-06-12T19:47:31Z,sub10
two-step-fixation,278,1057520,0.0-76.0-2.47,TRUE,TRUE,TRUE,TRUE,"""event"",""trial"",""time""
""fullscreenenter"",""5"",""22060""
","
","
","""event"",""trial"",""time""
""fullscreenenter"",""5"",""22060""
","
",NA,images/earth.jpg,NA,NA,NA,NA,NA,NA,NA,NA,NA,NA,NA,NA,NA,fixation,NA,NA,NA,NA,NA,NA,sub10
d3-animate-choice,279,1060021,0.0-76.0-0.48,TRUE,TRUE,TRUE,TRUE,"""event"",""trial"",""time""
""fullscreenenter"",""5"",""22060""
","
","
","""event"",""trial"",""time""
""fullscreenenter"",""5"",""22060""
","
",497.77000001631677,NA,49,NA,NA,3000,1,NA,NA,images/earth.jpg,images/rocket2,images/rocket1,null,images/rocket1,NA,1,real,null,1,NA,NA,NA,sub10
d3-animate-choice,280,1062982,0.0-76.0-1.48,TRUE,TRUE,TRUE,TRUE,"""event"",""trial"",""time""
""fullscreenenter"",""5"",""22060""
","
","
","""event"",""trial"",""time""
""fullscreenenter"",""5"",""22060""
","
",956.2249999726191,NA,48,NA,NA,3000,1,NA,NA,images/redplanet1.jpg,images/alien2,images/alien1,images/rocket1,images/alien2,images/t.png,2,real,true,2,common,1,2020-06-12T19:47:37Z,sub10
two-step-fixation,281,1063988,0.0-76.0-2.48,TRUE,TRUE,TRUE,TRUE,"""event"",""trial"",""time""
""fullscreenenter"",""5"",""22060""
","
","
","""event"",""trial"",""time""
""fullscreenenter"",""5"",""22060""
","
",NA,images/earth.jpg,NA,NA,NA,NA,NA,NA,NA,NA,NA,NA,NA,NA,NA,fixation,NA,NA,NA,NA,NA,NA,sub10
d3-animate-choice,282,1066338,0.0-76.0-0.49,TRUE,TRUE,TRUE,TRUE,"""event"",""trial"",""time""
""fullscreenenter"",""5"",""22060""
","
","
","""event"",""trial"",""time""
""fullscreenenter"",""5"",""22060""
","
",346.1999999708496,NA,48,NA,NA,3000,1,NA,NA,images/earth.jpg,images/rocket2,images/rocket1,null,images/rocket2,NA,1,real,null,2,NA,NA,NA,sub10
d3-animate-choice,283,1068847,0.0-76.0-1.49,TRUE,TRUE,TRUE,TRUE,"""event"",""trial"",""time""
""fullscreenenter"",""5"",""22060""
","
","
","""event"",""trial"",""time""
""fullscreenenter"",""5"",""22060""
","
",504.88000002224,NA,48,NA,NA,3000,1,NA,NA,images/purpleplanet.jpg,images/alien4,images/alien3,images/rocket2,images/alien4,images/t.png,2,real,true,2,common,1,2020-06-12T19:47:43Z,sub10
two-step-fixation,284,1069853,0.0-76.0-2.49,TRUE,TRUE,TRUE,TRUE,"""event"",""trial"",""time""
""fullscreenenter"",""5"",""22060""
","
","
","""event"",""trial"",""time""
