trial_type,trial_index,time_elapsed,internal_node_id,rocket_sides,red_planet_first_rocket,red_display_order,purple_display_order,interactions,blur_events,focus_events,fullscreenenter_events,fullscreenexit_events,rt,stimulus,key_press,button_pressed,success,duration,valid_pressed,rts,keys,planet_text,right_text,left_text,center_text,chosen_text,reward_text,trial_stage,practice_trial,transition_type,reward,timestamp,choice,transition,subject_id
pavlovia,0,23,0.0-0.0,TRUE,TRUE,FALSE,TRUE,"
","
","
","
","
",NA,NA,NA,NA,NA,NA,NA,NA,NA,NA,NA,NA,NA,NA,NA,NA,NA,NA,NA,NA,NA,NA,sub64
html-keyboard-response,1,8353,0.0-1.0,TRUE,TRUE,FALSE,TRUE,"
","
","
","
","
",8329.28999979049,Welcome! Press the space bar to begin.,32,NA,NA,NA,NA,NA,NA,NA,NA,NA,NA,NA,NA,NA,NA,NA,NA,NA,NA,NA,sub64
audio-keyboard-response,2,17245,0.0-2.0,TRUE,TRUE,FALSE,TRUE,"""event"",""trial"",""time""
""blur"",""3"",""47706""
""focus"",""3"",""226763""
""blur"",""3"",""233877""
""focus"",""3"",""235992""
","""event"",""trial"",""time""
""blur"",""3"",""47706""
""blur"",""3"",""233877""
","""event"",""trial"",""time""
""focus"",""3"",""226763""
""focus"",""3"",""235992""
","
","
",5541,audio/beep_loop.wav,32,NA,NA,NA,NA,NA,NA,NA,NA,NA,NA,NA,NA,NA,NA,NA,NA,NA,NA,NA,sub64
audio-button-response,3,246139,0.0-3.0,TRUE,TRUE,FALSE,TRUE,"""event"",""trial"",""time""
""blur"",""3"",""47706""
""focus"",""3"",""226763""
""blur"",""3"",""233877""
""focus"",""3"",""235992""
","""event"",""trial"",""time""
""blur"",""3"",""47706""
""blur"",""3"",""233877""
","""event"",""trial"",""time""
""focus"",""3"",""226763""
""focus"",""3"",""235992""
","
","
",NaN,audio/fish.mp3,NA,1,NA,NA,NA,NA,NA,NA,NA,NA,NA,NA,NA,NA,NA,NA,NA,NA,NA,NA,sub64
audio-button-response,4,250099,0.0-4.0,TRUE,TRUE,FALSE,TRUE,"""event"",""trial"",""time""
""blur"",""3"",""47706""
""focus"",""3"",""226763""
""blur"",""3"",""233877""
""focus"",""3"",""235992""
""fullscreenenter"",""5"",""267351""
","""event"",""trial"",""time""
""blur"",""3"",""47706""
""blur"",""3"",""233877""
","""event"",""trial"",""time""
""focus"",""3"",""226763""
""focus"",""3"",""235992""
","""event"",""trial"",""time""
""fullscreenenter"",""5"",""267351""
","
",NaN,audio/tiger.mp3,NA,4,NA,NA,NA,NA,NA,NA,NA,NA,NA,NA,NA,NA,NA,NA,NA,NA,NA,NA,sub64
fullscreen,5,268168,0.0-5.0,TRUE,TRUE,FALSE,TRUE,"""event"",""trial"",""time""
""blur"",""3"",""47706""
""focus"",""3"",""226763""
""blur"",""3"",""233877""
""focus"",""3"",""235992""
""fullscreenenter"",""5"",""267351""
","""event"",""trial"",""time""
""blur"",""3"",""47706""
""blur"",""3"",""233877""
","""event"",""trial"",""time""
""focus"",""3"",""226763""
""focus"",""3"",""235992""
","""event"",""trial"",""time""
""fullscreenenter"",""5"",""267351""
","
",NA,NA,NA,NA,TRUE,NA,NA,NA,NA,NA,NA,NA,NA,NA,NA,NA,NA,NA,NA,NA,NA,NA,sub64
d3-instructions,6,285451,0.0-6.0,TRUE,TRUE,FALSE,TRUE,"""event"",""trial"",""time""
""blur"",""3"",""47706""
""focus"",""3"",""226763""
""blur"",""3"",""233877""
""focus"",""3"",""235992""
""fullscreenenter"",""5"",""267351""
","""event"",""trial"",""time""
""blur"",""3"",""47706""
""blur"",""3"",""233877""
","""event"",""trial"",""time""
""focus"",""3"",""226763""
""focus"",""3"",""235992""
","""event"",""trial"",""time""
""fullscreenenter"",""5"",""267351""
","
",NA,NA,NA,NA,NA,NA,NA,NA,NA,NA,NA,NA,NA,NA,NA,NA,NA,NA,NA,NA,NA,NA,sub64
d3-instructions,7,296117,0.0-7.0,TRUE,TRUE,FALSE,TRUE,"""event"",""trial"",""time""
""blur"",""3"",""47706""
""focus"",""3"",""226763""
""blur"",""3"",""233877""
""focus"",""3"",""235992""
""fullscreenenter"",""5"",""267351""
","""event"",""trial"",""time""
""blur"",""3"",""47706""
""blur"",""3"",""233877""
","""event"",""trial"",""time""
""focus"",""3"",""226763""
""focus"",""3"",""235992""
","""event"",""trial"",""time""
""fullscreenenter"",""5"",""267351""
","
",NA,NA,NA,NA,NA,NA,NA,NA,NA,NA,NA,NA,NA,NA,NA,NA,NA,NA,NA,NA,NA,NA,sub64
d3-instructions,8,306208,0.0-8.0,TRUE,TRUE,FALSE,TRUE,"""event"",""trial"",""time""
""blur"",""3"",""47706""
""focus"",""3"",""226763""
""blur"",""3"",""233877""
""focus"",""3"",""235992""
""fullscreenenter"",""5"",""267351""
","""event"",""trial"",""time""
""blur"",""3"",""47706""
""blur"",""3"",""233877""
","""event"",""trial"",""time""
""focus"",""3"",""226763""
""focus"",""3"",""235992""
","""event"",""trial"",""time""
""fullscreenenter"",""5"",""267351""
","
",NA,NA,NA,NA,NA,NA,NA,NA,NA,NA,NA,NA,NA,NA,NA,NA,NA,NA,NA,NA,NA,NA,sub64
d3-instructions,9,319449,0.0-9.0,TRUE,TRUE,FALSE,TRUE,"""event"",""trial"",""time""
""blur"",""3"",""47706""
""focus"",""3"",""226763""
""blur"",""3"",""233877""
""focus"",""3"",""235992""
""fullscreenenter"",""5"",""267351""
","""event"",""trial"",""time""
""blur"",""3"",""47706""
""blur"",""3"",""233877""
","""event"",""trial"",""time""
""focus"",""3"",""226763""
""focus"",""3"",""235992""
","""event"",""trial"",""time""
""fullscreenenter"",""5"",""267351""
","
",NA,NA,NA,NA,NA,NA,NA,NA,NA,NA,NA,NA,NA,NA,NA,NA,NA,NA,NA,NA,NA,NA,sub64
d3-instructions,10,348365,0.0-10.0,TRUE,TRUE,FALSE,TRUE,"""event"",""trial"",""time""
""blur"",""3"",""47706""
""focus"",""3"",""226763""
""blur"",""3"",""233877""
""focus"",""3"",""235992""
""fullscreenenter"",""5"",""267351""
","""event"",""trial"",""time""
""blur"",""3"",""47706""
""blur"",""3"",""233877""
","""event"",""trial"",""time""
""focus"",""3"",""226763""
""focus"",""3"",""235992""
","""event"",""trial"",""time""
""fullscreenenter"",""5"",""267351""
","
",NA,NA,NA,NA,NA,NA,NA,NA,NA,NA,NA,NA,NA,NA,NA,NA,NA,NA,NA,NA,NA,NA,sub64
d3-animate-choice,11,382350,0.0-11.0,TRUE,TRUE,FALSE,TRUE,"""event"",""trial"",""time""
""blur"",""3"",""47706""
""focus"",""3"",""226763""
""blur"",""3"",""233877""
""focus"",""3"",""235992""
""fullscreenenter"",""5"",""267351""
","""event"",""trial"",""time""
""blur"",""3"",""47706""
""blur"",""3"",""233877""
","""event"",""trial"",""time""
""focus"",""3"",""226763""
""focus"",""3"",""235992""
","""event"",""trial"",""time""
""fullscreenenter"",""5"",""267351""
","
",25503.250000067055,NA,97,NA,NA,3000,1,"26282.51999989152,29774.364999961108,30403.03000016138,31974.119999911636",961443548,images/tutgreenplanet.jpg,images/tutalien1,images/tutalien2,null,images/tutalien1,NA,NA,practice,null,NA,NA,NA,NA,sub64
d3-animate-choice,12,385951,0.0-12.0,TRUE,TRUE,FALSE,TRUE,"""event"",""trial"",""time""
""blur"",""3"",""47706""
""focus"",""3"",""226763""
""blur"",""3"",""233877""
""focus"",""3"",""235992""
""fullscreenenter"",""5"",""267351""
","""event"",""trial"",""time""
""blur"",""3"",""47706""
""blur"",""3"",""233877""
","""event"",""trial"",""time""
""focus"",""3"",""226763""
""focus"",""3"",""235992""
","""event"",""trial"",""time""
""fullscreenenter"",""5"",""267351""
","
",1596.4700002223253,NA,49,NA,NA,3000,1,NA,NA,images/tutgreenplanet.jpg,images/tutalien1,images/tutalien2,null,images/tutalien2,NA,NA,practice,null,NA,NA,NA,NA,sub64
d3-animate-choice,13,395636,0.0-13.0,TRUE,TRUE,FALSE,TRUE,"""event"",""trial"",""time""
""blur"",""3"",""47706""
""focus"",""3"",""226763""
""blur"",""3"",""233877""
""focus"",""3"",""235992""
""fullscreenenter"",""5"",""267351""
","""event"",""trial"",""time""
""blur"",""3"",""47706""
""blur"",""3"",""233877""
","""event"",""trial"",""time""
""focus"",""3"",""226763""
""focus"",""3"",""235992""
","""event"",""trial"",""time""
""fullscreenenter"",""5"",""267351""
","
",7675.2800000831485,NA,49,NA,NA,3000,1,NA,NA,images/tutgreenplanet.jpg,images/tutalien1,images/tutalien2,null,images/tutalien2,NA,NA,practice,null,NA,NA,NA,NA,sub64
d3-animate-choice,14,398421,0.0-14.0,TRUE,TRUE,FALSE,TRUE,"""event"",""trial"",""time""
""blur"",""3"",""47706""
""focus"",""3"",""226763""
""blur"",""3"",""233877""
""focus"",""3"",""235992""
""fullscreenenter"",""5"",""267351""
","""event"",""trial"",""time""
""blur"",""3"",""47706""
""blur"",""3"",""233877""
","""event"",""trial"",""time""
""focus"",""3"",""226763""
""focus"",""3"",""235992""
","""event"",""trial"",""time""
""fullscreenenter"",""5"",""267351""
","
",772.944999858737,NA,49,NA,NA,3000,1,NA,NA,images/tutgreenplanet.jpg,images/tutalien1,images/tutalien2,null,images/tutalien2,NA,NA,practice,null,NA,NA,NA,NA,sub64
d3-instructions,15,409005,0.0-15.0,TRUE,TRUE,FALSE,TRUE,"""event"",""trial"",""time""
""blur"",""3"",""47706""
""focus"",""3"",""226763""
""blur"",""3"",""233877""
""focus"",""3"",""235992""
""fullscreenenter"",""5"",""267351""
","""event"",""trial"",""time""
""blur"",""3"",""47706""
""blur"",""3"",""233877""
","""event"",""trial"",""time""
""focus"",""3"",""226763""
""focus"",""3"",""235992""
","""event"",""trial"",""time""
""fullscreenenter"",""5"",""267351""
","
",NA,NA,NA,NA,NA,NA,NA,NA,NA,NA,NA,NA,NA,NA,NA,NA,NA,NA,NA,NA,NA,NA,sub64
d3-instructions,16,418554,0.0-16.0,TRUE,TRUE,FALSE,TRUE,"""event"",""trial"",""time""
""blur"",""3"",""47706""
""focus"",""3"",""226763""
""blur"",""3"",""233877""
""focus"",""3"",""235992""
""fullscreenenter"",""5"",""267351""
","""event"",""trial"",""time""
""blur"",""3"",""47706""
""blur"",""3"",""233877""
","""event"",""trial"",""time""
""focus"",""3"",""226763""
""focus"",""3"",""235992""
","""event"",""trial"",""time""
""fullscreenenter"",""5"",""267351""
","
",NA,NA,NA,NA,NA,NA,NA,NA,NA,NA,NA,NA,NA,NA,NA,NA,NA,NA,NA,NA,NA,NA,sub64
d3-instructions,17,429350,0.0-17.0,TRUE,TRUE,FALSE,TRUE,"""event"",""trial"",""time""
""blur"",""3"",""47706""
""focus"",""3"",""226763""
""blur"",""3"",""233877""
""focus"",""3"",""235992""
""fullscreenenter"",""5"",""267351""
","""event"",""trial"",""time""
""blur"",""3"",""47706""
""blur"",""3"",""233877""
","""event"",""trial"",""time""
""focus"",""3"",""226763""
""focus"",""3"",""235992""
","""event"",""trial"",""time""
""fullscreenenter"",""5"",""267351""
","
",NA,NA,NA,NA,NA,NA,NA,NA,NA,NA,NA,NA,NA,NA,NA,NA,NA,NA,NA,NA,NA,NA,sub64
d3-instructions,18,444819,0.0-18.0,TRUE,TRUE,FALSE,TRUE,"""event"",""trial"",""time""
""blur"",""3"",""47706""
""focus"",""3"",""226763""
""blur"",""3"",""233877""
""focus"",""3"",""235992""
""fullscreenenter"",""5"",""267351""
","""event"",""trial"",""time""
""blur"",""3"",""47706""
""blur"",""3"",""233877""
","""event"",""trial"",""time""
""focus"",""3"",""226763""
""focus"",""3"",""235992""
","""event"",""trial"",""time""
""fullscreenenter"",""5"",""267351""
","
",NA,NA,NA,NA,NA,NA,NA,NA,NA,NA,NA,NA,NA,NA,NA,NA,NA,NA,NA,NA,NA,NA,sub64
d3-instructions,19,462616,0.0-19.0,TRUE,TRUE,FALSE,TRUE,"""event"",""trial"",""time""
""blur"",""3"",""47706""
""focus"",""3"",""226763""
""blur"",""3"",""233877""
""focus"",""3"",""235992""
""fullscreenenter"",""5"",""267351""
","""event"",""trial"",""time""
""blur"",""3"",""47706""
""blur"",""3"",""233877""
","""event"",""trial"",""time""
""focus"",""3"",""226763""
""focus"",""3"",""235992""
","""event"",""trial"",""time""
""fullscreenenter"",""5"",""267351""
","
",NA,NA,NA,NA,NA,NA,NA,NA,NA,NA,NA,NA,NA,NA,NA,NA,NA,NA,NA,NA,NA,NA,sub64
d3-animate-choice,20,466967,0.0-20.0,TRUE,TRUE,FALSE,TRUE,"""event"",""trial"",""time""
""blur"",""3"",""47706""
""focus"",""3"",""226763""
""blur"",""3"",""233877""
""focus"",""3"",""235992""
""fullscreenenter"",""5"",""267351""
","""event"",""trial"",""time""
""blur"",""3"",""47706""
""blur"",""3"",""233877""
","""event"",""trial"",""time""
""focus"",""3"",""226763""
""focus"",""3"",""235992""
","""event"",""trial"",""time""
""fullscreenenter"",""5"",""267351""
","
",2340.9850001335144,NA,49,NA,NA,3000,1,3637.994999997318,49,images/tutyellowplanet.jpg,null,images/tutalien3,null,images/tutalien3,images/t.png,NA,practice,null,NA,NA,NA,NA,sub64
d3-animate-choice,21,470709,0.0-21.0,TRUE,TRUE,FALSE,TRUE,"""event"",""trial"",""time""
""blur"",""3"",""47706""
""focus"",""3"",""226763""
""blur"",""3"",""233877""
""focus"",""3"",""235992""
""fullscreenenter"",""5"",""267351""
","""event"",""trial"",""time""
""blur"",""3"",""47706""
""blur"",""3"",""233877""
","""event"",""trial"",""time""
""focus"",""3"",""226763""
""focus"",""3"",""235992""
","""event"",""trial"",""time""
""fullscreenenter"",""5"",""267351""
","
",1728.1249999068677,NA,49,NA,NA,3000,1,3633.8549996726215,49,images/tutyellowplanet.jpg,null,images/tutalien3,null,images/tutalien3,images/t.png,NA,practice,null,NA,NA,NA,NA,sub64
d3-animate-choice,22,480578,0.0-22.0,TRUE,TRUE,FALSE,TRUE,"""event"",""trial"",""time""
""blur"",""3"",""47706""
""focus"",""3"",""226763""
""blur"",""3"",""233877""
""focus"",""3"",""235992""
""fullscreenenter"",""5"",""267351""
","""event"",""trial"",""time""
""blur"",""3"",""47706""
""blur"",""3"",""233877""
","""event"",""trial"",""time""
""focus"",""3"",""226763""
""focus"",""3"",""235992""
","""event"",""trial"",""time""
""fullscreenenter"",""5"",""267351""
","
",7836.769999936223,NA,49,NA,NA,3000,1,NA,NA,images/tutyellowplanet.jpg,null,images/tutalien3,null,images/tutalien3,images/t.png,NA,practice,null,NA,NA,NA,NA,sub64
d3-animate-choice,23,484757,0.0-23.0,TRUE,TRUE,FALSE,TRUE,"""event"",""trial"",""time""
""blur"",""3"",""47706""
""focus"",""3"",""226763""
""blur"",""3"",""233877""
""focus"",""3"",""235992""
""fullscreenenter"",""5"",""267351""
","""event"",""trial"",""time""
""blur"",""3"",""47706""
""blur"",""3"",""233877""
","""event"",""trial"",""time""
""focus"",""3"",""226763""
""focus"",""3"",""235992""
","""event"",""trial"",""time""
""fullscreenenter"",""5"",""267351""
","
",2133.994999807328,NA,49,NA,NA,3000,1,NA,NA,images/tutyellowplanet.jpg,null,images/tutalien3,null,images/tutalien3,images/t.png,NA,practice,null,NA,NA,NA,NA,sub64
d3-animate-choice,24,488660,0.0-24.0,TRUE,TRUE,FALSE,TRUE,"""event"",""trial"",""time""
""blur"",""3"",""47706""
""focus"",""3"",""226763""
""blur"",""3"",""233877""
""focus"",""3"",""235992""
""fullscreenenter"",""5"",""267351""
","""event"",""trial"",""time""
""blur"",""3"",""47706""
""blur"",""3"",""233877""
","""event"",""trial"",""time""
""focus"",""3"",""226763""
""focus"",""3"",""235992""
","""event"",""trial"",""time""
""fullscreenenter"",""5"",""267351""
","
",1896.1299997754395,NA,49,NA,NA,3000,1,NA,NA,images/tutyellowplanet.jpg,null,images/tutalien3,null,images/tutalien3,images/t.png,NA,practice,null,NA,NA,NA,NA,sub64
d3-animate-choice,25,491967,0.0-25.0,TRUE,TRUE,FALSE,TRUE,"""event"",""trial"",""time""
""blur"",""3"",""47706""
""focus"",""3"",""226763""
""blur"",""3"",""233877""
""focus"",""3"",""235992""
""fullscreenenter"",""5"",""267351""
","""event"",""trial"",""time""
""blur"",""3"",""47706""
""blur"",""3"",""233877""
","""event"",""trial"",""time""
""focus"",""3"",""226763""
""focus"",""3"",""235992""
","""event"",""trial"",""time""
""fullscreenenter"",""5"",""267351""
","
",1299.3350001052022,NA,49,NA,NA,3000,1,3275.3800000064075,49,images/tutyellowplanet.jpg,null,images/tutalien3,null,images/tutalien3,images/t.png,NA,practice,null,NA,NA,NA,NA,sub64
d3-animate-choice,26,495251,0.0-26.0,TRUE,TRUE,FALSE,TRUE,"""event"",""trial"",""time""
""blur"",""3"",""47706""
""focus"",""3"",""226763""
""blur"",""3"",""233877""
""focus"",""3"",""235992""
""fullscreenenter"",""5"",""267351""
","""event"",""trial"",""time""
""blur"",""3"",""47706""
""blur"",""3"",""233877""
","""event"",""trial"",""time""
""focus"",""3"",""226763""
""focus"",""3"",""235992""
","""event"",""trial"",""time""
""fullscreenenter"",""5"",""267351""
","
",1275.4750000312924,NA,49,NA,NA,3000,1,NA,NA,images/tutyellowplanet.jpg,null,images/tutalien3,null,images/tutalien3,images/t.png,NA,practice,null,NA,NA,NA,NA,sub64
d3-animate-choice,27,498769,0.0-27.0,TRUE,TRUE,FALSE,TRUE,"""event"",""trial"",""time""
""blur"",""3"",""47706""
""focus"",""3"",""226763""
""blur"",""3"",""233877""
""focus"",""3"",""235992""
""fullscreenenter"",""5"",""267351""
","""event"",""trial"",""time""
""blur"",""3"",""47706""
""blur"",""3"",""233877""
","""event"",""trial"",""time""
""focus"",""3"",""226763""
""focus"",""3"",""235992""
","""event"",""trial"",""time""
""fullscreenenter"",""5"",""267351""
","
",1512.5499996356666,NA,49,NA,NA,3000,1,NA,NA,images/tutyellowplanet.jpg,null,images/tutalien3,null,images/tutalien3,images/t.png,NA,practice,null,NA,NA,NA,NA,sub64
d3-animate-choice,28,501684,0.0-28.0,TRUE,TRUE,FALSE,TRUE,"""event"",""trial"",""time""
""blur"",""3"",""47706""
""focus"",""3"",""226763""
""blur"",""3"",""233877""
""focus"",""3"",""235992""
""fullscreenenter"",""5"",""267351""
","""event"",""trial"",""time""
""blur"",""3"",""47706""
""blur"",""3"",""233877""
","""event"",""trial"",""time""
""focus"",""3"",""226763""
""focus"",""3"",""235992""
","""event"",""trial"",""time""
""fullscreenenter"",""5"",""267351""
","
",910.7699999585748,NA,49,NA,NA,3000,1,NA,NA,images/tutyellowplanet.jpg,null,images/tutalien3,null,images/tutalien3,images/t.png,NA,practice,null,NA,NA,NA,NA,sub64
d3-animate-choice,29,504534,0.0-29.0,TRUE,TRUE,FALSE,TRUE,"""event"",""trial"",""time""
""blur"",""3"",""47706""
""focus"",""3"",""226763""
""blur"",""3"",""233877""
""focus"",""3"",""235992""
""fullscreenenter"",""5"",""267351""
","""event"",""trial"",""time""
""blur"",""3"",""47706""
""blur"",""3"",""233877""
","""event"",""trial"",""time""
""focus"",""3"",""226763""
""focus"",""3"",""235992""
","""event"",""trial"",""time""
""fullscreenenter"",""5"",""267351""
","
",845.774999819696,NA,49,NA,NA,3000,1,NA,NA,images/tutyellowplanet.jpg,null,images/tutalien3,null,images/tutalien3,images/nothing.png,NA,practice,null,NA,NA,NA,NA,sub64
d3-instructions,30,517328,0.0-30.0,TRUE,TRUE,FALSE,TRUE,"""event"",""trial"",""time""
""blur"",""3"",""47706""
""focus"",""3"",""226763""
""blur"",""3"",""233877""
""focus"",""3"",""235992""
""fullscreenenter"",""5"",""267351""
","""event"",""trial"",""time""
""blur"",""3"",""47706""
""blur"",""3"",""233877""
","""event"",""trial"",""time""
""focus"",""3"",""226763""
""focus"",""3"",""235992""
","""event"",""trial"",""time""
""fullscreenenter"",""5"",""267351""
","
",NA,NA,NA,NA,NA,NA,NA,NA,NA,NA,NA,NA,NA,NA,NA,NA,NA,NA,NA,NA,NA,NA,sub64
d3-instructions,31,531139,0.0-31.0,TRUE,TRUE,FALSE,TRUE,"""event"",""trial"",""time""
""blur"",""3"",""47706""
""focus"",""3"",""226763""
""blur"",""3"",""233877""
""focus"",""3"",""235992""
""fullscreenenter"",""5"",""267351""
","""event"",""trial"",""time""
""blur"",""3"",""47706""
""blur"",""3"",""233877""
","""event"",""trial"",""time""
""focus"",""3"",""226763""
""focus"",""3"",""235992""
","""event"",""trial"",""time""
""fullscreenenter"",""5"",""267351""
","
",NA,NA,NA,NA,NA,NA,NA,NA,NA,NA,NA,NA,NA,NA,NA,NA,NA,NA,NA,NA,NA,NA,sub64
d3-instructions,32,543578,0.0-32.0,TRUE,TRUE,FALSE,TRUE,"""event"",""trial"",""time""
""blur"",""3"",""47706""
""focus"",""3"",""226763""
""blur"",""3"",""233877""
""focus"",""3"",""235992""
""fullscreenenter"",""5"",""267351""
","""event"",""trial"",""time""
""blur"",""3"",""47706""
""blur"",""3"",""233877""
","""event"",""trial"",""time""
""focus"",""3"",""226763""
""focus"",""3"",""235992""
","""event"",""trial"",""time""
""fullscreenenter"",""5"",""267351""
","
",NA,NA,NA,NA,NA,NA,NA,NA,NA,NA,NA,NA,NA,NA,NA,NA,NA,NA,NA,NA,NA,NA,sub64
d3-instructions,33,559928,0.0-33.0,TRUE,TRUE,FALSE,TRUE,"""event"",""trial"",""time""
""blur"",""3"",""47706""
""focus"",""3"",""226763""
""blur"",""3"",""233877""
""focus"",""3"",""235992""
""fullscreenenter"",""5"",""267351""
","""event"",""trial"",""time""
""blur"",""3"",""47706""
""blur"",""3"",""233877""
","""event"",""trial"",""time""
""focus"",""3"",""226763""
""focus"",""3"",""235992""
","""event"",""trial"",""time""
""fullscreenenter"",""5"",""267351""
","
",NA,NA,NA,NA,NA,NA,NA,NA,NA,NA,NA,NA,NA,NA,NA,NA,NA,NA,NA,NA,NA,NA,sub64
d3-animate-choice,34,565996,0.0-34.0,TRUE,TRUE,FALSE,TRUE,"""event"",""trial"",""time""
""blur"",""3"",""47706""
""focus"",""3"",""226763""
""blur"",""3"",""233877""
""focus"",""3"",""235992""
""fullscreenenter"",""5"",""267351""
","""event"",""trial"",""time""
""blur"",""3"",""47706""
""blur"",""3"",""233877""
","""event"",""trial"",""time""
""focus"",""3"",""226763""
""focus"",""3"",""235992""
","""event"",""trial"",""time""
""fullscreenenter"",""5"",""267351""
","
",4046.3999998755753,NA,49,NA,NA,3000,1,NA,NA,images/tutgreenplanet.jpg,images/tutalien1,images/tutalien2,null,images/tutalien2,images/t.png,NA,practice,null,NA,NA,NA,NA,sub64
d3-animate-choice,35,570092,0.0-35.0,TRUE,TRUE,FALSE,TRUE,"""event"",""trial"",""time""
""blur"",""3"",""47706""
""focus"",""3"",""226763""
""blur"",""3"",""233877""
""focus"",""3"",""235992""
""fullscreenenter"",""5"",""267351""
","""event"",""trial"",""time""
""blur"",""3"",""47706""
""blur"",""3"",""233877""
","""event"",""trial"",""time""
""focus"",""3"",""226763""
""focus"",""3"",""235992""
","""event"",""trial"",""time""
""fullscreenenter"",""5"",""267351""
","
",2092.0049999840558,NA,49,NA,NA,3000,1,NA,NA,images/tutgreenplanet.jpg,images/tutalien1,images/tutalien2,null,images/tutalien2,images/t.png,NA,practice,null,NA,NA,NA,NA,sub64
d3-animate-choice,36,573127,0.0-36.0,TRUE,TRUE,FALSE,TRUE,"""event"",""trial"",""time""
""blur"",""3"",""47706""
""focus"",""3"",""226763""
""blur"",""3"",""233877""
""focus"",""3"",""235992""
""fullscreenenter"",""5"",""267351""
","""event"",""trial"",""time""
""blur"",""3"",""47706""
""blur"",""3"",""233877""
","""event"",""trial"",""time""
""focus"",""3"",""226763""
""focus"",""3"",""235992""
","""event"",""trial"",""time""
""fullscreenenter"",""5"",""267351""
","
",1032.7349998988211,NA,49,NA,NA,3000,1,NA,NA,images/tutgreenplanet.jpg,images/tutalien1,images/tutalien2,null,images/tutalien2,images/t.png,NA,practice,null,NA,NA,NA,NA,sub64
d3-animate-choice,37,575946,0.0-37.0,TRUE,TRUE,FALSE,TRUE,"""event"",""trial"",""time""
""blur"",""3"",""47706""
""focus"",""3"",""226763""
""blur"",""3"",""233877""
""focus"",""3"",""235992""
""fullscreenenter"",""5"",""267351""
","""event"",""trial"",""time""
""blur"",""3"",""47706""
""blur"",""3"",""233877""
","""event"",""trial"",""time""
""focus"",""3"",""226763""
""focus"",""3"",""235992""
","""event"",""trial"",""time""
""fullscreenenter"",""5"",""267351""
","
",804.7950002364814,NA,49,NA,NA,3000,1,NA,NA,images/tutgreenplanet.jpg,images/tutalien1,images/tutalien2,null,images/tutalien2,images/t.png,NA,practice,null,NA,NA,NA,NA,sub64
d3-animate-choice,38,578656,0.0-38.0,TRUE,TRUE,FALSE,TRUE,"""event"",""trial"",""time""
""blur"",""3"",""47706""
""focus"",""3"",""226763""
""blur"",""3"",""233877""
""focus"",""3"",""235992""
""fullscreenenter"",""5"",""267351""
","""event"",""trial"",""time""
""blur"",""3"",""47706""
""blur"",""3"",""233877""
","""event"",""trial"",""time""
""focus"",""3"",""226763""
""focus"",""3"",""235992""
","""event"",""trial"",""time""
""fullscreenenter"",""5"",""267351""
","
",688.1450000219047,NA,49,NA,NA,3000,1,NA,NA,images/tutgreenplanet.jpg,images/tutalien1,images/tutalien2,null,images/tutalien2,images/t.png,NA,practice,null,NA,NA,NA,NA,sub64
d3-animate-choice,39,582217,0.0-39.0,TRUE,TRUE,FALSE,TRUE,"""event"",""trial"",""time""
""blur"",""3"",""47706""
""focus"",""3"",""226763""
""blur"",""3"",""233877""
""focus"",""3"",""235992""
""fullscreenenter"",""5"",""267351""
","""event"",""trial"",""time""
""blur"",""3"",""47706""
""blur"",""3"",""233877""
","""event"",""trial"",""time""
""focus"",""3"",""226763""
""focus"",""3"",""235992""
","""event"",""trial"",""time""
""fullscreenenter"",""5"",""267351""
","
",1552.6749999262393,NA,49,NA,NA,3000,1,NA,NA,images/tutgreenplanet.jpg,images/tutalien1,images/tutalien2,null,images/tutalien2,images/t.png,NA,practice,null,NA,NA,NA,NA,sub64
d3-animate-choice,40,585878,0.0-40.0,TRUE,TRUE,FALSE,TRUE,"""event"",""trial"",""time""
""blur"",""3"",""47706""
""focus"",""3"",""226763""
""blur"",""3"",""233877""
""focus"",""3"",""235992""
""fullscreenenter"",""5"",""267351""
","""event"",""trial"",""time""
""blur"",""3"",""47706""
""blur"",""3"",""233877""
","""event"",""trial"",""time""
""focus"",""3"",""226763""
""focus"",""3"",""235992""
","""event"",""trial"",""time""
""fullscreenenter"",""5"",""267351""
","
",1656.2699996866286,NA,49,NA,NA,3000,1,NA,NA,images/tutgreenplanet.jpg,images/tutalien1,images/tutalien2,null,images/tutalien2,images/t.png,NA,practice,null,NA,NA,NA,NA,sub64
d3-animate-choice,41,589579,0.0-41.0,TRUE,TRUE,FALSE,TRUE,"""event"",""trial"",""time""
""blur"",""3"",""47706""
""focus"",""3"",""226763""
""blur"",""3"",""233877""
""focus"",""3"",""235992""
""fullscreenenter"",""5"",""267351""
","""event"",""trial"",""time""
""blur"",""3"",""47706""
""blur"",""3"",""233877""
","""event"",""trial"",""time""
""focus"",""3"",""226763""
""focus"",""3"",""235992""
","""event"",""trial"",""time""
""fullscreenenter"",""5"",""267351""
","
",1697.7399997413158,NA,49,NA,NA,3000,1,NA,NA,images/tutgreenplanet.jpg,images/tutalien1,images/tutalien2,null,images/tutalien2,images/t.png,NA,practice,null,NA,NA,NA,NA,sub64
d3-animate-choice,42,592215,0.0-42.0,TRUE,TRUE,FALSE,TRUE,"""event"",""trial"",""time""
""blur"",""3"",""47706""
""focus"",""3"",""226763""
""blur"",""3"",""233877""
""focus"",""3"",""235992""
""fullscreenenter"",""5"",""267351""
","""event"",""trial"",""time""
""blur"",""3"",""47706""
""blur"",""3"",""233877""
","""event"",""trial"",""time""
""focus"",""3"",""226763""
""focus"",""3"",""235992""
","""event"",""trial"",""time""
""fullscreenenter"",""5"",""267351""
","
",632.8150001354516,NA,48,NA,NA,3000,1,NA,NA,images/tutgreenplanet.jpg,images/tutalien1,images/tutalien2,null,images/tutalien1,images/nothing.png,NA,practice,null,NA,NA,NA,NA,sub64
d3-animate-choice,43,595754,0.0-43.0,TRUE,TRUE,FALSE,TRUE,"""event"",""trial"",""time""
""blur"",""3"",""47706""
""focus"",""3"",""226763""
""blur"",""3"",""233877""
""focus"",""3"",""235992""
""fullscreenenter"",""5"",""267351""
","""event"",""trial"",""time""
""blur"",""3"",""47706""
""blur"",""3"",""233877""
","""event"",""trial"",""time""
""focus"",""3"",""226763""
""focus"",""3"",""235992""
","""event"",""trial"",""time""
""fullscreenenter"",""5"",""267351""
","
",1534.7949997521937,NA,48,NA,NA,3000,1,NA,NA,images/tutgreenplanet.jpg,images/tutalien1,images/tutalien2,null,images/tutalien1,images/nothing.png,NA,practice,null,NA,NA,NA,NA,sub64
d3-instructions,44,610875,0.0-44.0,TRUE,TRUE,FALSE,TRUE,"""event"",""trial"",""time""
""blur"",""3"",""47706""
""focus"",""3"",""226763""
""blur"",""3"",""233877""
""focus"",""3"",""235992""
""fullscreenenter"",""5"",""267351""
","""event"",""trial"",""time""
""blur"",""3"",""47706""
""blur"",""3"",""233877""
","""event"",""trial"",""time""
""focus"",""3"",""226763""
""focus"",""3"",""235992""
","""event"",""trial"",""time""
""fullscreenenter"",""5"",""267351""
","
",NA,NA,NA,NA,NA,NA,NA,NA,NA,NA,NA,NA,NA,NA,NA,NA,NA,NA,NA,NA,NA,NA,sub64
d3-instructions,45,624323,0.0-45.0,TRUE,TRUE,FALSE,TRUE,"""event"",""trial"",""time""
""blur"",""3"",""47706""
""focus"",""3"",""226763""
""blur"",""3"",""233877""
""focus"",""3"",""235992""
""fullscreenenter"",""5"",""267351""
","""event"",""trial"",""time""
""blur"",""3"",""47706""
""blur"",""3"",""233877""
","""event"",""trial"",""time""
""focus"",""3"",""226763""
""focus"",""3"",""235992""
","""event"",""trial"",""time""
""fullscreenenter"",""5"",""267351""
","
",NA,NA,NA,NA,NA,NA,NA,NA,NA,NA,NA,NA,NA,NA,NA,NA,NA,NA,NA,NA,NA,NA,sub64
d3-instructions,46,630450,0.0-46.0,TRUE,TRUE,FALSE,TRUE,"""event"",""trial"",""time""
""blur"",""3"",""47706""
""focus"",""3"",""226763""
""blur"",""3"",""233877""
""focus"",""3"",""235992""
""fullscreenenter"",""5"",""267351""
","""event"",""trial"",""time""
""blur"",""3"",""47706""
""blur"",""3"",""233877""
","""event"",""trial"",""time""
""focus"",""3"",""226763""
""focus"",""3"",""235992""
","""event"",""trial"",""time""
""fullscreenenter"",""5"",""267351""
","
",NA,NA,NA,NA,NA,NA,NA,NA,NA,NA,NA,NA,NA,NA,NA,NA,NA,NA,NA,NA,NA,NA,sub64
d3-instructions,47,648938,0.0-47.0,TRUE,TRUE,FALSE,TRUE,"""event"",""trial"",""time""
""blur"",""3"",""47706""
""focus"",""3"",""226763""
""blur"",""3"",""233877""
""focus"",""3"",""235992""
""fullscreenenter"",""5"",""267351""
","""event"",""trial"",""time""
""blur"",""3"",""47706""
""blur"",""3"",""233877""
","""event"",""trial"",""time""
""focus"",""3"",""226763""
""focus"",""3"",""235992""
","""event"",""trial"",""time""
""fullscreenenter"",""5"",""267351""
","
",NA,NA,NA,NA,NA,NA,NA,NA,NA,NA,NA,NA,NA,NA,NA,NA,NA,NA,NA,NA,NA,NA,sub64
d3-instructions,48,656845,0.0-48.0,TRUE,TRUE,FALSE,TRUE,"""event"",""trial"",""time""
""blur"",""3"",""47706""
""focus"",""3"",""226763""
""blur"",""3"",""233877""
""focus"",""3"",""235992""
""fullscreenenter"",""5"",""267351""
","""event"",""trial"",""time""
""blur"",""3"",""47706""
""blur"",""3"",""233877""
","""event"",""trial"",""time""
""focus"",""3"",""226763""
""focus"",""3"",""235992""
","""event"",""trial"",""time""
""fullscreenenter"",""5"",""267351""
","
",NA,NA,NA,NA,NA,NA,NA,NA,NA,NA,NA,NA,NA,NA,NA,NA,NA,NA,NA,NA,NA,NA,sub64
d3-instructions,49,669061,0.0-49.0,TRUE,TRUE,FALSE,TRUE,"""event"",""trial"",""time""
""blur"",""3"",""47706""
""focus"",""3"",""226763""
""blur"",""3"",""233877""
""focus"",""3"",""235992""
""fullscreenenter"",""5"",""267351""
","""event"",""trial"",""time""
""blur"",""3"",""47706""
""blur"",""3"",""233877""
","""event"",""trial"",""time""
""focus"",""3"",""226763""
""focus"",""3"",""235992""
","""event"",""trial"",""time""
""fullscreenenter"",""5"",""267351""
","
",NA,NA,NA,NA,NA,NA,NA,NA,NA,NA,NA,NA,NA,NA,NA,NA,NA,NA,NA,NA,NA,NA,sub64
d3-instructions,50,682641,0.0-50.0,TRUE,TRUE,FALSE,TRUE,"""event"",""trial"",""time""
""blur"",""3"",""47706""
""focus"",""3"",""226763""
""blur"",""3"",""233877""
""focus"",""3"",""235992""
""fullscreenenter"",""5"",""267351""
","""event"",""trial"",""time""
""blur"",""3"",""47706""
""blur"",""3"",""233877""
","""event"",""trial"",""time""
""focus"",""3"",""226763""
""focus"",""3"",""235992""
","""event"",""trial"",""time""
""fullscreenenter"",""5"",""267351""
","
",NA,NA,NA,NA,NA,NA,NA,NA,NA,NA,NA,NA,NA,NA,NA,NA,NA,NA,NA,NA,NA,NA,sub64
d3-instructions,51,687096,0.0-51.0,TRUE,TRUE,FALSE,TRUE,"""event"",""trial"",""time""
""blur"",""3"",""47706""
""focus"",""3"",""226763""
""blur"",""3"",""233877""
""focus"",""3"",""235992""
""fullscreenenter"",""5"",""267351""
","""event"",""trial"",""time""
""blur"",""3"",""47706""
""blur"",""3"",""233877""
","""event"",""trial"",""time""
""focus"",""3"",""226763""
""focus"",""3"",""235992""
","""event"",""trial"",""time""
""fullscreenenter"",""5"",""267351""
","
",NA,NA,NA,NA,NA,NA,NA,NA,NA,NA,NA,NA,NA,NA,NA,NA,NA,NA,NA,NA,NA,NA,sub64
d3-instructions,52,705313,0.0-52.0,TRUE,TRUE,FALSE,TRUE,"""event"",""trial"",""time""
""blur"",""3"",""47706""
""focus"",""3"",""226763""
""blur"",""3"",""233877""
""focus"",""3"",""235992""
""fullscreenenter"",""5"",""267351""
","""event"",""trial"",""time""
""blur"",""3"",""47706""
""blur"",""3"",""233877""
","""event"",""trial"",""time""
""focus"",""3"",""226763""
""focus"",""3"",""235992""
","""event"",""trial"",""time""
""fullscreenenter"",""5"",""267351""
","
",NA,NA,NA,NA,NA,NA,NA,NA,NA,NA,NA,NA,NA,NA,NA,NA,NA,NA,NA,NA,NA,NA,sub64
d3-instructions,53,724114,0.0-53.0,TRUE,TRUE,FALSE,TRUE,"""event"",""trial"",""time""
""blur"",""3"",""47706""
""focus"",""3"",""226763""
""blur"",""3"",""233877""
""focus"",""3"",""235992""
""fullscreenenter"",""5"",""267351""
","""event"",""trial"",""time""
""blur"",""3"",""47706""
""blur"",""3"",""233877""
","""event"",""trial"",""time""
""focus"",""3"",""226763""
""focus"",""3"",""235992""
","""event"",""trial"",""time""
""fullscreenenter"",""5"",""267351""
","
",NA,NA,NA,NA,NA,NA,NA,NA,NA,NA,NA,NA,NA,NA,NA,NA,NA,NA,NA,NA,NA,NA,sub64
d3-instructions,54,740176,0.0-54.0,TRUE,TRUE,FALSE,TRUE,"""event"",""trial"",""time""
""blur"",""3"",""47706""
""focus"",""3"",""226763""
""blur"",""3"",""233877""
""focus"",""3"",""235992""
""fullscreenenter"",""5"",""267351""
","""event"",""trial"",""time""
""blur"",""3"",""47706""
""blur"",""3"",""233877""
","""event"",""trial"",""time""
""focus"",""3"",""226763""
""focus"",""3"",""235992""
","""event"",""trial"",""time""
""fullscreenenter"",""5"",""267351""
","
",NA,NA,NA,NA,NA,NA,NA,NA,NA,NA,NA,NA,NA,NA,NA,NA,NA,NA,NA,NA,NA,NA,sub64
d3-instructions,55,751679,0.0-55.0,TRUE,TRUE,FALSE,TRUE,"""event"",""trial"",""time""
""blur"",""3"",""47706""
""focus"",""3"",""226763""
""blur"",""3"",""233877""
""focus"",""3"",""235992""
""fullscreenenter"",""5"",""267351""
","""event"",""trial"",""time""
""blur"",""3"",""47706""
""blur"",""3"",""233877""
","""event"",""trial"",""time""
""focus"",""3"",""226763""
""focus"",""3"",""235992""
","""event"",""trial"",""time""
""fullscreenenter"",""5"",""267351""
","
",NA,NA,NA,NA,NA,NA,NA,NA,NA,NA,NA,NA,NA,NA,NA,NA,NA,NA,NA,NA,NA,NA,sub64
d3-instructions,56,761794,0.0-56.0,TRUE,TRUE,FALSE,TRUE,"""event"",""trial"",""time""
""blur"",""3"",""47706""
""focus"",""3"",""226763""
""blur"",""3"",""233877""
""focus"",""3"",""235992""
""fullscreenenter"",""5"",""267351""
","""event"",""trial"",""time""
""blur"",""3"",""47706""
""blur"",""3"",""233877""
","""event"",""trial"",""time""
""focus"",""3"",""226763""
""focus"",""3"",""235992""
","""event"",""trial"",""time""
""fullscreenenter"",""5"",""267351""
","
",NA,NA,NA,NA,NA,NA,NA,NA,NA,NA,NA,NA,NA,NA,NA,NA,NA,NA,NA,NA,NA,NA,sub64
d3-instructions,57,775045,0.0-57.0,TRUE,TRUE,FALSE,TRUE,"""event"",""trial"",""time""
""blur"",""3"",""47706""
""focus"",""3"",""226763""
""blur"",""3"",""233877""
""focus"",""3"",""235992""
""fullscreenenter"",""5"",""267351""
","""event"",""trial"",""time""
""blur"",""3"",""47706""
""blur"",""3"",""233877""
","""event"",""trial"",""time""
""focus"",""3"",""226763""
""focus"",""3"",""235992""
","""event"",""trial"",""time""
""fullscreenenter"",""5"",""267351""
","
",NA,NA,NA,NA,NA,NA,NA,NA,NA,NA,NA,NA,NA,NA,NA,NA,NA,NA,NA,NA,NA,NA,sub64
d3-instructions,58,789774,0.0-58.0,TRUE,TRUE,FALSE,TRUE,"""event"",""trial"",""time""
""blur"",""3"",""47706""
""focus"",""3"",""226763""
""blur"",""3"",""233877""
""focus"",""3"",""235992""
""fullscreenenter"",""5"",""267351""
","""event"",""trial"",""time""
""blur"",""3"",""47706""
""blur"",""3"",""233877""
","""event"",""trial"",""time""
""focus"",""3"",""226763""
""focus"",""3"",""235992""
","""event"",""trial"",""time""
""fullscreenenter"",""5"",""267351""
","
",NA,NA,NA,NA,NA,NA,NA,NA,NA,NA,NA,NA,NA,NA,NA,NA,NA,NA,NA,NA,NA,NA,sub64
d3-instructions,59,795555,0.0-59.0,TRUE,TRUE,FALSE,TRUE,"""event"",""trial"",""time""
""blur"",""3"",""47706""
""focus"",""3"",""226763""
""blur"",""3"",""233877""
""focus"",""3"",""235992""
""fullscreenenter"",""5"",""267351""
","""event"",""trial"",""time""
""blur"",""3"",""47706""
""blur"",""3"",""233877""
","""event"",""trial"",""time""
""focus"",""3"",""226763""
""focus"",""3"",""235992""
","""event"",""trial"",""time""
""fullscreenenter"",""5"",""267351""
","
",NA,NA,NA,NA,NA,NA,NA,NA,NA,NA,NA,NA,NA,NA,NA,NA,NA,NA,NA,NA,NA,NA,sub64
d3-instructions,60,805616,0.0-60.0,TRUE,TRUE,FALSE,TRUE,"""event"",""trial"",""time""
""blur"",""3"",""47706""
""focus"",""3"",""226763""
""blur"",""3"",""233877""
""focus"",""3"",""235992""
""fullscreenenter"",""5"",""267351""
","""event"",""trial"",""time""
""blur"",""3"",""47706""
""blur"",""3"",""233877""
","""event"",""trial"",""time""
""focus"",""3"",""226763""
""focus"",""3"",""235992""
","""event"",""trial"",""time""
""fullscreenenter"",""5"",""267351""
","
",NA,NA,NA,NA,NA,NA,NA,NA,NA,NA,NA,NA,NA,NA,NA,NA,NA,NA,NA,NA,NA,NA,sub64
d3-animate-choice,61,809755,0.0-61.0-0.0,TRUE,TRUE,FALSE,TRUE,"""event"",""trial"",""time""
""blur"",""3"",""47706""
""focus"",""3"",""226763""
""blur"",""3"",""233877""
""focus"",""3"",""235992""
""fullscreenenter"",""5"",""267351""
","""event"",""trial"",""time""
""blur"",""3"",""47706""
""blur"",""3"",""233877""
","""event"",""trial"",""time""
""focus"",""3"",""226763""
""focus"",""3"",""235992""
","""event"",""trial"",""time""
""fullscreenenter"",""5"",""267351""
","
",null,NA,null,NA,NA,3000,0,NA,NA,images/earth.jpg,images/tutrocket1,images/tutrocket2,null,NA,NA,1,practice,null,NA,NA,NA,NA,sub64
d3-animate-choice,62,810761,0.0-61.0-1.0,TRUE,TRUE,FALSE,TRUE,"""event"",""trial"",""time""
""blur"",""3"",""47706""
""focus"",""3"",""226763""
""blur"",""3"",""233877""
""focus"",""3"",""235992""
""fullscreenenter"",""5"",""267351""
","""event"",""trial"",""time""
""blur"",""3"",""47706""
""blur"",""3"",""233877""
","""event"",""trial"",""time""
""focus"",""3"",""226763""
""focus"",""3"",""235992""
","""event"",""trial"",""time""
""fullscreenenter"",""5"",""267351""
","
",null,NA,null,NA,NA,0,0,NA,NA,images/earth.jpg,images/tutrocket1,images/tutrocket2,null,NA,NA,2,practice,null,0,2020-06-19T17:00:57Z,NA,NA,sub64
two-step-fixation,63,811875,0.0-61.0-2.0,TRUE,TRUE,FALSE,TRUE,"""event"",""trial"",""time""
""blur"",""3"",""47706""
""focus"",""3"",""226763""
""blur"",""3"",""233877""
""focus"",""3"",""235992""
""fullscreenenter"",""5"",""267351""
","""event"",""trial"",""time""
""blur"",""3"",""47706""
""blur"",""3"",""233877""
","""event"",""trial"",""time""
""focus"",""3"",""226763""
""focus"",""3"",""235992""
","""event"",""trial"",""time""
""fullscreenenter"",""5"",""267351""
","
",NA,images/earth.jpg,NA,NA,NA,NA,NA,NA,NA,NA,NA,NA,NA,NA,NA,fixation,NA,NA,NA,NA,NA,NA,sub64
d3-animate-choice,64,815802,0.0-61.0-0.1,TRUE,TRUE,FALSE,TRUE,"""event"",""trial"",""time""
""blur"",""3"",""47706""
""focus"",""3"",""226763""
""blur"",""3"",""233877""
""focus"",""3"",""235992""
""fullscreenenter"",""5"",""267351""
","""event"",""trial"",""time""
""blur"",""3"",""47706""
""blur"",""3"",""233877""
","""event"",""trial"",""time""
""focus"",""3"",""226763""
""focus"",""3"",""235992""
","""event"",""trial"",""time""
""fullscreenenter"",""5"",""267351""
","
",1913.4249999187887,NA,49,NA,NA,3000,1,NA,NA,images/earth.jpg,images/tutrocket1,images/tutrocket2,null,images/tutrocket2,NA,1,practice,null,NA,NA,1,NA,sub64
d3-animate-choice,65,819827,0.0-61.0-1.1,TRUE,TRUE,FALSE,TRUE,"""event"",""trial"",""time""
""blur"",""3"",""47706""
""focus"",""3"",""226763""
""blur"",""3"",""233877""
""focus"",""3"",""235992""
""fullscreenenter"",""5"",""267351""
","""event"",""trial"",""time""
""blur"",""3"",""47706""
""blur"",""3"",""233877""
","""event"",""trial"",""time""
""focus"",""3"",""226763""
""focus"",""3"",""235992""
","""event"",""trial"",""time""
""fullscreenenter"",""5"",""267351""
","
",null,NA,null,NA,NA,3000,0,NA,NA,images/tutyellowplanet.jpg,images/tutalien4,images/tutalien3,images/tutrocket2,NA,NA,2,practice,true,0,2020-06-19T17:01:06Z,NA,common,sub64
two-step-fixation,66,820830,0.0-61.0-2.1,TRUE,TRUE,FALSE,TRUE,"""event"",""trial"",""time""
""blur"",""3"",""47706""
""focus"",""3"",""226763""
""blur"",""3"",""233877""
""focus"",""3"",""235992""
""fullscreenenter"",""5"",""267351""
","""event"",""trial"",""time""
""blur"",""3"",""47706""
""blur"",""3"",""233877""
","""event"",""trial"",""time""
""focus"",""3"",""226763""
""focus"",""3"",""235992""
","""event"",""trial"",""time""
""fullscreenenter"",""5"",""267351""
","
",NA,images/earth.jpg,NA,NA,NA,NA,NA,NA,NA,NA,NA,NA,NA,NA,NA,fixation,NA,NA,NA,NA,NA,NA,sub64
d3-animate-choice,67,824843,0.0-61.0-0.2,TRUE,TRUE,FALSE,TRUE,"""event"",""trial"",""time""
""blur"",""3"",""47706""
""focus"",""3"",""226763""
""blur"",""3"",""233877""
""focus"",""3"",""235992""
""fullscreenenter"",""5"",""267351""
","""event"",""trial"",""time""
""blur"",""3"",""47706""
""blur"",""3"",""233877""
","""event"",""trial"",""time""
""focus"",""3"",""226763""
""focus"",""3"",""235992""
","""event"",""trial"",""time""
""fullscreenenter"",""5"",""267351""
","
",2637.1550001204014,NA,49,NA,NA,3000,1,NA,NA,images/earth.jpg,images/tutrocket1,images/tutrocket2,null,images/tutrocket2,NA,1,practice,null,NA,NA,1,NA,sub64
d3-animate-choice,68,828850,0.0-61.0-1.2,TRUE,TRUE,FALSE,TRUE,"""event"",""trial"",""time""
""blur"",""3"",""47706""
""focus"",""3"",""226763""
""blur"",""3"",""233877""
""focus"",""3"",""235992""
""fullscreenenter"",""5"",""267351""
","""event"",""trial"",""time""
""blur"",""3"",""47706""
""blur"",""3"",""233877""
","""event"",""trial"",""time""
""focus"",""3"",""226763""
""focus"",""3"",""235992""
","""event"",""trial"",""time""
""fullscreenenter"",""5"",""267351""
","
",3028.685000259429,NA,48,NA,NA,3000,0,NA,NA,images/tutyellowplanet.jpg,images/tutalien4,images/tutalien3,images/tutrocket2,NA,NA,2,practice,true,0,2020-06-19T17:01:15Z,2,common,sub64
two-step-fixation,69,829860,0.0-61.0-2.2,TRUE,TRUE,FALSE,TRUE,"""event"",""trial"",""time""
""blur"",""3"",""47706""
""focus"",""3"",""226763""
""blur"",""3"",""233877""
""focus"",""3"",""235992""
""fullscreenenter"",""5"",""267351""
","""event"",""trial"",""time""
""blur"",""3"",""47706""
""blur"",""3"",""233877""
","""event"",""trial"",""time""
""focus"",""3"",""226763""
""focus"",""3"",""235992""
","""event"",""trial"",""time""
""fullscreenenter"",""5"",""267351""
","
",NA,images/earth.jpg,NA,NA,NA,NA,NA,NA,NA,NA,NA,NA,NA,NA,NA,fixation,NA,NA,NA,NA,NA,NA,sub64
d3-animate-choice,70,833865,0.0-61.0-0.3,TRUE,TRUE,FALSE,TRUE,"""event"",""trial"",""time""
""blur"",""3"",""47706""
""focus"",""3"",""226763""
""blur"",""3"",""233877""
""focus"",""3"",""235992""
""fullscreenenter"",""5"",""267351""
","""event"",""trial"",""time""
""blur"",""3"",""47706""
""blur"",""3"",""233877""
","""event"",""trial"",""time""
""focus"",""3"",""226763""
""focus"",""3"",""235992""
","""event"",""trial"",""time""
""fullscreenenter"",""5"",""267351""
","
",2089.5349998027086,NA,49,NA,NA,3000,1,NA,NA,images/earth.jpg,images/tutrocket1,images/tutrocket2,null,images/tutrocket2,NA,1,practice,null,NA,NA,1,NA,sub64
d3-animate-choice,71,836642,0.0-61.0-1.3,TRUE,TRUE,FALSE,TRUE,"""event"",""trial"",""time""
""blur"",""3"",""47706""
""focus"",""3"",""226763""
""blur"",""3"",""233877""
""focus"",""3"",""235992""
""fullscreenenter"",""5"",""267351""
","""event"",""trial"",""time""
""blur"",""3"",""47706""
""blur"",""3"",""233877""
","""event"",""trial"",""time""
""focus"",""3"",""226763""
""focus"",""3"",""235992""
","""event"",""trial"",""time""
""fullscreenenter"",""5"",""267351""
","
",770.7100003026426,NA,48,NA,NA,3000,1,NA,NA,images/tutyellowplanet.jpg,images/tutalien4,images/tutalien3,images/tutrocket2,images/tutalien4,images/t.png,2,practice,true,1,2020-06-19T17:01:23Z,2,common,sub64
two-step-fixation,72,837644,0.0-61.0-2.3,TRUE,TRUE,FALSE,TRUE,"""event"",""trial"",""time""
""blur"",""3"",""47706""
""focus"",""3"",""226763""
""blur"",""3"",""233877""
""focus"",""3"",""235992""
""fullscreenenter"",""5"",""267351""
","""event"",""trial"",""time""
""blur"",""3"",""47706""
""blur"",""3"",""233877""
","""event"",""trial"",""time""
""focus"",""3"",""226763""
""focus"",""3"",""235992""
","""event"",""trial"",""time""
""fullscreenenter"",""5"",""267351""
","
",NA,images/earth.jpg,NA,NA,NA,NA,NA,NA,NA,NA,NA,NA,NA,NA,NA,fixation,NA,NA,NA,NA,NA,NA,sub64
d3-animate-choice,73,841650,0.0-61.0-0.4,TRUE,TRUE,FALSE,TRUE,"""event"",""trial"",""time""
""blur"",""3"",""47706""
""focus"",""3"",""226763""
""blur"",""3"",""233877""
""focus"",""3"",""235992""
""fullscreenenter"",""5"",""267351""
","""event"",""trial"",""time""
""blur"",""3"",""47706""
""blur"",""3"",""233877""
","""event"",""trial"",""time""
""focus"",""3"",""226763""
""focus"",""3"",""235992""
","""event"",""trial"",""time""
""fullscreenenter"",""5"",""267351""
","
",null,NA,null,NA,NA,3000,0,NA,NA,images/earth.jpg,images/tutrocket1,images/tutrocket2,null,NA,NA,1,practice,null,NA,NA,NA,NA,sub64
d3-animate-choice,74,842657,0.0-61.0-1.4,TRUE,TRUE,FALSE,TRUE,"""event"",""trial"",""time""
""blur"",""3"",""47706""
""focus"",""3"",""226763""
""blur"",""3"",""233877""
""focus"",""3"",""235992""
""fullscreenenter"",""5"",""267351""
","""event"",""trial"",""time""
""blur"",""3"",""47706""
""blur"",""3"",""233877""
","""event"",""trial"",""time""
""focus"",""3"",""226763""
""focus"",""3"",""235992""
","""event"",""trial"",""time""
""fullscreenenter"",""5"",""267351""
","
",null,NA,null,NA,NA,0,0,NA,NA,images/earth.jpg,images/tutrocket1,images/tutrocket2,null,NA,NA,2,practice,null,0,2020-06-19T17:01:29Z,NA,NA,sub64
two-step-fixation,75,843662,0.0-61.0-2.4,TRUE,TRUE,FALSE,TRUE,"""event"",""trial"",""time""
""blur"",""3"",""47706""
""focus"",""3"",""226763""
""blur"",""3"",""233877""
""focus"",""3"",""235992""
""fullscreenenter"",""5"",""267351""
","""event"",""trial"",""time""
""blur"",""3"",""47706""
""blur"",""3"",""233877""
","""event"",""trial"",""time""
""focus"",""3"",""226763""
""focus"",""3"",""235992""
","""event"",""trial"",""time""
""fullscreenenter"",""5"",""267351""
","
",NA,images/earth.jpg,NA,NA,NA,NA,NA,NA,NA,NA,NA,NA,NA,NA,NA,fixation,NA,NA,NA,NA,NA,NA,sub64
d3-animate-choice,76,846609,0.0-61.0-0.5,TRUE,TRUE,FALSE,TRUE,"""event"",""trial"",""time""
""blur"",""3"",""47706""
""focus"",""3"",""226763""
""blur"",""3"",""233877""
""focus"",""3"",""235992""
""fullscreenenter"",""5"",""267351""
","""event"",""trial"",""time""
""blur"",""3"",""47706""
""blur"",""3"",""233877""
","""event"",""trial"",""time""
""focus"",""3"",""226763""
""focus"",""3"",""235992""
","""event"",""trial"",""time""
""fullscreenenter"",""5"",""267351""
","
",938.3449996821582,NA,49,NA,NA,3000,1,NA,NA,images/earth.jpg,images/tutrocket1,images/tutrocket2,null,images/tutrocket2,NA,1,practice,null,NA,NA,1,NA,sub64
d3-animate-choice,77,849211,0.0-61.0-1.5,TRUE,TRUE,FALSE,TRUE,"""event"",""trial"",""time""
""blur"",""3"",""47706""
""focus"",""3"",""226763""
""blur"",""3"",""233877""
""focus"",""3"",""235992""
""fullscreenenter"",""5"",""267351""
","""event"",""trial"",""time""
""blur"",""3"",""47706""
""blur"",""3"",""233877""
","""event"",""trial"",""time""
""focus"",""3"",""226763""
""focus"",""3"",""235992""
","""event"",""trial"",""time""
""fullscreenenter"",""5"",""267351""
","
",597.4000003188848,NA,49,NA,NA,3000,1,NA,NA,images/tutyellowplanet.jpg,images/tutalien4,images/tutalien3,images/tutrocket2,images/tutalien3,images/t.png,2,practice,true,1,2020-06-19T17:01:36Z,1,common,sub64
two-step-fixation,78,850215,0.0-61.0-2.5,TRUE,TRUE,FALSE,TRUE,"""event"",""trial"",""time""
""blur"",""3"",""47706""
""focus"",""3"",""226763""
""blur"",""3"",""233877""
""focus"",""3"",""235992""
""fullscreenenter"",""5"",""267351""
","""event"",""trial"",""time""
""blur"",""3"",""47706""
""blur"",""3"",""233877""
","""event"",""trial"",""time""
""focus"",""3"",""226763""
""focus"",""3"",""235992""
","""event"",""trial"",""time""
""fullscreenenter"",""5"",""267351""
","
",NA,images/earth.jpg,NA,NA,NA,NA,NA,NA,NA,NA,NA,NA,NA,NA,NA,fixation,NA,NA,NA,NA,NA,NA,sub64
d3-animate-choice,79,854188,0.0-61.0-0.6,TRUE,TRUE,FALSE,TRUE,"""event"",""trial"",""time""
""blur"",""3"",""47706""
""focus"",""3"",""226763""
""blur"",""3"",""233877""
""focus"",""3"",""235992""
""fullscreenenter"",""5"",""267351""
","""event"",""trial"",""time""
""blur"",""3"",""47706""
""blur"",""3"",""233877""
","""event"",""trial"",""time""
""focus"",""3"",""226763""
""focus"",""3"",""235992""
","""event"",""trial"",""time""
""fullscreenenter"",""5"",""267351""
","
",1968.0149997584522,NA,49,NA,NA,3000,1,NA,NA,images/earth.jpg,images/tutrocket1,images/tutrocket2,null,images/tutrocket2,NA,1,practice,null,NA,NA,1,NA,sub64
d3-animate-choice,80,857014,0.0-61.0-1.6,TRUE,TRUE,FALSE,TRUE,"""event"",""trial"",""time""
""blur"",""3"",""47706""
""focus"",""3"",""226763""
""blur"",""3"",""233877""
""focus"",""3"",""235992""
""fullscreenenter"",""5"",""267351""
","""event"",""trial"",""time""
""blur"",""3"",""47706""
""blur"",""3"",""233877""
","""event"",""trial"",""time""
""focus"",""3"",""226763""
""focus"",""3"",""235992""
","""event"",""trial"",""time""
""fullscreenenter"",""5"",""267351""
","
",816.3700001314282,NA,49,NA,NA,3000,1,NA,NA,images/tutyellowplanet.jpg,images/tutalien4,images/tutalien3,images/tutrocket2,images/tutalien3,images/nothing.png,2,practice,true,0,2020-06-19T17:01:44Z,1,common,sub64
two-step-fixation,81,858024,0.0-61.0-2.6,TRUE,TRUE,FALSE,TRUE,"""event"",""trial"",""time""
""blur"",""3"",""47706""
""focus"",""3"",""226763""
""blur"",""3"",""233877""
""focus"",""3"",""235992""
""fullscreenenter"",""5"",""267351""
","""event"",""trial"",""time""
""blur"",""3"",""47706""
""blur"",""3"",""233877""
","""event"",""trial"",""time""
""focus"",""3"",""226763""
""focus"",""3"",""235992""
","""event"",""trial"",""time""
""fullscreenenter"",""5"",""267351""
","
",NA,images/earth.jpg,NA,NA,NA,NA,NA,NA,NA,NA,NA,NA,NA,NA,NA,fixation,NA,NA,NA,NA,NA,NA,sub64
d3-animate-choice,82,862030,0.0-61.0-0.7,TRUE,TRUE,FALSE,TRUE,"""event"",""trial"",""time""
""blur"",""3"",""47706""
""focus"",""3"",""226763""
""blur"",""3"",""233877""
""focus"",""3"",""235992""
""fullscreenenter"",""5"",""267351""
","""event"",""trial"",""time""
""blur"",""3"",""47706""
""blur"",""3"",""233877""
","""event"",""trial"",""time""
""focus"",""3"",""226763""
""focus"",""3"",""235992""
","""event"",""trial"",""time""
""fullscreenenter"",""5"",""267351""
","
",2295.469999779016,NA,48,NA,NA,3000,1,NA,NA,images/earth.jpg,images/tutrocket1,images/tutrocket2,null,images/tutrocket1,NA,1,practice,null,NA,NA,2,NA,sub64
d3-animate-choice,83,865808,0.0-61.0-1.7,TRUE,TRUE,FALSE,TRUE,"""event"",""trial"",""time""
""blur"",""3"",""47706""
""focus"",""3"",""226763""
""blur"",""3"",""233877""
""focus"",""3"",""235992""
""fullscreenenter"",""5"",""267351""
","""event"",""trial"",""time""
""blur"",""3"",""47706""
""blur"",""3"",""233877""
","""event"",""trial"",""time""
""focus"",""3"",""226763""
""focus"",""3"",""235992""
","""event"",""trial"",""time""
""fullscreenenter"",""5"",""267351""
","
",1774.344999808818,NA,48,NA,NA,3000,1,NA,NA,images/tutgreenplanet.jpg,images/tutalien2,images/tutalien1,images/tutrocket1,images/tutalien2,images/nothing.png,2,practice,true,0,2020-06-19T17:01:52Z,2,common,sub64
two-step-fixation,84,866816,0.0-61.0-2.7,TRUE,TRUE,FALSE,TRUE,"""event"",""trial"",""time""
""blur"",""3"",""47706""
""focus"",""3"",""226763""
""blur"",""3"",""233877""
""focus"",""3"",""235992""
""fullscreenenter"",""5"",""267351""
","""event"",""trial"",""time""
""blur"",""3"",""47706""
""blur"",""3"",""233877""
","""event"",""trial"",""time""
""focus"",""3"",""226763""
""focus"",""3"",""235992""
","""event"",""trial"",""time""
""fullscreenenter"",""5"",""267351""
","
",NA,images/earth.jpg,NA,NA,NA,NA,NA,NA,NA,NA,NA,NA,NA,NA,NA,fixation,NA,NA,NA,NA,NA,NA,sub64
d3-animate-choice,85,870465,0.0-61.0-0.8,TRUE,TRUE,FALSE,TRUE,"""event"",""trial"",""time""
""blur"",""3"",""47706""
""focus"",""3"",""226763""
""blur"",""3"",""233877""
""focus"",""3"",""235992""
""fullscreenenter"",""5"",""267351""
","""event"",""trial"",""time""
""blur"",""3"",""47706""
""blur"",""3"",""233877""
","""event"",""trial"",""time""
""focus"",""3"",""226763""
""focus"",""3"",""235992""
","""event"",""trial"",""time""
""fullscreenenter"",""5"",""267351""
","
",1643.73500039801,NA,48,NA,NA,3000,1,NA,NA,images/earth.jpg,images/tutrocket1,images/tutrocket2,null,images/tutrocket1,NA,1,practice,null,NA,NA,2,NA,sub64
d3-animate-choice,86,874468,0.0-61.0-1.8,TRUE,TRUE,FALSE,TRUE,"""event"",""trial"",""time""
""blur"",""3"",""47706""
""focus"",""3"",""226763""
""blur"",""3"",""233877""
""focus"",""3"",""235992""
""fullscreenenter"",""5"",""267351""
","""event"",""trial"",""time""
""blur"",""3"",""47706""
""blur"",""3"",""233877""
","""event"",""trial"",""time""
""focus"",""3"",""226763""
""focus"",""3"",""235992""
","""event"",""trial"",""time""
""fullscreenenter"",""5"",""267351""
","
",2551.8700000829995,NA,49,NA,NA,3000,1,NA,NA,images/tutgreenplanet.jpg,images/tutalien2,images/tutalien1,images/tutrocket1,images/tutalien1,images/nothing.png,2,practice,true,0,2020-06-19T17:02:01Z,1,common,sub64
two-step-fixation,87,875472,0.0-61.0-2.8,TRUE,TRUE,FALSE,TRUE,"""event"",""trial"",""time""
""blur"",""3"",""47706""
""focus"",""3"",""226763""
""blur"",""3"",""233877""
""focus"",""3"",""235992""
""fullscreenenter"",""5"",""267351""
","""event"",""trial"",""time""
""blur"",""3"",""47706""
""blur"",""3"",""233877""
","""event"",""trial"",""time""
""focus"",""3"",""226763""
""focus"",""3"",""235992""
","""event"",""trial"",""time""
""fullscreenenter"",""5"",""267351""
","
",NA,images/earth.jpg,NA,NA,NA,NA,NA,NA,NA,NA,NA,NA,NA,NA,NA,fixation,NA,NA,NA,NA,NA,NA,sub64
d3-animate-choice,88,879477,0.0-61.0-0.9,TRUE,TRUE,FALSE,TRUE,"""event"",""trial"",""time""
""blur"",""3"",""47706""
""focus"",""3"",""226763""
""blur"",""3"",""233877""
""focus"",""3"",""235992""
""fullscreenenter"",""5"",""267351""
","""event"",""trial"",""time""
""blur"",""3"",""47706""
""blur"",""3"",""233877""
","""event"",""trial"",""time""
""focus"",""3"",""226763""
""focus"",""3"",""235992""
","""event"",""trial"",""time""
""fullscreenenter"",""5"",""267351""
","
",2074.0249999798834,NA,48,NA,NA,3000,1,NA,NA,images/earth.jpg,images/tutrocket1,images/tutrocket2,null,images/tutrocket1,NA,1,practice,null,NA,NA,2,NA,sub64
d3-animate-choice,89,882062,0.0-61.0-1.9,TRUE,TRUE,FALSE,TRUE,"""event"",""trial"",""time""
""blur"",""3"",""47706""
""focus"",""3"",""226763""
""blur"",""3"",""233877""
""focus"",""3"",""235992""
""fullscreenenter"",""5"",""267351""
","""event"",""trial"",""time""
""blur"",""3"",""47706""
""blur"",""3"",""233877""
","""event"",""trial"",""time""
""focus"",""3"",""226763""
""focus"",""3"",""235992""
","""event"",""trial"",""time""
""fullscreenenter"",""5"",""267351""
","
",580.430000089109,NA,48,NA,NA,3000,1,NA,NA,images/tutgreenplanet.jpg,images/tutalien2,images/tutalien1,images/tutrocket1,images/tutalien2,images/nothing.png,2,practice,true,0,2020-06-19T17:02:09Z,2,common,sub64
two-step-fixation,90,883073,0.0-61.0-2.9,TRUE,TRUE,FALSE,TRUE,"""event"",""trial"",""time""
""blur"",""3"",""47706""
""focus"",""3"",""226763""
""blur"",""3"",""233877""
""focus"",""3"",""235992""
""fullscreenenter"",""5"",""267351""
","""event"",""trial"",""time""
""blur"",""3"",""47706""
""blur"",""3"",""233877""
","""event"",""trial"",""time""
""focus"",""3"",""226763""
""focus"",""3"",""235992""
","""event"",""trial"",""time""
""fullscreenenter"",""5"",""267351""
","
",NA,images/earth.jpg,NA,NA,NA,NA,NA,NA,NA,NA,NA,NA,NA,NA,NA,fixation,NA,NA,NA,NA,NA,NA,sub64
d3-animate-choice,91,885462,0.0-61.0-0.10,TRUE,TRUE,FALSE,TRUE,"""event"",""trial"",""time""
""blur"",""3"",""47706""
""focus"",""3"",""226763""
""blur"",""3"",""233877""
""focus"",""3"",""235992""
""fullscreenenter"",""5"",""267351""
","""event"",""trial"",""time""
""blur"",""3"",""47706""
""blur"",""3"",""233877""
","""event"",""trial"",""time""
""focus"",""3"",""226763""
""focus"",""3"",""235992""
","""event"",""trial"",""time""
""fullscreenenter"",""5"",""267351""
","
",378.52999987080693,NA,49,NA,NA,3000,1,NA,NA,images/earth.jpg,images/tutrocket1,images/tutrocket2,null,images/tutrocket2,NA,1,practice,null,NA,NA,1,NA,sub64
d3-animate-choice,92,888343,0.0-61.0-1.10,TRUE,TRUE,FALSE,TRUE,"""event"",""trial"",""time""
""blur"",""3"",""47706""
""focus"",""3"",""226763""
""blur"",""3"",""233877""
""focus"",""3"",""235992""
""fullscreenenter"",""5"",""267351""
","""event"",""trial"",""time""
""blur"",""3"",""47706""
""blur"",""3"",""233877""
","""event"",""trial"",""time""
""focus"",""3"",""226763""
""focus"",""3"",""235992""
","""event"",""trial"",""time""
""fullscreenenter"",""5"",""267351""
","
",876.4549996703863,NA,49,NA,NA,3000,1,NA,NA,images/tutyellowplanet.jpg,images/tutalien4,images/tutalien3,images/tutrocket2,images/tutalien3,images/nothing.png,2,practice,true,0,2020-06-19T17:02:15Z,1,common,sub64
two-step-fixation,93,889354,0.0-61.0-2.10,TRUE,TRUE,FALSE,TRUE,"""event"",""trial"",""time""
""blur"",""3"",""47706""
""focus"",""3"",""226763""
""blur"",""3"",""233877""
""focus"",""3"",""235992""
""fullscreenenter"",""5"",""267351""
","""event"",""trial"",""time""
""blur"",""3"",""47706""
""blur"",""3"",""233877""
","""event"",""trial"",""time""
""focus"",""3"",""226763""
""focus"",""3"",""235992""
","""event"",""trial"",""time""
""fullscreenenter"",""5"",""267351""
","
",NA,images/earth.jpg,NA,NA,NA,NA,NA,NA,NA,NA,NA,NA,NA,NA,NA,fixation,NA,NA,NA,NA,NA,NA,sub64
d3-animate-choice,94,893359,0.0-61.0-0.11,TRUE,TRUE,FALSE,TRUE,"""event"",""trial"",""time""
""blur"",""3"",""47706""
""focus"",""3"",""226763""
""blur"",""3"",""233877""
""focus"",""3"",""235992""
""fullscreenenter"",""5"",""267351""
","""event"",""trial"",""time""
""blur"",""3"",""47706""
""blur"",""3"",""233877""
","""event"",""trial"",""time""
""focus"",""3"",""226763""
""focus"",""3"",""235992""
","""event"",""trial"",""time""
""fullscreenenter"",""5"",""267351""
","
",null,NA,null,NA,NA,3000,0,NA,NA,images/earth.jpg,images/tutrocket1,images/tutrocket2,null,NA,NA,1,practice,null,NA,NA,NA,NA,sub64
d3-animate-choice,95,894368,0.0-61.0-1.11,TRUE,TRUE,FALSE,TRUE,"""event"",""trial"",""time""
""blur"",""3"",""47706""
""focus"",""3"",""226763""
""blur"",""3"",""233877""
""focus"",""3"",""235992""
""fullscreenenter"",""5"",""267351""
","""event"",""trial"",""time""
""blur"",""3"",""47706""
""blur"",""3"",""233877""
","""event"",""trial"",""time""
""focus"",""3"",""226763""
""focus"",""3"",""235992""
","""event"",""trial"",""time""
""fullscreenenter"",""5"",""267351""
","
",null,NA,null,NA,NA,0,0,NA,NA,images/earth.jpg,images/tutrocket1,images/tutrocket2,null,NA,NA,2,practice,null,0,2020-06-19T17:02:21Z,NA,NA,sub64
two-step-fixation,96,895372,0.0-61.0-2.11,TRUE,TRUE,FALSE,TRUE,"""event"",""trial"",""time""
""blur"",""3"",""47706""
""focus"",""3"",""226763""
""blur"",""3"",""233877""
""focus"",""3"",""235992""
""fullscreenenter"",""5"",""267351""
","""event"",""trial"",""time""
""blur"",""3"",""47706""
""blur"",""3"",""233877""
","""event"",""trial"",""time""
""focus"",""3"",""226763""
""focus"",""3"",""235992""
","""event"",""trial"",""time""
""fullscreenenter"",""5"",""267351""
","
",NA,images/earth.jpg,NA,NA,NA,NA,NA,NA,NA,NA,NA,NA,NA,NA,NA,fixation,NA,NA,NA,NA,NA,NA,sub64
d3-animate-choice,97,898145,0.0-61.0-0.12,TRUE,TRUE,FALSE,TRUE,"""event"",""trial"",""time""
""blur"",""3"",""47706""
""focus"",""3"",""226763""
""blur"",""3"",""233877""
""focus"",""3"",""235992""
""fullscreenenter"",""5"",""267351""
","""event"",""trial"",""time""
""blur"",""3"",""47706""
""blur"",""3"",""233877""
","""event"",""trial"",""time""
""focus"",""3"",""226763""
""focus"",""3"",""235992""
","""event"",""trial"",""time""
""fullscreenenter"",""5"",""267351""
","
",766.695000231266,NA,49,NA,NA,3000,1,NA,NA,images/earth.jpg,images/tutrocket1,images/tutrocket2,null,images/tutrocket2,NA,1,practice,null,NA,NA,1,NA,sub64
d3-animate-choice,98,902159,0.0-61.0-1.12,TRUE,TRUE,FALSE,TRUE,"""event"",""trial"",""time""
""blur"",""3"",""47706""
""focus"",""3"",""226763""
""blur"",""3"",""233877""
""focus"",""3"",""235992""
""fullscreenenter"",""5"",""267351""
","""event"",""trial"",""time""
""blur"",""3"",""47706""
""blur"",""3"",""233877""
","""event"",""trial"",""time""
""focus"",""3"",""226763""
""focus"",""3"",""235992""
","""event"",""trial"",""time""
""fullscreenenter"",""5"",""267351""
","
",2286.1650004051626,NA,48,NA,NA,3000,1,NA,NA,images/tutyellowplanet.jpg,images/tutalien4,images/tutalien3,images/tutrocket2,images/tutalien4,images/nothing.png,2,practice,true,0,2020-06-19T17:02:29Z,2,common,sub64
two-step-fixation,99,903175,0.0-61.0-2.12,TRUE,TRUE,FALSE,TRUE,"""event"",""trial"",""time""
""blur"",""3"",""47706""
""focus"",""3"",""226763""
""blur"",""3"",""233877""
""focus"",""3"",""235992""
""fullscreenenter"",""5"",""267351""
","""event"",""trial"",""time""
""blur"",""3"",""47706""
""blur"",""3"",""233877""
","""event"",""trial"",""time""
""focus"",""3"",""226763""
""focus"",""3"",""235992""
","""event"",""trial"",""time""
""fullscreenenter"",""5"",""267351""
","
",NA,images/earth.jpg,NA,NA,NA,NA,NA,NA,NA,NA,NA,NA,NA,NA,NA,fixation,NA,NA,NA,NA,NA,NA,sub64
d3-animate-choice,100,907185,0.0-61.0-0.13,TRUE,TRUE,FALSE,TRUE,"""event"",""trial"",""time""
""blur"",""3"",""47706""
""focus"",""3"",""226763""
""blur"",""3"",""233877""
""focus"",""3"",""235992""
""fullscreenenter"",""5"",""267351""
","""event"",""trial"",""time""
""blur"",""3"",""47706""
""blur"",""3"",""233877""
","""event"",""trial"",""time""
""focus"",""3"",""226763""
""focus"",""3"",""235992""
","""event"",""trial"",""time""
""fullscreenenter"",""5"",""267351""
","
",2172.749999910593,NA,49,NA,NA,3000,1,NA,NA,images/earth.jpg,images/tutrocket1,images/tutrocket2,null,images/tutrocket2,NA,1,practice,null,NA,NA,1,NA,sub64
d3-animate-choice,101,910587,0.0-61.0-1.13,TRUE,TRUE,FALSE,TRUE,"""event"",""trial"",""time""
""blur"",""3"",""47706""
""focus"",""3"",""226763""
""blur"",""3"",""233877""
""focus"",""3"",""235992""
""fullscreenenter"",""5"",""267351""
","""event"",""trial"",""time""
""blur"",""3"",""47706""
""blur"",""3"",""233877""
","""event"",""trial"",""time""
""focus"",""3"",""226763""
""focus"",""3"",""235992""
","""event"",""trial"",""time""
""fullscreenenter"",""5"",""267351""
","
",1387.6600000075996,NA,49,NA,NA,3000,1,NA,NA,images/tutyellowplanet.jpg,images/tutalien4,images/tutalien3,images/tutrocket2,images/tutalien3,images/nothing.png,2,practice,true,0,2020-06-19T17:02:37Z,1,common,sub64
two-step-fixation,102,911590,0.0-61.0-2.13,TRUE,TRUE,FALSE,TRUE,"""event"",""trial"",""time""
""blur"",""3"",""47706""
""focus"",""3"",""226763""
""blur"",""3"",""233877""
""focus"",""3"",""235992""
""fullscreenenter"",""5"",""267351""
","""event"",""trial"",""time""
""blur"",""3"",""47706""
""blur"",""3"",""233877""
","""event"",""trial"",""time""
""focus"",""3"",""226763""
""focus"",""3"",""235992""
","""event"",""trial"",""time""
""fullscreenenter"",""5"",""267351""
","
",NA,images/earth.jpg,NA,NA,NA,NA,NA,NA,NA,NA,NA,NA,NA,NA,NA,fixation,NA,NA,NA,NA,NA,NA,sub64
d3-animate-choice,103,915229,0.0-61.0-0.14,TRUE,TRUE,FALSE,TRUE,"""event"",""trial"",""time""
""blur"",""3"",""47706""
""focus"",""3"",""226763""
""blur"",""3"",""233877""
""focus"",""3"",""235992""
""fullscreenenter"",""5"",""267351""
","""event"",""trial"",""time""
""blur"",""3"",""47706""
""blur"",""3"",""233877""
","""event"",""trial"",""time""
""focus"",""3"",""226763""
""focus"",""3"",""235992""
","""event"",""trial"",""time""
""fullscreenenter"",""5"",""267351""
","
",1633.495000191033,NA,48,NA,NA,3000,1,NA,NA,images/earth.jpg,images/tutrocket1,images/tutrocket2,null,images/tutrocket1,NA,1,practice,null,NA,NA,2,NA,sub64
d3-animate-choice,104,918042,0.0-61.0-1.14,TRUE,TRUE,FALSE,TRUE,"""event"",""trial"",""time""
""blur"",""3"",""47706""
""focus"",""3"",""226763""
""blur"",""3"",""233877""
""focus"",""3"",""235992""
""fullscreenenter"",""5"",""267351""
","""event"",""trial"",""time""
""blur"",""3"",""47706""
""blur"",""3"",""233877""
","""event"",""trial"",""time""
""focus"",""3"",""226763""
""focus"",""3"",""235992""
","""event"",""trial"",""time""
""fullscreenenter"",""5"",""267351""
","
",806.7049998790026,NA,48,NA,NA,3000,1,NA,NA,images/tutyellowplanet.jpg,images/tutalien4,images/tutalien3,images/tutrocket1,images/tutalien4,images/t.png,2,practice,false,1,2020-06-19T17:02:45Z,2,rare,sub64
two-step-fixation,105,919055,0.0-61.0-2.14,TRUE,TRUE,FALSE,TRUE,"""event"",""trial"",""time""
""blur"",""3"",""47706""
""focus"",""3"",""226763""
""blur"",""3"",""233877""
""focus"",""3"",""235992""
""fullscreenenter"",""5"",""267351""
","""event"",""trial"",""time""
""blur"",""3"",""47706""
""blur"",""3"",""233877""
","""event"",""trial"",""time""
""focus"",""3"",""226763""
""focus"",""3"",""235992""
","""event"",""trial"",""time""
""fullscreenenter"",""5"",""267351""
","
",NA,images/earth.jpg,NA,NA,NA,NA,NA,NA,NA,NA,NA,NA,NA,NA,NA,fixation,NA,NA,NA,NA,NA,NA,sub64
d3-animate-choice,106,922416,0.0-61.0-0.15,TRUE,TRUE,FALSE,TRUE,"""event"",""trial"",""time""
""blur"",""3"",""47706""
""focus"",""3"",""226763""
""blur"",""3"",""233877""
""focus"",""3"",""235992""
""fullscreenenter"",""5"",""267351""
","""event"",""trial"",""time""
""blur"",""3"",""47706""
""blur"",""3"",""233877""
","""event"",""trial"",""time""
""focus"",""3"",""226763""
""focus"",""3"",""235992""
","""event"",""trial"",""time""
""fullscreenenter"",""5"",""267351""
","
",1357.4749999679625,NA,49,NA,NA,3000,1,NA,NA,images/earth.jpg,images/tutrocket1,images/tutrocket2,null,images/tutrocket2,NA,1,practice,null,NA,NA,1,NA,sub64
d3-animate-choice,107,925798,0.0-61.0-1.15,TRUE,TRUE,FALSE,TRUE,"""event"",""trial"",""time""
""blur"",""3"",""47706""
""focus"",""3"",""226763""
""blur"",""3"",""233877""
""focus"",""3"",""235992""
""fullscreenenter"",""5"",""267351""
","""event"",""trial"",""time""
""blur"",""3"",""47706""
""blur"",""3"",""233877""
","""event"",""trial"",""time""
""focus"",""3"",""226763""
""focus"",""3"",""235992""
","""event"",""trial"",""time""
""fullscreenenter"",""5"",""267351""
","
",1378.1500002369285,NA,49,NA,NA,3000,1,NA,NA,images/tutgreenplanet.jpg,images/tutalien2,images/tutalien1,images/tutrocket2,images/tutalien1,images/nothing.png,2,practice,false,0,2020-06-19T17:02:52Z,1,rare,sub64
two-step-fixation,108,926806,0.0-61.0-2.15,TRUE,TRUE,FALSE,TRUE,"""event"",""trial"",""time""
""blur"",""3"",""47706""
""focus"",""3"",""226763""
""blur"",""3"",""233877""
""focus"",""3"",""235992""
""fullscreenenter"",""5"",""267351""
","""event"",""trial"",""time""
""blur"",""3"",""47706""
""blur"",""3"",""233877""
","""event"",""trial"",""time""
""focus"",""3"",""226763""
""focus"",""3"",""235992""
","""event"",""trial"",""time""
""fullscreenenter"",""5"",""267351""
","
",NA,images/earth.jpg,NA,NA,NA,NA,NA,NA,NA,NA,NA,NA,NA,NA,NA,fixation,NA,NA,NA,NA,NA,NA,sub64
d3-animate-choice,109,929665,0.0-61.0-0.16,TRUE,TRUE,FALSE,TRUE,"""event"",""trial"",""time""
""blur"",""3"",""47706""
""focus"",""3"",""226763""
""blur"",""3"",""233877""
""focus"",""3"",""235992""
""fullscreenenter"",""5"",""267351""
","""event"",""trial"",""time""
""blur"",""3"",""47706""
""blur"",""3"",""233877""
","""event"",""trial"",""time""
""focus"",""3"",""226763""
""focus"",""3"",""235992""
","""event"",""trial"",""time""
""fullscreenenter"",""5"",""267351""
","
",849.0849998779595,NA,49,NA,NA,3000,1,NA,NA,images/earth.jpg,images/tutrocket1,images/tutrocket2,null,images/tutrocket2,NA,1,practice,null,NA,NA,1,NA,sub64
d3-animate-choice,110,932983,0.0-61.0-1.16,TRUE,TRUE,FALSE,TRUE,"""event"",""trial"",""time""
""blur"",""3"",""47706""
""focus"",""3"",""226763""
""blur"",""3"",""233877""
""focus"",""3"",""235992""
""fullscreenenter"",""5"",""267351""
","""event"",""trial"",""time""
""blur"",""3"",""47706""
""blur"",""3"",""233877""
","""event"",""trial"",""time""
""focus"",""3"",""226763""
""focus"",""3"",""235992""
","""event"",""trial"",""time""
""fullscreenenter"",""5"",""267351""
","
",1314.1100001521409,NA,48,NA,NA,3000,1,NA,NA,images/tutyellowplanet.jpg,images/tutalien4,images/tutalien3,images/tutrocket2,images/tutalien4,images/nothing.png,2,practice,true,0,2020-06-19T17:03:00Z,2,common,sub64
two-step-fixation,111,933990,0.0-61.0-2.16,TRUE,TRUE,FALSE,TRUE,"""event"",""trial"",""time""
""blur"",""3"",""47706""
""focus"",""3"",""226763""
""blur"",""3"",""233877""
""focus"",""3"",""235992""
""fullscreenenter"",""5"",""267351""
","""event"",""trial"",""time""
""blur"",""3"",""47706""
""blur"",""3"",""233877""
","""event"",""trial"",""time""
""focus"",""3"",""226763""
""focus"",""3"",""235992""
","""event"",""trial"",""time""
""fullscreenenter"",""5"",""267351""
","
",NA,images/earth.jpg,NA,NA,NA,NA,NA,NA,NA,NA,NA,NA,NA,NA,NA,fixation,NA,NA,NA,NA,NA,NA,sub64
d3-animate-choice,112,937999,0.0-61.0-0.17,TRUE,TRUE,FALSE,TRUE,"""event"",""trial"",""time""
""blur"",""3"",""47706""
""focus"",""3"",""226763""
""blur"",""3"",""233877""
""focus"",""3"",""235992""
""fullscreenenter"",""5"",""267351""
","""event"",""trial"",""time""
""blur"",""3"",""47706""
""blur"",""3"",""233877""
","""event"",""trial"",""time""
""focus"",""3"",""226763""
""focus"",""3"",""235992""
","""event"",""trial"",""time""
""fullscreenenter"",""5"",""267351""
","
",2067.4100001342595,NA,49,NA,NA,3000,1,NA,NA,images/earth.jpg,images/tutrocket1,images/tutrocket2,null,images/tutrocket2,NA,1,practice,null,NA,NA,1,NA,sub64
d3-animate-choice,113,940937,0.0-61.0-1.17,TRUE,TRUE,FALSE,TRUE,"""event"",""trial"",""time""
""blur"",""3"",""47706""
""focus"",""3"",""226763""
""blur"",""3"",""233877""
""focus"",""3"",""235992""
""fullscreenenter"",""5"",""267351""
","""event"",""trial"",""time""
""blur"",""3"",""47706""
""blur"",""3"",""233877""
","""event"",""trial"",""time""
""focus"",""3"",""226763""
""focus"",""3"",""235992""
","""event"",""trial"",""time""
""fullscreenenter"",""5"",""267351""
","
",928.7250000052154,NA,48,NA,NA,3000,1,NA,NA,images/tutyellowplanet.jpg,images/tutalien4,images/tutalien3,images/tutrocket2,images/tutalien4,images/t.png,2,practice,true,1,2020-06-19T17:03:08Z,2,common,sub64
two-step-fixation,114,941948,0.0-61.0-2.17,TRUE,TRUE,FALSE,TRUE,"""event"",""trial"",""time""
""blur"",""3"",""47706""
""focus"",""3"",""226763""
""blur"",""3"",""233877""
""focus"",""3"",""235992""
""fullscreenenter"",""5"",""267351""
","""event"",""trial"",""time""
""blur"",""3"",""47706""
""blur"",""3"",""233877""
","""event"",""trial"",""time""
""focus"",""3"",""226763""
""focus"",""3"",""235992""
","""event"",""trial"",""time""
""fullscreenenter"",""5"",""267351""
","
",NA,images/earth.jpg,NA,NA,NA,NA,NA,NA,NA,NA,NA,NA,NA,NA,NA,fixation,NA,NA,NA,NA,NA,NA,sub64
d3-animate-choice,115,945393,0.0-61.0-0.18,TRUE,TRUE,FALSE,TRUE,"""event"",""trial"",""time""
""blur"",""3"",""47706""
""focus"",""3"",""226763""
""blur"",""3"",""233877""
""focus"",""3"",""235992""
""fullscreenenter"",""5"",""267351""
","""event"",""trial"",""time""
""blur"",""3"",""47706""
""blur"",""3"",""233877""
","""event"",""trial"",""time""
""focus"",""3"",""226763""
""focus"",""3"",""235992""
","""event"",""trial"",""time""
""fullscreenenter"",""5"",""267351""
","
",1431.499999947846,NA,48,NA,NA,3000,1,NA,NA,images/earth.jpg,images/tutrocket1,images/tutrocket2,null,images/tutrocket1,NA,1,practice,null,NA,NA,2,NA,sub64
d3-animate-choice,116,949398,0.0-61.0-1.18,TRUE,TRUE,FALSE,TRUE,"""event"",""trial"",""time""
""blur"",""3"",""47706""
""focus"",""3"",""226763""
""blur"",""3"",""233877""
""focus"",""3"",""235992""
""fullscreenenter"",""5"",""267351""
","""event"",""trial"",""time""
""blur"",""3"",""47706""
""blur"",""3"",""233877""
","""event"",""trial"",""time""
""focus"",""3"",""226763""
""focus"",""3"",""235992""
","""event"",""trial"",""time""
""fullscreenenter"",""5"",""267351""
","
",2416.199999861419,NA,49,NA,NA,3000,1,NA,NA,images/tutgreenplanet.jpg,images/tutalien2,images/tutalien1,images/tutrocket1,images/tutalien1,images/nothing.png,2,practice,true,0,2020-06-19T17:03:16Z,1,common,sub64
two-step-fixation,117,950401,0.0-61.0-2.18,TRUE,TRUE,FALSE,TRUE,"""event"",""trial"",""time""
""blur"",""3"",""47706""
""focus"",""3"",""226763""
""blur"",""3"",""233877""
""focus"",""3"",""235992""
""fullscreenenter"",""5"",""267351""
","""event"",""trial"",""time""
""blur"",""3"",""47706""
""blur"",""3"",""233877""
","""event"",""trial"",""time""
""focus"",""3"",""226763""
""focus"",""3"",""235992""
","""event"",""trial"",""time""
""fullscreenenter"",""5"",""267351""
","
",NA,images/earth.jpg,NA,NA,NA,NA,NA,NA,NA,NA,NA,NA,NA,NA,NA,fixation,NA,NA,NA,NA,NA,NA,sub64
d3-animate-choice,118,954283,0.0-61.0-0.19,TRUE,TRUE,FALSE,TRUE,"""event"",""trial"",""time""
""blur"",""3"",""47706""
""focus"",""3"",""226763""
""blur"",""3"",""233877""
""focus"",""3"",""235992""
""fullscreenenter"",""5"",""267351""
","""event"",""trial"",""time""
""blur"",""3"",""47706""
""blur"",""3"",""233877""
","""event"",""trial"",""time""
""focus"",""3"",""226763""
""focus"",""3"",""235992""
","""event"",""trial"",""time""
""fullscreenenter"",""5"",""267351""
","
",1877.4550002999604,NA,48,NA,NA,3000,1,NA,NA,images/earth.jpg,images/tutrocket1,images/tutrocket2,null,images/tutrocket1,NA,1,practice,null,NA,NA,2,NA,sub64
d3-animate-choice,119,958289,0.0-61.0-1.19,TRUE,TRUE,FALSE,TRUE,"""event"",""trial"",""time""
""blur"",""3"",""47706""
""focus"",""3"",""226763""
""blur"",""3"",""233877""
""focus"",""3"",""235992""
""fullscreenenter"",""5"",""267351""
","""event"",""trial"",""time""
""blur"",""3"",""47706""
""blur"",""3"",""233877""
","""event"",""trial"",""time""
""focus"",""3"",""226763""
""focus"",""3"",""235992""
","""event"",""trial"",""time""
""fullscreenenter"",""5"",""267351""
","
",2260.484999977052,NA,48,NA,NA,3000,1,NA,NA,images/tutgreenplanet.jpg,images/tutalien2,images/tutalien1,images/tutrocket1,images/tutalien2,images/t.png,2,practice,true,1,2020-06-19T17:03:25Z,2,common,sub64
two-step-fixation,120,959292,0.0-61.0-2.19,TRUE,TRUE,FALSE,TRUE,"""event"",""trial"",""time""
""blur"",""3"",""47706""
""focus"",""3"",""226763""
""blur"",""3"",""233877""
""focus"",""3"",""235992""
""fullscreenenter"",""5"",""267351""
","""event"",""trial"",""time""
""blur"",""3"",""47706""
""blur"",""3"",""233877""
","""event"",""trial"",""time""
""focus"",""3"",""226763""
""focus"",""3"",""235992""
","""event"",""trial"",""time""
""fullscreenenter"",""5"",""267351""
","
",NA,images/earth.jpg,NA,NA,NA,NA,NA,NA,NA,NA,NA,NA,NA,NA,NA,fixation,NA,NA,NA,NA,NA,NA,sub64
d3-instructions,121,989380,0.0-62.0,TRUE,TRUE,FALSE,TRUE,"""event"",""trial"",""time""
""blur"",""3"",""47706""
""focus"",""3"",""226763""
""blur"",""3"",""233877""
""focus"",""3"",""235992""
""fullscreenenter"",""5"",""267351""
","""event"",""trial"",""time""
""blur"",""3"",""47706""
""blur"",""3"",""233877""
","""event"",""trial"",""time""
""focus"",""3"",""226763""
""focus"",""3"",""235992""
","""event"",""trial"",""time""
""fullscreenenter"",""5"",""267351""
","
",NA,NA,NA,NA,NA,NA,NA,NA,NA,NA,NA,NA,NA,NA,NA,NA,NA,NA,NA,NA,NA,NA,sub64
audio-keyboard-response,122,995261,0.0-63.0,TRUE,TRUE,FALSE,TRUE,"""event"",""trial"",""time""
""blur"",""3"",""47706""
""focus"",""3"",""226763""
""blur"",""3"",""233877""
""focus"",""3"",""235992""
""fullscreenenter"",""5"",""267351""
","""event"",""trial"",""time""
""blur"",""3"",""47706""
""blur"",""3"",""233877""
","""event"",""trial"",""time""
""focus"",""3"",""226763""
""focus"",""3"",""235992""
","""event"",""trial"",""time""
""fullscreenenter"",""5"",""267351""
","
",5880,audio/instructions/treasure_feedback.wav,32,NA,NA,NA,NA,NA,NA,NA,NA,NA,NA,NA,NA,NA,NA,NA,NA,NA,NA,NA,sub64
d3-instructions,123,1016580,0.0-64.0,TRUE,TRUE,FALSE,TRUE,"""event"",""trial"",""time""
""blur"",""3"",""47706""
""focus"",""3"",""226763""
""blur"",""3"",""233877""
""focus"",""3"",""235992""
""fullscreenenter"",""5"",""267351""
","""event"",""trial"",""time""
""blur"",""3"",""47706""
""blur"",""3"",""233877""
","""event"",""trial"",""time""
""focus"",""3"",""226763""
""focus"",""3"",""235992""
","""event"",""trial"",""time""
""fullscreenenter"",""5"",""267351""
","
",NA,NA,NA,NA,NA,NA,NA,NA,NA,NA,NA,NA,NA,NA,NA,NA,NA,NA,NA,NA,NA,NA,sub64
d3-instructions,124,1033985,0.0-65.0,TRUE,TRUE,FALSE,TRUE,"""event"",""trial"",""time""
""blur"",""3"",""47706""
""focus"",""3"",""226763""
""blur"",""3"",""233877""
""focus"",""3"",""235992""
""fullscreenenter"",""5"",""267351""
","""event"",""trial"",""time""
""blur"",""3"",""47706""
""blur"",""3"",""233877""
","""event"",""trial"",""time""
""focus"",""3"",""226763""
""focus"",""3"",""235992""
","""event"",""trial"",""time""
""fullscreenenter"",""5"",""267351""
","
",NA,NA,NA,NA,NA,NA,NA,NA,NA,NA,NA,NA,NA,NA,NA,NA,NA,NA,NA,NA,NA,NA,sub64
d3-instructions,125,1065416,0.0-66.0,TRUE,TRUE,FALSE,TRUE,"""event"",""trial"",""time""
""blur"",""3"",""47706""
""focus"",""3"",""226763""
""blur"",""3"",""233877""
""focus"",""3"",""235992""
""fullscreenenter"",""5"",""267351""
","""event"",""trial"",""time""
""blur"",""3"",""47706""
""blur"",""3"",""233877""
","""event"",""trial"",""time""
""focus"",""3"",""226763""
""focus"",""3"",""235992""
","""event"",""trial"",""time""
""fullscreenenter"",""5"",""267351""
","
",NA,NA,NA,NA,NA,NA,NA,NA,NA,NA,NA,NA,NA,NA,NA,NA,NA,NA,NA,NA,NA,NA,sub64
d3-instructions,126,1082560,0.0-67.0,TRUE,TRUE,FALSE,TRUE,"""event"",""trial"",""time""
""blur"",""3"",""47706""
""focus"",""3"",""226763""
""blur"",""3"",""233877""
""focus"",""3"",""235992""
""fullscreenenter"",""5"",""267351""
","""event"",""trial"",""time""
""blur"",""3"",""47706""
""blur"",""3"",""233877""
","""event"",""trial"",""time""
""focus"",""3"",""226763""
""focus"",""3"",""235992""
","""event"",""trial"",""time""
""fullscreenenter"",""5"",""267351""
","
",NA,NA,NA,NA,NA,NA,NA,NA,NA,NA,NA,NA,NA,NA,NA,NA,NA,NA,NA,NA,NA,NA,sub64
d3-instructions,127,1092183,0.0-68.0,TRUE,TRUE,FALSE,TRUE,"""event"",""trial"",""time""
""blur"",""3"",""47706""
""focus"",""3"",""226763""
""blur"",""3"",""233877""
""focus"",""3"",""235992""
""fullscreenenter"",""5"",""267351""
","""event"",""trial"",""time""
""blur"",""3"",""47706""
""blur"",""3"",""233877""
","""event"",""trial"",""time""
""focus"",""3"",""226763""
""focus"",""3"",""235992""
","""event"",""trial"",""time""
""fullscreenenter"",""5"",""267351""
","
",NA,NA,NA,NA,NA,NA,NA,NA,NA,NA,NA,NA,NA,NA,NA,NA,NA,NA,NA,NA,NA,NA,sub64
instructions-quiz,128,1099368,0.0-69.0,TRUE,TRUE,FALSE,TRUE,"""event"",""trial"",""time""
""blur"",""3"",""47706""
""focus"",""3"",""226763""
""blur"",""3"",""233877""
""focus"",""3"",""235992""
""fullscreenenter"",""5"",""267351""
","""event"",""trial"",""time""
""blur"",""3"",""47706""
""blur"",""3"",""233877""
","""event"",""trial"",""time""
""focus"",""3"",""226763""
""focus"",""3"",""235992""
","""event"",""trial"",""time""
""fullscreenenter"",""5"",""267351""
","
",7177.230000030249,audio/quiz/Q1_Prompt.wav,NA,1,NA,NA,NA,NA,NA,NA,NA,NA,NA,NA,NA,NA,NA,NA,NA,NA,NA,NA,sub64
audio-keyboard-response,129,1108542,0.0-70.0,TRUE,TRUE,FALSE,TRUE,"""event"",""trial"",""time""
""blur"",""3"",""47706""
""focus"",""3"",""226763""
""blur"",""3"",""233877""
""focus"",""3"",""235992""
""fullscreenenter"",""5"",""267351""
","""event"",""trial"",""time""
""blur"",""3"",""47706""
""blur"",""3"",""233877""
","""event"",""trial"",""time""
""focus"",""3"",""226763""
""focus"",""3"",""235992""
","""event"",""trial"",""time""
""fullscreenenter"",""5"",""267351""
","
",null,audio/quiz/Q1_Correct.wav,null,NA,NA,NA,NA,NA,NA,NA,NA,NA,NA,NA,NA,NA,NA,NA,NA,NA,NA,NA,sub64
instructions-quiz,130,1121367,0.0-71.0,TRUE,TRUE,FALSE,TRUE,"""event"",""trial"",""time""
""blur"",""3"",""47706""
""focus"",""3"",""226763""
""blur"",""3"",""233877""
""focus"",""3"",""235992""
""fullscreenenter"",""5"",""267351""
","""event"",""trial"",""time""
""blur"",""3"",""47706""
""blur"",""3"",""233877""
","""event"",""trial"",""time""
""focus"",""3"",""226763""
""focus"",""3"",""235992""
","""event"",""trial"",""time""
""fullscreenenter"",""5"",""267351""
","
",12823.334999848157,audio/quiz/Q2_Prompt.wav,NA,0,NA,NA,NA,NA,NA,NA,NA,NA,NA,NA,NA,NA,NA,NA,NA,NA,NA,NA,sub64
audio-keyboard-response,131,1134232,0.0-72.0,TRUE,TRUE,FALSE,TRUE,"""event"",""trial"",""time""
""blur"",""3"",""47706""
""focus"",""3"",""226763""
""blur"",""3"",""233877""
""focus"",""3"",""235992""
""fullscreenenter"",""5"",""267351""
","""event"",""trial"",""time""
""blur"",""3"",""47706""
""blur"",""3"",""233877""
","""event"",""trial"",""time""
""focus"",""3"",""226763""
""focus"",""3"",""235992""
","""event"",""trial"",""time""
""fullscreenenter"",""5"",""267351""
","
",null,audio/quiz/Q2_Correct.wav,null,NA,NA,NA,NA,NA,NA,NA,NA,NA,NA,NA,NA,NA,NA,NA,NA,NA,NA,NA,sub64
instructions-quiz,132,1143768,0.0-73.0,TRUE,TRUE,FALSE,TRUE,"""event"",""trial"",""time""
""blur"",""3"",""47706""
""focus"",""3"",""226763""
""blur"",""3"",""233877""
""focus"",""3"",""235992""
""fullscreenenter"",""5"",""267351""
","""event"",""trial"",""time""
""blur"",""3"",""47706""
""blur"",""3"",""233877""
","""event"",""trial"",""time""
""focus"",""3"",""226763""
""focus"",""3"",""235992""
","""event"",""trial"",""time""
""fullscreenenter"",""5"",""267351""
","
",9535.339999943972,audio/quiz/Q3_Prompt.wav,NA,1,NA,NA,NA,NA,NA,NA,NA,NA,NA,NA,NA,NA,NA,NA,NA,NA,NA,NA,sub64
audio-keyboard-response,133,1149562,0.0-74.0,TRUE,TRUE,FALSE,TRUE,"""event"",""trial"",""time""
""blur"",""3"",""47706""
""focus"",""3"",""226763""
""blur"",""3"",""233877""
""focus"",""3"",""235992""
""fullscreenenter"",""5"",""267351""
","""event"",""trial"",""time""
""blur"",""3"",""47706""
""blur"",""3"",""233877""
","""event"",""trial"",""time""
""focus"",""3"",""226763""
""focus"",""3"",""235992""
","""event"",""trial"",""time""
""fullscreenenter"",""5"",""267351""
","
",null,audio/quiz/Q3_Correct.wav,null,NA,NA,NA,NA,NA,NA,NA,NA,NA,NA,NA,NA,NA,NA,NA,NA,NA,NA,NA,sub64
d3-instructions,134,1169532,0.0-75.0,TRUE,TRUE,FALSE,TRUE,"""event"",""trial"",""time""
""blur"",""3"",""47706""
""focus"",""3"",""226763""
""blur"",""3"",""233877""
""focus"",""3"",""235992""
""fullscreenenter"",""5"",""267351""
","""event"",""trial"",""time""
""blur"",""3"",""47706""
""blur"",""3"",""233877""
","""event"",""trial"",""time""
""focus"",""3"",""226763""
""focus"",""3"",""235992""
","""event"",""trial"",""time""
""fullscreenenter"",""5"",""267351""
","
",NA,NA,NA,NA,NA,NA,NA,NA,NA,NA,NA,NA,NA,NA,NA,NA,NA,NA,NA,NA,NA,NA,sub64
d3-animate-choice,135,1173542,0.0-76.0-0.0,TRUE,TRUE,FALSE,TRUE,"""event"",""trial"",""time""
""blur"",""3"",""47706""
""focus"",""3"",""226763""
""blur"",""3"",""233877""
""focus"",""3"",""235992""
""fullscreenenter"",""5"",""267351""
","""event"",""trial"",""time""
""blur"",""3"",""47706""
""blur"",""3"",""233877""
","""event"",""trial"",""time""
""focus"",""3"",""226763""
""focus"",""3"",""235992""
","""event"",""trial"",""time""
""fullscreenenter"",""5"",""267351""
","
",null,NA,null,NA,NA,3000,0,NA,NA,images/earth.jpg,images/rocket2,images/rocket1,null,NA,NA,1,real,null,NA,NA,NA,NA,sub64
d3-animate-choice,136,1174546,0.0-76.0-1.0,TRUE,TRUE,FALSE,TRUE,"""event"",""trial"",""time""
""blur"",""3"",""47706""
""focus"",""3"",""226763""
""blur"",""3"",""233877""
""focus"",""3"",""235992""
""fullscreenenter"",""5"",""267351""
","""event"",""trial"",""time""
""blur"",""3"",""47706""
""blur"",""3"",""233877""
","""event"",""trial"",""time""
""focus"",""3"",""226763""
""focus"",""3"",""235992""
","""event"",""trial"",""time""
""fullscreenenter"",""5"",""267351""
","
",null,NA,null,NA,NA,0,0,NA,NA,images/earth.jpg,images/rocket2,images/rocket1,null,NA,NA,2,real,null,0,2020-06-19T17:07:01Z,NA,NA,sub64
two-step-fixation,137,1175560,0.0-76.0-2.0,TRUE,TRUE,FALSE,TRUE,"""event"",""trial"",""time""
""blur"",""3"",""47706""
""focus"",""3"",""226763""
""blur"",""3"",""233877""
""focus"",""3"",""235992""
""fullscreenenter"",""5"",""267351""
","""event"",""trial"",""time""
""blur"",""3"",""47706""
""blur"",""3"",""233877""
","""event"",""trial"",""time""
""focus"",""3"",""226763""
""focus"",""3"",""235992""
","""event"",""trial"",""time""
""fullscreenenter"",""5"",""267351""
","
",NA,images/earth.jpg,NA,NA,NA,NA,NA,NA,NA,NA,NA,NA,NA,NA,NA,fixation,NA,NA,NA,NA,NA,NA,sub64
d3-animate-choice,138,1178366,0.0-76.0-0.1,TRUE,TRUE,FALSE,TRUE,"""event"",""trial"",""time""
""blur"",""3"",""47706""
""focus"",""3"",""226763""
""blur"",""3"",""233877""
""focus"",""3"",""235992""
""fullscreenenter"",""5"",""267351""
","""event"",""trial"",""time""
""blur"",""3"",""47706""
""blur"",""3"",""233877""
","""event"",""trial"",""time""
""focus"",""3"",""226763""
""focus"",""3"",""235992""
","""event"",""trial"",""time""
""fullscreenenter"",""5"",""267351""
","
",800.9449997916818,NA,48,NA,NA,3000,1,NA,NA,images/earth.jpg,images/rocket2,images/rocket1,null,images/rocket2,NA,1,real,null,NA,NA,2,NA,sub64
d3-animate-choice,139,1182302,0.0-76.0-1.1,TRUE,TRUE,FALSE,TRUE,"""event"",""trial"",""time""
""blur"",""3"",""47706""
""focus"",""3"",""226763""
""blur"",""3"",""233877""
""focus"",""3"",""235992""
""fullscreenenter"",""5"",""267351""
","""event"",""trial"",""time""
""blur"",""3"",""47706""
""blur"",""3"",""233877""
","""event"",""trial"",""time""
""focus"",""3"",""226763""
""focus"",""3"",""235992""
","""event"",""trial"",""time""
""fullscreenenter"",""5"",""267351""
","
",1907.3600000701845,NA,49,NA,NA,3000,1,NA,NA,images/redplanet1.jpg,images/alien2,images/alien1,images/rocket2,images/alien1,images/t.png,2,real,false,1,2020-06-19T17:07:09Z,1,rare,sub64
two-step-fixation,140,1183315,0.0-76.0-2.1,TRUE,TRUE,FALSE,TRUE,"""event"",""trial"",""time""
""blur"",""3"",""47706""
""focus"",""3"",""226763""
""blur"",""3"",""233877""
""focus"",""3"",""235992""
""fullscreenenter"",""5"",""267351""
","""event"",""trial"",""time""
""blur"",""3"",""47706""
""blur"",""3"",""233877""
","""event"",""trial"",""time""
""focus"",""3"",""226763""
""focus"",""3"",""235992""
","""event"",""trial"",""time""
""fullscreenenter"",""5"",""267351""
","
",NA,images/earth.jpg,NA,NA,NA,NA,NA,NA,NA,NA,NA,NA,NA,NA,NA,fixation,NA,NA,NA,NA,NA,NA,sub64
d3-animate-choice,141,1186321,0.0-76.0-0.2,TRUE,TRUE,FALSE,TRUE,"""event"",""trial"",""time""
""blur"",""3"",""47706""
""focus"",""3"",""226763""
""blur"",""3"",""233877""
""focus"",""3"",""235992""
""fullscreenenter"",""5"",""267351""
","""event"",""trial"",""time""
""blur"",""3"",""47706""
""blur"",""3"",""233877""
","""event"",""trial"",""time""
""focus"",""3"",""226763""
""focus"",""3"",""235992""
","""event"",""trial"",""time""
""fullscreenenter"",""5"",""267351""
","
",996.0900000296533,NA,49,NA,NA,3000,1,NA,NA,images/earth.jpg,images/rocket2,images/rocket1,null,images/rocket1,NA,1,real,null,NA,NA,1,NA,sub64
d3-animate-choice,142,1189731,0.0-76.0-1.2,TRUE,TRUE,FALSE,TRUE,"""event"",""trial"",""time""
""blur"",""3"",""47706""
""focus"",""3"",""226763""
""blur"",""3"",""233877""
""focus"",""3"",""235992""
""fullscreenenter"",""5"",""267351""
","""event"",""trial"",""time""
""blur"",""3"",""47706""
""blur"",""3"",""233877""
","""event"",""trial"",""time""
""focus"",""3"",""226763""
""focus"",""3"",""235992""
","""event"",""trial"",""time""
""fullscreenenter"",""5"",""267351""
","
",1389.035000000149,NA,48,NA,NA,3000,1,NA,NA,images/redplanet1.jpg,images/alien2,images/alien1,images/rocket1,images/alien2,images/t.png,2,real,true,1,2020-06-19T17:07:16Z,2,common,sub64
two-step-fixation,143,1190751,0.0-76.0-2.2,TRUE,TRUE,FALSE,TRUE,"""event"",""trial"",""time""
""blur"",""3"",""47706""
""focus"",""3"",""226763""
""blur"",""3"",""233877""
""focus"",""3"",""235992""
""fullscreenenter"",""5"",""267351""
","""event"",""trial"",""time""
""blur"",""3"",""47706""
""blur"",""3"",""233877""
","""event"",""trial"",""time""
""focus"",""3"",""226763""
""focus"",""3"",""235992""
","""event"",""trial"",""time""
""fullscreenenter"",""5"",""267351""
","
",NA,images/earth.jpg,NA,NA,NA,NA,NA,NA,NA,NA,NA,NA,NA,NA,NA,fixation,NA,NA,NA,NA,NA,NA,sub64
d3-animate-choice,144,1194118,0.0-76.0-0.3,TRUE,TRUE,FALSE,TRUE,"""event"",""trial"",""time""
""blur"",""3"",""47706""
""focus"",""3"",""226763""
""blur"",""3"",""233877""
""focus"",""3"",""235992""
""fullscreenenter"",""5"",""267351""
","""event"",""trial"",""time""
""blur"",""3"",""47706""
""blur"",""3"",""233877""
","""event"",""trial"",""time""
""focus"",""3"",""226763""
""focus"",""3"",""235992""
","""event"",""trial"",""time""
""fullscreenenter"",""5"",""267351""
","
",1361.4300000481308,NA,48,NA,NA,3000,1,NA,NA,images/earth.jpg,images/rocket2,images/rocket1,null,images/rocket2,NA,1,real,null,NA,NA,2,NA,sub64
d3-animate-choice,145,1197075,0.0-76.0-1.3,TRUE,TRUE,FALSE,TRUE,"""event"",""trial"",""time""
""blur"",""3"",""47706""
""focus"",""3"",""226763""
""blur"",""3"",""233877""
""focus"",""3"",""235992""
""fullscreenenter"",""5"",""267351""
","""event"",""trial"",""time""
""blur"",""3"",""47706""
""blur"",""3"",""233877""
","""event"",""trial"",""time""
""focus"",""3"",""226763""
""focus"",""3"",""235992""
","""event"",""trial"",""time""
""fullscreenenter"",""5"",""267351""
","
",946.5099996887147,NA,48,NA,NA,3000,1,NA,NA,images/redplanet1.jpg,images/alien2,images/alien1,images/rocket2,images/alien2,images/nothing.png,2,real,false,0,2020-06-19T17:07:24Z,2,rare,sub64
two-step-fixation,146,1198088,0.0-76.0-2.3,TRUE,TRUE,FALSE,TRUE,"""event"",""trial"",""time""
""blur"",""3"",""47706""
""focus"",""3"",""226763""
""blur"",""3"",""233877""
""focus"",""3"",""235992""
""fullscreenenter"",""5"",""267351""
","""event"",""trial"",""time""
""blur"",""3"",""47706""
""blur"",""3"",""233877""
","""event"",""trial"",""time""
""focus"",""3"",""226763""
""focus"",""3"",""235992""
","""event"",""trial"",""time""
""fullscreenenter"",""5"",""267351""
","
",NA,images/earth.jpg,NA,NA,NA,NA,NA,NA,NA,NA,NA,NA,NA,NA,NA,fixation,NA,NA,NA,NA,NA,NA,sub64
d3-animate-choice,147,1200969,0.0-76.0-0.4,TRUE,TRUE,FALSE,TRUE,"""event"",""trial"",""time""
""blur"",""3"",""47706""
""focus"",""3"",""226763""
""blur"",""3"",""233877""
""focus"",""3"",""235992""
""fullscreenenter"",""5"",""267351""
","""event"",""trial"",""time""
""blur"",""3"",""47706""
""blur"",""3"",""233877""
","""event"",""trial"",""time""
""focus"",""3"",""226763""
""focus"",""3"",""235992""
","""event"",""trial"",""time""
""fullscreenenter"",""5"",""267351""
","
",876.1799996718764,NA,49,NA,NA,3000,1,NA,NA,images/earth.jpg,images/rocket2,images/rocket1,null,images/rocket1,NA,1,real,null,NA,NA,1,NA,sub64
d3-animate-choice,148,1204532,0.0-76.0-1.4,TRUE,TRUE,FALSE,TRUE,"""event"",""trial"",""time""
""blur"",""3"",""47706""
""focus"",""3"",""226763""
""blur"",""3"",""233877""
""focus"",""3"",""235992""
""fullscreenenter"",""5"",""267351""
","""event"",""trial"",""time""
""blur"",""3"",""47706""
""blur"",""3"",""233877""
","""event"",""trial"",""time""
""focus"",""3"",""226763""
""focus"",""3"",""235992""
","""event"",""trial"",""time""
""fullscreenenter"",""5"",""267351""
","
",1558.694999665022,NA,49,NA,NA,3000,1,NA,NA,images/redplanet1.jpg,images/alien2,images/alien1,images/rocket1,images/alien1,images/t.png,2,real,true,1,2020-06-19T17:07:31Z,1,common,sub64
two-step-fixation,149,1205536,0.0-76.0-2.4,TRUE,TRUE,FALSE,TRUE,"""event"",""trial"",""time""
""blur"",""3"",""47706""
""focus"",""3"",""226763""
""blur"",""3"",""233877""
""focus"",""3"",""235992""
""fullscreenenter"",""5"",""267351""
","""event"",""trial"",""time""
""blur"",""3"",""47706""
""blur"",""3"",""233877""
","""event"",""trial"",""time""
""focus"",""3"",""226763""
""focus"",""3"",""235992""
","""event"",""trial"",""time""
""fullscreenenter"",""5"",""267351""
","
",NA,images/earth.jpg,NA,NA,NA,NA,NA,NA,NA,NA,NA,NA,NA,NA,NA,fixation,NA,NA,NA,NA,NA,NA,sub64
d3-animate-choice,150,1208079,0.0-76.0-0.5,TRUE,TRUE,FALSE,TRUE,"""event"",""trial"",""time""
""blur"",""3"",""47706""
""focus"",""3"",""226763""
""blur"",""3"",""233877""
""focus"",""3"",""235992""
""fullscreenenter"",""5"",""267351""
","""event"",""trial"",""time""
""blur"",""3"",""47706""
""blur"",""3"",""233877""
","""event"",""trial"",""time""
""focus"",""3"",""226763""
""focus"",""3"",""235992""
","""event"",""trial"",""time""
""fullscreenenter"",""5"",""267351""
","
",538.8150000944734,NA,48,NA,NA,3000,1,NA,NA,images/earth.jpg,images/rocket2,images/rocket1,null,images/rocket2,NA,1,real,null,NA,NA,2,NA,sub64
d3-animate-choice,151,1211912,0.0-76.0-1.5,TRUE,TRUE,FALSE,TRUE,"""event"",""trial"",""time""
""blur"",""3"",""47706""
""focus"",""3"",""226763""
""blur"",""3"",""233877""
""focus"",""3"",""235992""
""fullscreenenter"",""5"",""267351""
","""event"",""trial"",""time""
""blur"",""3"",""47706""
""blur"",""3"",""233877""
","""event"",""trial"",""time""
""focus"",""3"",""226763""
""focus"",""3"",""235992""
","""event"",""trial"",""time""
""fullscreenenter"",""5"",""267351""
","
",1824.7500001452863,NA,48,NA,NA,3000,1,1884.6050002612174,32,images/purpleplanet.jpg,images/alien4,images/alien3,images/rocket2,images/alien4,images/t.png,2,real,true,1,2020-06-19T17:07:39Z,2,common,sub64
two-step-fixation,152,1212915,0.0-76.0-2.5,TRUE,TRUE,FALSE,TRUE,"""event"",""trial"",""time""
""blur"",""3"",""47706""
""focus"",""3"",""226763""
""blur"",""3"",""233877""
""focus"",""3"",""235992""
""fullscreenenter"",""5"",""267351""
","""event"",""trial"",""time""
""blur"",""3"",""47706""
""blur"",""3"",""233877""
","""event"",""trial"",""time""
""focus"",""3"",""226763""
""focus"",""3"",""235992""
","""event"",""trial"",""time""
""fullscreenenter"",""5"",""267351""
","
",NA,images/earth.jpg,NA,NA,NA,NA,NA,NA,NA,NA,NA,NA,NA,NA,NA,fixation,NA,NA,NA,NA,NA,NA,sub64
d3-animate-choice,153,1216440,0.0-76.0-0.6,TRUE,TRUE,FALSE,TRUE,"""event"",""trial"",""time""
""blur"",""3"",""47706""
""focus"",""3"",""226763""
""blur"",""3"",""233877""
""focus"",""3"",""235992""
""fullscreenenter"",""5"",""267351""
","""event"",""trial"",""time""
""blur"",""3"",""47706""
""blur"",""3"",""233877""
","""event"",""trial"",""time""
""focus"",""3"",""226763""
""focus"",""3"",""235992""
","""event"",""trial"",""time""
""fullscreenenter"",""5"",""267351""
","
",1519.960000179708,NA,49,NA,NA,3000,1,NA,NA,images/earth.jpg,images/rocket2,images/rocket1,null,images/rocket1,NA,1,real,null,NA,NA,1,NA,sub64
d3-animate-choice,154,1220444,0.0-76.0-1.6,TRUE,TRUE,FALSE,TRUE,"""event"",""trial"",""time""
""blur"",""3"",""47706""
""focus"",""3"",""226763""
""blur"",""3"",""233877""
""focus"",""3"",""235992""
""fullscreenenter"",""5"",""267351""
","""event"",""trial"",""time""
""blur"",""3"",""47706""
""blur"",""3"",""233877""
","""event"",""trial"",""time""
""focus"",""3"",""226763""
""focus"",""3"",""235992""
","""event"",""trial"",""time""
""fullscreenenter"",""5"",""267351""
","
",2699.700000230223,NA,49,NA,NA,3000,1,2734.805000014603,48,images/redplanet1.jpg,images/alien2,images/alien1,images/rocket1,images/alien1,NA,2,real,true,0,2020-06-19T17:07:47Z,1,common,sub64
two-step-fixation,155,1221447,0.0-76.0-2.6,TRUE,TRUE,FALSE,TRUE,"""event"",""trial"",""time""
""blur"",""3"",""47706""
""focus"",""3"",""226763""
""blur"",""3"",""233877""
""focus"",""3"",""235992""
""fullscreenenter"",""5"",""267351""
","""event"",""trial"",""time""
""blur"",""3"",""47706""
""blur"",""3"",""233877""
","""event"",""trial"",""time""
""focus"",""3"",""226763""
""focus"",""3"",""235992""
","""event"",""trial"",""time""
""fullscreenenter"",""5"",""267351""
","
",NA,images/earth.jpg,NA,NA,NA,NA,NA,NA,NA,NA,NA,NA,NA,NA,NA,fixation,NA,NA,NA,NA,NA,NA,sub64
d3-animate-choice,156,1225140,0.0-76.0-0.7,TRUE,TRUE,FALSE,TRUE,"""event"",""trial"",""time""
""blur"",""3"",""47706""
""focus"",""3"",""226763""
""blur"",""3"",""233877""
""focus"",""3"",""235992""
""fullscreenenter"",""5"",""267351""
","""event"",""trial"",""time""
""blur"",""3"",""47706""
""blur"",""3"",""233877""
","""event"",""trial"",""time""
""focus"",""3"",""226763""
""focus"",""3"",""235992""
","""event"",""trial"",""time""
""fullscreenenter"",""5"",""267351""
","
",1686.354999896139,NA,48,NA,NA,3000,1,NA,NA,images/earth.jpg,images/rocket2,images/rocket1,null,images/rocket2,NA,1,real,null,NA,NA,2,NA,sub64
d3-animate-choice,157,1229146,0.0-76.0-1.7,TRUE,TRUE,FALSE,TRUE,"""event"",""trial"",""time""
""blur"",""3"",""47706""
""focus"",""3"",""226763""
""blur"",""3"",""233877""
""focus"",""3"",""235992""
""fullscreenenter"",""5"",""267351""
","""event"",""trial"",""time""
""blur"",""3"",""47706""
""blur"",""3"",""233877""
","""event"",""trial"",""time""
""focus"",""3"",""226763""
""focus"",""3"",""235992""
","""event"",""trial"",""time""
""fullscreenenter"",""5"",""267351""
","
",2452.7250002138317,NA,48,NA,NA,3000,1,2680.964999832213,32,images/purpleplanet.jpg,images/alien4,images/alien3,images/rocket2,images/alien4,images/t.png,2,real,true,1,2020-06-19T17:07:56Z,2,common,sub64
two-step-fixation,158,1230151,0.0-76.0-2.7,TRUE,TRUE,FALSE,TRUE,"""event"",""trial"",""time""
""blur"",""3"",""47706""
""focus"",""3"",""226763""
""blur"",""3"",""233877""
""focus"",""3"",""235992""
""fullscreenenter"",""5"",""267351""
","""event"",""trial"",""time""
""blur"",""3"",""47706""
""blur"",""3"",""233877""
","""event"",""trial"",""time""
""focus"",""3"",""226763""
""focus"",""3"",""235992""
","""event"",""trial"",""time""
""fullscreenenter"",""5"",""267351""
","
",NA,images/earth.jpg,NA,NA,NA,NA,NA,NA,NA,NA,NA,NA,NA,NA,NA,fixation,NA,NA,NA,NA,NA,NA,sub64
d3-animate-choice,159,1234156,0.0-76.0-0.8,TRUE,TRUE,FALSE,TRUE,"""event"",""trial"",""time""
""blur"",""3"",""47706""
""focus"",""3"",""226763""
""blur"",""3"",""233877""
""focus"",""3"",""235992""
""fullscreenenter"",""5"",""267351""
","""event"",""trial"",""time""
""blur"",""3"",""47706""
""blur"",""3"",""233877""
","""event"",""trial"",""time""
""focus"",""3"",""226763""
""focus"",""3"",""235992""
","""event"",""trial"",""time""
""fullscreenenter"",""5"",""267351""
","
",2118.1600000709295,NA,49,NA,NA,3000,1,NA,NA,images/earth.jpg,images/rocket2,images/rocket1,null,images/rocket1,NA,1,real,null,NA,NA,1,NA,sub64
d3-animate-choice,160,1237766,0.0-76.0-1.8,TRUE,TRUE,FALSE,TRUE,"""event"",""trial"",""time""
""blur"",""3"",""47706""
""focus"",""3"",""226763""
""blur"",""3"",""233877""
""focus"",""3"",""235992""
""fullscreenenter"",""5"",""267351""
","""event"",""trial"",""time""
""blur"",""3"",""47706""
""blur"",""3"",""233877""
","""event"",""trial"",""time""
""focus"",""3"",""226763""
""focus"",""3"",""235992""
","""event"",""trial"",""time""
""fullscreenenter"",""5"",""267351""
","
",1603.3149999566376,NA,49,NA,NA,3000,1,NA,NA,images/purpleplanet.jpg,images/alien4,images/alien3,images/rocket1,images/alien3,images/nothing.png,2,real,false,0,2020-06-19T17:08:04Z,1,rare,sub64
two-step-fixation,161,1238770,0.0-76.0-2.8,TRUE,TRUE,FALSE,TRUE,"""event"",""trial"",""time""
""blur"",""3"",""47706""
""focus"",""3"",""226763""
""blur"",""3"",""233877""
""focus"",""3"",""235992""
""fullscreenenter"",""5"",""267351""
","""event"",""trial"",""time""
""blur"",""3"",""47706""
""blur"",""3"",""233877""
","""event"",""trial"",""time""
""focus"",""3"",""226763""
""focus"",""3"",""235992""
","""event"",""trial"",""time""
""fullscreenenter"",""5"",""267351""
","
",NA,images/earth.jpg,NA,NA,NA,NA,NA,NA,NA,NA,NA,NA,NA,NA,NA,fixation,NA,NA,NA,NA,NA,NA,sub64
d3-animate-choice,162,1241828,0.0-76.0-0.9,TRUE,TRUE,FALSE,TRUE,"""event"",""trial"",""time""
""blur"",""3"",""47706""
""focus"",""3"",""226763""
""blur"",""3"",""233877""
""focus"",""3"",""235992""
