trial_type,trial_index,time_elapsed,internal_node_id,rocket_sides,red_planet_first_rocket,red_display_order,purple_display_order,interactions,blur_events,focus_events,fullscreenenter_events,fullscreenexit_events,rt,stimulus,key_press,button_pressed,success,duration,valid_pressed,rts,keys,planet_text,right_text,left_text,center_text,chosen_text,reward_text,trial_stage,practice_trial,transition_type,choice,transition,reward,timestamp,subject_id
pavlovia,0,7,0.0-0.0,FALSE,TRUE,FALSE,TRUE,"
","
","
","
","
",NA,NA,NA,NA,NA,NA,NA,NA,NA,NA,NA,NA,NA,NA,NA,NA,NA,NA,NA,NA,NA,NA,sub89
html-keyboard-response,1,7731,0.0-1.0,FALSE,TRUE,FALSE,TRUE,"
","
","
","
","
",7721.380000002682,Welcome! Press the space bar to begin.,32,NA,NA,NA,NA,NA,NA,NA,NA,NA,NA,NA,NA,NA,NA,NA,NA,NA,NA,NA,sub89
audio-keyboard-response,2,12418,0.0-2.0,FALSE,TRUE,FALSE,TRUE,"
","
","
","
","
",4336,audio/beep_loop.wav,32,NA,NA,NA,NA,NA,NA,NA,NA,NA,NA,NA,NA,NA,NA,NA,NA,NA,NA,NA,sub89
audio-button-response,3,16091,0.0-3.0,FALSE,TRUE,FALSE,TRUE,"
","
","
","
","
",NaN,audio/fish.mp3,NA,1,NA,NA,NA,NA,NA,NA,NA,NA,NA,NA,NA,NA,NA,NA,NA,NA,NA,NA,sub89
audio-button-response,4,19340,0.0-4.0,FALSE,TRUE,FALSE,TRUE,"""event"",""trial"",""time""
""fullscreenenter"",""5"",""23194""
","
","
","""event"",""trial"",""time""
""fullscreenenter"",""5"",""23194""
","
",NaN,audio/tiger.mp3,NA,4,NA,NA,NA,NA,NA,NA,NA,NA,NA,NA,NA,NA,NA,NA,NA,NA,NA,NA,sub89
fullscreen,5,24103,0.0-5.0,FALSE,TRUE,FALSE,TRUE,"""event"",""trial"",""time""
""fullscreenenter"",""5"",""23194""
","
","
","""event"",""trial"",""time""
""fullscreenenter"",""5"",""23194""
","
",NA,NA,NA,NA,TRUE,NA,NA,NA,NA,NA,NA,NA,NA,NA,NA,NA,NA,NA,NA,NA,NA,NA,sub89
d3-instructions,6,43992,0.0-6.0,FALSE,TRUE,FALSE,TRUE,"""event"",""trial"",""time""
""fullscreenenter"",""5"",""23194""
","
","
","""event"",""trial"",""time""
""fullscreenenter"",""5"",""23194""
","
",NA,NA,NA,NA,NA,NA,NA,NA,NA,NA,NA,NA,NA,NA,NA,NA,NA,NA,NA,NA,NA,NA,sub89
d3-instructions,7,61526,0.0-7.0,FALSE,TRUE,FALSE,TRUE,"""event"",""trial"",""time""
""fullscreenenter"",""5"",""23194""
","
","
","""event"",""trial"",""time""
""fullscreenenter"",""5"",""23194""
","
",NA,NA,NA,NA,NA,NA,NA,NA,NA,NA,NA,NA,NA,NA,NA,NA,NA,NA,NA,NA,NA,NA,sub89
d3-instructions,8,71380,0.0-8.0,FALSE,TRUE,FALSE,TRUE,"""event"",""trial"",""time""
""fullscreenenter"",""5"",""23194""
","
","
","""event"",""trial"",""time""
""fullscreenenter"",""5"",""23194""
","
",NA,NA,NA,NA,NA,NA,NA,NA,NA,NA,NA,NA,NA,NA,NA,NA,NA,NA,NA,NA,NA,NA,sub89
d3-instructions,9,83414,0.0-9.0,FALSE,TRUE,FALSE,TRUE,"""event"",""trial"",""time""
""fullscreenenter"",""5"",""23194""
","
","
","""event"",""trial"",""time""
""fullscreenenter"",""5"",""23194""
","
",NA,NA,NA,NA,NA,NA,NA,NA,NA,NA,NA,NA,NA,NA,NA,NA,NA,NA,NA,NA,NA,NA,sub89
d3-instructions,10,119614,0.0-10.0,FALSE,TRUE,FALSE,TRUE,"""event"",""trial"",""time""
""fullscreenenter"",""5"",""23194""
","
","
","""event"",""trial"",""time""
""fullscreenenter"",""5"",""23194""
","
",NA,NA,NA,NA,NA,NA,NA,NA,NA,NA,NA,NA,NA,NA,NA,NA,NA,NA,NA,NA,NA,NA,sub89
d3-animate-choice,11,136930,0.0-11.0,FALSE,TRUE,FALSE,TRUE,"""event"",""trial"",""time""
""fullscreenenter"",""5"",""23194""
","
","
","""event"",""trial"",""time""
""fullscreenenter"",""5"",""23194""
","
",3519.855000078678,NA,32,NA,NA,3000,1,15298.939999891445,48,images/tutgreenplanet.jpg,images/tutalien1,images/tutalien2,null,images/tutalien1,NA,NA,practice,null,NA,NA,NA,NA,sub89
d3-animate-choice,12,142255,0.0-12.0,FALSE,TRUE,FALSE,TRUE,"""event"",""trial"",""time""
""fullscreenenter"",""5"",""23194""
","
","
","""event"",""trial"",""time""
""fullscreenenter"",""5"",""23194""
","
",3318.029999965802,NA,49,NA,NA,3000,1,NA,NA,images/tutgreenplanet.jpg,images/tutalien1,images/tutalien2,null,images/tutalien2,NA,NA,practice,null,NA,NA,NA,NA,sub89
d3-animate-choice,13,147154,0.0-13.0,FALSE,TRUE,FALSE,TRUE,"""event"",""trial"",""time""
""fullscreenenter"",""5"",""23194""
","
","
","""event"",""trial"",""time""
""fullscreenenter"",""5"",""23194""
","
",2891.224999912083,NA,49,NA,NA,3000,1,NA,NA,images/tutgreenplanet.jpg,images/tutalien1,images/tutalien2,null,images/tutalien2,NA,NA,practice,null,NA,NA,NA,NA,sub89
d3-animate-choice,14,149400,0.0-14.0,FALSE,TRUE,FALSE,TRUE,"""event"",""trial"",""time""
""fullscreenenter"",""5"",""23194""
","
","
","""event"",""trial"",""time""
""fullscreenenter"",""5"",""23194""
","
",240.2850000653416,NA,48,NA,NA,3000,1,NA,NA,images/tutgreenplanet.jpg,images/tutalien1,images/tutalien2,null,images/tutalien1,NA,NA,practice,null,NA,NA,NA,NA,sub89
d3-instructions,15,160887,0.0-15.0,FALSE,TRUE,FALSE,TRUE,"""event"",""trial"",""time""
""fullscreenenter"",""5"",""23194""
","
","
","""event"",""trial"",""time""
""fullscreenenter"",""5"",""23194""
","
",NA,NA,NA,NA,NA,NA,NA,NA,NA,NA,NA,NA,NA,NA,NA,NA,NA,NA,NA,NA,NA,NA,sub89
d3-instructions,16,178317,0.0-16.0,FALSE,TRUE,FALSE,TRUE,"""event"",""trial"",""time""
""fullscreenenter"",""5"",""23194""
","
","
","""event"",""trial"",""time""
""fullscreenenter"",""5"",""23194""
","
",NA,NA,NA,NA,NA,NA,NA,NA,NA,NA,NA,NA,NA,NA,NA,NA,NA,NA,NA,NA,NA,NA,sub89
d3-instructions,17,197062,0.0-17.0,FALSE,TRUE,FALSE,TRUE,"""event"",""trial"",""time""
""fullscreenenter"",""5"",""23194""
","
","
","""event"",""trial"",""time""
""fullscreenenter"",""5"",""23194""
","
",NA,NA,NA,NA,NA,NA,NA,NA,NA,NA,NA,NA,NA,NA,NA,NA,NA,NA,NA,NA,NA,NA,sub89
d3-instructions,18,214227,0.0-18.0,FALSE,TRUE,FALSE,TRUE,"""event"",""trial"",""time""
""fullscreenenter"",""5"",""23194""
","
","
","""event"",""trial"",""time""
""fullscreenenter"",""5"",""23194""
","
",NA,NA,NA,NA,NA,NA,NA,NA,NA,NA,NA,NA,NA,NA,NA,NA,NA,NA,NA,NA,NA,NA,sub89
d3-instructions,19,222555,0.0-19.0,FALSE,TRUE,FALSE,TRUE,"""event"",""trial"",""time""
""fullscreenenter"",""5"",""23194""
","
","
","""event"",""trial"",""time""
""fullscreenenter"",""5"",""23194""
","
",NA,NA,NA,NA,NA,NA,NA,NA,NA,NA,NA,NA,NA,NA,NA,NA,NA,NA,NA,NA,NA,NA,sub89
d3-animate-choice,20,236171,0.0-20.0,FALSE,TRUE,FALSE,TRUE,"""event"",""trial"",""time""
""fullscreenenter"",""5"",""23194""
","
","
","""event"",""trial"",""time""
""fullscreenenter"",""5"",""23194""
","
",9801.925000036135,NA,48,NA,NA,3000,1,"10565.235000103712,11610.64500012435",4849,images/tutyellowplanet.jpg,null,images/tutalien3,null,images/tutalien3,images/t.png,NA,practice,null,NA,NA,NA,NA,sub89
d3-animate-choice,21,241716,0.0-21.0,FALSE,TRUE,FALSE,TRUE,"""event"",""trial"",""time""
""fullscreenenter"",""5"",""23194""
","
","
","""event"",""trial"",""time""
""fullscreenenter"",""5"",""23194""
","
",3539.9200001265854,NA,49,NA,NA,3000,1,NA,NA,images/tutyellowplanet.jpg,null,images/tutalien3,null,images/tutalien3,images/t.png,NA,practice,null,NA,NA,NA,NA,sub89
d3-animate-choice,22,245402,0.0-22.0,FALSE,TRUE,FALSE,TRUE,"""event"",""trial"",""time""
""fullscreenenter"",""5"",""23194""
","
","
","""event"",""trial"",""time""
""fullscreenenter"",""5"",""23194""
","
",1680.1599999889731,NA,49,NA,NA,3000,1,NA,NA,images/tutyellowplanet.jpg,null,images/tutalien3,null,images/tutalien3,images/t.png,NA,practice,null,NA,NA,NA,NA,sub89
d3-animate-choice,23,248137,0.0-23.0,FALSE,TRUE,FALSE,TRUE,"""event"",""trial"",""time""
""fullscreenenter"",""5"",""23194""
","
","
","""event"",""trial"",""time""
""fullscreenenter"",""5"",""23194""
","
",729.0600000414997,NA,49,NA,NA,3000,1,NA,NA,images/tutyellowplanet.jpg,null,images/tutalien3,null,images/tutalien3,images/t.png,NA,practice,null,NA,NA,NA,NA,sub89
d3-animate-choice,24,250895,0.0-24.0,FALSE,TRUE,FALSE,TRUE,"""event"",""trial"",""time""
""fullscreenenter"",""5"",""23194""
","
","
","""event"",""trial"",""time""
""fullscreenenter"",""5"",""23194""
","
",752.1949999500066,NA,49,NA,NA,3000,1,NA,NA,images/tutyellowplanet.jpg,null,images/tutalien3,null,images/tutalien3,images/t.png,NA,practice,null,NA,NA,NA,NA,sub89
d3-animate-choice,25,253856,0.0-25.0,FALSE,TRUE,FALSE,TRUE,"""event"",""trial"",""time""
""fullscreenenter"",""5"",""23194""
","
","
","""event"",""trial"",""time""
""fullscreenenter"",""5"",""23194""
","
",955.904999980703,NA,49,NA,NA,3000,1,NA,NA,images/tutyellowplanet.jpg,null,images/tutalien3,null,images/tutalien3,images/nothing.png,NA,practice,null,NA,NA,NA,NA,sub89
d3-animate-choice,26,257252,0.0-26.0,FALSE,TRUE,FALSE,TRUE,"""event"",""trial"",""time""
""fullscreenenter"",""5"",""23194""
","
","
","""event"",""trial"",""time""
""fullscreenenter"",""5"",""23194""
","
",1390.5249999370426,NA,49,NA,NA,3000,1,NA,NA,images/tutyellowplanet.jpg,null,images/tutalien3,null,images/tutalien3,images/t.png,NA,practice,null,NA,NA,NA,NA,sub89
d3-animate-choice,27,261837,0.0-27.0,FALSE,TRUE,FALSE,TRUE,"""event"",""trial"",""time""
""fullscreenenter"",""5"",""23194""
","
","
","""event"",""trial"",""time""
""fullscreenenter"",""5"",""23194""
","
",2578.544999938458,NA,49,NA,NA,3000,1,NA,NA,images/tutyellowplanet.jpg,null,images/tutalien3,null,images/tutalien3,images/t.png,NA,practice,null,NA,NA,NA,NA,sub89
d3-animate-choice,28,264603,0.0-28.0,FALSE,TRUE,FALSE,TRUE,"""event"",""trial"",""time""
""fullscreenenter"",""5"",""23194""
","
","
","""event"",""trial"",""time""
""fullscreenenter"",""5"",""23194""
","
",759.8949999082834,NA,49,NA,NA,3000,1,NA,NA,images/tutyellowplanet.jpg,null,images/tutalien3,null,images/tutalien3,images/t.png,NA,practice,null,NA,NA,NA,NA,sub89
d3-animate-choice,29,268580,0.0-29.0,FALSE,TRUE,FALSE,TRUE,"""event"",""trial"",""time""
""fullscreenenter"",""5"",""23194""
","
","
","""event"",""trial"",""time""
""fullscreenenter"",""5"",""23194""
","
",1972.330000018701,NA,49,NA,NA,3000,1,NA,NA,images/tutyellowplanet.jpg,null,images/tutalien3,null,images/tutalien3,images/t.png,NA,practice,null,NA,NA,NA,NA,sub89
d3-instructions,30,280237,0.0-30.0,FALSE,TRUE,FALSE,TRUE,"""event"",""trial"",""time""
""fullscreenenter"",""5"",""23194""
","
","
","""event"",""trial"",""time""
""fullscreenenter"",""5"",""23194""
","
",NA,NA,NA,NA,NA,NA,NA,NA,NA,NA,NA,NA,NA,NA,NA,NA,NA,NA,NA,NA,NA,NA,sub89
d3-instructions,31,294188,0.0-31.0,FALSE,TRUE,FALSE,TRUE,"""event"",""trial"",""time""
""fullscreenenter"",""5"",""23194""
","
","
","""event"",""trial"",""time""
""fullscreenenter"",""5"",""23194""
","
",NA,NA,NA,NA,NA,NA,NA,NA,NA,NA,NA,NA,NA,NA,NA,NA,NA,NA,NA,NA,NA,NA,sub89
d3-instructions,32,311581,0.0-32.0,FALSE,TRUE,FALSE,TRUE,"""event"",""trial"",""time""
""fullscreenenter"",""5"",""23194""
","
","
","""event"",""trial"",""time""
""fullscreenenter"",""5"",""23194""
","
",NA,NA,NA,NA,NA,NA,NA,NA,NA,NA,NA,NA,NA,NA,NA,NA,NA,NA,NA,NA,NA,NA,sub89
d3-instructions,33,323370,0.0-33.0,FALSE,TRUE,FALSE,TRUE,"""event"",""trial"",""time""
""fullscreenenter"",""5"",""23194""
","
","
","""event"",""trial"",""time""
""fullscreenenter"",""5"",""23194""
","
",NA,NA,NA,NA,NA,NA,NA,NA,NA,NA,NA,NA,NA,NA,NA,NA,NA,NA,NA,NA,NA,NA,sub89
d3-animate-choice,34,331474,0.0-34.0,FALSE,TRUE,FALSE,TRUE,"""event"",""trial"",""time""
""fullscreenenter"",""5"",""23194""
","
","
","""event"",""trial"",""time""
""fullscreenenter"",""5"",""23194""
","
",6096.860000165179,NA,48,NA,NA,3000,1,NA,NA,images/tutgreenplanet.jpg,images/tutalien1,images/tutalien2,null,images/tutalien1,images/nothing.png,NA,practice,null,NA,NA,NA,NA,sub89
d3-animate-choice,35,334716,0.0-35.0,FALSE,TRUE,FALSE,TRUE,"""event"",""trial"",""time""
""fullscreenenter"",""5"",""23194""
","
","
","""event"",""trial"",""time""
""fullscreenenter"",""5"",""23194""
","
",1234.9650000687689,NA,49,NA,NA,3000,1,NA,NA,images/tutgreenplanet.jpg,images/tutalien1,images/tutalien2,null,images/tutalien2,images/t.png,NA,practice,null,NA,NA,NA,NA,sub89
d3-animate-choice,36,337892,0.0-36.0,FALSE,TRUE,FALSE,TRUE,"""event"",""trial"",""time""
""fullscreenenter"",""5"",""23194""
","
","
","""event"",""trial"",""time""
""fullscreenenter"",""5"",""23194""
","
",1169.5999999064952,NA,48,NA,NA,3000,1,NA,NA,images/tutgreenplanet.jpg,images/tutalien1,images/tutalien2,null,images/tutalien1,images/nothing.png,NA,practice,null,NA,NA,NA,NA,sub89
d3-animate-choice,37,339970,0.0-37.0,FALSE,TRUE,FALSE,TRUE,"""event"",""trial"",""time""
""fullscreenenter"",""5"",""23194""
","
","
","""event"",""trial"",""time""
""fullscreenenter"",""5"",""23194""
","
",72.56500003859401,NA,48,NA,NA,3000,1,NA,NA,images/tutgreenplanet.jpg,images/tutalien1,images/tutalien2,null,images/tutalien1,images/nothing.png,NA,practice,null,NA,NA,NA,NA,sub89
d3-animate-choice,38,344519,0.0-38.0,FALSE,TRUE,FALSE,TRUE,"""event"",""trial"",""time""
""fullscreenenter"",""5"",""23194""
","
","
","""event"",""trial"",""time""
""fullscreenenter"",""5"",""23194""
","
",2542.0450000092387,NA,49,NA,NA,3000,1,NA,NA,images/tutgreenplanet.jpg,images/tutalien1,images/tutalien2,null,images/tutalien2,images/t.png,NA,practice,null,NA,NA,NA,NA,sub89
d3-animate-choice,39,349560,0.0-39.0,FALSE,TRUE,FALSE,TRUE,"""event"",""trial"",""time""
""fullscreenenter"",""5"",""23194""
","
","
","""event"",""trial"",""time""
""fullscreenenter"",""5"",""23194""
","
",3034.565000096336,NA,49,NA,NA,3000,1,4339.150000130758,49,images/tutgreenplanet.jpg,images/tutalien1,images/tutalien2,null,images/tutalien2,images/nothing.png,NA,practice,null,NA,NA,NA,NA,sub89
d3-animate-choice,40,352381,0.0-40.0,FALSE,TRUE,FALSE,TRUE,"""event"",""trial"",""time""
""fullscreenenter"",""5"",""23194""
","
","
","""event"",""trial"",""time""
""fullscreenenter"",""5"",""23194""
","
",814.3050000071526,NA,49,NA,NA,3000,1,NA,NA,images/tutgreenplanet.jpg,images/tutalien1,images/tutalien2,null,images/tutalien2,images/t.png,NA,practice,null,NA,NA,NA,NA,sub89
d3-animate-choice,41,356305,0.0-41.0,FALSE,TRUE,FALSE,TRUE,"""event"",""trial"",""time""
""fullscreenenter"",""5"",""23194""
","
","
","""event"",""trial"",""time""
""fullscreenenter"",""5"",""23194""
","
",1917.905000038445,NA,49,NA,NA,3000,1,NA,NA,images/tutgreenplanet.jpg,images/tutalien1,images/tutalien2,null,images/tutalien2,images/t.png,NA,practice,null,NA,NA,NA,NA,sub89
d3-animate-choice,42,359837,0.0-42.0,FALSE,TRUE,FALSE,TRUE,"""event"",""trial"",""time""
""fullscreenenter"",""5"",""23194""
","
","
","""event"",""trial"",""time""
""fullscreenenter"",""5"",""23194""
","
",1528.2799999695271,NA,49,NA,NA,3000,1,NA,NA,images/tutgreenplanet.jpg,images/tutalien1,images/tutalien2,null,images/tutalien2,images/t.png,NA,practice,null,NA,NA,NA,NA,sub89
d3-animate-choice,43,362666,0.0-43.0,FALSE,TRUE,FALSE,TRUE,"""event"",""trial"",""time""
""fullscreenenter"",""5"",""23194""
","
","
","""event"",""trial"",""time""
""fullscreenenter"",""5"",""23194""
","
",823.7900000531226,NA,49,NA,NA,3000,1,NA,NA,images/tutgreenplanet.jpg,images/tutalien1,images/tutalien2,null,images/tutalien2,images/nothing.png,NA,practice,null,NA,NA,NA,NA,sub89
d3-instructions,44,381331,0.0-44.0,FALSE,TRUE,FALSE,TRUE,"""event"",""trial"",""time""
""fullscreenenter"",""5"",""23194""
","
","
","""event"",""trial"",""time""
""fullscreenenter"",""5"",""23194""
","
",NA,NA,NA,NA,NA,NA,NA,NA,NA,NA,NA,NA,NA,NA,NA,NA,NA,NA,NA,NA,NA,NA,sub89
d3-instructions,45,390059,0.0-45.0,FALSE,TRUE,FALSE,TRUE,"""event"",""trial"",""time""
""fullscreenenter"",""5"",""23194""
","
","
","""event"",""trial"",""time""
""fullscreenenter"",""5"",""23194""
","
",NA,NA,NA,NA,NA,NA,NA,NA,NA,NA,NA,NA,NA,NA,NA,NA,NA,NA,NA,NA,NA,NA,sub89
d3-instructions,46,400158,0.0-46.0,FALSE,TRUE,FALSE,TRUE,"""event"",""trial"",""time""
""fullscreenenter"",""5"",""23194""
","
","
","""event"",""trial"",""time""
""fullscreenenter"",""5"",""23194""
","
",NA,NA,NA,NA,NA,NA,NA,NA,NA,NA,NA,NA,NA,NA,NA,NA,NA,NA,NA,NA,NA,NA,sub89
d3-instructions,47,418790,0.0-47.0,FALSE,TRUE,FALSE,TRUE,"""event"",""trial"",""time""
""fullscreenenter"",""5"",""23194""
","
","
","""event"",""trial"",""time""
""fullscreenenter"",""5"",""23194""
","
",NA,NA,NA,NA,NA,NA,NA,NA,NA,NA,NA,NA,NA,NA,NA,NA,NA,NA,NA,NA,NA,NA,sub89
d3-instructions,48,429756,0.0-48.0,FALSE,TRUE,FALSE,TRUE,"""event"",""trial"",""time""
""fullscreenenter"",""5"",""23194""
","
","
","""event"",""trial"",""time""
""fullscreenenter"",""5"",""23194""
","
",NA,NA,NA,NA,NA,NA,NA,NA,NA,NA,NA,NA,NA,NA,NA,NA,NA,NA,NA,NA,NA,NA,sub89
d3-instructions,49,442370,0.0-49.0,FALSE,TRUE,FALSE,TRUE,"""event"",""trial"",""time""
""fullscreenenter"",""5"",""23194""
","
","
","""event"",""trial"",""time""
""fullscreenenter"",""5"",""23194""
","
",NA,NA,NA,NA,NA,NA,NA,NA,NA,NA,NA,NA,NA,NA,NA,NA,NA,NA,NA,NA,NA,NA,sub89
d3-instructions,50,454363,0.0-50.0,FALSE,TRUE,FALSE,TRUE,"""event"",""trial"",""time""
""fullscreenenter"",""5"",""23194""
","
","
","""event"",""trial"",""time""
""fullscreenenter"",""5"",""23194""
","
",NA,NA,NA,NA,NA,NA,NA,NA,NA,NA,NA,NA,NA,NA,NA,NA,NA,NA,NA,NA,NA,NA,sub89
d3-instructions,51,458698,0.0-51.0,FALSE,TRUE,FALSE,TRUE,"""event"",""trial"",""time""
""fullscreenenter"",""5"",""23194""
","
","
","""event"",""trial"",""time""
""fullscreenenter"",""5"",""23194""
","
",NA,NA,NA,NA,NA,NA,NA,NA,NA,NA,NA,NA,NA,NA,NA,NA,NA,NA,NA,NA,NA,NA,sub89
d3-instructions,52,462055,0.0-52.0,FALSE,TRUE,FALSE,TRUE,"""event"",""trial"",""time""
""fullscreenenter"",""5"",""23194""
","
","
","""event"",""trial"",""time""
""fullscreenenter"",""5"",""23194""
","
",NA,NA,NA,NA,NA,NA,NA,NA,NA,NA,NA,NA,NA,NA,NA,NA,NA,NA,NA,NA,NA,NA,sub89
d3-instructions,53,477607,0.0-53.0,FALSE,TRUE,FALSE,TRUE,"""event"",""trial"",""time""
""fullscreenenter"",""5"",""23194""
","
","
","""event"",""trial"",""time""
""fullscreenenter"",""5"",""23194""
","
",NA,NA,NA,NA,NA,NA,NA,NA,NA,NA,NA,NA,NA,NA,NA,NA,NA,NA,NA,NA,NA,NA,sub89
d3-instructions,54,493474,0.0-54.0,FALSE,TRUE,FALSE,TRUE,"""event"",""trial"",""time""
""fullscreenenter"",""5"",""23194""
","
","
","""event"",""trial"",""time""
""fullscreenenter"",""5"",""23194""
","
",NA,NA,NA,NA,NA,NA,NA,NA,NA,NA,NA,NA,NA,NA,NA,NA,NA,NA,NA,NA,NA,NA,sub89
d3-instructions,55,515692,0.0-55.0,FALSE,TRUE,FALSE,TRUE,"""event"",""trial"",""time""
""fullscreenenter"",""5"",""23194""
","
","
","""event"",""trial"",""time""
""fullscreenenter"",""5"",""23194""
","
",NA,NA,NA,NA,NA,NA,NA,NA,NA,NA,NA,NA,NA,NA,NA,NA,NA,NA,NA,NA,NA,NA,sub89
d3-instructions,56,526626,0.0-56.0,FALSE,TRUE,FALSE,TRUE,"""event"",""trial"",""time""
""fullscreenenter"",""5"",""23194""
","
","
","""event"",""trial"",""time""
""fullscreenenter"",""5"",""23194""
","
",NA,NA,NA,NA,NA,NA,NA,NA,NA,NA,NA,NA,NA,NA,NA,NA,NA,NA,NA,NA,NA,NA,sub89
d3-instructions,57,539493,0.0-57.0,FALSE,TRUE,FALSE,TRUE,"""event"",""trial"",""time""
""fullscreenenter"",""5"",""23194""
","
","
","""event"",""trial"",""time""
""fullscreenenter"",""5"",""23194""
","
",NA,NA,NA,NA,NA,NA,NA,NA,NA,NA,NA,NA,NA,NA,NA,NA,NA,NA,NA,NA,NA,NA,sub89
d3-instructions,58,553114,0.0-58.0,FALSE,TRUE,FALSE,TRUE,"""event"",""trial"",""time""
""fullscreenenter"",""5"",""23194""
","
","
","""event"",""trial"",""time""
""fullscreenenter"",""5"",""23194""
","
",NA,NA,NA,NA,NA,NA,NA,NA,NA,NA,NA,NA,NA,NA,NA,NA,NA,NA,NA,NA,NA,NA,sub89
d3-instructions,59,558836,0.0-59.0,FALSE,TRUE,FALSE,TRUE,"""event"",""trial"",""time""
""fullscreenenter"",""5"",""23194""
","
","
","""event"",""trial"",""time""
""fullscreenenter"",""5"",""23194""
","
",NA,NA,NA,NA,NA,NA,NA,NA,NA,NA,NA,NA,NA,NA,NA,NA,NA,NA,NA,NA,NA,NA,sub89
d3-instructions,60,572081,0.0-60.0,FALSE,TRUE,FALSE,TRUE,"""event"",""trial"",""time""
""fullscreenenter"",""5"",""23194""
","
","
","""event"",""trial"",""time""
""fullscreenenter"",""5"",""23194""
","
",NA,NA,NA,NA,NA,NA,NA,NA,NA,NA,NA,NA,NA,NA,NA,NA,NA,NA,NA,NA,NA,NA,sub89
d3-animate-choice,61,575900,0.0-61.0-0.0,FALSE,TRUE,FALSE,TRUE,"""event"",""trial"",""time""
""fullscreenenter"",""5"",""23194""
","
","
","""event"",""trial"",""time""
""fullscreenenter"",""5"",""23194""
","
",1811.0299999825656,NA,48,NA,NA,3000,1,NA,NA,images/earth.jpg,images/tutrocket1,images/tutrocket2,null,images/tutrocket1,NA,1,practice,null,2,NA,NA,NA,sub89
d3-animate-choice,62,579913,0.0-61.0-1.0,FALSE,TRUE,FALSE,TRUE,"""event"",""trial"",""time""
""fullscreenenter"",""5"",""23194""
","
","
","""event"",""trial"",""time""
""fullscreenenter"",""5"",""23194""
","
",null,NA,null,NA,NA,3000,0,NA,NA,images/tutyellowplanet.jpg,images/tutalien4,images/tutalien3,images/tutrocket1,NA,NA,2,practice,false,NA,rare,0,2020-06-16T18:07:53Z,sub89
two-step-fixation,63,580922,0.0-61.0-2.0,FALSE,TRUE,FALSE,TRUE,"""event"",""trial"",""time""
""fullscreenenter"",""5"",""23194""
","
","
","""event"",""trial"",""time""
""fullscreenenter"",""5"",""23194""
","
",NA,images/earth.jpg,NA,NA,NA,NA,NA,NA,NA,NA,NA,NA,NA,NA,NA,fixation,NA,NA,NA,NA,NA,NA,sub89
d3-animate-choice,64,584928,0.0-61.0-0.1,FALSE,TRUE,FALSE,TRUE,"""event"",""trial"",""time""
""fullscreenenter"",""5"",""23194""
","
","
","""event"",""trial"",""time""
""fullscreenenter"",""5"",""23194""
","
",2392.534999875352,NA,48,NA,NA,3000,1,NA,NA,images/earth.jpg,images/tutrocket1,images/tutrocket2,null,images/tutrocket1,NA,1,practice,null,2,NA,NA,NA,sub89
d3-animate-choice,65,588936,0.0-61.0-1.1,FALSE,TRUE,FALSE,TRUE,"""event"",""trial"",""time""
""fullscreenenter"",""5"",""23194""
","
","
","""event"",""trial"",""time""
""fullscreenenter"",""5"",""23194""
","
",3166.359999915585,NA,48,NA,NA,3000,0,NA,NA,images/tutgreenplanet.jpg,images/tutalien2,images/tutalien1,images/tutrocket1,NA,NA,2,practice,true,2,common,0,2020-06-16T18:08:02Z,sub89
two-step-fixation,66,589943,0.0-61.0-2.1,FALSE,TRUE,FALSE,TRUE,"""event"",""trial"",""time""
""fullscreenenter"",""5"",""23194""
","
","
","""event"",""trial"",""time""
""fullscreenenter"",""5"",""23194""
","
",NA,images/earth.jpg,NA,NA,NA,NA,NA,NA,NA,NA,NA,NA,NA,NA,NA,fixation,NA,NA,NA,NA,NA,NA,sub89
d3-animate-choice,67,593950,0.0-61.0-0.2,FALSE,TRUE,FALSE,TRUE,"""event"",""trial"",""time""
""fullscreenenter"",""5"",""23194""
","
","
","""event"",""trial"",""time""
""fullscreenenter"",""5"",""23194""
","
",2443.7799998559058,NA,49,NA,NA,3000,1,NA,NA,images/earth.jpg,images/tutrocket1,images/tutrocket2,null,images/tutrocket2,NA,1,practice,null,1,NA,NA,NA,sub89
d3-animate-choice,68,597698,0.0-61.0-1.2,FALSE,TRUE,FALSE,TRUE,"""event"",""trial"",""time""
""fullscreenenter"",""5"",""23194""
","
","
","""event"",""trial"",""time""
""fullscreenenter"",""5"",""23194""
","
",1738.41999983415,NA,48,NA,NA,3000,1,NA,NA,images/tutyellowplanet.jpg,images/tutalien4,images/tutalien3,images/tutrocket2,images/tutalien4,images/t.png,2,practice,true,2,common,1,2020-06-16T18:08:10Z,sub89
two-step-fixation,69,598701,0.0-61.0-2.2,FALSE,TRUE,FALSE,TRUE,"""event"",""trial"",""time""
""fullscreenenter"",""5"",""23194""
","
","
","""event"",""trial"",""time""
""fullscreenenter"",""5"",""23194""
","
",NA,images/earth.jpg,NA,NA,NA,NA,NA,NA,NA,NA,NA,NA,NA,NA,NA,fixation,NA,NA,NA,NA,NA,NA,sub89
d3-animate-choice,70,601668,0.0-61.0-0.3,FALSE,TRUE,FALSE,TRUE,"""event"",""trial"",""time""
""fullscreenenter"",""5"",""23194""
","
","
","""event"",""trial"",""time""
""fullscreenenter"",""5"",""23194""
","
",961.0900001134723,NA,48,NA,NA,3000,1,NA,NA,images/earth.jpg,images/tutrocket1,images/tutrocket2,null,images/tutrocket1,NA,1,practice,null,2,NA,NA,NA,sub89
d3-animate-choice,71,605682,0.0-61.0-1.3,FALSE,TRUE,FALSE,TRUE,"""event"",""trial"",""time""
""fullscreenenter"",""5"",""23194""
","
","
","""event"",""trial"",""time""
""fullscreenenter"",""5"",""23194""
","
",2121.5850000735372,NA,48,NA,NA,3000,1,NA,NA,images/tutgreenplanet.jpg,images/tutalien2,images/tutalien1,images/tutrocket1,images/tutalien2,images/t.png,2,practice,true,2,common,1,2020-06-16T18:08:18Z,sub89
two-step-fixation,72,606689,0.0-61.0-2.3,FALSE,TRUE,FALSE,TRUE,"""event"",""trial"",""time""
""fullscreenenter"",""5"",""23194""
","
","
","""event"",""trial"",""time""
""fullscreenenter"",""5"",""23194""
","
",NA,images/earth.jpg,NA,NA,NA,NA,NA,NA,NA,NA,NA,NA,NA,NA,NA,fixation,NA,NA,NA,NA,NA,NA,sub89
d3-animate-choice,73,610694,0.0-61.0-0.4,FALSE,TRUE,FALSE,TRUE,"""event"",""trial"",""time""
""fullscreenenter"",""5"",""23194""
","
","
","""event"",""trial"",""time""
""fullscreenenter"",""5"",""23194""
","
",null,NA,null,NA,NA,3000,0,NA,NA,images/earth.jpg,images/tutrocket1,images/tutrocket2,null,NA,NA,1,practice,null,NA,NA,NA,NA,sub89
d3-animate-choice,74,611705,0.0-61.0-1.4,FALSE,TRUE,FALSE,TRUE,"""event"",""trial"",""time""
""fullscreenenter"",""5"",""23194""
","
","
","""event"",""trial"",""time""
""fullscreenenter"",""5"",""23194""
","
",null,NA,null,NA,NA,0,0,NA,NA,images/earth.jpg,images/tutrocket1,images/tutrocket2,null,NA,NA,2,practice,null,NA,NA,0,2020-06-16T18:08:24Z,sub89
two-step-fixation,75,612713,0.0-61.0-2.4,FALSE,TRUE,FALSE,TRUE,"""event"",""trial"",""time""
""fullscreenenter"",""5"",""23194""
","
","
","""event"",""trial"",""time""
""fullscreenenter"",""5"",""23194""
","
",NA,images/earth.jpg,NA,NA,NA,NA,NA,NA,NA,NA,NA,NA,NA,NA,NA,fixation,NA,NA,NA,NA,NA,NA,sub89
d3-animate-choice,76,615166,0.0-61.0-0.5,FALSE,TRUE,FALSE,TRUE,"""event"",""trial"",""time""
""fullscreenenter"",""5"",""23194""
","
","
","""event"",""trial"",""time""
""fullscreenenter"",""5"",""23194""
","
",446.1400001309812,NA,49,NA,NA,3000,1,NA,NA,images/earth.jpg,images/tutrocket1,images/tutrocket2,null,images/tutrocket2,NA,1,practice,null,1,NA,NA,NA,sub89
d3-animate-choice,77,618174,0.0-61.0-1.5,FALSE,TRUE,FALSE,TRUE,"""event"",""trial"",""time""
""fullscreenenter"",""5"",""23194""
","
","
","""event"",""trial"",""time""
""fullscreenenter"",""5"",""23194""
","
",1000.8300000336021,NA,49,NA,NA,3000,1,NA,NA,images/tutyellowplanet.jpg,images/tutalien4,images/tutalien3,images/tutrocket2,images/tutalien3,images/nothing.png,2,practice,true,1,common,0,2020-06-16T18:08:31Z,sub89
two-step-fixation,78,619180,0.0-61.0-2.5,FALSE,TRUE,FALSE,TRUE,"""event"",""trial"",""time""
""fullscreenenter"",""5"",""23194""
","
","
","""event"",""trial"",""time""
""fullscreenenter"",""5"",""23194""
","
",NA,images/earth.jpg,NA,NA,NA,NA,NA,NA,NA,NA,NA,NA,NA,NA,NA,fixation,NA,NA,NA,NA,NA,NA,sub89
d3-animate-choice,79,621620,0.0-61.0-0.6,FALSE,TRUE,FALSE,TRUE,"""event"",""trial"",""time""
""fullscreenenter"",""5"",""23194""
","
","
","""event"",""trial"",""time""
""fullscreenenter"",""5"",""23194""
","
",434.2600000090897,NA,49,NA,NA,3000,1,NA,NA,images/earth.jpg,images/tutrocket1,images/tutrocket2,null,images/tutrocket2,NA,1,practice,null,1,NA,NA,NA,sub89
d3-animate-choice,80,624051,0.0-61.0-1.6,FALSE,TRUE,FALSE,TRUE,"""event"",""trial"",""time""
""fullscreenenter"",""5"",""23194""
","
","
","""event"",""trial"",""time""
""fullscreenenter"",""5"",""23194""
","
",422.69999999552965,NA,48,NA,NA,3000,1,NA,NA,images/tutyellowplanet.jpg,images/tutalien4,images/tutalien3,images/tutrocket2,images/tutalien4,images/t.png,2,practice,true,2,common,1,2020-06-16T18:08:37Z,sub89
two-step-fixation,81,625058,0.0-61.0-2.6,FALSE,TRUE,FALSE,TRUE,"""event"",""trial"",""time""
""fullscreenenter"",""5"",""23194""
","
","
","""event"",""trial"",""time""
""fullscreenenter"",""5"",""23194""
","
",NA,images/earth.jpg,NA,NA,NA,NA,NA,NA,NA,NA,NA,NA,NA,NA,NA,fixation,NA,NA,NA,NA,NA,NA,sub89
d3-animate-choice,82,627646,0.0-61.0-0.7,FALSE,TRUE,FALSE,TRUE,"""event"",""trial"",""time""
""fullscreenenter"",""5"",""23194""
","
","
","""event"",""trial"",""time""
""fullscreenenter"",""5"",""23194""
","
",581.1949998605996,NA,49,NA,NA,3000,1,NA,NA,images/earth.jpg,images/tutrocket1,images/tutrocket2,null,images/tutrocket2,NA,1,practice,null,1,NA,NA,NA,sub89
d3-animate-choice,83,630915,0.0-61.0-1.7,FALSE,TRUE,FALSE,TRUE,"""event"",""trial"",""time""
""fullscreenenter"",""5"",""23194""
","
","
","""event"",""trial"",""time""
""fullscreenenter"",""5"",""23194""
","
",1260.2199998218566,NA,48,NA,NA,3000,1,NA,NA,images/tutgreenplanet.jpg,images/tutalien2,images/tutalien1,images/tutrocket2,images/tutalien2,images/t.png,2,practice,false,2,rare,1,2020-06-16T18:08:44Z,sub89
two-step-fixation,84,631921,0.0-61.0-2.7,FALSE,TRUE,FALSE,TRUE,"""event"",""trial"",""time""
""fullscreenenter"",""5"",""23194""
","
","
","""event"",""trial"",""time""
""fullscreenenter"",""5"",""23194""
","
",NA,images/earth.jpg,NA,NA,NA,NA,NA,NA,NA,NA,NA,NA,NA,NA,NA,fixation,NA,NA,NA,NA,NA,NA,sub89
d3-animate-choice,85,635588,0.0-61.0-0.8,FALSE,TRUE,FALSE,TRUE,"""event"",""trial"",""time""
""fullscreenenter"",""5"",""23194""
","
","
","""event"",""trial"",""time""
""fullscreenenter"",""5"",""23194""
","
",1660.6049998663366,NA,48,NA,NA,3000,1,NA,NA,images/earth.jpg,images/tutrocket1,images/tutrocket2,null,images/tutrocket1,NA,1,practice,null,2,NA,NA,NA,sub89
d3-animate-choice,86,639444,0.0-61.0-1.8,FALSE,TRUE,FALSE,TRUE,"""event"",""trial"",""time""
""fullscreenenter"",""5"",""23194""
","
","
","""event"",""trial"",""time""
""fullscreenenter"",""5"",""23194""
","
",1848.9250000566244,NA,49,NA,NA,3000,1,NA,NA,images/tutyellowplanet.jpg,images/tutalien4,images/tutalien3,images/tutrocket1,images/tutalien3,images/nothing.png,2,practice,false,1,rare,0,2020-06-16T18:08:52Z,sub89
two-step-fixation,87,640450,0.0-61.0-2.8,FALSE,TRUE,FALSE,TRUE,"""event"",""trial"",""time""
""fullscreenenter"",""5"",""23194""
","
","
","""event"",""trial"",""time""
""fullscreenenter"",""5"",""23194""
","
",NA,images/earth.jpg,NA,NA,NA,NA,NA,NA,NA,NA,NA,NA,NA,NA,NA,fixation,NA,NA,NA,NA,NA,NA,sub89
d3-animate-choice,88,642924,0.0-61.0-0.9,FALSE,TRUE,FALSE,TRUE,"""event"",""trial"",""time""
""fullscreenenter"",""5"",""23194""
","
","
","""event"",""trial"",""time""
""fullscreenenter"",""5"",""23194""
","
",465.96499998122454,NA,48,NA,NA,3000,1,NA,NA,images/earth.jpg,images/tutrocket1,images/tutrocket2,null,images/tutrocket1,NA,1,practice,null,2,NA,NA,NA,sub89
d3-animate-choice,89,645481,0.0-61.0-1.9,FALSE,TRUE,FALSE,TRUE,"""event"",""trial"",""time""
""fullscreenenter"",""5"",""23194""
","
","
","""event"",""trial"",""time""
""fullscreenenter"",""5"",""23194""
","
",548.8950000144541,NA,49,NA,NA,3000,1,NA,NA,images/tutyellowplanet.jpg,images/tutalien4,images/tutalien3,images/tutrocket1,images/tutalien3,images/nothing.png,2,practice,false,1,rare,0,2020-06-16T18:08:58Z,sub89
two-step-fixation,90,646486,0.0-61.0-2.9,FALSE,TRUE,FALSE,TRUE,"""event"",""trial"",""time""
""fullscreenenter"",""5"",""23194""
","
","
","""event"",""trial"",""time""
""fullscreenenter"",""5"",""23194""
","
",NA,images/earth.jpg,NA,NA,NA,NA,NA,NA,NA,NA,NA,NA,NA,NA,NA,fixation,NA,NA,NA,NA,NA,NA,sub89
d3-animate-choice,91,650009,0.0-61.0-0.10,FALSE,TRUE,FALSE,TRUE,"""event"",""trial"",""time""
""fullscreenenter"",""5"",""23194""
","
","
","""event"",""trial"",""time""
""fullscreenenter"",""5"",""23194""
","
",1516.7600000277162,NA,49,NA,NA,3000,1,NA,NA,images/earth.jpg,images/tutrocket1,images/tutrocket2,null,images/tutrocket2,NA,1,practice,null,1,NA,NA,NA,sub89
d3-animate-choice,92,653725,0.0-61.0-1.10,FALSE,TRUE,FALSE,TRUE,"""event"",""trial"",""time""
""fullscreenenter"",""5"",""23194""
","
","
","""event"",""trial"",""time""
""fullscreenenter"",""5"",""23194""
","
",1708.589999936521,NA,49,NA,NA,3000,1,NA,NA,images/tutgreenplanet.jpg,images/tutalien2,images/tutalien1,images/tutrocket2,images/tutalien1,images/nothing.png,2,practice,false,1,rare,0,2020-06-16T18:09:06Z,sub89
two-step-fixation,93,654731,0.0-61.0-2.10,FALSE,TRUE,FALSE,TRUE,"""event"",""trial"",""time""
""fullscreenenter"",""5"",""23194""
","
","
","""event"",""trial"",""time""
""fullscreenenter"",""5"",""23194""
","
",NA,images/earth.jpg,NA,NA,NA,NA,NA,NA,NA,NA,NA,NA,NA,NA,NA,fixation,NA,NA,NA,NA,NA,NA,sub89
d3-animate-choice,94,658415,0.0-61.0-0.11,FALSE,TRUE,FALSE,TRUE,"""event"",""trial"",""time""
""fullscreenenter"",""5"",""23194""
","
","
","""event"",""trial"",""time""
""fullscreenenter"",""5"",""23194""
","
",1676.3649999629706,NA,48,NA,NA,3000,1,NA,NA,images/earth.jpg,images/tutrocket1,images/tutrocket2,null,images/tutrocket1,NA,1,practice,null,2,NA,NA,NA,sub89
d3-animate-choice,95,661576,0.0-61.0-1.11,FALSE,TRUE,FALSE,TRUE,"""event"",""trial"",""time""
""fullscreenenter"",""5"",""23194""
","
","
","""event"",""trial"",""time""
""fullscreenenter"",""5"",""23194""
","
",1152.500000083819,NA,49,NA,NA,3000,1,NA,NA,images/tutyellowplanet.jpg,images/tutalien4,images/tutalien3,images/tutrocket1,images/tutalien3,images/nothing.png,2,practice,false,1,rare,0,2020-06-16T18:09:14Z,sub89
two-step-fixation,96,662581,0.0-61.0-2.11,FALSE,TRUE,FALSE,TRUE,"""event"",""trial"",""time""
""fullscreenenter"",""5"",""23194""
","
","
","""event"",""trial"",""time""
""fullscreenenter"",""5"",""23194""
","
",NA,images/earth.jpg,NA,NA,NA,NA,NA,NA,NA,NA,NA,NA,NA,NA,NA,fixation,NA,NA,NA,NA,NA,NA,sub89
d3-animate-choice,97,665435,0.0-61.0-0.12,FALSE,TRUE,FALSE,TRUE,"""event"",""trial"",""time""
""fullscreenenter"",""5"",""23194""
","
","
","""event"",""trial"",""time""
""fullscreenenter"",""5"",""23194""
","
",845.9450001828372,NA,49,NA,NA,3000,1,NA,NA,images/earth.jpg,images/tutrocket1,images/tutrocket2,null,images/tutrocket2,NA,1,practice,null,1,NA,NA,NA,sub89
d3-animate-choice,98,668960,0.0-61.0-1.12,FALSE,TRUE,FALSE,TRUE,"""event"",""trial"",""time""
""fullscreenenter"",""5"",""23194""
","
","
","""event"",""trial"",""time""
""fullscreenenter"",""5"",""23194""
","
",1517.1249997802079,NA,48,NA,NA,3000,1,NA,NA,images/tutyellowplanet.jpg,images/tutalien4,images/tutalien3,images/tutrocket2,images/tutalien4,images/nothing.png,2,practice,true,2,common,0,2020-06-16T18:09:22Z,sub89
two-step-fixation,99,669966,0.0-61.0-2.12,FALSE,TRUE,FALSE,TRUE,"""event"",""trial"",""time""
""fullscreenenter"",""5"",""23194""
","
","
","""event"",""trial"",""time""
""fullscreenenter"",""5"",""23194""
","
",NA,images/earth.jpg,NA,NA,NA,NA,NA,NA,NA,NA,NA,NA,NA,NA,NA,fixation,NA,NA,NA,NA,NA,NA,sub89
d3-animate-choice,100,673287,0.0-61.0-0.13,FALSE,TRUE,FALSE,TRUE,"""event"",""trial"",""time""
""fullscreenenter"",""5"",""23194""
","
","
","""event"",""trial"",""time""
""fullscreenenter"",""5"",""23194""
","
",1314.3499998841435,NA,49,NA,NA,3000,1,1585.1999998558313,49,images/earth.jpg,images/tutrocket1,images/tutrocket2,null,images/tutrocket2,NA,1,practice,null,1,NA,NA,NA,sub89
d3-animate-choice,101,676112,0.0-61.0-1.13,FALSE,TRUE,FALSE,TRUE,"""event"",""trial"",""time""
""fullscreenenter"",""5"",""23194""
","
","
","""event"",""trial"",""time""
""fullscreenenter"",""5"",""23194""
","
",818.2599998544902,NA,49,NA,NA,3000,1,NA,NA,images/tutyellowplanet.jpg,images/tutalien4,images/tutalien3,images/tutrocket2,images/tutalien3,images/t.png,2,practice,true,1,common,1,2020-06-16T18:09:29Z,sub89
two-step-fixation,102,677119,0.0-61.0-2.13,FALSE,TRUE,FALSE,TRUE,"""event"",""trial"",""time""
""fullscreenenter"",""5"",""23194""
","
","
","""event"",""trial"",""time""
""fullscreenenter"",""5"",""23194""
","
",NA,images/earth.jpg,NA,NA,NA,NA,NA,NA,NA,NA,NA,NA,NA,NA,NA,fixation,NA,NA,NA,NA,NA,NA,sub89
d3-animate-choice,103,681124,0.0-61.0-0.14,FALSE,TRUE,FALSE,TRUE,"""event"",""trial"",""time""
""fullscreenenter"",""5"",""23194""
","
","
","""event"",""trial"",""time""
""fullscreenenter"",""5"",""23194""
","
",2220.0299999676645,NA,49,NA,NA,3000,1,NA,NA,images/earth.jpg,images/tutrocket1,images/tutrocket2,null,images/tutrocket2,NA,1,practice,null,1,NA,NA,NA,sub89
d3-animate-choice,104,683976,0.0-61.0-1.14,FALSE,TRUE,FALSE,TRUE,"""event"",""trial"",""time""
""fullscreenenter"",""5"",""23194""
","
","
","""event"",""trial"",""time""
""fullscreenenter"",""5"",""23194""
","
",843.885000096634,NA,49,NA,NA,3000,1,NA,NA,images/tutyellowplanet.jpg,images/tutalien4,images/tutalien3,images/tutrocket2,images/tutalien3,images/nothing.png,2,practice,true,1,common,0,2020-06-16T18:09:37Z,sub89
two-step-fixation,105,684981,0.0-61.0-2.14,FALSE,TRUE,FALSE,TRUE,"""event"",""trial"",""time""
""fullscreenenter"",""5"",""23194""
","
","
","""event"",""trial"",""time""
""fullscreenenter"",""5"",""23194""
","
",NA,images/earth.jpg,NA,NA,NA,NA,NA,NA,NA,NA,NA,NA,NA,NA,NA,fixation,NA,NA,NA,NA,NA,NA,sub89
d3-animate-choice,106,687793,0.0-61.0-0.15,FALSE,TRUE,FALSE,TRUE,"""event"",""trial"",""time""
""fullscreenenter"",""5"",""23194""
","
","
","""event"",""trial"",""time""
""fullscreenenter"",""5"",""23194""
","
",805.604999884963,NA,49,NA,NA,3000,1,NA,NA,images/earth.jpg,images/tutrocket1,images/tutrocket2,null,images/tutrocket2,NA,1,practice,null,1,NA,NA,NA,sub89
d3-animate-choice,107,690261,0.0-61.0-1.15,FALSE,TRUE,FALSE,TRUE,"""event"",""trial"",""time""
""fullscreenenter"",""5"",""23194""
","
","
","""event"",""trial"",""time""
""fullscreenenter"",""5"",""23194""
","
",458.85500009171665,NA,48,NA,NA,3000,1,NA,NA,images/tutyellowplanet.jpg,images/tutalien4,images/tutalien3,images/tutrocket2,images/tutalien4,images/nothing.png,2,practice,true,2,common,0,2020-06-16T18:09:43Z,sub89
two-step-fixation,108,691268,0.0-61.0-2.15,FALSE,TRUE,FALSE,TRUE,"""event"",""trial"",""time""
""fullscreenenter"",""5"",""23194""
","
","
","""event"",""trial"",""time""
""fullscreenenter"",""5"",""23194""
","
",NA,images/earth.jpg,NA,NA,NA,NA,NA,NA,NA,NA,NA,NA,NA,NA,NA,fixation,NA,NA,NA,NA,NA,NA,sub89
d3-animate-choice,109,693961,0.0-61.0-0.16,FALSE,TRUE,FALSE,TRUE,"""event"",""trial"",""time""
""fullscreenenter"",""5"",""23194""
","
","
","""event"",""trial"",""time""
""fullscreenenter"",""5"",""23194""
","
",685.8899998478591,NA,49,NA,NA,3000,1,NA,NA,images/earth.jpg,images/tutrocket1,images/tutrocket2,null,images/tutrocket2,NA,1,practice,null,1,NA,NA,NA,sub89
d3-animate-choice,110,696429,0.0-61.0-1.16,FALSE,TRUE,FALSE,TRUE,"""event"",""trial"",""time""
""fullscreenenter"",""5"",""23194""
","
","
","""event"",""trial"",""time""
""fullscreenenter"",""5"",""23194""
","
",459.4149999320507,NA,48,NA,NA,3000,1,NA,NA,images/tutyellowplanet.jpg,images/tutalien4,images/tutalien3,images/tutrocket2,images/tutalien4,images/nothing.png,2,practice,true,2,common,0,2020-06-16T18:09:49Z,sub89
two-step-fixation,111,697434,0.0-61.0-2.16,FALSE,TRUE,FALSE,TRUE,"""event"",""trial"",""time""
""fullscreenenter"",""5"",""23194""
","
","
","""event"",""trial"",""time""
""fullscreenenter"",""5"",""23194""
","
",NA,images/earth.jpg,NA,NA,NA,NA,NA,NA,NA,NA,NA,NA,NA,NA,NA,fixation,NA,NA,NA,NA,NA,NA,sub89
d3-animate-choice,112,699757,0.0-61.0-0.17,FALSE,TRUE,FALSE,TRUE,"""event"",""trial"",""time""
""fullscreenenter"",""5"",""23194""
","
","
","""event"",""trial"",""time""
""fullscreenenter"",""5"",""23194""
","
",315.63500012271106,NA,48,NA,NA,3000,1,NA,NA,images/earth.jpg,images/tutrocket1,images/tutrocket2,null,images/tutrocket1,NA,1,practice,null,2,NA,NA,NA,sub89
d3-animate-choice,113,702780,0.0-61.0-1.17,FALSE,TRUE,FALSE,TRUE,"""event"",""trial"",""time""
""fullscreenenter"",""5"",""23194""
","
","
","""event"",""trial"",""time""
""fullscreenenter"",""5"",""23194""
","
",1016.3650000467896,NA,48,NA,NA,3000,1,NA,NA,images/tutgreenplanet.jpg,images/tutalien2,images/tutalien1,images/tutrocket1,images/tutalien2,images/nothing.png,2,practice,true,2,common,0,2020-06-16T18:09:56Z,sub89
two-step-fixation,114,703785,0.0-61.0-2.17,FALSE,TRUE,FALSE,TRUE,"""event"",""trial"",""time""
""fullscreenenter"",""5"",""23194""
","
","
","""event"",""trial"",""time""
""fullscreenenter"",""5"",""23194""
","
",NA,images/earth.jpg,NA,NA,NA,NA,NA,NA,NA,NA,NA,NA,NA,NA,NA,fixation,NA,NA,NA,NA,NA,NA,sub89
d3-animate-choice,115,706554,0.0-61.0-0.18,FALSE,TRUE,FALSE,TRUE,"""event"",""trial"",""time""
""fullscreenenter"",""5"",""23194""
","
","
","""event"",""trial"",""time""
""fullscreenenter"",""5"",""23194""
","
",762.7550000324845,NA,48,NA,NA,3000,1,NA,NA,images/earth.jpg,images/tutrocket1,images/tutrocket2,null,images/tutrocket1,NA,1,practice,null,2,NA,NA,NA,sub89
d3-animate-choice,116,709472,0.0-61.0-1.18,FALSE,TRUE,FALSE,TRUE,"""event"",""trial"",""time""
""fullscreenenter"",""5"",""23194""
","
","
","""event"",""trial"",""time""
""fullscreenenter"",""5"",""23194""
","
",908.9750000275671,NA,49,NA,NA,3000,1,NA,NA,images/tutyellowplanet.jpg,images/tutalien4,images/tutalien3,images/tutrocket1,images/tutalien3,images/t.png,2,practice,false,1,rare,1,2020-06-16T18:10:02Z,sub89
two-step-fixation,117,710477,0.0-61.0-2.18,FALSE,TRUE,FALSE,TRUE,"""event"",""trial"",""time""
""fullscreenenter"",""5"",""23194""
","
","
","""event"",""trial"",""time""
""fullscreenenter"",""5"",""23194""
","
",NA,images/earth.jpg,NA,NA,NA,NA,NA,NA,NA,NA,NA,NA,NA,NA,NA,fixation,NA,NA,NA,NA,NA,NA,sub89
d3-animate-choice,118,714485,0.0-61.0-0.19,FALSE,TRUE,FALSE,TRUE,"""event"",""trial"",""time""
""fullscreenenter"",""5"",""23194""
","
","
","""event"",""trial"",""time""
""fullscreenenter"",""5"",""23194""
","
",2617.3700001090765,NA,48,NA,NA,3000,1,NA,NA,images/earth.jpg,images/tutrocket1,images/tutrocket2,null,images/tutrocket1,NA,1,practice,null,2,NA,NA,NA,sub89
d3-animate-choice,119,717278,0.0-61.0-1.19,FALSE,TRUE,FALSE,TRUE,"""event"",""trial"",""time""
""fullscreenenter"",""5"",""23194""
","
","
","""event"",""trial"",""time""
""fullscreenenter"",""5"",""23194""
","
",788.1400000769645,NA,48,NA,NA,3000,1,NA,NA,images/tutyellowplanet.jpg,images/tutalien4,images/tutalien3,images/tutrocket1,images/tutalien4,images/t.png,2,practice,false,2,rare,1,2020-06-16T18:10:10Z,sub89
two-step-fixation,120,718284,0.0-61.0-2.19,FALSE,TRUE,FALSE,TRUE,"""event"",""trial"",""time""
""fullscreenenter"",""5"",""23194""
","
","
","""event"",""trial"",""time""
""fullscreenenter"",""5"",""23194""
","
",NA,images/earth.jpg,NA,NA,NA,NA,NA,NA,NA,NA,NA,NA,NA,NA,NA,fixation,NA,NA,NA,NA,NA,NA,sub89
d3-instructions,121,731713,0.0-62.0,FALSE,TRUE,FALSE,TRUE,"""event"",""trial"",""time""
""fullscreenenter"",""5"",""23194""
","
","
","""event"",""trial"",""time""
""fullscreenenter"",""5"",""23194""
","
",NA,NA,NA,NA,NA,NA,NA,NA,NA,NA,NA,NA,NA,NA,NA,NA,NA,NA,NA,NA,NA,NA,sub89
audio-keyboard-response,122,736589,0.0-63.0,FALSE,TRUE,FALSE,TRUE,"""event"",""trial"",""time""
""fullscreenenter"",""5"",""23194""
","
","
","""event"",""trial"",""time""
""fullscreenenter"",""5"",""23194""
","
",4865,audio/instructions/treasure_feedback.wav,32,NA,NA,NA,NA,NA,NA,NA,NA,NA,NA,NA,NA,NA,NA,NA,NA,NA,NA,NA,sub89
d3-instructions,123,758833,0.0-64.0,FALSE,TRUE,FALSE,TRUE,"""event"",""trial"",""time""
""fullscreenenter"",""5"",""23194""
","
","
","""event"",""trial"",""time""
""fullscreenenter"",""5"",""23194""
","
",NA,NA,NA,NA,NA,NA,NA,NA,NA,NA,NA,NA,NA,NA,NA,NA,NA,NA,NA,NA,NA,NA,sub89
d3-instructions,124,774823,0.0-65.0,FALSE,TRUE,FALSE,TRUE,"""event"",""trial"",""time""
""fullscreenenter"",""5"",""23194""
","
","
","""event"",""trial"",""time""
""fullscreenenter"",""5"",""23194""
","
",NA,NA,NA,NA,NA,NA,NA,NA,NA,NA,NA,NA,NA,NA,NA,NA,NA,NA,NA,NA,NA,NA,sub89
d3-instructions,125,804004,0.0-66.0,FALSE,TRUE,FALSE,TRUE,"""event"",""trial"",""time""
""fullscreenenter"",""5"",""23194""
","
","
","""event"",""trial"",""time""
""fullscreenenter"",""5"",""23194""
","
",NA,NA,NA,NA,NA,NA,NA,NA,NA,NA,NA,NA,NA,NA,NA,NA,NA,NA,NA,NA,NA,NA,sub89
d3-instructions,126,819625,0.0-67.0,FALSE,TRUE,FALSE,TRUE,"""event"",""trial"",""time""
""fullscreenenter"",""5"",""23194""
","
","
","""event"",""trial"",""time""
""fullscreenenter"",""5"",""23194""
","
",NA,NA,NA,NA,NA,NA,NA,NA,NA,NA,NA,NA,NA,NA,NA,NA,NA,NA,NA,NA,NA,NA,sub89
d3-instructions,127,828539,0.0-68.0,FALSE,TRUE,FALSE,TRUE,"""event"",""trial"",""time""
""fullscreenenter"",""5"",""23194""
","
","
","""event"",""trial"",""time""
""fullscreenenter"",""5"",""23194""
","
",NA,NA,NA,NA,NA,NA,NA,NA,NA,NA,NA,NA,NA,NA,NA,NA,NA,NA,NA,NA,NA,NA,sub89
instructions-quiz,128,837294,0.0-69.0,FALSE,TRUE,FALSE,TRUE,"""event"",""trial"",""time""
""fullscreenenter"",""5"",""23194""
","
","
","""event"",""trial"",""time""
""fullscreenenter"",""5"",""23194""
","
",8750.939999939874,audio/quiz/Q1_Prompt.wav,NA,1,NA,NA,NA,NA,NA,NA,NA,NA,NA,NA,NA,NA,NA,NA,NA,NA,NA,NA,sub89
audio-keyboard-response,129,846466,0.0-70.0,FALSE,TRUE,FALSE,TRUE,"""event"",""trial"",""time""
""fullscreenenter"",""5"",""23194""
","
","
","""event"",""trial"",""time""
""fullscreenenter"",""5"",""23194""
","
",null,audio/quiz/Q1_Correct.wav,null,NA,NA,NA,NA,NA,NA,NA,NA,NA,NA,NA,NA,NA,NA,NA,NA,NA,NA,NA,sub89
instructions-quiz,130,861469,0.0-71.0,FALSE,TRUE,FALSE,TRUE,"""event"",""trial"",""time""
""fullscreenenter"",""5"",""23194""
","
","
","""event"",""trial"",""time""
""fullscreenenter"",""5"",""23194""
","
",15000.669999979436,audio/quiz/Q2_Prompt.wav,NA,0,NA,NA,NA,NA,NA,NA,NA,NA,NA,NA,NA,NA,NA,NA,NA,NA,NA,NA,sub89
audio-keyboard-response,131,874341,0.0-72.0,FALSE,TRUE,FALSE,TRUE,"""event"",""trial"",""time""
""fullscreenenter"",""5"",""23194""
","
","
","""event"",""trial"",""time""
""fullscreenenter"",""5"",""23194""
","
",null,audio/quiz/Q2_Correct.wav,null,NA,NA,NA,NA,NA,NA,NA,NA,NA,NA,NA,NA,NA,NA,NA,NA,NA,NA,NA,sub89
instructions-quiz,132,880104,0.0-73.0,FALSE,TRUE,FALSE,TRUE,"""event"",""trial"",""time""
""fullscreenenter"",""5"",""23194""
","
","
","""event"",""trial"",""time""
""fullscreenenter"",""5"",""23194""
","
",5760.655000107363,audio/quiz/Q3_Prompt.wav,NA,1,NA,NA,NA,NA,NA,NA,NA,NA,NA,NA,NA,NA,NA,NA,NA,NA,NA,NA,sub89
audio-keyboard-response,133,885903,0.0-74.0,FALSE,TRUE,FALSE,TRUE,"""event"",""trial"",""time""
""fullscreenenter"",""5"",""23194""
","
","
","""event"",""trial"",""time""
""fullscreenenter"",""5"",""23194""
","
",null,audio/quiz/Q3_Correct.wav,null,NA,NA,NA,NA,NA,NA,NA,NA,NA,NA,NA,NA,NA,NA,NA,NA,NA,NA,NA,sub89
d3-instructions,134,898957,0.0-75.0,FALSE,TRUE,FALSE,TRUE,"""event"",""trial"",""time""
""fullscreenenter"",""5"",""23194""
","
","
","""event"",""trial"",""time""
""fullscreenenter"",""5"",""23194""
","
",NA,NA,NA,NA,NA,NA,NA,NA,NA,NA,NA,NA,NA,NA,NA,NA,NA,NA,NA,NA,NA,NA,sub89
d3-animate-choice,135,902966,0.0-76.0-0.0,FALSE,TRUE,FALSE,TRUE,"""event"",""trial"",""time""
""fullscreenenter"",""5"",""23194""
","
","
","""event"",""trial"",""time""
""fullscreenenter"",""5"",""23194""
","
",2151.7350000794977,NA,48,NA,NA,3000,1,NA,NA,images/earth.jpg,images/rocket1,images/rocket2,null,images/rocket1,NA,1,real,null,2,NA,NA,NA,sub89
d3-animate-choice,136,906745,0.0-76.0-1.0,FALSE,TRUE,FALSE,TRUE,"""event"",""trial"",""time""
""fullscreenenter"",""5"",""23194""
","
","
","""event"",""trial"",""time""
""fullscreenenter"",""5"",""23194""
","
",1771.1450001224875,NA,48,NA,NA,3000,1,NA,NA,images/purpleplanet.jpg,images/alien4,images/alien3,images/rocket1,images/alien4,images/t.png,2,real,false,2,rare,1,2020-06-16T18:13:19Z,sub89
two-step-fixation,137,907749,0.0-76.0-2.0,FALSE,TRUE,FALSE,TRUE,"""event"",""trial"",""time""
""fullscreenenter"",""5"",""23194""
","
","
","""event"",""trial"",""time""
""fullscreenenter"",""5"",""23194""
","
",NA,images/earth.jpg,NA,NA,NA,NA,NA,NA,NA,NA,NA,NA,NA,NA,NA,fixation,NA,NA,NA,NA,NA,NA,sub89
d3-animate-choice,138,910930,0.0-76.0-0.1,FALSE,TRUE,FALSE,TRUE,"""event"",""trial"",""time""
""fullscreenenter"",""5"",""23194""
","
","
","""event"",""trial"",""time""
""fullscreenenter"",""5"",""23194""
","
",1174.4150000158697,NA,48,NA,NA,3000,1,NA,NA,images/earth.jpg,images/rocket1,images/rocket2,null,images/rocket1,NA,1,real,null,2,NA,NA,NA,sub89
d3-animate-choice,139,914293,0.0-76.0-1.1,FALSE,TRUE,FALSE,TRUE,"""event"",""trial"",""time""
""fullscreenenter"",""5"",""23194""
","
","
","""event"",""trial"",""time""
""fullscreenenter"",""5"",""23194""
","
",1354.964999947697,NA,49,NA,NA,3000,1,NA,NA,images/redplanet1.jpg,images/alien2,images/alien1,images/rocket1,images/alien1,images/nothing.png,2,real,true,1,common,0,2020-06-16T18:13:27Z,sub89
two-step-fixation,140,915297,0.0-76.0-2.1,FALSE,TRUE,FALSE,TRUE,"""event"",""trial"",""time""
""fullscreenenter"",""5"",""23194""
","
","
","""event"",""trial"",""time""
""fullscreenenter"",""5"",""23194""
","
",NA,images/earth.jpg,NA,NA,NA,NA,NA,NA,NA,NA,NA,NA,NA,NA,NA,fixation,NA,NA,NA,NA,NA,NA,sub89
d3-animate-choice,141,917588,0.0-76.0-0.2,FALSE,TRUE,FALSE,TRUE,"""event"",""trial"",""time""
""fullscreenenter"",""5"",""23194""
","
","
","""event"",""trial"",""time""
""fullscreenenter"",""5"",""23194""
","
",284.79499998502433,NA,48,NA,NA,3000,1,NA,NA,images/earth.jpg,images/rocket1,images/rocket2,null,images/rocket1,NA,1,real,null,2,NA,NA,NA,sub89
d3-animate-choice,142,920283,0.0-76.0-1.2,FALSE,TRUE,FALSE,TRUE,"""event"",""trial"",""time""
""fullscreenenter"",""5"",""23194""
","
","
","""event"",""trial"",""time""
""fullscreenenter"",""5"",""23194""
","
",688.2799998857081,NA,48,NA,NA,3000,1,NA,NA,images/redplanet1.jpg,images/alien2,images/alien1,images/rocket1,images/alien2,images/t.png,2,real,true,2,common,1,2020-06-16T18:13:33Z,sub89
two-step-fixation,143,921289,0.0-76.0-2.2,FALSE,TRUE,FALSE,TRUE,"""event"",""trial"",""time""
""fullscreenenter"",""5"",""23194""
","
","
","""event"",""trial"",""time""
""fullscreenenter"",""5"",""23194""
","
",NA,images/earth.jpg,NA,NA,NA,NA,NA,NA,NA,NA,NA,NA,NA,NA,NA,fixation,NA,NA,NA,NA,NA,NA,sub89
d3-animate-choice,144,924040,0.0-76.0-0.3,FALSE,TRUE,FALSE,TRUE,"""event"",""trial"",""time""
""fullscreenenter"",""5"",""23194""
","
","
","""event"",""trial"",""time""
""fullscreenenter"",""5"",""23194""
","
",744.2850000225008,NA,48,NA,NA,3000,1,NA,NA,images/earth.jpg,images/rocket1,images/rocket2,null,images/rocket1,NA,1,real,null,2,NA,NA,NA,sub89
d3-animate-choice,145,926782,0.0-76.0-1.3,FALSE,TRUE,FALSE,TRUE,"""event"",""trial"",""time""
""fullscreenenter"",""5"",""23194""
","
","
","""event"",""trial"",""time""
""fullscreenenter"",""5"",""23194""
","
",733.3799998741597,NA,49,NA,NA,3000,1,NA,NA,images/redplanet1.jpg,images/alien2,images/alien1,images/rocket1,images/alien1,images/t.png,2,real,true,1,common,1,2020-06-16T18:13:40Z,sub89
two-step-fixation,146,927787,0.0-76.0-2.3,FALSE,TRUE,FALSE,TRUE,"""event"",""trial"",""time""
""fullscreenenter"",""5"",""23194""
","
","
","""event"",""trial"",""time""
""fullscreenenter"",""5"",""23194""
","
",NA,images/earth.jpg,NA,NA,NA,NA,NA,NA,NA,NA,NA,NA,NA,NA,NA,fixation,NA,NA,NA,NA,NA,NA,sub89
d3-animate-choice,147,930130,0.0-76.0-0.4,FALSE,TRUE,FALSE,TRUE,"""event"",""trial"",""time""
""fullscreenenter"",""5"",""23194""
","
","
","""event"",""trial"",""time""
""fullscreenenter"",""5"",""23194""
","
",337.4199999962002,NA,48,NA,NA,3000,1,NA,NA,images/earth.jpg,images/rocket1,images/rocket2,null,images/rocket1,NA,1,real,null,2,NA,NA,NA,sub89
d3-animate-choice,148,932718,0.0-76.0-1.4,FALSE,TRUE,FALSE,TRUE,"""event"",""trial"",""time""
""fullscreenenter"",""5"",""23194""
","
","
","""event"",""trial"",""time""
""fullscreenenter"",""5"",""23194""
","
",580.9450000524521,NA,48,NA,NA,3000,1,NA,NA,images/purpleplanet.jpg,images/alien4,images/alien3,images/rocket1,images/alien4,images/nothing.png,2,real,false,2,rare,0,2020-06-16T18:13:45Z,sub89
two-step-fixation,149,933724,0.0-76.0-2.4,FALSE,TRUE,FALSE,TRUE,"""event"",""trial"",""time""
""fullscreenenter"",""5"",""23194""
","
","
","""event"",""trial"",""time""
""fullscreenenter"",""5"",""23194""
","
",NA,images/earth.jpg,NA,NA,NA,NA,NA,NA,NA,NA,NA,NA,NA,NA,NA,fixation,NA,NA,NA,NA,NA,NA,sub89
d3-animate-choice,150,935848,0.0-76.0-0.5,FALSE,TRUE,FALSE,TRUE,"""event"",""trial"",""time""
""fullscreenenter"",""5"",""23194""
","
","
","""event"",""trial"",""time""
""fullscreenenter"",""5"",""23194""
","
",117.42500006221235,NA,48,NA,NA,3000,1,NA,NA,images/earth.jpg,images/rocket1,images/rocket2,null,images/rocket1,NA,1,real,null,2,NA,NA,NA,sub89
d3-animate-choice,151,939444,0.0-76.0-1.5,FALSE,TRUE,FALSE,TRUE,"""event"",""trial"",""time""
""fullscreenenter"",""5"",""23194""
","
","
","""event"",""trial"",""time""
""fullscreenenter"",""5"",""23194""
","
",1588.9099999330938,NA,48,NA,NA,3000,1,NA,NA,images/redplanet1.jpg,images/alien2,images/alien1,images/rocket1,images/alien2,images/t.png,2,real,true,2,common,1,2020-06-16T18:13:52Z,sub89
two-step-fixation,152,940450,0.0-76.0-2.5,FALSE,TRUE,FALSE,TRUE,"""event"",""trial"",""time""
""fullscreenenter"",""5"",""23194""
","
","
","""event"",""trial"",""time""
""fullscreenenter"",""5"",""23194""
","
",NA,images/earth.jpg,NA,NA,NA,NA,NA,NA,NA,NA,NA,NA,NA,NA,NA,fixation,NA,NA,NA,NA,NA,NA,sub89
d3-animate-choice,153,942902,0.0-76.0-0.6,FALSE,TRUE,FALSE,TRUE,"""event"",""trial"",""time""
""fullscreenenter"",""5"",""23194""
","
","
","""event"",""trial"",""time""
""fullscreenenter"",""5"",""23194""
","
",444.734999909997,NA,48,NA,NA,3000,1,NA,NA,images/earth.jpg,images/rocket1,images/rocket2,null,images/rocket1,NA,1,real,null,2,NA,NA,NA,sub89
d3-animate-choice,154,945647,0.0-76.0-1.6,FALSE,TRUE,FALSE,TRUE,"""event"",""trial"",""time""
""fullscreenenter"",""5"",""23194""
","
","
","""event"",""trial"",""time""
""fullscreenenter"",""5"",""23194""
","
",737.3749997932464,NA,48,NA,NA,3000,1,NA,NA,images/redplanet1.jpg,images/alien2,images/alien1,images/rocket1,images/alien2,images/nothing.png,2,real,true,2,common,0,2020-06-16T18:13:58Z,sub89
two-step-fixation,155,946653,0.0-76.0-2.6,FALSE,TRUE,FALSE,TRUE,"""event"",""trial"",""time""
""fullscreenenter"",""5"",""23194""
","
","
","""event"",""trial"",""time""
""fullscreenenter"",""5"",""23194""
","
",NA,images/earth.jpg,NA,NA,NA,NA,NA,NA,NA,NA,NA,NA,NA,NA,NA,fixation,NA,NA,NA,NA,NA,NA,sub89
d3-animate-choice,156,950249,0.0-76.0-0.7,FALSE,TRUE,FALSE,TRUE,"""event"",""trial"",""time""
""fullscreenenter"",""5"",""23194""
","
","
","""event"",""trial"",""time""
""fullscreenenter"",""5"",""23194""
","
",1590.7649998553097,NA,49,NA,NA,3000,1,NA,NA,images/earth.jpg,images/rocket1,images/rocket2,null,images/rocket2,NA,1,real,null,1,NA,NA,NA,sub89
d3-animate-choice,157,953526,0.0-76.0-1.7,FALSE,TRUE,FALSE,TRUE,"""event"",""trial"",""time""
""fullscreenenter"",""5"",""23194""
","
","
","""event"",""trial"",""time""
""fullscreenenter"",""5"",""23194""
","
",1269.3600000347942,NA,49,NA,NA,3000,1,NA,NA,images/purpleplanet.jpg,images/alien4,images/alien3,images/rocket2,images/alien3,images/nothing.png,2,real,true,1,common,0,2020-06-16T18:14:06Z,sub89
two-step-fixation,158,954532,0.0-76.0-2.7,FALSE,TRUE,FALSE,TRUE,"""event"",""trial"",""time""
""fullscreenenter"",""5"",""23194""
","
","
","""event"",""trial"",""time""
""fullscreenenter"",""5"",""23194""
","
",NA,images/earth.jpg,NA,NA,NA,NA,NA,NA,NA,NA,NA,NA,NA,NA,NA,fixation,NA,NA,NA,NA,NA,NA,sub89
d3-animate-choice,159,957226,0.0-76.0-0.8,FALSE,TRUE,FALSE,TRUE,"""event"",""trial"",""time""
""fullscreenenter"",""5"",""23194""
","
","
","""event"",""trial"",""time""
""fullscreenenter"",""5"",""23194""
","
",688.0850000306964,NA,49,NA,NA,3000,1,NA,NA,images/earth.jpg,images/rocket1,images/rocket2,null,images/rocket2,NA,1,real,null,1,NA,NA,NA,sub89
d3-animate-choice,160,960004,0.0-76.0-1.8,FALSE,TRUE,FALSE,TRUE,"""event"",""trial"",""time""
""fullscreenenter"",""5"",""23194""
","
","
","""event"",""trial"",""time""
""fullscreenenter"",""5"",""23194""
","
",770.5799997784197,NA,48,NA,NA,3000,1,NA,NA,images/redplanet1.jpg,images/alien2,images/alien1,images/rocket2,images/alien2,images/t.png,2,real,false,2,rare,1,2020-06-16T18:14:13Z,sub89
two-step-fixation,161,961009,0.0-76.0-2.8,FALSE,TRUE,FALSE,TRUE,"""event"",""trial"",""time""
""fullscreenenter"",""5"",""23194""
","
","
","""event"",""trial"",""time""
""fullscreenenter"",""5"",""23194""
","
",NA,images/earth.jpg,NA,NA,NA,NA,NA,NA,NA,NA,NA,NA,NA,NA,NA,fixation,NA,NA,NA,NA,NA,NA,sub89
d3-animate-choice,162,964656,0.0-76.0-0.9,FALSE,TRUE,FALSE,TRUE,"""event"",""trial"",""time""
""fullscreenenter"",""5"",""23194""
","
","
","""event"",""trial"",""time""
""fullscreenenter"",""5"",""23194""
","
",1639.3300001509488,NA,48,NA,NA,3000,1,NA,NA,images/earth.jpg,images/rocket1,images/rocket2,null,images/rocket1,NA,1,real,null,2,NA,NA,NA,sub89
d3-animate-choice,163,967326,0.0-76.0-1.9,FALSE,TRUE,FALSE,TRUE,"""event"",""trial"",""time""
""fullscreenenter"",""5"",""23194""
","
","
","""event"",""trial"",""time""
""fullscreenenter"",""5"",""23194""
","
",664.0599998645484,NA,48,NA,NA,3000,1,NA,NA,images/redplanet1.jpg,images/alien2,images/alien1,images/rocket1,images/alien2,images/nothing.png,2,real,true,2,common,0,2020-06-16T18:14:20Z,sub89
two-step-fixation,164,968332,0.0-76.0-2.9,FALSE,TRUE,FALSE,TRUE,"""event"",""trial"",""time""
""fullscreenenter"",""5"",""23194""
","
","
","""event"",""trial"",""time""
""fullscreenenter"",""5"",""23194""
","
",NA,images/earth.jpg,NA,NA,NA,NA,NA,NA,NA,NA,NA,NA,NA,NA,NA,fixation,NA,NA,NA,NA,NA,NA,sub89
d3-animate-choice,165,970554,0.0-76.0-0.10,FALSE,TRUE,FALSE,TRUE,"""event"",""trial"",""time""
""fullscreenenter"",""5"",""23194""
","
","
","""event"",""trial"",""time""
""fullscreenenter"",""5"",""23194""
","
",216.04999992996454,NA,48,NA,NA,3000,1,NA,NA,images/earth.jpg,images/rocket1,images/rocket2,null,images/rocket1,NA,1,real,null,2,NA,NA,NA,sub89
d3-animate-choice,166,972830,0.0-76.0-1.10,FALSE,TRUE,FALSE,TRUE,"""event"",""trial"",""time""
""fullscreenenter"",""5"",""23194""
","
","
","""event"",""trial"",""time""
""fullscreenenter"",""5"",""23194""
","
",270.1399999205023,NA,49,NA,NA,3000,1,NA,NA,images/redplanet1.jpg,images/alien2,images/alien1,images/rocket1,images/alien1,images/nothing.png,2,real,true,1,common,0,2020-06-16T18:14:26Z,sub89
two-step-fixation,167,973836,0.0-76.0-2.10,FALSE,TRUE,FALSE,TRUE,"""event"",""trial"",""time""
""fullscreenenter"",""5"",""23194""
","
","
","""event"",""trial"",""time""
""fullscreenenter"",""5"",""23194""
","
",NA,images/earth.jpg,NA,NA,NA,NA,NA,NA,NA,NA,NA,NA,NA,NA,NA,fixation,NA,NA,NA,NA,NA,NA,sub89
d3-animate-choice,168,977293,0.0-76.0-0.11,FALSE,TRUE,FALSE,TRUE,"""event"",""trial"",""time""
""fullscreenenter"",""5"",""23194""
","
","
","""event"",""trial"",""time""
""fullscreenenter"",""5"",""23194""
","
",1450.2350001130253,NA,49,NA,NA,3000,1,NA,NA,images/earth.jpg,images/rocket1,images/rocket2,null,images/rocket2,NA,1,real,null,1,NA,NA,NA,sub89
d3-animate-choice,169,979957,0.0-76.0-1.11,FALSE,TRUE,FALSE,TRUE,"""event"",""trial"",""time""
""fullscreenenter"",""5"",""23194""
","
","
","""event"",""trial"",""time""
""fullscreenenter"",""5"",""23194""
","
",657.660000026226,NA,48,NA,NA,3000,1,NA,NA,images/purpleplanet.jpg,images/alien4,images/alien3,images/rocket2,images/alien4,images/t.png,2,real,true,2,common,1,2020-06-16T18:14:33Z,sub89
two-step-fixation,170,980964,0.0-76.0-2.11,FALSE,TRUE,FALSE,TRUE,"""event"",""trial"",""time""
""fullscreenenter"",""5"",""23194""
","
","
","""event"",""trial"",""time""
""fullscreenenter"",""5"",""23194""
","
",NA,images/earth.jpg,NA,NA,NA,NA,NA,NA,NA,NA,NA,NA,NA,NA,NA,fixation,NA,NA,NA,NA,NA,NA,sub89
d3-animate-choice,171,983525,0.0-76.0-0.12,FALSE,TRUE,FALSE,TRUE,"""event"",""trial"",""time""
""fullscreenenter"",""5"",""23194""
","
","
","""event"",""trial"",""time""
""fullscreenenter"",""5"",""23194""
","
",555.2850000094622,NA,48,NA,NA,3000,1,NA,NA,images/earth.jpg,images/rocket1,images/rocket2,null,images/rocket1,NA,1,real,null,2,NA,NA,NA,sub89
d3-animate-choice,172,986615,0.0-76.0-1.12,FALSE,TRUE,FALSE,TRUE,"""event"",""trial"",""time""
""fullscreenenter"",""5"",""23194""
","
","
","""event"",""trial"",""time""
""fullscreenenter"",""5"",""23194""
","
",1083.329999819398,NA,49,NA,NA,3000,1,NA,NA,images/redplanet1.jpg,images/alien2,images/alien1,images/rocket1,images/alien1,images/t.png,2,real,true,1,common,1,2020-06-16T18:14:39Z,sub89
two-step-fixation,173,987622,0.0-76.0-2.12,FALSE,TRUE,FALSE,TRUE,"""event"",""trial"",""time""
""fullscreenenter"",""5"",""23194""
","
","
","""event"",""trial"",""time""
""fullscreenenter"",""5"",""23194""
","
",NA,images/earth.jpg,NA,NA,NA,NA,NA,NA,NA,NA,NA,NA,NA,NA,NA,fixation,NA,NA,NA,NA,NA,NA,sub89
d3-animate-choice,174,990246,0.0-76.0-0.13,FALSE,TRUE,FALSE,TRUE,"""event"",""trial"",""time""
""fullscreenenter"",""5"",""23194""
","
","
","""event"",""trial"",""time""
""fullscreenenter"",""5"",""23194""
","
",617.365000071004,NA,48,NA,NA,3000,1,NA,NA,images/earth.jpg,images/rocket1,images/rocket2,null,images/rocket1,NA,1,real,null,2,NA,NA,NA,sub89
d3-animate-choice,175,993134,0.0-76.0-1.13,FALSE,TRUE,FALSE,TRUE,"""event"",""trial"",""time""
""fullscreenenter"",""5"",""23194""
","
","
","""event"",""trial"",""time""
""fullscreenenter"",""5"",""23194""
","
",882.1799999568611,NA,48,NA,NA,3000,1,NA,NA,images/redplanet1.jpg,images/alien2,images/alien1,images/rocket1,images/alien2,images/t.png,2,real,true,2,common,1,2020-06-16T18:14:46Z,sub89
two-step-fixation,176,994141,0.0-76.0-2.13,FALSE,TRUE,FALSE,TRUE,"""event"",""trial"",""time""
""fullscreenenter"",""5"",""23194""
","
","
","""event"",""trial"",""time""
""fullscreenenter"",""5"",""23194""
","
",NA,images/earth.jpg,NA,NA,NA,NA,NA,NA,NA,NA,NA,NA,NA,NA,NA,fixation,NA,NA,NA,NA,NA,NA,sub89
d3-animate-choice,177,996559,0.0-76.0-0.14,FALSE,TRUE,FALSE,TRUE,"""event"",""trial"",""time""
""fullscreenenter"",""5"",""23194""
","
","
","""event"",""trial"",""time""
""fullscreenenter"",""5"",""23194""
","
",411.1150000244379,NA,48,NA,NA,3000,1,NA,NA,images/earth.jpg,images/rocket1,images/rocket2,null,images/rocket1,NA,1,real,null,2,NA,NA,NA,sub89
d3-animate-choice,178,999195,0.0-76.0-1.14,FALSE,TRUE,FALSE,TRUE,"""event"",""trial"",""time""
""fullscreenenter"",""5"",""23194""
","
","
","""event"",""trial"",""time""
""fullscreenenter"",""5"",""23194""
","
",628.5949999000877,NA,48,NA,NA,3000,1,NA,NA,images/redplanet1.jpg,images/alien2,images/alien1,images/rocket1,images/alien2,images/nothing.png,2,real,true,2,common,0,2020-06-16T18:14:52Z,sub89
two-step-fixation,179,1000200,0.0-76.0-2.14,FALSE,TRUE,FALSE,TRUE,"""event"",""trial"",""time""
""fullscreenenter"",""5"",""23194""
","
","
","""event"",""trial"",""time""
""fullscreenenter"",""5"",""23194""
","
",NA,images/earth.jpg,NA,NA,NA,NA,NA,NA,NA,NA,NA,NA,NA,NA,NA,fixation,NA,NA,NA,NA,NA,NA,sub89
d3-animate-choice,180,1002251,0.0-76.0-0.15,FALSE,TRUE,FALSE,TRUE,"""event"",""trial"",""time""
""fullscreenenter"",""5"",""23194""
","
","
","""event"",""trial"",""time""
""fullscreenenter"",""5"",""23194""
","
",43.360000010579824,NA,49,NA,NA,3000,1,NA,NA,images/earth.jpg,images/rocket1,images/rocket2,null,images/rocket2,NA,1,real,null,1,NA,NA,NA,sub89
d3-animate-choice,181,1005165,0.0-76.0-1.15,FALSE,TRUE,FALSE,TRUE,"""event"",""trial"",""time""
""fullscreenenter"",""5"",""23194""
","
","
","""event"",""trial"",""time""
""fullscreenenter"",""5"",""23194""
","
",907.1549999061972,NA,49,NA,NA,3000,1,NA,NA,images/purpleplanet.jpg,images/alien4,images/alien3,images/rocket2,images/alien3,images/nothing.png,2,real,true,1,common,0,2020-06-16T18:14:58Z,sub89
two-step-fixation,182,1006171,0.0-76.0-2.15,FALSE,TRUE,FALSE,TRUE,"""event"",""trial"",""time""
""fullscreenenter"",""5"",""23194""
","
","
","""event"",""trial"",""time""
""fullscreenenter"",""5"",""23194""
","
",NA,images/earth.jpg,NA,NA,NA,NA,NA,NA,NA,NA,NA,NA,NA,NA,NA,fixation,NA,NA,NA,NA,NA,NA,sub89
d3-animate-choice,183,1008660,0.0-76.0-0.16,FALSE,TRUE,FALSE,TRUE,"""event"",""trial"",""time""
""fullscreenenter"",""5"",""23194""
","
","
","""event"",""trial"",""time""
""fullscreenenter"",""5"",""23194""
","
",483.3050000015646,NA,49,NA,NA,3000,1,NA,NA,images/earth.jpg,images/rocket1,images/rocket2,null,images/rocket2,NA,1,real,null,1,NA,NA,NA,sub89
d3-animate-choice,184,1011099,0.0-76.0-1.16,FALSE,TRUE,FALSE,TRUE,"""event"",""trial"",""time""
""fullscreenenter"",""5"",""23194""
","
","
","""event"",""trial"",""time""
""fullscreenenter"",""5"",""23194""
","
",431.40500015579164,NA,48,NA,NA,3000,1,NA,NA,images/purpleplanet.jpg,images/alien4,images/alien3,images/rocket2,images/alien4,images/nothing.png,2,real,true,2,common,0,2020-06-16T18:15:04Z,sub89
two-step-fixation,185,1012103,0.0-76.0-2.16,FALSE,TRUE,FALSE,TRUE,"""event"",""trial"",""time""
""fullscreenenter"",""5"",""23194""
","
","
","""event"",""trial"",""time""
""fullscreenenter"",""5"",""23194""
","
",NA,images/earth.jpg,NA,NA,NA,NA,NA,NA,NA,NA,NA,NA,NA,NA,NA,fixation,NA,NA,NA,NA,NA,NA,sub89
d3-animate-choice,186,1014703,0.0-76.0-0.17,FALSE,TRUE,FALSE,TRUE,"""event"",""trial"",""time""
""fullscreenenter"",""5"",""23194""
","
","
","""event"",""trial"",""time""
""fullscreenenter"",""5"",""23194""
","
",592.8050000220537,NA,48,NA,NA,3000,1,NA,NA,images/earth.jpg,images/rocket1,images/rocket2,null,images/rocket1,NA,1,real,null,2,NA,NA,NA,sub89
d3-animate-choice,187,1017223,0.0-76.0-1.17,FALSE,TRUE,FALSE,TRUE,"""event"",""trial"",""time""
""fullscreenenter"",""5"",""23194""
","
","
","""event"",""trial"",""time""
""fullscreenenter"",""5"",""23194""
","
",513.5649999137968,NA,48,NA,NA,3000,1,NA,NA,images/redplanet1.jpg,images/alien2,images/alien1,images/rocket1,images/alien2,images/t.png,2,real,true,2,common,1,2020-06-16T18:15:10Z,sub89
two-step-fixation,188,1018229,0.0-76.0-2.17,FALSE,TRUE,FALSE,TRUE,"""event"",""trial"",""time""
""fullscreenenter"",""5"",""23194""
","
","
","""event"",""trial"",""time""
""fullscreenenter"",""5"",""23194""
","
",NA,images/earth.jpg,NA,NA,NA,NA,NA,NA,NA,NA,NA,NA,NA,NA,NA,fixation,NA,NA,NA,NA,NA,NA,sub89
d3-animate-choice,189,1020776,0.0-76.0-0.18,FALSE,TRUE,FALSE,TRUE,"""event"",""trial"",""time""
""fullscreenenter"",""5"",""23194""
","
","
","""event"",""trial"",""time""
""fullscreenenter"",""5"",""23194""
","
",540.2049999684095,NA,48,NA,NA,3000,1,NA,NA,images/earth.jpg,images/rocket1,images/rocket2,null,images/rocket1,NA,1,real,null,2,NA,NA,NA,sub89
d3-animate-choice,190,1023238,0.0-76.0-1.18,FALSE,TRUE,FALSE,TRUE,"""event"",""trial"",""time""
""fullscreenenter"",""5"",""23194""
","
","
","""event"",""trial"",""time""
""fullscreenenter"",""5"",""23194""
","
",452.34499988146126,NA,48,NA,NA,3000,1,NA,NA,images/redplanet1.jpg,images/alien2,images/alien1,images/rocket1,images/alien2,images/nothing.png,2,real,true,2,common,0,2020-06-16T18:15:16Z,sub89
two-step-fixation,191,1024243,0.0-76.0-2.18,FALSE,TRUE,FALSE,TRUE,"""event"",""trial"",""time""
""fullscreenenter"",""5"",""23194""
","
","
","""event"",""trial"",""time""
""fullscreenenter"",""5"",""23194""
","
",NA,images/earth.jpg,NA,NA,NA,NA,NA,NA,NA,NA,NA,NA,NA,NA,NA,fixation,NA,NA,NA,NA,NA,NA,sub89
d3-animate-choice,192,1026642,0.0-76.0-0.19,FALSE,TRUE,FALSE,TRUE,"""event"",""trial"",""time""
""fullscreenenter"",""5"",""23194""
","
","
","""event"",""trial"",""time""
""fullscreenenter"",""5"",""23194""
","
",393.2450001593679,NA,48,NA,NA,3000,1,NA,NA,images/earth.jpg,images/rocket1,images/rocket2,null,images/rocket1,NA,1,real,null,2,NA,NA,NA,sub89
d3-animate-choice,193,1029109,0.0-76.0-1.19,FALSE,TRUE,FALSE,TRUE,"""event"",""trial"",""time""
""fullscreenenter"",""5"",""23194""
","
","
","""event"",""trial"",""time""
""fullscreenenter"",""5"",""23194""
","
",463.16000004298985,NA,49,NA,NA,3000,1,NA,NA,images/redplanet1.jpg,images/alien2,images/alien1,images/rocket1,images/alien1,images/t.png,2,real,true,1,common,1,2020-06-16T18:15:22Z,sub89
two-step-fixation,194,1030115,0.0-76.0-2.19,FALSE,TRUE,FALSE,TRUE,"""event"",""trial"",""time""
""fullscreenenter"",""5"",""23194""
","
","
","""event"",""trial"",""time""
""fullscreenenter"",""5"",""23194""
","
",NA,images/earth.jpg,NA,NA,NA,NA,NA,NA,NA,NA,NA,NA,NA,NA,NA,fixation,NA,NA,NA,NA,NA,NA,sub89
d3-animate-choice,195,1032533,0.0-76.0-0.20,FALSE,TRUE,FALSE,TRUE,"""event"",""trial"",""time""
""fullscreenenter"",""5"",""23194""
","
","
","""event"",""trial"",""time""
""fullscreenenter"",""5"",""23194""
","
",412.48499997891486,NA,48,NA,NA,3000,1,NA,NA,images/earth.jpg,images/rocket1,images/rocket2,null,images/rocket1,NA,1,real,null,2,NA,NA,NA,sub89
d3-animate-choice,196,1034974,0.0-76.0-1.20,FALSE,TRUE,FALSE,TRUE,"""event"",""trial"",""time""
""fullscreenenter"",""5"",""23194""
","
","
","""event"",""trial"",""time""
""fullscreenenter"",""5"",""23194""
","
",433.6899998597801,NA,49,NA,NA,3000,1,NA,NA,images/redplanet1.jpg,images/alien2,images/alien1,images/rocket1,images/alien1,images/t.png,2,real,true,1,common,1,2020-06-16T18:15:28Z,sub89
two-step-fixation,197,1035979,0.0-76.0-2.20,FALSE,TRUE,FALSE,TRUE,"""event"",""trial"",""time""
""fullscreenenter"",""5"",""23194""
","
","
","""event"",""trial"",""time""
""fullscreenenter"",""5"",""23194""
","
",NA,images/earth.jpg,NA,NA,NA,NA,NA,NA,NA,NA,NA,NA,NA,NA,NA,fixation,NA,NA,NA,NA,NA,NA,sub89
d3-animate-choice,198,1038461,0.0-76.0-0.21,FALSE,TRUE,FALSE,TRUE,"""event"",""trial"",""time""
""fullscreenenter"",""5"",""23194""
","
","
","""event"",""trial"",""time""
""fullscreenenter"",""5"",""23194""
","
",474.23000005073845,NA,48,NA,NA,3000,1,NA,NA,images/earth.jpg,images/rocket1,images/rocket2,null,images/rocket1,NA,1,real,null,2,NA,NA,NA,sub89
d3-animate-choice,199,1041565,0.0-76.0-1.21,FALSE,TRUE,FALSE,TRUE,"""event"",""trial"",""time""
""fullscreenenter"",""5"",""23194""
","
","
","""event"",""trial"",""time""
""fullscreenenter"",""5"",""23194""
","
",1095.5799999646842,NA,48,NA,NA,3000,1,2459.159999853,48,images/purpleplanet.jpg,images/alien4,images/alien3,images/rocket1,images/alien4,images/t.png,2,real,false,2,rare,1,2020-06-16T18:15:34Z,sub89
two-step-fixation,200,1042569,0.0-76.0-2.21,FALSE,TRUE,FALSE,TRUE,"""event"",""trial"",""time""
""fullscreenenter"",""5"",""23194""
","
","
","""event"",""trial"",""time""
""fullscreenenter"",""5"",""23194""
","
",NA,images/earth.jpg,NA,NA,NA,NA,NA,NA,NA,NA,NA,NA,NA,NA,NA,fixation,NA,NA,NA,NA,NA,NA,sub89
d3-animate-choice,201,1044967,0.0-76.0-0.22,FALSE,TRUE,FALSE,TRUE,"""event"",""trial"",""time""
""fullscreenenter"",""5"",""23194""
","
","
","""event"",""trial"",""time""
""fullscreenenter"",""5"",""23194""
","
",393.7849998474121,NA,48,NA,NA,3000,1,NA,NA,images/earth.jpg,images/rocket1,images/rocket2,null,images/rocket1,NA,1,real,null,2,NA,NA,NA,sub89
d3-animate-choice,202,1048637,0.0-76.0-1.22,FALSE,TRUE,FALSE,TRUE,"""event"",""trial"",""time""
""fullscreenenter"",""5"",""23194""
","
","
","""event"",""trial"",""time""
""fullscreenenter"",""5"",""23194""
","
",1662.8600000403821,NA,49,NA,NA,3000,1,NA,NA,images/purpleplanet.jpg,images/alien4,images/alien3,images/rocket1,images/alien3,images/nothing.png,2,real,false,1,rare,0,2020-06-16T18:15:41Z,sub89
two-step-fixation,203,1049643,0.0-76.0-2.22,FALSE,TRUE,FALSE,TRUE,"""event"",""trial"",""time""
""fullscreenenter"",""5"",""23194""
","
","
","""event"",""trial"",""time""
""fullscreenenter"",""5"",""23194""
","
",NA,images/earth.jpg,NA,NA,NA,NA,NA,NA,NA,NA,NA,NA,NA,NA,NA,fixation,NA,NA,NA,NA,NA,NA,sub89
d3-animate-choice,204,1052320,0.0-76.0-0.23,FALSE,TRUE,FALSE,TRUE,"""event"",""trial"",""time""
""fullscreenenter"",""5"",""23194""
","
","
","""event"",""trial"",""time""
""fullscreenenter"",""5"",""23194""
","
",670.1350000221282,NA,48,NA,NA,3000,1,NA,NA,images/earth.jpg,images/rocket1,images/rocket2,null,images/rocket1,NA,1,real,null,2,NA,NA,NA,sub89
d3-animate-choice,205,1054820,0.0-76.0-1.23,FALSE,TRUE,FALSE,TRUE,"""event"",""trial"",""time""
""fullscreenenter"",""5"",""23194""
","
","
","""event"",""trial"",""time""
""fullscreenenter"",""5"",""23194""
","
",493.34500008262694,NA,48,NA,NA,3000,1,NA,NA,images/redplanet1.jpg,images/alien2,images/alien1,images/rocket1,images/alien2,images/t.png,2,real,true,2,common,1,2020-06-16T18:15:48Z,sub89
two-step-fixation,206,1055825,0.0-76.0-2.23,FALSE,TRUE,FALSE,TRUE,"""event"",""trial"",""time""
""fullscreenenter"",""5"",""23194""
","
","
","""event"",""trial"",""time""
""fullscreenenter"",""5"",""23194""
","
",NA,images/earth.jpg,NA,NA,NA,NA,NA,NA,NA,NA,NA,NA,NA,NA,NA,fixation,NA,NA,NA,NA,NA,NA,sub89
d3-animate-choice,207,1058424,0.0-76.0-0.24,FALSE,TRUE,FALSE,TRUE,"""event"",""trial"",""time""
""fullscreenenter"",""5"",""23194""
","
","
","""event"",""trial"",""time""
""fullscreenenter"",""5"",""23194""
","
",591.9549998361617,NA,48,NA,NA,3000,1,NA,NA,images/earth.jpg,images/rocket1,images/rocket2,null,images/rocket1,NA,1,real,null,2,NA,NA,NA,sub89
d3-animate-choice,208,1061009,0.0-76.0-1.24,FALSE,TRUE,FALSE,TRUE,"""event"",""trial"",""time""
""fullscreenenter"",""5"",""23194""
","
","
","""event"",""trial"",""time""
""fullscreenenter"",""5"",""23194""
","
",578.4499999135733,NA,48,NA,NA,3000,1,NA,NA,images/purpleplanet.jpg,images/alien4,images/alien3,images/rocket1,images/alien4,images/t.png,2,real,false,2,rare,1,2020-06-16T18:15:54Z,sub89
two-step-fixation,209,1062014,0.0-76.0-2.24,FALSE,TRUE,FALSE,TRUE,"""event"",""trial"",""time""
""fullscreenenter"",""5"",""23194""
","
","
","""event"",""trial"",""time""
""fullscreenenter"",""5"",""23194""
","
",NA,images/earth.jpg,NA,NA,NA,NA,NA,NA,NA,NA,NA,NA,NA,NA,NA,fixation,NA,NA,NA,NA,NA,NA,sub89
d3-animate-choice,210,1064426,0.0-76.0-0.25,FALSE,TRUE,FALSE,TRUE,"""event"",""trial"",""time""
""fullscreenenter"",""5"",""23194""
","
","
","""event"",""trial"",""time""
""fullscreenenter"",""5"",""23194""
","
",405.34499986097217,NA,48,NA,NA,3000,1,NA,NA,images/earth.jpg,images/rocket1,images/rocket2,null,images/rocket1,NA,1,real,null,2,NA,NA,NA,sub89
d3-animate-choice,211,1066827,0.0-76.0-1.25,FALSE,TRUE,FALSE,TRUE,"""event"",""trial"",""time""
""fullscreenenter"",""5"",""23194""
","
","
","""event"",""trial"",""time""
""fullscreenenter"",""5"",""23194""
","
",394.3499999586493,NA,48,NA,NA,3000,1,NA,NA,images/purpleplanet.jpg,images/alien4,images/alien3,images/rocket1,images/alien4,images/t.png,2,real,false,2,rare,1,2020-06-16T18:16:00Z,sub89
two-step-fixation,212,1067831,0.0-76.0-2.25,FALSE,TRUE,FALSE,TRUE,"""event"",""trial"",""time""
""fullscreenenter"",""5"",""23194""
","
","
","""event"",""trial"",""time""
""fullscreenenter"",""5"",""23194""
","
",NA,images/earth.jpg,NA,NA,NA,NA,NA,NA,NA,NA,NA,NA,NA,NA,NA,fixation,NA,NA,NA,NA,NA,NA,sub89
d3-animate-choice,213,1070011,0.0-76.0-0.26,FALSE,TRUE,FALSE,TRUE,"""event"",""trial"",""time""
""fullscreenenter"",""5"",""23194""
","
","
","""event"",""trial"",""time""
""fullscreenenter"",""5"",""23194""
","
",173.96499984897673,NA,48,NA,NA,3000,1,NA,NA,images/earth.jpg,images/rocket1,images/rocket2,null,images/rocket1,NA,1,real,null,2,NA,NA,NA,sub89
d3-animate-choice,214,1072465,0.0-76.0-1.26,FALSE,TRUE,FALSE,TRUE,"""event"",""trial"",""time""
""fullscreenenter"",""5"",""23194""
","
","
","""event"",""trial"",""time""
""fullscreenenter"",""5"",""23194""
","
",446.7350000049919,NA,48,NA,NA,3000,1,NA,NA,images/redplanet1.jpg,images/alien2,images/alien1,images/rocket1,images/alien2,images/t.png,2,real,true,2,common,1,2020-06-16T18:16:05Z,sub89
two-step-fixation,215,1073472,0.0-76.0-2.26,FALSE,TRUE,FALSE,TRUE,"""event"",""trial"",""time""
""fullscreenenter"",""5"",""23194""
","
","
","""event"",""trial"",""time""
""fullscreenenter"",""5"",""23194""
","
",NA,images/earth.jpg,NA,NA,NA,NA,NA,NA,NA,NA,NA,NA,NA,NA,NA,fixation,NA,NA,NA,NA,NA,NA,sub89
d3-animate-choice,216,1076061,0.0-76.0-0.27,FALSE,TRUE,FALSE,TRUE,"""event"",""trial"",""time""
""fullscreenenter"",""5"",""23194""
","
","
","""event"",""trial"",""time""
""fullscreenenter"",""5"",""23194""
","
",581.1999998986721,NA,48,NA,NA,3000,1,820.8749999757856,48,images/earth.jpg,images/rocket1,images/rocket2,null,images/rocket1,NA,1,real,null,2,NA,NA,NA,sub89
d3-animate-choice,217,1078463,0.0-76.0-1.27,FALSE,TRUE,FALSE,TRUE,"""event"",""trial"",""time""
""fullscreenenter"",""5"",""23194""
","
","
","""event"",""trial"",""time""
""fullscreenenter"",""5"",""23194""
","
",394.21499986201525,NA,48,NA,NA,3000,1,NA,NA,images/redplanet1.jpg,images/alien2,images/alien1,images/rocket1,images/alien2,images/nothing.png,2,real,true,2,common,0,2020-06-16T18:16:11Z,sub89
two-step-fixation,218,1079470,0.0-76.0-2.27,FALSE,TRUE,FALSE,TRUE,"""event"",""trial"",""time""
""fullscreenenter"",""5"",""23194""
","
","
","""event"",""trial"",""time""
""fullscreenenter"",""5"",""23194""
","
",NA,images/earth.jpg,NA,NA,NA,NA,NA,NA,NA,NA,NA,NA,NA,NA,NA,fixation,NA,NA,NA,NA,NA,NA,sub89
d3-animate-choice,219,1081587,0.0-76.0-0.28,FALSE,TRUE,FALSE,TRUE,"""event"",""trial"",""time""
""fullscreenenter"",""5"",""23194""
","
","
","""event"",""trial"",""time""
""fullscreenenter"",""5"",""23194""
","
",110.21500010974705,NA,48,NA,NA,3000,1,NA,NA,images/earth.jpg,images/rocket1,images/rocket2,null,images/rocket1,NA,1,real,null,2,NA,NA,NA,sub89
d3-animate-choice,220,1084177,0.0-76.0-1.28,FALSE,TRUE,FALSE,TRUE,"""event"",""trial"",""time""
""fullscreenenter"",""5"",""23194""
","
","
","""event"",""trial"",""time""
""fullscreenenter"",""5"",""23194""
","
",583.2800001371652,NA,48,NA,NA,3000,1,NA,NA,images/redplanet1.jpg,images/alien2,images/alien1,images/rocket1,images/alien2,images/t.png,2,real,true,2,common,1,2020-06-16T18:16:17Z,sub89
two-step-fixation,221,1085183,0.0-76.0-2.28,FALSE,TRUE,FALSE,TRUE,"""event"",""trial"",""time""
""fullscreenenter"",""5"",""23194""
","
","
","""event"",""trial"",""time""
""fullscreenenter"",""5"",""23194""
","
",NA,images/earth.jpg,NA,NA,NA,NA,NA,NA,NA,NA,NA,NA,NA,NA,NA,fixation,NA,NA,NA,NA,NA,NA,sub89
d3-animate-choice,222,1087677,0.0-76.0-0.29,FALSE,TRUE,FALSE,TRUE,"""event"",""trial"",""time""
""fullscreenenter"",""5"",""23194""
","
","
","""event"",""trial"",""time""
""fullscreenenter"",""5"",""23194""
","
",487.5700001139194,NA,48,NA,NA,3000,1,NA,NA,images/earth.jpg,images/rocket1,images/rocket2,null,images/rocket1,NA,1,real,null,2,NA,NA,NA,sub89
d3-animate-choice,223,1090130,0.0-76.0-1.29,FALSE,TRUE,FALSE,TRUE,"""event"",""trial"",""time""
""fullscreenenter"",""5"",""23194""
","
","
","""event"",""trial"",""time""
""fullscreenenter"",""5"",""23194""
","
",445.0649998616427,NA,48,NA,NA,3000,1,NA,NA,images/redplanet1.jpg,images/alien2,images/alien1,images/rocket1,images/alien2,images/t.png,2,real,true,2,common,1,2020-06-16T18:16:23Z,sub89
two-step-fixation,224,1091135,0.0-76.0-2.29,FALSE,TRUE,FALSE,TRUE,"""event"",""trial"",""time""
""fullscreenenter"",""5"",""23194""
","
","
","""event"",""trial"",""time""
""fullscreenenter"",""5"",""23194""
","
",NA,images/earth.jpg,NA,NA,NA,NA,NA,NA,NA,NA,NA,NA,NA,NA,NA,fixation,NA,NA,NA,NA,NA,NA,sub89
d3-animate-choice,225,1093630,0.0-76.0-0.30,FALSE,TRUE,FALSE,TRUE,"""event"",""trial"",""time""
""fullscreenenter"",""5"",""23194""
","
","
","""event"",""trial"",""time""
""fullscreenenter"",""5"",""23194""
","
",488.4600001387298,NA,48,NA,NA,3000,1,NA,NA,images/earth.jpg,images/rocket1,images/rocket2,null,images/rocket1,NA,1,real,null,2,NA,NA,NA,sub89
d3-animate-choice,226,1096349,0.0-76.0-1.30,FALSE,TRUE,FALSE,TRUE,"""event"",""trial"",""time""
""fullscreenenter"",""5"",""23194""
","
","
","""event"",""trial"",""time""
""fullscreenenter"",""5"",""23194""
","
",711.6649998351932,NA,48,NA,NA,3000,1,NA,NA,images/redplanet1.jpg,images/alien2,images/alien1,images/rocket1,images/alien2,images/t.png,2,real,true,2,common,1,2020-06-16T18:16:29Z,sub89
two-step-fixation,227,1097355,0.0-76.0-2.30,FALSE,TRUE,FALSE,TRUE,"""event"",""trial"",""time""
""fullscreenenter"",""5"",""23194""
","
","
","""event"",""trial"",""time""
""fullscreenenter"",""5"",""23194""
","
",NA,images/earth.jpg,NA,NA,NA,NA,NA,NA,NA,NA,NA,NA,NA,NA,NA,fixation,NA,NA,NA,NA,NA,NA,sub89
d3-animate-choice,228,1100563,0.0-76.0-0.31,FALSE,TRUE,FALSE,TRUE,"""event"",""trial"",""time""
""fullscreenenter"",""5"",""23194""
","
","
","""event"",""trial"",""time""
""fullscreenenter"",""5"",""23194""
","
",1202.0349998492748,NA,49,NA,NA,3000,1,NA,NA,images/earth.jpg,images/rocket1,images/rocket2,null,images/rocket2,NA,1,real,null,1,NA,NA,NA,sub89
d3-animate-choice,229,1103590,0.0-76.0-1.31,FALSE,TRUE,FALSE,TRUE,"""event"",""trial"",""time""
""fullscreenenter"",""5"",""23194""
","
","
","""event"",""trial"",""time""
""fullscreenenter"",""5"",""23194""
","
",1019.3000000435859,NA,49,NA,NA,3000,1,NA,NA,images/redplanet1.jpg,images/alien2,images/alien1,images/rocket2,images/alien1,images/t.png,2,real,false,1,rare,1,2020-06-16T18:16:36Z,sub89
two-step-fixation,230,1104596,0.0-76.0-2.31,FALSE,TRUE,FALSE,TRUE,"""event"",""trial"",""time""
""fullscreenenter"",""5"",""23194""
","
","
","""event"",""trial"",""time""
""fullscreenenter"",""5"",""23194""
","
",NA,images/earth.jpg,NA,NA,NA,NA,NA,NA,NA,NA,NA,NA,NA,NA,NA,fixation,NA,NA,NA,NA,NA,NA,sub89
d3-animate-choice,231,1107164,0.0-76.0-0.32,FALSE,TRUE,FALSE,TRUE,"""event"",""trial"",""time""
""fullscreenenter"",""5"",""23194""
","
","
","""event"",""trial"",""time""
""fullscreenenter"",""5"",""23194""
","
",560.6649999972433,NA,48,NA,NA,3000,1,NA,NA,images/earth.jpg,images/rocket1,images/rocket2,null,images/rocket1,NA,1,real,null,2,NA,NA,NA,sub89
d3-animate-choice,232,1109551,0.0-76.0-1.32,FALSE,TRUE,FALSE,TRUE,"""event"",""trial"",""time""
""fullscreenenter"",""5"",""23194""
","
","
","""event"",""trial"",""time""
""fullscreenenter"",""5"",""23194""
","
",380.2400000859052,NA,48,NA,NA,3000,1,NA,NA,images/redplanet1.jpg,images/alien2,images/alien1,images/rocket1,images/alien2,images/t.png,2,real,true,2,common,1,2020-06-16T18:16:42Z,sub89
two-step-fixation,233,1110556,0.0-76.0-2.32,FALSE,TRUE,FALSE,TRUE,"""event"",""trial"",""time""
""fullscreenenter"",""5"",""23194""
","
","
","""event"",""trial"",""time""
""fullscreenenter"",""5"",""23194""
","
",NA,images/earth.jpg,NA,NA,NA,NA,NA,NA,NA,NA,NA,NA,NA,NA,NA,fixation,NA,NA,NA,NA,NA,NA,sub89
d3-animate-choice,234,1113105,0.0-76.0-0.33,FALSE,TRUE,FALSE,TRUE,"""event"",""trial"",""time""
""fullscreenenter"",""5"",""23194""
","
","
","""event"",""trial"",""time""
""fullscreenenter"",""5"",""23194""
","
",544.2150000017136,NA,48,NA,NA,3000,1,"953.8199999369681,1037.5549998134375",4848,images/earth.jpg,images/rocket1,images/rocket2,null,images/rocket1,NA,1,real,null,2,NA,NA,NA,sub89
d3-animate-choice,235,1115938,0.0-76.0-1.33,FALSE,TRUE,FALSE,TRUE,"""event"",""trial"",""time""
""fullscreenenter"",""5"",""23194""
","
","
","""event"",""trial"",""time""
""fullscreenenter"",""5"",""23194""
","
",827.1749999839813,NA,48,NA,NA,3000,1,NA,NA,images/redplanet1.jpg,images/alien2,images/alien1,images/rocket1,images/alien2,images/nothing.png,2,real,true,2,common,0,2020-06-16T18:16:49Z,sub89
two-step-fixation,236,1116945,0.0-76.0-2.33,FALSE,TRUE,FALSE,TRUE,"""event"",""trial"",""time""
""fullscreenenter"",""5"",""23194""
","
","
","""event"",""trial"",""time""
""fullscreenenter"",""5"",""23194""
","
",NA,images/earth.jpg,NA,NA,NA,NA,NA,NA,NA,NA,NA,NA,NA,NA,NA,fixation,NA,NA,NA,NA,NA,NA,sub89
d3-animate-choice,237,1119518,0.0-76.0-0.34,FALSE,TRUE,FALSE,TRUE,"""event"",""trial"",""time""
""fullscreenenter"",""5"",""23194""
","
","
","""event"",""trial"",""time""
""fullscreenenter"",""5"",""23194""
","
",563.9850001316518,NA,48,NA,NA,3000,1,NA,NA,images/earth.jpg,images/rocket1,images/rocket2,null,images/rocket1,NA,1,real,null,2,NA,NA,NA,sub89
d3-animate-choice,238,1122580,0.0-76.0-1.34,FALSE,TRUE,FALSE,TRUE,"""event"",""trial"",""time""
""fullscreenenter"",""5"",""23194""
","
","
","""event"",""trial"",""time""
""fullscreenenter"",""5"",""23194""
","
",1056.235000025481,NA,48,NA,NA,3000,1,NA,NA,images/purpleplanet.jpg,images/alien4,images/alien3,images/rocket1,images/alien4,images/nothing.png,2,real,false,2,rare,0,2020-06-16T18:16:55Z,sub89
two-step-fixation,239,1123586,0.0-76.0-2.34,FALSE,TRUE,FALSE,TRUE,"""event"",""trial"",""time""
""fullscreenenter"",""5"",""23194""
","
","
","""event"",""trial"",""time""
""fullscreenenter"",""5"",""23194""
","
",NA,images/earth.jpg,NA,NA,NA,NA,NA,NA,NA,NA,NA,NA,NA,NA,NA,fixation,NA,NA,NA,NA,NA,NA,sub89
d3-animate-choice,240,1125610,0.0-76.0-0.35,FALSE,TRUE,FALSE,TRUE,"""event"",""trial"",""time""
""fullscreenenter"",""5"",""23194""
","
","
","""event"",""trial"",""time""
""fullscreenenter"",""5"",""23194""
","
",18.54499988257885,NA,48,NA,NA,3000,1,NA,NA,images/earth.jpg,images/rocket1,images/rocket2,null,images/rocket1,NA,1,real,null,2,NA,NA,NA,sub89
d3-animate-choice,241,1129617,0.0-76.0-1.35,FALSE,TRUE,FALSE,TRUE,"""event"",""trial"",""time""
""fullscreenenter"",""5"",""23194""
","
","
","""event"",""trial"",""time""
""fullscreenenter"",""5"",""23194""
","
",683.5650000721216,NA,192,NA,NA,3000,1,"1896.2600000668317,2557.759999996051,3767.920000012964",19219249,images/redplanet1.jpg,images/alien2,images/alien1,images/rocket1,images/alien1,NA,2,real,true,NA,common,0,2020-06-16T18:17:02Z,sub89
two-step-fixation,242,1130624,0.0-76.0-2.35,FALSE,TRUE,FALSE,TRUE,"""event"",""trial"",""time""
""fullscreenenter"",""5"",""23194""
","
","
","""event"",""trial"",""time""
""fullscreenenter"",""5"",""23194""
","
",NA,images/earth.jpg,NA,NA,NA,NA,NA,NA,NA,NA,NA,NA,NA,NA,NA,fixation,NA,NA,NA,NA,NA,NA,sub89
d3-animate-choice,243,1133255,0.0-76.0-0.36,FALSE,TRUE,FALSE,TRUE,"""event"",""trial"",""time""
""fullscreenenter"",""5"",""23194""
","
","
","""event"",""trial"",""time""
""fullscreenenter"",""5"",""23194""
","
",624.8650001361966,NA,48,NA,NA,3000,1,2083.82000005804,49,images/earth.jpg,images/rocket1,images/rocket2,null,images/rocket1,NA,1,real,null,2,NA,NA,NA,sub89
d3-animate-choice,244,1135844,0.0-76.0-1.36,FALSE,TRUE,FALSE,TRUE,"""event"",""trial"",""time""
""fullscreenenter"",""5"",""23194""
","
","
","""event"",""trial"",""time""
""fullscreenenter"",""5"",""23194""
","
",580.1050001755357,NA,49,NA,NA,3000,1,NA,NA,images/purpleplanet.jpg,images/alien4,images/alien3,images/rocket1,images/alien3,images/nothing.png,2,real,false,1,rare,0,2020-06-16T18:17:09Z,sub89
two-step-fixation,245,1136849,0.0-76.0-2.36,FALSE,TRUE,FALSE,TRUE,"""event"",""trial"",""time""
""fullscreenenter"",""5"",""23194""
","
","
","""event"",""trial"",""time""
""fullscreenenter"",""5"",""23194""
","
",NA,images/earth.jpg,NA,NA,NA,NA,NA,NA,NA,NA,NA,NA,NA,NA,NA,fixation,NA,NA,NA,NA,NA,NA,sub89
d3-animate-choice,246,1139777,0.0-76.0-0.37,FALSE,TRUE,FALSE,TRUE,"""event"",""trial"",""time""
""fullscreenenter"",""5"",""23194""
","
","
","""event"",""trial"",""time""
""fullscreenenter"",""5"",""23194""
","
",921.9549999106675,NA,48,NA,NA,3000,1,NA,NA,images/earth.jpg,images/rocket1,images/rocket2,null,images/rocket1,NA,1,real,null,2,NA,NA,NA,sub89
d3-animate-choice,247,1142505,0.0-76.0-1.37,FALSE,TRUE,FALSE,TRUE,"""event"",""trial"",""time""
""fullscreenenter"",""5"",""23194""
","
","
","""event"",""trial"",""time""
""fullscreenenter"",""5"",""23194""
","
",720.90999991633,NA,48,NA,NA,3000,1,NA,NA,images/purpleplanet.jpg,images/alien4,images/alien3,images/rocket1,images/alien4,images/nothing.png,2,real,false,2,rare,0,2020-06-16T18:17:15Z,sub89
two-step-fixation,248,1143510,0.0-76.0-2.37,FALSE,TRUE,FALSE,TRUE,"""event"",""trial"",""time""
""fullscreenenter"",""5"",""23194""
","
","
","""event"",""trial"",""time""
""fullscreenenter"",""5"",""23194""
","
",NA,images/earth.jpg,NA,NA,NA,NA,NA,NA,NA,NA,NA,NA,NA,NA,NA,fixation,NA,NA,NA,NA,NA,NA,sub89
d3-animate-choice,249,1146209,0.0-76.0-0.38,FALSE,TRUE,FALSE,TRUE,"""event"",""trial"",""time""
""fullscreenenter"",""5"",""23194""
","
","
","""event"",""trial"",""time""
""fullscreenenter"",""5"",""23194""
","
",691.4749999996275,NA,49,NA,NA,3000,1,NA,NA,images/earth.jpg,images/rocket1,images/rocket2,null,images/rocket2,NA,1,real,null,1,NA,NA,NA,sub89
d3-animate-choice,250,1149250,0.0-76.0-1.38,FALSE,TRUE,FALSE,TRUE,"""event"",""trial"",""time""
""fullscreenenter"",""5"",""23194""
","
","
","""event"",""trial"",""time""
""fullscreenenter"",""5"",""23194""
","
",1033.49499986507,NA,49,NA,NA,3000,1,NA,NA,images/purpleplanet.jpg,images/alien4,images/alien3,images/rocket2,images/alien3,images/t.png,2,real,true,1,common,1,2020-06-16T18:17:22Z,sub89
two-step-fixation,251,1150258,0.0-76.0-2.38,FALSE,TRUE,FALSE,TRUE,"""event"",""trial"",""time""
""fullscreenenter"",""5"",""23194""
","
","
","""event"",""trial"",""time""
""fullscreenenter"",""5"",""23194""
","
",NA,images/earth.jpg,NA,NA,NA,NA,NA,NA,NA,NA,NA,NA,NA,NA,NA,fixation,NA,NA,NA,NA,NA,NA,sub89
d3-animate-choice,252,1152622,0.0-76.0-0.39,FALSE,TRUE,FALSE,TRUE,"""event"",""trial"",""time""
""fullscreenenter"",""5"",""23194""
","
","
","""event"",""trial"",""time""
""fullscreenenter"",""5"",""23194""
","
",356.60000005736947,NA,49,NA,NA,3000,1,NA,NA,images/earth.jpg,images/rocket1,images/rocket2,null,images/rocket2,NA,1,real,null,1,NA,NA,NA,sub89
d3-animate-choice,253,1155503,0.0-76.0-1.39,FALSE,TRUE,FALSE,TRUE,"""event"",""trial"",""time""
""fullscreenenter"",""5"",""23194""
","
","
","""event"",""trial"",""time""
""fullscreenenter"",""5"",""23194""
","
",872.8150001261383,NA,49,NA,NA,3000,1,NA,NA,images/redplanet1.jpg,images/alien2,images/alien1,images/rocket2,images/alien1,images/t.png,2,real,false,1,rare,1,2020-06-16T18:17:28Z,sub89
two-step-fixation,254,1156508,0.0-76.0-2.39,FALSE,TRUE,FALSE,TRUE,"""event"",""trial"",""time""
""fullscreenenter"",""5"",""23194""
","
","
","""event"",""trial"",""time""
""fullscreenenter"",""5"",""23194""
","
",NA,images/earth.jpg,NA,NA,NA,NA,NA,NA,NA,NA,NA,NA,NA,NA,NA,fixation,NA,NA,NA,NA,NA,NA,sub89
d3-animate-choice,255,1158929,0.0-76.0-0.40,FALSE,TRUE,FALSE,TRUE,"""event"",""trial"",""time""
""fullscreenenter"",""5"",""23194""
","
","
","""event"",""trial"",""time""
""fullscreenenter"",""5"",""23194""
","
",413.09499996714294,NA,49,NA,NA,3000,1,NA,NA,images/earth.jpg,images/rocket1,images/rocket2,null,images/rocket2,NA,1,real,null,1,NA,NA,NA,sub89
d3-animate-choice,256,1161883,0.0-76.0-1.40,FALSE,TRUE,FALSE,TRUE,"""event"",""trial"",""time""
""fullscreenenter"",""5"",""23194""
","
","
","""event"",""trial"",""time""
""fullscreenenter"",""5"",""23194""
","
",946.6750000137836,NA,49,NA,NA,3000,1,NA,NA,images/purpleplanet.jpg,images/alien4,images/alien3,images/rocket2,images/alien3,images/nothing.png,2,real,true,1,common,0,2020-06-16T18:17:35Z,sub89
two-step-fixation,257,1162889,0.0-76.0-2.40,FALSE,TRUE,FALSE,TRUE,"""event"",""trial"",""time""
""fullscreenenter"",""5"",""23194""
","
","
","""event"",""trial"",""time""
""fullscreenenter"",""5"",""23194""
","
",NA,images/earth.jpg,NA,NA,NA,NA,NA,NA,NA,NA,NA,NA,NA,NA,NA,fixation,NA,NA,NA,NA,NA,NA,sub89
d3-animate-choice,258,1165072,0.0-76.0-0.41,FALSE,TRUE,FALSE,TRUE,"""event"",""trial"",""time""
""fullscreenenter"",""5"",""23194""
","
","
","""event"",""trial"",""time""
""fullscreenenter"",""5"",""23194""
","
",177.4250001180917,NA,48,NA,NA,3000,1,NA,NA,images/earth.jpg,images/rocket1,images/rocket2,null,images/rocket1,NA,1,real,null,2,NA,NA,NA,sub89
d3-animate-choice,259,1167687,0.0-76.0-1.41,FALSE,TRUE,FALSE,TRUE,"""event"",""trial"",""time""
""fullscreenenter"",""5"",""23194""
","
","
","""event"",""trial"",""time""
""fullscreenenter"",""5"",""23194""
","
",607.3650000616908,NA,48,NA,NA,3000,1,NA,NA,images/redplanet1.jpg,images/alien2,images/alien1,images/rocket1,images/alien2,images/t.png,2,real,true,2,common,1,2020-06-16T18:17:40Z,sub89
two-step-fixation,260,1168694,0.0-76.0-2.41,FALSE,TRUE,FALSE,TRUE,"""event"",""trial"",""time""
""fullscreenenter"",""5"",""23194""
","
","
","""event"",""trial"",""time""
""fullscreenenter"",""5"",""23194""
","
",NA,images/earth.jpg,NA,NA,NA,NA,NA,NA,NA,NA,NA,NA,NA,NA,NA,fixation,NA,NA,NA,NA,NA,NA,sub89
d3-animate-choice,261,1170808,0.0-76.0-0.42,FALSE,TRUE,FALSE,TRUE,"""event"",""trial"",""time""
""fullscreenenter"",""5"",""23194""
","
","
","""event"",""trial"",""time""
""fullscreenenter"",""5"",""23194""
","
",107.3749999050051,NA,48,NA,NA,3000,1,1571.1299998220056,48,images/earth.jpg,images/rocket1,images/rocket2,null,images/rocket1,NA,1,real,null,2,NA,NA,NA,sub89
d3-animate-choice,262,1173347,0.0-76.0-1.42,FALSE,TRUE,FALSE,TRUE,"""event"",""trial"",""time""
""fullscreenenter"",""5"",""23194""
","
","
","""event"",""trial"",""time""
""fullscreenenter"",""5"",""23194""
","
",532.050000037998,NA,48,NA,NA,3000,1,877.1699999924749,48,images/redplanet1.jpg,images/alien2,images/alien1,images/rocket1,images/alien2,images/nothing.png,2,real,true,2,common,0,2020-06-16T18:17:46Z,sub89
two-step-fixation,263,1174353,0.0-76.0-2.42,FALSE,TRUE,FALSE,TRUE,"""event"",""trial"",""time""
""fullscreenenter"",""5"",""23194""
","
","
","""event"",""trial"",""time""
""fullscreenenter"",""5"",""23194""
","
",NA,images/earth.jpg,NA,NA,NA,NA,NA,NA,NA,NA,NA,NA,NA,NA,NA,fixation,NA,NA,NA,NA,NA,NA,sub89
d3-animate-choice,264,1176940,0.0-76.0-0.43,FALSE,TRUE,FALSE,TRUE,"""event"",""trial"",""time""
""fullscreenenter"",""5"",""23194""
","
","
","""event"",""trial"",""time""
""fullscreenenter"",""5"",""23194""
","
",580.870000179857,NA,48,NA,NA,3000,1,NA,NA,images/earth.jpg,images/rocket1,images/rocket2,null,images/rocket1,NA,1,real,null,2,NA,NA,NA,sub89
d3-animate-choice,265,1179351,0.0-76.0-1.43,FALSE,TRUE,FALSE,TRUE,"""event"",""trial"",""time""
""fullscreenenter"",""5"",""23194""
","
","
","""event"",""trial"",""time""
""fullscreenenter"",""5"",""23194""
","
",403.10999983921647,NA,48,NA,NA,3000,1,NA,NA,images/purpleplanet.jpg,images/alien4,images/alien3,images/rocket1,images/alien4,images/nothing.png,2,real,false,2,rare,0,2020-06-16T18:17:52Z,sub89
two-step-fixation,266,1180356,0.0-76.0-2.43,FALSE,TRUE,FALSE,TRUE,"""event"",""trial"",""time""
""fullscreenenter"",""5"",""23194""
","
","
","""event"",""trial"",""time""
""fullscreenenter"",""5"",""23194""
","
",NA,images/earth.jpg,NA,NA,NA,NA,NA,NA,NA,NA,NA,NA,NA,NA,NA,fixation,NA,NA,NA,NA,NA,NA,sub89
d3-animate-choice,267,1182438,0.0-76.0-0.44,FALSE,TRUE,FALSE,TRUE,"""event"",""trial"",""time""
""fullscreenenter"",""5"",""23194""
","
","
","""event"",""trial"",""time""
""fullscreenenter"",""5"",""23194""
","
",75.27999999001622,NA,48,NA,NA,3000,1,NA,NA,images/earth.jpg,images/rocket1,images/rocket2,null,images/rocket1,NA,1,real,null,2,NA,NA,NA,sub89
d3-animate-choice,268,1184979,0.0-76.0-1.44,FALSE,TRUE,FALSE,TRUE,"""event"",""trial"",""time""
""fullscreenenter"",""5"",""23194""
","
","
","""event"",""trial"",""time""
""fullscreenenter"",""5"",""23194""
","
",533.4599998313934,NA,48,NA,NA,3000,1,NA,NA,images/purpleplanet.jpg,images/alien4,images/alien3,images/rocket1,images/alien4,images/t.png,2,real,false,2,rare,1,2020-06-16T18:17:58Z,sub89
two-step-fixation,269,1185985,0.0-76.0-2.44,FALSE,TRUE,FALSE,TRUE,"""event"",""trial"",""time""
""fullscreenenter"",""5"",""23194""
","
","
","""event"",""trial"",""time""
""fullscreenenter"",""5"",""23194""
","
",NA,images/earth.jpg,NA,NA,NA,NA,NA,NA,NA,NA,NA,NA,NA,NA,NA,fixation,NA,NA,NA,NA,NA,NA,sub89
d3-animate-choice,270,1188729,0.0-76.0-0.45,FALSE,TRUE,FALSE,TRUE,"""event"",""trial"",""time""
""fullscreenenter"",""5"",""23194""
","
","
","""event"",""trial"",""time""
""fullscreenenter"",""5"",""23194""
","
",737.9699999000877,NA,48,NA,NA,3000,1,NA,NA,images/earth.jpg,images/rocket1,images/rocket2,null,images/rocket1,NA,1,real,null,2,NA,NA,NA,sub89
d3-animate-choice,271,1191370,0.0-76.0-1.45,FALSE,TRUE,FALSE,TRUE,"""event"",""trial"",""time""
""fullscreenenter"",""5"",""23194""
","
","
","""event"",""trial"",""time""
""fullscreenenter"",""5"",""23194""
","
",633.9649998117238,NA,48,NA,NA,3000,1,NA,NA,images/redplanet1.jpg,images/alien2,images/alien1,images/rocket1,images/alien2,images/nothing.png,2,real,true,2,common,0,2020-06-16T18:18:04Z,sub89
two-step-fixation,272,1192377,0.0-76.0-2.45,FALSE,TRUE,FALSE,TRUE,"""event"",""trial"",""time""
""fullscreenenter"",""5"",""23194""
","
","
","""event"",""trial"",""time""
""fullscreenenter"",""5"",""23194""
","
",NA,images/earth.jpg,NA,NA,NA,NA,NA,NA,NA,NA,NA,NA,NA,NA,NA,fixation,NA,NA,NA,NA,NA,NA,sub89
d3-animate-choice,273,1195396,0.0-76.0-0.46,FALSE,TRUE,FALSE,TRUE,"""event"",""trial"",""time""
""fullscreenenter"",""5"",""23194""
","
","
","""event"",""trial"",""time""
""fullscreenenter"",""5"",""23194""
","
",1012.7950001042336,NA,49,NA,NA,3000,1,NA,NA,images/earth.jpg,images/rocket1,images/rocket2,null,images/rocket2,NA,1,real,null,1,NA,NA,NA,sub89
d3-animate-choice,274,1197881,0.0-76.0-1.46,FALSE,TRUE,FALSE,TRUE,"""event"",""trial"",""time""
""fullscreenenter"",""5"",""23194""
","
","
","""event"",""trial"",""time""
""fullscreenenter"",""5"",""23194""
","
",476.9999999552965,NA,48,NA,NA,3000,1,NA,NA,images/purpleplanet.jpg,images/alien4,images/alien3,images/rocket2,images/alien4,images/nothing.png,2,real,true,2,common,0,2020-06-16T18:18:11Z,sub89
two-step-fixation,275,1198886,0.0-76.0-2.46,FALSE,TRUE,FALSE,TRUE,"""event"",""trial"",""time""
""fullscreenenter"",""5"",""23194""
","
","
","""event"",""trial"",""time""
""fullscreenenter"",""5"",""23194""
","
",NA,images/earth.jpg,NA,NA,NA,NA,NA,NA,NA,NA,NA,NA,NA,NA,NA,fixation,NA,NA,NA,NA,NA,NA,sub89
d3-animate-choice,276,1201269,0.0-76.0-0.47,FALSE,TRUE,FALSE,TRUE,"""event"",""trial"",""time""
""fullscreenenter"",""5"",""23194""
","
","
","""event"",""trial"",""time""
""fullscreenenter"",""5"",""23194""
","
",376.3999999500811,NA,49,NA,NA,3000,1,NA,NA,images/earth.jpg,images/rocket1,images/rocket2,null,images/rocket2,NA,1,real,null,1,NA,NA,NA,sub89
d3-animate-choice,277,1203318,0.0-76.0-1.47,FALSE,TRUE,FALSE,TRUE,"""event"",""trial"",""time""
""fullscreenenter"",""5"",""23194""
","
","
","""event"",""trial"",""time""
""fullscreenenter"",""5"",""23194""
","
",41.010000044479966,NA,49,NA,NA,3000,1,NA,NA,images/purpleplanet.jpg,images/alien4,images/alien3,images/rocket2,images/alien3,images/nothing.png,2,real,true,1,common,0,2020-06-16T18:18:16Z,sub89
two-step-fixation,278,1204323,0.0-76.0-2.47,FALSE,TRUE,FALSE,TRUE,"""event"",""trial"",""time""
""fullscreenenter"",""5"",""23194""
","
","
","""event"",""trial"",""time""
""fullscreenenter"",""5"",""23194""
","
",NA,images/earth.jpg,NA,NA,NA,NA,NA,NA,NA,NA,NA,NA,NA,NA,NA,fixation,NA,NA,NA,NA,NA,NA,sub89
d3-animate-choice,279,1206402,0.0-76.0-0.48,FALSE,TRUE,FALSE,TRUE,"""event"",""trial"",""time""
""fullscreenenter"",""5"",""23194""
","
","
","""event"",""trial"",""time""
""fullscreenenter"",""5"",""23194""
","
",72.17500009573996,NA,48,NA,NA,3000,1,1449.5350001379848,48,images/earth.jpg,images/rocket1,images/rocket2,null,images/rocket1,NA,1,real,null,2,NA,NA,NA,sub89
d3-animate-choice,280,1208925,0.0-76.0-1.48,FALSE,TRUE,FALSE,TRUE,"""event"",""trial"",""time""
""fullscreenenter"",""5"",""23194""
","
","
","""event"",""trial"",""time""
""fullscreenenter"",""5"",""23194""
","
",517.0549999456853,NA,48,NA,NA,3000,1,"1632.5049998704344,1974.8099998105317",4848,images/purpleplanet.jpg,images/alien4,images/alien3,images/rocket1,images/alien4,images/t.png,2,real,false,2,rare,1,2020-06-16T18:18:22Z,sub89
two-step-fixation,281,1209932,0.0-76.0-2.48,FALSE,TRUE,FALSE,TRUE,"""event"",""trial"",""time""
""fullscreenenter"",""5"",""23194""
","
","
","""event"",""trial"",""time""
""fullscreenenter"",""5"",""23194""
","
",NA,images/earth.jpg,NA,NA,NA,NA,NA,NA,NA,NA,NA,NA,NA,NA,NA,fixation,NA,NA,NA,NA,NA,NA,sub89
d3-animate-choice,282,1212584,0.0-76.0-0.49,FALSE,TRUE,FALSE,TRUE,"""event"",""trial"",""time""
""fullscreenenter"",""5"",""23194""
","
","
","""event"",""trial"",""time""
""fullscreenenter"",""5"",""23194""
","
",646.32000005804,NA,48,NA,NA,3000,1,NA,NA,images/earth.jpg,images/rocket1,images/rocket2,null,images/rocket1,NA,1,real,null,2,NA,NA,NA,sub89
d3-animate-choice,283,1215735,0.0-76.0-1.49,FALSE,TRUE,FALSE,TRUE,"""event"",""trial"",""time""
""fullscreenenter"",""5"",""23194""
","
","
