trial_type,trial_index,time_elapsed,internal_node_id,rocket_sides,red_planet_first_rocket,red_display_order,purple_display_order,interactions,blur_events,focus_events,fullscreenenter_events,fullscreenexit_events,rt,stimulus,key_press,button_pressed,success,duration,valid_pressed,rts,keys,planet_text,right_text,left_text,center_text,chosen_text,reward_text,trial_stage,practice_trial,transition_type,choice,transition,reward,timestamp,subject_id
pavlovia,0,9,0.0-0.0,FALSE,FALSE,FALSE,FALSE,"
","
","
","
","
",NA,NA,NA,NA,NA,NA,NA,NA,NA,NA,NA,NA,NA,NA,NA,NA,NA,NA,NA,NA,NA,NA,sub74
html-keyboard-response,1,1625,0.0-1.0,FALSE,FALSE,FALSE,FALSE,"
","
","
","
","
",1612.5849999953061,Welcome! Press the space bar to begin.,32,NA,NA,NA,NA,NA,NA,NA,NA,NA,NA,NA,NA,NA,NA,NA,NA,NA,NA,NA,sub74
audio-keyboard-response,2,5529,0.0-2.0,FALSE,FALSE,FALSE,FALSE,"
","
","
","
","
",3631,audio/beep_loop.wav,32,NA,NA,NA,NA,NA,NA,NA,NA,NA,NA,NA,NA,NA,NA,NA,NA,NA,NA,NA,sub74
audio-button-response,3,7467,0.0-3.0,FALSE,FALSE,FALSE,FALSE,"
","
","
","
","
",NaN,audio/fish.mp3,NA,1,NA,NA,NA,NA,NA,NA,NA,NA,NA,NA,NA,NA,NA,NA,NA,NA,NA,NA,sub74
audio-button-response,4,10837,0.0-4.0,FALSE,FALSE,FALSE,FALSE,"""event"",""trial"",""time""
""fullscreenenter"",""5"",""14628""
","
","
","""event"",""trial"",""time""
""fullscreenenter"",""5"",""14628""
","
",NaN,audio/tiger.mp3,NA,4,NA,NA,NA,NA,NA,NA,NA,NA,NA,NA,NA,NA,NA,NA,NA,NA,NA,NA,sub74
fullscreen,5,15606,0.0-5.0,FALSE,FALSE,FALSE,FALSE,"""event"",""trial"",""time""
""fullscreenenter"",""5"",""14628""
","
","
","""event"",""trial"",""time""
""fullscreenenter"",""5"",""14628""
","
",NA,NA,NA,NA,TRUE,NA,NA,NA,NA,NA,NA,NA,NA,NA,NA,NA,NA,NA,NA,NA,NA,NA,sub74
d3-instructions,6,30862,0.0-6.0,FALSE,FALSE,FALSE,FALSE,"""event"",""trial"",""time""
""fullscreenenter"",""5"",""14628""
","
","
","""event"",""trial"",""time""
""fullscreenenter"",""5"",""14628""
","
",NA,NA,NA,NA,NA,NA,NA,NA,NA,NA,NA,NA,NA,NA,NA,NA,NA,NA,NA,NA,NA,NA,sub74
d3-instructions,7,45437,0.0-7.0,FALSE,FALSE,FALSE,FALSE,"""event"",""trial"",""time""
""fullscreenenter"",""5"",""14628""
","
","
","""event"",""trial"",""time""
""fullscreenenter"",""5"",""14628""
","
",NA,NA,NA,NA,NA,NA,NA,NA,NA,NA,NA,NA,NA,NA,NA,NA,NA,NA,NA,NA,NA,NA,sub74
d3-instructions,8,53549,0.0-8.0,FALSE,FALSE,FALSE,FALSE,"""event"",""trial"",""time""
""fullscreenenter"",""5"",""14628""
","
","
","""event"",""trial"",""time""
""fullscreenenter"",""5"",""14628""
","
",NA,NA,NA,NA,NA,NA,NA,NA,NA,NA,NA,NA,NA,NA,NA,NA,NA,NA,NA,NA,NA,NA,sub74
d3-instructions,9,65519,0.0-9.0,FALSE,FALSE,FALSE,FALSE,"""event"",""trial"",""time""
""fullscreenenter"",""5"",""14628""
","
","
","""event"",""trial"",""time""
""fullscreenenter"",""5"",""14628""
","
",NA,NA,NA,NA,NA,NA,NA,NA,NA,NA,NA,NA,NA,NA,NA,NA,NA,NA,NA,NA,NA,NA,sub74
d3-instructions,10,85944,0.0-10.0,FALSE,FALSE,FALSE,FALSE,"""event"",""trial"",""time""
""fullscreenenter"",""5"",""14628""
","
","
","""event"",""trial"",""time""
""fullscreenenter"",""5"",""14628""
","
",NA,NA,NA,NA,NA,NA,NA,NA,NA,NA,NA,NA,NA,NA,NA,NA,NA,NA,NA,NA,NA,NA,sub74
d3-animate-choice,11,89083,0.0-11.0,FALSE,FALSE,FALSE,FALSE,"""event"",""trial"",""time""
""fullscreenenter"",""5"",""14628""
","
","
","""event"",""trial"",""time""
""fullscreenenter"",""5"",""14628""
","
",1115.2900000015507,NA,49,NA,NA,3000,1,2533.950000011828,48,images/tutgreenplanet.jpg,images/tutalien1,images/tutalien2,null,images/tutalien2,NA,NA,practice,null,NA,NA,NA,NA,sub74
d3-animate-choice,12,92183,0.0-12.0,FALSE,FALSE,FALSE,FALSE,"""event"",""trial"",""time""
""fullscreenenter"",""5"",""14628""
","
","
","""event"",""trial"",""time""
""fullscreenenter"",""5"",""14628""
","
",1083.6049999925308,NA,48,NA,NA,3000,1,NA,NA,images/tutgreenplanet.jpg,images/tutalien1,images/tutalien2,null,images/tutalien1,NA,NA,practice,null,NA,NA,NA,NA,sub74
d3-animate-choice,13,98202,0.0-13.0,FALSE,FALSE,FALSE,FALSE,"""event"",""trial"",""time""
""fullscreenenter"",""5"",""14628""
","
","
","""event"",""trial"",""time""
""fullscreenenter"",""5"",""14628""
","
",3998.5149999993155,NA,49,NA,NA,3000,1,NA,NA,images/tutgreenplanet.jpg,images/tutalien1,images/tutalien2,null,images/tutalien2,NA,NA,practice,null,NA,NA,NA,NA,sub74
d3-animate-choice,14,101663,0.0-14.0,FALSE,FALSE,FALSE,FALSE,"""event"",""trial"",""time""
""fullscreenenter"",""5"",""14628""
","
","
","""event"",""trial"",""time""
""fullscreenenter"",""5"",""14628""
","
",1433.3699999988312,NA,48,NA,NA,3000,1,NA,NA,images/tutgreenplanet.jpg,images/tutalien1,images/tutalien2,null,images/tutalien1,NA,NA,practice,null,NA,NA,NA,NA,sub74
d3-instructions,15,109330,0.0-15.0,FALSE,FALSE,FALSE,FALSE,"""event"",""trial"",""time""
""fullscreenenter"",""5"",""14628""
","
","
","""event"",""trial"",""time""
""fullscreenenter"",""5"",""14628""
","
",NA,NA,NA,NA,NA,NA,NA,NA,NA,NA,NA,NA,NA,NA,NA,NA,NA,NA,NA,NA,NA,NA,sub74
d3-instructions,16,117085,0.0-16.0,FALSE,FALSE,FALSE,FALSE,"""event"",""trial"",""time""
""fullscreenenter"",""5"",""14628""
","
","
","""event"",""trial"",""time""
""fullscreenenter"",""5"",""14628""
","
",NA,NA,NA,NA,NA,NA,NA,NA,NA,NA,NA,NA,NA,NA,NA,NA,NA,NA,NA,NA,NA,NA,sub74
d3-instructions,17,125989,0.0-17.0,FALSE,FALSE,FALSE,FALSE,"""event"",""trial"",""time""
""fullscreenenter"",""5"",""14628""
","
","
","""event"",""trial"",""time""
""fullscreenenter"",""5"",""14628""
","
",NA,NA,NA,NA,NA,NA,NA,NA,NA,NA,NA,NA,NA,NA,NA,NA,NA,NA,NA,NA,NA,NA,sub74
d3-instructions,18,141821,0.0-18.0,FALSE,FALSE,FALSE,FALSE,"""event"",""trial"",""time""
""fullscreenenter"",""5"",""14628""
","
","
","""event"",""trial"",""time""
""fullscreenenter"",""5"",""14628""
","
",NA,NA,NA,NA,NA,NA,NA,NA,NA,NA,NA,NA,NA,NA,NA,NA,NA,NA,NA,NA,NA,NA,sub74
d3-instructions,19,156100,0.0-19.0,FALSE,FALSE,FALSE,FALSE,"""event"",""trial"",""time""
""fullscreenenter"",""5"",""14628""
","
","
","""event"",""trial"",""time""
""fullscreenenter"",""5"",""14628""
","
",NA,NA,NA,NA,NA,NA,NA,NA,NA,NA,NA,NA,NA,NA,NA,NA,NA,NA,NA,NA,NA,NA,sub74
d3-animate-choice,20,159183,0.0-20.0,FALSE,FALSE,FALSE,FALSE,"""event"",""trial"",""time""
""fullscreenenter"",""5"",""14628""
","
","
","""event"",""trial"",""time""
""fullscreenenter"",""5"",""14628""
","
",1062.3749999940628,NA,49,NA,NA,3000,1,NA,NA,images/tutyellowplanet.jpg,null,images/tutalien3,null,images/tutalien3,images/t.png,NA,practice,null,NA,NA,NA,NA,sub74
d3-animate-choice,21,162233,0.0-21.0,FALSE,FALSE,FALSE,FALSE,"""event"",""trial"",""time""
""fullscreenenter"",""5"",""14628""
","
","
","""event"",""trial"",""time""
""fullscreenenter"",""5"",""14628""
","
",1033.225000006496,NA,49,NA,NA,3000,1,NA,NA,images/tutyellowplanet.jpg,null,images/tutalien3,null,images/tutalien3,images/t.png,NA,practice,null,NA,NA,NA,NA,sub74
d3-animate-choice,22,164963,0.0-22.0,FALSE,FALSE,FALSE,FALSE,"""event"",""trial"",""time""
""fullscreenenter"",""5"",""14628""
","
","
","""event"",""trial"",""time""
""fullscreenenter"",""5"",""14628""
","
",711.5850000118371,NA,49,NA,NA,3000,1,NA,NA,images/tutyellowplanet.jpg,null,images/tutalien3,null,images/tutalien3,images/t.png,NA,practice,null,NA,NA,NA,NA,sub74
d3-animate-choice,23,167623,0.0-23.0,FALSE,FALSE,FALSE,FALSE,"""event"",""trial"",""time""
""fullscreenenter"",""5"",""14628""
","
","
","""event"",""trial"",""time""
""fullscreenenter"",""5"",""14628""
","
",645.650000005844,NA,49,NA,NA,3000,1,NA,NA,images/tutyellowplanet.jpg,null,images/tutalien3,null,images/tutalien3,images/nothing.png,NA,practice,null,NA,NA,NA,NA,sub74
d3-animate-choice,24,170123,0.0-24.0,FALSE,FALSE,FALSE,FALSE,"""event"",""trial"",""time""
""fullscreenenter"",""5"",""14628""
","
","
","""event"",""trial"",""time""
""fullscreenenter"",""5"",""14628""
","
",491.75000000104774,NA,49,NA,NA,3000,1,NA,NA,images/tutyellowplanet.jpg,null,images/tutalien3,null,images/tutalien3,images/t.png,NA,practice,null,NA,NA,NA,NA,sub74
d3-animate-choice,25,173003,0.0-25.0,FALSE,FALSE,FALSE,FALSE,"""event"",""trial"",""time""
""fullscreenenter"",""5"",""14628""
","
","
","""event"",""trial"",""time""
""fullscreenenter"",""5"",""14628""
","
",868.7499999941792,NA,49,NA,NA,3000,1,NA,NA,images/tutyellowplanet.jpg,null,images/tutalien3,null,images/tutalien3,images/t.png,NA,practice,null,NA,NA,NA,NA,sub74
d3-animate-choice,26,176013,0.0-26.0,FALSE,FALSE,FALSE,FALSE,"""event"",""trial"",""time""
""fullscreenenter"",""5"",""14628""
","
","
","""event"",""trial"",""time""
""fullscreenenter"",""5"",""14628""
","
",996.6249999997672,NA,49,NA,NA,3000,1,NA,NA,images/tutyellowplanet.jpg,null,images/tutalien3,null,images/tutalien3,images/t.png,NA,practice,null,NA,NA,NA,NA,sub74
d3-animate-choice,27,178774,0.0-27.0,FALSE,FALSE,FALSE,FALSE,"""event"",""trial"",""time""
""fullscreenenter"",""5"",""14628""
","
","
","""event"",""trial"",""time""
""fullscreenenter"",""5"",""14628""
","
",735.065000000759,NA,49,NA,NA,3000,1,NA,NA,images/tutyellowplanet.jpg,null,images/tutalien3,null,images/tutalien3,images/t.png,NA,practice,null,NA,NA,NA,NA,sub74
d3-animate-choice,28,181182,0.0-28.0,FALSE,FALSE,FALSE,FALSE,"""event"",""trial"",""time""
""fullscreenenter"",""5"",""14628""
","
","
","""event"",""trial"",""time""
""fullscreenenter"",""5"",""14628""
","
",397.8950000018813,NA,49,NA,NA,3000,1,NA,NA,images/tutyellowplanet.jpg,null,images/tutalien3,null,images/tutalien3,images/t.png,NA,practice,null,NA,NA,NA,NA,sub74
d3-animate-choice,29,183663,0.0-29.0,FALSE,FALSE,FALSE,FALSE,"""event"",""trial"",""time""
""fullscreenenter"",""5"",""14628""
","
","
","""event"",""trial"",""time""
""fullscreenenter"",""5"",""14628""
","
",464.72000000358094,NA,49,NA,NA,3000,1,NA,NA,images/tutyellowplanet.jpg,null,images/tutalien3,null,images/tutalien3,images/nothing.png,NA,practice,null,NA,NA,NA,NA,sub74
d3-instructions,30,190901,0.0-30.0,FALSE,FALSE,FALSE,FALSE,"""event"",""trial"",""time""
""fullscreenenter"",""5"",""14628""
","
","
","""event"",""trial"",""time""
""fullscreenenter"",""5"",""14628""
","
",NA,NA,NA,NA,NA,NA,NA,NA,NA,NA,NA,NA,NA,NA,NA,NA,NA,NA,NA,NA,NA,NA,sub74
d3-instructions,31,201945,0.0-31.0,FALSE,FALSE,FALSE,FALSE,"""event"",""trial"",""time""
""fullscreenenter"",""5"",""14628""
","
","
","""event"",""trial"",""time""
""fullscreenenter"",""5"",""14628""
","
",NA,NA,NA,NA,NA,NA,NA,NA,NA,NA,NA,NA,NA,NA,NA,NA,NA,NA,NA,NA,NA,NA,sub74
d3-instructions,32,211046,0.0-32.0,FALSE,FALSE,FALSE,FALSE,"""event"",""trial"",""time""
""fullscreenenter"",""5"",""14628""
","
","
","""event"",""trial"",""time""
""fullscreenenter"",""5"",""14628""
","
",NA,NA,NA,NA,NA,NA,NA,NA,NA,NA,NA,NA,NA,NA,NA,NA,NA,NA,NA,NA,NA,NA,sub74
d3-instructions,33,222136,0.0-33.0,FALSE,FALSE,FALSE,FALSE,"""event"",""trial"",""time""
""fullscreenenter"",""5"",""14628""
","
","
","""event"",""trial"",""time""
""fullscreenenter"",""5"",""14628""
","
",NA,NA,NA,NA,NA,NA,NA,NA,NA,NA,NA,NA,NA,NA,NA,NA,NA,NA,NA,NA,NA,NA,sub74
d3-animate-choice,34,225953,0.0-34.0,FALSE,FALSE,FALSE,FALSE,"""event"",""trial"",""time""
""fullscreenenter"",""5"",""14628""
","
","
","""event"",""trial"",""time""
""fullscreenenter"",""5"",""14628""
","
",1795.5950000032317,NA,49,NA,NA,3000,1,NA,NA,images/tutgreenplanet.jpg,images/tutalien1,images/tutalien2,null,images/tutalien2,images/t.png,NA,practice,null,NA,NA,NA,NA,sub74
d3-animate-choice,35,228903,0.0-35.0,FALSE,FALSE,FALSE,FALSE,"""event"",""trial"",""time""
""fullscreenenter"",""5"",""14628""
","
","
","""event"",""trial"",""time""
""fullscreenenter"",""5"",""14628""
","
",933.6500000063097,NA,49,NA,NA,3000,1,NA,NA,images/tutgreenplanet.jpg,images/tutalien1,images/tutalien2,null,images/tutalien2,images/t.png,NA,practice,null,NA,NA,NA,NA,sub74
d3-animate-choice,36,231381,0.0-36.0,FALSE,FALSE,FALSE,FALSE,"""event"",""trial"",""time""
""fullscreenenter"",""5"",""14628""
","
","
","""event"",""trial"",""time""
""fullscreenenter"",""5"",""14628""
","
",469.57499999552965,NA,49,NA,NA,3000,1,NA,NA,images/tutgreenplanet.jpg,images/tutalien1,images/tutalien2,null,images/tutalien2,images/t.png,NA,practice,null,NA,NA,NA,NA,sub74
d3-animate-choice,37,233804,0.0-37.0,FALSE,FALSE,FALSE,FALSE,"""event"",""trial"",""time""
""fullscreenenter"",""5"",""14628""
","
","
","""event"",""trial"",""time""
""fullscreenenter"",""5"",""14628""
","
",404.0299999905983,NA,49,NA,NA,3000,1,NA,NA,images/tutgreenplanet.jpg,images/tutalien1,images/tutalien2,null,images/tutalien2,images/nothing.png,NA,practice,null,NA,NA,NA,NA,sub74
d3-animate-choice,38,236543,0.0-38.0,FALSE,FALSE,FALSE,FALSE,"""event"",""trial"",""time""
""fullscreenenter"",""5"",""14628""
","
","
","""event"",""trial"",""time""
""fullscreenenter"",""5"",""14628""
","
",719.1000000020722,NA,49,NA,NA,3000,1,NA,NA,images/tutgreenplanet.jpg,images/tutalien1,images/tutalien2,null,images/tutalien2,images/nothing.png,NA,practice,null,NA,NA,NA,NA,sub74
d3-animate-choice,39,239042,0.0-39.0,FALSE,FALSE,FALSE,FALSE,"""event"",""trial"",""time""
""fullscreenenter"",""5"",""14628""
","
","
","""event"",""trial"",""time""
""fullscreenenter"",""5"",""14628""
","
",476.5849999967031,NA,49,NA,NA,3000,1,NA,NA,images/tutgreenplanet.jpg,images/tutalien1,images/tutalien2,null,images/tutalien2,images/t.png,NA,practice,null,NA,NA,NA,NA,sub74
d3-animate-choice,40,241783,0.0-40.0,FALSE,FALSE,FALSE,FALSE,"""event"",""trial"",""time""
""fullscreenenter"",""5"",""14628""
","
","
","""event"",""trial"",""time""
""fullscreenenter"",""5"",""14628""
","
",717.0350000087637,NA,49,NA,NA,3000,1,NA,NA,images/tutgreenplanet.jpg,images/tutalien1,images/tutalien2,null,images/tutalien2,images/t.png,NA,practice,null,NA,NA,NA,NA,sub74
d3-animate-choice,41,244952,0.0-41.0,FALSE,FALSE,FALSE,FALSE,"""event"",""trial"",""time""
""fullscreenenter"",""5"",""14628""
","
","
","""event"",""trial"",""time""
""fullscreenenter"",""5"",""14628""
","
",1152.3100000049453,NA,49,NA,NA,3000,1,NA,NA,images/tutgreenplanet.jpg,images/tutalien1,images/tutalien2,null,images/tutalien2,images/t.png,NA,practice,null,NA,NA,NA,NA,sub74
d3-animate-choice,42,247853,0.0-42.0,FALSE,FALSE,FALSE,FALSE,"""event"",""trial"",""time""
""fullscreenenter"",""5"",""14628""
","
","
","""event"",""trial"",""time""
""fullscreenenter"",""5"",""14628""
","
",882.1449999959441,NA,49,NA,NA,3000,1,NA,NA,images/tutgreenplanet.jpg,images/tutalien1,images/tutalien2,null,images/tutalien2,images/t.png,NA,practice,null,NA,NA,NA,NA,sub74
d3-animate-choice,43,250571,0.0-43.0,FALSE,FALSE,FALSE,FALSE,"""event"",""trial"",""time""
""fullscreenenter"",""5"",""14628""
","
","
","""event"",""trial"",""time""
""fullscreenenter"",""5"",""14628""
","
",696.2950000015553,NA,49,NA,NA,3000,1,NA,NA,images/tutgreenplanet.jpg,images/tutalien1,images/tutalien2,null,images/tutalien2,images/nothing.png,NA,practice,null,NA,NA,NA,NA,sub74
d3-instructions,44,263922,0.0-44.0,FALSE,FALSE,FALSE,FALSE,"""event"",""trial"",""time""
""fullscreenenter"",""5"",""14628""
","
","
","""event"",""trial"",""time""
""fullscreenenter"",""5"",""14628""
","
",NA,NA,NA,NA,NA,NA,NA,NA,NA,NA,NA,NA,NA,NA,NA,NA,NA,NA,NA,NA,NA,NA,sub74
d3-instructions,45,271004,0.0-45.0,FALSE,FALSE,FALSE,FALSE,"""event"",""trial"",""time""
""fullscreenenter"",""5"",""14628""
","
","
","""event"",""trial"",""time""
""fullscreenenter"",""5"",""14628""
","
",NA,NA,NA,NA,NA,NA,NA,NA,NA,NA,NA,NA,NA,NA,NA,NA,NA,NA,NA,NA,NA,NA,sub74
d3-instructions,46,277650,0.0-46.0,FALSE,FALSE,FALSE,FALSE,"""event"",""trial"",""time""
""fullscreenenter"",""5"",""14628""
","
","
","""event"",""trial"",""time""
""fullscreenenter"",""5"",""14628""
","
",NA,NA,NA,NA,NA,NA,NA,NA,NA,NA,NA,NA,NA,NA,NA,NA,NA,NA,NA,NA,NA,NA,sub74
d3-instructions,47,294754,0.0-47.0,FALSE,FALSE,FALSE,FALSE,"""event"",""trial"",""time""
""fullscreenenter"",""5"",""14628""
","
","
","""event"",""trial"",""time""
""fullscreenenter"",""5"",""14628""
","
",NA,NA,NA,NA,NA,NA,NA,NA,NA,NA,NA,NA,NA,NA,NA,NA,NA,NA,NA,NA,NA,NA,sub74
d3-instructions,48,301936,0.0-48.0,FALSE,FALSE,FALSE,FALSE,"""event"",""trial"",""time""
""fullscreenenter"",""5"",""14628""
","
","
","""event"",""trial"",""time""
""fullscreenenter"",""5"",""14628""
","
",NA,NA,NA,NA,NA,NA,NA,NA,NA,NA,NA,NA,NA,NA,NA,NA,NA,NA,NA,NA,NA,NA,sub74
d3-instructions,49,313037,0.0-49.0,FALSE,FALSE,FALSE,FALSE,"""event"",""trial"",""time""
""fullscreenenter"",""5"",""14628""
","
","
","""event"",""trial"",""time""
""fullscreenenter"",""5"",""14628""
","
",NA,NA,NA,NA,NA,NA,NA,NA,NA,NA,NA,NA,NA,NA,NA,NA,NA,NA,NA,NA,NA,NA,sub74
d3-instructions,50,322377,0.0-50.0,FALSE,FALSE,FALSE,FALSE,"""event"",""trial"",""time""
""fullscreenenter"",""5"",""14628""
","
","
","""event"",""trial"",""time""
""fullscreenenter"",""5"",""14628""
","
",NA,NA,NA,NA,NA,NA,NA,NA,NA,NA,NA,NA,NA,NA,NA,NA,NA,NA,NA,NA,NA,NA,sub74
d3-instructions,51,325764,0.0-51.0,FALSE,FALSE,FALSE,FALSE,"""event"",""trial"",""time""
""fullscreenenter"",""5"",""14628""
","
","
","""event"",""trial"",""time""
""fullscreenenter"",""5"",""14628""
","
",NA,NA,NA,NA,NA,NA,NA,NA,NA,NA,NA,NA,NA,NA,NA,NA,NA,NA,NA,NA,NA,NA,sub74
d3-instructions,52,329515,0.0-52.0,FALSE,FALSE,FALSE,FALSE,"""event"",""trial"",""time""
""fullscreenenter"",""5"",""14628""
","
","
","""event"",""trial"",""time""
""fullscreenenter"",""5"",""14628""
","
",NA,NA,NA,NA,NA,NA,NA,NA,NA,NA,NA,NA,NA,NA,NA,NA,NA,NA,NA,NA,NA,NA,sub74
d3-instructions,53,341780,0.0-53.0,FALSE,FALSE,FALSE,FALSE,"""event"",""trial"",""time""
""fullscreenenter"",""5"",""14628""
","
","
","""event"",""trial"",""time""
""fullscreenenter"",""5"",""14628""
","
",NA,NA,NA,NA,NA,NA,NA,NA,NA,NA,NA,NA,NA,NA,NA,NA,NA,NA,NA,NA,NA,NA,sub74
d3-instructions,54,354495,0.0-54.0,FALSE,FALSE,FALSE,FALSE,"""event"",""trial"",""time""
""fullscreenenter"",""5"",""14628""
","
","
","""event"",""trial"",""time""
""fullscreenenter"",""5"",""14628""
","
",NA,NA,NA,NA,NA,NA,NA,NA,NA,NA,NA,NA,NA,NA,NA,NA,NA,NA,NA,NA,NA,NA,sub74
d3-instructions,55,364810,0.0-55.0,FALSE,FALSE,FALSE,FALSE,"""event"",""trial"",""time""
""fullscreenenter"",""5"",""14628""
","
","
","""event"",""trial"",""time""
""fullscreenenter"",""5"",""14628""
","
",NA,NA,NA,NA,NA,NA,NA,NA,NA,NA,NA,NA,NA,NA,NA,NA,NA,NA,NA,NA,NA,NA,sub74
d3-instructions,56,373766,0.0-56.0,FALSE,FALSE,FALSE,FALSE,"""event"",""trial"",""time""
""fullscreenenter"",""5"",""14628""
","
","
","""event"",""trial"",""time""
""fullscreenenter"",""5"",""14628""
","
",NA,NA,NA,NA,NA,NA,NA,NA,NA,NA,NA,NA,NA,NA,NA,NA,NA,NA,NA,NA,NA,NA,sub74
d3-instructions,57,384164,0.0-57.0,FALSE,FALSE,FALSE,FALSE,"""event"",""trial"",""time""
""fullscreenenter"",""5"",""14628""
","
","
","""event"",""trial"",""time""
""fullscreenenter"",""5"",""14628""
","
",NA,NA,NA,NA,NA,NA,NA,NA,NA,NA,NA,NA,NA,NA,NA,NA,NA,NA,NA,NA,NA,NA,sub74
d3-instructions,58,395190,0.0-58.0,FALSE,FALSE,FALSE,FALSE,"""event"",""trial"",""time""
""fullscreenenter"",""5"",""14628""
","
","
","""event"",""trial"",""time""
""fullscreenenter"",""5"",""14628""
","
",NA,NA,NA,NA,NA,NA,NA,NA,NA,NA,NA,NA,NA,NA,NA,NA,NA,NA,NA,NA,NA,NA,sub74
d3-instructions,59,400498,0.0-59.0,FALSE,FALSE,FALSE,FALSE,"""event"",""trial"",""time""
""fullscreenenter"",""5"",""14628""
","
","
","""event"",""trial"",""time""
""fullscreenenter"",""5"",""14628""
","
",NA,NA,NA,NA,NA,NA,NA,NA,NA,NA,NA,NA,NA,NA,NA,NA,NA,NA,NA,NA,NA,NA,sub74
d3-instructions,60,407791,0.0-60.0,FALSE,FALSE,FALSE,FALSE,"""event"",""trial"",""time""
""fullscreenenter"",""5"",""14628""
","
","
","""event"",""trial"",""time""
""fullscreenenter"",""5"",""14628""
","
",NA,NA,NA,NA,NA,NA,NA,NA,NA,NA,NA,NA,NA,NA,NA,NA,NA,NA,NA,NA,NA,NA,sub74
d3-animate-choice,61,410961,0.0-61.0-0.0,FALSE,FALSE,FALSE,FALSE,"""event"",""trial"",""time""
""fullscreenenter"",""5"",""14628""
","
","
","""event"",""trial"",""time""
""fullscreenenter"",""5"",""14628""
","
",1158.770000009099,NA,49,NA,NA,3000,1,NA,NA,images/earth.jpg,images/tutrocket2,images/tutrocket1,null,images/tutrocket1,NA,1,practice,null,1,NA,NA,NA,sub74
d3-animate-choice,62,414972,0.0-61.0-1.0,FALSE,FALSE,FALSE,FALSE,"""event"",""trial"",""time""
""fullscreenenter"",""5"",""14628""
","
","
","""event"",""trial"",""time""
""fullscreenenter"",""5"",""14628""
","
",2516.2750000017695,NA,48,NA,NA,3000,1,NA,NA,images/tutyellowplanet.jpg,images/tutalien4,images/tutalien3,images/tutrocket1,images/tutalien4,images/t.png,2,practice,true,2,common,1,2020-06-16T20:58:32Z,sub74
two-step-fixation,63,415984,0.0-61.0-2.0,FALSE,FALSE,FALSE,FALSE,"""event"",""trial"",""time""
""fullscreenenter"",""5"",""14628""
","
","
","""event"",""trial"",""time""
""fullscreenenter"",""5"",""14628""
","
",NA,images/earth.jpg,NA,NA,NA,NA,NA,NA,NA,NA,NA,NA,NA,NA,NA,fixation,NA,NA,NA,NA,NA,NA,sub74
d3-animate-choice,64,419192,0.0-61.0-0.1,FALSE,FALSE,FALSE,FALSE,"""event"",""trial"",""time""
""fullscreenenter"",""5"",""14628""
","
","
","""event"",""trial"",""time""
""fullscreenenter"",""5"",""14628""
","
",1190.2700000064215,NA,49,NA,NA,3000,1,NA,NA,images/earth.jpg,images/tutrocket2,images/tutrocket1,null,images/tutrocket1,NA,1,practice,null,1,NA,NA,NA,sub74
d3-animate-choice,65,423091,0.0-61.0-1.1,FALSE,FALSE,FALSE,FALSE,"""event"",""trial"",""time""
""fullscreenenter"",""5"",""14628""
","
","
","""event"",""trial"",""time""
""fullscreenenter"",""5"",""14628""
","
",1886.8450000009034,NA,49,NA,NA,3000,1,2006.760000003851,49,images/tutgreenplanet.jpg,images/tutalien2,images/tutalien1,images/tutrocket1,images/tutalien1,images/nothing.png,2,practice,false,1,rare,0,2020-06-16T20:58:41Z,sub74
two-step-fixation,66,424102,0.0-61.0-2.1,FALSE,FALSE,FALSE,FALSE,"""event"",""trial"",""time""
""fullscreenenter"",""5"",""14628""
","
","
","""event"",""trial"",""time""
""fullscreenenter"",""5"",""14628""
","
",NA,images/earth.jpg,NA,NA,NA,NA,NA,NA,NA,NA,NA,NA,NA,NA,NA,fixation,NA,NA,NA,NA,NA,NA,sub74
d3-animate-choice,67,426561,0.0-61.0-0.2,FALSE,FALSE,FALSE,FALSE,"""event"",""trial"",""time""
""fullscreenenter"",""5"",""14628""
","
","
","""event"",""trial"",""time""
""fullscreenenter"",""5"",""14628""
","
",453.11499999661464,NA,49,NA,NA,3000,1,NA,NA,images/earth.jpg,images/tutrocket2,images/tutrocket1,null,images/tutrocket1,NA,1,practice,null,1,NA,NA,NA,sub74
d3-animate-choice,68,429911,0.0-61.0-1.2,FALSE,FALSE,FALSE,FALSE,"""event"",""trial"",""time""
""fullscreenenter"",""5"",""14628""
","
","
","""event"",""trial"",""time""
""fullscreenenter"",""5"",""14628""
","
",1338.4800000058021,NA,48,NA,NA,3000,1,NA,NA,images/tutgreenplanet.jpg,images/tutalien2,images/tutalien1,images/tutrocket1,images/tutalien2,images/nothing.png,2,practice,false,2,rare,0,2020-06-16T20:58:47Z,sub74
two-step-fixation,69,430918,0.0-61.0-2.2,FALSE,FALSE,FALSE,FALSE,"""event"",""trial"",""time""
""fullscreenenter"",""5"",""14628""
","
","
","""event"",""trial"",""time""
""fullscreenenter"",""5"",""14628""
","
",NA,images/earth.jpg,NA,NA,NA,NA,NA,NA,NA,NA,NA,NA,NA,NA,NA,fixation,NA,NA,NA,NA,NA,NA,sub74
d3-animate-choice,70,433372,0.0-61.0-0.3,FALSE,FALSE,FALSE,FALSE,"""event"",""trial"",""time""
""fullscreenenter"",""5"",""14628""
","
","
","""event"",""trial"",""time""
""fullscreenenter"",""5"",""14628""
","
",438.3299999899464,NA,49,NA,NA,3000,1,NA,NA,images/earth.jpg,images/tutrocket2,images/tutrocket1,null,images/tutrocket1,NA,1,practice,null,1,NA,NA,NA,sub74
d3-animate-choice,71,436285,0.0-61.0-1.3,FALSE,FALSE,FALSE,FALSE,"""event"",""trial"",""time""
""fullscreenenter"",""5"",""14628""
","
","
","""event"",""trial"",""time""
""fullscreenenter"",""5"",""14628""
","
",906.2850000045728,NA,49,NA,NA,3000,1,NA,NA,images/tutgreenplanet.jpg,images/tutalien2,images/tutalien1,images/tutrocket1,images/tutalien1,images/nothing.png,2,practice,false,1,rare,0,2020-06-16T20:58:54Z,sub74
two-step-fixation,72,437292,0.0-61.0-2.3,FALSE,FALSE,FALSE,FALSE,"""event"",""trial"",""time""
""fullscreenenter"",""5"",""14628""
","
","
","""event"",""trial"",""time""
""fullscreenenter"",""5"",""14628""
","
",NA,images/earth.jpg,NA,NA,NA,NA,NA,NA,NA,NA,NA,NA,NA,NA,NA,fixation,NA,NA,NA,NA,NA,NA,sub74
d3-animate-choice,73,439684,0.0-61.0-0.4,FALSE,FALSE,FALSE,FALSE,"""event"",""trial"",""time""
""fullscreenenter"",""5"",""14628""
","
","
","""event"",""trial"",""time""
""fullscreenenter"",""5"",""14628""
","
",376.9049999973504,NA,48,NA,NA,3000,1,NA,NA,images/earth.jpg,images/tutrocket2,images/tutrocket1,null,images/tutrocket2,NA,1,practice,null,2,NA,NA,NA,sub74
d3-animate-choice,74,442233,0.0-61.0-1.4,FALSE,FALSE,FALSE,FALSE,"""event"",""trial"",""time""
""fullscreenenter"",""5"",""14628""
","
","
","""event"",""trial"",""time""
""fullscreenenter"",""5"",""14628""
","
",538.5399999941001,NA,48,NA,NA,3000,1,NA,NA,images/tutyellowplanet.jpg,images/tutalien4,images/tutalien3,images/tutrocket2,images/tutalien4,images/t.png,2,practice,false,2,rare,1,2020-06-16T20:59:00Z,sub74
two-step-fixation,75,443243,0.0-61.0-2.4,FALSE,FALSE,FALSE,FALSE,"""event"",""trial"",""time""
""fullscreenenter"",""5"",""14628""
","
","
","""event"",""trial"",""time""
""fullscreenenter"",""5"",""14628""
","
",NA,images/earth.jpg,NA,NA,NA,NA,NA,NA,NA,NA,NA,NA,NA,NA,NA,fixation,NA,NA,NA,NA,NA,NA,sub74
d3-animate-choice,76,445644,0.0-61.0-0.5,FALSE,FALSE,FALSE,FALSE,"""event"",""trial"",""time""
""fullscreenenter"",""5"",""14628""
","
","
","""event"",""trial"",""time""
""fullscreenenter"",""5"",""14628""
","
",387.17499999620486,NA,48,NA,NA,3000,1,NA,NA,images/earth.jpg,images/tutrocket2,images/tutrocket1,null,images/tutrocket2,NA,1,practice,null,2,NA,NA,NA,sub74
d3-animate-choice,77,448481,0.0-61.0-1.5,FALSE,FALSE,FALSE,FALSE,"""event"",""trial"",""time""
""fullscreenenter"",""5"",""14628""
","
","
","""event"",""trial"",""time""
""fullscreenenter"",""5"",""14628""
","
",822.6250000006985,NA,49,NA,NA,3000,1,NA,NA,images/tutgreenplanet.jpg,images/tutalien2,images/tutalien1,images/tutrocket2,images/tutalien1,images/nothing.png,2,practice,true,1,common,0,2020-06-16T20:59:06Z,sub74
two-step-fixation,78,449489,0.0-61.0-2.5,FALSE,FALSE,FALSE,FALSE,"""event"",""trial"",""time""
""fullscreenenter"",""5"",""14628""
","
","
","""event"",""trial"",""time""
""fullscreenenter"",""5"",""14628""
","
",NA,images/earth.jpg,NA,NA,NA,NA,NA,NA,NA,NA,NA,NA,NA,NA,NA,fixation,NA,NA,NA,NA,NA,NA,sub74
d3-animate-choice,79,451875,0.0-61.0-0.6,FALSE,FALSE,FALSE,FALSE,"""event"",""trial"",""time""
""fullscreenenter"",""5"",""14628""
","
","
","""event"",""trial"",""time""
""fullscreenenter"",""5"",""14628""
","
",376.89499999396503,NA,48,NA,NA,3000,1,NA,NA,images/earth.jpg,images/tutrocket2,images/tutrocket1,null,images/tutrocket2,NA,1,practice,null,2,NA,NA,NA,sub74
d3-animate-choice,80,454800,0.0-61.0-1.6,FALSE,FALSE,FALSE,FALSE,"""event"",""trial"",""time""
""fullscreenenter"",""5"",""14628""
","
","
","""event"",""trial"",""time""
""fullscreenenter"",""5"",""14628""
","
",913.1599999964237,NA,48,NA,NA,3000,1,NA,NA,images/tutgreenplanet.jpg,images/tutalien2,images/tutalien1,images/tutrocket2,images/tutalien2,images/nothing.png,2,practice,true,2,common,0,2020-06-16T20:59:12Z,sub74
two-step-fixation,81,455813,0.0-61.0-2.6,FALSE,FALSE,FALSE,FALSE,"""event"",""trial"",""time""
""fullscreenenter"",""5"",""14628""
","
","
","""event"",""trial"",""time""
""fullscreenenter"",""5"",""14628""
","
",NA,images/earth.jpg,NA,NA,NA,NA,NA,NA,NA,NA,NA,NA,NA,NA,NA,fixation,NA,NA,NA,NA,NA,NA,sub74
d3-animate-choice,82,458145,0.0-61.0-0.7,FALSE,FALSE,FALSE,FALSE,"""event"",""trial"",""time""
""fullscreenenter"",""5"",""14628""
","
","
","""event"",""trial"",""time""
""fullscreenenter"",""5"",""14628""
","
",322.199999995064,NA,48,NA,NA,3000,1,NA,NA,images/earth.jpg,images/tutrocket2,images/tutrocket1,null,images/tutrocket2,NA,1,practice,null,2,NA,NA,NA,sub74
d3-animate-choice,83,461482,0.0-61.0-1.7,FALSE,FALSE,FALSE,FALSE,"""event"",""trial"",""time""
""fullscreenenter"",""5"",""14628""
","
","
","""event"",""trial"",""time""
""fullscreenenter"",""5"",""14628""
","
",1326.3850000075763,NA,49,NA,NA,3000,1,NA,NA,images/tutgreenplanet.jpg,images/tutalien2,images/tutalien1,images/tutrocket2,images/tutalien1,images/nothing.png,2,practice,true,1,common,0,2020-06-16T20:59:19Z,sub74
two-step-fixation,84,462491,0.0-61.0-2.7,FALSE,FALSE,FALSE,FALSE,"""event"",""trial"",""time""
""fullscreenenter"",""5"",""14628""
","
","
","""event"",""trial"",""time""
""fullscreenenter"",""5"",""14628""
","
",NA,images/earth.jpg,NA,NA,NA,NA,NA,NA,NA,NA,NA,NA,NA,NA,NA,fixation,NA,NA,NA,NA,NA,NA,sub74
d3-animate-choice,85,464843,0.0-61.0-0.8,FALSE,FALSE,FALSE,FALSE,"""event"",""trial"",""time""
""fullscreenenter"",""5"",""14628""
","
","
","""event"",""trial"",""time""
""fullscreenenter"",""5"",""14628""
","
",343.35499998996966,NA,48,NA,NA,3000,1,NA,NA,images/earth.jpg,images/tutrocket2,images/tutrocket1,null,images/tutrocket2,NA,1,practice,null,2,NA,NA,NA,sub74
d3-animate-choice,86,467756,0.0-61.0-1.8,FALSE,FALSE,FALSE,FALSE,"""event"",""trial"",""time""
""fullscreenenter"",""5"",""14628""
","
","
","""event"",""trial"",""time""
""fullscreenenter"",""5"",""14628""
","
",900.3799999918556,NA,48,NA,NA,3000,1,NA,NA,images/tutyellowplanet.jpg,images/tutalien4,images/tutalien3,images/tutrocket2,images/tutalien4,images/t.png,2,practice,false,2,rare,1,2020-06-16T20:59:25Z,sub74
two-step-fixation,87,468764,0.0-61.0-2.8,FALSE,FALSE,FALSE,FALSE,"""event"",""trial"",""time""
""fullscreenenter"",""5"",""14628""
","
","
","""event"",""trial"",""time""
""fullscreenenter"",""5"",""14628""
","
",NA,images/earth.jpg,NA,NA,NA,NA,NA,NA,NA,NA,NA,NA,NA,NA,NA,fixation,NA,NA,NA,NA,NA,NA,sub74
d3-animate-choice,88,471146,0.0-61.0-0.9,FALSE,FALSE,FALSE,FALSE,"""event"",""trial"",""time""
""fullscreenenter"",""5"",""14628""
","
","
","""event"",""trial"",""time""
""fullscreenenter"",""5"",""14628""
","
",368.1650000071386,NA,48,NA,NA,3000,1,NA,NA,images/earth.jpg,images/tutrocket2,images/tutrocket1,null,images/tutrocket2,NA,1,practice,null,2,NA,NA,NA,sub74
d3-animate-choice,89,474487,0.0-61.0-1.9,FALSE,FALSE,FALSE,FALSE,"""event"",""trial"",""time""
""fullscreenenter"",""5"",""14628""
","
","
","""event"",""trial"",""time""
""fullscreenenter"",""5"",""14628""
","
",1330.919999993057,NA,49,NA,NA,3000,1,NA,NA,images/tutgreenplanet.jpg,images/tutalien2,images/tutalien1,images/tutrocket2,images/tutalien1,images/t.png,2,practice,true,1,common,1,2020-06-16T20:59:32Z,sub74
two-step-fixation,90,475499,0.0-61.0-2.9,FALSE,FALSE,FALSE,FALSE,"""event"",""trial"",""time""
""fullscreenenter"",""5"",""14628""
","
","
","""event"",""trial"",""time""
""fullscreenenter"",""5"",""14628""
","
",NA,images/earth.jpg,NA,NA,NA,NA,NA,NA,NA,NA,NA,NA,NA,NA,NA,fixation,NA,NA,NA,NA,NA,NA,sub74
d3-animate-choice,91,477850,0.0-61.0-0.10,FALSE,FALSE,FALSE,FALSE,"""event"",""trial"",""time""
""fullscreenenter"",""5"",""14628""
","
","
","""event"",""trial"",""time""
""fullscreenenter"",""5"",""14628""
","
",339.3849999993108,NA,48,NA,NA,3000,1,NA,NA,images/earth.jpg,images/tutrocket2,images/tutrocket1,null,images/tutrocket2,NA,1,practice,null,2,NA,NA,NA,sub74
d3-animate-choice,92,480592,0.0-61.0-1.10,FALSE,FALSE,FALSE,FALSE,"""event"",""trial"",""time""
""fullscreenenter"",""5"",""14628""
","
","
","""event"",""trial"",""time""
""fullscreenenter"",""5"",""14628""
","
",727.2349999984726,NA,48,NA,NA,3000,1,NA,NA,images/tutyellowplanet.jpg,images/tutalien4,images/tutalien3,images/tutrocket2,images/tutalien4,images/t.png,2,practice,false,2,rare,1,2020-06-16T20:59:38Z,sub74
two-step-fixation,93,481608,0.0-61.0-2.10,FALSE,FALSE,FALSE,FALSE,"""event"",""trial"",""time""
""fullscreenenter"",""5"",""14628""
","
","
","""event"",""trial"",""time""
""fullscreenenter"",""5"",""14628""
","
",NA,images/earth.jpg,NA,NA,NA,NA,NA,NA,NA,NA,NA,NA,NA,NA,NA,fixation,NA,NA,NA,NA,NA,NA,sub74
d3-animate-choice,94,484032,0.0-61.0-0.11,FALSE,FALSE,FALSE,FALSE,"""event"",""trial"",""time""
""fullscreenenter"",""5"",""14628""
","
","
","""event"",""trial"",""time""
""fullscreenenter"",""5"",""14628""
","
",408.5049999994226,NA,48,NA,NA,3000,1,NA,NA,images/earth.jpg,images/tutrocket2,images/tutrocket1,null,images/tutrocket2,NA,1,practice,null,2,NA,NA,NA,sub74
d3-animate-choice,95,487572,0.0-61.0-1.11,FALSE,FALSE,FALSE,FALSE,"""event"",""trial"",""time""
""fullscreenenter"",""5"",""14628""
","
","
","""event"",""trial"",""time""
""fullscreenenter"",""5"",""14628""
","
",1523.7800000031712,NA,49,NA,NA,3000,1,NA,NA,images/tutgreenplanet.jpg,images/tutalien2,images/tutalien1,images/tutrocket2,images/tutalien1,images/nothing.png,2,practice,true,1,common,0,2020-06-16T20:59:45Z,sub74
two-step-fixation,96,488579,0.0-61.0-2.11,FALSE,FALSE,FALSE,FALSE,"""event"",""trial"",""time""
""fullscreenenter"",""5"",""14628""
","
","
","""event"",""trial"",""time""
""fullscreenenter"",""5"",""14628""
","
",NA,images/earth.jpg,NA,NA,NA,NA,NA,NA,NA,NA,NA,NA,NA,NA,NA,fixation,NA,NA,NA,NA,NA,NA,sub74
d3-animate-choice,97,490958,0.0-61.0-0.12,FALSE,FALSE,FALSE,FALSE,"""event"",""trial"",""time""
""fullscreenenter"",""5"",""14628""
","
","
","""event"",""trial"",""time""
""fullscreenenter"",""5"",""14628""
","
",368.43499999667984,NA,48,NA,NA,3000,1,NA,NA,images/earth.jpg,images/tutrocket2,images/tutrocket1,null,images/tutrocket2,NA,1,practice,null,2,NA,NA,NA,sub74
d3-animate-choice,98,494149,0.0-61.0-1.12,FALSE,FALSE,FALSE,FALSE,"""event"",""trial"",""time""
""fullscreenenter"",""5"",""14628""
","
","
","""event"",""trial"",""time""
""fullscreenenter"",""5"",""14628""
","
",1181.6649999964284,NA,48,NA,NA,3000,1,NA,NA,images/tutgreenplanet.jpg,images/tutalien2,images/tutalien1,images/tutrocket2,images/tutalien2,images/nothing.png,2,practice,true,2,common,0,2020-06-16T20:59:52Z,sub74
two-step-fixation,99,495164,0.0-61.0-2.12,FALSE,FALSE,FALSE,FALSE,"""event"",""trial"",""time""
""fullscreenenter"",""5"",""14628""
","
","
","""event"",""trial"",""time""
""fullscreenenter"",""5"",""14628""
","
",NA,images/earth.jpg,NA,NA,NA,NA,NA,NA,NA,NA,NA,NA,NA,NA,NA,fixation,NA,NA,NA,NA,NA,NA,sub74
d3-animate-choice,100,497479,0.0-61.0-0.13,FALSE,FALSE,FALSE,FALSE,"""event"",""trial"",""time""
""fullscreenenter"",""5"",""14628""
","
","
","""event"",""trial"",""time""
""fullscreenenter"",""5"",""14628""
","
",303.8399999932153,NA,48,NA,NA,3000,1,NA,NA,images/earth.jpg,images/tutrocket2,images/tutrocket1,null,images/tutrocket2,NA,1,practice,null,2,NA,NA,NA,sub74
d3-animate-choice,101,500254,0.0-61.0-1.13,FALSE,FALSE,FALSE,FALSE,"""event"",""trial"",""time""
""fullscreenenter"",""5"",""14628""
","
","
","""event"",""trial"",""time""
""fullscreenenter"",""5"",""14628""
","
",764.6499999973457,NA,49,NA,NA,3000,1,NA,NA,images/tutyellowplanet.jpg,images/tutalien4,images/tutalien3,images/tutrocket2,images/tutalien3,images/t.png,2,practice,false,1,rare,1,2020-06-16T20:59:58Z,sub74
two-step-fixation,102,501264,0.0-61.0-2.13,FALSE,FALSE,FALSE,FALSE,"""event"",""trial"",""time""
""fullscreenenter"",""5"",""14628""
","
","
","""event"",""trial"",""time""
""fullscreenenter"",""5"",""14628""
","
",NA,images/earth.jpg,NA,NA,NA,NA,NA,NA,NA,NA,NA,NA,NA,NA,NA,fixation,NA,NA,NA,NA,NA,NA,sub74
d3-animate-choice,103,503620,0.0-61.0-0.14,FALSE,FALSE,FALSE,FALSE,"""event"",""trial"",""time""
""fullscreenenter"",""5"",""14628""
","
","
","""event"",""trial"",""time""
""fullscreenenter"",""5"",""14628""
","
",347.2099999926286,NA,48,NA,NA,3000,1,NA,NA,images/earth.jpg,images/tutrocket2,images/tutrocket1,null,images/tutrocket2,NA,1,practice,null,2,NA,NA,NA,sub74
d3-animate-choice,104,506700,0.0-61.0-1.14,FALSE,FALSE,FALSE,FALSE,"""event"",""trial"",""time""
""fullscreenenter"",""5"",""14628""
","
","
","""event"",""trial"",""time""
""fullscreenenter"",""5"",""14628""
","
",1066.4699999906588,NA,48,NA,NA,3000,1,NA,NA,images/tutgreenplanet.jpg,images/tutalien2,images/tutalien1,images/tutrocket2,images/tutalien2,images/nothing.png,2,practice,true,2,common,0,2020-06-16T21:00:04Z,sub74
two-step-fixation,105,507707,0.0-61.0-2.14,FALSE,FALSE,FALSE,FALSE,"""event"",""trial"",""time""
""fullscreenenter"",""5"",""14628""
","
","
","""event"",""trial"",""time""
""fullscreenenter"",""5"",""14628""
","
",NA,images/earth.jpg,NA,NA,NA,NA,NA,NA,NA,NA,NA,NA,NA,NA,NA,fixation,NA,NA,NA,NA,NA,NA,sub74
d3-animate-choice,106,510105,0.0-61.0-0.15,FALSE,FALSE,FALSE,FALSE,"""event"",""trial"",""time""
""fullscreenenter"",""5"",""14628""
","
","
","""event"",""trial"",""time""
""fullscreenenter"",""5"",""14628""
","
",383.89500000630505,NA,48,NA,NA,3000,1,NA,NA,images/earth.jpg,images/tutrocket2,images/tutrocket1,null,images/tutrocket2,NA,1,practice,null,2,NA,NA,NA,sub74
d3-animate-choice,107,513053,0.0-61.0-1.15,FALSE,FALSE,FALSE,FALSE,"""event"",""trial"",""time""
""fullscreenenter"",""5"",""14628""
","
","
","""event"",""trial"",""time""
""fullscreenenter"",""5"",""14628""
","
",938.3300000044983,NA,48,NA,NA,3000,1,NA,NA,images/tutyellowplanet.jpg,images/tutalien4,images/tutalien3,images/tutrocket2,images/tutalien4,images/t.png,2,practice,false,2,rare,1,2020-06-16T21:00:11Z,sub74
two-step-fixation,108,514064,0.0-61.0-2.15,FALSE,FALSE,FALSE,FALSE,"""event"",""trial"",""time""
""fullscreenenter"",""5"",""14628""
","
","
","""event"",""trial"",""time""
""fullscreenenter"",""5"",""14628""
","
",NA,images/earth.jpg,NA,NA,NA,NA,NA,NA,NA,NA,NA,NA,NA,NA,NA,fixation,NA,NA,NA,NA,NA,NA,sub74
d3-animate-choice,109,516423,0.0-61.0-0.16,FALSE,FALSE,FALSE,FALSE,"""event"",""trial"",""time""
""fullscreenenter"",""5"",""14628""
","
","
","""event"",""trial"",""time""
""fullscreenenter"",""5"",""14628""
","
",349.13000000233296,NA,48,NA,NA,3000,1,NA,NA,images/earth.jpg,images/tutrocket2,images/tutrocket1,null,images/tutrocket2,NA,1,practice,null,2,NA,NA,NA,sub74
d3-animate-choice,110,519769,0.0-61.0-1.16,FALSE,FALSE,FALSE,FALSE,"""event"",""trial"",""time""
""fullscreenenter"",""5"",""14628""
","
","
","""event"",""trial"",""time""
""fullscreenenter"",""5"",""14628""
","
",1331.0250000067754,NA,49,NA,NA,3000,1,NA,NA,images/tutgreenplanet.jpg,images/tutalien2,images/tutalien1,images/tutrocket2,images/tutalien1,images/t.png,2,practice,true,1,common,1,2020-06-16T21:00:17Z,sub74
two-step-fixation,111,520781,0.0-61.0-2.16,FALSE,FALSE,FALSE,FALSE,"""event"",""trial"",""time""
""fullscreenenter"",""5"",""14628""
","
","
","""event"",""trial"",""time""
""fullscreenenter"",""5"",""14628""
","
",NA,images/earth.jpg,NA,NA,NA,NA,NA,NA,NA,NA,NA,NA,NA,NA,NA,fixation,NA,NA,NA,NA,NA,NA,sub74
d3-animate-choice,112,523224,0.0-61.0-0.17,FALSE,FALSE,FALSE,FALSE,"""event"",""trial"",""time""
""fullscreenenter"",""5"",""14628""
","
","
","""event"",""trial"",""time""
""fullscreenenter"",""5"",""14628""
","
",431.1650000017835,NA,48,NA,NA,3000,1,NA,NA,images/earth.jpg,images/tutrocket2,images/tutrocket1,null,images/tutrocket2,NA,1,practice,null,2,NA,NA,NA,sub74
d3-animate-choice,113,526486,0.0-61.0-1.17,FALSE,FALSE,FALSE,FALSE,"""event"",""trial"",""time""
""fullscreenenter"",""5"",""14628""
","
","
","""event"",""trial"",""time""
""fullscreenenter"",""5"",""14628""
","
",1248.9199999981793,NA,49,NA,NA,3000,1,NA,NA,images/tutgreenplanet.jpg,images/tutalien2,images/tutalien1,images/tutrocket2,images/tutalien1,images/t.png,2,practice,true,1,common,1,2020-06-16T21:00:24Z,sub74
two-step-fixation,114,527497,0.0-61.0-2.17,FALSE,FALSE,FALSE,FALSE,"""event"",""trial"",""time""
""fullscreenenter"",""5"",""14628""
","
","
","""event"",""trial"",""time""
""fullscreenenter"",""5"",""14628""
","
",NA,images/earth.jpg,NA,NA,NA,NA,NA,NA,NA,NA,NA,NA,NA,NA,NA,fixation,NA,NA,NA,NA,NA,NA,sub74
d3-animate-choice,115,529885,0.0-61.0-0.18,FALSE,FALSE,FALSE,FALSE,"""event"",""trial"",""time""
""fullscreenenter"",""5"",""14628""
","
","
","""event"",""trial"",""time""
""fullscreenenter"",""5"",""14628""
","
",378.6699999909615,NA,48,NA,NA,3000,1,NA,NA,images/earth.jpg,images/tutrocket2,images/tutrocket1,null,images/tutrocket2,NA,1,practice,null,2,NA,NA,NA,sub74
d3-animate-choice,116,533431,0.0-61.0-1.18,FALSE,FALSE,FALSE,FALSE,"""event"",""trial"",""time""
""fullscreenenter"",""5"",""14628""
","
","
","""event"",""trial"",""time""
""fullscreenenter"",""5"",""14628""
","
",1530.8599999989383,NA,49,NA,NA,3000,1,NA,NA,images/tutgreenplanet.jpg,images/tutalien2,images/tutalien1,images/tutrocket2,images/tutalien1,images/nothing.png,2,practice,true,1,common,0,2020-06-16T21:00:31Z,sub74
two-step-fixation,117,534444,0.0-61.0-2.18,FALSE,FALSE,FALSE,FALSE,"""event"",""trial"",""time""
""fullscreenenter"",""5"",""14628""
","
","
","""event"",""trial"",""time""
""fullscreenenter"",""5"",""14628""
","
",NA,images/earth.jpg,NA,NA,NA,NA,NA,NA,NA,NA,NA,NA,NA,NA,NA,fixation,NA,NA,NA,NA,NA,NA,sub74
d3-animate-choice,118,536843,0.0-61.0-0.19,FALSE,FALSE,FALSE,FALSE,"""event"",""trial"",""time""
""fullscreenenter"",""5"",""14628""
","
","
","""event"",""trial"",""time""
""fullscreenenter"",""5"",""14628""
","
",383.96999999531545,NA,48,NA,NA,3000,1,NA,NA,images/earth.jpg,images/tutrocket2,images/tutrocket1,null,images/tutrocket2,NA,1,practice,null,2,NA,NA,NA,sub74
d3-animate-choice,119,540462,0.0-61.0-1.19,FALSE,FALSE,FALSE,FALSE,"""event"",""trial"",""time""
""fullscreenenter"",""5"",""14628""
","
","
","""event"",""trial"",""time""
""fullscreenenter"",""5"",""14628""
","
",1604.1350000014063,NA,49,NA,NA,3000,1,NA,NA,images/tutgreenplanet.jpg,images/tutalien2,images/tutalien1,images/tutrocket2,images/tutalien1,images/nothing.png,2,practice,true,1,common,0,2020-06-16T21:00:38Z,sub74
two-step-fixation,120,541478,0.0-61.0-2.19,FALSE,FALSE,FALSE,FALSE,"""event"",""trial"",""time""
""fullscreenenter"",""5"",""14628""
","
","
","""event"",""trial"",""time""
""fullscreenenter"",""5"",""14628""
","
",NA,images/earth.jpg,NA,NA,NA,NA,NA,NA,NA,NA,NA,NA,NA,NA,NA,fixation,NA,NA,NA,NA,NA,NA,sub74
d3-instructions,121,549113,0.0-62.0,FALSE,FALSE,FALSE,FALSE,"""event"",""trial"",""time""
""fullscreenenter"",""5"",""14628""
","
","
","""event"",""trial"",""time""
""fullscreenenter"",""5"",""14628""
","
",NA,NA,NA,NA,NA,NA,NA,NA,NA,NA,NA,NA,NA,NA,NA,NA,NA,NA,NA,NA,NA,NA,sub74
audio-keyboard-response,122,554454,0.0-63.0,FALSE,FALSE,FALSE,FALSE,"""event"",""trial"",""time""
""fullscreenenter"",""5"",""14628""
","
","
","""event"",""trial"",""time""
""fullscreenenter"",""5"",""14628""
","
",5349,audio/instructions/treasure_feedback.wav,32,NA,NA,NA,NA,NA,NA,NA,NA,NA,NA,NA,NA,NA,NA,NA,NA,NA,NA,NA,sub74
d3-instructions,123,574050,0.0-64.0,FALSE,FALSE,FALSE,FALSE,"""event"",""trial"",""time""
""fullscreenenter"",""5"",""14628""
","
","
","""event"",""trial"",""time""
""fullscreenenter"",""5"",""14628""
","
",NA,NA,NA,NA,NA,NA,NA,NA,NA,NA,NA,NA,NA,NA,NA,NA,NA,NA,NA,NA,NA,NA,sub74
d3-instructions,124,588520,0.0-65.0,FALSE,FALSE,FALSE,FALSE,"""event"",""trial"",""time""
""fullscreenenter"",""5"",""14628""
","
","
","""event"",""trial"",""time""
""fullscreenenter"",""5"",""14628""
","
",NA,NA,NA,NA,NA,NA,NA,NA,NA,NA,NA,NA,NA,NA,NA,NA,NA,NA,NA,NA,NA,NA,sub74
d3-instructions,125,615436,0.0-66.0,FALSE,FALSE,FALSE,FALSE,"""event"",""trial"",""time""
""fullscreenenter"",""5"",""14628""
","
","
","""event"",""trial"",""time""
""fullscreenenter"",""5"",""14628""
","
",NA,NA,NA,NA,NA,NA,NA,NA,NA,NA,NA,NA,NA,NA,NA,NA,NA,NA,NA,NA,NA,NA,sub74
d3-instructions,126,631386,0.0-67.0,FALSE,FALSE,FALSE,FALSE,"""event"",""trial"",""time""
""fullscreenenter"",""5"",""14628""
","
","
","""event"",""trial"",""time""
""fullscreenenter"",""5"",""14628""
","
",NA,NA,NA,NA,NA,NA,NA,NA,NA,NA,NA,NA,NA,NA,NA,NA,NA,NA,NA,NA,NA,NA,sub74
d3-instructions,127,640787,0.0-68.0,FALSE,FALSE,FALSE,FALSE,"""event"",""trial"",""time""
""fullscreenenter"",""5"",""14628""
","
","
","""event"",""trial"",""time""
""fullscreenenter"",""5"",""14628""
","
",NA,NA,NA,NA,NA,NA,NA,NA,NA,NA,NA,NA,NA,NA,NA,NA,NA,NA,NA,NA,NA,NA,sub74
instructions-quiz,128,645707,0.0-69.0,FALSE,FALSE,FALSE,FALSE,"""event"",""trial"",""time""
""fullscreenenter"",""5"",""14628""
","
","
","""event"",""trial"",""time""
""fullscreenenter"",""5"",""14628""
","
",4916.859999997541,audio/quiz/Q1_Prompt.wav,NA,1,NA,NA,NA,NA,NA,NA,NA,NA,NA,NA,NA,NA,NA,NA,NA,NA,NA,NA,sub74
audio-keyboard-response,129,654876,0.0-70.0,FALSE,FALSE,FALSE,FALSE,"""event"",""trial"",""time""
""fullscreenenter"",""5"",""14628""
","
","
","""event"",""trial"",""time""
""fullscreenenter"",""5"",""14628""
","
",null,audio/quiz/Q1_Correct.wav,null,NA,NA,NA,NA,NA,NA,NA,NA,NA,NA,NA,NA,NA,NA,NA,NA,NA,NA,NA,sub74
instructions-quiz,130,659433,0.0-71.0,FALSE,FALSE,FALSE,FALSE,"""event"",""trial"",""time""
""fullscreenenter"",""5"",""14628""
","
","
","""event"",""trial"",""time""
""fullscreenenter"",""5"",""14628""
","
",4555.5050000111805,audio/quiz/Q2_Prompt.wav,NA,0,NA,NA,NA,NA,NA,NA,NA,NA,NA,NA,NA,NA,NA,NA,NA,NA,NA,NA,sub74
audio-keyboard-response,131,672304,0.0-72.0,FALSE,FALSE,FALSE,FALSE,"""event"",""trial"",""time""
""fullscreenenter"",""5"",""14628""
","
","
","""event"",""trial"",""time""
""fullscreenenter"",""5"",""14628""
","
",null,audio/quiz/Q2_Correct.wav,null,NA,NA,NA,NA,NA,NA,NA,NA,NA,NA,NA,NA,NA,NA,NA,NA,NA,NA,NA,sub74
instructions-quiz,132,674567,0.0-73.0,FALSE,FALSE,FALSE,FALSE,"""event"",""trial"",""time""
""fullscreenenter"",""5"",""14628""
","
","
","""event"",""trial"",""time""
""fullscreenenter"",""5"",""14628""
","
",2261.6849999903934,audio/quiz/Q3_Prompt.wav,NA,1,NA,NA,NA,NA,NA,NA,NA,NA,NA,NA,NA,NA,NA,NA,NA,NA,NA,NA,sub74
audio-keyboard-response,133,680353,0.0-74.0,FALSE,FALSE,FALSE,FALSE,"""event"",""trial"",""time""
""fullscreenenter"",""5"",""14628""
","
","
","""event"",""trial"",""time""
""fullscreenenter"",""5"",""14628""
","
",null,audio/quiz/Q3_Correct.wav,null,NA,NA,NA,NA,NA,NA,NA,NA,NA,NA,NA,NA,NA,NA,NA,NA,NA,NA,NA,sub74
d3-instructions,134,694888,0.0-75.0,FALSE,FALSE,FALSE,FALSE,"""event"",""trial"",""time""
""fullscreenenter"",""5"",""14628""
","
","
","""event"",""trial"",""time""
""fullscreenenter"",""5"",""14628""
","
",NA,NA,NA,NA,NA,NA,NA,NA,NA,NA,NA,NA,NA,NA,NA,NA,NA,NA,NA,NA,NA,NA,sub74
d3-animate-choice,135,697574,0.0-76.0-0.0,FALSE,FALSE,FALSE,FALSE,"""event"",""trial"",""time""
""fullscreenenter"",""5"",""14628""
","
","
","""event"",""trial"",""time""
""fullscreenenter"",""5"",""14628""
","
",664.8499999864725,NA,49,NA,NA,3000,1,NA,NA,images/earth.jpg,images/rocket1,images/rocket2,null,images/rocket2,NA,1,real,null,1,NA,NA,NA,sub74
d3-animate-choice,136,700623,0.0-76.0-1.0,FALSE,FALSE,FALSE,FALSE,"""event"",""trial"",""time""
""fullscreenenter"",""5"",""14628""
","
","
","""event"",""trial"",""time""
""fullscreenenter"",""5"",""14628""
","
",1039.9350000079721,NA,49,NA,NA,3000,1,NA,NA,images/redplanet1.jpg,images/alien2,images/alien1,images/rocket2,images/alien1,images/nothing.png,2,real,true,1,common,0,2020-06-16T21:03:18Z,sub74
two-step-fixation,137,701642,0.0-76.0-2.0,FALSE,FALSE,FALSE,FALSE,"""event"",""trial"",""time""
""fullscreenenter"",""5"",""14628""
","
","
","""event"",""trial"",""time""
""fullscreenenter"",""5"",""14628""
","
",NA,images/earth.jpg,NA,NA,NA,NA,NA,NA,NA,NA,NA,NA,NA,NA,NA,fixation,NA,NA,NA,NA,NA,NA,sub74
d3-animate-choice,138,704002,0.0-76.0-0.1,FALSE,FALSE,FALSE,FALSE,"""event"",""trial"",""time""
""fullscreenenter"",""5"",""14628""
","
","
","""event"",""trial"",""time""
""fullscreenenter"",""5"",""14628""
","
",346.47999999288004,NA,49,NA,NA,3000,1,NA,NA,images/earth.jpg,images/rocket1,images/rocket2,null,images/rocket2,NA,1,real,null,1,NA,NA,NA,sub74
d3-animate-choice,139,706784,0.0-76.0-1.1,FALSE,FALSE,FALSE,FALSE,"""event"",""trial"",""time""
""fullscreenenter"",""5"",""14628""
","
","
","""event"",""trial"",""time""
""fullscreenenter"",""5"",""14628""
","
",762.9500000039116,NA,48,NA,NA,3000,1,NA,NA,images/redplanet1.jpg,images/alien2,images/alien1,images/rocket2,images/alien2,images/t.png,2,real,true,2,common,1,2020-06-16T21:03:24Z,sub74
two-step-fixation,140,707804,0.0-76.0-2.1,FALSE,FALSE,FALSE,FALSE,"""event"",""trial"",""time""
""fullscreenenter"",""5"",""14628""
","
","
","""event"",""trial"",""time""
""fullscreenenter"",""5"",""14628""
","
",NA,images/earth.jpg,NA,NA,NA,NA,NA,NA,NA,NA,NA,NA,NA,NA,NA,fixation,NA,NA,NA,NA,NA,NA,sub74
d3-animate-choice,141,710350,0.0-76.0-0.2,FALSE,FALSE,FALSE,FALSE,"""event"",""trial"",""time""
""fullscreenenter"",""5"",""14628""
","
","
","""event"",""trial"",""time""
""fullscreenenter"",""5"",""14628""
","
",535.8050000068033,NA,49,NA,NA,3000,1,NA,NA,images/earth.jpg,images/rocket1,images/rocket2,null,images/rocket2,NA,1,real,null,1,NA,NA,NA,sub74
d3-animate-choice,142,713022,0.0-76.0-1.2,FALSE,FALSE,FALSE,FALSE,"""event"",""trial"",""time""
""fullscreenenter"",""5"",""14628""
","
","
","""event"",""trial"",""time""
""fullscreenenter"",""5"",""14628""
","
",662.2100000095088,NA,48,NA,NA,3000,1,NA,NA,images/redplanet1.jpg,images/alien2,images/alien1,images/rocket2,images/alien2,images/nothing.png,2,real,true,2,common,0,2020-06-16T21:03:30Z,sub74
two-step-fixation,143,714031,0.0-76.0-2.2,FALSE,FALSE,FALSE,FALSE,"""event"",""trial"",""time""
""fullscreenenter"",""5"",""14628""
","
","
","""event"",""trial"",""time""
""fullscreenenter"",""5"",""14628""
","
",NA,images/earth.jpg,NA,NA,NA,NA,NA,NA,NA,NA,NA,NA,NA,NA,NA,fixation,NA,NA,NA,NA,NA,NA,sub74
d3-animate-choice,144,716372,0.0-76.0-0.3,FALSE,FALSE,FALSE,FALSE,"""event"",""trial"",""time""
""fullscreenenter"",""5"",""14628""
","
","
","""event"",""trial"",""time""
""fullscreenenter"",""5"",""14628""
","
",324.399999997695,NA,49,NA,NA,3000,1,NA,NA,images/earth.jpg,images/rocket1,images/rocket2,null,images/rocket2,NA,1,real,null,1,NA,NA,NA,sub74
d3-animate-choice,145,719861,0.0-76.0-1.3,FALSE,FALSE,FALSE,FALSE,"""event"",""trial"",""time""
""fullscreenenter"",""5"",""14628""
","
","
","""event"",""trial"",""time""
""fullscreenenter"",""5"",""14628""
","
",1480.9899999963818,NA,48,NA,NA,3000,1,NA,NA,images/purpleplanet.jpg,images/alien4,images/alien3,images/rocket2,images/alien4,images/t.png,2,real,false,2,rare,1,2020-06-16T21:03:37Z,sub74
two-step-fixation,146,720872,0.0-76.0-2.3,FALSE,FALSE,FALSE,FALSE,"""event"",""trial"",""time""
""fullscreenenter"",""5"",""14628""
","
","
","""event"",""trial"",""time""
""fullscreenenter"",""5"",""14628""
","
",NA,images/earth.jpg,NA,NA,NA,NA,NA,NA,NA,NA,NA,NA,NA,NA,NA,fixation,NA,NA,NA,NA,NA,NA,sub74
d3-animate-choice,147,723339,0.0-76.0-0.4,FALSE,FALSE,FALSE,FALSE,"""event"",""trial"",""time""
""fullscreenenter"",""5"",""14628""
","
","
","""event"",""trial"",""time""
""fullscreenenter"",""5"",""14628""
","
",454.79999999224674,NA,49,NA,NA,3000,1,NA,NA,images/earth.jpg,images/rocket1,images/rocket2,null,images/rocket2,NA,1,real,null,1,NA,NA,NA,sub74
d3-animate-choice,148,725907,0.0-76.0-1.4,FALSE,FALSE,FALSE,FALSE,"""event"",""trial"",""time""
""fullscreenenter"",""5"",""14628""
","
","
","""event"",""trial"",""time""
""fullscreenenter"",""5"",""14628""
","
",561.0850000084611,NA,48,NA,NA,3000,1,NA,NA,images/redplanet1.jpg,images/alien2,images/alien1,images/rocket2,images/alien2,images/t.png,2,real,true,2,common,1,2020-06-16T21:03:43Z,sub74
two-step-fixation,149,726916,0.0-76.0-2.4,FALSE,FALSE,FALSE,FALSE,"""event"",""trial"",""time""
""fullscreenenter"",""5"",""14628""
","
","
","""event"",""trial"",""time""
""fullscreenenter"",""5"",""14628""
","
",NA,images/earth.jpg,NA,NA,NA,NA,NA,NA,NA,NA,NA,NA,NA,NA,NA,fixation,NA,NA,NA,NA,NA,NA,sub74
d3-animate-choice,150,729363,0.0-76.0-0.5,FALSE,FALSE,FALSE,FALSE,"""event"",""trial"",""time""
""fullscreenenter"",""5"",""14628""
","
","
","""event"",""trial"",""time""
""fullscreenenter"",""5"",""14628""
","
",434.5700000121724,NA,49,NA,NA,3000,1,NA,NA,images/earth.jpg,images/rocket1,images/rocket2,null,images/rocket2,NA,1,real,null,1,NA,NA,NA,sub74
d3-animate-choice,151,731944,0.0-76.0-1.5,FALSE,FALSE,FALSE,FALSE,"""event"",""trial"",""time""
""fullscreenenter"",""5"",""14628""
","
","
","""event"",""trial"",""time""
""fullscreenenter"",""5"",""14628""
","
",564.2950000037672,NA,48,NA,NA,3000,1,NA,NA,images/redplanet1.jpg,images/alien2,images/alien1,images/rocket2,images/alien2,images/t.png,2,real,true,2,common,1,2020-06-16T21:03:49Z,sub74
two-step-fixation,152,732955,0.0-76.0-2.5,FALSE,FALSE,FALSE,FALSE,"""event"",""trial"",""time""
""fullscreenenter"",""5"",""14628""
","
","
","""event"",""trial"",""time""
""fullscreenenter"",""5"",""14628""
","
",NA,images/earth.jpg,NA,NA,NA,NA,NA,NA,NA,NA,NA,NA,NA,NA,NA,fixation,NA,NA,NA,NA,NA,NA,sub74
d3-animate-choice,153,735383,0.0-76.0-0.6,FALSE,FALSE,FALSE,FALSE,"""event"",""trial"",""time""
""fullscreenenter"",""5"",""14628""
","
","
","""event"",""trial"",""time""
""fullscreenenter"",""5"",""14628""
","
",416.7149999993853,NA,49,NA,NA,3000,1,NA,NA,images/earth.jpg,images/rocket1,images/rocket2,null,images/rocket2,NA,1,real,null,1,NA,NA,NA,sub74
d3-animate-choice,154,737929,0.0-76.0-1.6,FALSE,FALSE,FALSE,FALSE,"""event"",""trial"",""time""
""fullscreenenter"",""5"",""14628""
","
","
","""event"",""trial"",""time""
""fullscreenenter"",""5"",""14628""
","
",537.7900000021327,NA,48,NA,NA,3000,1,NA,NA,images/redplanet1.jpg,images/alien2,images/alien1,images/rocket2,images/alien2,images/nothing.png,2,real,true,2,common,0,2020-06-16T21:03:55Z,sub74
two-step-fixation,155,738939,0.0-76.0-2.6,FALSE,FALSE,FALSE,FALSE,"""event"",""trial"",""time""
""fullscreenenter"",""5"",""14628""
","
","
","""event"",""trial"",""time""
""fullscreenenter"",""5"",""14628""
","
",NA,images/earth.jpg,NA,NA,NA,NA,NA,NA,NA,NA,NA,NA,NA,NA,NA,fixation,NA,NA,NA,NA,NA,NA,sub74
d3-animate-choice,156,741314,0.0-76.0-0.7,FALSE,FALSE,FALSE,FALSE,"""event"",""trial"",""time""
""fullscreenenter"",""5"",""14628""
","
","
","""event"",""trial"",""time""
""fullscreenenter"",""5"",""14628""
","
",364.13999999058433,NA,49,NA,NA,3000,1,NA,NA,images/earth.jpg,images/rocket1,images/rocket2,null,images/rocket2,NA,1,real,null,1,NA,NA,NA,sub74
d3-animate-choice,157,743962,0.0-76.0-1.7,FALSE,FALSE,FALSE,FALSE,"""event"",""trial"",""time""
""fullscreenenter"",""5"",""14628""
","
","
","""event"",""trial"",""time""
""fullscreenenter"",""5"",""14628""
","
",632.050000000163,NA,48,NA,NA,3000,1,NA,NA,images/redplanet1.jpg,images/alien2,images/alien1,images/rocket2,images/alien2,images/t.png,2,real,true,2,common,1,2020-06-16T21:04:01Z,sub74
two-step-fixation,158,744971,0.0-76.0-2.7,FALSE,FALSE,FALSE,FALSE,"""event"",""trial"",""time""
""fullscreenenter"",""5"",""14628""
","
","
","""event"",""trial"",""time""
""fullscreenenter"",""5"",""14628""
","
",NA,images/earth.jpg,NA,NA,NA,NA,NA,NA,NA,NA,NA,NA,NA,NA,NA,fixation,NA,NA,NA,NA,NA,NA,sub74
d3-animate-choice,159,747317,0.0-76.0-0.8,FALSE,FALSE,FALSE,FALSE,"""event"",""trial"",""time""
""fullscreenenter"",""5"",""14628""
","
","
","""event"",""trial"",""time""
""fullscreenenter"",""5"",""14628""
","
",334.78000000468455,NA,49,NA,NA,3000,1,NA,NA,images/earth.jpg,images/rocket1,images/rocket2,null,images/rocket2,NA,1,real,null,1,NA,NA,NA,sub74
d3-animate-choice,160,749783,0.0-76.0-1.8,FALSE,FALSE,FALSE,FALSE,"""event"",""trial"",""time""
""fullscreenenter"",""5"",""14628""
","
","
","""event"",""trial"",""time""
""fullscreenenter"",""5"",""14628""
","
",455.9900000022026,NA,48,NA,NA,3000,1,NA,NA,images/redplanet1.jpg,images/alien2,images/alien1,images/rocket2,images/alien2,images/nothing.png,2,real,true,2,common,0,2020-06-16T21:04:07Z,sub74
two-step-fixation,161,750791,0.0-76.0-2.8,FALSE,FALSE,FALSE,FALSE,"""event"",""trial"",""time""
""fullscreenenter"",""5"",""14628""
","
","
","""event"",""trial"",""time""
""fullscreenenter"",""5"",""14628""
","
",NA,images/earth.jpg,NA,NA,NA,NA,NA,NA,NA,NA,NA,NA,NA,NA,NA,fixation,NA,NA,NA,NA,NA,NA,sub74
d3-animate-choice,162,753165,0.0-76.0-0.9,FALSE,FALSE,FALSE,FALSE,"""event"",""trial"",""time""
""fullscreenenter"",""5"",""14628""
","
","
","""event"",""trial"",""time""
""fullscreenenter"",""5"",""14628""
","
",363.5250000079395,NA,49,NA,NA,3000,1,NA,NA,images/earth.jpg,images/rocket1,images/rocket2,null,images/rocket2,NA,1,real,null,1,NA,NA,NA,sub74
d3-animate-choice,163,756136,0.0-76.0-1.9,FALSE,FALSE,FALSE,FALSE,"""event"",""trial"",""time""
""fullscreenenter"",""5"",""14628""
","
","
","""event"",""trial"",""time""
""fullscreenenter"",""5"",""14628""
","
",960.9349999955157,NA,48,NA,NA,3000,1,NA,NA,images/purpleplanet.jpg,images/alien4,images/alien3,images/rocket2,images/alien4,images/nothing.png,2,real,false,2,rare,0,2020-06-16T21:04:14Z,sub74
two-step-fixation,164,757147,0.0-76.0-2.9,FALSE,FALSE,FALSE,FALSE,"""event"",""trial"",""time""
""fullscreenenter"",""5"",""14628""
","
","
","""event"",""trial"",""time""
""fullscreenenter"",""5"",""14628""
","
",NA,images/earth.jpg,NA,NA,NA,NA,NA,NA,NA,NA,NA,NA,NA,NA,NA,fixation,NA,NA,NA,NA,NA,NA,sub74
d3-animate-choice,165,759493,0.0-76.0-0.10,FALSE,FALSE,FALSE,FALSE,"""event"",""trial"",""time""
""fullscreenenter"",""5"",""14628""
","
","
","""event"",""trial"",""time""
""fullscreenenter"",""5"",""14628""
","
",333.66999999270774,NA,49,NA,NA,3000,1,NA,NA,images/earth.jpg,images/rocket1,images/rocket2,null,images/rocket2,NA,1,real,null,1,NA,NA,NA,sub74
d3-animate-choice,166,762139,0.0-76.0-1.10,FALSE,FALSE,FALSE,FALSE,"""event"",""trial"",""time""
""fullscreenenter"",""5"",""14628""
","
","
","""event"",""trial"",""time""
""fullscreenenter"",""5"",""14628""
","
",630.8549999957904,NA,48,NA,NA,3000,1,NA,NA,images/redplanet1.jpg,images/alien2,images/alien1,images/rocket2,images/alien2,images/nothing.png,2,real,true,2,common,0,2020-06-16T21:04:20Z,sub74
two-step-fixation,167,763147,0.0-76.0-2.10,FALSE,FALSE,FALSE,FALSE,"""event"",""trial"",""time""
""fullscreenenter"",""5"",""14628""
","
","
","""event"",""trial"",""time""
""fullscreenenter"",""5"",""14628""
","
",NA,images/earth.jpg,NA,NA,NA,NA,NA,NA,NA,NA,NA,NA,NA,NA,NA,fixation,NA,NA,NA,NA,NA,NA,sub74
d3-animate-choice,168,765477,0.0-76.0-0.11,FALSE,FALSE,FALSE,FALSE,"""event"",""trial"",""time""
""fullscreenenter"",""5"",""14628""
","
","
","""event"",""trial"",""time""
""fullscreenenter"",""5"",""14628""
","
",313.5349999938626,NA,49,NA,NA,3000,1,NA,NA,images/earth.jpg,images/rocket1,images/rocket2,null,images/rocket2,NA,1,real,null,1,NA,NA,NA,sub74
d3-animate-choice,169,768053,0.0-76.0-1.11,FALSE,FALSE,FALSE,FALSE,"""event"",""trial"",""time""
""fullscreenenter"",""5"",""14628""
","
","
","""event"",""trial"",""time""
""fullscreenenter"",""5"",""14628""
","
",563.414999996894,NA,48,NA,NA,3000,1,NA,NA,images/redplanet1.jpg,images/alien2,images/alien1,images/rocket2,images/alien2,images/t.png,2,real,true,2,common,1,2020-06-16T21:04:26Z,sub74
two-step-fixation,170,769061,0.0-76.0-2.11,FALSE,FALSE,FALSE,FALSE,"""event"",""trial"",""time""
""fullscreenenter"",""5"",""14628""
","
","
","""event"",""trial"",""time""
""fullscreenenter"",""5"",""14628""
","
",NA,images/earth.jpg,NA,NA,NA,NA,NA,NA,NA,NA,NA,NA,NA,NA,NA,fixation,NA,NA,NA,NA,NA,NA,sub74
d3-animate-choice,171,771402,0.0-76.0-0.12,FALSE,FALSE,FALSE,FALSE,"""event"",""trial"",""time""
""fullscreenenter"",""5"",""14628""
","
","
","""event"",""trial"",""time""
""fullscreenenter"",""5"",""14628""
","
",326.92999999562744,NA,49,NA,NA,3000,1,NA,NA,images/earth.jpg,images/rocket1,images/rocket2,null,images/rocket2,NA,1,real,null,1,NA,NA,NA,sub74
d3-animate-choice,172,773965,0.0-76.0-1.12,FALSE,FALSE,FALSE,FALSE,"""event"",""trial"",""time""
""fullscreenenter"",""5"",""14628""
","
","
","""event"",""trial"",""time""
""fullscreenenter"",""5"",""14628""
","
",548.4999999898719,NA,48,NA,NA,3000,1,NA,NA,images/redplanet1.jpg,images/alien2,images/alien1,images/rocket2,images/alien2,images/nothing.png,2,real,true,2,common,0,2020-06-16T21:04:31Z,sub74
two-step-fixation,173,774973,0.0-76.0-2.12,FALSE,FALSE,FALSE,FALSE,"""event"",""trial"",""time""
""fullscreenenter"",""5"",""14628""
","
","
","""event"",""trial"",""time""
""fullscreenenter"",""5"",""14628""
","
",NA,images/earth.jpg,NA,NA,NA,NA,NA,NA,NA,NA,NA,NA,NA,NA,NA,fixation,NA,NA,NA,NA,NA,NA,sub74
d3-animate-choice,174,778105,0.0-76.0-0.13,FALSE,FALSE,FALSE,FALSE,"""event"",""trial"",""time""
""fullscreenenter"",""5"",""14628""
","
","
","""event"",""trial"",""time""
""fullscreenenter"",""5"",""14628""
","
",388.44500000413973,NA,50,NA,NA,3000,1,1119.670000000042,48,images/earth.jpg,images/rocket1,images/rocket2,null,images/rocket1,NA,1,real,null,NA,NA,NA,NA,sub74
d3-animate-choice,175,781421,0.0-76.0-1.13,FALSE,FALSE,FALSE,FALSE,"""event"",""trial"",""time""
""fullscreenenter"",""5"",""14628""
","
","
","""event"",""trial"",""time""
""fullscreenenter"",""5"",""14628""
","
",1009.2799999983981,NA,50,NA,NA,3000,1,1302.9249999963213,48,images/redplanet1.jpg,images/alien2,images/alien1,images/rocket1,images/alien2,images/t.png,2,real,false,NA,rare,1,2020-06-16T21:04:39Z,sub74
two-step-fixation,176,782431,0.0-76.0-2.13,FALSE,FALSE,FALSE,FALSE,"""event"",""trial"",""time""
""fullscreenenter"",""5"",""14628""
","
","
","""event"",""trial"",""time""
""fullscreenenter"",""5"",""14628""
","
",NA,images/earth.jpg,NA,NA,NA,NA,NA,NA,NA,NA,NA,NA,NA,NA,NA,fixation,NA,NA,NA,NA,NA,NA,sub74
d3-animate-choice,177,784862,0.0-76.0-0.14,FALSE,FALSE,FALSE,FALSE,"""event"",""trial"",""time""
""fullscreenenter"",""5"",""14628""
","
","
","""event"",""trial"",""time""
""fullscreenenter"",""5"",""14628""
","
",422.6000000053318,NA,48,NA,NA,3000,1,NA,NA,images/earth.jpg,images/rocket1,images/rocket2,null,images/rocket1,NA,1,real,null,2,NA,NA,NA,sub74
d3-animate-choice,178,787899,0.0-76.0-1.14,FALSE,FALSE,FALSE,FALSE,"""event"",""trial"",""time""
""fullscreenenter"",""5"",""14628""
","
","
","""event"",""trial"",""time""
""fullscreenenter"",""5"",""14628""
","
",1024.1000000096392,NA,48,NA,NA,3000,1,NA,NA,images/purpleplanet.jpg,images/alien4,images/alien3,images/rocket1,images/alien4,images/t.png,2,real,true,2,common,1,2020-06-16T21:04:45Z,sub74
two-step-fixation,179,788907,0.0-76.0-2.14,FALSE,FALSE,FALSE,FALSE,"""event"",""trial"",""time""
""fullscreenenter"",""5"",""14628""
","
","
","""event"",""trial"",""time""
""fullscreenenter"",""5"",""14628""
","
",NA,images/earth.jpg,NA,NA,NA,NA,NA,NA,NA,NA,NA,NA,NA,NA,NA,fixation,NA,NA,NA,NA,NA,NA,sub74
d3-animate-choice,180,791306,0.0-76.0-0.15,FALSE,FALSE,FALSE,FALSE,"""event"",""trial"",""time""
""fullscreenenter"",""5"",""14628""
","
","
","""event"",""trial"",""time""
""fullscreenenter"",""5"",""14628""
","
",390.9549999953015,NA,48,NA,NA,3000,1,NA,NA,images/earth.jpg,images/rocket1,images/rocket2,null,images/rocket1,NA,1,real,null,2,NA,NA,NA,sub74
d3-animate-choice,181,793866,0.0-76.0-1.15,FALSE,FALSE,FALSE,FALSE,"""event"",""trial"",""time""
""fullscreenenter"",""5"",""14628""
","
","
","""event"",""trial"",""time""
""fullscreenenter"",""5"",""14628""
","
",550.0000000029104,NA,48,NA,NA,3000,1,NA,NA,images/purpleplanet.jpg,images/alien4,images/alien3,images/rocket1,images/alien4,images/nothing.png,2,real,true,2,common,0,2020-06-16T21:04:51Z,sub74
two-step-fixation,182,794876,0.0-76.0-2.15,FALSE,FALSE,FALSE,FALSE,"""event"",""trial"",""time""
""fullscreenenter"",""5"",""14628""
","
","
","""event"",""trial"",""time""
""fullscreenenter"",""5"",""14628""
","
",NA,images/earth.jpg,NA,NA,NA,NA,NA,NA,NA,NA,NA,NA,NA,NA,NA,fixation,NA,NA,NA,NA,NA,NA,sub74
d3-animate-choice,183,797222,0.0-76.0-0.16,FALSE,FALSE,FALSE,FALSE,"""event"",""trial"",""time""
""fullscreenenter"",""5"",""14628""
","
","
","""event"",""trial"",""time""
""fullscreenenter"",""5"",""14628""
","
",331.7300000053365,NA,48,NA,NA,3000,1,NA,NA,images/earth.jpg,images/rocket1,images/rocket2,null,images/rocket1,NA,1,real,null,2,NA,NA,NA,sub74
d3-animate-choice,184,799640,0.0-76.0-1.16,FALSE,FALSE,FALSE,FALSE,"""event"",""trial"",""time""
""fullscreenenter"",""5"",""14628""
","
","
","""event"",""trial"",""time""
""fullscreenenter"",""5"",""14628""
","
",408.3649999956833,NA,49,NA,NA,3000,1,NA,NA,images/purpleplanet.jpg,images/alien4,images/alien3,images/rocket1,images/alien3,images/t.png,2,real,true,1,common,1,2020-06-16T21:04:57Z,sub74
two-step-fixation,185,800651,0.0-76.0-2.16,FALSE,FALSE,FALSE,FALSE,"""event"",""trial"",""time""
""fullscreenenter"",""5"",""14628""
","
","
","""event"",""trial"",""time""
""fullscreenenter"",""5"",""14628""
","
",NA,images/earth.jpg,NA,NA,NA,NA,NA,NA,NA,NA,NA,NA,NA,NA,NA,fixation,NA,NA,NA,NA,NA,NA,sub74
d3-animate-choice,186,802964,0.0-76.0-0.17,FALSE,FALSE,FALSE,FALSE,"""event"",""trial"",""time""
""fullscreenenter"",""5"",""14628""
","
","
","""event"",""trial"",""time""
""fullscreenenter"",""5"",""14628""
","
",303.2649999950081,NA,48,NA,NA,3000,1,NA,NA,images/earth.jpg,images/rocket1,images/rocket2,null,images/rocket1,NA,1,real,null,2,NA,NA,NA,sub74
d3-animate-choice,187,805408,0.0-76.0-1.17,FALSE,FALSE,FALSE,FALSE,"""event"",""trial"",""time""
""fullscreenenter"",""5"",""14628""
","
","
","""event"",""trial"",""time""
""fullscreenenter"",""5"",""14628""
","
",431.944999989355,NA,49,NA,NA,3000,1,NA,NA,images/purpleplanet.jpg,images/alien4,images/alien3,images/rocket1,images/alien3,images/nothing.png,2,real,true,1,common,0,2020-06-16T21:05:03Z,sub74
two-step-fixation,188,806416,0.0-76.0-2.17,FALSE,FALSE,FALSE,FALSE,"""event"",""trial"",""time""
""fullscreenenter"",""5"",""14628""
","
","
","""event"",""trial"",""time""
""fullscreenenter"",""5"",""14628""
","
",NA,images/earth.jpg,NA,NA,NA,NA,NA,NA,NA,NA,NA,NA,NA,NA,NA,fixation,NA,NA,NA,NA,NA,NA,sub74
d3-animate-choice,189,808787,0.0-76.0-0.18,FALSE,FALSE,FALSE,FALSE,"""event"",""trial"",""time""
""fullscreenenter"",""5"",""14628""
","
","
","""event"",""trial"",""time""
""fullscreenenter"",""5"",""14628""
","
",356.7800000018906,NA,48,NA,NA,3000,1,NA,NA,images/earth.jpg,images/rocket1,images/rocket2,null,images/rocket1,NA,1,real,null,2,NA,NA,NA,sub74
d3-animate-choice,190,811245,0.0-76.0-1.18,FALSE,FALSE,FALSE,FALSE,"""event"",""trial"",""time""
""fullscreenenter"",""5"",""14628""
","
","
","""event"",""trial"",""time""
""fullscreenenter"",""5"",""14628""
","
",445.4550000082236,NA,48,NA,NA,3000,1,NA,NA,images/purpleplanet.jpg,images/alien4,images/alien3,images/rocket1,images/alien4,images/t.png,2,real,true,2,common,1,2020-06-16T21:05:09Z,sub74
two-step-fixation,191,812261,0.0-76.0-2.18,FALSE,FALSE,FALSE,FALSE,"""event"",""trial"",""time""
""fullscreenenter"",""5"",""14628""
","
","
","""event"",""trial"",""time""
""fullscreenenter"",""5"",""14628""
","
",NA,images/earth.jpg,NA,NA,NA,NA,NA,NA,NA,NA,NA,NA,NA,NA,NA,fixation,NA,NA,NA,NA,NA,NA,sub74
d3-animate-choice,192,814630,0.0-76.0-0.19,FALSE,FALSE,FALSE,FALSE,"""event"",""trial"",""time""
""fullscreenenter"",""5"",""14628""
","
","
","""event"",""trial"",""time""
""fullscreenenter"",""5"",""14628""
","
",356.6900000005262,NA,48,NA,NA,3000,1,NA,NA,images/earth.jpg,images/rocket1,images/rocket2,null,images/rocket1,NA,1,real,null,2,NA,NA,NA,sub74
d3-animate-choice,193,817130,0.0-76.0-1.19,FALSE,FALSE,FALSE,FALSE,"""event"",""trial"",""time""
""fullscreenenter"",""5"",""14628""
","
","
","""event"",""trial"",""time""
""fullscreenenter"",""5"",""14628""
","
",487.8549999993993,NA,48,NA,NA,3000,1,NA,NA,images/purpleplanet.jpg,images/alien4,images/alien3,images/rocket1,images/alien4,images/nothing.png,2,real,true,2,common,0,2020-06-16T21:05:15Z,sub74
two-step-fixation,194,818139,0.0-76.0-2.19,FALSE,FALSE,FALSE,FALSE,"""event"",""trial"",""time""
""fullscreenenter"",""5"",""14628""
","
","
","""event"",""trial"",""time""
""fullscreenenter"",""5"",""14628""
","
",NA,images/earth.jpg,NA,NA,NA,NA,NA,NA,NA,NA,NA,NA,NA,NA,NA,fixation,NA,NA,NA,NA,NA,NA,sub74
d3-animate-choice,195,820422,0.0-76.0-0.20,FALSE,FALSE,FALSE,FALSE,"""event"",""trial"",""time""
""fullscreenenter"",""5"",""14628""
","
","
","""event"",""trial"",""time""
""fullscreenenter"",""5"",""14628""
","
",273.1099999946309,NA,49,NA,NA,3000,1,NA,NA,images/earth.jpg,images/rocket1,images/rocket2,null,images/rocket2,NA,1,real,null,1,NA,NA,NA,sub74
d3-animate-choice,196,822882,0.0-76.0-1.20,FALSE,FALSE,FALSE,FALSE,"""event"",""trial"",""time""
""fullscreenenter"",""5"",""14628""
","
","
","""event"",""trial"",""time""
""fullscreenenter"",""5"",""14628""
","
",450.8899999927962,NA,48,NA,NA,3000,1,NA,NA,images/redplanet1.jpg,images/alien2,images/alien1,images/rocket2,images/alien2,images/nothing.png,2,real,true,2,common,0,2020-06-16T21:05:20Z,sub74
two-step-fixation,197,823890,0.0-76.0-2.20,FALSE,FALSE,FALSE,FALSE,"""event"",""trial"",""time""
""fullscreenenter"",""5"",""14628""
","
","
","""event"",""trial"",""time""
""fullscreenenter"",""5"",""14628""
","
",NA,images/earth.jpg,NA,NA,NA,NA,NA,NA,NA,NA,NA,NA,NA,NA,NA,fixation,NA,NA,NA,NA,NA,NA,sub74
d3-animate-choice,198,826225,0.0-76.0-0.21,FALSE,FALSE,FALSE,FALSE,"""event"",""trial"",""time""
""fullscreenenter"",""5"",""14628""
","
","
","""event"",""trial"",""time""
""fullscreenenter"",""5"",""14628""
","
",323.7599999993108,NA,48,NA,NA,3000,1,NA,NA,images/earth.jpg,images/rocket1,images/rocket2,null,images/rocket1,NA,1,real,null,2,NA,NA,NA,sub74
d3-animate-choice,199,828628,0.0-76.0-1.21,FALSE,FALSE,FALSE,FALSE,"""event"",""trial"",""time""
""fullscreenenter"",""5"",""14628""
","
","
","""event"",""trial"",""time""
""fullscreenenter"",""5"",""14628""
","
",394.2900000110967,NA,48,NA,NA,3000,1,NA,NA,images/purpleplanet.jpg,images/alien4,images/alien3,images/rocket1,images/alien4,images/t.png,2,real,true,2,common,1,2020-06-16T21:05:26Z,sub74
two-step-fixation,200,829635,0.0-76.0-2.21,FALSE,FALSE,FALSE,FALSE,"""event"",""trial"",""time""
""fullscreenenter"",""5"",""14628""
","
","
","""event"",""trial"",""time""
""fullscreenenter"",""5"",""14628""
","
",NA,images/earth.jpg,NA,NA,NA,NA,NA,NA,NA,NA,NA,NA,NA,NA,NA,fixation,NA,NA,NA,NA,NA,NA,sub74
d3-animate-choice,201,831942,0.0-76.0-0.22,FALSE,FALSE,FALSE,FALSE,"""event"",""trial"",""time""
""fullscreenenter"",""5"",""14628""
","
","
","""event"",""trial"",""time""
""fullscreenenter"",""5"",""14628""
","
",294.41999999107793,NA,48,NA,NA,3000,1,NA,NA,images/earth.jpg,images/rocket1,images/rocket2,null,images/rocket1,NA,1,real,null,2,NA,NA,NA,sub74
d3-animate-choice,202,834287,0.0-76.0-1.22,FALSE,FALSE,FALSE,FALSE,"""event"",""trial"",""time""
""fullscreenenter"",""5"",""14628""
","
","
","""event"",""trial"",""time""
""fullscreenenter"",""5"",""14628""
","
",331.1249999969732,NA,48,NA,NA,3000,1,NA,NA,images/purpleplanet.jpg,images/alien4,images/alien3,images/rocket1,images/alien4,images/t.png,2,real,true,2,common,1,2020-06-16T21:05:32Z,sub74
two-step-fixation,203,835294,0.0-76.0-2.22,FALSE,FALSE,FALSE,FALSE,"""event"",""trial"",""time""
""fullscreenenter"",""5"",""14628""
","
","
","""event"",""trial"",""time""
""fullscreenenter"",""5"",""14628""
","
",NA,images/earth.jpg,NA,NA,NA,NA,NA,NA,NA,NA,NA,NA,NA,NA,NA,fixation,NA,NA,NA,NA,NA,NA,sub74
d3-animate-choice,204,837605,0.0-76.0-0.23,FALSE,FALSE,FALSE,FALSE,"""event"",""trial"",""time""
""fullscreenenter"",""5"",""14628""
","
","
","""event"",""trial"",""time""
""fullscreenenter"",""5"",""14628""
","
",301.69999999634456,NA,48,NA,NA,3000,1,NA,NA,images/earth.jpg,images/rocket1,images/rocket2,null,images/rocket1,NA,1,real,null,2,NA,NA,NA,sub74
d3-animate-choice,205,840041,0.0-76.0-1.23,FALSE,FALSE,FALSE,FALSE,"""event"",""trial"",""time""
""fullscreenenter"",""5"",""14628""
","
","
","""event"",""trial"",""time""
""fullscreenenter"",""5"",""14628""
","
",424.9450000061188,NA,49,NA,NA,3000,1,NA,NA,images/purpleplanet.jpg,images/alien4,images/alien3,images/rocket1,images/alien3,images/t.png,2,real,true,1,common,1,2020-06-16T21:05:38Z,sub74
two-step-fixation,206,841051,0.0-76.0-2.23,FALSE,FALSE,FALSE,FALSE,"""event"",""trial"",""time""
""fullscreenenter"",""5"",""14628""
","
","
","""event"",""trial"",""time""
""fullscreenenter"",""5"",""14628""
","
",NA,images/earth.jpg,NA,NA,NA,NA,NA,NA,NA,NA,NA,NA,NA,NA,NA,fixation,NA,NA,NA,NA,NA,NA,sub74
d3-animate-choice,207,843353,0.0-76.0-0.24,FALSE,FALSE,FALSE,FALSE,"""event"",""trial"",""time""
""fullscreenenter"",""5"",""14628""
","
","
","""event"",""trial"",""time""
""fullscreenenter"",""5"",""14628""
","
",293.4899999963818,NA,48,NA,NA,3000,1,NA,NA,images/earth.jpg,images/rocket1,images/rocket2,null,images/rocket1,NA,1,real,null,2,NA,NA,NA,sub74
d3-animate-choice,208,845859,0.0-76.0-1.24,FALSE,FALSE,FALSE,FALSE,"""event"",""trial"",""time""
""fullscreenenter"",""5"",""14628""
","
","
","""event"",""trial"",""time""
""fullscreenenter"",""5"",""14628""
","
",492.8000000072643,NA,48,NA,NA,3000,1,NA,NA,images/purpleplanet.jpg,images/alien4,images/alien3,images/rocket1,images/alien4,images/t.png,2,real,true,2,common,1,2020-06-16T21:05:43Z,sub74
two-step-fixation,209,846871,0.0-76.0-2.24,FALSE,FALSE,FALSE,FALSE,"""event"",""trial"",""time""
""fullscreenenter"",""5"",""14628""
","
","
","""event"",""trial"",""time""
""fullscreenenter"",""5"",""14628""
","
",NA,images/earth.jpg,NA,NA,NA,NA,NA,NA,NA,NA,NA,NA,NA,NA,NA,fixation,NA,NA,NA,NA,NA,NA,sub74
d3-animate-choice,210,849203,0.0-76.0-0.25,FALSE,FALSE,FALSE,FALSE,"""event"",""trial"",""time""
""fullscreenenter"",""5"",""14628""
","
","
","""event"",""trial"",""time""
""fullscreenenter"",""5"",""14628""
","
",321.6800000082003,NA,48,NA,NA,3000,1,NA,NA,images/earth.jpg,images/rocket1,images/rocket2,null,images/rocket1,NA,1,real,null,2,NA,NA,NA,sub74
d3-animate-choice,211,852158,0.0-76.0-1.25,FALSE,FALSE,FALSE,FALSE,"""event"",""trial"",""time""
""fullscreenenter"",""5"",""14628""
","
","
","""event"",""trial"",""time""
""fullscreenenter"",""5"",""14628""
","
",938.6599999997998,NA,48,NA,NA,3000,1,NA,NA,images/redplanet1.jpg,images/alien2,images/alien1,images/rocket1,images/alien2,images/t.png,2,real,false,2,rare,1,2020-06-16T21:05:50Z,sub74
two-step-fixation,212,853170,0.0-76.0-2.25,FALSE,FALSE,FALSE,FALSE,"""event"",""trial"",""time""
""fullscreenenter"",""5"",""14628""
","
","
","""event"",""trial"",""time""
""fullscreenenter"",""5"",""14628""
","
",NA,images/earth.jpg,NA,NA,NA,NA,NA,NA,NA,NA,NA,NA,NA,NA,NA,fixation,NA,NA,NA,NA,NA,NA,sub74
d3-animate-choice,213,855447,0.0-76.0-0.26,FALSE,FALSE,FALSE,FALSE,"""event"",""trial"",""time""
""fullscreenenter"",""5"",""14628""
","
","
","""event"",""trial"",""time""
""fullscreenenter"",""5"",""14628""
","
",265.8099999971455,NA,48,NA,NA,3000,1,NA,NA,images/earth.jpg,images/rocket1,images/rocket2,null,images/rocket1,NA,1,real,null,2,NA,NA,NA,sub74
d3-animate-choice,214,857938,0.0-76.0-1.26,FALSE,FALSE,FALSE,FALSE,"""event"",""trial"",""time""
""fullscreenenter"",""5"",""14628""
","
","
","""event"",""trial"",""time""
""fullscreenenter"",""5"",""14628""
","
",481.06999999436084,NA,48,NA,NA,3000,1,NA,NA,images/purpleplanet.jpg,images/alien4,images/alien3,images/rocket1,images/alien4,images/t.png,2,real,true,2,common,1,2020-06-16T21:05:55Z,sub74
two-step-fixation,215,858947,0.0-76.0-2.26,FALSE,FALSE,FALSE,FALSE,"""event"",""trial"",""time""
""fullscreenenter"",""5"",""14628""
","
","
","""event"",""trial"",""time""
""fullscreenenter"",""5"",""14628""
","
",NA,images/earth.jpg,NA,NA,NA,NA,NA,NA,NA,NA,NA,NA,NA,NA,NA,fixation,NA,NA,NA,NA,NA,NA,sub74
d3-animate-choice,216,861265,0.0-76.0-0.27,FALSE,FALSE,FALSE,FALSE,"""event"",""trial"",""time""
""fullscreenenter"",""5"",""14628""
","
","
","""event"",""trial"",""time""
""fullscreenenter"",""5"",""14628""
","
",306.7000000010012,NA,48,NA,NA,3000,1,NA,NA,images/earth.jpg,images/rocket1,images/rocket2,null,images/rocket1,NA,1,real,null,2,NA,NA,NA,sub74
d3-animate-choice,217,863683,0.0-76.0-1.27,FALSE,FALSE,FALSE,FALSE,"""event"",""trial"",""time""
""fullscreenenter"",""5"",""14628""
","
","
","""event"",""trial"",""time""
""fullscreenenter"",""5"",""14628""
","
",403.40999999898486,NA,49,NA,NA,3000,1,NA,NA,images/purpleplanet.jpg,images/alien4,images/alien3,images/rocket1,images/alien3,images/nothing.png,2,real,true,1,common,0,2020-06-16T21:06:01Z,sub74
two-step-fixation,218,864693,0.0-76.0-2.27,FALSE,FALSE,FALSE,FALSE,"""event"",""trial"",""time""
""fullscreenenter"",""5"",""14628""
","
","
","""event"",""trial"",""time""
""fullscreenenter"",""5"",""14628""
","
",NA,images/earth.jpg,NA,NA,NA,NA,NA,NA,NA,NA,NA,NA,NA,NA,NA,fixation,NA,NA,NA,NA,NA,NA,sub74
d3-animate-choice,219,867019,0.0-76.0-0.28,FALSE,FALSE,FALSE,FALSE,"""event"",""trial"",""time""
""fullscreenenter"",""5"",""14628""
","
","
","""event"",""trial"",""time""
""fullscreenenter"",""5"",""14628""
","
",314.39499999396503,NA,48,NA,NA,3000,1,NA,NA,images/earth.jpg,images/rocket1,images/rocket2,null,images/rocket1,NA,1,real,null,2,NA,NA,NA,sub74
d3-animate-choice,220,869657,0.0-76.0-1.28,FALSE,FALSE,FALSE,FALSE,"""event"",""trial"",""time""
""fullscreenenter"",""5"",""14628""
","
","
","""event"",""trial"",""time""
""fullscreenenter"",""5"",""14628""
","
",626.7850000003818,NA,48,NA,NA,3000,1,NA,NA,images/purpleplanet.jpg,images/alien4,images/alien3,images/rocket1,images/alien4,images/t.png,2,real,true,2,common,1,2020-06-16T21:06:07Z,sub74
two-step-fixation,221,870666,0.0-76.0-2.28,FALSE,FALSE,FALSE,FALSE,"""event"",""trial"",""time""
""fullscreenenter"",""5"",""14628""
","
","
","""event"",""trial"",""time""
""fullscreenenter"",""5"",""14628""
","
",NA,images/earth.jpg,NA,NA,NA,NA,NA,NA,NA,NA,NA,NA,NA,NA,NA,fixation,NA,NA,NA,NA,NA,NA,sub74
d3-animate-choice,222,872976,0.0-76.0-0.29,FALSE,FALSE,FALSE,FALSE,"""event"",""trial"",""time""
""fullscreenenter"",""5"",""14628""
","
","
","""event"",""trial"",""time""
""fullscreenenter"",""5"",""14628""
","
",300.7050000014715,NA,48,NA,NA,3000,1,NA,NA,images/earth.jpg,images/rocket1,images/rocket2,null,images/rocket1,NA,1,real,null,2,NA,NA,NA,sub74
d3-animate-choice,223,875437,0.0-76.0-1.29,FALSE,FALSE,FALSE,FALSE,"""event"",""trial"",""time""
""fullscreenenter"",""5"",""14628""
","
","
","""event"",""trial"",""time""
""fullscreenenter"",""5"",""14628""
","
",453.06499999423977,NA,48,NA,NA,3000,1,NA,NA,images/purpleplanet.jpg,images/alien4,images/alien3,images/rocket1,images/alien4,images/t.png,2,real,true,2,common,1,2020-06-16T21:06:13Z,sub74
two-step-fixation,224,876445,0.0-76.0-2.29,FALSE,FALSE,FALSE,FALSE,"""event"",""trial"",""time""
""fullscreenenter"",""5"",""14628""
","
","
","""event"",""trial"",""time""
""fullscreenenter"",""5"",""14628""
","
",NA,images/earth.jpg,NA,NA,NA,NA,NA,NA,NA,NA,NA,NA,NA,NA,NA,fixation,NA,NA,NA,NA,NA,NA,sub74
d3-animate-choice,225,878787,0.0-76.0-0.30,FALSE,FALSE,FALSE,FALSE,"""event"",""trial"",""time""
""fullscreenenter"",""5"",""14628""
","
","
","""event"",""trial"",""time""
""fullscreenenter"",""5"",""14628""
","
",330.9550000121817,NA,48,NA,NA,3000,1,NA,NA,images/earth.jpg,images/rocket1,images/rocket2,null,images/rocket1,NA,1,real,null,2,NA,NA,NA,sub74
d3-animate-choice,226,881451,0.0-76.0-1.30,FALSE,FALSE,FALSE,FALSE,"""event"",""trial"",""time""
""fullscreenenter"",""5"",""14628""
","
","
","""event"",""trial"",""time""
""fullscreenenter"",""5"",""14628""
","
",648.0100000044331,NA,48,NA,NA,3000,1,NA,NA,images/redplanet1.jpg,images/alien2,images/alien1,images/rocket1,images/alien2,images/t.png,2,real,false,2,rare,1,2020-06-16T21:06:19Z,sub74
two-step-fixation,227,882464,0.0-76.0-2.30,FALSE,FALSE,FALSE,FALSE,"""event"",""trial"",""time""
""fullscreenenter"",""5"",""14628""
","
","
","""event"",""trial"",""time""
""fullscreenenter"",""5"",""14628""
","
",NA,images/earth.jpg,NA,NA,NA,NA,NA,NA,NA,NA,NA,NA,NA,NA,NA,fixation,NA,NA,NA,NA,NA,NA,sub74
d3-animate-choice,228,884803,0.0-76.0-0.31,FALSE,FALSE,FALSE,FALSE,"""event"",""trial"",""time""
""fullscreenenter"",""5"",""14628""
","
","
","""event"",""trial"",""time""
""fullscreenenter"",""5"",""14628""
","
",327.73000000452157,NA,48,NA,NA,3000,1,NA,NA,images/earth.jpg,images/rocket1,images/rocket2,null,images/rocket1,NA,1,real,null,2,NA,NA,NA,sub74
d3-animate-choice,229,887232,0.0-76.0-1.31,FALSE,FALSE,FALSE,FALSE,"""event"",""trial"",""time""
""fullscreenenter"",""5"",""14628""
","
","
","""event"",""trial"",""time""
""fullscreenenter"",""5"",""14628""
","
",418.4649999951944,NA,48,NA,NA,3000,1,NA,NA,images/purpleplanet.jpg,images/alien4,images/alien3,images/rocket1,images/alien4,images/t.png,2,real,true,2,common,1,2020-06-16T21:06:25Z,sub74
two-step-fixation,230,888241,0.0-76.0-2.31,FALSE,FALSE,FALSE,FALSE,"""event"",""trial"",""time""
""fullscreenenter"",""5"",""14628""
","
","
","""event"",""trial"",""time""
""fullscreenenter"",""5"",""14628""
","
",NA,images/earth.jpg,NA,NA,NA,NA,NA,NA,NA,NA,NA,NA,NA,NA,NA,fixation,NA,NA,NA,NA,NA,NA,sub74
d3-animate-choice,231,890553,0.0-76.0-0.32,FALSE,FALSE,FALSE,FALSE,"""event"",""trial"",""time""
""fullscreenenter"",""5"",""14628""
","
","
","""event"",""trial"",""time""
""fullscreenenter"",""5"",""14628""
","
",298.1199999921955,NA,48,NA,NA,3000,1,NA,NA,images/earth.jpg,images/rocket1,images/rocket2,null,images/rocket1,NA,1,real,null,2,NA,NA,NA,sub74
d3-animate-choice,232,893044,0.0-76.0-1.32,FALSE,FALSE,FALSE,FALSE,"""event"",""trial"",""time""
""fullscreenenter"",""5"",""14628""
","
","
","""event"",""trial"",""time""
""fullscreenenter"",""5"",""14628""
","
",479.1899999981979,NA,48,NA,NA,3000,1,NA,NA,images/purpleplanet.jpg,images/alien4,images/alien3,images/rocket1,images/alien4,images/nothing.png,2,real,true,2,common,0,2020-06-16T21:06:31Z,sub74
two-step-fixation,233,894053,0.0-76.0-2.32,FALSE,FALSE,FALSE,FALSE,"""event"",""trial"",""time""
""fullscreenenter"",""5"",""14628""
","
","
","""event"",""trial"",""time""
""fullscreenenter"",""5"",""14628""
","
",NA,images/earth.jpg,NA,NA,NA,NA,NA,NA,NA,NA,NA,NA,NA,NA,NA,fixation,NA,NA,NA,NA,NA,NA,sub74
d3-animate-choice,234,896429,0.0-76.0-0.33,FALSE,FALSE,FALSE,FALSE,"""event"",""trial"",""time""
""fullscreenenter"",""5"",""14628""
","
","
","""event"",""trial"",""time""
""fullscreenenter"",""5"",""14628""
","
",363.2999999972526,NA,48,NA,NA,3000,1,NA,NA,images/earth.jpg,images/rocket1,images/rocket2,null,images/rocket1,NA,1,real,null,2,NA,NA,NA,sub74
d3-animate-choice,235,899010,0.0-76.0-1.33,FALSE,FALSE,FALSE,FALSE,"""event"",""trial"",""time""
""fullscreenenter"",""5"",""14628""
","
","
","""event"",""trial"",""time""
""fullscreenenter"",""5"",""14628""
","
",571.1750000045868,NA,48,NA,NA,3000,1,NA,NA,images/redplanet1.jpg,images/alien2,images/alien1,images/rocket1,images/alien2,images/t.png,2,real,false,2,rare,1,2020-06-16T21:06:36Z,sub74
two-step-fixation,236,900020,0.0-76.0-2.33,FALSE,FALSE,FALSE,FALSE,"""event"",""trial"",""time""
""fullscreenenter"",""5"",""14628""
","
","
","""event"",""trial"",""time""
""fullscreenenter"",""5"",""14628""
","
",NA,images/earth.jpg,NA,NA,NA,NA,NA,NA,NA,NA,NA,NA,NA,NA,NA,fixation,NA,NA,NA,NA,NA,NA,sub74
d3-animate-choice,237,902358,0.0-76.0-0.34,FALSE,FALSE,FALSE,FALSE,"""event"",""trial"",""time""
""fullscreenenter"",""5"",""14628""
","
","
","""event"",""trial"",""time""
""fullscreenenter"",""5"",""14628""
","
",321.2700000003679,NA,48,NA,NA,3000,1,NA,NA,images/earth.jpg,images/rocket1,images/rocket2,null,images/rocket1,NA,1,real,null,2,NA,NA,NA,sub74
d3-animate-choice,238,905060,0.0-76.0-1.34,FALSE,FALSE,FALSE,FALSE,"""event"",""trial"",""time""
""fullscreenenter"",""5"",""14628""
","
","
","""event"",""trial"",""time""
""fullscreenenter"",""5"",""14628""
","
",690.920000008191,NA,48,NA,NA,3000,1,NA,NA,images/purpleplanet.jpg,images/alien4,images/alien3,images/rocket1,images/alien4,images/t.png,2,real,true,2,common,1,2020-06-16T21:06:43Z,sub74
two-step-fixation,239,906072,0.0-76.0-2.34,FALSE,FALSE,FALSE,FALSE,"""event"",""trial"",""time""
""fullscreenenter"",""5"",""14628""
","
","
","""event"",""trial"",""time""
""fullscreenenter"",""5"",""14628""
","
",NA,images/earth.jpg,NA,NA,NA,NA,NA,NA,NA,NA,NA,NA,NA,NA,NA,fixation,NA,NA,NA,NA,NA,NA,sub74
d3-animate-choice,240,908362,0.0-76.0-0.35,FALSE,FALSE,FALSE,FALSE,"""event"",""trial"",""time""
""fullscreenenter"",""5"",""14628""
","
","
","""event"",""trial"",""time""
""fullscreenenter"",""5"",""14628""
","
",278.3849999977974,NA,48,NA,NA,3000,1,NA,NA,images/earth.jpg,images/rocket1,images/rocket2,null,images/rocket1,NA,1,real,null,2,NA,NA,NA,sub74
d3-animate-choice,241,911093,0.0-76.0-1.35,FALSE,FALSE,FALSE,FALSE,"""event"",""trial"",""time""
""fullscreenenter"",""5"",""14628""
","
","
","""event"",""trial"",""time""
""fullscreenenter"",""5"",""14628""
","
",716.5050000039628,NA,48,NA,NA,3000,1,NA,NA,images/purpleplanet.jpg,images/alien4,images/alien3,images/rocket1,images/alien4,images/t.png,2,real,true,2,common,1,2020-06-16T21:06:49Z,sub74
two-step-fixation,242,912102,0.0-76.0-2.35,FALSE,FALSE,FALSE,FALSE,"""event"",""trial"",""time""
""fullscreenenter"",""5"",""14628""
","
","
","""event"",""trial"",""time""
""fullscreenenter"",""5"",""14628""
","
",NA,images/earth.jpg,NA,NA,NA,NA,NA,NA,NA,NA,NA,NA,NA,NA,NA,fixation,NA,NA,NA,NA,NA,NA,sub74
d3-animate-choice,243,914422,0.0-76.0-0.36,FALSE,FALSE,FALSE,FALSE,"""event"",""trial"",""time""
""fullscreenenter"",""5"",""14628""
","
","
","""event"",""trial"",""time""
""fullscreenenter"",""5"",""14628""
","
",305.34000000625383,NA,48,NA,NA,3000,1,NA,NA,images/earth.jpg,images/rocket1,images/rocket2,null,images/rocket1,NA,1,real,null,2,NA,NA,NA,sub74
d3-animate-choice,244,917060,0.0-76.0-1.36,FALSE,FALSE,FALSE,FALSE,"""event"",""trial"",""time""
""fullscreenenter"",""5"",""14628""
","
","
","""event"",""trial"",""time""
""fullscreenenter"",""5"",""14628""
","
",628.1499999895459,NA,48,NA,NA,3000,1,NA,NA,images/purpleplanet.jpg,images/alien4,images/alien3,images/rocket1,images/alien4,images/t.png,2,real,true,2,common,1,2020-06-16T21:06:55Z,sub74
two-step-fixation,245,918074,0.0-76.0-2.36,FALSE,FALSE,FALSE,FALSE,"""event"",""trial"",""time""
""fullscreenenter"",""5"",""14628""
","
","
","""event"",""trial"",""time""
""fullscreenenter"",""5"",""14628""
","
",NA,images/earth.jpg,NA,NA,NA,NA,NA,NA,NA,NA,NA,NA,NA,NA,NA,fixation,NA,NA,NA,NA,NA,NA,sub74
d3-animate-choice,246,920383,0.0-76.0-0.37,FALSE,FALSE,FALSE,FALSE,"""event"",""trial"",""time""
""fullscreenenter"",""5"",""14628""
","
","
","""event"",""trial"",""time""
""fullscreenenter"",""5"",""14628""
","
",294.5249999902444,NA,48,NA,NA,3000,1,NA,NA,images/earth.jpg,images/rocket1,images/rocket2,null,images/rocket1,NA,1,real,null,2,NA,NA,NA,sub74
d3-animate-choice,247,923031,0.0-76.0-1.37,FALSE,FALSE,FALSE,FALSE,"""event"",""trial"",""time""
""fullscreenenter"",""5"",""14628""
","
","
","""event"",""trial"",""time""
""fullscreenenter"",""5"",""14628""
","
",637.4550000036834,NA,49,NA,NA,3000,1,NA,NA,images/redplanet1.jpg,images/alien2,images/alien1,images/rocket1,images/alien1,images/t.png,2,real,false,1,rare,1,2020-06-16T21:07:00Z,sub74
two-step-fixation,248,924041,0.0-76.0-2.37,FALSE,FALSE,FALSE,FALSE,"""event"",""trial"",""time""
""fullscreenenter"",""5"",""14628""
","
","
","""event"",""trial"",""time""
""fullscreenenter"",""5"",""14628""
","
",NA,images/earth.jpg,NA,NA,NA,NA,NA,NA,NA,NA,NA,NA,NA,NA,NA,fixation,NA,NA,NA,NA,NA,NA,sub74
d3-animate-choice,249,926372,0.0-76.0-0.38,FALSE,FALSE,FALSE,FALSE,"""event"",""trial"",""time""
""fullscreenenter"",""5"",""14628""
","
","
","""event"",""trial"",""time""
""fullscreenenter"",""5"",""14628""
","
",316.61500000336673,NA,48,NA,NA,3000,1,NA,NA,images/earth.jpg,images/rocket1,images/rocket2,null,images/rocket1,NA,1,real,null,2,NA,NA,NA,sub74
d3-animate-choice,250,929030,0.0-76.0-1.38,FALSE,FALSE,FALSE,FALSE,"""event"",""trial"",""time""
""fullscreenenter"",""5"",""14628""
","
","
","""event"",""trial"",""time""
""fullscreenenter"",""5"",""14628""
","
",649.4750000128988,NA,48,NA,NA,3000,1,NA,NA,images/purpleplanet.jpg,images/alien4,images/alien3,images/rocket1,images/alien4,images/t.png,2,real,true,2,common,1,2020-06-16T21:07:06Z,sub74
two-step-fixation,251,930042,0.0-76.0-2.38,FALSE,FALSE,FALSE,FALSE,"""event"",""trial"",""time""
""fullscreenenter"",""5"",""14628""
","
","
","""event"",""trial"",""time""
""fullscreenenter"",""5"",""14628""
","
",NA,images/earth.jpg,NA,NA,NA,NA,NA,NA,NA,NA,NA,NA,NA,NA,NA,fixation,NA,NA,NA,NA,NA,NA,sub74
d3-animate-choice,252,932354,0.0-76.0-0.39,FALSE,FALSE,FALSE,FALSE,"""event"",""trial"",""time""
""fullscreenenter"",""5"",""14628""
","
","
","""event"",""trial"",""time""
""fullscreenenter"",""5"",""14628""
","
",295.80999999598134,NA,48,NA,NA,3000,1,NA,NA,images/earth.jpg,images/rocket1,images/rocket2,null,images/rocket1,NA,1,real,null,2,NA,NA,NA,sub74
d3-animate-choice,253,935595,0.0-76.0-1.39,FALSE,FALSE,FALSE,FALSE,"""event"",""trial"",""time""
""fullscreenenter"",""5"",""14628""
","
","
","""event"",""trial"",""time""
""fullscreenenter"",""5"",""14628""
","
",1226.6800000070361,NA,49,NA,NA,3000,1,NA,NA,images/purpleplanet.jpg,images/alien4,images/alien3,images/rocket1,images/alien3,images/t.png,2,real,true,1,common,1,2020-06-16T21:07:13Z,sub74
two-step-fixation,254,936603,0.0-76.0-2.39,FALSE,FALSE,FALSE,FALSE,"""event"",""trial"",""time""
""fullscreenenter"",""5"",""14628""
","
","
","""event"",""trial"",""time""
""fullscreenenter"",""5"",""14628""
","
",NA,images/earth.jpg,NA,NA,NA,NA,NA,NA,NA,NA,NA,NA,NA,NA,NA,fixation,NA,NA,NA,NA,NA,NA,sub74
d3-animate-choice,255,938911,0.0-76.0-0.40,FALSE,FALSE,FALSE,FALSE,"""event"",""trial"",""time""
""fullscreenenter"",""5"",""14628""
","
","
","""event"",""trial"",""time""
""fullscreenenter"",""5"",""14628""
","
",294.60999999719206,NA,48,NA,NA,3000,1,NA,NA,images/earth.jpg,images/rocket1,images/rocket2,null,images/rocket1,NA,1,real,null,2,NA,NA,NA,sub74
d3-animate-choice,256,941274,0.0-76.0-1.40,FALSE,FALSE,FALSE,FALSE,"""event"",""trial"",""time""
""fullscreenenter"",""5"",""14628""
","
","
","""event"",""trial"",""time""
""fullscreenenter"",""5"",""14628""
","
",350.1949999917997,NA,48,NA,NA,3000,1,NA,NA,images/redplanet1.jpg,images/alien2,images/alien1,images/rocket1,images/alien2,images/nothing.png,2,real,false,2,rare,0,2020-06-16T21:07:19Z,sub74
two-step-fixation,257,942282,0.0-76.0-2.40,FALSE,FALSE,FALSE,FALSE,"""event"",""trial"",""time""
""fullscreenenter"",""5"",""14628""
","
","
","""event"",""trial"",""time""
""fullscreenenter"",""5"",""14628""
","
",NA,images/earth.jpg,NA,NA,NA,NA,NA,NA,NA,NA,NA,NA,NA,NA,NA,fixation,NA,NA,NA,NA,NA,NA,sub74
d3-animate-choice,258,944592,0.0-76.0-0.41,FALSE,FALSE,FALSE,FALSE,"""event"",""trial"",""time""
""fullscreenenter"",""5"",""14628""
","
","
","""event"",""trial"",""time""
""fullscreenenter"",""5"",""14628""
","
",295.895000002929,NA,48,NA,NA,3000,1,NA,NA,images/earth.jpg,images/rocket1,images/rocket2,null,images/rocket1,NA,1,real,null,2,NA,NA,NA,sub74
d3-animate-choice,259,947124,0.0-76.0-1.41,FALSE,FALSE,FALSE,FALSE,"""event"",""trial"",""time""
""fullscreenenter"",""5"",""14628""
","
","
","""event"",""trial"",""time""
""fullscreenenter"",""5"",""14628""
","
",523.1799999892246,NA,48,NA,NA,3000,1,NA,NA,images/purpleplanet.jpg,images/alien4,images/alien3,images/rocket1,images/alien4,images/nothing.png,2,real,true,2,common,0,2020-06-16T21:07:25Z,sub74
two-step-fixation,260,948135,0.0-76.0-2.41,FALSE,FALSE,FALSE,FALSE,"""event"",""trial"",""time""
""fullscreenenter"",""5"",""14628""
","
","
","""event"",""trial"",""time""
""fullscreenenter"",""5"",""14628""
","
",NA,images/earth.jpg,NA,NA,NA,NA,NA,NA,NA,NA,NA,NA,NA,NA,NA,fixation,NA,NA,NA,NA,NA,NA,sub74
d3-animate-choice,261,950393,0.0-76.0-0.42,FALSE,FALSE,FALSE,FALSE,"""event"",""trial"",""time""
""fullscreenenter"",""5"",""14628""
","
","
","""event"",""trial"",""time""
""fullscreenenter"",""5"",""14628""
","
",242.45000000519212,NA,48,NA,NA,3000,1,NA,NA,images/earth.jpg,images/rocket1,images/rocket2,null,images/rocket1,NA,1,real,null,2,NA,NA,NA,sub74
d3-animate-choice,262,952910,0.0-76.0-1.42,FALSE,FALSE,FALSE,FALSE,"""event"",""trial"",""time""
""fullscreenenter"",""5"",""14628""
","
","
","""event"",""trial"",""time""
""fullscreenenter"",""5"",""14628""
","
",507.63999999617226,NA,48,NA,NA,3000,1,NA,NA,images/redplanet1.jpg,images/alien2,images/alien1,images/rocket1,images/alien2,images/nothing.png,2,real,false,2,rare,0,2020-06-16T21:07:30Z,sub74
two-step-fixation,263,953921,0.0-76.0-2.42,FALSE,FALSE,FALSE,FALSE,"""event"",""trial"",""time""
""fullscreenenter"",""5"",""14628""
","
","
","""event"",""trial"",""time""
""fullscreenenter"",""5"",""14628""
","
",NA,images/earth.jpg,NA,NA,NA,NA,NA,NA,NA,NA,NA,NA,NA,NA,NA,fixation,NA,NA,NA,NA,NA,NA,sub74
d3-animate-choice,264,956251,0.0-76.0-0.43,FALSE,FALSE,FALSE,FALSE,"""event"",""trial"",""time""
""fullscreenenter"",""5"",""14628""
","
","
","""event"",""trial"",""time""
""fullscreenenter"",""5"",""14628""
","
",316.78999999712687,NA,48,NA,NA,3000,1,NA,NA,images/earth.jpg,images/rocket1,images/rocket2,null,images/rocket1,NA,1,real,null,2,NA,NA,NA,sub74
d3-animate-choice,265,958651,0.0-76.0-1.43,FALSE,FALSE,FALSE,FALSE,"""event"",""trial"",""time""
""fullscreenenter"",""5"",""14628""
","
","
","""event"",""trial"",""time""
""fullscreenenter"",""5"",""14628""
","
",389.31500000762753,NA,48,NA,NA,3000,1,NA,NA,images/purpleplanet.jpg,images/alien4,images/alien3,images/rocket1,images/alien4,images/t.png,2,real,true,2,common,1,2020-06-16T21:07:36Z,sub74
two-step-fixation,266,959659,0.0-76.0-2.43,FALSE,FALSE,FALSE,FALSE,"""event"",""trial"",""time""
""fullscreenenter"",""5"",""14628""
","
","
","""event"",""trial"",""time""
""fullscreenenter"",""5"",""14628""
","
",NA,images/earth.jpg,NA,NA,NA,NA,NA,NA,NA,NA,NA,NA,NA,NA,NA,fixation,NA,NA,NA,NA,NA,NA,sub74
d3-animate-choice,267,962004,0.0-76.0-0.44,FALSE,FALSE,FALSE,FALSE,"""event"",""trial"",""time""
""fullscreenenter"",""5"",""14628""
","
","
","""event"",""trial"",""time""
""fullscreenenter"",""5"",""14628""
","
",328.2550000003539,NA,48,NA,NA,3000,1,NA,NA,images/earth.jpg,images/rocket1,images/rocket2,null,images/rocket1,NA,1,real,null,2,NA,NA,NA,sub74
d3-animate-choice,268,965157,0.0-76.0-1.44,FALSE,FALSE,FALSE,FALSE,"""event"",""trial"",""time""
""fullscreenenter"",""5"",""14628""
","
","
","""event"",""trial"",""time""
""fullscreenenter"",""5"",""14628""
","
",1139.7350000042934,NA,49,NA,NA,3000,1,NA,NA,images/redplanet1.jpg,images/alien2,images/alien1,images/rocket1,images/alien1,images/nothing.png,2,real,false,1,rare,0,2020-06-16T21:07:43Z,sub74
two-step-fixation,269,966169,0.0-76.0-2.44,FALSE,FALSE,FALSE,FALSE,"""event"",""trial"",""time""
""fullscreenenter"",""5"",""14628""
","
","
","""event"",""trial"",""time""
""fullscreenenter"",""5"",""14628""
","
",NA,images/earth.jpg,NA,NA,NA,NA,NA,NA,NA,NA,NA,NA,NA,NA,NA,fixation,NA,NA,NA,NA,NA,NA,sub74
d3-animate-choice,270,968401,0.0-76.0-0.45,FALSE,FALSE,FALSE,FALSE,"""event"",""trial"",""time""
""fullscreenenter"",""5"",""14628""
","
","
","""event"",""trial"",""time""
""fullscreenenter"",""5"",""14628""
","
",222.05000001122244,NA,48,NA,NA,3000,1,NA,NA,images/earth.jpg,images/rocket1,images/rocket2,null,images/rocket1,NA,1,real,null,2,NA,NA,NA,sub74
d3-animate-choice,271,971010,0.0-76.0-1.45,FALSE,FALSE,FALSE,FALSE,"""event"",""trial"",""time""
""fullscreenenter"",""5"",""14628""
","
","
","""event"",""trial"",""time""
""fullscreenenter"",""5"",""14628""
","
",592.7450000017416,NA,48,NA,NA,3000,1,NA,NA,images/purpleplanet.jpg,images/alien4,images/alien3,images/rocket1,images/alien4,images/t.png,2,real,true,2,common,1,2020-06-16T21:07:48Z,sub74
two-step-fixation,272,972025,0.0-76.0-2.45,FALSE,FALSE,FALSE,FALSE,"""event"",""trial"",""time""
""fullscreenenter"",""5"",""14628""
","
","
","""event"",""trial"",""time""
""fullscreenenter"",""5"",""14628""
","
",NA,images/earth.jpg,NA,NA,NA,NA,NA,NA,NA,NA,NA,NA,NA,NA,NA,fixation,NA,NA,NA,NA,NA,NA,sub74
d3-animate-choice,273,974213,0.0-76.0-0.46,FALSE,FALSE,FALSE,FALSE,"""event"",""trial"",""time""
""fullscreenenter"",""5"",""14628""
","
","
","""event"",""trial"",""time""
""fullscreenenter"",""5"",""14628""
","
",176.56999999599066,NA,48,NA,NA,3000,1,NA,NA,images/earth.jpg,images/rocket1,images/rocket2,null,images/rocket1,NA,1,real,null,2,NA,NA,NA,sub74
d3-animate-choice,274,977539,0.0-76.0-1.46,FALSE,FALSE,FALSE,FALSE,"""event"",""trial"",""time""
""fullscreenenter"",""5"",""14628""
","
","
","""event"",""trial"",""time""
""fullscreenenter"",""5"",""14628""
","
",1314.989999998943,NA,49,NA,NA,3000,1,NA,NA,images/purpleplanet.jpg,images/alien4,images/alien3,images/rocket1,images/alien3,images/nothing.png,2,real,true,1,common,0,2020-06-16T21:07:55Z,sub74
two-step-fixation,275,978549,0.0-76.0-2.46,FALSE,FALSE,FALSE,FALSE,"""event"",""trial"",""time""
""fullscreenenter"",""5"",""14628""
","
","
","""event"",""trial"",""time""
""fullscreenenter"",""5"",""14628""
","
",NA,images/earth.jpg,NA,NA,NA,NA,NA,NA,NA,NA,NA,NA,NA,NA,NA,fixation,NA,NA,NA,NA,NA,NA,sub74
d3-animate-choice,276,980617,0.0-76.0-0.47,FALSE,FALSE,FALSE,FALSE,"""event"",""trial"",""time""
""fullscreenenter"",""5"",""14628""
","
","
","""event"",""trial"",""time""
""fullscreenenter"",""5"",""14628""
","
",54.53500000294298,NA,48,NA,NA,3000,1,NA,NA,images/earth.jpg,images/rocket1,images/rocket2,null,images/rocket1,NA,1,real,null,2,NA,NA,NA,sub74
d3-animate-choice,277,983171,0.0-76.0-1.47,FALSE,FALSE,FALSE,FALSE,"""event"",""trial"",""time""
""fullscreenenter"",""5"",""14628""
","
","
","""event"",""trial"",""time""
""fullscreenenter"",""5"",""14628""
","
",542.1300000016345,NA,48,NA,NA,3000,1,NA,NA,images/redplanet1.jpg,images/alien2,images/alien1,images/rocket1,images/alien2,images/nothing.png,2,real,false,2,rare,0,2020-06-16T21:08:01Z,sub74
two-step-fixation,278,984179,0.0-76.0-2.47,FALSE,FALSE,FALSE,FALSE,"""event"",""trial"",""time""
""fullscreenenter"",""5"",""14628""
","
","
","""event"",""trial"",""time""
""fullscreenenter"",""5"",""14628""
","
",NA,images/earth.jpg,NA,NA,NA,NA,NA,NA,NA,NA,NA,NA,NA,NA,NA,fixation,NA,NA,NA,NA,NA,NA,sub74
d3-animate-choice,279,986415,0.0-76.0-0.48,FALSE,FALSE,FALSE,FALSE,"""event"",""trial"",""time""
""fullscreenenter"",""5"",""14628""
","
","
","""event"",""trial"",""time""
""fullscreenenter"",""5"",""14628""
","
",225.50000000046566,NA,48,NA,NA,3000,1,NA,NA,images/earth.jpg,images/rocket1,images/rocket2,null,images/rocket1,NA,1,real,null,2,NA,NA,NA,sub74
d3-animate-choice,280,988869,0.0-76.0-1.48,FALSE,FALSE,FALSE,FALSE,"""event"",""trial"",""time""
""fullscreenenter"",""5"",""14628""
","
","
","""event"",""trial"",""time""
""fullscreenenter"",""5"",""14628""
","
",445.21000000531785,NA,48,NA,NA,3000,1,NA,NA,images/purpleplanet.jpg,images/alien4,images/alien3,images/rocket1,images/alien4,images/nothing.png,2,real,true,2,common,0,2020-06-16T21:08:06Z,sub74
two-step-fixation,281,989879,0.0-76.0-2.48,FALSE,FALSE,FALSE,FALSE,"""event"",""trial"",""time""
""fullscreenenter"",""5"",""14628""
","
","
","""event"",""trial"",""time""
""fullscreenenter"",""5"",""14628""
","
",NA,images/earth.jpg,NA,NA,NA,NA,NA,NA,NA,NA,NA,NA,NA,NA,NA,fixation,NA,NA,NA,NA,NA,NA,sub74
d3-animate-choice,282,992108,0.0-76.0-0.49,FALSE,FALSE,FALSE,FALSE,"""event"",""trial"",""time""
""fullscreenenter"",""5"",""14628""
","
","
