trial_type,trial_index,time_elapsed,internal_node_id,rocket_sides,red_planet_first_rocket,red_display_order,purple_display_order,interactions,blur_events,focus_events,fullscreenenter_events,fullscreenexit_events,rt,stimulus,key_press,button_pressed,success,duration,valid_pressed,rts,keys,planet_text,right_text,left_text,center_text,chosen_text,reward_text,trial_stage,practice_trial,transition_type,choice,transition,reward,timestamp,subject_id
pavlovia,0,4,0.0-0.0,TRUE,TRUE,TRUE,FALSE,"
","
","
","
","
",NA,NA,NA,NA,NA,NA,NA,NA,NA,NA,NA,NA,NA,NA,NA,NA,NA,NA,NA,NA,NA,NA,sub129
html-keyboard-response,1,4995,0.0-1.0,TRUE,TRUE,TRUE,FALSE,"
","
","
","
","
",4990,Welcome! Press the space bar to begin.,66,NA,NA,NA,NA,NA,NA,NA,NA,NA,NA,NA,NA,NA,NA,NA,NA,NA,NA,NA,sub129
audio-keyboard-response,2,11185,0.0-2.0,TRUE,TRUE,TRUE,FALSE,"
","
","
","
","
",6123,audio/beep_loop.wav,32,NA,NA,NA,NA,NA,NA,NA,NA,NA,NA,NA,NA,NA,NA,NA,NA,NA,NA,NA,sub129
audio-button-response,3,13659,0.0-3.0,TRUE,TRUE,TRUE,FALSE,"
","
","
","
","
",NaN,audio/fish.mp3,NA,1,NA,NA,NA,NA,NA,NA,NA,NA,NA,NA,NA,NA,NA,NA,NA,NA,NA,NA,sub129
audio-button-response,4,16001,0.0-4.0,TRUE,TRUE,TRUE,FALSE,"""event"",""trial"",""time""
""fullscreenenter"",""5"",""19934""
","
","
","""event"",""trial"",""time""
""fullscreenenter"",""5"",""19934""
","
",NaN,audio/tiger.mp3,NA,4,NA,NA,NA,NA,NA,NA,NA,NA,NA,NA,NA,NA,NA,NA,NA,NA,NA,NA,sub129
fullscreen,5,20845,0.0-5.0,TRUE,TRUE,TRUE,FALSE,"""event"",""trial"",""time""
""fullscreenenter"",""5"",""19934""
","
","
","""event"",""trial"",""time""
""fullscreenenter"",""5"",""19934""
","
",NA,NA,NA,NA,TRUE,NA,NA,NA,NA,NA,NA,NA,NA,NA,NA,NA,NA,NA,NA,NA,NA,NA,sub129
d3-instructions,6,34330,0.0-6.0,TRUE,TRUE,TRUE,FALSE,"""event"",""trial"",""time""
""fullscreenenter"",""5"",""19934""
","
","
","""event"",""trial"",""time""
""fullscreenenter"",""5"",""19934""
","
",NA,NA,NA,NA,NA,NA,NA,NA,NA,NA,NA,NA,NA,NA,NA,NA,NA,NA,NA,NA,NA,NA,sub129
d3-instructions,7,42691,0.0-7.0,TRUE,TRUE,TRUE,FALSE,"""event"",""trial"",""time""
""fullscreenenter"",""5"",""19934""
","
","
","""event"",""trial"",""time""
""fullscreenenter"",""5"",""19934""
","
",NA,NA,NA,NA,NA,NA,NA,NA,NA,NA,NA,NA,NA,NA,NA,NA,NA,NA,NA,NA,NA,NA,sub129
d3-instructions,8,49135,0.0-8.0,TRUE,TRUE,TRUE,FALSE,"""event"",""trial"",""time""
""fullscreenenter"",""5"",""19934""
","
","
","""event"",""trial"",""time""
""fullscreenenter"",""5"",""19934""
","
",NA,NA,NA,NA,NA,NA,NA,NA,NA,NA,NA,NA,NA,NA,NA,NA,NA,NA,NA,NA,NA,NA,sub129
d3-instructions,9,60174,0.0-9.0,TRUE,TRUE,TRUE,FALSE,"""event"",""trial"",""time""
""fullscreenenter"",""5"",""19934""
","
","
","""event"",""trial"",""time""
""fullscreenenter"",""5"",""19934""
","
",NA,NA,NA,NA,NA,NA,NA,NA,NA,NA,NA,NA,NA,NA,NA,NA,NA,NA,NA,NA,NA,NA,sub129
d3-instructions,10,77608,0.0-10.0,TRUE,TRUE,TRUE,FALSE,"""event"",""trial"",""time""
""fullscreenenter"",""5"",""19934""
","
","
","""event"",""trial"",""time""
""fullscreenenter"",""5"",""19934""
","
",NA,NA,NA,NA,NA,NA,NA,NA,NA,NA,NA,NA,NA,NA,NA,NA,NA,NA,NA,NA,NA,NA,sub129
d3-animate-choice,11,81935,0.0-11.0,TRUE,TRUE,TRUE,FALSE,"""event"",""trial"",""time""
""fullscreenenter"",""5"",""19934""
","
","
","""event"",""trial"",""time""
""fullscreenenter"",""5"",""19934""
","
",2321,NA,49,NA,NA,3000,1,"3539.9999999999854,4117.999999999985",4849,images/tutgreenplanet.jpg,images/tutalien1,images/tutalien2,null,images/tutalien2,NA,NA,practice,null,NA,NA,NA,NA,sub129
d3-animate-choice,12,84126,0.0-12.0,TRUE,TRUE,TRUE,FALSE,"""event"",""trial"",""time""
""fullscreenenter"",""5"",""19934""
","
","
","""event"",""trial"",""time""
""fullscreenenter"",""5"",""19934""
","
",189,NA,48,NA,NA,3000,1,1349.0000000000146,48,images/tutgreenplanet.jpg,images/tutalien1,images/tutalien2,null,images/tutalien1,NA,NA,practice,null,NA,NA,NA,NA,sub129
d3-animate-choice,13,87193,0.0-13.0,TRUE,TRUE,TRUE,FALSE,"""event"",""trial"",""time""
""fullscreenenter"",""5"",""19934""
","
","
","""event"",""trial"",""time""
""fullscreenenter"",""5"",""19934""
","
",1065,NA,49,NA,NA,3000,1,NA,NA,images/tutgreenplanet.jpg,images/tutalien1,images/tutalien2,null,images/tutalien2,NA,NA,practice,null,NA,NA,NA,NA,sub129
d3-animate-choice,14,89642,0.0-14.0,TRUE,TRUE,TRUE,FALSE,"""event"",""trial"",""time""
""fullscreenenter"",""5"",""19934""
","
","
","""event"",""trial"",""time""
""fullscreenenter"",""5"",""19934""
","
",447.0000000000291,NA,48,NA,NA,3000,1,NA,NA,images/tutgreenplanet.jpg,images/tutalien1,images/tutalien2,null,images/tutalien1,NA,NA,practice,null,NA,NA,NA,NA,sub129
d3-instructions,15,95609,0.0-15.0,TRUE,TRUE,TRUE,FALSE,"""event"",""trial"",""time""
""fullscreenenter"",""5"",""19934""
","
","
","""event"",""trial"",""time""
""fullscreenenter"",""5"",""19934""
","
",NA,NA,NA,NA,NA,NA,NA,NA,NA,NA,NA,NA,NA,NA,NA,NA,NA,NA,NA,NA,NA,NA,sub129
d3-instructions,16,98724,0.0-16.0,TRUE,TRUE,TRUE,FALSE,"""event"",""trial"",""time""
""fullscreenenter"",""5"",""19934""
","
","
","""event"",""trial"",""time""
""fullscreenenter"",""5"",""19934""
","
",NA,NA,NA,NA,NA,NA,NA,NA,NA,NA,NA,NA,NA,NA,NA,NA,NA,NA,NA,NA,NA,NA,sub129
d3-instructions,17,104533,0.0-17.0,TRUE,TRUE,TRUE,FALSE,"""event"",""trial"",""time""
""fullscreenenter"",""5"",""19934""
","
","
","""event"",""trial"",""time""
""fullscreenenter"",""5"",""19934""
","
",NA,NA,NA,NA,NA,NA,NA,NA,NA,NA,NA,NA,NA,NA,NA,NA,NA,NA,NA,NA,NA,NA,sub129
d3-instructions,18,116809,0.0-18.0,TRUE,TRUE,TRUE,FALSE,"""event"",""trial"",""time""
""fullscreenenter"",""5"",""19934""
","
","
","""event"",""trial"",""time""
""fullscreenenter"",""5"",""19934""
","
",NA,NA,NA,NA,NA,NA,NA,NA,NA,NA,NA,NA,NA,NA,NA,NA,NA,NA,NA,NA,NA,NA,sub129
d3-instructions,19,130481,0.0-19.0,TRUE,TRUE,TRUE,FALSE,"""event"",""trial"",""time""
""fullscreenenter"",""5"",""19934""
","
","
","""event"",""trial"",""time""
""fullscreenenter"",""5"",""19934""
","
",NA,NA,NA,NA,NA,NA,NA,NA,NA,NA,NA,NA,NA,NA,NA,NA,NA,NA,NA,NA,NA,NA,sub129
d3-animate-choice,20,133580,0.0-20.0,TRUE,TRUE,TRUE,FALSE,"""event"",""trial"",""time""
""fullscreenenter"",""5"",""19934""
","
","
","""event"",""trial"",""time""
""fullscreenenter"",""5"",""19934""
","
",1097,NA,49,NA,NA,3000,1,NA,NA,images/tutyellowplanet.jpg,null,images/tutalien3,null,images/tutalien3,images/t.png,NA,practice,null,NA,NA,NA,NA,sub129
d3-animate-choice,21,135910,0.0-21.0,TRUE,TRUE,TRUE,FALSE,"""event"",""trial"",""time""
""fullscreenenter"",""5"",""19934""
","
","
","""event"",""trial"",""time""
""fullscreenenter"",""5"",""19934""
","
",328.0000000000291,NA,49,NA,NA,3000,1,NA,NA,images/tutyellowplanet.jpg,null,images/tutalien3,null,images/tutalien3,images/t.png,NA,practice,null,NA,NA,NA,NA,sub129
d3-animate-choice,22,138238,0.0-22.0,TRUE,TRUE,TRUE,FALSE,"""event"",""trial"",""time""
""fullscreenenter"",""5"",""19934""
","
","
","""event"",""trial"",""time""
""fullscreenenter"",""5"",""19934""
","
",327,NA,49,NA,NA,3000,1,NA,NA,images/tutyellowplanet.jpg,null,images/tutalien3,null,images/tutalien3,images/nothing.png,NA,practice,null,NA,NA,NA,NA,sub129
d3-animate-choice,23,140574,0.0-23.0,TRUE,TRUE,TRUE,FALSE,"""event"",""trial"",""time""
""fullscreenenter"",""5"",""19934""
","
","
","""event"",""trial"",""time""
""fullscreenenter"",""5"",""19934""
","
",333,NA,49,NA,NA,3000,1,NA,NA,images/tutyellowplanet.jpg,null,images/tutalien3,null,images/tutalien3,images/t.png,NA,practice,null,NA,NA,NA,NA,sub129
d3-animate-choice,24,142934,0.0-24.0,TRUE,TRUE,TRUE,FALSE,"""event"",""trial"",""time""
""fullscreenenter"",""5"",""19934""
","
","
","""event"",""trial"",""time""
""fullscreenenter"",""5"",""19934""
","
",358.0000000000291,NA,49,NA,NA,3000,1,NA,NA,images/tutyellowplanet.jpg,null,images/tutalien3,null,images/tutalien3,images/t.png,NA,practice,null,NA,NA,NA,NA,sub129
d3-animate-choice,25,145196,0.0-25.0,TRUE,TRUE,TRUE,FALSE,"""event"",""trial"",""time""
""fullscreenenter"",""5"",""19934""
","
","
","""event"",""trial"",""time""
""fullscreenenter"",""5"",""19934""
","
",261,NA,49,NA,NA,3000,1,NA,NA,images/tutyellowplanet.jpg,null,images/tutalien3,null,images/tutalien3,images/t.png,NA,practice,null,NA,NA,NA,NA,sub129
d3-animate-choice,26,147456,0.0-26.0,TRUE,TRUE,TRUE,FALSE,"""event"",""trial"",""time""
""fullscreenenter"",""5"",""19934""
","
","
","""event"",""trial"",""time""
""fullscreenenter"",""5"",""19934""
","
",257,NA,49,NA,NA,3000,1,NA,NA,images/tutyellowplanet.jpg,null,images/tutalien3,null,images/tutalien3,images/t.png,NA,practice,null,NA,NA,NA,NA,sub129
d3-animate-choice,27,149752,0.0-27.0,TRUE,TRUE,TRUE,FALSE,"""event"",""trial"",""time""
""fullscreenenter"",""5"",""19934""
","
","
","""event"",""trial"",""time""
""fullscreenenter"",""5"",""19934""
","
",293.9999999999709,NA,49,NA,NA,3000,1,NA,NA,images/tutyellowplanet.jpg,null,images/tutalien3,null,images/tutalien3,images/nothing.png,NA,practice,null,NA,NA,NA,NA,sub129
d3-animate-choice,28,152102,0.0-28.0,TRUE,TRUE,TRUE,FALSE,"""event"",""trial"",""time""
""fullscreenenter"",""5"",""19934""
","
","
","""event"",""trial"",""time""
""fullscreenenter"",""5"",""19934""
","
",350,NA,49,NA,NA,3000,1,NA,NA,images/tutyellowplanet.jpg,null,images/tutalien3,null,images/tutalien3,images/t.png,NA,practice,null,NA,NA,NA,NA,sub129
d3-animate-choice,29,154555,0.0-29.0,TRUE,TRUE,TRUE,FALSE,"""event"",""trial"",""time""
""fullscreenenter"",""5"",""19934""
","
","
","""event"",""trial"",""time""
""fullscreenenter"",""5"",""19934""
","
",450,NA,49,NA,NA,3000,1,2375,49,images/tutyellowplanet.jpg,null,images/tutalien3,null,images/tutalien3,images/t.png,NA,practice,null,NA,NA,NA,NA,sub129
d3-instructions,30,161282,0.0-30.0,TRUE,TRUE,TRUE,FALSE,"""event"",""trial"",""time""
""fullscreenenter"",""5"",""19934""
","
","
","""event"",""trial"",""time""
""fullscreenenter"",""5"",""19934""
","
",NA,NA,NA,NA,NA,NA,NA,NA,NA,NA,NA,NA,NA,NA,NA,NA,NA,NA,NA,NA,NA,NA,sub129
d3-instructions,31,164811,0.0-31.0,TRUE,TRUE,TRUE,FALSE,"""event"",""trial"",""time""
""fullscreenenter"",""5"",""19934""
","
","
","""event"",""trial"",""time""
""fullscreenenter"",""5"",""19934""
","
",NA,NA,NA,NA,NA,NA,NA,NA,NA,NA,NA,NA,NA,NA,NA,NA,NA,NA,NA,NA,NA,NA,sub129
d3-instructions,32,172251,0.0-32.0,TRUE,TRUE,TRUE,FALSE,"""event"",""trial"",""time""
""fullscreenenter"",""5"",""19934""
","
","
","""event"",""trial"",""time""
""fullscreenenter"",""5"",""19934""
","
",NA,NA,NA,NA,NA,NA,NA,NA,NA,NA,NA,NA,NA,NA,NA,NA,NA,NA,NA,NA,NA,NA,sub129
d3-instructions,33,175065,0.0-33.0,TRUE,TRUE,TRUE,FALSE,"""event"",""trial"",""time""
""fullscreenenter"",""5"",""19934""
","
","
","""event"",""trial"",""time""
""fullscreenenter"",""5"",""19934""
","
",NA,NA,NA,NA,NA,NA,NA,NA,NA,NA,NA,NA,NA,NA,NA,NA,NA,NA,NA,NA,NA,NA,sub129
d3-animate-choice,34,178396,0.0-34.0,TRUE,TRUE,TRUE,FALSE,"""event"",""trial"",""time""
""fullscreenenter"",""5"",""19934""
","
","
","""event"",""trial"",""time""
""fullscreenenter"",""5"",""19934""
","
",1330.000000000029,NA,49,NA,NA,3000,1,NA,NA,images/tutgreenplanet.jpg,images/tutalien1,images/tutalien2,null,images/tutalien2,images/t.png,NA,practice,null,NA,NA,NA,NA,sub129
d3-animate-choice,35,182370,0.0-35.0,TRUE,TRUE,TRUE,FALSE,"""event"",""trial"",""time""
""fullscreenenter"",""5"",""19934""
","
","
","""event"",""trial"",""time""
""fullscreenenter"",""5"",""19934""
","
",1970,NA,49,NA,NA,3000,1,NA,NA,images/tutgreenplanet.jpg,images/tutalien1,images/tutalien2,null,images/tutalien2,images/t.png,NA,practice,null,NA,NA,NA,NA,sub129
d3-animate-choice,36,185814,0.0-36.0,TRUE,TRUE,TRUE,FALSE,"""event"",""trial"",""time""
""fullscreenenter"",""5"",""19934""
","
","
","""event"",""trial"",""time""
""fullscreenenter"",""5"",""19934""
","
",1442.000000000029,NA,48,NA,NA,3000,1,NA,NA,images/tutgreenplanet.jpg,images/tutalien1,images/tutalien2,null,images/tutalien1,images/t.png,NA,practice,null,NA,NA,NA,NA,sub129
d3-animate-choice,37,189160,0.0-37.0,TRUE,TRUE,TRUE,FALSE,"""event"",""trial"",""time""
""fullscreenenter"",""5"",""19934""
","
","
","""event"",""trial"",""time""
""fullscreenenter"",""5"",""19934""
","
",1343,NA,49,NA,NA,3000,1,NA,NA,images/tutgreenplanet.jpg,images/tutalien1,images/tutalien2,null,images/tutalien2,images/t.png,NA,practice,null,NA,NA,NA,NA,sub129
d3-animate-choice,38,191982,0.0-38.0,TRUE,TRUE,TRUE,FALSE,"""event"",""trial"",""time""
""fullscreenenter"",""5"",""19934""
","
","
","""event"",""trial"",""time""
""fullscreenenter"",""5"",""19934""
","
",819,NA,49,NA,NA,3000,1,NA,NA,images/tutgreenplanet.jpg,images/tutalien1,images/tutalien2,null,images/tutalien2,images/t.png,NA,practice,null,NA,NA,NA,NA,sub129
d3-animate-choice,39,194918,0.0-39.0,TRUE,TRUE,TRUE,FALSE,"""event"",""trial"",""time""
""fullscreenenter"",""5"",""19934""
","
","
","""event"",""trial"",""time""
""fullscreenenter"",""5"",""19934""
","
",932,NA,49,NA,NA,3000,1,NA,NA,images/tutgreenplanet.jpg,images/tutalien1,images/tutalien2,null,images/tutalien2,images/t.png,NA,practice,null,NA,NA,NA,NA,sub129
d3-animate-choice,40,197902,0.0-40.0,TRUE,TRUE,TRUE,FALSE,"""event"",""trial"",""time""
""fullscreenenter"",""5"",""19934""
","
","
","""event"",""trial"",""time""
""fullscreenenter"",""5"",""19934""
","
",981,NA,49,NA,NA,3000,1,NA,NA,images/tutgreenplanet.jpg,images/tutalien1,images/tutalien2,null,images/tutalien2,images/nothing.png,NA,practice,null,NA,NA,NA,NA,sub129
d3-animate-choice,41,201843,0.0-41.0,TRUE,TRUE,TRUE,FALSE,"""event"",""trial"",""time""
""fullscreenenter"",""5"",""19934""
","
","
","""event"",""trial"",""time""
""fullscreenenter"",""5"",""19934""
","
",1939,NA,48,NA,NA,3000,1,NA,NA,images/tutgreenplanet.jpg,images/tutalien1,images/tutalien2,null,images/tutalien1,images/t.png,NA,practice,null,NA,NA,NA,NA,sub129
d3-animate-choice,42,205003,0.0-42.0,TRUE,TRUE,TRUE,FALSE,"""event"",""trial"",""time""
""fullscreenenter"",""5"",""19934""
","
","
","""event"",""trial"",""time""
""fullscreenenter"",""5"",""19934""
","
",1158,NA,48,NA,NA,3000,1,NA,NA,images/tutgreenplanet.jpg,images/tutalien1,images/tutalien2,null,images/tutalien1,images/nothing.png,NA,practice,null,NA,NA,NA,NA,sub129
d3-animate-choice,43,207454,0.0-43.0,TRUE,TRUE,TRUE,FALSE,"""event"",""trial"",""time""
""fullscreenenter"",""5"",""19934""
","
","
","""event"",""trial"",""time""
""fullscreenenter"",""5"",""19934""
","
",448,NA,49,NA,NA,3000,1,NA,NA,images/tutgreenplanet.jpg,images/tutalien1,images/tutalien2,null,images/tutalien2,images/t.png,NA,practice,null,NA,NA,NA,NA,sub129
d3-instructions,44,220739,0.0-44.0,TRUE,TRUE,TRUE,FALSE,"""event"",""trial"",""time""
""fullscreenenter"",""5"",""19934""
","
","
","""event"",""trial"",""time""
""fullscreenenter"",""5"",""19934""
","
",NA,NA,NA,NA,NA,NA,NA,NA,NA,NA,NA,NA,NA,NA,NA,NA,NA,NA,NA,NA,NA,NA,sub129
d3-instructions,45,226927,0.0-45.0,TRUE,TRUE,TRUE,FALSE,"""event"",""trial"",""time""
""fullscreenenter"",""5"",""19934""
","
","
","""event"",""trial"",""time""
""fullscreenenter"",""5"",""19934""
","
",NA,NA,NA,NA,NA,NA,NA,NA,NA,NA,NA,NA,NA,NA,NA,NA,NA,NA,NA,NA,NA,NA,sub129
d3-instructions,46,231497,0.0-46.0,TRUE,TRUE,TRUE,FALSE,"""event"",""trial"",""time""
""fullscreenenter"",""5"",""19934""
","
","
","""event"",""trial"",""time""
""fullscreenenter"",""5"",""19934""
","
",NA,NA,NA,NA,NA,NA,NA,NA,NA,NA,NA,NA,NA,NA,NA,NA,NA,NA,NA,NA,NA,NA,sub129
d3-instructions,47,245148,0.0-47.0,TRUE,TRUE,TRUE,FALSE,"""event"",""trial"",""time""
""fullscreenenter"",""5"",""19934""
","
","
","""event"",""trial"",""time""
""fullscreenenter"",""5"",""19934""
","
",NA,NA,NA,NA,NA,NA,NA,NA,NA,NA,NA,NA,NA,NA,NA,NA,NA,NA,NA,NA,NA,NA,sub129
d3-instructions,48,251391,0.0-48.0,TRUE,TRUE,TRUE,FALSE,"""event"",""trial"",""time""
""fullscreenenter"",""5"",""19934""
","
","
","""event"",""trial"",""time""
""fullscreenenter"",""5"",""19934""
","
",NA,NA,NA,NA,NA,NA,NA,NA,NA,NA,NA,NA,NA,NA,NA,NA,NA,NA,NA,NA,NA,NA,sub129
d3-instructions,49,261768,0.0-49.0,TRUE,TRUE,TRUE,FALSE,"""event"",""trial"",""time""
""fullscreenenter"",""5"",""19934""
","
","
","""event"",""trial"",""time""
""fullscreenenter"",""5"",""19934""
","
",NA,NA,NA,NA,NA,NA,NA,NA,NA,NA,NA,NA,NA,NA,NA,NA,NA,NA,NA,NA,NA,NA,sub129
d3-instructions,50,270398,0.0-50.0,TRUE,TRUE,TRUE,FALSE,"""event"",""trial"",""time""
""fullscreenenter"",""5"",""19934""
","
","
","""event"",""trial"",""time""
""fullscreenenter"",""5"",""19934""
","
",NA,NA,NA,NA,NA,NA,NA,NA,NA,NA,NA,NA,NA,NA,NA,NA,NA,NA,NA,NA,NA,NA,sub129
d3-instructions,51,273968,0.0-51.0,TRUE,TRUE,TRUE,FALSE,"""event"",""trial"",""time""
""fullscreenenter"",""5"",""19934""
","
","
","""event"",""trial"",""time""
""fullscreenenter"",""5"",""19934""
","
",NA,NA,NA,NA,NA,NA,NA,NA,NA,NA,NA,NA,NA,NA,NA,NA,NA,NA,NA,NA,NA,NA,sub129
d3-instructions,52,278066,0.0-52.0,TRUE,TRUE,TRUE,FALSE,"""event"",""trial"",""time""
""fullscreenenter"",""5"",""19934""
","
","
","""event"",""trial"",""time""
""fullscreenenter"",""5"",""19934""
","
",NA,NA,NA,NA,NA,NA,NA,NA,NA,NA,NA,NA,NA,NA,NA,NA,NA,NA,NA,NA,NA,NA,sub129
d3-instructions,53,296165,0.0-53.0,TRUE,TRUE,TRUE,FALSE,"""event"",""trial"",""time""
""fullscreenenter"",""5"",""19934""
","
","
","""event"",""trial"",""time""
""fullscreenenter"",""5"",""19934""
","
",NA,NA,NA,NA,NA,NA,NA,NA,NA,NA,NA,NA,NA,NA,NA,NA,NA,NA,NA,NA,NA,NA,sub129
d3-instructions,54,309743,0.0-54.0,TRUE,TRUE,TRUE,FALSE,"""event"",""trial"",""time""
""fullscreenenter"",""5"",""19934""
","
","
","""event"",""trial"",""time""
""fullscreenenter"",""5"",""19934""
","
",NA,NA,NA,NA,NA,NA,NA,NA,NA,NA,NA,NA,NA,NA,NA,NA,NA,NA,NA,NA,NA,NA,sub129
d3-instructions,55,315418,0.0-55.0,TRUE,TRUE,TRUE,FALSE,"""event"",""trial"",""time""
""fullscreenenter"",""5"",""19934""
","
","
","""event"",""trial"",""time""
""fullscreenenter"",""5"",""19934""
","
",NA,NA,NA,NA,NA,NA,NA,NA,NA,NA,NA,NA,NA,NA,NA,NA,NA,NA,NA,NA,NA,NA,sub129
d3-instructions,56,323363,0.0-56.0,TRUE,TRUE,TRUE,FALSE,"""event"",""trial"",""time""
""fullscreenenter"",""5"",""19934""
","
","
","""event"",""trial"",""time""
""fullscreenenter"",""5"",""19934""
","
",NA,NA,NA,NA,NA,NA,NA,NA,NA,NA,NA,NA,NA,NA,NA,NA,NA,NA,NA,NA,NA,NA,sub129
d3-instructions,57,335287,0.0-57.0,TRUE,TRUE,TRUE,FALSE,"""event"",""trial"",""time""
""fullscreenenter"",""5"",""19934""
","
","
","""event"",""trial"",""time""
""fullscreenenter"",""5"",""19934""
","
",NA,NA,NA,NA,NA,NA,NA,NA,NA,NA,NA,NA,NA,NA,NA,NA,NA,NA,NA,NA,NA,NA,sub129
d3-instructions,58,341721,0.0-58.0,TRUE,TRUE,TRUE,FALSE,"""event"",""trial"",""time""
""fullscreenenter"",""5"",""19934""
","
","
","""event"",""trial"",""time""
""fullscreenenter"",""5"",""19934""
","
",NA,NA,NA,NA,NA,NA,NA,NA,NA,NA,NA,NA,NA,NA,NA,NA,NA,NA,NA,NA,NA,NA,sub129
d3-instructions,59,346864,0.0-59.0,TRUE,TRUE,TRUE,FALSE,"""event"",""trial"",""time""
""fullscreenenter"",""5"",""19934""
","
","
","""event"",""trial"",""time""
""fullscreenenter"",""5"",""19934""
","
",NA,NA,NA,NA,NA,NA,NA,NA,NA,NA,NA,NA,NA,NA,NA,NA,NA,NA,NA,NA,NA,NA,sub129
d3-instructions,60,354508,0.0-60.0,TRUE,TRUE,TRUE,FALSE,"""event"",""trial"",""time""
""fullscreenenter"",""5"",""19934""
","
","
","""event"",""trial"",""time""
""fullscreenenter"",""5"",""19934""
","
",NA,NA,NA,NA,NA,NA,NA,NA,NA,NA,NA,NA,NA,NA,NA,NA,NA,NA,NA,NA,NA,NA,sub129
d3-animate-choice,61,358027,0.0-61.0-0.0,TRUE,TRUE,TRUE,FALSE,"""event"",""trial"",""time""
""fullscreenenter"",""5"",""19934""
","
","
","""event"",""trial"",""time""
""fullscreenenter"",""5"",""19934""
","
",1516,NA,48,NA,NA,3000,1,NA,NA,images/earth.jpg,images/tutrocket2,images/tutrocket1,null,images/tutrocket2,NA,1,practice,null,2,NA,NA,NA,sub129
d3-animate-choice,62,362032,0.0-61.0-1.0,TRUE,TRUE,TRUE,FALSE,"""event"",""trial"",""time""
""fullscreenenter"",""5"",""19934""
","
","
","""event"",""trial"",""time""
""fullscreenenter"",""5"",""19934""
","
",null,NA,null,NA,NA,3000,0,NA,NA,images/tutgreenplanet.jpg,images/tutalien2,images/tutalien1,images/tutrocket2,NA,NA,2,practice,false,NA,rare,0,2020-06-22T21:29:15Z,sub129
two-step-fixation,63,363035,0.0-61.0-2.0,TRUE,TRUE,TRUE,FALSE,"""event"",""trial"",""time""
""fullscreenenter"",""5"",""19934""
","
","
","""event"",""trial"",""time""
""fullscreenenter"",""5"",""19934""
","
",NA,images/earth.jpg,NA,NA,NA,NA,NA,NA,NA,NA,NA,NA,NA,NA,NA,fixation,NA,NA,NA,NA,NA,NA,sub129
d3-animate-choice,64,365890,0.0-61.0-0.1,TRUE,TRUE,TRUE,FALSE,"""event"",""trial"",""time""
""fullscreenenter"",""5"",""19934""
","
","
","""event"",""trial"",""time""
""fullscreenenter"",""5"",""19934""
","
",852,NA,48,NA,NA,3000,1,NA,NA,images/earth.jpg,images/tutrocket2,images/tutrocket1,null,images/tutrocket2,NA,1,practice,null,2,NA,NA,NA,sub129
d3-animate-choice,65,368651,0.0-61.0-1.1,TRUE,TRUE,TRUE,FALSE,"""event"",""trial"",""time""
""fullscreenenter"",""5"",""19934""
","
","
","""event"",""trial"",""time""
""fullscreenenter"",""5"",""19934""
","
",757.9999999999418,NA,49,NA,NA,3000,1,NA,NA,images/tutyellowplanet.jpg,images/tutalien4,images/tutalien3,images/tutrocket2,images/tutalien3,images/nothing.png,2,practice,true,1,common,0,2020-06-22T21:29:21Z,sub129
two-step-fixation,66,369654,0.0-61.0-2.1,TRUE,TRUE,TRUE,FALSE,"""event"",""trial"",""time""
""fullscreenenter"",""5"",""19934""
","
","
","""event"",""trial"",""time""
""fullscreenenter"",""5"",""19934""
","
",NA,images/earth.jpg,NA,NA,NA,NA,NA,NA,NA,NA,NA,NA,NA,NA,NA,fixation,NA,NA,NA,NA,NA,NA,sub129
d3-animate-choice,67,372698,0.0-61.0-0.2,TRUE,TRUE,TRUE,FALSE,"""event"",""trial"",""time""
""fullscreenenter"",""5"",""19934""
","
","
","""event"",""trial"",""time""
""fullscreenenter"",""5"",""19934""
","
",1042,NA,48,NA,NA,3000,1,NA,NA,images/earth.jpg,images/tutrocket2,images/tutrocket1,null,images/tutrocket2,NA,1,practice,null,2,NA,NA,NA,sub129
d3-animate-choice,68,375702,0.0-61.0-1.2,TRUE,TRUE,TRUE,FALSE,"""event"",""trial"",""time""
""fullscreenenter"",""5"",""19934""
","
","
","""event"",""trial"",""time""
""fullscreenenter"",""5"",""19934""
","
",1002.0000000000582,NA,49,NA,NA,3000,1,NA,NA,images/tutgreenplanet.jpg,images/tutalien2,images/tutalien1,images/tutrocket2,images/tutalien1,images/nothing.png,2,practice,false,1,rare,0,2020-06-22T21:29:28Z,sub129
two-step-fixation,69,376705,0.0-61.0-2.2,TRUE,TRUE,TRUE,FALSE,"""event"",""trial"",""time""
""fullscreenenter"",""5"",""19934""
","
","
","""event"",""trial"",""time""
""fullscreenenter"",""5"",""19934""
","
",NA,images/earth.jpg,NA,NA,NA,NA,NA,NA,NA,NA,NA,NA,NA,NA,NA,fixation,NA,NA,NA,NA,NA,NA,sub129
d3-animate-choice,70,379576,0.0-61.0-0.3,TRUE,TRUE,TRUE,FALSE,"""event"",""trial"",""time""
""fullscreenenter"",""5"",""19934""
","
","
","""event"",""trial"",""time""
""fullscreenenter"",""5"",""19934""
","
",870,NA,49,NA,NA,3000,1,NA,NA,images/earth.jpg,images/tutrocket2,images/tutrocket1,null,images/tutrocket1,NA,1,practice,null,1,NA,NA,NA,sub129
d3-animate-choice,71,382910,0.0-61.0-1.3,TRUE,TRUE,TRUE,FALSE,"""event"",""trial"",""time""
""fullscreenenter"",""5"",""19934""
","
","
","""event"",""trial"",""time""
""fullscreenenter"",""5"",""19934""
","
",1331.0000000000582,NA,49,NA,NA,3000,1,2272,48,images/tutyellowplanet.jpg,images/tutalien4,images/tutalien3,images/tutrocket1,images/tutalien3,images/t.png,2,practice,false,1,rare,1,2020-06-22T21:29:36Z,sub129
two-step-fixation,72,383912,0.0-61.0-2.3,TRUE,TRUE,TRUE,FALSE,"""event"",""trial"",""time""
""fullscreenenter"",""5"",""19934""
","
","
","""event"",""trial"",""time""
""fullscreenenter"",""5"",""19934""
","
",NA,images/earth.jpg,NA,NA,NA,NA,NA,NA,NA,NA,NA,NA,NA,NA,NA,fixation,NA,NA,NA,NA,NA,NA,sub129
d3-animate-choice,73,386542,0.0-61.0-0.4,TRUE,TRUE,TRUE,FALSE,"""event"",""trial"",""time""
""fullscreenenter"",""5"",""19934""
","
","
","""event"",""trial"",""time""
""fullscreenenter"",""5"",""19934""
","
",627.0000000000582,NA,48,NA,NA,3000,1,NA,NA,images/earth.jpg,images/tutrocket2,images/tutrocket1,null,images/tutrocket2,NA,1,practice,null,2,NA,NA,NA,sub129
d3-animate-choice,74,389705,0.0-61.0-1.4,TRUE,TRUE,TRUE,FALSE,"""event"",""trial"",""time""
""fullscreenenter"",""5"",""19934""
","
","
","""event"",""trial"",""time""
""fullscreenenter"",""5"",""19934""
","
",1160,NA,48,NA,NA,3000,1,NA,NA,images/tutyellowplanet.jpg,images/tutalien4,images/tutalien3,images/tutrocket2,images/tutalien4,images/t.png,2,practice,true,2,common,1,2020-06-22T21:29:42Z,sub129
two-step-fixation,75,390706,0.0-61.0-2.4,TRUE,TRUE,TRUE,FALSE,"""event"",""trial"",""time""
""fullscreenenter"",""5"",""19934""
","
","
","""event"",""trial"",""time""
""fullscreenenter"",""5"",""19934""
","
",NA,images/earth.jpg,NA,NA,NA,NA,NA,NA,NA,NA,NA,NA,NA,NA,NA,fixation,NA,NA,NA,NA,NA,NA,sub129
d3-animate-choice,76,393239,0.0-61.0-0.5,TRUE,TRUE,TRUE,FALSE,"""event"",""trial"",""time""
""fullscreenenter"",""5"",""19934""
","
","
","""event"",""trial"",""time""
""fullscreenenter"",""5"",""19934""
","
",530,NA,49,NA,NA,3000,1,NA,NA,images/earth.jpg,images/tutrocket2,images/tutrocket1,null,images/tutrocket1,NA,1,practice,null,1,NA,NA,NA,sub129
d3-animate-choice,77,396290,0.0-61.0-1.5,TRUE,TRUE,TRUE,FALSE,"""event"",""trial"",""time""
""fullscreenenter"",""5"",""19934""
","
","
","""event"",""trial"",""time""
""fullscreenenter"",""5"",""19934""
","
",1049,NA,48,NA,NA,3000,1,NA,NA,images/tutgreenplanet.jpg,images/tutalien2,images/tutalien1,images/tutrocket1,images/tutalien2,images/t.png,2,practice,true,2,common,1,2020-06-22T21:29:49Z,sub129
two-step-fixation,78,397292,0.0-61.0-2.5,TRUE,TRUE,TRUE,FALSE,"""event"",""trial"",""time""
""fullscreenenter"",""5"",""19934""
","
","
","""event"",""trial"",""time""
""fullscreenenter"",""5"",""19934""
","
",NA,images/earth.jpg,NA,NA,NA,NA,NA,NA,NA,NA,NA,NA,NA,NA,NA,fixation,NA,NA,NA,NA,NA,NA,sub129
d3-animate-choice,79,400485,0.0-61.0-0.6,TRUE,TRUE,TRUE,FALSE,"""event"",""trial"",""time""
""fullscreenenter"",""5"",""19934""
","
","
","""event"",""trial"",""time""
""fullscreenenter"",""5"",""19934""
","
",1190,NA,48,NA,NA,3000,1,NA,NA,images/earth.jpg,images/tutrocket2,images/tutrocket1,null,images/tutrocket2,NA,1,practice,null,2,NA,NA,NA,sub129
d3-animate-choice,80,403083,0.0-61.0-1.6,TRUE,TRUE,TRUE,FALSE,"""event"",""trial"",""time""
""fullscreenenter"",""5"",""19934""
","
","
","""event"",""trial"",""time""
""fullscreenenter"",""5"",""19934""
","
",595.0000000000582,NA,49,NA,NA,3000,1,NA,NA,images/tutyellowplanet.jpg,images/tutalien4,images/tutalien3,images/tutrocket2,images/tutalien3,images/nothing.png,2,practice,true,1,common,0,2020-06-22T21:29:56Z,sub129
two-step-fixation,81,404086,0.0-61.0-2.6,TRUE,TRUE,TRUE,FALSE,"""event"",""trial"",""time""
""fullscreenenter"",""5"",""19934""
","
","
","""event"",""trial"",""time""
""fullscreenenter"",""5"",""19934""
","
",NA,images/earth.jpg,NA,NA,NA,NA,NA,NA,NA,NA,NA,NA,NA,NA,NA,fixation,NA,NA,NA,NA,NA,NA,sub129
d3-animate-choice,82,407720,0.0-61.0-0.7,TRUE,TRUE,TRUE,FALSE,"""event"",""trial"",""time""
""fullscreenenter"",""5"",""19934""
","
","
","""event"",""trial"",""time""
""fullscreenenter"",""5"",""19934""
","
",1632,NA,49,NA,NA,3000,1,NA,NA,images/earth.jpg,images/tutrocket2,images/tutrocket1,null,images/tutrocket1,NA,1,practice,null,1,NA,NA,NA,sub129
d3-animate-choice,83,410091,0.0-61.0-1.7,TRUE,TRUE,TRUE,FALSE,"""event"",""trial"",""time""
""fullscreenenter"",""5"",""19934""
","
","
","""event"",""trial"",""time""
""fullscreenenter"",""5"",""19934""
","
",368,NA,48,NA,NA,3000,1,NA,NA,images/tutgreenplanet.jpg,images/tutalien2,images/tutalien1,images/tutrocket1,images/tutalien2,images/t.png,2,practice,true,2,common,1,2020-06-22T21:30:03Z,sub129
two-step-fixation,84,411093,0.0-61.0-2.7,TRUE,TRUE,TRUE,FALSE,"""event"",""trial"",""time""
""fullscreenenter"",""5"",""19934""
","
","
","""event"",""trial"",""time""
""fullscreenenter"",""5"",""19934""
","
",NA,images/earth.jpg,NA,NA,NA,NA,NA,NA,NA,NA,NA,NA,NA,NA,NA,fixation,NA,NA,NA,NA,NA,NA,sub129
d3-animate-choice,85,413510,0.0-61.0-0.8,TRUE,TRUE,TRUE,FALSE,"""event"",""trial"",""time""
""fullscreenenter"",""5"",""19934""
","
","
","""event"",""trial"",""time""
""fullscreenenter"",""5"",""19934""
","
",414,NA,49,NA,NA,3000,1,NA,NA,images/earth.jpg,images/tutrocket2,images/tutrocket1,null,images/tutrocket1,NA,1,practice,null,1,NA,NA,NA,sub129
d3-animate-choice,86,416107,0.0-61.0-1.8,TRUE,TRUE,TRUE,FALSE,"""event"",""trial"",""time""
""fullscreenenter"",""5"",""19934""
","
","
","""event"",""trial"",""time""
""fullscreenenter"",""5"",""19934""
","
",595,NA,48,NA,NA,3000,1,NA,NA,images/tutgreenplanet.jpg,images/tutalien2,images/tutalien1,images/tutrocket1,images/tutalien2,images/nothing.png,2,practice,true,2,common,0,2020-06-22T21:30:09Z,sub129
two-step-fixation,87,417110,0.0-61.0-2.8,TRUE,TRUE,TRUE,FALSE,"""event"",""trial"",""time""
""fullscreenenter"",""5"",""19934""
","
","
","""event"",""trial"",""time""
""fullscreenenter"",""5"",""19934""
","
",NA,images/earth.jpg,NA,NA,NA,NA,NA,NA,NA,NA,NA,NA,NA,NA,NA,fixation,NA,NA,NA,NA,NA,NA,sub129
d3-animate-choice,88,419625,0.0-61.0-0.9,TRUE,TRUE,TRUE,FALSE,"""event"",""trial"",""time""
""fullscreenenter"",""5"",""19934""
","
","
","""event"",""trial"",""time""
""fullscreenenter"",""5"",""19934""
","
",514,NA,49,NA,NA,3000,1,NA,NA,images/earth.jpg,images/tutrocket2,images/tutrocket1,null,images/tutrocket1,NA,1,practice,null,1,NA,NA,NA,sub129
d3-animate-choice,89,422271,0.0-61.0-1.9,TRUE,TRUE,TRUE,FALSE,"""event"",""trial"",""time""
""fullscreenenter"",""5"",""19934""
","
","
","""event"",""trial"",""time""
""fullscreenenter"",""5"",""19934""
","
",643,NA,49,NA,NA,3000,1,NA,NA,images/tutgreenplanet.jpg,images/tutalien2,images/tutalien1,images/tutrocket1,images/tutalien1,images/t.png,2,practice,true,1,common,1,2020-06-22T21:30:15Z,sub129
two-step-fixation,90,423274,0.0-61.0-2.9,TRUE,TRUE,TRUE,FALSE,"""event"",""trial"",""time""
""fullscreenenter"",""5"",""19934""
","
","
","""event"",""trial"",""time""
""fullscreenenter"",""5"",""19934""
","
",NA,images/earth.jpg,NA,NA,NA,NA,NA,NA,NA,NA,NA,NA,NA,NA,NA,fixation,NA,NA,NA,NA,NA,NA,sub129
d3-animate-choice,91,426961,0.0-61.0-0.10,TRUE,TRUE,TRUE,FALSE,"""event"",""trial"",""time""
""fullscreenenter"",""5"",""19934""
","
","
","""event"",""trial"",""time""
""fullscreenenter"",""5"",""19934""
","
",1684,NA,49,NA,NA,3000,1,NA,NA,images/earth.jpg,images/tutrocket2,images/tutrocket1,null,images/tutrocket1,NA,1,practice,null,1,NA,NA,NA,sub129
d3-animate-choice,92,429438,0.0-61.0-1.10,TRUE,TRUE,TRUE,FALSE,"""event"",""trial"",""time""
""fullscreenenter"",""5"",""19934""
","
","
","""event"",""trial"",""time""
""fullscreenenter"",""5"",""19934""
","
",475,NA,48,NA,NA,3000,1,NA,NA,images/tutgreenplanet.jpg,images/tutalien2,images/tutalien1,images/tutrocket1,images/tutalien2,images/t.png,2,practice,true,2,common,1,2020-06-22T21:30:22Z,sub129
two-step-fixation,93,430440,0.0-61.0-2.10,TRUE,TRUE,TRUE,FALSE,"""event"",""trial"",""time""
""fullscreenenter"",""5"",""19934""
","
","
","""event"",""trial"",""time""
""fullscreenenter"",""5"",""19934""
","
",NA,images/earth.jpg,NA,NA,NA,NA,NA,NA,NA,NA,NA,NA,NA,NA,NA,fixation,NA,NA,NA,NA,NA,NA,sub129
d3-animate-choice,94,432781,0.0-61.0-0.11,TRUE,TRUE,TRUE,FALSE,"""event"",""trial"",""time""
""fullscreenenter"",""5"",""19934""
","
","
","""event"",""trial"",""time""
""fullscreenenter"",""5"",""19934""
","
",339,NA,48,NA,NA,3000,1,NA,NA,images/earth.jpg,images/tutrocket2,images/tutrocket1,null,images/tutrocket2,NA,1,practice,null,2,NA,NA,NA,sub129
d3-animate-choice,95,435748,0.0-61.0-1.11,TRUE,TRUE,TRUE,FALSE,"""event"",""trial"",""time""
""fullscreenenter"",""5"",""19934""
","
","
","""event"",""trial"",""time""
""fullscreenenter"",""5"",""19934""
","
",964,NA,48,NA,NA,3000,1,NA,NA,images/tutgreenplanet.jpg,images/tutalien2,images/tutalien1,images/tutrocket2,images/tutalien2,images/t.png,2,practice,false,2,rare,1,2020-06-22T21:30:28Z,sub129
two-step-fixation,96,436750,0.0-61.0-2.11,TRUE,TRUE,TRUE,FALSE,"""event"",""trial"",""time""
""fullscreenenter"",""5"",""19934""
","
","
","""event"",""trial"",""time""
""fullscreenenter"",""5"",""19934""
","
",NA,images/earth.jpg,NA,NA,NA,NA,NA,NA,NA,NA,NA,NA,NA,NA,NA,fixation,NA,NA,NA,NA,NA,NA,sub129
d3-animate-choice,97,439564,0.0-61.0-0.12,TRUE,TRUE,TRUE,FALSE,"""event"",""trial"",""time""
""fullscreenenter"",""5"",""19934""
","
","
","""event"",""trial"",""time""
""fullscreenenter"",""5"",""19934""
","
",811,NA,48,NA,NA,3000,1,NA,NA,images/earth.jpg,images/tutrocket2,images/tutrocket1,null,images/tutrocket2,NA,1,practice,null,2,NA,NA,NA,sub129
d3-animate-choice,98,442358,0.0-61.0-1.12,TRUE,TRUE,TRUE,FALSE,"""event"",""trial"",""time""
""fullscreenenter"",""5"",""19934""
","
","
","""event"",""trial"",""time""
""fullscreenenter"",""5"",""19934""
","
",792,NA,49,NA,NA,3000,1,NA,NA,images/tutyellowplanet.jpg,images/tutalien4,images/tutalien3,images/tutrocket2,images/tutalien3,images/nothing.png,2,practice,true,1,common,0,2020-06-22T21:30:35Z,sub129
two-step-fixation,99,443361,0.0-61.0-2.12,TRUE,TRUE,TRUE,FALSE,"""event"",""trial"",""time""
""fullscreenenter"",""5"",""19934""
","
","
","""event"",""trial"",""time""
""fullscreenenter"",""5"",""19934""
","
",NA,images/earth.jpg,NA,NA,NA,NA,NA,NA,NA,NA,NA,NA,NA,NA,NA,fixation,NA,NA,NA,NA,NA,NA,sub129
d3-animate-choice,100,445689,0.0-61.0-0.13,TRUE,TRUE,TRUE,FALSE,"""event"",""trial"",""time""
""fullscreenenter"",""5"",""19934""
","
","
","""event"",""trial"",""time""
""fullscreenenter"",""5"",""19934""
","
",325.9999999999418,NA,48,NA,NA,3000,1,NA,NA,images/earth.jpg,images/tutrocket2,images/tutrocket1,null,images/tutrocket2,NA,1,practice,null,2,NA,NA,NA,sub129
d3-animate-choice,101,448139,0.0-61.0-1.13,TRUE,TRUE,TRUE,FALSE,"""event"",""trial"",""time""
""fullscreenenter"",""5"",""19934""
","
","
","""event"",""trial"",""time""
""fullscreenenter"",""5"",""19934""
","
",447,NA,49,NA,NA,3000,1,NA,NA,images/tutyellowplanet.jpg,images/tutalien4,images/tutalien3,images/tutrocket2,images/tutalien3,images/nothing.png,2,practice,true,1,common,0,2020-06-22T21:30:41Z,sub129
two-step-fixation,102,449142,0.0-61.0-2.13,TRUE,TRUE,TRUE,FALSE,"""event"",""trial"",""time""
""fullscreenenter"",""5"",""19934""
","
","
","""event"",""trial"",""time""
""fullscreenenter"",""5"",""19934""
","
",NA,images/earth.jpg,NA,NA,NA,NA,NA,NA,NA,NA,NA,NA,NA,NA,NA,fixation,NA,NA,NA,NA,NA,NA,sub129
d3-animate-choice,103,451657,0.0-61.0-0.14,TRUE,TRUE,TRUE,FALSE,"""event"",""trial"",""time""
""fullscreenenter"",""5"",""19934""
","
","
","""event"",""trial"",""time""
""fullscreenenter"",""5"",""19934""
","
",512,NA,48,NA,NA,3000,1,NA,NA,images/earth.jpg,images/tutrocket2,images/tutrocket1,null,images/tutrocket2,NA,1,practice,null,2,NA,NA,NA,sub129
d3-animate-choice,104,454028,0.0-61.0-1.14,TRUE,TRUE,TRUE,FALSE,"""event"",""trial"",""time""
""fullscreenenter"",""5"",""19934""
","
","
","""event"",""trial"",""time""
""fullscreenenter"",""5"",""19934""
","
",368.9999999999418,NA,48,NA,NA,3000,1,NA,NA,images/tutyellowplanet.jpg,images/tutalien4,images/tutalien3,images/tutrocket2,images/tutalien4,images/nothing.png,2,practice,true,2,common,0,2020-06-22T21:30:47Z,sub129
two-step-fixation,105,455030,0.0-61.0-2.14,TRUE,TRUE,TRUE,FALSE,"""event"",""trial"",""time""
""fullscreenenter"",""5"",""19934""
","
","
","""event"",""trial"",""time""
""fullscreenenter"",""5"",""19934""
","
",NA,images/earth.jpg,NA,NA,NA,NA,NA,NA,NA,NA,NA,NA,NA,NA,NA,fixation,NA,NA,NA,NA,NA,NA,sub129
d3-animate-choice,106,457517,0.0-61.0-0.15,TRUE,TRUE,TRUE,FALSE,"""event"",""trial"",""time""
""fullscreenenter"",""5"",""19934""
","
","
","""event"",""trial"",""time""
""fullscreenenter"",""5"",""19934""
","
",484.0000000000582,NA,49,NA,NA,3000,1,NA,NA,images/earth.jpg,images/tutrocket2,images/tutrocket1,null,images/tutrocket1,NA,1,practice,null,1,NA,NA,NA,sub129
d3-animate-choice,107,459931,0.0-61.0-1.15,TRUE,TRUE,TRUE,FALSE,"""event"",""trial"",""time""
""fullscreenenter"",""5"",""19934""
","
","
","""event"",""trial"",""time""
""fullscreenenter"",""5"",""19934""
","
",411,NA,48,NA,NA,3000,1,NA,NA,images/tutyellowplanet.jpg,images/tutalien4,images/tutalien3,images/tutrocket1,images/tutalien4,images/nothing.png,2,practice,false,2,rare,0,2020-06-22T21:30:53Z,sub129
two-step-fixation,108,460932,0.0-61.0-2.15,TRUE,TRUE,TRUE,FALSE,"""event"",""trial"",""time""
""fullscreenenter"",""5"",""19934""
","
","
","""event"",""trial"",""time""
""fullscreenenter"",""5"",""19934""
","
",NA,images/earth.jpg,NA,NA,NA,NA,NA,NA,NA,NA,NA,NA,NA,NA,NA,fixation,NA,NA,NA,NA,NA,NA,sub129
d3-animate-choice,109,463251,0.0-61.0-0.16,TRUE,TRUE,TRUE,FALSE,"""event"",""trial"",""time""
""fullscreenenter"",""5"",""19934""
","
","
","""event"",""trial"",""time""
""fullscreenenter"",""5"",""19934""
","
",317,NA,49,NA,NA,3000,1,NA,NA,images/earth.jpg,images/tutrocket2,images/tutrocket1,null,images/tutrocket1,NA,1,practice,null,1,NA,NA,NA,sub129
d3-animate-choice,110,465721,0.0-61.0-1.16,TRUE,TRUE,TRUE,FALSE,"""event"",""trial"",""time""
""fullscreenenter"",""5"",""19934""
","
","
","""event"",""trial"",""time""
""fullscreenenter"",""5"",""19934""
","
",468,NA,48,NA,NA,3000,1,NA,NA,images/tutgreenplanet.jpg,images/tutalien2,images/tutalien1,images/tutrocket1,images/tutalien2,images/nothing.png,2,practice,true,2,common,0,2020-06-22T21:30:58Z,sub129
two-step-fixation,111,466722,0.0-61.0-2.16,TRUE,TRUE,TRUE,FALSE,"""event"",""trial"",""time""
""fullscreenenter"",""5"",""19934""
","
","
","""event"",""trial"",""time""
""fullscreenenter"",""5"",""19934""
","
",NA,images/earth.jpg,NA,NA,NA,NA,NA,NA,NA,NA,NA,NA,NA,NA,NA,fixation,NA,NA,NA,NA,NA,NA,sub129
d3-animate-choice,112,469105,0.0-61.0-0.17,TRUE,TRUE,TRUE,FALSE,"""event"",""trial"",""time""
""fullscreenenter"",""5"",""19934""
","
","
","""event"",""trial"",""time""
""fullscreenenter"",""5"",""19934""
","
",380,NA,49,NA,NA,3000,1,NA,NA,images/earth.jpg,images/tutrocket2,images/tutrocket1,null,images/tutrocket1,NA,1,practice,null,1,NA,NA,NA,sub129
d3-animate-choice,113,471518,0.0-61.0-1.17,TRUE,TRUE,TRUE,FALSE,"""event"",""trial"",""time""
""fullscreenenter"",""5"",""19934""
","
","
","""event"",""trial"",""time""
""fullscreenenter"",""5"",""19934""
","
",410.9999999999418,NA,49,NA,NA,3000,1,NA,NA,images/tutyellowplanet.jpg,images/tutalien4,images/tutalien3,images/tutrocket1,images/tutalien3,images/nothing.png,2,practice,false,1,rare,0,2020-06-22T21:31:04Z,sub129
two-step-fixation,114,472520,0.0-61.0-2.17,TRUE,TRUE,TRUE,FALSE,"""event"",""trial"",""time""
""fullscreenenter"",""5"",""19934""
","
","
","""event"",""trial"",""time""
""fullscreenenter"",""5"",""19934""
","
",NA,images/earth.jpg,NA,NA,NA,NA,NA,NA,NA,NA,NA,NA,NA,NA,NA,fixation,NA,NA,NA,NA,NA,NA,sub129
d3-animate-choice,115,474900,0.0-61.0-0.18,TRUE,TRUE,TRUE,FALSE,"""event"",""trial"",""time""
""fullscreenenter"",""5"",""19934""
","
","
","""event"",""trial"",""time""
""fullscreenenter"",""5"",""19934""
","
",378.0000000000582,NA,48,NA,NA,3000,1,NA,NA,images/earth.jpg,images/tutrocket2,images/tutrocket1,null,images/tutrocket2,NA,1,practice,null,2,NA,NA,NA,sub129
d3-animate-choice,116,477755,0.0-61.0-1.18,TRUE,TRUE,TRUE,FALSE,"""event"",""trial"",""time""
""fullscreenenter"",""5"",""19934""
","
","
","""event"",""trial"",""time""
""fullscreenenter"",""5"",""19934""
","
",853.0000000000582,NA,49,NA,NA,3000,1,NA,NA,images/tutyellowplanet.jpg,images/tutalien4,images/tutalien3,images/tutrocket2,images/tutalien3,images/t.png,2,practice,true,1,common,1,2020-06-22T21:31:10Z,sub129
two-step-fixation,117,478758,0.0-61.0-2.18,TRUE,TRUE,TRUE,FALSE,"""event"",""trial"",""time""
""fullscreenenter"",""5"",""19934""
","
","
","""event"",""trial"",""time""
""fullscreenenter"",""5"",""19934""
","
",NA,images/earth.jpg,NA,NA,NA,NA,NA,NA,NA,NA,NA,NA,NA,NA,NA,fixation,NA,NA,NA,NA,NA,NA,sub129
d3-animate-choice,118,481263,0.0-61.0-0.19,TRUE,TRUE,TRUE,FALSE,"""event"",""trial"",""time""
""fullscreenenter"",""5"",""19934""
","
","
","""event"",""trial"",""time""
""fullscreenenter"",""5"",""19934""
","
",504,NA,49,NA,NA,3000,1,NA,NA,images/earth.jpg,images/tutrocket2,images/tutrocket1,null,images/tutrocket1,NA,1,practice,null,1,NA,NA,NA,sub129
d3-animate-choice,119,484399,0.0-61.0-1.19,TRUE,TRUE,TRUE,FALSE,"""event"",""trial"",""time""
""fullscreenenter"",""5"",""19934""
","
","
","""event"",""trial"",""time""
""fullscreenenter"",""5"",""19934""
","
",1134,NA,49,NA,NA,3000,1,NA,NA,images/tutyellowplanet.jpg,images/tutalien4,images/tutalien3,images/tutrocket1,images/tutalien3,images/nothing.png,2,practice,false,1,rare,0,2020-06-22T21:31:17Z,sub129
two-step-fixation,120,485401,0.0-61.0-2.19,TRUE,TRUE,TRUE,FALSE,"""event"",""trial"",""time""
""fullscreenenter"",""5"",""19934""
","
","
","""event"",""trial"",""time""
""fullscreenenter"",""5"",""19934""
","
",NA,images/earth.jpg,NA,NA,NA,NA,NA,NA,NA,NA,NA,NA,NA,NA,NA,fixation,NA,NA,NA,NA,NA,NA,sub129
d3-instructions,121,491866,0.0-62.0,TRUE,TRUE,TRUE,FALSE,"""event"",""trial"",""time""
""fullscreenenter"",""5"",""19934""
","
","
","""event"",""trial"",""time""
""fullscreenenter"",""5"",""19934""
","
",NA,NA,NA,NA,NA,NA,NA,NA,NA,NA,NA,NA,NA,NA,NA,NA,NA,NA,NA,NA,NA,NA,sub129
audio-keyboard-response,122,496516,0.0-63.0,TRUE,TRUE,TRUE,FALSE,"""event"",""trial"",""time""
""fullscreenenter"",""5"",""19934""
","
","
","""event"",""trial"",""time""
""fullscreenenter"",""5"",""19934""
","
",4651,audio/instructions/treasure_feedback.wav,32,NA,NA,NA,NA,NA,NA,NA,NA,NA,NA,NA,NA,NA,NA,NA,NA,NA,NA,NA,sub129
d3-instructions,123,515061,0.0-64.0,TRUE,TRUE,TRUE,FALSE,"""event"",""trial"",""time""
""fullscreenenter"",""5"",""19934""
","
","
","""event"",""trial"",""time""
""fullscreenenter"",""5"",""19934""
","
",NA,NA,NA,NA,NA,NA,NA,NA,NA,NA,NA,NA,NA,NA,NA,NA,NA,NA,NA,NA,NA,NA,sub129
d3-instructions,124,532491,0.0-65.0,TRUE,TRUE,TRUE,FALSE,"""event"",""trial"",""time""
""fullscreenenter"",""5"",""19934""
","
","
","""event"",""trial"",""time""
""fullscreenenter"",""5"",""19934""
","
",NA,NA,NA,NA,NA,NA,NA,NA,NA,NA,NA,NA,NA,NA,NA,NA,NA,NA,NA,NA,NA,NA,sub129
d3-instructions,125,557219,0.0-66.0,TRUE,TRUE,TRUE,FALSE,"""event"",""trial"",""time""
""fullscreenenter"",""5"",""19934""
","
","
","""event"",""trial"",""time""
""fullscreenenter"",""5"",""19934""
","
",NA,NA,NA,NA,NA,NA,NA,NA,NA,NA,NA,NA,NA,NA,NA,NA,NA,NA,NA,NA,NA,NA,sub129
d3-instructions,126,573827,0.0-67.0,TRUE,TRUE,TRUE,FALSE,"""event"",""trial"",""time""
""fullscreenenter"",""5"",""19934""
","
","
","""event"",""trial"",""time""
""fullscreenenter"",""5"",""19934""
","
",NA,NA,NA,NA,NA,NA,NA,NA,NA,NA,NA,NA,NA,NA,NA,NA,NA,NA,NA,NA,NA,NA,sub129
d3-instructions,127,578004,0.0-68.0,TRUE,TRUE,TRUE,FALSE,"""event"",""trial"",""time""
""fullscreenenter"",""5"",""19934""
","
","
","""event"",""trial"",""time""
""fullscreenenter"",""5"",""19934""
","
",NA,NA,NA,NA,NA,NA,NA,NA,NA,NA,NA,NA,NA,NA,NA,NA,NA,NA,NA,NA,NA,NA,sub129
instructions-quiz,128,582695,0.0-69.0,TRUE,TRUE,TRUE,FALSE,"""event"",""trial"",""time""
""fullscreenenter"",""5"",""19934""
","
","
","""event"",""trial"",""time""
""fullscreenenter"",""5"",""19934""
","
",4690,audio/quiz/Q1_Prompt.wav,NA,1,NA,NA,NA,NA,NA,NA,NA,NA,NA,NA,NA,NA,NA,NA,NA,NA,NA,NA,sub129
audio-keyboard-response,129,590414,0.0-70.0,TRUE,TRUE,TRUE,FALSE,"""event"",""trial"",""time""
""fullscreenenter"",""5"",""19934""
","
","
","""event"",""trial"",""time""
""fullscreenenter"",""5"",""19934""
","
",7720,audio/quiz/Q1_Correct.wav,32,NA,NA,NA,NA,NA,NA,NA,NA,NA,NA,NA,NA,NA,NA,NA,NA,NA,NA,NA,sub129
instructions-quiz,130,596889,0.0-71.0,TRUE,TRUE,TRUE,FALSE,"""event"",""trial"",""time""
""fullscreenenter"",""5"",""19934""
","
","
","""event"",""trial"",""time""
""fullscreenenter"",""5"",""19934""
","
",6474,audio/quiz/Q2_Prompt.wav,NA,0,NA,NA,NA,NA,NA,NA,NA,NA,NA,NA,NA,NA,NA,NA,NA,NA,NA,NA,sub129
audio-keyboard-response,131,604055,0.0-72.0,TRUE,TRUE,TRUE,FALSE,"""event"",""trial"",""time""
""fullscreenenter"",""5"",""19934""
","
","
","""event"",""trial"",""time""
""fullscreenenter"",""5"",""19934""
","
",7168,audio/quiz/Q2_Correct.wav,32,NA,NA,NA,NA,NA,NA,NA,NA,NA,NA,NA,NA,NA,NA,NA,NA,NA,NA,NA,sub129
instructions-quiz,132,607360,0.0-73.0,TRUE,TRUE,TRUE,FALSE,"""event"",""trial"",""time""
""fullscreenenter"",""5"",""19934""
","
","
","""event"",""trial"",""time""
""fullscreenenter"",""5"",""19934""
","
",3304.9999999998836,audio/quiz/Q3_Prompt.wav,NA,1,NA,NA,NA,NA,NA,NA,NA,NA,NA,NA,NA,NA,NA,NA,NA,NA,NA,NA,sub129
audio-keyboard-response,133,609155,0.0-74.0,TRUE,TRUE,TRUE,FALSE,"""event"",""trial"",""time""
""fullscreenenter"",""5"",""19934""
","
","
","""event"",""trial"",""time""
""fullscreenenter"",""5"",""19934""
","
",1795,audio/quiz/Q3_Correct.wav,32,NA,NA,NA,NA,NA,NA,NA,NA,NA,NA,NA,NA,NA,NA,NA,NA,NA,NA,NA,sub129
d3-instructions,134,622388,0.0-75.0,TRUE,TRUE,TRUE,FALSE,"""event"",""trial"",""time""
""fullscreenenter"",""5"",""19934""
","
","
","""event"",""trial"",""time""
""fullscreenenter"",""5"",""19934""
","
",NA,NA,NA,NA,NA,NA,NA,NA,NA,NA,NA,NA,NA,NA,NA,NA,NA,NA,NA,NA,NA,NA,sub129
d3-animate-choice,135,625650,0.0-76.0-0.0,TRUE,TRUE,TRUE,FALSE,"""event"",""trial"",""time""
""fullscreenenter"",""5"",""19934""
","
","
","""event"",""trial"",""time""
""fullscreenenter"",""5"",""19934""
","
",1259,NA,48,NA,NA,3000,1,NA,NA,images/earth.jpg,images/rocket2,images/rocket1,null,images/rocket2,NA,1,real,null,2,NA,NA,NA,sub129
d3-animate-choice,136,629278,0.0-76.0-1.0,TRUE,TRUE,TRUE,FALSE,"""event"",""trial"",""time""
""fullscreenenter"",""5"",""19934""
","
","
","""event"",""trial"",""time""
""fullscreenenter"",""5"",""19934""
","
",1626.0000000001164,NA,49,NA,NA,3000,1,NA,NA,images/purpleplanet.jpg,images/alien4,images/alien3,images/rocket2,images/alien3,images/t.png,2,real,true,1,common,1,2020-06-22T21:33:42Z,sub129
two-step-fixation,137,630279,0.0-76.0-2.0,TRUE,TRUE,TRUE,FALSE,"""event"",""trial"",""time""
""fullscreenenter"",""5"",""19934""
","
","
","""event"",""trial"",""time""
""fullscreenenter"",""5"",""19934""
","
",NA,images/earth.jpg,NA,NA,NA,NA,NA,NA,NA,NA,NA,NA,NA,NA,NA,fixation,NA,NA,NA,NA,NA,NA,sub129
d3-animate-choice,138,633576,0.0-76.0-0.1,TRUE,TRUE,TRUE,FALSE,"""event"",""trial"",""time""
""fullscreenenter"",""5"",""19934""
","
","
","""event"",""trial"",""time""
""fullscreenenter"",""5"",""19934""
","
",1294.0000000001164,NA,48,NA,NA,3000,1,NA,NA,images/earth.jpg,images/rocket2,images/rocket1,null,images/rocket2,NA,1,real,null,2,NA,NA,NA,sub129
d3-animate-choice,139,636336,0.0-76.0-1.1,TRUE,TRUE,TRUE,FALSE,"""event"",""trial"",""time""
""fullscreenenter"",""5"",""19934""
","
","
","""event"",""trial"",""time""
""fullscreenenter"",""5"",""19934""
","
",758.0000000001164,NA,49,NA,NA,3000,1,NA,NA,images/purpleplanet.jpg,images/alien4,images/alien3,images/rocket2,images/alien3,images/nothing.png,2,real,true,1,common,0,2020-06-22T21:33:49Z,sub129
two-step-fixation,140,637338,0.0-76.0-2.1,TRUE,TRUE,TRUE,FALSE,"""event"",""trial"",""time""
""fullscreenenter"",""5"",""19934""
","
","
","""event"",""trial"",""time""
""fullscreenenter"",""5"",""19934""
","
",NA,images/earth.jpg,NA,NA,NA,NA,NA,NA,NA,NA,NA,NA,NA,NA,NA,fixation,NA,NA,NA,NA,NA,NA,sub129
d3-animate-choice,141,640099,0.0-76.0-0.2,TRUE,TRUE,TRUE,FALSE,"""event"",""trial"",""time""
""fullscreenenter"",""5"",""19934""
","
","
","""event"",""trial"",""time""
""fullscreenenter"",""5"",""19934""
","
",758,NA,49,NA,NA,3000,1,NA,NA,images/earth.jpg,images/rocket2,images/rocket1,null,images/rocket1,NA,1,real,null,1,NA,NA,NA,sub129
d3-animate-choice,142,643378,0.0-76.0-1.2,TRUE,TRUE,TRUE,FALSE,"""event"",""trial"",""time""
""fullscreenenter"",""5"",""19934""
","
","
","""event"",""trial"",""time""
""fullscreenenter"",""5"",""19934""
","
",1278.0000000001164,NA,49,NA,NA,3000,1,NA,NA,images/purpleplanet.jpg,images/alien4,images/alien3,images/rocket1,images/alien3,images/nothing.png,2,real,false,1,rare,0,2020-06-22T21:33:56Z,sub129
two-step-fixation,143,644380,0.0-76.0-2.2,TRUE,TRUE,TRUE,FALSE,"""event"",""trial"",""time""
""fullscreenenter"",""5"",""19934""
","
","
","""event"",""trial"",""time""
""fullscreenenter"",""5"",""19934""
","
",NA,images/earth.jpg,NA,NA,NA,NA,NA,NA,NA,NA,NA,NA,NA,NA,NA,fixation,NA,NA,NA,NA,NA,NA,sub129
d3-animate-choice,144,647324,0.0-76.0-0.3,TRUE,TRUE,TRUE,FALSE,"""event"",""trial"",""time""
""fullscreenenter"",""5"",""19934""
","
","
","""event"",""trial"",""time""
""fullscreenenter"",""5"",""19934""
","
",942,NA,48,NA,NA,3000,1,NA,NA,images/earth.jpg,images/rocket2,images/rocket1,null,images/rocket2,NA,1,real,null,2,NA,NA,NA,sub129
d3-animate-choice,145,650879,0.0-76.0-1.3,TRUE,TRUE,TRUE,FALSE,"""event"",""trial"",""time""
""fullscreenenter"",""5"",""19934""
","
","
","""event"",""trial"",""time""
""fullscreenenter"",""5"",""19934""
","
",1553,NA,48,NA,NA,3000,1,NA,NA,images/purpleplanet.jpg,images/alien4,images/alien3,images/rocket2,images/alien4,images/nothing.png,2,real,true,2,common,0,2020-06-22T21:34:04Z,sub129
two-step-fixation,146,651882,0.0-76.0-2.3,TRUE,TRUE,TRUE,FALSE,"""event"",""trial"",""time""
""fullscreenenter"",""5"",""19934""
","
","
","""event"",""trial"",""time""
""fullscreenenter"",""5"",""19934""
","
",NA,images/earth.jpg,NA,NA,NA,NA,NA,NA,NA,NA,NA,NA,NA,NA,NA,fixation,NA,NA,NA,NA,NA,NA,sub129
d3-animate-choice,147,654375,0.0-76.0-0.4,TRUE,TRUE,TRUE,FALSE,"""event"",""trial"",""time""
""fullscreenenter"",""5"",""19934""
","
","
","""event"",""trial"",""time""
""fullscreenenter"",""5"",""19934""
","
",490,NA,49,NA,NA,3000,1,NA,NA,images/earth.jpg,images/rocket2,images/rocket1,null,images/rocket1,NA,1,real,null,1,NA,NA,NA,sub129
d3-animate-choice,148,657110,0.0-76.0-1.4,TRUE,TRUE,TRUE,FALSE,"""event"",""trial"",""time""
""fullscreenenter"",""5"",""19934""
","
","
","""event"",""trial"",""time""
""fullscreenenter"",""5"",""19934""
","
",733,NA,49,NA,NA,3000,1,NA,NA,images/purpleplanet.jpg,images/alien4,images/alien3,images/rocket1,images/alien3,images/t.png,2,real,false,1,rare,1,2020-06-22T21:34:10Z,sub129
two-step-fixation,149,658112,0.0-76.0-2.4,TRUE,TRUE,TRUE,FALSE,"""event"",""trial"",""time""
""fullscreenenter"",""5"",""19934""
","
","
","""event"",""trial"",""time""
""fullscreenenter"",""5"",""19934""
","
",NA,images/earth.jpg,NA,NA,NA,NA,NA,NA,NA,NA,NA,NA,NA,NA,NA,fixation,NA,NA,NA,NA,NA,NA,sub129
d3-animate-choice,150,661088,0.0-76.0-0.5,TRUE,TRUE,TRUE,FALSE,"""event"",""trial"",""time""
""fullscreenenter"",""5"",""19934""
","
","
","""event"",""trial"",""time""
""fullscreenenter"",""5"",""19934""
","
",973,NA,48,NA,NA,3000,1,NA,NA,images/earth.jpg,images/rocket2,images/rocket1,null,images/rocket2,NA,1,real,null,2,NA,NA,NA,sub129
d3-animate-choice,151,664131,0.0-76.0-1.5,TRUE,TRUE,TRUE,FALSE,"""event"",""trial"",""time""
""fullscreenenter"",""5"",""19934""
","
","
","""event"",""trial"",""time""
""fullscreenenter"",""5"",""19934""
","
",1041,NA,49,NA,NA,3000,1,NA,NA,images/redplanet1.jpg,images/alien2,images/alien1,images/rocket2,images/alien1,images/nothing.png,2,real,false,1,rare,0,2020-06-22T21:34:17Z,sub129
two-step-fixation,152,665132,0.0-76.0-2.5,TRUE,TRUE,TRUE,FALSE,"""event"",""trial"",""time""
""fullscreenenter"",""5"",""19934""
","
","
","""event"",""trial"",""time""
""fullscreenenter"",""5"",""19934""
","
",NA,images/earth.jpg,NA,NA,NA,NA,NA,NA,NA,NA,NA,NA,NA,NA,NA,fixation,NA,NA,NA,NA,NA,NA,sub129
d3-animate-choice,153,667524,0.0-76.0-0.6,TRUE,TRUE,TRUE,FALSE,"""event"",""trial"",""time""
""fullscreenenter"",""5"",""19934""
","
","
","""event"",""trial"",""time""
""fullscreenenter"",""5"",""19934""
","
",390,NA,48,NA,NA,3000,1,NA,NA,images/earth.jpg,images/rocket2,images/rocket1,null,images/rocket2,NA,1,real,null,2,NA,NA,NA,sub129
d3-animate-choice,154,670533,0.0-76.0-1.6,TRUE,TRUE,TRUE,FALSE,"""event"",""trial"",""time""
""fullscreenenter"",""5"",""19934""
","
","
","""event"",""trial"",""time""
""fullscreenenter"",""5"",""19934""
","
",1007,NA,49,NA,NA,3000,1,NA,NA,images/redplanet1.jpg,images/alien2,images/alien1,images/rocket2,images/alien1,images/t.png,2,real,false,1,rare,1,2020-06-22T21:34:23Z,sub129
two-step-fixation,155,671534,0.0-76.0-2.6,TRUE,TRUE,TRUE,FALSE,"""event"",""trial"",""time""
""fullscreenenter"",""5"",""19934""
","
","
","""event"",""trial"",""time""
""fullscreenenter"",""5"",""19934""
","
",NA,images/earth.jpg,NA,NA,NA,NA,NA,NA,NA,NA,NA,NA,NA,NA,NA,fixation,NA,NA,NA,NA,NA,NA,sub129
d3-animate-choice,156,674184,0.0-76.0-0.7,TRUE,TRUE,TRUE,FALSE,"""event"",""trial"",""time""
""fullscreenenter"",""5"",""19934""
","
","
","""event"",""trial"",""time""
""fullscreenenter"",""5"",""19934""
","
",648,NA,49,NA,NA,3000,1,NA,NA,images/earth.jpg,images/rocket2,images/rocket1,null,images/rocket1,NA,1,real,null,1,NA,NA,NA,sub129
d3-animate-choice,157,677423,0.0-76.0-1.7,TRUE,TRUE,TRUE,FALSE,"""event"",""trial"",""time""
""fullscreenenter"",""5"",""19934""
","
","
","""event"",""trial"",""time""
""fullscreenenter"",""5"",""19934""
","
",1237.9999999998836,NA,49,NA,NA,3000,1,NA,NA,images/redplanet1.jpg,images/alien2,images/alien1,images/rocket1,images/alien1,images/t.png,2,real,true,1,common,1,2020-06-22T21:34:30Z,sub129
two-step-fixation,158,678424,0.0-76.0-2.7,TRUE,TRUE,TRUE,FALSE,"""event"",""trial"",""time""
""fullscreenenter"",""5"",""19934""
","
","
","""event"",""trial"",""time""
""fullscreenenter"",""5"",""19934""
","
",NA,images/earth.jpg,NA,NA,NA,NA,NA,NA,NA,NA,NA,NA,NA,NA,NA,fixation,NA,NA,NA,NA,NA,NA,sub129
d3-animate-choice,159,681094,0.0-76.0-0.8,TRUE,TRUE,TRUE,FALSE,"""event"",""trial"",""time""
""fullscreenenter"",""5"",""19934""
","
","
","""event"",""trial"",""time""
""fullscreenenter"",""5"",""19934""
","
",667,NA,49,NA,NA,3000,1,NA,NA,images/earth.jpg,images/rocket2,images/rocket1,null,images/rocket1,NA,1,real,null,1,NA,NA,NA,sub129
d3-animate-choice,160,683635,0.0-76.0-1.8,TRUE,TRUE,TRUE,FALSE,"""event"",""trial"",""time""
""fullscreenenter"",""5"",""19934""
","
","
","""event"",""trial"",""time""
""fullscreenenter"",""5"",""19934""
","
",538,NA,49,NA,NA,3000,1,NA,NA,images/redplanet1.jpg,images/alien2,images/alien1,images/rocket1,images/alien1,images/t.png,2,real,true,1,common,1,2020-06-22T21:34:36Z,sub129
two-step-fixation,161,684637,0.0-76.0-2.8,TRUE,TRUE,TRUE,FALSE,"""event"",""trial"",""time""
""fullscreenenter"",""5"",""19934""
","
","
","""event"",""trial"",""time""
""fullscreenenter"",""5"",""19934""
","
",NA,images/earth.jpg,NA,NA,NA,NA,NA,NA,NA,NA,NA,NA,NA,NA,NA,fixation,NA,NA,NA,NA,NA,NA,sub129
d3-animate-choice,162,687293,0.0-76.0-0.9,TRUE,TRUE,TRUE,FALSE,"""event"",""trial"",""time""
""fullscreenenter"",""5"",""19934""
","
","
","""event"",""trial"",""time""
""fullscreenenter"",""5"",""19934""
","
",654,NA,49,NA,NA,3000,1,NA,NA,images/earth.jpg,images/rocket2,images/rocket1,null,images/rocket1,NA,1,real,null,1,NA,NA,NA,sub129
d3-animate-choice,163,690033,0.0-76.0-1.9,TRUE,TRUE,TRUE,FALSE,"""event"",""trial"",""time""
""fullscreenenter"",""5"",""19934""
","
","
","""event"",""trial"",""time""
""fullscreenenter"",""5"",""19934""
","
",738,NA,49,NA,NA,3000,1,NA,NA,images/redplanet1.jpg,images/alien2,images/alien1,images/rocket1,images/alien1,images/t.png,2,real,true,1,common,1,2020-06-22T21:34:43Z,sub129
two-step-fixation,164,691035,0.0-76.0-2.9,TRUE,TRUE,TRUE,FALSE,"""event"",""trial"",""time""
""fullscreenenter"",""5"",""19934""
","
","
","""event"",""trial"",""time""
""fullscreenenter"",""5"",""19934""
","
",NA,images/earth.jpg,NA,NA,NA,NA,NA,NA,NA,NA,NA,NA,NA,NA,NA,fixation,NA,NA,NA,NA,NA,NA,sub129
d3-animate-choice,165,693391,0.0-76.0-0.10,TRUE,TRUE,TRUE,FALSE,"""event"",""trial"",""time""
""fullscreenenter"",""5"",""19934""
","
","
","""event"",""trial"",""time""
""fullscreenenter"",""5"",""19934""
","
",353.9999999998836,NA,49,NA,NA,3000,1,NA,NA,images/earth.jpg,images/rocket2,images/rocket1,null,images/rocket1,NA,1,real,null,1,NA,NA,NA,sub129
d3-animate-choice,166,695908,0.0-76.0-1.10,TRUE,TRUE,TRUE,FALSE,"""event"",""trial"",""time""
""fullscreenenter"",""5"",""19934""
","
","
","""event"",""trial"",""time""
""fullscreenenter"",""5"",""19934""
","
",516,NA,49,NA,NA,3000,1,NA,NA,images/redplanet1.jpg,images/alien2,images/alien1,images/rocket1,images/alien1,images/nothing.png,2,real,true,1,common,0,2020-06-22T21:34:49Z,sub129
two-step-fixation,167,696909,0.0-76.0-2.10,TRUE,TRUE,TRUE,FALSE,"""event"",""trial"",""time""
""fullscreenenter"",""5"",""19934""
","
","
","""event"",""trial"",""time""
""fullscreenenter"",""5"",""19934""
","
",NA,images/earth.jpg,NA,NA,NA,NA,NA,NA,NA,NA,NA,NA,NA,NA,NA,fixation,NA,NA,NA,NA,NA,NA,sub129
d3-animate-choice,168,699360,0.0-76.0-0.11,TRUE,TRUE,TRUE,FALSE,"""event"",""trial"",""time""
""fullscreenenter"",""5"",""19934""
","
","
","""event"",""trial"",""time""
""fullscreenenter"",""5"",""19934""
","
",450,NA,48,NA,NA,3000,1,NA,NA,images/earth.jpg,images/rocket2,images/rocket1,null,images/rocket2,NA,1,real,null,2,NA,NA,NA,sub129
d3-animate-choice,169,701969,0.0-76.0-1.11,TRUE,TRUE,TRUE,FALSE,"""event"",""trial"",""time""
""fullscreenenter"",""5"",""19934""
","
","
","""event"",""trial"",""time""
""fullscreenenter"",""5"",""19934""
","
",607,NA,49,NA,NA,3000,1,NA,NA,images/redplanet1.jpg,images/alien2,images/alien1,images/rocket2,images/alien1,images/t.png,2,real,false,1,rare,1,2020-06-22T21:34:55Z,sub129
two-step-fixation,170,702970,0.0-76.0-2.11,TRUE,TRUE,TRUE,FALSE,"""event"",""trial"",""time""
""fullscreenenter"",""5"",""19934""
","
","
","""event"",""trial"",""time""
""fullscreenenter"",""5"",""19934""
","
",NA,images/earth.jpg,NA,NA,NA,NA,NA,NA,NA,NA,NA,NA,NA,NA,NA,fixation,NA,NA,NA,NA,NA,NA,sub129
d3-animate-choice,171,705686,0.0-76.0-0.12,TRUE,TRUE,TRUE,FALSE,"""event"",""trial"",""time""
""fullscreenenter"",""5"",""19934""
","
","
","""event"",""trial"",""time""
""fullscreenenter"",""5"",""19934""
","
",715,NA,48,NA,NA,3000,1,NA,NA,images/earth.jpg,images/rocket2,images/rocket1,null,images/rocket2,NA,1,real,null,2,NA,NA,NA,sub129
d3-animate-choice,172,708966,0.0-76.0-1.12,TRUE,TRUE,TRUE,FALSE,"""event"",""trial"",""time""
""fullscreenenter"",""5"",""19934""
","
","
","""event"",""trial"",""time""
""fullscreenenter"",""5"",""19934""
","
",1277,NA,49,NA,NA,3000,1,NA,NA,images/purpleplanet.jpg,images/alien4,images/alien3,images/rocket2,images/alien3,images/t.png,2,real,true,1,common,1,2020-06-22T21:35:02Z,sub129
two-step-fixation,173,709968,0.0-76.0-2.12,TRUE,TRUE,TRUE,FALSE,"""event"",""trial"",""time""
""fullscreenenter"",""5"",""19934""
","
","
","""event"",""trial"",""time""
""fullscreenenter"",""5"",""19934""
","
",NA,images/earth.jpg,NA,NA,NA,NA,NA,NA,NA,NA,NA,NA,NA,NA,NA,fixation,NA,NA,NA,NA,NA,NA,sub129
d3-animate-choice,174,712321,0.0-76.0-0.13,TRUE,TRUE,TRUE,FALSE,"""event"",""trial"",""time""
""fullscreenenter"",""5"",""19934""
","
","
","""event"",""trial"",""time""
""fullscreenenter"",""5"",""19934""
","
",352,NA,48,NA,NA,3000,1,NA,NA,images/earth.jpg,images/rocket2,images/rocket1,null,images/rocket2,NA,1,real,null,2,NA,NA,NA,sub129
d3-animate-choice,175,715170,0.0-76.0-1.13,TRUE,TRUE,TRUE,FALSE,"""event"",""trial"",""time""
""fullscreenenter"",""5"",""19934""
","
","
","""event"",""trial"",""time""
""fullscreenenter"",""5"",""19934""
","
",848,NA,48,NA,NA,3000,1,NA,NA,images/purpleplanet.jpg,images/alien4,images/alien3,images/rocket2,images/alien4,images/t.png,2,real,true,2,common,1,2020-06-22T21:35:08Z,sub129
two-step-fixation,176,716172,0.0-76.0-2.13,TRUE,TRUE,TRUE,FALSE,"""event"",""trial"",""time""
""fullscreenenter"",""5"",""19934""
","
","
","""event"",""trial"",""time""
""fullscreenenter"",""5"",""19934""
","
",NA,images/earth.jpg,NA,NA,NA,NA,NA,NA,NA,NA,NA,NA,NA,NA,NA,fixation,NA,NA,NA,NA,NA,NA,sub129
d3-animate-choice,177,718549,0.0-76.0-0.14,TRUE,TRUE,TRUE,FALSE,"""event"",""trial"",""time""
""fullscreenenter"",""5"",""19934""
","
","
","""event"",""trial"",""time""
""fullscreenenter"",""5"",""19934""
","
",376,NA,48,NA,NA,3000,1,NA,NA,images/earth.jpg,images/rocket2,images/rocket1,null,images/rocket2,NA,1,real,null,2,NA,NA,NA,sub129
d3-animate-choice,178,721186,0.0-76.0-1.14,TRUE,TRUE,TRUE,FALSE,"""event"",""trial"",""time""
""fullscreenenter"",""5"",""19934""
","
","
","""event"",""trial"",""time""
""fullscreenenter"",""5"",""19934""
","
",635,NA,48,NA,NA,3000,1,NA,NA,images/purpleplanet.jpg,images/alien4,images/alien3,images/rocket2,images/alien4,images/nothing.png,2,real,true,2,common,0,2020-06-22T21:35:14Z,sub129
two-step-fixation,179,722187,0.0-76.0-2.14,TRUE,TRUE,TRUE,FALSE,"""event"",""trial"",""time""
""fullscreenenter"",""5"",""19934""
","
","
","""event"",""trial"",""time""
""fullscreenenter"",""5"",""19934""
","
",NA,images/earth.jpg,NA,NA,NA,NA,NA,NA,NA,NA,NA,NA,NA,NA,NA,fixation,NA,NA,NA,NA,NA,NA,sub129
d3-animate-choice,180,724472,0.0-76.0-0.15,TRUE,TRUE,TRUE,FALSE,"""event"",""trial"",""time""
""fullscreenenter"",""5"",""19934""
","
","
","""event"",""trial"",""time""
""fullscreenenter"",""5"",""19934""
","
",283,NA,49,NA,NA,3000,1,NA,NA,images/earth.jpg,images/rocket2,images/rocket1,null,images/rocket1,NA,1,real,null,1,NA,NA,NA,sub129
d3-animate-choice,181,727268,0.0-76.0-1.15,TRUE,TRUE,TRUE,FALSE,"""event"",""trial"",""time""
""fullscreenenter"",""5"",""19934""
","
","
","""event"",""trial"",""time""
""fullscreenenter"",""5"",""19934""
","
",794,NA,49,NA,NA,3000,1,NA,NA,images/redplanet1.jpg,images/alien2,images/alien1,images/rocket1,images/alien1,images/t.png,2,real,true,1,common,1,2020-06-22T21:35:20Z,sub129
two-step-fixation,182,728269,0.0-76.0-2.15,TRUE,TRUE,TRUE,FALSE,"""event"",""trial"",""time""
""fullscreenenter"",""5"",""19934""
","
","
","""event"",""trial"",""time""
""fullscreenenter"",""5"",""19934""
","
",NA,images/earth.jpg,NA,NA,NA,NA,NA,NA,NA,NA,NA,NA,NA,NA,NA,fixation,NA,NA,NA,NA,NA,NA,sub129
d3-animate-choice,183,730835,0.0-76.0-0.16,TRUE,TRUE,TRUE,FALSE,"""event"",""trial"",""time""
""fullscreenenter"",""5"",""19934""
","
","
","""event"",""trial"",""time""
""fullscreenenter"",""5"",""19934""
","
",565,NA,49,NA,NA,3000,1,NA,NA,images/earth.jpg,images/rocket2,images/rocket1,null,images/rocket1,NA,1,real,null,1,NA,NA,NA,sub129
d3-animate-choice,184,733318,0.0-76.0-1.16,TRUE,TRUE,TRUE,FALSE,"""event"",""trial"",""time""
""fullscreenenter"",""5"",""19934""
","
","
","""event"",""trial"",""time""
""fullscreenenter"",""5"",""19934""
","
",482,NA,49,NA,NA,3000,1,NA,NA,images/redplanet1.jpg,images/alien2,images/alien1,images/rocket1,images/alien1,images/nothing.png,2,real,true,1,common,0,2020-06-22T21:35:26Z,sub129
two-step-fixation,185,734320,0.0-76.0-2.16,TRUE,TRUE,TRUE,FALSE,"""event"",""trial"",""time""
""fullscreenenter"",""5"",""19934""
","
","
","""event"",""trial"",""time""
""fullscreenenter"",""5"",""19934""
","
",NA,images/earth.jpg,NA,NA,NA,NA,NA,NA,NA,NA,NA,NA,NA,NA,NA,fixation,NA,NA,NA,NA,NA,NA,sub129
d3-animate-choice,186,737062,0.0-76.0-0.17,TRUE,TRUE,TRUE,FALSE,"""event"",""trial"",""time""
""fullscreenenter"",""5"",""19934""
","
","
","""event"",""trial"",""time""
""fullscreenenter"",""5"",""19934""
","
",741,NA,48,NA,NA,3000,1,NA,NA,images/earth.jpg,images/rocket2,images/rocket1,null,images/rocket2,NA,1,real,null,2,NA,NA,NA,sub129
d3-animate-choice,187,739560,0.0-76.0-1.17,TRUE,TRUE,TRUE,FALSE,"""event"",""trial"",""time""
""fullscreenenter"",""5"",""19934""
","
","
","""event"",""trial"",""time""
""fullscreenenter"",""5"",""19934""
","
",496.0000000001164,NA,48,NA,NA,3000,1,NA,NA,images/purpleplanet.jpg,images/alien4,images/alien3,images/rocket2,images/alien4,images/nothing.png,2,real,true,2,common,0,2020-06-22T21:35:32Z,sub129
two-step-fixation,188,740562,0.0-76.0-2.17,TRUE,TRUE,TRUE,FALSE,"""event"",""trial"",""time""
""fullscreenenter"",""5"",""19934""
","
","
","""event"",""trial"",""time""
""fullscreenenter"",""5"",""19934""
","
",NA,images/earth.jpg,NA,NA,NA,NA,NA,NA,NA,NA,NA,NA,NA,NA,NA,fixation,NA,NA,NA,NA,NA,NA,sub129
d3-animate-choice,189,742822,0.0-76.0-0.18,TRUE,TRUE,TRUE,FALSE,"""event"",""trial"",""time""
""fullscreenenter"",""5"",""19934""
","
","
","""event"",""trial"",""time""
""fullscreenenter"",""5"",""19934""
","
",258,NA,49,NA,NA,3000,1,NA,NA,images/earth.jpg,images/rocket2,images/rocket1,null,images/rocket1,NA,1,real,null,1,NA,NA,NA,sub129
d3-animate-choice,190,745255,0.0-76.0-1.18,TRUE,TRUE,TRUE,FALSE,"""event"",""trial"",""time""
""fullscreenenter"",""5"",""19934""
","
","
","""event"",""trial"",""time""
""fullscreenenter"",""5"",""19934""
","
",429.9999999998836,NA,49,NA,NA,3000,1,NA,NA,images/purpleplanet.jpg,images/alien4,images/alien3,images/rocket1,images/alien3,images/nothing.png,2,real,false,1,rare,0,2020-06-22T21:35:38Z,sub129
two-step-fixation,191,746257,0.0-76.0-2.18,TRUE,TRUE,TRUE,FALSE,"""event"",""trial"",""time""
""fullscreenenter"",""5"",""19934""
","
","
","""event"",""trial"",""time""
""fullscreenenter"",""5"",""19934""
","
",NA,images/earth.jpg,NA,NA,NA,NA,NA,NA,NA,NA,NA,NA,NA,NA,NA,fixation,NA,NA,NA,NA,NA,NA,sub129
d3-animate-choice,192,748570,0.0-76.0-0.19,TRUE,TRUE,TRUE,FALSE,"""event"",""trial"",""time""
""fullscreenenter"",""5"",""19934""
","
","
","""event"",""trial"",""time""
""fullscreenenter"",""5"",""19934""
","
",310,NA,48,NA,NA,3000,1,NA,NA,images/earth.jpg,images/rocket2,images/rocket1,null,images/rocket2,NA,1,real,null,2,NA,NA,NA,sub129
d3-animate-choice,193,751663,0.0-76.0-1.19,TRUE,TRUE,TRUE,FALSE,"""event"",""trial"",""time""
""fullscreenenter"",""5"",""19934""
","
","
","""event"",""trial"",""time""
""fullscreenenter"",""5"",""19934""
","
",1091,NA,48,NA,NA,3000,1,NA,NA,images/purpleplanet.jpg,images/alien4,images/alien3,images/rocket2,images/alien4,images/t.png,2,real,true,2,common,1,2020-06-22T21:35:44Z,sub129
two-step-fixation,194,752665,0.0-76.0-2.19,TRUE,TRUE,TRUE,FALSE,"""event"",""trial"",""time""
""fullscreenenter"",""5"",""19934""
","
","
","""event"",""trial"",""time""
""fullscreenenter"",""5"",""19934""
","
",NA,images/earth.jpg,NA,NA,NA,NA,NA,NA,NA,NA,NA,NA,NA,NA,NA,fixation,NA,NA,NA,NA,NA,NA,sub129
d3-animate-choice,195,755243,0.0-76.0-0.20,TRUE,TRUE,TRUE,FALSE,"""event"",""trial"",""time""
""fullscreenenter"",""5"",""19934""
","
","
","""event"",""trial"",""time""
""fullscreenenter"",""5"",""19934""
","
",576,NA,49,NA,NA,3000,1,NA,NA,images/earth.jpg,images/rocket2,images/rocket1,null,images/rocket1,NA,1,real,null,1,NA,NA,NA,sub129
d3-animate-choice,196,758062,0.0-76.0-1.20,TRUE,TRUE,TRUE,FALSE,"""event"",""trial"",""time""
""fullscreenenter"",""5"",""19934""
","
","
","""event"",""trial"",""time""
""fullscreenenter"",""5"",""19934""
","
",816,NA,49,NA,NA,3000,1,NA,NA,images/redplanet1.jpg,images/alien2,images/alien1,images/rocket1,images/alien1,images/t.png,2,real,true,1,common,1,2020-06-22T21:35:51Z,sub129
two-step-fixation,197,759064,0.0-76.0-2.20,TRUE,TRUE,TRUE,FALSE,"""event"",""trial"",""time""
""fullscreenenter"",""5"",""19934""
","
","
","""event"",""trial"",""time""
""fullscreenenter"",""5"",""19934""
","
",NA,images/earth.jpg,NA,NA,NA,NA,NA,NA,NA,NA,NA,NA,NA,NA,NA,fixation,NA,NA,NA,NA,NA,NA,sub129
d3-animate-choice,198,761536,0.0-76.0-0.21,TRUE,TRUE,TRUE,FALSE,"""event"",""trial"",""time""
""fullscreenenter"",""5"",""19934""
","
","
","""event"",""trial"",""time""
""fullscreenenter"",""5"",""19934""
","
",470.0000000001164,NA,48,NA,NA,3000,1,NA,NA,images/earth.jpg,images/rocket2,images/rocket1,null,images/rocket2,NA,1,real,null,2,NA,NA,NA,sub129
d3-animate-choice,199,763997,0.0-76.0-1.21,TRUE,TRUE,TRUE,FALSE,"""event"",""trial"",""time""
""fullscreenenter"",""5"",""19934""
","
","
","""event"",""trial"",""time""
""fullscreenenter"",""5"",""19934""
","
",459.0000000001164,NA,48,NA,NA,3000,1,NA,NA,images/purpleplanet.jpg,images/alien4,images/alien3,images/rocket2,images/alien4,images/nothing.png,2,real,true,2,common,0,2020-06-22T21:35:57Z,sub129
two-step-fixation,200,764999,0.0-76.0-2.21,TRUE,TRUE,TRUE,FALSE,"""event"",""trial"",""time""
""fullscreenenter"",""5"",""19934""
","
","
","""event"",""trial"",""time""
""fullscreenenter"",""5"",""19934""
","
",NA,images/earth.jpg,NA,NA,NA,NA,NA,NA,NA,NA,NA,NA,NA,NA,NA,fixation,NA,NA,NA,NA,NA,NA,sub129
d3-animate-choice,201,767248,0.0-76.0-0.22,TRUE,TRUE,TRUE,FALSE,"""event"",""trial"",""time""
""fullscreenenter"",""5"",""19934""
","
","
","""event"",""trial"",""time""
""fullscreenenter"",""5"",""19934""
","
",247,NA,49,NA,NA,3000,1,NA,NA,images/earth.jpg,images/rocket2,images/rocket1,null,images/rocket1,NA,1,real,null,1,NA,NA,NA,sub129
d3-animate-choice,202,769768,0.0-76.0-1.22,TRUE,TRUE,TRUE,FALSE,"""event"",""trial"",""time""
""fullscreenenter"",""5"",""19934""
","
","
","""event"",""trial"",""time""
""fullscreenenter"",""5"",""19934""
","
",517,NA,49,NA,NA,3000,1,NA,NA,images/redplanet1.jpg,images/alien2,images/alien1,images/rocket1,images/alien1,images/t.png,2,real,true,1,common,1,2020-06-22T21:36:02Z,sub129
two-step-fixation,203,770771,0.0-76.0-2.22,TRUE,TRUE,TRUE,FALSE,"""event"",""trial"",""time""
""fullscreenenter"",""5"",""19934""
","
","
","""event"",""trial"",""time""
""fullscreenenter"",""5"",""19934""
","
",NA,images/earth.jpg,NA,NA,NA,NA,NA,NA,NA,NA,NA,NA,NA,NA,NA,fixation,NA,NA,NA,NA,NA,NA,sub129
d3-animate-choice,204,773105,0.0-76.0-0.23,TRUE,TRUE,TRUE,FALSE,"""event"",""trial"",""time""
""fullscreenenter"",""5"",""19934""
","
","
","""event"",""trial"",""time""
""fullscreenenter"",""5"",""19934""
","
",331,NA,49,NA,NA,3000,1,NA,NA,images/earth.jpg,images/rocket2,images/rocket1,null,images/rocket1,NA,1,real,null,1,NA,NA,NA,sub129
d3-animate-choice,205,776197,0.0-76.0-1.23,TRUE,TRUE,TRUE,FALSE,"""event"",""trial"",""time""
""fullscreenenter"",""5"",""19934""
","
","
","""event"",""trial"",""time""
""fullscreenenter"",""5"",""19934""
","
",1088.9999999998836,NA,49,NA,NA,3000,1,NA,NA,images/purpleplanet.jpg,images/alien4,images/alien3,images/rocket1,images/alien3,images/t.png,2,real,false,1,rare,1,2020-06-22T21:36:09Z,sub129
two-step-fixation,206,777200,0.0-76.0-2.23,TRUE,TRUE,TRUE,FALSE,"""event"",""trial"",""time""
""fullscreenenter"",""5"",""19934""
","
","
","""event"",""trial"",""time""
""fullscreenenter"",""5"",""19934""
","
",NA,images/earth.jpg,NA,NA,NA,NA,NA,NA,NA,NA,NA,NA,NA,NA,NA,fixation,NA,NA,NA,NA,NA,NA,sub129
d3-animate-choice,207,779649,0.0-76.0-0.24,TRUE,TRUE,TRUE,FALSE,"""event"",""trial"",""time""
""fullscreenenter"",""5"",""19934""
","
","
","""event"",""trial"",""time""
""fullscreenenter"",""5"",""19934""
","
",446,NA,49,NA,NA,3000,1,NA,NA,images/earth.jpg,images/rocket2,images/rocket1,null,images/rocket1,NA,1,real,null,1,NA,NA,NA,sub129
d3-animate-choice,208,782407,0.0-76.0-1.24,TRUE,TRUE,TRUE,FALSE,"""event"",""trial"",""time""
""fullscreenenter"",""5"",""19934""
","
","
","""event"",""trial"",""time""
""fullscreenenter"",""5"",""19934""
","
",756.9999999998836,NA,49,NA,NA,3000,1,NA,NA,images/redplanet1.jpg,images/alien2,images/alien1,images/rocket1,images/alien1,images/t.png,2,real,true,1,common,1,2020-06-22T21:36:15Z,sub129
two-step-fixation,209,783409,0.0-76.0-2.24,TRUE,TRUE,TRUE,FALSE,"""event"",""trial"",""time""
""fullscreenenter"",""5"",""19934""
","
","
","""event"",""trial"",""time""
""fullscreenenter"",""5"",""19934""
","
",NA,images/earth.jpg,NA,NA,NA,NA,NA,NA,NA,NA,NA,NA,NA,NA,NA,fixation,NA,NA,NA,NA,NA,NA,sub129
d3-animate-choice,210,785761,0.0-76.0-0.25,TRUE,TRUE,TRUE,FALSE,"""event"",""trial"",""time""
""fullscreenenter"",""5"",""19934""
","
","
","""event"",""trial"",""time""
""fullscreenenter"",""5"",""19934""
","
",350,NA,49,NA,NA,3000,1,NA,NA,images/earth.jpg,images/rocket2,images/rocket1,null,images/rocket1,NA,1,real,null,1,NA,NA,NA,sub129
d3-animate-choice,211,789141,0.0-76.0-1.25,TRUE,TRUE,TRUE,FALSE,"""event"",""trial"",""time""
""fullscreenenter"",""5"",""19934""
","
","
","""event"",""trial"",""time""
""fullscreenenter"",""5"",""19934""
","
",1377,NA,48,NA,NA,3000,1,NA,NA,images/purpleplanet.jpg,images/alien4,images/alien3,images/rocket1,images/alien4,images/nothing.png,2,real,false,2,rare,0,2020-06-22T21:36:22Z,sub129
two-step-fixation,212,790144,0.0-76.0-2.25,TRUE,TRUE,TRUE,FALSE,"""event"",""trial"",""time""
""fullscreenenter"",""5"",""19934""
","
","
","""event"",""trial"",""time""
""fullscreenenter"",""5"",""19934""
","
",NA,images/earth.jpg,NA,NA,NA,NA,NA,NA,NA,NA,NA,NA,NA,NA,NA,fixation,NA,NA,NA,NA,NA,NA,sub129
d3-animate-choice,213,792499,0.0-76.0-0.26,TRUE,TRUE,TRUE,FALSE,"""event"",""trial"",""time""
""fullscreenenter"",""5"",""19934""
","
","
","""event"",""trial"",""time""
""fullscreenenter"",""5"",""19934""
","
",352.9999999998836,NA,49,NA,NA,3000,1,NA,NA,images/earth.jpg,images/rocket2,images/rocket1,null,images/rocket1,NA,1,real,null,1,NA,NA,NA,sub129
d3-animate-choice,214,795376,0.0-76.0-1.26,TRUE,TRUE,TRUE,FALSE,"""event"",""trial"",""time""
""fullscreenenter"",""5"",""19934""
","
","
","""event"",""trial"",""time""
""fullscreenenter"",""5"",""19934""
","
",873.9999999998836,NA,49,NA,NA,3000,1,NA,NA,images/purpleplanet.jpg,images/alien4,images/alien3,images/rocket1,images/alien3,images/nothing.png,2,real,false,1,rare,0,2020-06-22T21:36:28Z,sub129
two-step-fixation,215,796378,0.0-76.0-2.26,TRUE,TRUE,TRUE,FALSE,"""event"",""trial"",""time""
""fullscreenenter"",""5"",""19934""
","
","
","""event"",""trial"",""time""
""fullscreenenter"",""5"",""19934""
","
",NA,images/earth.jpg,NA,NA,NA,NA,NA,NA,NA,NA,NA,NA,NA,NA,NA,fixation,NA,NA,NA,NA,NA,NA,sub129
d3-animate-choice,216,798706,0.0-76.0-0.27,TRUE,TRUE,TRUE,FALSE,"""event"",""trial"",""time""
""fullscreenenter"",""5"",""19934""
","
","
","""event"",""trial"",""time""
""fullscreenenter"",""5"",""19934""
","
",325,NA,48,NA,NA,3000,1,NA,NA,images/earth.jpg,images/rocket2,images/rocket1,null,images/rocket2,NA,1,real,null,2,NA,NA,NA,sub129
d3-animate-choice,217,802708,0.0-76.0-1.27,TRUE,TRUE,TRUE,FALSE,"""event"",""trial"",""time""
""fullscreenenter"",""5"",""19934""
","
","
","""event"",""trial"",""time""
""fullscreenenter"",""5"",""19934""
","
",2216,NA,49,NA,NA,3000,1,NA,NA,images/purpleplanet.jpg,images/alien4,images/alien3,images/rocket2,images/alien3,images/nothing.png,2,real,true,1,common,0,2020-06-22T21:36:35Z,sub129
two-step-fixation,218,803711,0.0-76.0-2.27,TRUE,TRUE,TRUE,FALSE,"""event"",""trial"",""time""
""fullscreenenter"",""5"",""19934""
","
","
","""event"",""trial"",""time""
""fullscreenenter"",""5"",""19934""
","
",NA,images/earth.jpg,NA,NA,NA,NA,NA,NA,NA,NA,NA,NA,NA,NA,NA,fixation,NA,NA,NA,NA,NA,NA,sub129
d3-animate-choice,219,806050,0.0-76.0-0.28,TRUE,TRUE,TRUE,FALSE,"""event"",""trial"",""time""
""fullscreenenter"",""5"",""19934""
","
","
","""event"",""trial"",""time""
""fullscreenenter"",""5"",""19934""
","
",336.0000000001164,NA,48,NA,NA,3000,1,NA,NA,images/earth.jpg,images/rocket2,images/rocket1,null,images/rocket2,NA,1,real,null,2,NA,NA,NA,sub129
d3-animate-choice,220,808874,0.0-76.0-1.28,TRUE,TRUE,TRUE,FALSE,"""event"",""trial"",""time""
""fullscreenenter"",""5"",""19934""
","
","
","""event"",""trial"",""time""
""fullscreenenter"",""5"",""19934""
","
",821,NA,48,NA,NA,3000,1,NA,NA,images/purpleplanet.jpg,images/alien4,images/alien3,images/rocket2,images/alien4,images/t.png,2,real,true,2,common,1,2020-06-22T21:36:42Z,sub129
two-step-fixation,221,809876,0.0-76.0-2.28,TRUE,TRUE,TRUE,FALSE,"""event"",""trial"",""time""
""fullscreenenter"",""5"",""19934""
","
","
","""event"",""trial"",""time""
""fullscreenenter"",""5"",""19934""
","
",NA,images/earth.jpg,NA,NA,NA,NA,NA,NA,NA,NA,NA,NA,NA,NA,NA,fixation,NA,NA,NA,NA,NA,NA,sub129
d3-animate-choice,222,812341,0.0-76.0-0.29,TRUE,TRUE,TRUE,FALSE,"""event"",""trial"",""time""
""fullscreenenter"",""5"",""19934""
","
","
","""event"",""trial"",""time""
""fullscreenenter"",""5"",""19934""
","
",465,NA,48,NA,NA,3000,1,NA,NA,images/earth.jpg,images/rocket2,images/rocket1,null,images/rocket2,NA,1,real,null,2,NA,NA,NA,sub129
d3-animate-choice,223,814957,0.0-76.0-1.29,TRUE,TRUE,TRUE,FALSE,"""event"",""trial"",""time""
""fullscreenenter"",""5"",""19934""
","
","
","""event"",""trial"",""time""
""fullscreenenter"",""5"",""19934""
","
",614,NA,48,NA,NA,3000,1,NA,NA,images/purpleplanet.jpg,images/alien4,images/alien3,images/rocket2,images/alien4,images/t.png,2,real,true,2,common,1,2020-06-22T21:36:48Z,sub129
two-step-fixation,224,815960,0.0-76.0-2.29,TRUE,TRUE,TRUE,FALSE,"""event"",""trial"",""time""
""fullscreenenter"",""5"",""19934""
","
","
","""event"",""trial"",""time""
""fullscreenenter"",""5"",""19934""
","
",NA,images/earth.jpg,NA,NA,NA,NA,NA,NA,NA,NA,NA,NA,NA,NA,NA,fixation,NA,NA,NA,NA,NA,NA,sub129
d3-animate-choice,225,818450,0.0-76.0-0.30,TRUE,TRUE,TRUE,FALSE,"""event"",""trial"",""time""
""fullscreenenter"",""5"",""19934""
","
","
","""event"",""trial"",""time""
""fullscreenenter"",""5"",""19934""
","
",487,NA,48,NA,NA,3000,1,NA,NA,images/earth.jpg,images/rocket2,images/rocket1,null,images/rocket2,NA,1,real,null,2,NA,NA,NA,sub129
d3-animate-choice,226,821070,0.0-76.0-1.30,TRUE,TRUE,TRUE,FALSE,"""event"",""trial"",""time""
""fullscreenenter"",""5"",""19934""
","
","
","""event"",""trial"",""time""
""fullscreenenter"",""5"",""19934""
","
",617,NA,48,NA,NA,3000,1,NA,NA,images/purpleplanet.jpg,images/alien4,images/alien3,images/rocket2,images/alien4,images/t.png,2,real,true,2,common,1,2020-06-22T21:36:54Z,sub129
two-step-fixation,227,822072,0.0-76.0-2.30,TRUE,TRUE,TRUE,FALSE,"""event"",""trial"",""time""
""fullscreenenter"",""5"",""19934""
","
","
","""event"",""trial"",""time""
""fullscreenenter"",""5"",""19934""
","
",NA,images/earth.jpg,NA,NA,NA,NA,NA,NA,NA,NA,NA,NA,NA,NA,NA,fixation,NA,NA,NA,NA,NA,NA,sub129
d3-animate-choice,228,824405,0.0-76.0-0.31,TRUE,TRUE,TRUE,FALSE,"""event"",""trial"",""time""
""fullscreenenter"",""5"",""19934""
","
","
","""event"",""trial"",""time""
""fullscreenenter"",""5"",""19934""
","
",330,NA,48,NA,NA,3000,1,NA,NA,images/earth.jpg,images/rocket2,images/rocket1,null,images/rocket2,NA,1,real,null,2,NA,NA,NA,sub129
d3-animate-choice,229,826790,0.0-76.0-1.31,TRUE,TRUE,TRUE,FALSE,"""event"",""trial"",""time""
""fullscreenenter"",""5"",""19934""
","
","
","""event"",""trial"",""time""
""fullscreenenter"",""5"",""19934""
","
",383,NA,48,NA,NA,3000,1,NA,NA,images/purpleplanet.jpg,images/alien4,images/alien3,images/rocket2,images/alien4,images/t.png,2,real,true,2,common,1,2020-06-22T21:36:59Z,sub129
two-step-fixation,230,827792,0.0-76.0-2.31,TRUE,TRUE,TRUE,FALSE,"""event"",""trial"",""time""
""fullscreenenter"",""5"",""19934""
","
","
","""event"",""trial"",""time""
""fullscreenenter"",""5"",""19934""
","
",NA,images/earth.jpg,NA,NA,NA,NA,NA,NA,NA,NA,NA,NA,NA,NA,NA,fixation,NA,NA,NA,NA,NA,NA,sub129
d3-animate-choice,231,830127,0.0-76.0-0.32,TRUE,TRUE,TRUE,FALSE,"""event"",""trial"",""time""
""fullscreenenter"",""5"",""19934""
","
","
","""event"",""trial"",""time""
""fullscreenenter"",""5"",""19934""
","
",332,NA,48,NA,NA,3000,1,NA,NA,images/earth.jpg,images/rocket2,images/rocket1,null,images/rocket2,NA,1,real,null,2,NA,NA,NA,sub129
d3-animate-choice,232,832526,0.0-76.0-1.32,TRUE,TRUE,TRUE,FALSE,"""event"",""trial"",""time""
""fullscreenenter"",""5"",""19934""
","
","
","""event"",""trial"",""time""
""fullscreenenter"",""5"",""19934""
","
",397,NA,48,NA,NA,3000,1,NA,NA,images/purpleplanet.jpg,images/alien4,images/alien3,images/rocket2,images/alien4,images/t.png,2,real,true,2,common,1,2020-06-22T21:37:05Z,sub129
two-step-fixation,233,833528,0.0-76.0-2.32,TRUE,TRUE,TRUE,FALSE,"""event"",""trial"",""time""
""fullscreenenter"",""5"",""19934""
","
","
","""event"",""trial"",""time""
""fullscreenenter"",""5"",""19934""
","
",NA,images/earth.jpg,NA,NA,NA,NA,NA,NA,NA,NA,NA,NA,NA,NA,NA,fixation,NA,NA,NA,NA,NA,NA,sub129
d3-animate-choice,234,835885,0.0-76.0-0.33,TRUE,TRUE,TRUE,FALSE,"""event"",""trial"",""time""
""fullscreenenter"",""5"",""19934""
","
","
","""event"",""trial"",""time""
""fullscreenenter"",""5"",""19934""
","
",354.9999999998836,NA,48,NA,NA,3000,1,NA,NA,images/earth.jpg,images/rocket2,images/rocket1,null,images/rocket2,NA,1,real,null,2,NA,NA,NA,sub129
d3-animate-choice,235,838632,0.0-76.0-1.33,TRUE,TRUE,TRUE,FALSE,"""event"",""trial"",""time""
""fullscreenenter"",""5"",""19934""
","
","
","""event"",""trial"",""time""
""fullscreenenter"",""5"",""19934""
","
",744,NA,49,NA,NA,3000,1,NA,NA,images/redplanet1.jpg,images/alien2,images/alien1,images/rocket2,images/alien1,images/t.png,2,real,false,1,rare,1,2020-06-22T21:37:11Z,sub129
two-step-fixation,236,839634,0.0-76.0-2.33,TRUE,TRUE,TRUE,FALSE,"""event"",""trial"",""time""
""fullscreenenter"",""5"",""19934""
","
","
","""event"",""trial"",""time""
""fullscreenenter"",""5"",""19934""
","
",NA,images/earth.jpg,NA,NA,NA,NA,NA,NA,NA,NA,NA,NA,NA,NA,NA,fixation,NA,NA,NA,NA,NA,NA,sub129
d3-animate-choice,237,842011,0.0-76.0-0.34,TRUE,TRUE,TRUE,FALSE,"""event"",""trial"",""time""
""fullscreenenter"",""5"",""19934""
","
","
","""event"",""trial"",""time""
""fullscreenenter"",""5"",""19934""
","
",374,NA,48,NA,NA,3000,1,NA,NA,images/earth.jpg,images/rocket2,images/rocket1,null,images/rocket2,NA,1,real,null,2,NA,NA,NA,sub129
d3-animate-choice,238,844615,0.0-76.0-1.34,TRUE,TRUE,TRUE,FALSE,"""event"",""trial"",""time""
""fullscreenenter"",""5"",""19934""
","
","
","""event"",""trial"",""time""
""fullscreenenter"",""5"",""19934""
","
",602,NA,48,NA,NA,3000,1,NA,NA,images/purpleplanet.jpg,images/alien4,images/alien3,images/rocket2,images/alien4,images/t.png,2,real,true,2,common,1,2020-06-22T21:37:17Z,sub129
two-step-fixation,239,845617,0.0-76.0-2.34,TRUE,TRUE,TRUE,FALSE,"""event"",""trial"",""time""
""fullscreenenter"",""5"",""19934""
","
","
","""event"",""trial"",""time""
""fullscreenenter"",""5"",""19934""
","
",NA,images/earth.jpg,NA,NA,NA,NA,NA,NA,NA,NA,NA,NA,NA,NA,NA,fixation,NA,NA,NA,NA,NA,NA,sub129
d3-animate-choice,240,847969,0.0-76.0-0.35,TRUE,TRUE,TRUE,FALSE,"""event"",""trial"",""time""
""fullscreenenter"",""5"",""19934""
","
","
","""event"",""trial"",""time""
""fullscreenenter"",""5"",""19934""
","
",349,NA,48,NA,NA,3000,1,NA,NA,images/earth.jpg,images/rocket2,images/rocket1,null,images/rocket2,NA,1,real,null,2,NA,NA,NA,sub129
d3-animate-choice,241,850729,0.0-76.0-1.35,TRUE,TRUE,TRUE,FALSE,"""event"",""trial"",""time""
""fullscreenenter"",""5"",""19934""
","
","
","""event"",""trial"",""time""
""fullscreenenter"",""5"",""19934""
","
",758,NA,49,NA,NA,3000,1,NA,NA,images/redplanet1.jpg,images/alien2,images/alien1,images/rocket2,images/alien1,images/t.png,2,real,false,1,rare,1,2020-06-22T21:37:23Z,sub129
two-step-fixation,242,851732,0.0-76.0-2.35,TRUE,TRUE,TRUE,FALSE,"""event"",""trial"",""time""
""fullscreenenter"",""5"",""19934""
","
","
","""event"",""trial"",""time""
""fullscreenenter"",""5"",""19934""
","
",NA,images/earth.jpg,NA,NA,NA,NA,NA,NA,NA,NA,NA,NA,NA,NA,NA,fixation,NA,NA,NA,NA,NA,NA,sub129
d3-animate-choice,243,854055,0.0-76.0-0.36,TRUE,TRUE,TRUE,FALSE,"""event"",""trial"",""time""
""fullscreenenter"",""5"",""19934""
","
","
","""event"",""trial"",""time""
""fullscreenenter"",""5"",""19934""
","
",321,NA,48,NA,NA,3000,1,NA,NA,images/earth.jpg,images/rocket2,images/rocket1,null,images/rocket2,NA,1,real,null,2,NA,NA,NA,sub129
d3-animate-choice,244,856402,0.0-76.0-1.36,TRUE,TRUE,TRUE,FALSE,"""event"",""trial"",""time""
""fullscreenenter"",""5"",""19934""
","
","
","""event"",""trial"",""time""
""fullscreenenter"",""5"",""19934""
","
",345,NA,48,NA,NA,3000,1,NA,NA,images/purpleplanet.jpg,images/alien4,images/alien3,images/rocket2,images/alien4,images/t.png,2,real,true,2,common,1,2020-06-22T21:37:29Z,sub129
two-step-fixation,245,857404,0.0-76.0-2.36,TRUE,TRUE,TRUE,FALSE,"""event"",""trial"",""time""
""fullscreenenter"",""5"",""19934""
","
","
","""event"",""trial"",""time""
""fullscreenenter"",""5"",""19934""
","
",NA,images/earth.jpg,NA,NA,NA,NA,NA,NA,NA,NA,NA,NA,NA,NA,NA,fixation,NA,NA,NA,NA,NA,NA,sub129
d3-animate-choice,246,859702,0.0-76.0-0.37,TRUE,TRUE,TRUE,FALSE,"""event"",""trial"",""time""
""fullscreenenter"",""5"",""19934""
","
","
","""event"",""trial"",""time""
""fullscreenenter"",""5"",""19934""
","
",295,NA,48,NA,NA,3000,1,NA,NA,images/earth.jpg,images/rocket2,images/rocket1,null,images/rocket2,NA,1,real,null,2,NA,NA,NA,sub129
d3-animate-choice,247,862199,0.0-76.0-1.37,TRUE,TRUE,TRUE,FALSE,"""event"",""trial"",""time""
""fullscreenenter"",""5"",""19934""
","
","
","""event"",""trial"",""time""
""fullscreenenter"",""5"",""19934""
","
",495,NA,48,NA,NA,3000,1,NA,NA,images/purpleplanet.jpg,images/alien4,images/alien3,images/rocket2,images/alien4,images/t.png,2,real,true,2,common,1,2020-06-22T21:37:35Z,sub129
two-step-fixation,248,863200,0.0-76.0-2.37,TRUE,TRUE,TRUE,FALSE,"""event"",""trial"",""time""
""fullscreenenter"",""5"",""19934""
","
","
","""event"",""trial"",""time""
""fullscreenenter"",""5"",""19934""
","
",NA,images/earth.jpg,NA,NA,NA,NA,NA,NA,NA,NA,NA,NA,NA,NA,NA,fixation,NA,NA,NA,NA,NA,NA,sub129
d3-animate-choice,249,865528,0.0-76.0-0.38,TRUE,TRUE,TRUE,FALSE,"""event"",""trial"",""time""
""fullscreenenter"",""5"",""19934""
","
","
","""event"",""trial"",""time""
""fullscreenenter"",""5"",""19934""
","
",324.9999999998836,NA,48,NA,NA,3000,1,NA,NA,images/earth.jpg,images/rocket2,images/rocket1,null,images/rocket2,NA,1,real,null,2,NA,NA,NA,sub129
d3-animate-choice,250,868006,0.0-76.0-1.38,TRUE,TRUE,TRUE,FALSE,"""event"",""trial"",""time""
""fullscreenenter"",""5"",""19934""
","
","
","""event"",""trial"",""time""
""fullscreenenter"",""5"",""19934""
","
",475.0000000001164,NA,48,NA,NA,3000,1,NA,NA,images/purpleplanet.jpg,images/alien4,images/alien3,images/rocket2,images/alien4,images/nothing.png,2,real,true,2,common,0,2020-06-22T21:37:41Z,sub129
two-step-fixation,251,869008,0.0-76.0-2.38,TRUE,TRUE,TRUE,FALSE,"""event"",""trial"",""time""
""fullscreenenter"",""5"",""19934""
","
","
","""event"",""trial"",""time""
""fullscreenenter"",""5"",""19934""
","
",NA,images/earth.jpg,NA,NA,NA,NA,NA,NA,NA,NA,NA,NA,NA,NA,NA,fixation,NA,NA,NA,NA,NA,NA,sub129
d3-animate-choice,252,871235,0.0-76.0-0.39,TRUE,TRUE,TRUE,FALSE,"""event"",""trial"",""time""
""fullscreenenter"",""5"",""19934""
","
","
","""event"",""trial"",""time""
""fullscreenenter"",""5"",""19934""
","
",224,NA,48,NA,NA,3000,1,NA,NA,images/earth.jpg,images/rocket2,images/rocket1,null,images/rocket2,NA,1,real,null,2,NA,NA,NA,sub129
d3-animate-choice,253,873695,0.0-76.0-1.39,TRUE,TRUE,TRUE,FALSE,"""event"",""trial"",""time""
""fullscreenenter"",""5"",""19934""
","
","
","""event"",""trial"",""time""
""fullscreenenter"",""5"",""19934""
","
",457,NA,48,NA,NA,3000,1,NA,NA,images/purpleplanet.jpg,images/alien4,images/alien3,images/rocket2,images/alien4,images/t.png,2,real,true,2,common,1,2020-06-22T21:37:46Z,sub129
two-step-fixation,254,874698,0.0-76.0-2.39,TRUE,TRUE,TRUE,FALSE,"""event"",""trial"",""time""
""fullscreenenter"",""5"",""19934""
","
","
","""event"",""trial"",""time""
""fullscreenenter"",""5"",""19934""
","
",NA,images/earth.jpg,NA,NA,NA,NA,NA,NA,NA,NA,NA,NA,NA,NA,NA,fixation,NA,NA,NA,NA,NA,NA,sub129
d3-animate-choice,255,877023,0.0-76.0-0.40,TRUE,TRUE,TRUE,FALSE,"""event"",""trial"",""time""
""fullscreenenter"",""5"",""19934""
","
","
","""event"",""trial"",""time""
""fullscreenenter"",""5"",""19934""
","
",322,NA,48,NA,NA,3000,1,NA,NA,images/earth.jpg,images/rocket2,images/rocket1,null,images/rocket2,NA,1,real,null,2,NA,NA,NA,sub129
d3-animate-choice,256,879387,0.0-76.0-1.40,TRUE,TRUE,TRUE,FALSE,"""event"",""trial"",""time""
""fullscreenenter"",""5"",""19934""
","
","
","""event"",""trial"",""time""
""fullscreenenter"",""5"",""19934""
","
",361,NA,48,NA,NA,3000,1,NA,NA,images/purpleplanet.jpg,images/alien4,images/alien3,images/rocket2,images/alien4,images/t.png,2,real,true,2,common,1,2020-06-22T21:37:52Z,sub129
two-step-fixation,257,880389,0.0-76.0-2.40,TRUE,TRUE,TRUE,FALSE,"""event"",""trial"",""time""
""fullscreenenter"",""5"",""19934""
","
","
","""event"",""trial"",""time""
""fullscreenenter"",""5"",""19934""
","
",NA,images/earth.jpg,NA,NA,NA,NA,NA,NA,NA,NA,NA,NA,NA,NA,NA,fixation,NA,NA,NA,NA,NA,NA,sub129
d3-animate-choice,258,882900,0.0-76.0-0.41,TRUE,TRUE,TRUE,FALSE,"""event"",""trial"",""time""
""fullscreenenter"",""5"",""19934""
","
","
","""event"",""trial"",""time""
""fullscreenenter"",""5"",""19934""
","
",510,NA,48,NA,NA,3000,1,NA,NA,images/earth.jpg,images/rocket2,images/rocket1,null,images/rocket2,NA,1,real,null,2,NA,NA,NA,sub129
d3-animate-choice,259,885159,0.0-76.0-1.41,TRUE,TRUE,TRUE,FALSE,"""event"",""trial"",""time""
""fullscreenenter"",""5"",""19934""
","
","
","""event"",""trial"",""time""
""fullscreenenter"",""5"",""19934""
","
",257.0000000001164,NA,48,NA,NA,3000,1,NA,NA,images/redplanet1.jpg,images/alien2,images/alien1,images/rocket2,images/alien2,images/t.png,2,real,false,2,rare,1,2020-06-22T21:37:58Z,sub129
two-step-fixation,260,886162,0.0-76.0-2.41,TRUE,TRUE,TRUE,FALSE,"""event"",""trial"",""time""
""fullscreenenter"",""5"",""19934""
","
","
","""event"",""trial"",""time""
""fullscreenenter"",""5"",""19934""
","
",NA,images/earth.jpg,NA,NA,NA,NA,NA,NA,NA,NA,NA,NA,NA,NA,NA,fixation,NA,NA,NA,NA,NA,NA,sub129
d3-animate-choice,261,888550,0.0-76.0-0.42,TRUE,TRUE,TRUE,FALSE,"""event"",""trial"",""time""
""fullscreenenter"",""5"",""19934""
","
","
","""event"",""trial"",""time""
""fullscreenenter"",""5"",""19934""
","
",386,NA,48,NA,NA,3000,1,NA,NA,images/earth.jpg,images/rocket2,images/rocket1,null,images/rocket2,NA,1,real,null,2,NA,NA,NA,sub129
d3-animate-choice,262,891382,0.0-76.0-1.42,TRUE,TRUE,TRUE,FALSE,"""event"",""trial"",""time""
""fullscreenenter"",""5"",""19934""
","
","
","""event"",""trial"",""time""
""fullscreenenter"",""5"",""19934""
","
",829,NA,48,NA,NA,3000,1,NA,NA,images/purpleplanet.jpg,images/alien4,images/alien3,images/rocket2,images/alien4,images/nothing.png,2,real,true,2,common,0,2020-06-22T21:38:04Z,sub129
two-step-fixation,263,892385,0.0-76.0-2.42,TRUE,TRUE,TRUE,FALSE,"""event"",""trial"",""time""
""fullscreenenter"",""5"",""19934""
","
","
","""event"",""trial"",""time""
""fullscreenenter"",""5"",""19934""
","
",NA,images/earth.jpg,NA,NA,NA,NA,NA,NA,NA,NA,NA,NA,NA,NA,NA,fixation,NA,NA,NA,NA,NA,NA,sub129
d3-animate-choice,264,894706,0.0-76.0-0.43,TRUE,TRUE,TRUE,FALSE,"""event"",""trial"",""time""
""fullscreenenter"",""5"",""19934""
","
","
","""event"",""trial"",""time""
""fullscreenenter"",""5"",""19934""
","
",318,NA,49,NA,NA,3000,1,NA,NA,images/earth.jpg,images/rocket2,images/rocket1,null,images/rocket1,NA,1,real,null,1,NA,NA,NA,sub129
d3-animate-choice,265,897166,0.0-76.0-1.43,TRUE,TRUE,TRUE,FALSE,"""event"",""trial"",""time""
""fullscreenenter"",""5"",""19934""
","
","
","""event"",""trial"",""time""
""fullscreenenter"",""5"",""19934""
","
",458,NA,49,NA,NA,3000,1,NA,NA,images/redplanet1.jpg,images/alien2,images/alien1,images/rocket1,images/alien1,images/nothing.png,2,real,true,1,common,0,2020-06-22T21:38:10Z,sub129
two-step-fixation,266,898168,0.0-76.0-2.43,TRUE,TRUE,TRUE,FALSE,"""event"",""trial"",""time""
""fullscreenenter"",""5"",""19934""
","
","
","""event"",""trial"",""time""
""fullscreenenter"",""5"",""19934""
","
",NA,images/earth.jpg,NA,NA,NA,NA,NA,NA,NA,NA,NA,NA,NA,NA,NA,fixation,NA,NA,NA,NA,NA,NA,sub129
d3-animate-choice,267,900485,0.0-76.0-0.44,TRUE,TRUE,TRUE,FALSE,"""event"",""trial"",""time""
""fullscreenenter"",""5"",""19934""
","
","
","""event"",""trial"",""time""
""fullscreenenter"",""5"",""19934""
","
",314,NA,48,NA,NA,3000,1,NA,NA,images/earth.jpg,images/rocket2,images/rocket1,null,images/rocket2,NA,1,real,null,2,NA,NA,NA,sub129
d3-animate-choice,268,902889,0.0-76.0-1.44,TRUE,TRUE,TRUE,FALSE,"""event"",""trial"",""time""
""fullscreenenter"",""5"",""19934""
","
","
","""event"",""trial"",""time""
""fullscreenenter"",""5"",""19934""
","
",403,NA,48,NA,NA,3000,1,NA,NA,images/purpleplanet.jpg,images/alien4,images/alien3,images/rocket2,images/alien4,images/t.png,2,real,true,2,common,1,2020-06-22T21:38:16Z,sub129
two-step-fixation,269,903891,0.0-76.0-2.44,TRUE,TRUE,TRUE,FALSE,"""event"",""trial"",""time""
""fullscreenenter"",""5"",""19934""
","
","
","""event"",""trial"",""time""
""fullscreenenter"",""5"",""19934""
","
",NA,images/earth.jpg,NA,NA,NA,NA,NA,NA,NA,NA,NA,NA,NA,NA,NA,fixation,NA,NA,NA,NA,NA,NA,sub129
d3-animate-choice,270,906315,0.0-76.0-0.45,TRUE,TRUE,TRUE,FALSE,"""event"",""trial"",""time""
""fullscreenenter"",""5"",""19934""
","
","
","""event"",""trial"",""time""
""fullscreenenter"",""5"",""19934""
","
",422,NA,48,NA,NA,3000,1,NA,NA,images/earth.jpg,images/rocket2,images/rocket1,null,images/rocket2,NA,1,real,null,2,NA,NA,NA,sub129
d3-animate-choice,271,910071,0.0-76.0-1.45,TRUE,TRUE,TRUE,FALSE,"""event"",""trial"",""time""
""fullscreenenter"",""5"",""19934""
","
","
","""event"",""trial"",""time""
""fullscreenenter"",""5"",""19934""
","
",1753.9999999998836,NA,49,NA,NA,3000,1,NA,NA,images/purpleplanet.jpg,images/alien4,images/alien3,images/rocket2,images/alien3,images/nothing.png,2,real,true,1,common,0,2020-06-22T21:38:23Z,sub129
two-step-fixation,272,911073,0.0-76.0-2.45,TRUE,TRUE,TRUE,FALSE,"""event"",""trial"",""time""
""fullscreenenter"",""5"",""19934""
","
","
","""event"",""trial"",""time""
""fullscreenenter"",""5"",""19934""
","
",NA,images/earth.jpg,NA,NA,NA,NA,NA,NA,NA,NA,NA,NA,NA,NA,NA,fixation,NA,NA,NA,NA,NA,NA,sub129
d3-animate-choice,273,913474,0.0-76.0-0.46,TRUE,TRUE,TRUE,FALSE,"""event"",""trial"",""time""
""fullscreenenter"",""5"",""19934""
","
","
","""event"",""trial"",""time""
""fullscreenenter"",""5"",""19934""
","
",398,NA,48,NA,NA,3000,1,NA,NA,images/earth.jpg,images/rocket2,images/rocket1,null,images/rocket2,NA,1,real,null,2,NA,NA,NA,sub129
d3-animate-choice,274,916198,0.0-76.0-1.46,TRUE,TRUE,TRUE,FALSE,"""event"",""trial"",""time""
""fullscreenenter"",""5"",""19934""
","
","
","""event"",""trial"",""time""
""fullscreenenter"",""5"",""19934""
","
",722.9999999998836,NA,48,NA,NA,3000,1,NA,NA,images/purpleplanet.jpg,images/alien4,images/alien3,images/rocket2,images/alien4,images/nothing.png,2,real,true,2,common,0,2020-06-22T21:38:29Z,sub129
two-step-fixation,275,917199,0.0-76.0-2.46,TRUE,TRUE,TRUE,FALSE,"""event"",""trial"",""time""
""fullscreenenter"",""5"",""19934""
","
","
","""event"",""trial"",""time""
""fullscreenenter"",""5"",""19934""
","
",NA,images/earth.jpg,NA,NA,NA,NA,NA,NA,NA,NA,NA,NA,NA,NA,NA,fixation,NA,NA,NA,NA,NA,NA,sub129
d3-animate-choice,276,919491,0.0-76.0-0.47,TRUE,TRUE,TRUE,FALSE,"""event"",""trial"",""time""
""fullscreenenter"",""5"",""19934""
","
","
","""event"",""trial"",""time""
""fullscreenenter"",""5"",""19934""
","
",289.0000000001164,NA,48,NA,NA,3000,1,NA,NA,images/earth.jpg,images/rocket2,images/rocket1,null,images/rocket2,NA,1,real,null,2,NA,NA,NA,sub129
d3-animate-choice,277,921950,0.0-76.0-1.47,TRUE,TRUE,TRUE,FALSE,"""event"",""trial"",""time""
""fullscreenenter"",""5"",""19934""
","
","
","""event"",""trial"",""time""
""fullscreenenter"",""5"",""19934""
","
",457,NA,48,NA,NA,3000,1,NA,NA,images/purpleplanet.jpg,images/alien4,images/alien3,images/rocket2,images/alien4,images/t.png,2,real,true,2,common,1,2020-06-22T21:38:35Z,sub129
two-step-fixation,278,922952,0.0-76.0-2.47,TRUE,TRUE,TRUE,FALSE,"""event"",""trial"",""time""
""fullscreenenter"",""5"",""19934""
","
","
","""event"",""trial"",""time""
""fullscreenenter"",""5"",""19934""
","
",NA,images/earth.jpg,NA,NA,NA,NA,NA,NA,NA,NA,NA,NA,NA,NA,NA,fixation,NA,NA,NA,NA,NA,NA,sub129
d3-animate-choice,279,925530,0.0-76.0-0.48,TRUE,TRUE,TRUE,FALSE,"""event"",""trial"",""time""
""fullscreenenter"",""5"",""19934""
","
","
","""event"",""trial"",""time""
""fullscreenenter"",""5"",""19934""
","
",576,NA,48,NA,NA,3000,1,NA,NA,images/earth.jpg,images/rocket2,images/rocket1,null,images/rocket2,NA,1,real,null,2,NA,NA,NA,sub129
d3-animate-choice,280,928064,0.0-76.0-1.48,TRUE,TRUE,TRUE,FALSE,"""event"",""trial"",""time""
""fullscreenenter"",""5"",""19934""
","
","
","""event"",""trial"",""time""
""fullscreenenter"",""5"",""19934""
","
",531,NA,48,NA,NA,3000,1,NA,NA,images/purpleplanet.jpg,images/alien4,images/alien3,images/rocket2,images/alien4,images/nothing.png,2,real,true,2,common,0,2020-06-22T21:38:41Z,sub129
two-step-fixation,281,929066,0.0-76.0-2.48,TRUE,TRUE,TRUE,FALSE,"""event"",""trial"",""time""
""fullscreenenter"",""5"",""19934""
","
","
","""event"",""trial"",""time""
""fullscreenenter"",""5"",""19934""
","
",NA,images/earth.jpg,NA,NA,NA,NA,NA,NA,NA,NA,NA,NA,NA,NA,NA,fixation,NA,NA,NA,NA,NA,NA,sub129
d3-animate-choice,282,931339,0.0-76.0-0.49,TRUE,TRUE,TRUE,FALSE,"""event"",""trial"",""time""
""fullscreenenter"",""5"",""19934""
","
","
","""event"",""trial"",""time""
""fullscreenenter"",""5"",""19934""
","
",271,NA,49,NA,NA,3000,1,NA,NA,images/earth.jpg,images/rocket2,images/rocket1,null,images/rocket1,NA,1,real,null,1,NA,NA,NA,sub129
d3-animate-choice,283,934219,0.0-76.0-1.49,TRUE,TRUE,TRUE,FALSE,"""event"",""trial"",""time""
""fullscreenenter"",""5"",""19934""
","
","
","""event"",""trial"",""time""
""fullscreenenter"",""5"",""19934""
","
",877,NA,48,NA,NA,3000,1,1410,48,images/purpleplanet.jpg,images/alien4,images/alien3,images/rocket1,images/alien4,images/t.png,2,real,false,2,rare,1,2020-06-22T21:38:47Z,sub129
two-step-fixation,284,935221,0.0-76.0-2.49,TRUE,TRUE,TRUE,FALSE,"""event"",""trial"",""time""
""fullscreenenter"",""5"",""19934""
","
","
","""event"",""trial"",""time""
""fullscreenenter"",""5"",""19934""
","
",NA,images/earth.jpg,NA,NA,NA,NA,NA,NA,NA,NA,NA,NA,NA,NA,NA,fixation,NA,NA,NA,NA,NA,NA,sub129
audio-button-response-2,285,946821,0.0-77.0,TRUE,TRUE,TRUE,FALSE,"""event"",""trial"",""time""
""fullscreenenter"",""5"",""19934""
","
","
","""event"",""trial"",""time""
""fullscreenenter"",""5"",""19934""
","
",11597.000000000116,audio/instructions/break_1.wav,NA,0,NA,NA,NA,NA,NA,NA,NA,NA,NA,NA,NA,NA,NA,NA,NA,NA,NA,NA,sub129
d3-animate-choice,286,950395,0.0-78.0-0.0,TRUE,TRUE,TRUE,FALSE,"""event"",""trial"",""time""
""fullscreenenter"",""5"",""19934""
","
","
","""event"",""trial"",""time""
""fullscreenenter"",""5"",""19934""
","
",1572,NA,48,NA,NA,3000,1,NA,NA,images/earth.jpg,images/rocket2,images/rocket1,null,images/rocket2,NA,1,real,null,2,NA,NA,NA,sub129
d3-animate-choice,287,953346,0.0-78.0-1.0,TRUE,TRUE,TRUE,FALSE,"""event"",""trial"",""time""
""fullscreenenter"",""5"",""19934""
","
","
","""event"",""trial"",""time""
""fullscreenenter"",""5"",""19934""
","
",948.0000000001164,NA,49,NA,NA,3000,1,NA,NA,images/redplanet1.jpg,images/alien2,images/alien1,images/rocket2,images/alien1,images/t.png,2,real,false,1,rare,1,2020-06-22T21:39:06Z,sub129
two-step-fixation,288,954348,0.0-78.0-2.0,TRUE,TRUE,TRUE,FALSE,"""event"",""trial"",""time""
""fullscreenenter"",""5"",""19934""
","
","
","""event"",""trial"",""time""
""fullscreenenter"",""5"",""19934""
","
",NA,images/earth.jpg,NA,NA,NA,NA,NA,NA,NA,NA,NA,NA,NA,NA,NA,fixation,NA,NA,NA,NA,NA,NA,sub129
