trial_type,trial_index,time_elapsed,internal_node_id,rocket_sides,red_planet_first_rocket,red_display_order,purple_display_order,interactions,blur_events,focus_events,fullscreenenter_events,fullscreenexit_events,rt,stimulus,key_press,button_pressed,success,duration,valid_pressed,rts,keys,planet_text,right_text,left_text,center_text,chosen_text,reward_text,trial_stage,practice_trial,transition_type,choice,transition,reward,timestamp,subject_id
pavlovia,0,4,0.0-0.0,TRUE,FALSE,FALSE,TRUE,"
","
","
","
","
",NA,NA,NA,NA,NA,NA,NA,NA,NA,NA,NA,NA,NA,NA,NA,NA,NA,NA,NA,NA,NA,NA,sub11
html-keyboard-response,1,3921,0.0-1.0,TRUE,FALSE,FALSE,TRUE,"
","
","
","
","
",3915.000000000002,Welcome! Press the space bar to begin.,32,NA,NA,NA,NA,NA,NA,NA,NA,NA,NA,NA,NA,NA,NA,NA,NA,NA,NA,NA,sub11
audio-keyboard-response,2,4950,0.0-2.0,TRUE,FALSE,FALSE,TRUE,"
","
","
","
","
",830,audio/beep_loop.wav,32,NA,NA,NA,NA,NA,NA,NA,NA,NA,NA,NA,NA,NA,NA,NA,NA,NA,NA,NA,sub11
audio-button-response,3,10778,0.0-3.0,TRUE,FALSE,FALSE,TRUE,"
","
","
","
","
",NaN,audio/fish.mp3,NA,1,NA,NA,NA,NA,NA,NA,NA,NA,NA,NA,NA,NA,NA,NA,NA,NA,NA,NA,sub11
audio-button-response,4,13984,0.0-4.0,TRUE,FALSE,FALSE,TRUE,"""event"",""trial"",""time""
""fullscreenenter"",""5"",""17944""
","
","
","""event"",""trial"",""time""
""fullscreenenter"",""5"",""17944""
","
",NaN,audio/tiger.mp3,NA,4,NA,NA,NA,NA,NA,NA,NA,NA,NA,NA,NA,NA,NA,NA,NA,NA,NA,NA,sub11
fullscreen,5,18866,0.0-5.0,TRUE,FALSE,FALSE,TRUE,"""event"",""trial"",""time""
""fullscreenenter"",""5"",""17944""
""fullscreenexit"",""6"",""51631""
","
","
","""event"",""trial"",""time""
""fullscreenenter"",""5"",""17944""
","""event"",""trial"",""time""
""fullscreenexit"",""6"",""51631""
",NA,NA,NA,NA,TRUE,NA,NA,NA,NA,NA,NA,NA,NA,NA,NA,NA,NA,NA,NA,NA,NA,NA,sub11
d3-instructions,6,62596,0.0-6.0,TRUE,FALSE,FALSE,TRUE,"""event"",""trial"",""time""
""fullscreenenter"",""5"",""17944""
""fullscreenexit"",""6"",""51631""
","
","
","""event"",""trial"",""time""
""fullscreenenter"",""5"",""17944""
","""event"",""trial"",""time""
""fullscreenexit"",""6"",""51631""
",NA,NA,NA,NA,NA,NA,NA,NA,NA,NA,NA,NA,NA,NA,NA,NA,NA,NA,NA,NA,NA,NA,sub11
d3-instructions,7,74059,0.0-7.0,TRUE,FALSE,FALSE,TRUE,"""event"",""trial"",""time""
""fullscreenenter"",""5"",""17944""
""fullscreenexit"",""6"",""51631""
","
","
","""event"",""trial"",""time""
""fullscreenenter"",""5"",""17944""
","""event"",""trial"",""time""
""fullscreenexit"",""6"",""51631""
",NA,NA,NA,NA,NA,NA,NA,NA,NA,NA,NA,NA,NA,NA,NA,NA,NA,NA,NA,NA,NA,NA,sub11
d3-instructions,8,84522,0.0-8.0,TRUE,FALSE,FALSE,TRUE,"""event"",""trial"",""time""
""fullscreenenter"",""5"",""17944""
""fullscreenexit"",""6"",""51631""
","
","
","""event"",""trial"",""time""
""fullscreenenter"",""5"",""17944""
","""event"",""trial"",""time""
""fullscreenexit"",""6"",""51631""
",NA,NA,NA,NA,NA,NA,NA,NA,NA,NA,NA,NA,NA,NA,NA,NA,NA,NA,NA,NA,NA,NA,sub11
d3-instructions,9,97989,0.0-9.0,TRUE,FALSE,FALSE,TRUE,"""event"",""trial"",""time""
""fullscreenenter"",""5"",""17944""
""fullscreenexit"",""6"",""51631""
","
","
","""event"",""trial"",""time""
""fullscreenenter"",""5"",""17944""
","""event"",""trial"",""time""
""fullscreenexit"",""6"",""51631""
",NA,NA,NA,NA,NA,NA,NA,NA,NA,NA,NA,NA,NA,NA,NA,NA,NA,NA,NA,NA,NA,NA,sub11
d3-instructions,10,126069,0.0-10.0,TRUE,FALSE,FALSE,TRUE,"""event"",""trial"",""time""
""fullscreenenter"",""5"",""17944""
""fullscreenexit"",""6"",""51631""
","
","
","""event"",""trial"",""time""
""fullscreenenter"",""5"",""17944""
","""event"",""trial"",""time""
""fullscreenexit"",""6"",""51631""
",NA,NA,NA,NA,NA,NA,NA,NA,NA,NA,NA,NA,NA,NA,NA,NA,NA,NA,NA,NA,NA,NA,sub11
d3-animate-choice,11,130907,0.0-11.0,TRUE,FALSE,FALSE,TRUE,"""event"",""trial"",""time""
""fullscreenenter"",""5"",""17944""
""fullscreenexit"",""6"",""51631""
","
","
","""event"",""trial"",""time""
""fullscreenenter"",""5"",""17944""
","""event"",""trial"",""time""
""fullscreenexit"",""6"",""51631""
",2834,NA,48,NA,NA,3000,1,4498,49,images/tutgreenplanet.jpg,images/tutalien1,images/tutalien2,null,images/tutalien1,NA,NA,practice,null,NA,NA,NA,NA,sub11
d3-animate-choice,12,135360,0.0-12.0,TRUE,FALSE,FALSE,TRUE,"""event"",""trial"",""time""
""fullscreenenter"",""5"",""17944""
""fullscreenexit"",""6"",""51631""
","
","
","""event"",""trial"",""time""
""fullscreenenter"",""5"",""17944""
","""event"",""trial"",""time""
""fullscreenexit"",""6"",""51631""
",2451,NA,49,NA,NA,3000,1,3677,49,images/tutgreenplanet.jpg,images/tutalien1,images/tutalien2,null,images/tutalien2,NA,NA,practice,null,NA,NA,NA,NA,sub11
d3-animate-choice,13,139163,0.0-13.0,TRUE,FALSE,FALSE,TRUE,"""event"",""trial"",""time""
""fullscreenenter"",""5"",""17944""
""fullscreenexit"",""6"",""51631""
","
","
","""event"",""trial"",""time""
""fullscreenenter"",""5"",""17944""
","""event"",""trial"",""time""
""fullscreenexit"",""6"",""51631""
",1799.999999999971,NA,48,NA,NA,3000,1,NA,NA,images/tutgreenplanet.jpg,images/tutalien1,images/tutalien2,null,images/tutalien1,NA,NA,practice,null,NA,NA,NA,NA,sub11
d3-animate-choice,14,141829,0.0-14.0,TRUE,FALSE,FALSE,TRUE,"""event"",""trial"",""time""
""fullscreenenter"",""5"",""17944""
""fullscreenexit"",""6"",""51631""
","
","
","""event"",""trial"",""time""
""fullscreenenter"",""5"",""17944""
","""event"",""trial"",""time""
""fullscreenexit"",""6"",""51631""
",665,NA,49,NA,NA,3000,1,NA,NA,images/tutgreenplanet.jpg,images/tutalien1,images/tutalien2,null,images/tutalien2,NA,NA,practice,null,NA,NA,NA,NA,sub11
d3-instructions,15,150426,0.0-15.0,TRUE,FALSE,FALSE,TRUE,"""event"",""trial"",""time""
""fullscreenenter"",""5"",""17944""
""fullscreenexit"",""6"",""51631""
","
","
","""event"",""trial"",""time""
""fullscreenenter"",""5"",""17944""
","""event"",""trial"",""time""
""fullscreenexit"",""6"",""51631""
",NA,NA,NA,NA,NA,NA,NA,NA,NA,NA,NA,NA,NA,NA,NA,NA,NA,NA,NA,NA,NA,NA,sub11
d3-instructions,16,159313,0.0-16.0,TRUE,FALSE,FALSE,TRUE,"""event"",""trial"",""time""
""fullscreenenter"",""5"",""17944""
""fullscreenexit"",""6"",""51631""
","
","
","""event"",""trial"",""time""
""fullscreenenter"",""5"",""17944""
","""event"",""trial"",""time""
""fullscreenexit"",""6"",""51631""
",NA,NA,NA,NA,NA,NA,NA,NA,NA,NA,NA,NA,NA,NA,NA,NA,NA,NA,NA,NA,NA,NA,sub11
d3-instructions,17,169033,0.0-17.0,TRUE,FALSE,FALSE,TRUE,"""event"",""trial"",""time""
""fullscreenenter"",""5"",""17944""
""fullscreenexit"",""6"",""51631""
","
","
","""event"",""trial"",""time""
""fullscreenenter"",""5"",""17944""
","""event"",""trial"",""time""
""fullscreenexit"",""6"",""51631""
",NA,NA,NA,NA,NA,NA,NA,NA,NA,NA,NA,NA,NA,NA,NA,NA,NA,NA,NA,NA,NA,NA,sub11
d3-instructions,18,183253,0.0-18.0,TRUE,FALSE,FALSE,TRUE,"""event"",""trial"",""time""
""fullscreenenter"",""5"",""17944""
""fullscreenexit"",""6"",""51631""
","
","
","""event"",""trial"",""time""
""fullscreenenter"",""5"",""17944""
","""event"",""trial"",""time""
""fullscreenexit"",""6"",""51631""
",NA,NA,NA,NA,NA,NA,NA,NA,NA,NA,NA,NA,NA,NA,NA,NA,NA,NA,NA,NA,NA,NA,sub11
d3-instructions,19,198723,0.0-19.0,TRUE,FALSE,FALSE,TRUE,"""event"",""trial"",""time""
""fullscreenenter"",""5"",""17944""
""fullscreenexit"",""6"",""51631""
","
","
","""event"",""trial"",""time""
""fullscreenenter"",""5"",""17944""
","""event"",""trial"",""time""
""fullscreenexit"",""6"",""51631""
",NA,NA,NA,NA,NA,NA,NA,NA,NA,NA,NA,NA,NA,NA,NA,NA,NA,NA,NA,NA,NA,NA,sub11
d3-animate-choice,20,202411,0.0-20.0,TRUE,FALSE,FALSE,TRUE,"""event"",""trial"",""time""
""fullscreenenter"",""5"",""17944""
""fullscreenexit"",""6"",""51631""
","
","
","""event"",""trial"",""time""
""fullscreenenter"",""5"",""17944""
","""event"",""trial"",""time""
""fullscreenexit"",""6"",""51631""
",1686,NA,49,NA,NA,3000,1,2451,49,images/tutyellowplanet.jpg,null,images/tutalien3,null,images/tutalien3,images/t.png,NA,practice,null,NA,NA,NA,NA,sub11
d3-animate-choice,21,206124,0.0-21.0,TRUE,FALSE,FALSE,TRUE,"""event"",""trial"",""time""
""fullscreenenter"",""5"",""17944""
""fullscreenexit"",""6"",""51631""
","
","
","""event"",""trial"",""time""
""fullscreenenter"",""5"",""17944""
","""event"",""trial"",""time""
""fullscreenexit"",""6"",""51631""
",1711.000000000029,NA,49,NA,NA,3000,1,2330.000000000029,49,images/tutyellowplanet.jpg,null,images/tutalien3,null,images/tutalien3,images/t.png,NA,practice,null,NA,NA,NA,NA,sub11
d3-animate-choice,22,209048,0.0-22.0,TRUE,FALSE,FALSE,TRUE,"""event"",""trial"",""time""
""fullscreenenter"",""5"",""17944""
""fullscreenexit"",""6"",""51631""
","
","
","""event"",""trial"",""time""
""fullscreenenter"",""5"",""17944""
","""event"",""trial"",""time""
""fullscreenexit"",""6"",""51631""
",923,NA,49,NA,NA,3000,1,1441,49,images/tutyellowplanet.jpg,null,images/tutalien3,null,images/tutalien3,images/t.png,NA,practice,null,NA,NA,NA,NA,sub11
d3-animate-choice,23,211592,0.0-23.0,TRUE,FALSE,FALSE,TRUE,"""event"",""trial"",""time""
""fullscreenenter"",""5"",""17944""
""fullscreenexit"",""6"",""51631""
","
","
","""event"",""trial"",""time""
""fullscreenenter"",""5"",""17944""
","""event"",""trial"",""time""
""fullscreenexit"",""6"",""51631""
",542,NA,49,NA,NA,3000,1,1060,49,images/tutyellowplanet.jpg,null,images/tutalien3,null,images/tutalien3,images/nothing.png,NA,practice,null,NA,NA,NA,NA,sub11
d3-animate-choice,24,214674,0.0-24.0,TRUE,FALSE,FALSE,TRUE,"""event"",""trial"",""time""
""fullscreenenter"",""5"",""17944""
""fullscreenexit"",""6"",""51631""
","
","
","""event"",""trial"",""time""
""fullscreenenter"",""5"",""17944""
","""event"",""trial"",""time""
""fullscreenexit"",""6"",""51631""
",1080,NA,49,NA,NA,3000,1,NA,NA,images/tutyellowplanet.jpg,null,images/tutalien3,null,images/tutalien3,images/t.png,NA,practice,null,NA,NA,NA,NA,sub11
d3-animate-choice,25,217397,0.0-25.0,TRUE,FALSE,FALSE,TRUE,"""event"",""trial"",""time""
""fullscreenenter"",""5"",""17944""
""fullscreenexit"",""6"",""51631""
","
","
","""event"",""trial"",""time""
""fullscreenenter"",""5"",""17944""
","""event"",""trial"",""time""
""fullscreenexit"",""6"",""51631""
",720,NA,49,NA,NA,3000,1,NA,NA,images/tutyellowplanet.jpg,null,images/tutalien3,null,images/tutalien3,images/nothing.png,NA,practice,null,NA,NA,NA,NA,sub11
d3-animate-choice,26,219804,0.0-26.0,TRUE,FALSE,FALSE,TRUE,"""event"",""trial"",""time""
""fullscreenenter"",""5"",""17944""
""fullscreenexit"",""6"",""51631""
","
","
","""event"",""trial"",""time""
""fullscreenenter"",""5"",""17944""
","""event"",""trial"",""time""
""fullscreenexit"",""6"",""51631""
",405,NA,49,NA,NA,3000,1,NA,NA,images/tutyellowplanet.jpg,null,images/tutalien3,null,images/tutalien3,images/t.png,NA,practice,null,NA,NA,NA,NA,sub11
d3-animate-choice,27,222391,0.0-27.0,TRUE,FALSE,FALSE,TRUE,"""event"",""trial"",""time""
""fullscreenenter"",""5"",""17944""
""fullscreenexit"",""6"",""51631""
","
","
","""event"",""trial"",""time""
""fullscreenenter"",""5"",""17944""
","""event"",""trial"",""time""
""fullscreenexit"",""6"",""51631""
",585.0000000000291,NA,49,NA,NA,3000,1,NA,NA,images/tutyellowplanet.jpg,null,images/tutalien3,null,images/tutalien3,images/t.png,NA,practice,null,NA,NA,NA,NA,sub11
d3-animate-choice,28,224821,0.0-28.0,TRUE,FALSE,FALSE,TRUE,"""event"",""trial"",""time""
""fullscreenenter"",""5"",""17944""
""fullscreenexit"",""6"",""51631""
","
","
","""event"",""trial"",""time""
""fullscreenenter"",""5"",""17944""
","""event"",""trial"",""time""
""fullscreenexit"",""6"",""51631""
",428,NA,49,NA,NA,3000,1,NA,NA,images/tutyellowplanet.jpg,null,images/tutalien3,null,images/tutalien3,images/nothing.png,NA,practice,null,NA,NA,NA,NA,sub11
d3-animate-choice,29,227297,0.0-29.0,TRUE,FALSE,FALSE,TRUE,"""event"",""trial"",""time""
""fullscreenenter"",""5"",""17944""
""fullscreenexit"",""6"",""51631""
","
","
","""event"",""trial"",""time""
""fullscreenenter"",""5"",""17944""
","""event"",""trial"",""time""
""fullscreenexit"",""6"",""51631""
",474.0000000000291,NA,49,NA,NA,3000,1,NA,NA,images/tutyellowplanet.jpg,null,images/tutalien3,null,images/tutalien3,images/t.png,NA,practice,null,NA,NA,NA,NA,sub11
d3-instructions,30,235061,0.0-30.0,TRUE,FALSE,FALSE,TRUE,"""event"",""trial"",""time""
""fullscreenenter"",""5"",""17944""
""fullscreenexit"",""6"",""51631""
","
","
","""event"",""trial"",""time""
""fullscreenenter"",""5"",""17944""
","""event"",""trial"",""time""
""fullscreenexit"",""6"",""51631""
",NA,NA,NA,NA,NA,NA,NA,NA,NA,NA,NA,NA,NA,NA,NA,NA,NA,NA,NA,NA,NA,NA,sub11
d3-instructions,31,246885,0.0-31.0,TRUE,FALSE,FALSE,TRUE,"""event"",""trial"",""time""
""fullscreenenter"",""5"",""17944""
""fullscreenexit"",""6"",""51631""
","
","
","""event"",""trial"",""time""
""fullscreenenter"",""5"",""17944""
","""event"",""trial"",""time""
""fullscreenexit"",""6"",""51631""
",NA,NA,NA,NA,NA,NA,NA,NA,NA,NA,NA,NA,NA,NA,NA,NA,NA,NA,NA,NA,NA,NA,sub11
d3-instructions,32,255255,0.0-32.0,TRUE,FALSE,FALSE,TRUE,"""event"",""trial"",""time""
""fullscreenenter"",""5"",""17944""
""fullscreenexit"",""6"",""51631""
","
","
","""event"",""trial"",""time""
""fullscreenenter"",""5"",""17944""
","""event"",""trial"",""time""
""fullscreenexit"",""6"",""51631""
",NA,NA,NA,NA,NA,NA,NA,NA,NA,NA,NA,NA,NA,NA,NA,NA,NA,NA,NA,NA,NA,NA,sub11
d3-instructions,33,267889,0.0-33.0,TRUE,FALSE,FALSE,TRUE,"""event"",""trial"",""time""
""fullscreenenter"",""5"",""17944""
""fullscreenexit"",""6"",""51631""
","
","
","""event"",""trial"",""time""
""fullscreenenter"",""5"",""17944""
","""event"",""trial"",""time""
""fullscreenexit"",""6"",""51631""
",NA,NA,NA,NA,NA,NA,NA,NA,NA,NA,NA,NA,NA,NA,NA,NA,NA,NA,NA,NA,NA,NA,sub11
d3-animate-choice,34,272342,0.0-34.0,TRUE,FALSE,FALSE,TRUE,"""event"",""trial"",""time""
""fullscreenenter"",""5"",""17944""
""fullscreenexit"",""6"",""51631""
","
","
","""event"",""trial"",""time""
""fullscreenenter"",""5"",""17944""
","""event"",""trial"",""time""
""fullscreenexit"",""6"",""51631""
",2449,NA,48,NA,NA,3000,1,NA,NA,images/tutgreenplanet.jpg,images/tutalien1,images/tutalien2,null,images/tutalien1,images/nothing.png,NA,practice,null,NA,NA,NA,NA,sub11
d3-animate-choice,35,275414,0.0-35.0,TRUE,FALSE,FALSE,TRUE,"""event"",""trial"",""time""
""fullscreenenter"",""5"",""17944""
""fullscreenexit"",""6"",""51631""
","
","
","""event"",""trial"",""time""
""fullscreenenter"",""5"",""17944""
","""event"",""trial"",""time""
""fullscreenexit"",""6"",""51631""
",1070,NA,49,NA,NA,3000,1,NA,NA,images/tutgreenplanet.jpg,images/tutalien1,images/tutalien2,null,images/tutalien2,images/t.png,NA,practice,null,NA,NA,NA,NA,sub11
d3-animate-choice,36,278508,0.0-36.0,TRUE,FALSE,FALSE,TRUE,"""event"",""trial"",""time""
""fullscreenenter"",""5"",""17944""
""fullscreenexit"",""6"",""51631""
","
","
","""event"",""trial"",""time""
""fullscreenenter"",""5"",""17944""
","""event"",""trial"",""time""
""fullscreenexit"",""6"",""51631""
",1091,NA,49,NA,NA,3000,1,NA,NA,images/tutgreenplanet.jpg,images/tutalien1,images/tutalien2,null,images/tutalien2,images/nothing.png,NA,practice,null,NA,NA,NA,NA,sub11
d3-animate-choice,37,281174,0.0-37.0,TRUE,FALSE,FALSE,TRUE,"""event"",""trial"",""time""
""fullscreenenter"",""5"",""17944""
""fullscreenexit"",""6"",""51631""
","
","
","""event"",""trial"",""time""
""fullscreenenter"",""5"",""17944""
","""event"",""trial"",""time""
""fullscreenexit"",""6"",""51631""
",664.0000000000582,NA,48,NA,NA,3000,1,NA,NA,images/tutgreenplanet.jpg,images/tutalien1,images/tutalien2,null,images/tutalien1,images/nothing.png,NA,practice,null,NA,NA,NA,NA,sub11
d3-animate-choice,38,284076,0.0-38.0,TRUE,FALSE,FALSE,TRUE,"""event"",""trial"",""time""
""fullscreenenter"",""5"",""17944""
""fullscreenexit"",""6"",""51631""
","
","
","""event"",""trial"",""time""
""fullscreenenter"",""5"",""17944""
","""event"",""trial"",""time""
""fullscreenexit"",""6"",""51631""
",900,NA,49,NA,NA,3000,1,NA,NA,images/tutgreenplanet.jpg,images/tutalien1,images/tutalien2,null,images/tutalien2,images/t.png,NA,practice,null,NA,NA,NA,NA,sub11
d3-animate-choice,39,287091,0.0-39.0,TRUE,FALSE,FALSE,TRUE,"""event"",""trial"",""time""
""fullscreenenter"",""5"",""17944""
""fullscreenexit"",""6"",""51631""
","
","
","""event"",""trial"",""time""
""fullscreenenter"",""5"",""17944""
","""event"",""trial"",""time""
""fullscreenexit"",""6"",""51631""
",1013,NA,48,NA,NA,3000,1,NA,NA,images/tutgreenplanet.jpg,images/tutalien1,images/tutalien2,null,images/tutalien1,images/t.png,NA,practice,null,NA,NA,NA,NA,sub11
d3-animate-choice,40,290084,0.0-40.0,TRUE,FALSE,FALSE,TRUE,"""event"",""trial"",""time""
""fullscreenenter"",""5"",""17944""
""fullscreenexit"",""6"",""51631""
","
","
","""event"",""trial"",""time""
""fullscreenenter"",""5"",""17944""
","""event"",""trial"",""time""
""fullscreenexit"",""6"",""51631""
",991,NA,49,NA,NA,3000,1,NA,NA,images/tutgreenplanet.jpg,images/tutalien1,images/tutalien2,null,images/tutalien2,images/t.png,NA,practice,null,NA,NA,NA,NA,sub11
d3-animate-choice,41,292850,0.0-41.0,TRUE,FALSE,FALSE,TRUE,"""event"",""trial"",""time""
""fullscreenenter"",""5"",""17944""
""fullscreenexit"",""6"",""51631""
","
","
","""event"",""trial"",""time""
""fullscreenenter"",""5"",""17944""
","""event"",""trial"",""time""
""fullscreenexit"",""6"",""51631""
",766,NA,48,NA,NA,3000,1,NA,NA,images/tutgreenplanet.jpg,images/tutalien1,images/tutalien2,null,images/tutalien1,images/nothing.png,NA,practice,null,NA,NA,NA,NA,sub11
d3-animate-choice,42,296124,0.0-42.0,TRUE,FALSE,FALSE,TRUE,"""event"",""trial"",""time""
""fullscreenenter"",""5"",""17944""
""fullscreenexit"",""6"",""51631""
","
","
","""event"",""trial"",""time""
""fullscreenenter"",""5"",""17944""
","""event"",""trial"",""time""
""fullscreenexit"",""6"",""51631""
",1272,NA,49,NA,NA,3000,1,NA,NA,images/tutgreenplanet.jpg,images/tutalien1,images/tutalien2,null,images/tutalien2,images/t.png,NA,practice,null,NA,NA,NA,NA,sub11
d3-animate-choice,43,298960,0.0-43.0,TRUE,FALSE,FALSE,TRUE,"""event"",""trial"",""time""
""fullscreenenter"",""5"",""17944""
""fullscreenexit"",""6"",""51631""
","
","
","""event"",""trial"",""time""
""fullscreenenter"",""5"",""17944""
","""event"",""trial"",""time""
""fullscreenexit"",""6"",""51631""
",834,NA,48,NA,NA,3000,1,NA,NA,images/tutgreenplanet.jpg,images/tutalien1,images/tutalien2,null,images/tutalien1,images/nothing.png,NA,practice,null,NA,NA,NA,NA,sub11
d3-instructions,44,313373,0.0-44.0,TRUE,FALSE,FALSE,TRUE,"""event"",""trial"",""time""
""fullscreenenter"",""5"",""17944""
""fullscreenexit"",""6"",""51631""
","
","
","""event"",""trial"",""time""
""fullscreenenter"",""5"",""17944""
","""event"",""trial"",""time""
""fullscreenexit"",""6"",""51631""
",NA,NA,NA,NA,NA,NA,NA,NA,NA,NA,NA,NA,NA,NA,NA,NA,NA,NA,NA,NA,NA,NA,sub11
d3-instructions,45,321338,0.0-45.0,TRUE,FALSE,FALSE,TRUE,"""event"",""trial"",""time""
""fullscreenenter"",""5"",""17944""
""fullscreenexit"",""6"",""51631""
","
","
","""event"",""trial"",""time""
""fullscreenenter"",""5"",""17944""
","""event"",""trial"",""time""
""fullscreenexit"",""6"",""51631""
",NA,NA,NA,NA,NA,NA,NA,NA,NA,NA,NA,NA,NA,NA,NA,NA,NA,NA,NA,NA,NA,NA,sub11
d3-instructions,46,329089,0.0-46.0,TRUE,FALSE,FALSE,TRUE,"""event"",""trial"",""time""
""fullscreenenter"",""5"",""17944""
""fullscreenexit"",""6"",""51631""
","
","
","""event"",""trial"",""time""
""fullscreenenter"",""5"",""17944""
","""event"",""trial"",""time""
""fullscreenexit"",""6"",""51631""
",NA,NA,NA,NA,NA,NA,NA,NA,NA,NA,NA,NA,NA,NA,NA,NA,NA,NA,NA,NA,NA,NA,sub11
d3-instructions,47,348192,0.0-47.0,TRUE,FALSE,FALSE,TRUE,"""event"",""trial"",""time""
""fullscreenenter"",""5"",""17944""
""fullscreenexit"",""6"",""51631""
","
","
","""event"",""trial"",""time""
""fullscreenenter"",""5"",""17944""
","""event"",""trial"",""time""
""fullscreenexit"",""6"",""51631""
",NA,NA,NA,NA,NA,NA,NA,NA,NA,NA,NA,NA,NA,NA,NA,NA,NA,NA,NA,NA,NA,NA,sub11
d3-instructions,48,355527,0.0-48.0,TRUE,FALSE,FALSE,TRUE,"""event"",""trial"",""time""
""fullscreenenter"",""5"",""17944""
""fullscreenexit"",""6"",""51631""
","
","
","""event"",""trial"",""time""
""fullscreenenter"",""5"",""17944""
","""event"",""trial"",""time""
""fullscreenexit"",""6"",""51631""
",NA,NA,NA,NA,NA,NA,NA,NA,NA,NA,NA,NA,NA,NA,NA,NA,NA,NA,NA,NA,NA,NA,sub11
d3-instructions,49,368330,0.0-49.0,TRUE,FALSE,FALSE,TRUE,"""event"",""trial"",""time""
""fullscreenenter"",""5"",""17944""
""fullscreenexit"",""6"",""51631""
","
","
","""event"",""trial"",""time""
""fullscreenenter"",""5"",""17944""
","""event"",""trial"",""time""
""fullscreenexit"",""6"",""51631""
",NA,NA,NA,NA,NA,NA,NA,NA,NA,NA,NA,NA,NA,NA,NA,NA,NA,NA,NA,NA,NA,NA,sub11
d3-instructions,50,383484,0.0-50.0,TRUE,FALSE,FALSE,TRUE,"""event"",""trial"",""time""
""fullscreenenter"",""5"",""17944""
""fullscreenexit"",""6"",""51631""
","
","
","""event"",""trial"",""time""
""fullscreenenter"",""5"",""17944""
","""event"",""trial"",""time""
""fullscreenexit"",""6"",""51631""
",NA,NA,NA,NA,NA,NA,NA,NA,NA,NA,NA,NA,NA,NA,NA,NA,NA,NA,NA,NA,NA,NA,sub11
d3-instructions,51,388648,0.0-51.0,TRUE,FALSE,FALSE,TRUE,"""event"",""trial"",""time""
""fullscreenenter"",""5"",""17944""
""fullscreenexit"",""6"",""51631""
","
","
","""event"",""trial"",""time""
""fullscreenenter"",""5"",""17944""
","""event"",""trial"",""time""
""fullscreenexit"",""6"",""51631""
",NA,NA,NA,NA,NA,NA,NA,NA,NA,NA,NA,NA,NA,NA,NA,NA,NA,NA,NA,NA,NA,NA,sub11
d3-instructions,52,393452,0.0-52.0,TRUE,FALSE,FALSE,TRUE,"""event"",""trial"",""time""
""fullscreenenter"",""5"",""17944""
""fullscreenexit"",""6"",""51631""
","
","
","""event"",""trial"",""time""
""fullscreenenter"",""5"",""17944""
","""event"",""trial"",""time""
""fullscreenexit"",""6"",""51631""
",NA,NA,NA,NA,NA,NA,NA,NA,NA,NA,NA,NA,NA,NA,NA,NA,NA,NA,NA,NA,NA,NA,sub11
d3-instructions,53,416593,0.0-53.0,TRUE,FALSE,FALSE,TRUE,"""event"",""trial"",""time""
""fullscreenenter"",""5"",""17944""
""fullscreenexit"",""6"",""51631""
","
","
","""event"",""trial"",""time""
""fullscreenenter"",""5"",""17944""
","""event"",""trial"",""time""
""fullscreenexit"",""6"",""51631""
",NA,NA,NA,NA,NA,NA,NA,NA,NA,NA,NA,NA,NA,NA,NA,NA,NA,NA,NA,NA,NA,NA,sub11
d3-instructions,54,433952,0.0-54.0,TRUE,FALSE,FALSE,TRUE,"""event"",""trial"",""time""
""fullscreenenter"",""5"",""17944""
""fullscreenexit"",""6"",""51631""
","
","
","""event"",""trial"",""time""
""fullscreenenter"",""5"",""17944""
","""event"",""trial"",""time""
""fullscreenexit"",""6"",""51631""
",NA,NA,NA,NA,NA,NA,NA,NA,NA,NA,NA,NA,NA,NA,NA,NA,NA,NA,NA,NA,NA,NA,sub11
d3-instructions,55,447958,0.0-55.0,TRUE,FALSE,FALSE,TRUE,"""event"",""trial"",""time""
""fullscreenenter"",""5"",""17944""
""fullscreenexit"",""6"",""51631""
","
","
","""event"",""trial"",""time""
""fullscreenenter"",""5"",""17944""
","""event"",""trial"",""time""
""fullscreenexit"",""6"",""51631""
",NA,NA,NA,NA,NA,NA,NA,NA,NA,NA,NA,NA,NA,NA,NA,NA,NA,NA,NA,NA,NA,NA,sub11
d3-instructions,56,458252,0.0-56.0,TRUE,FALSE,FALSE,TRUE,"""event"",""trial"",""time""
""fullscreenenter"",""5"",""17944""
""fullscreenexit"",""6"",""51631""
","
","
","""event"",""trial"",""time""
""fullscreenenter"",""5"",""17944""
","""event"",""trial"",""time""
""fullscreenexit"",""6"",""51631""
",NA,NA,NA,NA,NA,NA,NA,NA,NA,NA,NA,NA,NA,NA,NA,NA,NA,NA,NA,NA,NA,NA,sub11
d3-instructions,57,469413,0.0-57.0,TRUE,FALSE,FALSE,TRUE,"""event"",""trial"",""time""
""fullscreenenter"",""5"",""17944""
""fullscreenexit"",""6"",""51631""
","
","
","""event"",""trial"",""time""
""fullscreenenter"",""5"",""17944""
","""event"",""trial"",""time""
""fullscreenexit"",""6"",""51631""
",NA,NA,NA,NA,NA,NA,NA,NA,NA,NA,NA,NA,NA,NA,NA,NA,NA,NA,NA,NA,NA,NA,sub11
d3-instructions,58,481889,0.0-58.0,TRUE,FALSE,FALSE,TRUE,"""event"",""trial"",""time""
""fullscreenenter"",""5"",""17944""
""fullscreenexit"",""6"",""51631""
","
","
","""event"",""trial"",""time""
""fullscreenenter"",""5"",""17944""
","""event"",""trial"",""time""
""fullscreenexit"",""6"",""51631""
",NA,NA,NA,NA,NA,NA,NA,NA,NA,NA,NA,NA,NA,NA,NA,NA,NA,NA,NA,NA,NA,NA,sub11
d3-instructions,59,489112,0.0-59.0,TRUE,FALSE,FALSE,TRUE,"""event"",""trial"",""time""
""fullscreenenter"",""5"",""17944""
""fullscreenexit"",""6"",""51631""
","
","
","""event"",""trial"",""time""
""fullscreenenter"",""5"",""17944""
","""event"",""trial"",""time""
""fullscreenexit"",""6"",""51631""
",NA,NA,NA,NA,NA,NA,NA,NA,NA,NA,NA,NA,NA,NA,NA,NA,NA,NA,NA,NA,NA,NA,sub11
d3-instructions,60,504142,0.0-60.0,TRUE,FALSE,FALSE,TRUE,"""event"",""trial"",""time""
""fullscreenenter"",""5"",""17944""
""fullscreenexit"",""6"",""51631""
","
","
","""event"",""trial"",""time""
""fullscreenenter"",""5"",""17944""
","""event"",""trial"",""time""
""fullscreenexit"",""6"",""51631""
",NA,NA,NA,NA,NA,NA,NA,NA,NA,NA,NA,NA,NA,NA,NA,NA,NA,NA,NA,NA,NA,NA,sub11
d3-animate-choice,61,508143,0.0-61.0-0.0,TRUE,FALSE,FALSE,TRUE,"""event"",""trial"",""time""
""fullscreenenter"",""5"",""17944""
""fullscreenexit"",""6"",""51631""
","
","
","""event"",""trial"",""time""
""fullscreenenter"",""5"",""17944""
","""event"",""trial"",""time""
""fullscreenexit"",""6"",""51631""
",2452.000000000058,NA,48,NA,NA,3000,1,NA,NA,images/earth.jpg,images/tutrocket1,images/tutrocket2,null,images/tutrocket1,NA,1,practice,null,2,NA,NA,NA,sub11
d3-animate-choice,62,512146,0.0-61.0-1.0,TRUE,FALSE,FALSE,TRUE,"""event"",""trial"",""time""
""fullscreenenter"",""5"",""17944""
""fullscreenexit"",""6"",""51631""
","
","
","""event"",""trial"",""time""
""fullscreenenter"",""5"",""17944""
","""event"",""trial"",""time""
""fullscreenexit"",""6"",""51631""
",null,NA,null,NA,NA,3000,0,NA,NA,images/tutyellowplanet.jpg,images/tutalien4,images/tutalien3,images/tutrocket1,NA,NA,2,practice,true,NA,common,0,2020-06-16T19:51:01Z,sub11
two-step-fixation,63,513147,0.0-61.0-2.0,TRUE,FALSE,FALSE,TRUE,"""event"",""trial"",""time""
""fullscreenenter"",""5"",""17944""
""fullscreenexit"",""6"",""51631""
","
","
","""event"",""trial"",""time""
""fullscreenenter"",""5"",""17944""
","""event"",""trial"",""time""
""fullscreenexit"",""6"",""51631""
",NA,images/earth.jpg,NA,NA,NA,NA,NA,NA,NA,NA,NA,NA,NA,NA,NA,fixation,NA,NA,NA,NA,NA,NA,sub11
d3-animate-choice,64,517149,0.0-61.0-0.1,TRUE,FALSE,FALSE,TRUE,"""event"",""trial"",""time""
""fullscreenenter"",""5"",""17944""
""fullscreenexit"",""6"",""51631""
","
","
","""event"",""trial"",""time""
""fullscreenenter"",""5"",""17944""
","""event"",""trial"",""time""
""fullscreenexit"",""6"",""51631""
",null,NA,null,NA,NA,3000,0,NA,NA,images/earth.jpg,images/tutrocket1,images/tutrocket2,null,NA,NA,1,practice,null,NA,NA,NA,NA,sub11
d3-animate-choice,65,518155,0.0-61.0-1.1,TRUE,FALSE,FALSE,TRUE,"""event"",""trial"",""time""
""fullscreenenter"",""5"",""17944""
""fullscreenexit"",""6"",""51631""
","
","
","""event"",""trial"",""time""
""fullscreenenter"",""5"",""17944""
","""event"",""trial"",""time""
""fullscreenexit"",""6"",""51631""
",null,NA,null,NA,NA,0,0,NA,NA,images/earth.jpg,images/tutrocket1,images/tutrocket2,null,NA,NA,2,practice,null,NA,NA,0,2020-06-16T19:51:07Z,sub11
two-step-fixation,66,519156,0.0-61.0-2.1,TRUE,FALSE,FALSE,TRUE,"""event"",""trial"",""time""
""fullscreenenter"",""5"",""17944""
""fullscreenexit"",""6"",""51631""
","
","
","""event"",""trial"",""time""
""fullscreenenter"",""5"",""17944""
","""event"",""trial"",""time""
""fullscreenexit"",""6"",""51631""
",NA,images/earth.jpg,NA,NA,NA,NA,NA,NA,NA,NA,NA,NA,NA,NA,NA,fixation,NA,NA,NA,NA,NA,NA,sub11
d3-animate-choice,67,522017,0.0-61.0-0.2,TRUE,FALSE,FALSE,TRUE,"""event"",""trial"",""time""
""fullscreenenter"",""5"",""17944""
""fullscreenexit"",""6"",""51631""
","
","
","""event"",""trial"",""time""
""fullscreenenter"",""5"",""17944""
","""event"",""trial"",""time""
""fullscreenexit"",""6"",""51631""
",859,NA,48,NA,NA,3000,1,NA,NA,images/earth.jpg,images/tutrocket1,images/tutrocket2,null,images/tutrocket1,NA,1,practice,null,2,NA,NA,NA,sub11
d3-animate-choice,68,525100,0.0-61.0-1.2,TRUE,FALSE,FALSE,TRUE,"""event"",""trial"",""time""
""fullscreenenter"",""5"",""17944""
""fullscreenexit"",""6"",""51631""
","
","
","""event"",""trial"",""time""
""fullscreenenter"",""5"",""17944""
","""event"",""trial"",""time""
""fullscreenexit"",""6"",""51631""
",1080,NA,48,NA,NA,3000,1,NA,NA,images/tutyellowplanet.jpg,images/tutalien4,images/tutalien3,images/tutrocket1,images/tutalien4,images/t.png,2,practice,true,2,common,1,2020-06-16T19:51:14Z,sub11
two-step-fixation,69,526101,0.0-61.0-2.2,TRUE,FALSE,FALSE,TRUE,"""event"",""trial"",""time""
""fullscreenenter"",""5"",""17944""
""fullscreenexit"",""6"",""51631""
","
","
","""event"",""trial"",""time""
""fullscreenenter"",""5"",""17944""
","""event"",""trial"",""time""
""fullscreenexit"",""6"",""51631""
",NA,images/earth.jpg,NA,NA,NA,NA,NA,NA,NA,NA,NA,NA,NA,NA,NA,fixation,NA,NA,NA,NA,NA,NA,sub11
d3-animate-choice,70,528959,0.0-61.0-0.3,TRUE,FALSE,FALSE,TRUE,"""event"",""trial"",""time""
""fullscreenenter"",""5"",""17944""
""fullscreenexit"",""6"",""51631""
","
","
","""event"",""trial"",""time""
""fullscreenenter"",""5"",""17944""
","""event"",""trial"",""time""
""fullscreenexit"",""6"",""51631""
",856,NA,48,NA,NA,3000,1,NA,NA,images/earth.jpg,images/tutrocket1,images/tutrocket2,null,images/tutrocket1,NA,1,practice,null,2,NA,NA,NA,sub11
d3-animate-choice,71,531882,0.0-61.0-1.3,TRUE,FALSE,FALSE,TRUE,"""event"",""trial"",""time""
""fullscreenenter"",""5"",""17944""
""fullscreenexit"",""6"",""51631""
","
","
","""event"",""trial"",""time""
""fullscreenenter"",""5"",""17944""
","""event"",""trial"",""time""
""fullscreenexit"",""6"",""51631""
",923,NA,48,NA,NA,3000,1,NA,NA,images/tutgreenplanet.jpg,images/tutalien2,images/tutalien1,images/tutrocket1,images/tutalien2,images/nothing.png,2,practice,false,2,rare,0,2020-06-16T19:51:20Z,sub11
two-step-fixation,72,532884,0.0-61.0-2.3,TRUE,FALSE,FALSE,TRUE,"""event"",""trial"",""time""
""fullscreenenter"",""5"",""17944""
""fullscreenexit"",""6"",""51631""
","
","
","""event"",""trial"",""time""
""fullscreenenter"",""5"",""17944""
","""event"",""trial"",""time""
""fullscreenexit"",""6"",""51631""
",NA,images/earth.jpg,NA,NA,NA,NA,NA,NA,NA,NA,NA,NA,NA,NA,NA,fixation,NA,NA,NA,NA,NA,NA,sub11
d3-animate-choice,73,536878,0.0-61.0-0.4,TRUE,FALSE,FALSE,TRUE,"""event"",""trial"",""time""
""fullscreenenter"",""5"",""17944""
""fullscreenexit"",""6"",""51631""
","
","
","""event"",""trial"",""time""
""fullscreenenter"",""5"",""17944""
","""event"",""trial"",""time""
""fullscreenexit"",""6"",""51631""
",1993,NA,49,NA,NA,3000,1,NA,NA,images/earth.jpg,images/tutrocket1,images/tutrocket2,null,images/tutrocket2,NA,1,practice,null,1,NA,NA,NA,sub11
d3-animate-choice,74,539736,0.0-61.0-1.4,TRUE,FALSE,FALSE,TRUE,"""event"",""trial"",""time""
""fullscreenenter"",""5"",""17944""
""fullscreenexit"",""6"",""51631""
","
","
","""event"",""trial"",""time""
""fullscreenenter"",""5"",""17944""
","""event"",""trial"",""time""
""fullscreenexit"",""6"",""51631""
",856,NA,49,NA,NA,3000,1,NA,NA,images/tutyellowplanet.jpg,images/tutalien4,images/tutalien3,images/tutrocket2,images/tutalien3,images/t.png,2,practice,false,1,rare,1,2020-06-16T19:51:28Z,sub11
two-step-fixation,75,540738,0.0-61.0-2.4,TRUE,FALSE,FALSE,TRUE,"""event"",""trial"",""time""
""fullscreenenter"",""5"",""17944""
""fullscreenexit"",""6"",""51631""
","
","
","""event"",""trial"",""time""
""fullscreenenter"",""5"",""17944""
","""event"",""trial"",""time""
""fullscreenexit"",""6"",""51631""
",NA,images/earth.jpg,NA,NA,NA,NA,NA,NA,NA,NA,NA,NA,NA,NA,NA,fixation,NA,NA,NA,NA,NA,NA,sub11
d3-animate-choice,76,543257,0.0-61.0-0.5,TRUE,FALSE,FALSE,TRUE,"""event"",""trial"",""time""
""fullscreenenter"",""5"",""17944""
""fullscreenexit"",""6"",""51631""
","
","
","""event"",""trial"",""time""
""fullscreenenter"",""5"",""17944""
","""event"",""trial"",""time""
""fullscreenexit"",""6"",""51631""
",518,NA,49,NA,NA,3000,1,NA,NA,images/earth.jpg,images/tutrocket1,images/tutrocket2,null,images/tutrocket2,NA,1,practice,null,1,NA,NA,NA,sub11
d3-animate-choice,77,546171,0.0-61.0-1.5,TRUE,FALSE,FALSE,TRUE,"""event"",""trial"",""time""
""fullscreenenter"",""5"",""17944""
""fullscreenexit"",""6"",""51631""
","
","
","""event"",""trial"",""time""
""fullscreenenter"",""5"",""17944""
","""event"",""trial"",""time""
""fullscreenexit"",""6"",""51631""
",911,NA,49,NA,NA,3000,1,NA,NA,images/tutgreenplanet.jpg,images/tutalien2,images/tutalien1,images/tutrocket2,images/tutalien1,images/nothing.png,2,practice,true,1,common,0,2020-06-16T19:51:35Z,sub11
two-step-fixation,78,547173,0.0-61.0-2.5,TRUE,FALSE,FALSE,TRUE,"""event"",""trial"",""time""
""fullscreenenter"",""5"",""17944""
""fullscreenexit"",""6"",""51631""
","
","
","""event"",""trial"",""time""
""fullscreenenter"",""5"",""17944""
","""event"",""trial"",""time""
""fullscreenexit"",""6"",""51631""
",NA,images/earth.jpg,NA,NA,NA,NA,NA,NA,NA,NA,NA,NA,NA,NA,NA,fixation,NA,NA,NA,NA,NA,NA,sub11
d3-animate-choice,79,549770,0.0-61.0-0.6,TRUE,FALSE,FALSE,TRUE,"""event"",""trial"",""time""
""fullscreenenter"",""5"",""17944""
""fullscreenexit"",""6"",""51631""
","
","
","""event"",""trial"",""time""
""fullscreenenter"",""5"",""17944""
","""event"",""trial"",""time""
""fullscreenexit"",""6"",""51631""
",596,NA,48,NA,NA,3000,1,NA,NA,images/earth.jpg,images/tutrocket1,images/tutrocket2,null,images/tutrocket1,NA,1,practice,null,2,NA,NA,NA,sub11
d3-animate-choice,80,552561,0.0-61.0-1.6,TRUE,FALSE,FALSE,TRUE,"""event"",""trial"",""time""
""fullscreenenter"",""5"",""17944""
""fullscreenexit"",""6"",""51631""
","
","
","""event"",""trial"",""time""
""fullscreenenter"",""5"",""17944""
","""event"",""trial"",""time""
""fullscreenexit"",""6"",""51631""
",788.9999999998836,NA,48,NA,NA,3000,1,NA,NA,images/tutyellowplanet.jpg,images/tutalien4,images/tutalien3,images/tutrocket1,images/tutalien4,images/t.png,2,practice,true,2,common,1,2020-06-16T19:51:41Z,sub11
two-step-fixation,81,553562,0.0-61.0-2.6,TRUE,FALSE,FALSE,TRUE,"""event"",""trial"",""time""
""fullscreenenter"",""5"",""17944""
""fullscreenexit"",""6"",""51631""
","
","
","""event"",""trial"",""time""
""fullscreenenter"",""5"",""17944""
","""event"",""trial"",""time""
""fullscreenexit"",""6"",""51631""
",NA,images/earth.jpg,NA,NA,NA,NA,NA,NA,NA,NA,NA,NA,NA,NA,NA,fixation,NA,NA,NA,NA,NA,NA,sub11
d3-animate-choice,82,557004,0.0-61.0-0.7,TRUE,FALSE,FALSE,TRUE,"""event"",""trial"",""time""
""fullscreenenter"",""5"",""17944""
""fullscreenexit"",""6"",""51631""
","
","
","""event"",""trial"",""time""
""fullscreenenter"",""5"",""17944""
","""event"",""trial"",""time""
""fullscreenexit"",""6"",""51631""
",1440,NA,48,NA,NA,3000,1,NA,NA,images/earth.jpg,images/tutrocket1,images/tutrocket2,null,images/tutrocket1,NA,1,practice,null,2,NA,NA,NA,sub11
d3-animate-choice,83,560335,0.0-61.0-1.7,TRUE,FALSE,FALSE,TRUE,"""event"",""trial"",""time""
""fullscreenenter"",""5"",""17944""
""fullscreenexit"",""6"",""51631""
","
","
","""event"",""trial"",""time""
""fullscreenenter"",""5"",""17944""
","""event"",""trial"",""time""
""fullscreenexit"",""6"",""51631""
",1329,NA,48,NA,NA,3000,1,NA,NA,images/tutgreenplanet.jpg,images/tutalien2,images/tutalien1,images/tutrocket1,images/tutalien2,images/nothing.png,2,practice,false,2,rare,0,2020-06-16T19:51:49Z,sub11
two-step-fixation,84,561337,0.0-61.0-2.7,TRUE,FALSE,FALSE,TRUE,"""event"",""trial"",""time""
""fullscreenenter"",""5"",""17944""
""fullscreenexit"",""6"",""51631""
","
","
","""event"",""trial"",""time""
""fullscreenenter"",""5"",""17944""
","""event"",""trial"",""time""
""fullscreenexit"",""6"",""51631""
",NA,images/earth.jpg,NA,NA,NA,NA,NA,NA,NA,NA,NA,NA,NA,NA,NA,fixation,NA,NA,NA,NA,NA,NA,sub11
d3-animate-choice,85,563844,0.0-61.0-0.8,TRUE,FALSE,FALSE,TRUE,"""event"",""trial"",""time""
""fullscreenenter"",""5"",""17944""
""fullscreenexit"",""6"",""51631""
","
","
","""event"",""trial"",""time""
""fullscreenenter"",""5"",""17944""
","""event"",""trial"",""time""
""fullscreenexit"",""6"",""51631""
",507,NA,49,NA,NA,3000,1,NA,NA,images/earth.jpg,images/tutrocket1,images/tutrocket2,null,images/tutrocket2,NA,1,practice,null,1,NA,NA,NA,sub11
d3-animate-choice,86,566590,0.0-61.0-1.8,TRUE,FALSE,FALSE,TRUE,"""event"",""trial"",""time""
""fullscreenenter"",""5"",""17944""
""fullscreenexit"",""6"",""51631""
","
","
","""event"",""trial"",""time""
""fullscreenenter"",""5"",""17944""
","""event"",""trial"",""time""
""fullscreenexit"",""6"",""51631""
",744,NA,49,NA,NA,3000,1,NA,NA,images/tutgreenplanet.jpg,images/tutalien2,images/tutalien1,images/tutrocket2,images/tutalien1,images/nothing.png,2,practice,true,1,common,0,2020-06-16T19:51:55Z,sub11
two-step-fixation,87,567591,0.0-61.0-2.8,TRUE,FALSE,FALSE,TRUE,"""event"",""trial"",""time""
""fullscreenenter"",""5"",""17944""
""fullscreenexit"",""6"",""51631""
","
","
","""event"",""trial"",""time""
""fullscreenenter"",""5"",""17944""
","""event"",""trial"",""time""
""fullscreenexit"",""6"",""51631""
",NA,images/earth.jpg,NA,NA,NA,NA,NA,NA,NA,NA,NA,NA,NA,NA,NA,fixation,NA,NA,NA,NA,NA,NA,sub11
d3-animate-choice,88,570224,0.0-61.0-0.9,TRUE,FALSE,FALSE,TRUE,"""event"",""trial"",""time""
""fullscreenenter"",""5"",""17944""
""fullscreenexit"",""6"",""51631""
","
","
","""event"",""trial"",""time""
""fullscreenenter"",""5"",""17944""
","""event"",""trial"",""time""
""fullscreenexit"",""6"",""51631""
",631.0000000001164,NA,49,NA,NA,3000,1,NA,NA,images/earth.jpg,images/tutrocket1,images/tutrocket2,null,images/tutrocket2,NA,1,practice,null,1,NA,NA,NA,sub11
d3-animate-choice,89,573080,0.0-61.0-1.9,TRUE,FALSE,FALSE,TRUE,"""event"",""trial"",""time""
""fullscreenenter"",""5"",""17944""
""fullscreenexit"",""6"",""51631""
","
","
","""event"",""trial"",""time""
""fullscreenenter"",""5"",""17944""
","""event"",""trial"",""time""
""fullscreenexit"",""6"",""51631""
",855,NA,48,NA,NA,3000,1,NA,NA,images/tutgreenplanet.jpg,images/tutalien2,images/tutalien1,images/tutrocket2,images/tutalien2,images/t.png,2,practice,true,2,common,1,2020-06-16T19:52:01Z,sub11
two-step-fixation,90,574081,0.0-61.0-2.9,TRUE,FALSE,FALSE,TRUE,"""event"",""trial"",""time""
""fullscreenenter"",""5"",""17944""
""fullscreenexit"",""6"",""51631""
","
","
","""event"",""trial"",""time""
""fullscreenenter"",""5"",""17944""
","""event"",""trial"",""time""
""fullscreenexit"",""6"",""51631""
",NA,images/earth.jpg,NA,NA,NA,NA,NA,NA,NA,NA,NA,NA,NA,NA,NA,fixation,NA,NA,NA,NA,NA,NA,sub11
d3-animate-choice,91,576794,0.0-61.0-0.10,TRUE,FALSE,FALSE,TRUE,"""event"",""trial"",""time""
""fullscreenenter"",""5"",""17944""
""fullscreenexit"",""6"",""51631""
","
","
","""event"",""trial"",""time""
""fullscreenenter"",""5"",""17944""
","""event"",""trial"",""time""
""fullscreenexit"",""6"",""51631""
",711,NA,48,NA,NA,3000,1,NA,NA,images/earth.jpg,images/tutrocket1,images/tutrocket2,null,images/tutrocket1,NA,1,practice,null,2,NA,NA,NA,sub11
d3-animate-choice,92,579561,0.0-61.0-1.10,TRUE,FALSE,FALSE,TRUE,"""event"",""trial"",""time""
""fullscreenenter"",""5"",""17944""
""fullscreenexit"",""6"",""51631""
","
","
","""event"",""trial"",""time""
""fullscreenenter"",""5"",""17944""
","""event"",""trial"",""time""
""fullscreenexit"",""6"",""51631""
",764.9999999998836,NA,48,NA,NA,3000,1,NA,NA,images/tutyellowplanet.jpg,images/tutalien4,images/tutalien3,images/tutrocket1,images/tutalien4,images/nothing.png,2,practice,true,2,common,0,2020-06-16T19:52:08Z,sub11
two-step-fixation,93,580563,0.0-61.0-2.10,TRUE,FALSE,FALSE,TRUE,"""event"",""trial"",""time""
""fullscreenenter"",""5"",""17944""
""fullscreenexit"",""6"",""51631""
","
","
","""event"",""trial"",""time""
""fullscreenenter"",""5"",""17944""
","""event"",""trial"",""time""
""fullscreenexit"",""6"",""51631""
",NA,images/earth.jpg,NA,NA,NA,NA,NA,NA,NA,NA,NA,NA,NA,NA,NA,fixation,NA,NA,NA,NA,NA,NA,sub11
d3-animate-choice,94,583027,0.0-61.0-0.11,TRUE,FALSE,FALSE,TRUE,"""event"",""trial"",""time""
""fullscreenenter"",""5"",""17944""
""fullscreenexit"",""6"",""51631""
","
","
","""event"",""trial"",""time""
""fullscreenenter"",""5"",""17944""
","""event"",""trial"",""time""
""fullscreenexit"",""6"",""51631""
",462,NA,49,NA,NA,3000,1,NA,NA,images/earth.jpg,images/tutrocket1,images/tutrocket2,null,images/tutrocket2,NA,1,practice,null,1,NA,NA,NA,sub11
d3-animate-choice,95,585929,0.0-61.0-1.11,TRUE,FALSE,FALSE,TRUE,"""event"",""trial"",""time""
""fullscreenenter"",""5"",""17944""
""fullscreenexit"",""6"",""51631""
","
","
","""event"",""trial"",""time""
""fullscreenenter"",""5"",""17944""
","""event"",""trial"",""time""
""fullscreenexit"",""6"",""51631""
",901,NA,49,NA,NA,3000,1,NA,NA,images/tutyellowplanet.jpg,images/tutalien4,images/tutalien3,images/tutrocket2,images/tutalien3,images/t.png,2,practice,false,1,rare,1,2020-06-16T19:52:14Z,sub11
two-step-fixation,96,586931,0.0-61.0-2.11,TRUE,FALSE,FALSE,TRUE,"""event"",""trial"",""time""
""fullscreenenter"",""5"",""17944""
""fullscreenexit"",""6"",""51631""
","
","
","""event"",""trial"",""time""
""fullscreenenter"",""5"",""17944""
","""event"",""trial"",""time""
""fullscreenexit"",""6"",""51631""
",NA,images/earth.jpg,NA,NA,NA,NA,NA,NA,NA,NA,NA,NA,NA,NA,NA,fixation,NA,NA,NA,NA,NA,NA,sub11
d3-animate-choice,97,589607,0.0-61.0-0.12,TRUE,FALSE,FALSE,TRUE,"""event"",""trial"",""time""
""fullscreenenter"",""5"",""17944""
""fullscreenexit"",""6"",""51631""
","
","
","""event"",""trial"",""time""
""fullscreenenter"",""5"",""17944""
","""event"",""trial"",""time""
""fullscreenexit"",""6"",""51631""
",676,NA,48,NA,NA,3000,1,NA,NA,images/earth.jpg,images/tutrocket1,images/tutrocket2,null,images/tutrocket1,NA,1,practice,null,2,NA,NA,NA,sub11
d3-animate-choice,98,592352,0.0-61.0-1.12,TRUE,FALSE,FALSE,TRUE,"""event"",""trial"",""time""
""fullscreenenter"",""5"",""17944""
""fullscreenexit"",""6"",""51631""
","
","
","""event"",""trial"",""time""
""fullscreenenter"",""5"",""17944""
","""event"",""trial"",""time""
""fullscreenexit"",""6"",""51631""
",744,NA,48,NA,NA,3000,1,NA,NA,images/tutyellowplanet.jpg,images/tutalien4,images/tutalien3,images/tutrocket1,images/tutalien4,images/nothing.png,2,practice,true,2,common,0,2020-06-16T19:52:21Z,sub11
two-step-fixation,99,593354,0.0-61.0-2.12,TRUE,FALSE,FALSE,TRUE,"""event"",""trial"",""time""
""fullscreenenter"",""5"",""17944""
""fullscreenexit"",""6"",""51631""
","
","
","""event"",""trial"",""time""
""fullscreenenter"",""5"",""17944""
","""event"",""trial"",""time""
""fullscreenexit"",""6"",""51631""
",NA,images/earth.jpg,NA,NA,NA,NA,NA,NA,NA,NA,NA,NA,NA,NA,NA,fixation,NA,NA,NA,NA,NA,NA,sub11
d3-animate-choice,100,595863,0.0-61.0-0.13,TRUE,FALSE,FALSE,TRUE,"""event"",""trial"",""time""
""fullscreenenter"",""5"",""17944""
""fullscreenexit"",""6"",""51631""
","
","
","""event"",""trial"",""time""
""fullscreenenter"",""5"",""17944""
","""event"",""trial"",""time""
""fullscreenexit"",""6"",""51631""
",507,NA,49,NA,NA,3000,1,NA,NA,images/earth.jpg,images/tutrocket1,images/tutrocket2,null,images/tutrocket2,NA,1,practice,null,1,NA,NA,NA,sub11
d3-animate-choice,101,598495,0.0-61.0-1.13,TRUE,FALSE,FALSE,TRUE,"""event"",""trial"",""time""
""fullscreenenter"",""5"",""17944""
""fullscreenexit"",""6"",""51631""
","
","
","""event"",""trial"",""time""
""fullscreenenter"",""5"",""17944""
","""event"",""trial"",""time""
""fullscreenexit"",""6"",""51631""
",630,NA,49,NA,NA,3000,1,NA,NA,images/tutgreenplanet.jpg,images/tutalien2,images/tutalien1,images/tutrocket2,images/tutalien1,images/nothing.png,2,practice,true,1,common,0,2020-06-16T19:52:27Z,sub11
two-step-fixation,102,599497,0.0-61.0-2.13,TRUE,FALSE,FALSE,TRUE,"""event"",""trial"",""time""
""fullscreenenter"",""5"",""17944""
""fullscreenexit"",""6"",""51631""
","
","
","""event"",""trial"",""time""
""fullscreenenter"",""5"",""17944""
","""event"",""trial"",""time""
""fullscreenexit"",""6"",""51631""
",NA,images/earth.jpg,NA,NA,NA,NA,NA,NA,NA,NA,NA,NA,NA,NA,NA,fixation,NA,NA,NA,NA,NA,NA,sub11
d3-animate-choice,103,602253,0.0-61.0-0.14,TRUE,FALSE,FALSE,TRUE,"""event"",""trial"",""time""
""fullscreenenter"",""5"",""17944""
""fullscreenexit"",""6"",""51631""
","
","
","""event"",""trial"",""time""
""fullscreenenter"",""5"",""17944""
","""event"",""trial"",""time""
""fullscreenexit"",""6"",""51631""
",754,NA,48,NA,NA,3000,1,NA,NA,images/earth.jpg,images/tutrocket1,images/tutrocket2,null,images/tutrocket1,NA,1,practice,null,2,NA,NA,NA,sub11
d3-animate-choice,104,605403,0.0-61.0-1.14,TRUE,FALSE,FALSE,TRUE,"""event"",""trial"",""time""
""fullscreenenter"",""5"",""17944""
""fullscreenexit"",""6"",""51631""
","
","
","""event"",""trial"",""time""
""fullscreenenter"",""5"",""17944""
","""event"",""trial"",""time""
""fullscreenexit"",""6"",""51631""
",1148,NA,48,NA,NA,3000,1,NA,NA,images/tutyellowplanet.jpg,images/tutalien4,images/tutalien3,images/tutrocket1,images/tutalien4,images/nothing.png,2,practice,true,2,common,0,2020-06-16T19:52:34Z,sub11
two-step-fixation,105,606405,0.0-61.0-2.14,TRUE,FALSE,FALSE,TRUE,"""event"",""trial"",""time""
""fullscreenenter"",""5"",""17944""
""fullscreenexit"",""6"",""51631""
","
","
","""event"",""trial"",""time""
""fullscreenenter"",""5"",""17944""
","""event"",""trial"",""time""
""fullscreenexit"",""6"",""51631""
",NA,images/earth.jpg,NA,NA,NA,NA,NA,NA,NA,NA,NA,NA,NA,NA,NA,fixation,NA,NA,NA,NA,NA,NA,sub11
d3-animate-choice,106,609172,0.0-61.0-0.15,TRUE,FALSE,FALSE,TRUE,"""event"",""trial"",""time""
""fullscreenenter"",""5"",""17944""
""fullscreenexit"",""6"",""51631""
","
","
","""event"",""trial"",""time""
""fullscreenenter"",""5"",""17944""
","""event"",""trial"",""time""
""fullscreenexit"",""6"",""51631""
",765,NA,49,NA,NA,3000,1,NA,NA,images/earth.jpg,images/tutrocket1,images/tutrocket2,null,images/tutrocket2,NA,1,practice,null,1,NA,NA,NA,sub11
d3-animate-choice,107,611838,0.0-61.0-1.15,TRUE,FALSE,FALSE,TRUE,"""event"",""trial"",""time""
""fullscreenenter"",""5"",""17944""
""fullscreenexit"",""6"",""51631""
","
","
","""event"",""trial"",""time""
""fullscreenenter"",""5"",""17944""
","""event"",""trial"",""time""
""fullscreenexit"",""6"",""51631""
",664,NA,49,NA,NA,3000,1,NA,NA,images/tutgreenplanet.jpg,images/tutalien2,images/tutalien1,images/tutrocket2,images/tutalien1,images/nothing.png,2,practice,true,1,common,0,2020-06-16T19:52:40Z,sub11
two-step-fixation,108,612840,0.0-61.0-2.15,TRUE,FALSE,FALSE,TRUE,"""event"",""trial"",""time""
""fullscreenenter"",""5"",""17944""
""fullscreenexit"",""6"",""51631""
","
","
","""event"",""trial"",""time""
""fullscreenenter"",""5"",""17944""
","""event"",""trial"",""time""
""fullscreenexit"",""6"",""51631""
",NA,images/earth.jpg,NA,NA,NA,NA,NA,NA,NA,NA,NA,NA,NA,NA,NA,fixation,NA,NA,NA,NA,NA,NA,sub11
d3-animate-choice,109,615832,0.0-61.0-0.16,TRUE,FALSE,FALSE,TRUE,"""event"",""trial"",""time""
""fullscreenenter"",""5"",""17944""
""fullscreenexit"",""6"",""51631""
","
","
","""event"",""trial"",""time""
""fullscreenenter"",""5"",""17944""
","""event"",""trial"",""time""
""fullscreenexit"",""6"",""51631""
",990,NA,48,NA,NA,3000,1,NA,NA,images/earth.jpg,images/tutrocket1,images/tutrocket2,null,images/tutrocket1,NA,1,practice,null,2,NA,NA,NA,sub11
d3-animate-choice,110,618780,0.0-61.0-1.16,TRUE,FALSE,FALSE,TRUE,"""event"",""trial"",""time""
""fullscreenenter"",""5"",""17944""
""fullscreenexit"",""6"",""51631""
","
","
","""event"",""trial"",""time""
""fullscreenenter"",""5"",""17944""
","""event"",""trial"",""time""
""fullscreenexit"",""6"",""51631""
",946,NA,48,NA,NA,3000,1,NA,NA,images/tutgreenplanet.jpg,images/tutalien2,images/tutalien1,images/tutrocket1,images/tutalien2,images/nothing.png,2,practice,false,2,rare,0,2020-06-16T19:52:47Z,sub11
two-step-fixation,111,619781,0.0-61.0-2.16,TRUE,FALSE,FALSE,TRUE,"""event"",""trial"",""time""
""fullscreenenter"",""5"",""17944""
""fullscreenexit"",""6"",""51631""
","
","
","""event"",""trial"",""time""
""fullscreenenter"",""5"",""17944""
","""event"",""trial"",""time""
""fullscreenexit"",""6"",""51631""
",NA,images/earth.jpg,NA,NA,NA,NA,NA,NA,NA,NA,NA,NA,NA,NA,NA,fixation,NA,NA,NA,NA,NA,NA,sub11
d3-animate-choice,112,622706,0.0-61.0-0.17,TRUE,FALSE,FALSE,TRUE,"""event"",""trial"",""time""
""fullscreenenter"",""5"",""17944""
""fullscreenexit"",""6"",""51631""
","
","
","""event"",""trial"",""time""
""fullscreenenter"",""5"",""17944""
","""event"",""trial"",""time""
""fullscreenexit"",""6"",""51631""
",923,NA,49,NA,NA,3000,1,NA,NA,images/earth.jpg,images/tutrocket1,images/tutrocket2,null,images/tutrocket2,NA,1,practice,null,1,NA,NA,NA,sub11
d3-animate-choice,113,625563,0.0-61.0-1.17,TRUE,FALSE,FALSE,TRUE,"""event"",""trial"",""time""
""fullscreenenter"",""5"",""17944""
""fullscreenexit"",""6"",""51631""
","
","
","""event"",""trial"",""time""
""fullscreenenter"",""5"",""17944""
","""event"",""trial"",""time""
""fullscreenexit"",""6"",""51631""
",856,NA,49,NA,NA,3000,1,NA,NA,images/tutgreenplanet.jpg,images/tutalien2,images/tutalien1,images/tutrocket2,images/tutalien1,images/nothing.png,2,practice,true,1,common,0,2020-06-16T19:52:54Z,sub11
two-step-fixation,114,626564,0.0-61.0-2.17,TRUE,FALSE,FALSE,TRUE,"""event"",""trial"",""time""
""fullscreenenter"",""5"",""17944""
""fullscreenexit"",""6"",""51631""
","
","
","""event"",""trial"",""time""
""fullscreenenter"",""5"",""17944""
","""event"",""trial"",""time""
""fullscreenexit"",""6"",""51631""
",NA,images/earth.jpg,NA,NA,NA,NA,NA,NA,NA,NA,NA,NA,NA,NA,NA,fixation,NA,NA,NA,NA,NA,NA,sub11
d3-animate-choice,115,629321,0.0-61.0-0.18,TRUE,FALSE,FALSE,TRUE,"""event"",""trial"",""time""
""fullscreenenter"",""5"",""17944""
""fullscreenexit"",""6"",""51631""
","
","
","""event"",""trial"",""time""
""fullscreenenter"",""5"",""17944""
","""event"",""trial"",""time""
""fullscreenexit"",""6"",""51631""
",756,NA,48,NA,NA,3000,1,NA,NA,images/earth.jpg,images/tutrocket1,images/tutrocket2,null,images/tutrocket1,NA,1,practice,null,2,NA,NA,NA,sub11
d3-animate-choice,116,632539,0.0-61.0-1.18,TRUE,FALSE,FALSE,TRUE,"""event"",""trial"",""time""
""fullscreenenter"",""5"",""17944""
""fullscreenexit"",""6"",""51631""
","
","
","""event"",""trial"",""time""
""fullscreenenter"",""5"",""17944""
","""event"",""trial"",""time""
""fullscreenexit"",""6"",""51631""
",1216,NA,48,NA,NA,3000,1,NA,NA,images/tutyellowplanet.jpg,images/tutalien4,images/tutalien3,images/tutrocket1,images/tutalien4,images/nothing.png,2,practice,true,2,common,0,2020-06-16T19:53:01Z,sub11
two-step-fixation,117,633539,0.0-61.0-2.18,TRUE,FALSE,FALSE,TRUE,"""event"",""trial"",""time""
""fullscreenenter"",""5"",""17944""
""fullscreenexit"",""6"",""51631""
","
","
","""event"",""trial"",""time""
""fullscreenenter"",""5"",""17944""
","""event"",""trial"",""time""
""fullscreenexit"",""6"",""51631""
",NA,images/earth.jpg,NA,NA,NA,NA,NA,NA,NA,NA,NA,NA,NA,NA,NA,fixation,NA,NA,NA,NA,NA,NA,sub11
d3-animate-choice,118,636915,0.0-61.0-0.19,TRUE,FALSE,FALSE,TRUE,"""event"",""trial"",""time""
""fullscreenenter"",""5"",""17944""
""fullscreenexit"",""6"",""51631""
","
","
","""event"",""trial"",""time""
""fullscreenenter"",""5"",""17944""
","""event"",""trial"",""time""
""fullscreenexit"",""6"",""51631""
",1373,NA,48,NA,NA,3000,1,NA,NA,images/earth.jpg,images/tutrocket1,images/tutrocket2,null,images/tutrocket1,NA,1,practice,null,2,NA,NA,NA,sub11
d3-animate-choice,119,639795,0.0-61.0-1.19,TRUE,FALSE,FALSE,TRUE,"""event"",""trial"",""time""
""fullscreenenter"",""5"",""17944""
""fullscreenexit"",""6"",""51631""
","
","
","""event"",""trial"",""time""
""fullscreenenter"",""5"",""17944""
","""event"",""trial"",""time""
""fullscreenexit"",""6"",""51631""
",877,NA,49,NA,NA,3000,1,NA,NA,images/tutyellowplanet.jpg,images/tutalien4,images/tutalien3,images/tutrocket1,images/tutalien3,images/nothing.png,2,practice,true,1,common,0,2020-06-16T19:53:08Z,sub11
two-step-fixation,120,640797,0.0-61.0-2.19,TRUE,FALSE,FALSE,TRUE,"""event"",""trial"",""time""
""fullscreenenter"",""5"",""17944""
""fullscreenexit"",""6"",""51631""
","
","
","""event"",""trial"",""time""
""fullscreenenter"",""5"",""17944""
","""event"",""trial"",""time""
""fullscreenexit"",""6"",""51631""
",NA,images/earth.jpg,NA,NA,NA,NA,NA,NA,NA,NA,NA,NA,NA,NA,NA,fixation,NA,NA,NA,NA,NA,NA,sub11
d3-instructions,121,648841,0.0-62.0,TRUE,FALSE,FALSE,TRUE,"""event"",""trial"",""time""
""fullscreenenter"",""5"",""17944""
""fullscreenexit"",""6"",""51631""
","
","
","""event"",""trial"",""time""
""fullscreenenter"",""5"",""17944""
","""event"",""trial"",""time""
""fullscreenexit"",""6"",""51631""
",NA,NA,NA,NA,NA,NA,NA,NA,NA,NA,NA,NA,NA,NA,NA,NA,NA,NA,NA,NA,NA,NA,sub11
audio-keyboard-response,122,659451,0.0-63.0,TRUE,FALSE,FALSE,TRUE,"""event"",""trial"",""time""
""fullscreenenter"",""5"",""17944""
""fullscreenexit"",""6"",""51631""
","
","
","""event"",""trial"",""time""
""fullscreenenter"",""5"",""17944""
","""event"",""trial"",""time""
""fullscreenexit"",""6"",""51631""
",10609,audio/instructions/treasure_feedback.wav,32,NA,NA,NA,NA,NA,NA,NA,NA,NA,NA,NA,NA,NA,NA,NA,NA,NA,NA,NA,sub11
d3-instructions,123,681084,0.0-64.0,TRUE,FALSE,FALSE,TRUE,"""event"",""trial"",""time""
""fullscreenenter"",""5"",""17944""
""fullscreenexit"",""6"",""51631""
","
","
","""event"",""trial"",""time""
""fullscreenenter"",""5"",""17944""
","""event"",""trial"",""time""
""fullscreenexit"",""6"",""51631""
",NA,NA,NA,NA,NA,NA,NA,NA,NA,NA,NA,NA,NA,NA,NA,NA,NA,NA,NA,NA,NA,NA,sub11
d3-instructions,124,698151,0.0-65.0,TRUE,FALSE,FALSE,TRUE,"""event"",""trial"",""time""
""fullscreenenter"",""5"",""17944""
""fullscreenexit"",""6"",""51631""
","
","
","""event"",""trial"",""time""
""fullscreenenter"",""5"",""17944""
","""event"",""trial"",""time""
""fullscreenexit"",""6"",""51631""
",NA,NA,NA,NA,NA,NA,NA,NA,NA,NA,NA,NA,NA,NA,NA,NA,NA,NA,NA,NA,NA,NA,sub11
d3-instructions,125,725939,0.0-66.0,TRUE,FALSE,FALSE,TRUE,"""event"",""trial"",""time""
""fullscreenenter"",""5"",""17944""
""fullscreenexit"",""6"",""51631""
","
","
","""event"",""trial"",""time""
""fullscreenenter"",""5"",""17944""
","""event"",""trial"",""time""
""fullscreenexit"",""6"",""51631""
",NA,NA,NA,NA,NA,NA,NA,NA,NA,NA,NA,NA,NA,NA,NA,NA,NA,NA,NA,NA,NA,NA,sub11
d3-instructions,126,743219,0.0-67.0,TRUE,FALSE,FALSE,TRUE,"""event"",""trial"",""time""
""fullscreenenter"",""5"",""17944""
""fullscreenexit"",""6"",""51631""
","
","
","""event"",""trial"",""time""
""fullscreenenter"",""5"",""17944""
","""event"",""trial"",""time""
""fullscreenexit"",""6"",""51631""
",NA,NA,NA,NA,NA,NA,NA,NA,NA,NA,NA,NA,NA,NA,NA,NA,NA,NA,NA,NA,NA,NA,sub11
d3-instructions,127,752894,0.0-68.0,TRUE,FALSE,FALSE,TRUE,"""event"",""trial"",""time""
""fullscreenenter"",""5"",""17944""
""fullscreenexit"",""6"",""51631""
","
","
","""event"",""trial"",""time""
""fullscreenenter"",""5"",""17944""
","""event"",""trial"",""time""
""fullscreenexit"",""6"",""51631""
",NA,NA,NA,NA,NA,NA,NA,NA,NA,NA,NA,NA,NA,NA,NA,NA,NA,NA,NA,NA,NA,NA,sub11
instructions-quiz,128,758215,0.0-69.0,TRUE,FALSE,FALSE,TRUE,"""event"",""trial"",""time""
""fullscreenenter"",""5"",""17944""
""fullscreenexit"",""6"",""51631""
","
","
","""event"",""trial"",""time""
""fullscreenenter"",""5"",""17944""
","""event"",""trial"",""time""
""fullscreenexit"",""6"",""51631""
",5320,audio/quiz/Q1_Prompt.wav,NA,1,NA,NA,NA,NA,NA,NA,NA,NA,NA,NA,NA,NA,NA,NA,NA,NA,NA,NA,sub11
audio-keyboard-response,129,767382,0.0-70.0,TRUE,FALSE,FALSE,TRUE,"""event"",""trial"",""time""
""fullscreenenter"",""5"",""17944""
""fullscreenexit"",""6"",""51631""
","
","
","""event"",""trial"",""time""
""fullscreenenter"",""5"",""17944""
","""event"",""trial"",""time""
""fullscreenexit"",""6"",""51631""
",null,audio/quiz/Q1_Correct.wav,null,NA,NA,NA,NA,NA,NA,NA,NA,NA,NA,NA,NA,NA,NA,NA,NA,NA,NA,NA,sub11
instructions-quiz,130,782031,0.0-71.0,TRUE,FALSE,FALSE,TRUE,"""event"",""trial"",""time""
""fullscreenenter"",""5"",""17944""
""fullscreenexit"",""6"",""51631""
","
","
","""event"",""trial"",""time""
""fullscreenenter"",""5"",""17944""
","""event"",""trial"",""time""
""fullscreenexit"",""6"",""51631""
",14649,audio/quiz/Q2_Prompt.wav,NA,0,NA,NA,NA,NA,NA,NA,NA,NA,NA,NA,NA,NA,NA,NA,NA,NA,NA,NA,sub11
audio-keyboard-response,131,794901,0.0-72.0,TRUE,FALSE,FALSE,TRUE,"""event"",""trial"",""time""
""fullscreenenter"",""5"",""17944""
""fullscreenexit"",""6"",""51631""
","
","
","""event"",""trial"",""time""
""fullscreenenter"",""5"",""17944""
","""event"",""trial"",""time""
""fullscreenexit"",""6"",""51631""
",null,audio/quiz/Q2_Correct.wav,null,NA,NA,NA,NA,NA,NA,NA,NA,NA,NA,NA,NA,NA,NA,NA,NA,NA,NA,NA,sub11
instructions-quiz,132,800156,0.0-73.0,TRUE,FALSE,FALSE,TRUE,"""event"",""trial"",""time""
""fullscreenenter"",""5"",""17944""
""fullscreenexit"",""6"",""51631""
","
","
","""event"",""trial"",""time""
""fullscreenenter"",""5"",""17944""
","""event"",""trial"",""time""
""fullscreenexit"",""6"",""51631""
",5254,audio/quiz/Q3_Prompt.wav,NA,1,NA,NA,NA,NA,NA,NA,NA,NA,NA,NA,NA,NA,NA,NA,NA,NA,NA,NA,sub11
audio-keyboard-response,133,805953,0.0-74.0,TRUE,FALSE,FALSE,TRUE,"""event"",""trial"",""time""
""fullscreenenter"",""5"",""17944""
""fullscreenexit"",""6"",""51631""
","
","
","""event"",""trial"",""time""
""fullscreenenter"",""5"",""17944""
","""event"",""trial"",""time""
""fullscreenexit"",""6"",""51631""
",null,audio/quiz/Q3_Correct.wav,null,NA,NA,NA,NA,NA,NA,NA,NA,NA,NA,NA,NA,NA,NA,NA,NA,NA,NA,NA,sub11
d3-instructions,134,830858,0.0-75.0,TRUE,FALSE,FALSE,TRUE,"""event"",""trial"",""time""
""fullscreenenter"",""5"",""17944""
""fullscreenexit"",""6"",""51631""
","
","
","""event"",""trial"",""time""
""fullscreenenter"",""5"",""17944""
","""event"",""trial"",""time""
""fullscreenexit"",""6"",""51631""
",NA,NA,NA,NA,NA,NA,NA,NA,NA,NA,NA,NA,NA,NA,NA,NA,NA,NA,NA,NA,NA,NA,sub11
d3-animate-choice,135,834860,0.0-76.0-0.0,TRUE,FALSE,FALSE,TRUE,"""event"",""trial"",""time""
""fullscreenenter"",""5"",""17944""
""fullscreenexit"",""6"",""51631""
","
","
","""event"",""trial"",""time""
""fullscreenenter"",""5"",""17944""
","""event"",""trial"",""time""
""fullscreenexit"",""6"",""51631""
",null,NA,null,NA,NA,3000,0,NA,NA,images/earth.jpg,images/rocket2,images/rocket1,null,NA,NA,1,real,null,NA,NA,NA,NA,sub11
d3-animate-choice,136,835862,0.0-76.0-1.0,TRUE,FALSE,FALSE,TRUE,"""event"",""trial"",""time""
""fullscreenenter"",""5"",""17944""
""fullscreenexit"",""6"",""51631""
","
","
","""event"",""trial"",""time""
""fullscreenenter"",""5"",""17944""
","""event"",""trial"",""time""
""fullscreenexit"",""6"",""51631""
",null,NA,null,NA,NA,0,0,NA,NA,images/earth.jpg,images/rocket2,images/rocket1,null,NA,NA,2,real,null,NA,NA,0,2020-06-16T19:56:24Z,sub11
two-step-fixation,137,836864,0.0-76.0-2.0,TRUE,FALSE,FALSE,TRUE,"""event"",""trial"",""time""
""fullscreenenter"",""5"",""17944""
""fullscreenexit"",""6"",""51631""
","
","
","""event"",""trial"",""time""
""fullscreenenter"",""5"",""17944""
","""event"",""trial"",""time""
""fullscreenexit"",""6"",""51631""
",NA,images/earth.jpg,NA,NA,NA,NA,NA,NA,NA,NA,NA,NA,NA,NA,NA,fixation,NA,NA,NA,NA,NA,NA,sub11
d3-animate-choice,138,840385,0.0-76.0-0.1,TRUE,FALSE,FALSE,TRUE,"""event"",""trial"",""time""
""fullscreenenter"",""5"",""17944""
""fullscreenexit"",""6"",""51631""
","
","
","""event"",""trial"",""time""
""fullscreenenter"",""5"",""17944""
","""event"",""trial"",""time""
""fullscreenexit"",""6"",""51631""
",1519,NA,48,NA,NA,3000,1,NA,NA,images/earth.jpg,images/rocket2,images/rocket1,null,images/rocket2,NA,1,real,null,2,NA,NA,NA,sub11
d3-animate-choice,139,844387,0.0-76.0-1.1,TRUE,FALSE,FALSE,TRUE,"""event"",""trial"",""time""
""fullscreenenter"",""5"",""17944""
""fullscreenexit"",""6"",""51631""
","
","
","""event"",""trial"",""time""
""fullscreenenter"",""5"",""17944""
","""event"",""trial"",""time""
""fullscreenexit"",""6"",""51631""
",2408,NA,49,NA,NA,3000,1,NA,NA,images/redplanet1.jpg,images/alien2,images/alien1,images/rocket2,images/alien1,images/t.png,2,real,true,1,common,1,2020-06-16T19:56:33Z,sub11
two-step-fixation,140,845388,0.0-76.0-2.1,TRUE,FALSE,FALSE,TRUE,"""event"",""trial"",""time""
""fullscreenenter"",""5"",""17944""
""fullscreenexit"",""6"",""51631""
","
","
","""event"",""trial"",""time""
""fullscreenenter"",""5"",""17944""
","""event"",""trial"",""time""
""fullscreenexit"",""6"",""51631""
",NA,images/earth.jpg,NA,NA,NA,NA,NA,NA,NA,NA,NA,NA,NA,NA,NA,fixation,NA,NA,NA,NA,NA,NA,sub11
d3-animate-choice,141,848440,0.0-76.0-0.2,TRUE,FALSE,FALSE,TRUE,"""event"",""trial"",""time""
""fullscreenenter"",""5"",""17944""
""fullscreenexit"",""6"",""51631""
","
","
","""event"",""trial"",""time""
""fullscreenenter"",""5"",""17944""
","""event"",""trial"",""time""
""fullscreenexit"",""6"",""51631""
",1050,NA,49,NA,NA,3000,1,NA,NA,images/earth.jpg,images/rocket2,images/rocket1,null,images/rocket1,NA,1,real,null,1,NA,NA,NA,sub11
d3-animate-choice,142,851118,0.0-76.0-1.2,TRUE,FALSE,FALSE,TRUE,"""event"",""trial"",""time""
""fullscreenenter"",""5"",""17944""
""fullscreenexit"",""6"",""51631""
","
","
","""event"",""trial"",""time""
""fullscreenenter"",""5"",""17944""
","""event"",""trial"",""time""
""fullscreenexit"",""6"",""51631""
",675.9999999998836,NA,49,NA,NA,3000,1,NA,NA,images/purpleplanet.jpg,images/alien4,images/alien3,images/rocket1,images/alien3,images/nothing.png,2,real,true,1,common,0,2020-06-16T19:56:40Z,sub11
two-step-fixation,143,852120,0.0-76.0-2.2,TRUE,FALSE,FALSE,TRUE,"""event"",""trial"",""time""
""fullscreenenter"",""5"",""17944""
""fullscreenexit"",""6"",""51631""
","
","
","""event"",""trial"",""time""
""fullscreenenter"",""5"",""17944""
","""event"",""trial"",""time""
""fullscreenexit"",""6"",""51631""
",NA,images/earth.jpg,NA,NA,NA,NA,NA,NA,NA,NA,NA,NA,NA,NA,NA,fixation,NA,NA,NA,NA,NA,NA,sub11
d3-animate-choice,144,854796,0.0-76.0-0.3,TRUE,FALSE,FALSE,TRUE,"""event"",""trial"",""time""
""fullscreenenter"",""5"",""17944""
""fullscreenexit"",""6"",""51631""
","
","
","""event"",""trial"",""time""
""fullscreenenter"",""5"",""17944""
","""event"",""trial"",""time""
""fullscreenexit"",""6"",""51631""
",675,NA,48,NA,NA,3000,1,NA,NA,images/earth.jpg,images/rocket2,images/rocket1,null,images/rocket2,NA,1,real,null,2,NA,NA,NA,sub11
d3-animate-choice,145,857620,0.0-76.0-1.3,TRUE,FALSE,FALSE,TRUE,"""event"",""trial"",""time""
""fullscreenenter"",""5"",""17944""
""fullscreenexit"",""6"",""51631""
","
","
","""event"",""trial"",""time""
""fullscreenenter"",""5"",""17944""
","""event"",""trial"",""time""
""fullscreenexit"",""6"",""51631""
",822,NA,48,NA,NA,3000,1,NA,NA,images/redplanet1.jpg,images/alien2,images/alien1,images/rocket2,images/alien2,images/t.png,2,real,true,2,common,1,2020-06-16T19:56:46Z,sub11
two-step-fixation,146,858621,0.0-76.0-2.3,TRUE,FALSE,FALSE,TRUE,"""event"",""trial"",""time""
""fullscreenenter"",""5"",""17944""
""fullscreenexit"",""6"",""51631""
","
","
","""event"",""trial"",""time""
""fullscreenenter"",""5"",""17944""
","""event"",""trial"",""time""
""fullscreenexit"",""6"",""51631""
",NA,images/earth.jpg,NA,NA,NA,NA,NA,NA,NA,NA,NA,NA,NA,NA,NA,fixation,NA,NA,NA,NA,NA,NA,sub11
d3-animate-choice,147,861221,0.0-76.0-0.4,TRUE,FALSE,FALSE,TRUE,"""event"",""trial"",""time""
""fullscreenenter"",""5"",""17944""
""fullscreenexit"",""6"",""51631""
","
","
","""event"",""trial"",""time""
""fullscreenenter"",""5"",""17944""
","""event"",""trial"",""time""
""fullscreenexit"",""6"",""51631""
",597,NA,48,NA,NA,3000,1,NA,NA,images/earth.jpg,images/rocket2,images/rocket1,null,images/rocket2,NA,1,real,null,2,NA,NA,NA,sub11
d3-animate-choice,148,863875,0.0-76.0-1.4,TRUE,FALSE,FALSE,TRUE,"""event"",""trial"",""time""
""fullscreenenter"",""5"",""17944""
""fullscreenexit"",""6"",""51631""
","
","
","""event"",""trial"",""time""
""fullscreenenter"",""5"",""17944""
","""event"",""trial"",""time""
""fullscreenexit"",""6"",""51631""
",653,NA,48,NA,NA,3000,1,NA,NA,images/purpleplanet.jpg,images/alien4,images/alien3,images/rocket2,images/alien4,images/nothing.png,2,real,false,2,rare,0,2020-06-16T19:56:52Z,sub11
two-step-fixation,149,864876,0.0-76.0-2.4,TRUE,FALSE,FALSE,TRUE,"""event"",""trial"",""time""
""fullscreenenter"",""5"",""17944""
""fullscreenexit"",""6"",""51631""
","
","
","""event"",""trial"",""time""
""fullscreenenter"",""5"",""17944""
","""event"",""trial"",""time""
""fullscreenexit"",""6"",""51631""
",NA,images/earth.jpg,NA,NA,NA,NA,NA,NA,NA,NA,NA,NA,NA,NA,NA,fixation,NA,NA,NA,NA,NA,NA,sub11
d3-animate-choice,150,867317,0.0-76.0-0.5,TRUE,FALSE,FALSE,TRUE,"""event"",""trial"",""time""
""fullscreenenter"",""5"",""17944""
""fullscreenexit"",""6"",""51631""
","
","
","""event"",""trial"",""time""
""fullscreenenter"",""5"",""17944""
","""event"",""trial"",""time""
""fullscreenexit"",""6"",""51631""
",440,NA,49,NA,NA,3000,1,NA,NA,images/earth.jpg,images/rocket2,images/rocket1,null,images/rocket1,NA,1,real,null,1,NA,NA,NA,sub11
d3-animate-choice,151,870130,0.0-76.0-1.5,TRUE,FALSE,FALSE,TRUE,"""event"",""trial"",""time""
""fullscreenenter"",""5"",""17944""
""fullscreenexit"",""6"",""51631""
","
","
","""event"",""trial"",""time""
""fullscreenenter"",""5"",""17944""
","""event"",""trial"",""time""
""fullscreenexit"",""6"",""51631""
",812,NA,49,NA,NA,3000,1,NA,NA,images/redplanet1.jpg,images/alien2,images/alien1,images/rocket1,images/alien1,images/t.png,2,real,false,1,rare,1,2020-06-16T19:56:59Z,sub11
two-step-fixation,152,871131,0.0-76.0-2.5,TRUE,FALSE,FALSE,TRUE,"""event"",""trial"",""time""
""fullscreenenter"",""5"",""17944""
""fullscreenexit"",""6"",""51631""
","
","
","""event"",""trial"",""time""
""fullscreenenter"",""5"",""17944""
","""event"",""trial"",""time""
""fullscreenexit"",""6"",""51631""
",NA,images/earth.jpg,NA,NA,NA,NA,NA,NA,NA,NA,NA,NA,NA,NA,NA,fixation,NA,NA,NA,NA,NA,NA,sub11
d3-animate-choice,153,873978,0.0-76.0-0.6,TRUE,FALSE,FALSE,TRUE,"""event"",""trial"",""time""
""fullscreenenter"",""5"",""17944""
""fullscreenexit"",""6"",""51631""
","
","
","""event"",""trial"",""time""
""fullscreenenter"",""5"",""17944""
","""event"",""trial"",""time""
""fullscreenexit"",""6"",""51631""
",845,NA,49,NA,NA,3000,1,NA,NA,images/earth.jpg,images/rocket2,images/rocket1,null,images/rocket1,NA,1,real,null,1,NA,NA,NA,sub11
d3-animate-choice,154,876701,0.0-76.0-1.6,TRUE,FALSE,FALSE,TRUE,"""event"",""trial"",""time""
""fullscreenenter"",""5"",""17944""
""fullscreenexit"",""6"",""51631""
","
","
","""event"",""trial"",""time""
""fullscreenenter"",""5"",""17944""
","""event"",""trial"",""time""
""fullscreenexit"",""6"",""51631""
",721,NA,49,NA,NA,3000,1,NA,NA,images/redplanet1.jpg,images/alien2,images/alien1,images/rocket1,images/alien1,images/nothing.png,2,real,false,1,rare,0,2020-06-16T19:57:05Z,sub11
two-step-fixation,155,877702,0.0-76.0-2.6,TRUE,FALSE,FALSE,TRUE,"""event"",""trial"",""time""
""fullscreenenter"",""5"",""17944""
""fullscreenexit"",""6"",""51631""
","
","
","""event"",""trial"",""time""
""fullscreenenter"",""5"",""17944""
","""event"",""trial"",""time""
""fullscreenexit"",""6"",""51631""
",NA,images/earth.jpg,NA,NA,NA,NA,NA,NA,NA,NA,NA,NA,NA,NA,NA,fixation,NA,NA,NA,NA,NA,NA,sub11
d3-animate-choice,156,880233,0.0-76.0-0.7,TRUE,FALSE,FALSE,TRUE,"""event"",""trial"",""time""
""fullscreenenter"",""5"",""17944""
""fullscreenexit"",""6"",""51631""
","
","
","""event"",""trial"",""time""
""fullscreenenter"",""5"",""17944""
","""event"",""trial"",""time""
""fullscreenexit"",""6"",""51631""
",530,NA,48,NA,NA,3000,1,NA,NA,images/earth.jpg,images/rocket2,images/rocket1,null,images/rocket2,NA,1,real,null,2,NA,NA,NA,sub11
d3-animate-choice,157,882933,0.0-76.0-1.7,TRUE,FALSE,FALSE,TRUE,"""event"",""trial"",""time""
""fullscreenenter"",""5"",""17944""
""fullscreenexit"",""6"",""51631""
","
","
","""event"",""trial"",""time""
""fullscreenenter"",""5"",""17944""
","""event"",""trial"",""time""
""fullscreenexit"",""6"",""51631""
",698.9999999998836,NA,48,NA,NA,3000,1,NA,NA,images/purpleplanet.jpg,images/alien4,images/alien3,images/rocket2,images/alien4,images/t.png,2,real,false,2,rare,1,2020-06-16T19:57:11Z,sub11
two-step-fixation,158,883935,0.0-76.0-2.7,TRUE,FALSE,FALSE,TRUE,"""event"",""trial"",""time""
""fullscreenenter"",""5"",""17944""
""fullscreenexit"",""6"",""51631""
","
","
","""event"",""trial"",""time""
""fullscreenenter"",""5"",""17944""
","""event"",""trial"",""time""
""fullscreenexit"",""6"",""51631""
",NA,images/earth.jpg,NA,NA,NA,NA,NA,NA,NA,NA,NA,NA,NA,NA,NA,fixation,NA,NA,NA,NA,NA,NA,sub11
d3-animate-choice,159,886972,0.0-76.0-0.8,TRUE,FALSE,FALSE,TRUE,"""event"",""trial"",""time""
""fullscreenenter"",""5"",""17944""
""fullscreenexit"",""6"",""51631""
","
","
","""event"",""trial"",""time""
""fullscreenenter"",""5"",""17944""
","""event"",""trial"",""time""
""fullscreenexit"",""6"",""51631""
",1034.9999999998836,NA,48,NA,NA,3000,1,NA,NA,images/earth.jpg,images/rocket2,images/rocket1,null,images/rocket2,NA,1,real,null,2,NA,NA,NA,sub11
d3-animate-choice,160,889740,0.0-76.0-1.8,TRUE,FALSE,FALSE,TRUE,"""event"",""trial"",""time""
""fullscreenenter"",""5"",""17944""
""fullscreenexit"",""6"",""51631""
","
","
","""event"",""trial"",""time""
""fullscreenenter"",""5"",""17944""
","""event"",""trial"",""time""
""fullscreenexit"",""6"",""51631""
",765.0000000001164,NA,48,NA,NA,3000,1,NA,NA,images/purpleplanet.jpg,images/alien4,images/alien3,images/rocket2,images/alien4,images/t.png,2,real,false,2,rare,1,2020-06-16T19:57:18Z,sub11
two-step-fixation,161,890741,0.0-76.0-2.8,TRUE,FALSE,FALSE,TRUE,"""event"",""trial"",""time""
""fullscreenenter"",""5"",""17944""
""fullscreenexit"",""6"",""51631""
","
","
","""event"",""trial"",""time""
""fullscreenenter"",""5"",""17944""
","""event"",""trial"",""time""
""fullscreenexit"",""6"",""51631""
",NA,images/earth.jpg,NA,NA,NA,NA,NA,NA,NA,NA,NA,NA,NA,NA,NA,fixation,NA,NA,NA,NA,NA,NA,sub11
d3-animate-choice,162,893261,0.0-76.0-0.9,TRUE,FALSE,FALSE,TRUE,"""event"",""trial"",""time""
""fullscreenenter"",""5"",""17944""
""fullscreenexit"",""6"",""51631""
","
","
","""event"",""trial"",""time""
""fullscreenenter"",""5"",""17944""
","""event"",""trial"",""time""
""fullscreenexit"",""6"",""51631""
",518,NA,48,NA,NA,3000,1,NA,NA,images/earth.jpg,images/rocket2,images/rocket1,null,images/rocket2,NA,1,real,null,2,NA,NA,NA,sub11
d3-animate-choice,163,895848,0.0-76.0-1.9,TRUE,FALSE,FALSE,TRUE,"""event"",""trial"",""time""
""fullscreenenter"",""5"",""17944""
""fullscreenexit"",""6"",""51631""
","
","
","""event"",""trial"",""time""
""fullscreenenter"",""5"",""17944""
","""event"",""trial"",""time""
""fullscreenexit"",""6"",""51631""
",584.9999999998836,NA,48,NA,NA,3000,1,NA,NA,images/redplanet1.jpg,images/alien2,images/alien1,images/rocket2,images/alien2,images/nothing.png,2,real,true,2,common,0,2020-06-16T19:57:24Z,sub11
two-step-fixation,164,896849,0.0-76.0-2.9,TRUE,FALSE,FALSE,TRUE,"""event"",""trial"",""time""
""fullscreenenter"",""5"",""17944""
""fullscreenexit"",""6"",""51631""
","
","
","""event"",""trial"",""time""
""fullscreenenter"",""5"",""17944""
","""event"",""trial"",""time""
""fullscreenexit"",""6"",""51631""
",NA,images/earth.jpg,NA,NA,NA,NA,NA,NA,NA,NA,NA,NA,NA,NA,NA,fixation,NA,NA,NA,NA,NA,NA,sub11
d3-animate-choice,165,899404,0.0-76.0-0.10,TRUE,FALSE,FALSE,TRUE,"""event"",""trial"",""time""
""fullscreenenter"",""5"",""17944""
""fullscreenexit"",""6"",""51631""
","
","
","""event"",""trial"",""time""
""fullscreenenter"",""5"",""17944""
","""event"",""trial"",""time""
""fullscreenexit"",""6"",""51631""
",552,NA,49,NA,NA,3000,1,NA,NA,images/earth.jpg,images/rocket2,images/rocket1,null,images/rocket1,NA,1,real,null,1,NA,NA,NA,sub11
d3-animate-choice,166,903049,0.0-76.0-1.10,TRUE,FALSE,FALSE,TRUE,"""event"",""trial"",""time""
""fullscreenenter"",""5"",""17944""
""fullscreenexit"",""6"",""51631""
","
","
","""event"",""trial"",""time""
""fullscreenenter"",""5"",""17944""
","""event"",""trial"",""time""
""fullscreenexit"",""6"",""51631""
",1643,NA,48,NA,NA,3000,1,NA,NA,images/redplanet1.jpg,images/alien2,images/alien1,images/rocket1,images/alien2,images/t.png,2,real,false,2,rare,1,2020-06-16T19:57:31Z,sub11
two-step-fixation,167,904050,0.0-76.0-2.10,TRUE,FALSE,FALSE,TRUE,"""event"",""trial"",""time""
""fullscreenenter"",""5"",""17944""
""fullscreenexit"",""6"",""51631""
","
","
","""event"",""trial"",""time""
""fullscreenenter"",""5"",""17944""
","""event"",""trial"",""time""
""fullscreenexit"",""6"",""51631""
",NA,images/earth.jpg,NA,NA,NA,NA,NA,NA,NA,NA,NA,NA,NA,NA,NA,fixation,NA,NA,NA,NA,NA,NA,sub11
d3-animate-choice,168,906682,0.0-76.0-0.11,TRUE,FALSE,FALSE,TRUE,"""event"",""trial"",""time""
""fullscreenenter"",""5"",""17944""
""fullscreenexit"",""6"",""51631""
","
","
","""event"",""trial"",""time""
""fullscreenenter"",""5"",""17944""
","""event"",""trial"",""time""
""fullscreenexit"",""6"",""51631""
",630,NA,49,NA,NA,3000,1,NA,NA,images/earth.jpg,images/rocket2,images/rocket1,null,images/rocket1,NA,1,real,null,1,NA,NA,NA,sub11
d3-animate-choice,169,909596,0.0-76.0-1.11,TRUE,FALSE,FALSE,TRUE,"""event"",""trial"",""time""
""fullscreenenter"",""5"",""17944""
""fullscreenexit"",""6"",""51631""
","
","
","""event"",""trial"",""time""
""fullscreenenter"",""5"",""17944""
","""event"",""trial"",""time""
""fullscreenexit"",""6"",""51631""
",912,NA,49,NA,NA,3000,1,NA,NA,images/purpleplanet.jpg,images/alien4,images/alien3,images/rocket1,images/alien3,images/nothing.png,2,real,true,1,common,0,2020-06-16T19:57:38Z,sub11
two-step-fixation,170,910598,0.0-76.0-2.11,TRUE,FALSE,FALSE,TRUE,"""event"",""trial"",""time""
""fullscreenenter"",""5"",""17944""
""fullscreenexit"",""6"",""51631""
","
","
","""event"",""trial"",""time""
""fullscreenenter"",""5"",""17944""
","""event"",""trial"",""time""
""fullscreenexit"",""6"",""51631""
",NA,images/earth.jpg,NA,NA,NA,NA,NA,NA,NA,NA,NA,NA,NA,NA,NA,fixation,NA,NA,NA,NA,NA,NA,sub11
d3-animate-choice,171,913240,0.0-76.0-0.12,TRUE,FALSE,FALSE,TRUE,"""event"",""trial"",""time""
""fullscreenenter"",""5"",""17944""
""fullscreenexit"",""6"",""51631""
","
","
","""event"",""trial"",""time""
""fullscreenenter"",""5"",""17944""
","""event"",""trial"",""time""
""fullscreenexit"",""6"",""51631""
",642,NA,48,NA,NA,3000,1,NA,NA,images/earth.jpg,images/rocket2,images/rocket1,null,images/rocket2,NA,1,real,null,2,NA,NA,NA,sub11
d3-animate-choice,172,916279,0.0-76.0-1.12,TRUE,FALSE,FALSE,TRUE,"""event"",""trial"",""time""
""fullscreenenter"",""5"",""17944""
""fullscreenexit"",""6"",""51631""
","
","
","""event"",""trial"",""time""
""fullscreenenter"",""5"",""17944""
","""event"",""trial"",""time""
""fullscreenexit"",""6"",""51631""
",1037,NA,48,NA,NA,3000,1,NA,NA,images/purpleplanet.jpg,images/alien4,images/alien3,images/rocket2,images/alien4,images/t.png,2,real,false,2,rare,1,2020-06-16T19:57:45Z,sub11
two-step-fixation,173,917280,0.0-76.0-2.12,TRUE,FALSE,FALSE,TRUE,"""event"",""trial"",""time""
""fullscreenenter"",""5"",""17944""
""fullscreenexit"",""6"",""51631""
","
","
","""event"",""trial"",""time""
""fullscreenenter"",""5"",""17944""
","""event"",""trial"",""time""
""fullscreenexit"",""6"",""51631""
",NA,images/earth.jpg,NA,NA,NA,NA,NA,NA,NA,NA,NA,NA,NA,NA,NA,fixation,NA,NA,NA,NA,NA,NA,sub11
d3-animate-choice,174,920306,0.0-76.0-0.13,TRUE,FALSE,FALSE,TRUE,"""event"",""trial"",""time""
""fullscreenenter"",""5"",""17944""
""fullscreenexit"",""6"",""51631""
","
","
","""event"",""trial"",""time""
""fullscreenenter"",""5"",""17944""
","""event"",""trial"",""time""
""fullscreenexit"",""6"",""51631""
",1024,NA,49,NA,NA,3000,1,NA,NA,images/earth.jpg,images/rocket2,images/rocket1,null,images/rocket1,NA,1,real,null,1,NA,NA,NA,sub11
d3-animate-choice,175,922962,0.0-76.0-1.13,TRUE,FALSE,FALSE,TRUE,"""event"",""trial"",""time""
""fullscreenenter"",""5"",""17944""
""fullscreenexit"",""6"",""51631""
","
","
","""event"",""trial"",""time""
""fullscreenenter"",""5"",""17944""
","""event"",""trial"",""time""
""fullscreenexit"",""6"",""51631""
",653,NA,48,NA,NA,3000,1,NA,NA,images/purpleplanet.jpg,images/alien4,images/alien3,images/rocket1,images/alien4,images/nothing.png,2,real,true,2,common,0,2020-06-16T19:57:51Z,sub11
two-step-fixation,176,923963,0.0-76.0-2.13,TRUE,FALSE,FALSE,TRUE,"""event"",""trial"",""time""
""fullscreenenter"",""5"",""17944""
""fullscreenexit"",""6"",""51631""
","
","
","""event"",""trial"",""time""
""fullscreenenter"",""5"",""17944""
","""event"",""trial"",""time""
""fullscreenexit"",""6"",""51631""
",NA,images/earth.jpg,NA,NA,NA,NA,NA,NA,NA,NA,NA,NA,NA,NA,NA,fixation,NA,NA,NA,NA,NA,NA,sub11
d3-animate-choice,177,926527,0.0-76.0-0.14,TRUE,FALSE,FALSE,TRUE,"""event"",""trial"",""time""
""fullscreenenter"",""5"",""17944""
""fullscreenexit"",""6"",""51631""
","
","
","""event"",""trial"",""time""
""fullscreenenter"",""5"",""17944""
","""event"",""trial"",""time""
""fullscreenexit"",""6"",""51631""
",562.9999999998836,NA,49,NA,NA,3000,1,NA,NA,images/earth.jpg,images/rocket2,images/rocket1,null,images/rocket1,NA,1,real,null,1,NA,NA,NA,sub11
d3-animate-choice,178,929116,0.0-76.0-1.14,TRUE,FALSE,FALSE,TRUE,"""event"",""trial"",""time""
""fullscreenenter"",""5"",""17944""
""fullscreenexit"",""6"",""51631""
","
","
","""event"",""trial"",""time""
""fullscreenenter"",""5"",""17944""
","""event"",""trial"",""time""
""fullscreenexit"",""6"",""51631""
",586,NA,49,NA,NA,3000,1,NA,NA,images/purpleplanet.jpg,images/alien4,images/alien3,images/rocket1,images/alien3,images/t.png,2,real,true,1,common,1,2020-06-16T19:57:58Z,sub11
two-step-fixation,179,930117,0.0-76.0-2.14,TRUE,FALSE,FALSE,TRUE,"""event"",""trial"",""time""
""fullscreenenter"",""5"",""17944""
""fullscreenexit"",""6"",""51631""
","
","
","""event"",""trial"",""time""
""fullscreenenter"",""5"",""17944""
","""event"",""trial"",""time""
""fullscreenexit"",""6"",""51631""
",NA,images/earth.jpg,NA,NA,NA,NA,NA,NA,NA,NA,NA,NA,NA,NA,NA,fixation,NA,NA,NA,NA,NA,NA,sub11
d3-animate-choice,180,932962,0.0-76.0-0.15,TRUE,FALSE,FALSE,TRUE,"""event"",""trial"",""time""
""fullscreenenter"",""5"",""17944""
""fullscreenexit"",""6"",""51631""
","
","
","""event"",""trial"",""time""
""fullscreenenter"",""5"",""17944""
","""event"",""trial"",""time""
""fullscreenexit"",""6"",""51631""
",843.9999999998836,NA,48,NA,NA,3000,1,NA,NA,images/earth.jpg,images/rocket2,images/rocket1,null,images/rocket2,NA,1,real,null,2,NA,NA,NA,sub11
d3-animate-choice,181,935843,0.0-76.0-1.15,TRUE,FALSE,FALSE,TRUE,"""event"",""trial"",""time""
""fullscreenenter"",""5"",""17944""
""fullscreenexit"",""6"",""51631""
","
","
","""event"",""trial"",""time""
""fullscreenenter"",""5"",""17944""
","""event"",""trial"",""time""
""fullscreenexit"",""6"",""51631""
",879,NA,49,NA,NA,3000,1,NA,NA,images/purpleplanet.jpg,images/alien4,images/alien3,images/rocket2,images/alien3,images/nothing.png,2,real,false,1,rare,0,2020-06-16T19:58:04Z,sub11
two-step-fixation,182,936845,0.0-76.0-2.15,TRUE,FALSE,FALSE,TRUE,"""event"",""trial"",""time""
""fullscreenenter"",""5"",""17944""
""fullscreenexit"",""6"",""51631""
","
","
","""event"",""trial"",""time""
""fullscreenenter"",""5"",""17944""
","""event"",""trial"",""time""
""fullscreenexit"",""6"",""51631""
",NA,images/earth.jpg,NA,NA,NA,NA,NA,NA,NA,NA,NA,NA,NA,NA,NA,fixation,NA,NA,NA,NA,NA,NA,sub11
d3-animate-choice,183,939510,0.0-76.0-0.16,TRUE,FALSE,FALSE,TRUE,"""event"",""trial"",""time""
""fullscreenenter"",""5"",""17944""
""fullscreenexit"",""6"",""51631""
","
","
","""event"",""trial"",""time""
""fullscreenenter"",""5"",""17944""
","""event"",""trial"",""time""
""fullscreenexit"",""6"",""51631""
",663,NA,48,NA,NA,3000,1,NA,NA,images/earth.jpg,images/rocket2,images/rocket1,null,images/rocket2,NA,1,real,null,2,NA,NA,NA,sub11
d3-animate-choice,184,942210,0.0-76.0-1.16,TRUE,FALSE,FALSE,TRUE,"""event"",""trial"",""time""
""fullscreenenter"",""5"",""17944""
""fullscreenexit"",""6"",""51631""
","
","
","""event"",""trial"",""time""
""fullscreenenter"",""5"",""17944""
","""event"",""trial"",""time""
""fullscreenexit"",""6"",""51631""
",698.0000000001164,NA,48,NA,NA,3000,1,NA,NA,images/redplanet1.jpg,images/alien2,images/alien1,images/rocket2,images/alien2,images/t.png,2,real,true,2,common,1,2020-06-16T19:58:11Z,sub11
two-step-fixation,185,943212,0.0-76.0-2.16,TRUE,FALSE,FALSE,TRUE,"""event"",""trial"",""time""
""fullscreenenter"",""5"",""17944""
""fullscreenexit"",""6"",""51631""
","
","
","""event"",""trial"",""time""
""fullscreenenter"",""5"",""17944""
","""event"",""trial"",""time""
""fullscreenexit"",""6"",""51631""
",NA,images/earth.jpg,NA,NA,NA,NA,NA,NA,NA,NA,NA,NA,NA,NA,NA,fixation,NA,NA,NA,NA,NA,NA,sub11
d3-animate-choice,186,945833,0.0-76.0-0.17,TRUE,FALSE,FALSE,TRUE,"""event"",""trial"",""time""
""fullscreenenter"",""5"",""17944""
""fullscreenexit"",""6"",""51631""
","
","
","""event"",""trial"",""time""
""fullscreenenter"",""5"",""17944""
","""event"",""trial"",""time""
""fullscreenexit"",""6"",""51631""
",619,NA,48,NA,NA,3000,1,NA,NA,images/earth.jpg,images/rocket2,images/rocket1,null,images/rocket2,NA,1,real,null,2,NA,NA,NA,sub11
d3-animate-choice,187,948848,0.0-76.0-1.17,TRUE,FALSE,FALSE,TRUE,"""event"",""trial"",""time""
""fullscreenenter"",""5"",""17944""
""fullscreenexit"",""6"",""51631""
","
","
","""event"",""trial"",""time""
""fullscreenenter"",""5"",""17944""
","""event"",""trial"",""time""
""fullscreenexit"",""6"",""51631""
",1012.9999999998836,NA,48,NA,NA,3000,1,NA,NA,images/redplanet1.jpg,images/alien2,images/alien1,images/rocket2,images/alien2,images/t.png,2,real,true,2,common,1,2020-06-16T19:58:17Z,sub11
two-step-fixation,188,949850,0.0-76.0-2.17,TRUE,FALSE,FALSE,TRUE,"""event"",""trial"",""time""
""fullscreenenter"",""5"",""17944""
""fullscreenexit"",""6"",""51631""
","
","
","""event"",""trial"",""time""
""fullscreenenter"",""5"",""17944""
","""event"",""trial"",""time""
""fullscreenexit"",""6"",""51631""
",NA,images/earth.jpg,NA,NA,NA,NA,NA,NA,NA,NA,NA,NA,NA,NA,NA,fixation,NA,NA,NA,NA,NA,NA,sub11
d3-animate-choice,189,952381,0.0-76.0-0.18,TRUE,FALSE,FALSE,TRUE,"""event"",""trial"",""time""
""fullscreenenter"",""5"",""17944""
""fullscreenexit"",""6"",""51631""
","
","
","""event"",""trial"",""time""
""fullscreenenter"",""5"",""17944""
","""event"",""trial"",""time""
""fullscreenexit"",""6"",""51631""
",529,NA,48,NA,NA,3000,1,NA,NA,images/earth.jpg,images/rocket2,images/rocket1,null,images/rocket2,NA,1,real,null,2,NA,NA,NA,sub11
d3-animate-choice,190,955035,0.0-76.0-1.18,TRUE,FALSE,FALSE,TRUE,"""event"",""trial"",""time""
""fullscreenenter"",""5"",""17944""
""fullscreenexit"",""6"",""51631""
","
","
","""event"",""trial"",""time""
""fullscreenenter"",""5"",""17944""
","""event"",""trial"",""time""
""fullscreenexit"",""6"",""51631""
",652.9999999998836,NA,48,NA,NA,3000,1,NA,NA,images/redplanet1.jpg,images/alien2,images/alien1,images/rocket2,images/alien2,images/t.png,2,real,true,2,common,1,2020-06-16T19:58:23Z,sub11
two-step-fixation,191,956036,0.0-76.0-2.18,TRUE,FALSE,FALSE,TRUE,"""event"",""trial"",""time""
""fullscreenenter"",""5"",""17944""
""fullscreenexit"",""6"",""51631""
","
","
","""event"",""trial"",""time""
""fullscreenenter"",""5"",""17944""
","""event"",""trial"",""time""
""fullscreenexit"",""6"",""51631""
",NA,images/earth.jpg,NA,NA,NA,NA,NA,NA,NA,NA,NA,NA,NA,NA,NA,fixation,NA,NA,NA,NA,NA,NA,sub11
d3-animate-choice,192,958567,0.0-76.0-0.19,TRUE,FALSE,FALSE,TRUE,"""event"",""trial"",""time""
""fullscreenenter"",""5"",""17944""
""fullscreenexit"",""6"",""51631""
","
","
","""event"",""trial"",""time""
""fullscreenenter"",""5"",""17944""
","""event"",""trial"",""time""
""fullscreenexit"",""6"",""51631""
",530,NA,48,NA,NA,3000,1,NA,NA,images/earth.jpg,images/rocket2,images/rocket1,null,images/rocket2,NA,1,real,null,2,NA,NA,NA,sub11
d3-animate-choice,193,961088,0.0-76.0-1.19,TRUE,FALSE,FALSE,TRUE,"""event"",""trial"",""time""
""fullscreenenter"",""5"",""17944""
""fullscreenexit"",""6"",""51631""
","
","
","""event"",""trial"",""time""
""fullscreenenter"",""5"",""17944""
","""event"",""trial"",""time""
""fullscreenexit"",""6"",""51631""
",519,NA,48,NA,NA,3000,1,NA,NA,images/redplanet1.jpg,images/alien2,images/alien1,images/rocket2,images/alien2,images/t.png,2,real,true,2,common,1,2020-06-16T19:58:30Z,sub11
two-step-fixation,194,962089,0.0-76.0-2.19,TRUE,FALSE,FALSE,TRUE,"""event"",""trial"",""time""
""fullscreenenter"",""5"",""17944""
""fullscreenexit"",""6"",""51631""
","
","
","""event"",""trial"",""time""
""fullscreenenter"",""5"",""17944""
","""event"",""trial"",""time""
""fullscreenexit"",""6"",""51631""
",NA,images/earth.jpg,NA,NA,NA,NA,NA,NA,NA,NA,NA,NA,NA,NA,NA,fixation,NA,NA,NA,NA,NA,NA,sub11
d3-animate-choice,195,964598,0.0-76.0-0.20,TRUE,FALSE,FALSE,TRUE,"""event"",""trial"",""time""
""fullscreenenter"",""5"",""17944""
""fullscreenexit"",""6"",""51631""
","
","
","""event"",""trial"",""time""
""fullscreenenter"",""5"",""17944""
","""event"",""trial"",""time""
""fullscreenexit"",""6"",""51631""
",506,NA,48,NA,NA,3000,1,NA,NA,images/earth.jpg,images/rocket2,images/rocket1,null,images/rocket2,NA,1,real,null,2,NA,NA,NA,sub11
d3-animate-choice,196,967388,0.0-76.0-1.20,TRUE,FALSE,FALSE,TRUE,"""event"",""trial"",""time""
""fullscreenenter"",""5"",""17944""
""fullscreenexit"",""6"",""51631""
","
","
","""event"",""trial"",""time""
""fullscreenenter"",""5"",""17944""
","""event"",""trial"",""time""
""fullscreenexit"",""6"",""51631""
",789,NA,48,NA,NA,3000,1,NA,NA,images/redplanet1.jpg,images/alien2,images/alien1,images/rocket2,images/alien2,images/t.png,2,real,true,2,common,1,2020-06-16T19:58:36Z,sub11
two-step-fixation,197,968389,0.0-76.0-2.20,TRUE,FALSE,FALSE,TRUE,"""event"",""trial"",""time""
""fullscreenenter"",""5"",""17944""
""fullscreenexit"",""6"",""51631""
","
","
","""event"",""trial"",""time""
""fullscreenenter"",""5"",""17944""
","""event"",""trial"",""time""
""fullscreenexit"",""6"",""51631""
",NA,images/earth.jpg,NA,NA,NA,NA,NA,NA,NA,NA,NA,NA,NA,NA,NA,fixation,NA,NA,NA,NA,NA,NA,sub11
d3-animate-choice,198,971033,0.0-76.0-0.21,TRUE,FALSE,FALSE,TRUE,"""event"",""trial"",""time""
""fullscreenenter"",""5"",""17944""
""fullscreenexit"",""6"",""51631""
","
","
","""event"",""trial"",""time""
""fullscreenenter"",""5"",""17944""
","""event"",""trial"",""time""
""fullscreenexit"",""6"",""51631""
",643,NA,49,NA,NA,3000,1,NA,NA,images/earth.jpg,images/rocket2,images/rocket1,null,images/rocket1,NA,1,real,null,1,NA,NA,NA,sub11
d3-animate-choice,199,973733,0.0-76.0-1.21,TRUE,FALSE,FALSE,TRUE,"""event"",""trial"",""time""
""fullscreenenter"",""5"",""17944""
""fullscreenexit"",""6"",""51631""
","
","
","""event"",""trial"",""time""
""fullscreenenter"",""5"",""17944""
","""event"",""trial"",""time""
""fullscreenexit"",""6"",""51631""
",698.0000000001164,NA,49,NA,NA,3000,1,NA,NA,images/purpleplanet.jpg,images/alien4,images/alien3,images/rocket1,images/alien3,images/nothing.png,2,real,true,1,common,0,2020-06-16T19:58:42Z,sub11
two-step-fixation,200,974734,0.0-76.0-2.21,TRUE,FALSE,FALSE,TRUE,"""event"",""trial"",""time""
""fullscreenenter"",""5"",""17944""
""fullscreenexit"",""6"",""51631""
","
","
","""event"",""trial"",""time""
""fullscreenenter"",""5"",""17944""
","""event"",""trial"",""time""
""fullscreenexit"",""6"",""51631""
",NA,images/earth.jpg,NA,NA,NA,NA,NA,NA,NA,NA,NA,NA,NA,NA,NA,fixation,NA,NA,NA,NA,NA,NA,sub11
d3-animate-choice,201,977288,0.0-76.0-0.22,TRUE,FALSE,FALSE,TRUE,"""event"",""trial"",""time""
""fullscreenenter"",""5"",""17944""
""fullscreenexit"",""6"",""51631""
","
","
","""event"",""trial"",""time""
""fullscreenenter"",""5"",""17944""
","""event"",""trial"",""time""
""fullscreenexit"",""6"",""51631""
",552,NA,48,NA,NA,3000,1,NA,NA,images/earth.jpg,images/rocket2,images/rocket1,null,images/rocket2,NA,1,real,null,2,NA,NA,NA,sub11
d3-animate-choice,202,980281,0.0-76.0-1.22,TRUE,FALSE,FALSE,TRUE,"""event"",""trial"",""time""
""fullscreenenter"",""5"",""17944""
""fullscreenexit"",""6"",""51631""
","
","
","""event"",""trial"",""time""
""fullscreenenter"",""5"",""17944""
","""event"",""trial"",""time""
""fullscreenexit"",""6"",""51631""
",991.0000000001164,NA,48,NA,NA,3000,1,NA,NA,images/purpleplanet.jpg,images/alien4,images/alien3,images/rocket2,images/alien4,images/nothing.png,2,real,false,2,rare,0,2020-06-16T19:58:49Z,sub11
two-step-fixation,203,981282,0.0-76.0-2.22,TRUE,FALSE,FALSE,TRUE,"""event"",""trial"",""time""
""fullscreenenter"",""5"",""17944""
""fullscreenexit"",""6"",""51631""
","
","
","""event"",""trial"",""time""
""fullscreenenter"",""5"",""17944""
","""event"",""trial"",""time""
""fullscreenexit"",""6"",""51631""
",NA,images/earth.jpg,NA,NA,NA,NA,NA,NA,NA,NA,NA,NA,NA,NA,NA,fixation,NA,NA,NA,NA,NA,NA,sub11
d3-animate-choice,204,983836,0.0-76.0-0.23,TRUE,FALSE,FALSE,TRUE,"""event"",""trial"",""time""
""fullscreenenter"",""5"",""17944""
""fullscreenexit"",""6"",""51631""
","
","
","""event"",""trial"",""time""
""fullscreenenter"",""5"",""17944""
","""event"",""trial"",""time""
""fullscreenexit"",""6"",""51631""
",552,NA,49,NA,NA,3000,1,NA,NA,images/earth.jpg,images/rocket2,images/rocket1,null,images/rocket1,NA,1,real,null,1,NA,NA,NA,sub11
d3-animate-choice,205,986671,0.0-76.0-1.23,TRUE,FALSE,FALSE,TRUE,"""event"",""trial"",""time""
""fullscreenenter"",""5"",""17944""
""fullscreenexit"",""6"",""51631""
","
","
","""event"",""trial"",""time""
""fullscreenenter"",""5"",""17944""
","""event"",""trial"",""time""
""fullscreenexit"",""6"",""51631""
",833.0000000001164,NA,49,NA,NA,3000,1,NA,NA,images/purpleplanet.jpg,images/alien4,images/alien3,images/rocket1,images/alien3,images/nothing.png,2,real,true,1,common,0,2020-06-16T19:58:55Z,sub11
two-step-fixation,206,987673,0.0-76.0-2.23,TRUE,FALSE,FALSE,TRUE,"""event"",""trial"",""time""
""fullscreenenter"",""5"",""17944""
""fullscreenexit"",""6"",""51631""
","
","
","""event"",""trial"",""time""
""fullscreenenter"",""5"",""17944""
","""event"",""trial"",""time""
""fullscreenexit"",""6"",""51631""
",NA,images/earth.jpg,NA,NA,NA,NA,NA,NA,NA,NA,NA,NA,NA,NA,NA,fixation,NA,NA,NA,NA,NA,NA,sub11
d3-animate-choice,207,990294,0.0-76.0-0.24,TRUE,FALSE,FALSE,TRUE,"""event"",""trial"",""time""
""fullscreenenter"",""5"",""17944""
""fullscreenexit"",""6"",""51631""
","
","
","""event"",""trial"",""time""
""fullscreenenter"",""5"",""17944""
","""event"",""trial"",""time""
""fullscreenexit"",""6"",""51631""
",618,NA,48,NA,NA,3000,1,NA,NA,images/earth.jpg,images/rocket2,images/rocket1,null,images/rocket2,NA,1,real,null,2,NA,NA,NA,sub11
d3-animate-choice,208,992970,0.0-76.0-1.24,TRUE,FALSE,FALSE,TRUE,"""event"",""trial"",""time""
""fullscreenenter"",""5"",""17944""
""fullscreenexit"",""6"",""51631""
","
","
","""event"",""trial"",""time""
""fullscreenenter"",""5"",""17944""
","""event"",""trial"",""time""
""fullscreenexit"",""6"",""51631""
",674.9999999998836,NA,48,NA,NA,3000,1,NA,NA,images/redplanet1.jpg,images/alien2,images/alien1,images/rocket2,images/alien2,images/t.png,2,real,true,2,common,1,2020-06-16T19:59:01Z,sub11
two-step-fixation,209,993972,0.0-76.0-2.24,TRUE,FALSE,FALSE,TRUE,"""event"",""trial"",""time""
""fullscreenenter"",""5"",""17944""
""fullscreenexit"",""6"",""51631""
","
","
","""event"",""trial"",""time""
""fullscreenenter"",""5"",""17944""
","""event"",""trial"",""time""
""fullscreenexit"",""6"",""51631""
",NA,images/earth.jpg,NA,NA,NA,NA,NA,NA,NA,NA,NA,NA,NA,NA,NA,fixation,NA,NA,NA,NA,NA,NA,sub11
d3-animate-choice,210,996481,0.0-76.0-0.25,TRUE,FALSE,FALSE,TRUE,"""event"",""trial"",""time""
""fullscreenenter"",""5"",""17944""
""fullscreenexit"",""6"",""51631""
","
","
","""event"",""trial"",""time""
""fullscreenenter"",""5"",""17944""
","""event"",""trial"",""time""
""fullscreenexit"",""6"",""51631""
",507,NA,48,NA,NA,3000,1,NA,NA,images/earth.jpg,images/rocket2,images/rocket1,null,images/rocket2,NA,1,real,null,2,NA,NA,NA,sub11
d3-animate-choice,211,999518,0.0-76.0-1.25,TRUE,FALSE,FALSE,TRUE,"""event"",""trial"",""time""
""fullscreenenter"",""5"",""17944""
""fullscreenexit"",""6"",""51631""
","
","
","""event"",""trial"",""time""
""fullscreenenter"",""5"",""17944""
","""event"",""trial"",""time""
""fullscreenexit"",""6"",""51631""
",1035.9999999998836,NA,48,NA,NA,3000,1,NA,NA,images/redplanet1.jpg,images/alien2,images/alien1,images/rocket2,images/alien2,images/t.png,2,real,true,2,common,1,2020-06-16T19:59:08Z,sub11
two-step-fixation,212,1000520,0.0-76.0-2.25,TRUE,FALSE,FALSE,TRUE,"""event"",""trial"",""time""
""fullscreenenter"",""5"",""17944""
""fullscreenexit"",""6"",""51631""
","
","
","""event"",""trial"",""time""
""fullscreenenter"",""5"",""17944""
","""event"",""trial"",""time""
""fullscreenexit"",""6"",""51631""
",NA,images/earth.jpg,NA,NA,NA,NA,NA,NA,NA,NA,NA,NA,NA,NA,NA,fixation,NA,NA,NA,NA,NA,NA,sub11
d3-animate-choice,213,1002984,0.0-76.0-0.26,TRUE,FALSE,FALSE,TRUE,"""event"",""trial"",""time""
""fullscreenenter"",""5"",""17944""
""fullscreenexit"",""6"",""51631""
","
","
","""event"",""trial"",""time""
""fullscreenenter"",""5"",""17944""
","""event"",""trial"",""time""
""fullscreenexit"",""6"",""51631""
",463,NA,48,NA,NA,3000,1,NA,NA,images/earth.jpg,images/rocket2,images/rocket1,null,images/rocket2,NA,1,real,null,2,NA,NA,NA,sub11
d3-animate-choice,214,1005638,0.0-76.0-1.26,TRUE,FALSE,FALSE,TRUE,"""event"",""trial"",""time""
""fullscreenenter"",""5"",""17944""
""fullscreenexit"",""6"",""51631""
","
","
","""event"",""trial"",""time""
""fullscreenenter"",""5"",""17944""
","""event"",""trial"",""time""
""fullscreenexit"",""6"",""51631""
",653,NA,48,NA,NA,3000,1,NA,NA,images/redplanet1.jpg,images/alien2,images/alien1,images/rocket2,images/alien2,images/t.png,2,real,true,2,common,1,2020-06-16T19:59:14Z,sub11
two-step-fixation,215,1006640,0.0-76.0-2.26,TRUE,FALSE,FALSE,TRUE,"""event"",""trial"",""time""
""fullscreenenter"",""5"",""17944""
""fullscreenexit"",""6"",""51631""
","
","
","""event"",""trial"",""time""
""fullscreenenter"",""5"",""17944""
","""event"",""trial"",""time""
""fullscreenexit"",""6"",""51631""
",NA,images/earth.jpg,NA,NA,NA,NA,NA,NA,NA,NA,NA,NA,NA,NA,NA,fixation,NA,NA,NA,NA,NA,NA,sub11
d3-animate-choice,216,1009756,0.0-76.0-0.27,TRUE,FALSE,FALSE,TRUE,"""event"",""trial"",""time""
""fullscreenenter"",""5"",""17944""
""fullscreenexit"",""6"",""51631""
","
","
","""event"",""trial"",""time""
""fullscreenenter"",""5"",""17944""
","""event"",""trial"",""time""
""fullscreenexit"",""6"",""51631""
",1113.9999999998836,NA,48,NA,NA,3000,1,NA,NA,images/earth.jpg,images/rocket2,images/rocket1,null,images/rocket2,NA,1,real,null,2,NA,NA,NA,sub11
d3-animate-choice,217,1012365,0.0-76.0-1.27,TRUE,FALSE,FALSE,TRUE,"""event"",""trial"",""time""
""fullscreenenter"",""5"",""17944""
""fullscreenexit"",""6"",""51631""
","
","
","""event"",""trial"",""time""
""fullscreenenter"",""5"",""17944""
","""event"",""trial"",""time""
""fullscreenexit"",""6"",""51631""
",608,NA,48,NA,NA,3000,1,NA,NA,images/redplanet1.jpg,images/alien2,images/alien1,images/rocket2,images/alien2,images/t.png,2,real,true,2,common,1,2020-06-16T19:59:21Z,sub11
two-step-fixation,218,1013367,0.0-76.0-2.27,TRUE,FALSE,FALSE,TRUE,"""event"",""trial"",""time""
""fullscreenenter"",""5"",""17944""
""fullscreenexit"",""6"",""51631""
","
","
","""event"",""trial"",""time""
""fullscreenenter"",""5"",""17944""
","""event"",""trial"",""time""
""fullscreenexit"",""6"",""51631""
",NA,images/earth.jpg,NA,NA,NA,NA,NA,NA,NA,NA,NA,NA,NA,NA,NA,fixation,NA,NA,NA,NA,NA,NA,sub11
d3-animate-choice,219,1015989,0.0-76.0-0.28,TRUE,FALSE,FALSE,TRUE,"""event"",""trial"",""time""
""fullscreenenter"",""5"",""17944""
""fullscreenexit"",""6"",""51631""
","
","
","""event"",""trial"",""time""
""fullscreenenter"",""5"",""17944""
","""event"",""trial"",""time""
""fullscreenexit"",""6"",""51631""
",451.0000000001164,NA,27,NA,NA,3000,1,462597608620621,179404839,images/earth.jpg,images/rocket2,images/rocket1,null,images/rocket2,NA,1,real,null,NA,NA,NA,NA,sub11
d3-animate-choice,220,1018835,0.0-76.0-1.28,TRUE,FALSE,FALSE,TRUE,"""event"",""trial"",""time""
""fullscreenenter"",""5"",""17944""
""fullscreenexit"",""6"",""51631""
","
","
","""event"",""trial"",""time""
""fullscreenenter"",""5"",""17944""
","""event"",""trial"",""time""
""fullscreenexit"",""6"",""51631""
",844,NA,48,NA,NA,3000,1,NA,NA,images/purpleplanet.jpg,images/alien4,images/alien3,images/rocket2,images/alien4,images/t.png,2,real,false,2,rare,1,2020-06-16T19:59:27Z,sub11
two-step-fixation,221,1019837,0.0-76.0-2.28,TRUE,FALSE,FALSE,TRUE,"""event"",""trial"",""time""
""fullscreenenter"",""5"",""17944""
""fullscreenexit"",""6"",""51631""
","
","
","""event"",""trial"",""time""
""fullscreenenter"",""5"",""17944""
","""event"",""trial"",""time""
""fullscreenexit"",""6"",""51631""
",NA,images/earth.jpg,NA,NA,NA,NA,NA,NA,NA,NA,NA,NA,NA,NA,NA,fixation,NA,NA,NA,NA,NA,NA,sub11
d3-animate-choice,222,1022559,0.0-76.0-0.29,TRUE,FALSE,FALSE,TRUE,"""event"",""trial"",""time""
""fullscreenenter"",""5"",""17944""
""fullscreenexit"",""6"",""51631""
","
","
","""event"",""trial"",""time""
""fullscreenenter"",""5"",""17944""
","""event"",""trial"",""time""
""fullscreenexit"",""6"",""51631""
",720,NA,48,NA,NA,3000,1,NA,NA,images/earth.jpg,images/rocket2,images/rocket1,null,images/rocket2,NA,1,real,null,2,NA,NA,NA,sub11
d3-animate-choice,223,1025292,0.0-76.0-1.29,TRUE,FALSE,FALSE,TRUE,"""event"",""trial"",""time""
""fullscreenenter"",""5"",""17944""
""fullscreenexit"",""6"",""51631""
","
","
","""event"",""trial"",""time""
""fullscreenenter"",""5"",""17944""
","""event"",""trial"",""time""
""fullscreenexit"",""6"",""51631""
",732.0000000002328,NA,48,NA,NA,3000,1,NA,NA,images/redplanet1.jpg,images/alien2,images/alien1,images/rocket2,images/alien2,images/t.png,2,real,true,2,common,1,2020-06-16T19:59:34Z,sub11
two-step-fixation,224,1026293,0.0-76.0-2.29,TRUE,FALSE,FALSE,TRUE,"""event"",""trial"",""time""
""fullscreenenter"",""5"",""17944""
""fullscreenexit"",""6"",""51631""
","
","
","""event"",""trial"",""time""
""fullscreenenter"",""5"",""17944""
","""event"",""trial"",""time""
""fullscreenexit"",""6"",""51631""
",NA,images/earth.jpg,NA,NA,NA,NA,NA,NA,NA,NA,NA,NA,NA,NA,NA,fixation,NA,NA,NA,NA,NA,NA,sub11
d3-animate-choice,225,1028824,0.0-76.0-0.30,TRUE,FALSE,FALSE,TRUE,"""event"",""trial"",""time""
""fullscreenenter"",""5"",""17944""
""fullscreenexit"",""6"",""51631""
","
","
","""event"",""trial"",""time""
""fullscreenenter"",""5"",""17944""
","""event"",""trial"",""time""
""fullscreenexit"",""6"",""51631""
",529.9999999998836,NA,49,NA,NA,3000,1,587,91,images/earth.jpg,images/rocket2,images/rocket1,null,images/rocket1,NA,1,real,null,1,NA,NA,NA,sub11
d3-animate-choice,226,1032827,0.0-76.0-1.30,TRUE,FALSE,FALSE,TRUE,"""event"",""trial"",""time""
""fullscreenenter"",""5"",""17944""
""fullscreenexit"",""6"",""51631""
","
","
","""event"",""trial"",""time""
""fullscreenenter"",""5"",""17944""
","""event"",""trial"",""time""
""fullscreenexit"",""6"",""51631""
