trial_type,trial_index,time_elapsed,internal_node_id,rocket_sides,red_planet_first_rocket,red_display_order,purple_display_order,interactions,blur_events,focus_events,fullscreenenter_events,fullscreenexit_events,rt,stimulus,key_press,button_pressed,success,duration,valid_pressed,rts,keys,planet_text,right_text,left_text,center_text,chosen_text,reward_text,trial_stage,practice_trial,transition_type,choice,transition,reward,timestamp,subject_id
pavlovia,0,4,0.0-0.0,FALSE,TRUE,TRUE,FALSE,"
","
","
","
","
",NA,NA,NA,NA,NA,NA,NA,NA,NA,NA,NA,NA,NA,NA,NA,NA,NA,NA,NA,NA,NA,NA,sub3
html-keyboard-response,1,2499,0.0-1.0,FALSE,TRUE,TRUE,FALSE,"
","
","
","
","
",2494.0000000000036,Welcome! Press the space bar to begin.,32,NA,NA,NA,NA,NA,NA,NA,NA,NA,NA,NA,NA,NA,NA,NA,NA,NA,NA,NA,sub3
audio-keyboard-response,2,17023,0.0-2.0,FALSE,TRUE,TRUE,FALSE,"
","
","
","
","
",14477,audio/beep_loop.wav,32,NA,NA,NA,NA,NA,NA,NA,NA,NA,NA,NA,NA,NA,NA,NA,NA,NA,NA,NA,sub3
audio-button-response,3,21952,0.0-3.0,FALSE,TRUE,TRUE,FALSE,"
","
","
","
","
",NaN,audio/fish.mp3,NA,1,NA,NA,NA,NA,NA,NA,NA,NA,NA,NA,NA,NA,NA,NA,NA,NA,NA,NA,sub3
audio-button-response,4,28553,0.0-4.0,FALSE,TRUE,TRUE,FALSE,"""event"",""trial"",""time""
""fullscreenenter"",""5"",""33998""
","
","
","""event"",""trial"",""time""
""fullscreenenter"",""5"",""33998""
","
",NaN,audio/tiger.mp3,NA,4,NA,NA,NA,NA,NA,NA,NA,NA,NA,NA,NA,NA,NA,NA,NA,NA,NA,NA,sub3
fullscreen,5,34945,0.0-5.0,FALSE,TRUE,TRUE,FALSE,"""event"",""trial"",""time""
""fullscreenenter"",""5"",""33998""
","
","
","""event"",""trial"",""time""
""fullscreenenter"",""5"",""33998""
","
",NA,NA,NA,NA,TRUE,NA,NA,NA,NA,NA,NA,NA,NA,NA,NA,NA,NA,NA,NA,NA,NA,NA,sub3
d3-instructions,6,51473,0.0-6.0,FALSE,TRUE,TRUE,FALSE,"""event"",""trial"",""time""
""fullscreenenter"",""5"",""33998""
","
","
","""event"",""trial"",""time""
""fullscreenenter"",""5"",""33998""
","
",NA,NA,NA,NA,NA,NA,NA,NA,NA,NA,NA,NA,NA,NA,NA,NA,NA,NA,NA,NA,NA,NA,sub3
d3-instructions,7,64091,0.0-7.0,FALSE,TRUE,TRUE,FALSE,"""event"",""trial"",""time""
""fullscreenenter"",""5"",""33998""
","
","
","""event"",""trial"",""time""
""fullscreenenter"",""5"",""33998""
","
",NA,NA,NA,NA,NA,NA,NA,NA,NA,NA,NA,NA,NA,NA,NA,NA,NA,NA,NA,NA,NA,NA,sub3
d3-instructions,8,73132,0.0-8.0,FALSE,TRUE,TRUE,FALSE,"""event"",""trial"",""time""
""fullscreenenter"",""5"",""33998""
","
","
","""event"",""trial"",""time""
""fullscreenenter"",""5"",""33998""
","
",NA,NA,NA,NA,NA,NA,NA,NA,NA,NA,NA,NA,NA,NA,NA,NA,NA,NA,NA,NA,NA,NA,sub3
d3-instructions,9,88164,0.0-9.0,FALSE,TRUE,TRUE,FALSE,"""event"",""trial"",""time""
""fullscreenenter"",""5"",""33998""
","
","
","""event"",""trial"",""time""
""fullscreenenter"",""5"",""33998""
","
",NA,NA,NA,NA,NA,NA,NA,NA,NA,NA,NA,NA,NA,NA,NA,NA,NA,NA,NA,NA,NA,NA,sub3
d3-instructions,10,108455,0.0-10.0,FALSE,TRUE,TRUE,FALSE,"""event"",""trial"",""time""
""fullscreenenter"",""5"",""33998""
","
","
","""event"",""trial"",""time""
""fullscreenenter"",""5"",""33998""
","
",NA,NA,NA,NA,NA,NA,NA,NA,NA,NA,NA,NA,NA,NA,NA,NA,NA,NA,NA,NA,NA,NA,sub3
d3-animate-choice,11,114635,0.0-11.0,FALSE,TRUE,TRUE,FALSE,"""event"",""trial"",""time""
""fullscreenenter"",""5"",""33998""
","
","
","""event"",""trial"",""time""
""fullscreenenter"",""5"",""33998""
","
",4176,NA,49,NA,NA,3000,1,5052.00000000003,4848,images/tutgreenplanet.jpg,images/tutalien1,images/tutalien2,null,images/tutalien2,NA,NA,practice,null,NA,NA,NA,NA,sub3
d3-animate-choice,12,118249,0.0-12.0,FALSE,TRUE,TRUE,FALSE,"""event"",""trial"",""time""
""fullscreenenter"",""5"",""33998""
","
","
","""event"",""trial"",""time""
""fullscreenenter"",""5"",""33998""
","
",1612,NA,48,NA,NA,3000,1,NA,NA,images/tutgreenplanet.jpg,images/tutalien1,images/tutalien2,null,images/tutalien1,NA,NA,practice,null,NA,NA,NA,NA,sub3
d3-animate-choice,13,124185,0.0-13.0,FALSE,TRUE,TRUE,FALSE,"""event"",""trial"",""time""
""fullscreenenter"",""5"",""33998""
","
","
","""event"",""trial"",""time""
""fullscreenenter"",""5"",""33998""
","
",3934,NA,49,NA,NA,3000,1,NA,NA,images/tutgreenplanet.jpg,images/tutalien1,images/tutalien2,null,images/tutalien2,NA,NA,practice,null,NA,NA,NA,NA,sub3
d3-animate-choice,14,127065,0.0-14.0,FALSE,TRUE,TRUE,FALSE,"""event"",""trial"",""time""
""fullscreenenter"",""5"",""33998""
","
","
","""event"",""trial"",""time""
""fullscreenenter"",""5"",""33998""
","
",877,NA,48,NA,NA,3000,1,NA,NA,images/tutgreenplanet.jpg,images/tutalien1,images/tutalien2,null,images/tutalien1,NA,NA,practice,null,NA,NA,NA,NA,sub3
d3-instructions,15,142997,0.0-15.0,FALSE,TRUE,TRUE,FALSE,"""event"",""trial"",""time""
""fullscreenenter"",""5"",""33998""
","
","
","""event"",""trial"",""time""
""fullscreenenter"",""5"",""33998""
","
",NA,NA,NA,NA,NA,NA,NA,NA,NA,NA,NA,NA,NA,NA,NA,NA,NA,NA,NA,NA,NA,NA,sub3
d3-instructions,16,153306,0.0-16.0,FALSE,TRUE,TRUE,FALSE,"""event"",""trial"",""time""
""fullscreenenter"",""5"",""33998""
","
","
","""event"",""trial"",""time""
""fullscreenenter"",""5"",""33998""
","
",NA,NA,NA,NA,NA,NA,NA,NA,NA,NA,NA,NA,NA,NA,NA,NA,NA,NA,NA,NA,NA,NA,sub3
d3-instructions,17,162418,0.0-17.0,FALSE,TRUE,TRUE,FALSE,"""event"",""trial"",""time""
""fullscreenenter"",""5"",""33998""
","
","
","""event"",""trial"",""time""
""fullscreenenter"",""5"",""33998""
","
",NA,NA,NA,NA,NA,NA,NA,NA,NA,NA,NA,NA,NA,NA,NA,NA,NA,NA,NA,NA,NA,NA,sub3
d3-instructions,18,176813,0.0-18.0,FALSE,TRUE,TRUE,FALSE,"""event"",""trial"",""time""
""fullscreenenter"",""5"",""33998""
","
","
","""event"",""trial"",""time""
""fullscreenenter"",""5"",""33998""
","
",NA,NA,NA,NA,NA,NA,NA,NA,NA,NA,NA,NA,NA,NA,NA,NA,NA,NA,NA,NA,NA,NA,sub3
d3-instructions,19,191085,0.0-19.0,FALSE,TRUE,TRUE,FALSE,"""event"",""trial"",""time""
""fullscreenenter"",""5"",""33998""
","
","
","""event"",""trial"",""time""
""fullscreenenter"",""5"",""33998""
","
",NA,NA,NA,NA,NA,NA,NA,NA,NA,NA,NA,NA,NA,NA,NA,NA,NA,NA,NA,NA,NA,NA,sub3
d3-animate-choice,20,194938,0.0-20.0,FALSE,TRUE,TRUE,FALSE,"""event"",""trial"",""time""
""fullscreenenter"",""5"",""33998""
","
","
","""event"",""trial"",""time""
""fullscreenenter"",""5"",""33998""
","
",1851,NA,49,NA,NA,3000,1,NA,NA,images/tutyellowplanet.jpg,null,images/tutalien3,null,images/tutalien3,images/nothing.png,NA,practice,null,NA,NA,NA,NA,sub3
d3-animate-choice,21,197746,0.0-21.0,FALSE,TRUE,TRUE,FALSE,"""event"",""trial"",""time""
""fullscreenenter"",""5"",""33998""
","
","
","""event"",""trial"",""time""
""fullscreenenter"",""5"",""33998""
","
",805.9999999999709,NA,49,NA,NA,3000,1,NA,NA,images/tutyellowplanet.jpg,null,images/tutalien3,null,images/tutalien3,images/t.png,NA,practice,null,NA,NA,NA,NA,sub3
d3-animate-choice,22,200868,0.0-22.0,FALSE,TRUE,TRUE,FALSE,"""event"",""trial"",""time""
""fullscreenenter"",""5"",""33998""
","
","
","""event"",""trial"",""time""
""fullscreenenter"",""5"",""33998""
","
",1120,NA,49,NA,NA,3000,1,NA,NA,images/tutyellowplanet.jpg,null,images/tutalien3,null,images/tutalien3,images/t.png,NA,practice,null,NA,NA,NA,NA,sub3
d3-animate-choice,23,204044,0.0-23.0,FALSE,TRUE,TRUE,FALSE,"""event"",""trial"",""time""
""fullscreenenter"",""5"",""33998""
","
","
","""event"",""trial"",""time""
""fullscreenenter"",""5"",""33998""
","
",1175,NA,49,NA,NA,3000,1,NA,NA,images/tutyellowplanet.jpg,null,images/tutalien3,null,images/tutalien3,images/t.png,NA,practice,null,NA,NA,NA,NA,sub3
d3-animate-choice,24,207557,0.0-24.0,FALSE,TRUE,TRUE,FALSE,"""event"",""trial"",""time""
""fullscreenenter"",""5"",""33998""
","
","
","""event"",""trial"",""time""
""fullscreenenter"",""5"",""33998""
","
",1510,NA,49,NA,NA,3000,1,NA,NA,images/tutyellowplanet.jpg,null,images/tutalien3,null,images/tutalien3,images/t.png,NA,practice,null,NA,NA,NA,NA,sub3
d3-animate-choice,25,212556,0.0-25.0,FALSE,TRUE,TRUE,FALSE,"""event"",""trial"",""time""
""fullscreenenter"",""5"",""33998""
","
","
","""event"",""trial"",""time""
""fullscreenenter"",""5"",""33998""
","
",2997,NA,49,NA,NA,3000,1,NA,NA,images/tutyellowplanet.jpg,null,images/tutalien3,null,images/tutalien3,images/t.png,NA,practice,null,NA,NA,NA,NA,sub3
d3-animate-choice,26,219289,0.0-26.0,FALSE,TRUE,TRUE,FALSE,"""event"",""trial"",""time""
""fullscreenenter"",""5"",""33998""
","
","
","""event"",""trial"",""time""
""fullscreenenter"",""5"",""33998""
","
",4730,NA,49,NA,NA,3000,1,NA,NA,images/tutyellowplanet.jpg,null,images/tutalien3,null,images/tutalien3,images/t.png,NA,practice,null,NA,NA,NA,NA,sub3
d3-animate-choice,27,222240,0.0-27.0,FALSE,TRUE,TRUE,FALSE,"""event"",""trial"",""time""
""fullscreenenter"",""5"",""33998""
","
","
","""event"",""trial"",""time""
""fullscreenenter"",""5"",""33998""
","
",948,NA,49,NA,NA,3000,1,NA,NA,images/tutyellowplanet.jpg,null,images/tutalien3,null,images/tutalien3,images/nothing.png,NA,practice,null,NA,NA,NA,NA,sub3
d3-animate-choice,28,224804,0.0-28.0,FALSE,TRUE,TRUE,FALSE,"""event"",""trial"",""time""
""fullscreenenter"",""5"",""33998""
","
","
","""event"",""trial"",""time""
""fullscreenenter"",""5"",""33998""
","
",562,NA,49,NA,NA,3000,1,NA,NA,images/tutyellowplanet.jpg,null,images/tutalien3,null,images/tutalien3,images/t.png,NA,practice,null,NA,NA,NA,NA,sub3
d3-animate-choice,29,227638,0.0-29.0,FALSE,TRUE,TRUE,FALSE,"""event"",""trial"",""time""
""fullscreenenter"",""5"",""33998""
","
","
","""event"",""trial"",""time""
""fullscreenenter"",""5"",""33998""
","
",832.0000000000291,NA,49,NA,NA,3000,1,NA,NA,images/tutyellowplanet.jpg,null,images/tutalien3,null,images/tutalien3,images/t.png,NA,practice,null,NA,NA,NA,NA,sub3
d3-instructions,30,235288,0.0-30.0,FALSE,TRUE,TRUE,FALSE,"""event"",""trial"",""time""
""fullscreenenter"",""5"",""33998""
","
","
","""event"",""trial"",""time""
""fullscreenenter"",""5"",""33998""
","
",NA,NA,NA,NA,NA,NA,NA,NA,NA,NA,NA,NA,NA,NA,NA,NA,NA,NA,NA,NA,NA,NA,sub3
d3-instructions,31,247461,0.0-31.0,FALSE,TRUE,TRUE,FALSE,"""event"",""trial"",""time""
""fullscreenenter"",""5"",""33998""
","
","
","""event"",""trial"",""time""
""fullscreenenter"",""5"",""33998""
","
",NA,NA,NA,NA,NA,NA,NA,NA,NA,NA,NA,NA,NA,NA,NA,NA,NA,NA,NA,NA,NA,NA,sub3
d3-instructions,32,261288,0.0-32.0,FALSE,TRUE,TRUE,FALSE,"""event"",""trial"",""time""
""fullscreenenter"",""5"",""33998""
","
","
","""event"",""trial"",""time""
""fullscreenenter"",""5"",""33998""
","
",NA,NA,NA,NA,NA,NA,NA,NA,NA,NA,NA,NA,NA,NA,NA,NA,NA,NA,NA,NA,NA,NA,sub3
d3-instructions,33,274415,0.0-33.0,FALSE,TRUE,TRUE,FALSE,"""event"",""trial"",""time""
""fullscreenenter"",""5"",""33998""
","
","
","""event"",""trial"",""time""
""fullscreenenter"",""5"",""33998""
","
",NA,NA,NA,NA,NA,NA,NA,NA,NA,NA,NA,NA,NA,NA,NA,NA,NA,NA,NA,NA,NA,NA,sub3
d3-animate-choice,34,279831,0.0-34.0,FALSE,TRUE,TRUE,FALSE,"""event"",""trial"",""time""
""fullscreenenter"",""5"",""33998""
","
","
","""event"",""trial"",""time""
""fullscreenenter"",""5"",""33998""
","
",3414,NA,49,NA,NA,3000,1,NA,NA,images/tutgreenplanet.jpg,images/tutalien1,images/tutalien2,null,images/tutalien2,images/t.png,NA,practice,null,NA,NA,NA,NA,sub3
d3-animate-choice,35,283314,0.0-35.0,FALSE,TRUE,TRUE,FALSE,"""event"",""trial"",""time""
""fullscreenenter"",""5"",""33998""
","
","
","""event"",""trial"",""time""
""fullscreenenter"",""5"",""33998""
","
",1481,NA,48,NA,NA,3000,1,NA,NA,images/tutgreenplanet.jpg,images/tutalien1,images/tutalien2,null,images/tutalien1,images/nothing.png,NA,practice,null,NA,NA,NA,NA,sub3
d3-animate-choice,36,285749,0.0-36.0,FALSE,TRUE,TRUE,FALSE,"""event"",""trial"",""time""
""fullscreenenter"",""5"",""33998""
","
","
","""event"",""trial"",""time""
""fullscreenenter"",""5"",""33998""
","
",433,NA,48,NA,NA,3000,1,NA,NA,images/tutgreenplanet.jpg,images/tutalien1,images/tutalien2,null,images/tutalien1,images/nothing.png,NA,practice,null,NA,NA,NA,NA,sub3
d3-animate-choice,37,288136,0.0-37.0,FALSE,TRUE,TRUE,FALSE,"""event"",""trial"",""time""
""fullscreenenter"",""5"",""33998""
","
","
","""event"",""trial"",""time""
""fullscreenenter"",""5"",""33998""
","
",385,NA,49,NA,NA,3000,1,NA,NA,images/tutgreenplanet.jpg,images/tutalien1,images/tutalien2,null,images/tutalien2,images/t.png,NA,practice,null,NA,NA,NA,NA,sub3
d3-animate-choice,38,290674,0.0-38.0,FALSE,TRUE,TRUE,FALSE,"""event"",""trial"",""time""
""fullscreenenter"",""5"",""33998""
","
","
","""event"",""trial"",""time""
""fullscreenenter"",""5"",""33998""
","
",535,NA,49,NA,NA,3000,1,NA,NA,images/tutgreenplanet.jpg,images/tutalien1,images/tutalien2,null,images/tutalien2,images/t.png,NA,practice,null,NA,NA,NA,NA,sub3
d3-animate-choice,39,293772,0.0-39.0,FALSE,TRUE,TRUE,FALSE,"""event"",""trial"",""time""
""fullscreenenter"",""5"",""33998""
","
","
","""event"",""trial"",""time""
""fullscreenenter"",""5"",""33998""
","
",1096,NA,49,NA,NA,3000,1,NA,NA,images/tutgreenplanet.jpg,images/tutalien1,images/tutalien2,null,images/tutalien2,images/t.png,NA,practice,null,NA,NA,NA,NA,sub3
d3-animate-choice,40,296517,0.0-40.0,FALSE,TRUE,TRUE,FALSE,"""event"",""trial"",""time""
""fullscreenenter"",""5"",""33998""
","
","
","""event"",""trial"",""time""
""fullscreenenter"",""5"",""33998""
","
",742,NA,48,NA,NA,3000,1,NA,NA,images/tutgreenplanet.jpg,images/tutalien1,images/tutalien2,null,images/tutalien1,images/nothing.png,NA,practice,null,NA,NA,NA,NA,sub3
d3-animate-choice,41,298840,0.0-41.0,FALSE,TRUE,TRUE,FALSE,"""event"",""trial"",""time""
""fullscreenenter"",""5"",""33998""
","
","
","""event"",""trial"",""time""
""fullscreenenter"",""5"",""33998""
","
",321,NA,49,NA,NA,3000,1,NA,NA,images/tutgreenplanet.jpg,images/tutalien1,images/tutalien2,null,images/tutalien2,images/t.png,NA,practice,null,NA,NA,NA,NA,sub3
d3-animate-choice,42,301728,0.0-42.0,FALSE,TRUE,TRUE,FALSE,"""event"",""trial"",""time""
""fullscreenenter"",""5"",""33998""
","
","
","""event"",""trial"",""time""
""fullscreenenter"",""5"",""33998""
","
",886,NA,49,NA,NA,3000,1,NA,NA,images/tutgreenplanet.jpg,images/tutalien1,images/tutalien2,null,images/tutalien2,images/t.png,NA,practice,null,NA,NA,NA,NA,sub3
d3-animate-choice,43,304701,0.0-43.0,FALSE,TRUE,TRUE,FALSE,"""event"",""trial"",""time""
""fullscreenenter"",""5"",""33998""
","
","
","""event"",""trial"",""time""
""fullscreenenter"",""5"",""33998""
","
",970,NA,49,NA,NA,3000,1,NA,NA,images/tutgreenplanet.jpg,images/tutalien1,images/tutalien2,null,images/tutalien2,images/t.png,NA,practice,null,NA,NA,NA,NA,sub3
d3-instructions,44,321398,0.0-44.0,FALSE,TRUE,TRUE,FALSE,"""event"",""trial"",""time""
""fullscreenenter"",""5"",""33998""
","
","
","""event"",""trial"",""time""
""fullscreenenter"",""5"",""33998""
","
",NA,NA,NA,NA,NA,NA,NA,NA,NA,NA,NA,NA,NA,NA,NA,NA,NA,NA,NA,NA,NA,NA,sub3
d3-instructions,45,327407,0.0-45.0,FALSE,TRUE,TRUE,FALSE,"""event"",""trial"",""time""
""fullscreenenter"",""5"",""33998""
","
","
","""event"",""trial"",""time""
""fullscreenenter"",""5"",""33998""
","
",NA,NA,NA,NA,NA,NA,NA,NA,NA,NA,NA,NA,NA,NA,NA,NA,NA,NA,NA,NA,NA,NA,sub3
d3-instructions,46,331674,0.0-46.0,FALSE,TRUE,TRUE,FALSE,"""event"",""trial"",""time""
""fullscreenenter"",""5"",""33998""
","
","
","""event"",""trial"",""time""
""fullscreenenter"",""5"",""33998""
","
",NA,NA,NA,NA,NA,NA,NA,NA,NA,NA,NA,NA,NA,NA,NA,NA,NA,NA,NA,NA,NA,NA,sub3
d3-instructions,47,348108,0.0-47.0,FALSE,TRUE,TRUE,FALSE,"""event"",""trial"",""time""
""fullscreenenter"",""5"",""33998""
","
","
","""event"",""trial"",""time""
""fullscreenenter"",""5"",""33998""
","
",NA,NA,NA,NA,NA,NA,NA,NA,NA,NA,NA,NA,NA,NA,NA,NA,NA,NA,NA,NA,NA,NA,sub3
d3-instructions,48,354630,0.0-48.0,FALSE,TRUE,TRUE,FALSE,"""event"",""trial"",""time""
""fullscreenenter"",""5"",""33998""
","
","
","""event"",""trial"",""time""
""fullscreenenter"",""5"",""33998""
","
",NA,NA,NA,NA,NA,NA,NA,NA,NA,NA,NA,NA,NA,NA,NA,NA,NA,NA,NA,NA,NA,NA,sub3
d3-instructions,49,365509,0.0-49.0,FALSE,TRUE,TRUE,FALSE,"""event"",""trial"",""time""
""fullscreenenter"",""5"",""33998""
","
","
","""event"",""trial"",""time""
""fullscreenenter"",""5"",""33998""
","
",NA,NA,NA,NA,NA,NA,NA,NA,NA,NA,NA,NA,NA,NA,NA,NA,NA,NA,NA,NA,NA,NA,sub3
d3-instructions,50,374358,0.0-50.0,FALSE,TRUE,TRUE,FALSE,"""event"",""trial"",""time""
""fullscreenenter"",""5"",""33998""
","
","
","""event"",""trial"",""time""
""fullscreenenter"",""5"",""33998""
","
",NA,NA,NA,NA,NA,NA,NA,NA,NA,NA,NA,NA,NA,NA,NA,NA,NA,NA,NA,NA,NA,NA,sub3
d3-instructions,51,376590,0.0-51.0,FALSE,TRUE,TRUE,FALSE,"""event"",""trial"",""time""
""fullscreenenter"",""5"",""33998""
","
","
","""event"",""trial"",""time""
""fullscreenenter"",""5"",""33998""
","
",NA,NA,NA,NA,NA,NA,NA,NA,NA,NA,NA,NA,NA,NA,NA,NA,NA,NA,NA,NA,NA,NA,sub3
d3-instructions,52,378598,0.0-52.0,FALSE,TRUE,TRUE,FALSE,"""event"",""trial"",""time""
""fullscreenenter"",""5"",""33998""
","
","
","""event"",""trial"",""time""
""fullscreenenter"",""5"",""33998""
","
",NA,NA,NA,NA,NA,NA,NA,NA,NA,NA,NA,NA,NA,NA,NA,NA,NA,NA,NA,NA,NA,NA,sub3
d3-instructions,53,391639,0.0-53.0,FALSE,TRUE,TRUE,FALSE,"""event"",""trial"",""time""
""fullscreenenter"",""5"",""33998""
","
","
","""event"",""trial"",""time""
""fullscreenenter"",""5"",""33998""
","
",NA,NA,NA,NA,NA,NA,NA,NA,NA,NA,NA,NA,NA,NA,NA,NA,NA,NA,NA,NA,NA,NA,sub3
d3-instructions,54,406094,0.0-54.0,FALSE,TRUE,TRUE,FALSE,"""event"",""trial"",""time""
""fullscreenenter"",""5"",""33998""
","
","
","""event"",""trial"",""time""
""fullscreenenter"",""5"",""33998""
","
",NA,NA,NA,NA,NA,NA,NA,NA,NA,NA,NA,NA,NA,NA,NA,NA,NA,NA,NA,NA,NA,NA,sub3
d3-instructions,55,412431,0.0-55.0,FALSE,TRUE,TRUE,FALSE,"""event"",""trial"",""time""
""fullscreenenter"",""5"",""33998""
","
","
","""event"",""trial"",""time""
""fullscreenenter"",""5"",""33998""
","
",NA,NA,NA,NA,NA,NA,NA,NA,NA,NA,NA,NA,NA,NA,NA,NA,NA,NA,NA,NA,NA,NA,sub3
d3-instructions,56,418326,0.0-56.0,FALSE,TRUE,TRUE,FALSE,"""event"",""trial"",""time""
""fullscreenenter"",""5"",""33998""
","
","
","""event"",""trial"",""time""
""fullscreenenter"",""5"",""33998""
","
",NA,NA,NA,NA,NA,NA,NA,NA,NA,NA,NA,NA,NA,NA,NA,NA,NA,NA,NA,NA,NA,NA,sub3
d3-instructions,57,438072,0.0-57.0,FALSE,TRUE,TRUE,FALSE,"""event"",""trial"",""time""
""fullscreenenter"",""5"",""33998""
","
","
","""event"",""trial"",""time""
""fullscreenenter"",""5"",""33998""
","
",NA,NA,NA,NA,NA,NA,NA,NA,NA,NA,NA,NA,NA,NA,NA,NA,NA,NA,NA,NA,NA,NA,sub3
d3-instructions,58,450670,0.0-58.0,FALSE,TRUE,TRUE,FALSE,"""event"",""trial"",""time""
""fullscreenenter"",""5"",""33998""
","
","
","""event"",""trial"",""time""
""fullscreenenter"",""5"",""33998""
","
",NA,NA,NA,NA,NA,NA,NA,NA,NA,NA,NA,NA,NA,NA,NA,NA,NA,NA,NA,NA,NA,NA,sub3
d3-instructions,59,458596,0.0-59.0,FALSE,TRUE,TRUE,FALSE,"""event"",""trial"",""time""
""fullscreenenter"",""5"",""33998""
","
","
","""event"",""trial"",""time""
""fullscreenenter"",""5"",""33998""
","
",NA,NA,NA,NA,NA,NA,NA,NA,NA,NA,NA,NA,NA,NA,NA,NA,NA,NA,NA,NA,NA,NA,sub3
d3-instructions,60,461921,0.0-60.0,FALSE,TRUE,TRUE,FALSE,"""event"",""trial"",""time""
""fullscreenenter"",""5"",""33998""
","
","
","""event"",""trial"",""time""
""fullscreenenter"",""5"",""33998""
","
",NA,NA,NA,NA,NA,NA,NA,NA,NA,NA,NA,NA,NA,NA,NA,NA,NA,NA,NA,NA,NA,NA,sub3
d3-animate-choice,61,465072,0.0-61.0-0.0,FALSE,TRUE,TRUE,FALSE,"""event"",""trial"",""time""
""fullscreenenter"",""5"",""33998""
","
","
","""event"",""trial"",""time""
""fullscreenenter"",""5"",""33998""
","
",1148,NA,48,NA,NA,3000,1,NA,NA,images/earth.jpg,images/tutrocket1,images/tutrocket2,null,images/tutrocket1,NA,1,practice,null,2,NA,NA,NA,sub3
d3-animate-choice,62,468640,0.0-61.0-1.0,FALSE,TRUE,TRUE,FALSE,"""event"",""trial"",""time""
""fullscreenenter"",""5"",""33998""
","
","
","""event"",""trial"",""time""
""fullscreenenter"",""5"",""33998""
","
",1565,NA,49,NA,NA,3000,1,NA,NA,images/tutgreenplanet.jpg,images/tutalien2,images/tutalien1,images/tutrocket1,images/tutalien1,images/t.png,2,practice,true,1,common,1,2020-06-11T22:09:29Z,sub3
two-step-fixation,63,469643,0.0-61.0-2.0,FALSE,TRUE,TRUE,FALSE,"""event"",""trial"",""time""
""fullscreenenter"",""5"",""33998""
","
","
","""event"",""trial"",""time""
""fullscreenenter"",""5"",""33998""
","
",NA,images/earth.jpg,NA,NA,NA,NA,NA,NA,NA,NA,NA,NA,NA,NA,NA,fixation,NA,NA,NA,NA,NA,NA,sub3
d3-animate-choice,64,472619,0.0-61.0-0.1,FALSE,TRUE,TRUE,FALSE,"""event"",""trial"",""time""
""fullscreenenter"",""5"",""33998""
","
","
","""event"",""trial"",""time""
""fullscreenenter"",""5"",""33998""
","
",974,NA,49,NA,NA,3000,1,NA,NA,images/earth.jpg,images/tutrocket1,images/tutrocket2,null,images/tutrocket2,NA,1,practice,null,1,NA,NA,NA,sub3
d3-animate-choice,65,476623,0.0-61.0-1.1,FALSE,TRUE,TRUE,FALSE,"""event"",""trial"",""time""
""fullscreenenter"",""5"",""33998""
","
","
","""event"",""trial"",""time""
""fullscreenenter"",""5"",""33998""
","
",2009.0000000000582,NA,48,NA,NA,3000,1,NA,NA,images/tutgreenplanet.jpg,images/tutalien2,images/tutalien1,images/tutrocket2,images/tutalien2,images/nothing.png,2,practice,false,2,rare,0,2020-06-11T22:09:37Z,sub3
two-step-fixation,66,477625,0.0-61.0-2.1,FALSE,TRUE,TRUE,FALSE,"""event"",""trial"",""time""
""fullscreenenter"",""5"",""33998""
","
","
","""event"",""trial"",""time""
""fullscreenenter"",""5"",""33998""
","
",NA,images/earth.jpg,NA,NA,NA,NA,NA,NA,NA,NA,NA,NA,NA,NA,NA,fixation,NA,NA,NA,NA,NA,NA,sub3
d3-animate-choice,67,480268,0.0-61.0-0.2,FALSE,TRUE,TRUE,FALSE,"""event"",""trial"",""time""
""fullscreenenter"",""5"",""33998""
","
","
","""event"",""trial"",""time""
""fullscreenenter"",""5"",""33998""
","
",641,NA,48,NA,NA,3000,1,NA,NA,images/earth.jpg,images/tutrocket1,images/tutrocket2,null,images/tutrocket1,NA,1,practice,null,2,NA,NA,NA,sub3
d3-animate-choice,68,483592,0.0-61.0-1.2,FALSE,TRUE,TRUE,FALSE,"""event"",""trial"",""time""
""fullscreenenter"",""5"",""33998""
","
","
","""event"",""trial"",""time""
""fullscreenenter"",""5"",""33998""
","
",1321,NA,49,NA,NA,3000,1,NA,NA,images/tutgreenplanet.jpg,images/tutalien2,images/tutalien1,images/tutrocket1,images/tutalien1,images/nothing.png,2,practice,true,1,common,0,2020-06-11T22:09:44Z,sub3
two-step-fixation,69,484594,0.0-61.0-2.2,FALSE,TRUE,TRUE,FALSE,"""event"",""trial"",""time""
""fullscreenenter"",""5"",""33998""
","
","
","""event"",""trial"",""time""
""fullscreenenter"",""5"",""33998""
","
",NA,images/earth.jpg,NA,NA,NA,NA,NA,NA,NA,NA,NA,NA,NA,NA,NA,fixation,NA,NA,NA,NA,NA,NA,sub3
d3-animate-choice,70,487291,0.0-61.0-0.3,FALSE,TRUE,TRUE,FALSE,"""event"",""trial"",""time""
""fullscreenenter"",""5"",""33998""
","
","
","""event"",""trial"",""time""
""fullscreenenter"",""5"",""33998""
","
",695,NA,48,NA,NA,3000,1,NA,NA,images/earth.jpg,images/tutrocket1,images/tutrocket2,null,images/tutrocket1,NA,1,practice,null,2,NA,NA,NA,sub3
d3-animate-choice,71,490210,0.0-61.0-1.3,FALSE,TRUE,TRUE,FALSE,"""event"",""trial"",""time""
""fullscreenenter"",""5"",""33998""
","
","
","""event"",""trial"",""time""
""fullscreenenter"",""5"",""33998""
","
",917,NA,49,NA,NA,3000,1,NA,NA,images/tutgreenplanet.jpg,images/tutalien2,images/tutalien1,images/tutrocket1,images/tutalien1,images/nothing.png,2,practice,true,1,common,0,2020-06-11T22:09:51Z,sub3
two-step-fixation,72,491211,0.0-61.0-2.3,FALSE,TRUE,TRUE,FALSE,"""event"",""trial"",""time""
""fullscreenenter"",""5"",""33998""
","
","
","""event"",""trial"",""time""
""fullscreenenter"",""5"",""33998""
","
",NA,images/earth.jpg,NA,NA,NA,NA,NA,NA,NA,NA,NA,NA,NA,NA,NA,fixation,NA,NA,NA,NA,NA,NA,sub3
d3-animate-choice,73,494012,0.0-61.0-0.4,FALSE,TRUE,TRUE,FALSE,"""event"",""trial"",""time""
""fullscreenenter"",""5"",""33998""
","
","
","""event"",""trial"",""time""
""fullscreenenter"",""5"",""33998""
","
",798,NA,48,NA,NA,3000,1,NA,NA,images/earth.jpg,images/tutrocket1,images/tutrocket2,null,images/tutrocket1,NA,1,practice,null,2,NA,NA,NA,sub3
d3-animate-choice,74,497095,0.0-61.0-1.4,FALSE,TRUE,TRUE,FALSE,"""event"",""trial"",""time""
""fullscreenenter"",""5"",""33998""
","
","
","""event"",""trial"",""time""
""fullscreenenter"",""5"",""33998""
","
",1082,NA,48,NA,NA,3000,1,NA,NA,images/tutyellowplanet.jpg,images/tutalien4,images/tutalien3,images/tutrocket1,images/tutalien4,images/nothing.png,2,practice,false,2,rare,0,2020-06-11T22:09:58Z,sub3
two-step-fixation,75,498097,0.0-61.0-2.4,FALSE,TRUE,TRUE,FALSE,"""event"",""trial"",""time""
""fullscreenenter"",""5"",""33998""
","
","
","""event"",""trial"",""time""
""fullscreenenter"",""5"",""33998""
","
",NA,images/earth.jpg,NA,NA,NA,NA,NA,NA,NA,NA,NA,NA,NA,NA,NA,fixation,NA,NA,NA,NA,NA,NA,sub3
d3-animate-choice,76,501602,0.0-61.0-0.5,FALSE,TRUE,TRUE,FALSE,"""event"",""trial"",""time""
""fullscreenenter"",""5"",""33998""
","
","
","""event"",""trial"",""time""
""fullscreenenter"",""5"",""33998""
","
",1502.9999999999418,NA,48,NA,NA,3000,1,NA,NA,images/earth.jpg,images/tutrocket1,images/tutrocket2,null,images/tutrocket1,NA,1,practice,null,2,NA,NA,NA,sub3
d3-animate-choice,77,504913,0.0-61.0-1.5,FALSE,TRUE,TRUE,FALSE,"""event"",""trial"",""time""
""fullscreenenter"",""5"",""33998""
","
","
","""event"",""trial"",""time""
""fullscreenenter"",""5"",""33998""
","
",1308,NA,48,NA,NA,3000,1,NA,NA,images/tutgreenplanet.jpg,images/tutalien2,images/tutalien1,images/tutrocket1,images/tutalien2,images/t.png,2,practice,true,2,common,1,2020-06-11T22:10:06Z,sub3
two-step-fixation,78,505914,0.0-61.0-2.5,FALSE,TRUE,TRUE,FALSE,"""event"",""trial"",""time""
""fullscreenenter"",""5"",""33998""
","
","
","""event"",""trial"",""time""
""fullscreenenter"",""5"",""33998""
","
",NA,images/earth.jpg,NA,NA,NA,NA,NA,NA,NA,NA,NA,NA,NA,NA,NA,fixation,NA,NA,NA,NA,NA,NA,sub3
d3-animate-choice,79,508623,0.0-61.0-0.6,FALSE,TRUE,TRUE,FALSE,"""event"",""trial"",""time""
""fullscreenenter"",""5"",""33998""
","
","
","""event"",""trial"",""time""
""fullscreenenter"",""5"",""33998""
","
",706.9999999998836,NA,48,NA,NA,3000,1,NA,NA,images/earth.jpg,images/tutrocket1,images/tutrocket2,null,images/tutrocket1,NA,1,practice,null,2,NA,NA,NA,sub3
d3-animate-choice,80,512289,0.0-61.0-1.6,FALSE,TRUE,TRUE,FALSE,"""event"",""trial"",""time""
""fullscreenenter"",""5"",""33998""
","
","
","""event"",""trial"",""time""
""fullscreenenter"",""5"",""33998""
","
",1663,NA,48,NA,NA,3000,1,NA,NA,images/tutgreenplanet.jpg,images/tutalien2,images/tutalien1,images/tutrocket1,images/tutalien2,images/nothing.png,2,practice,true,2,common,0,2020-06-11T22:10:13Z,sub3
two-step-fixation,81,513291,0.0-61.0-2.6,FALSE,TRUE,TRUE,FALSE,"""event"",""trial"",""time""
""fullscreenenter"",""5"",""33998""
","
","
","""event"",""trial"",""time""
""fullscreenenter"",""5"",""33998""
","
",NA,images/earth.jpg,NA,NA,NA,NA,NA,NA,NA,NA,NA,NA,NA,NA,NA,fixation,NA,NA,NA,NA,NA,NA,sub3
d3-animate-choice,82,516402,0.0-61.0-0.7,FALSE,TRUE,TRUE,FALSE,"""event"",""trial"",""time""
""fullscreenenter"",""5"",""33998""
","
","
","""event"",""trial"",""time""
""fullscreenenter"",""5"",""33998""
","
",1109,NA,49,NA,NA,3000,1,NA,NA,images/earth.jpg,images/tutrocket1,images/tutrocket2,null,images/tutrocket2,NA,1,practice,null,1,NA,NA,NA,sub3
d3-animate-choice,83,519381,0.0-61.0-1.7,FALSE,TRUE,TRUE,FALSE,"""event"",""trial"",""time""
""fullscreenenter"",""5"",""33998""
","
","
","""event"",""trial"",""time""
""fullscreenenter"",""5"",""33998""
","
",976,NA,49,NA,NA,3000,1,NA,NA,images/tutgreenplanet.jpg,images/tutalien2,images/tutalien1,images/tutrocket2,images/tutalien1,images/nothing.png,2,practice,false,1,rare,0,2020-06-11T22:10:20Z,sub3
two-step-fixation,84,520383,0.0-61.0-2.7,FALSE,TRUE,TRUE,FALSE,"""event"",""trial"",""time""
""fullscreenenter"",""5"",""33998""
","
","
","""event"",""trial"",""time""
""fullscreenenter"",""5"",""33998""
","
",NA,images/earth.jpg,NA,NA,NA,NA,NA,NA,NA,NA,NA,NA,NA,NA,NA,fixation,NA,NA,NA,NA,NA,NA,sub3
d3-animate-choice,85,523249,0.0-61.0-0.8,FALSE,TRUE,TRUE,FALSE,"""event"",""trial"",""time""
""fullscreenenter"",""5"",""33998""
","
","
","""event"",""trial"",""time""
""fullscreenenter"",""5"",""33998""
","
",864,NA,49,NA,NA,3000,1,NA,NA,images/earth.jpg,images/tutrocket1,images/tutrocket2,null,images/tutrocket2,NA,1,practice,null,1,NA,NA,NA,sub3
d3-animate-choice,86,526180,0.0-61.0-1.8,FALSE,TRUE,TRUE,FALSE,"""event"",""trial"",""time""
""fullscreenenter"",""5"",""33998""
","
","
","""event"",""trial"",""time""
""fullscreenenter"",""5"",""33998""
","
",929,NA,49,NA,NA,3000,1,NA,NA,images/tutyellowplanet.jpg,images/tutalien4,images/tutalien3,images/tutrocket2,images/tutalien3,images/nothing.png,2,practice,true,1,common,0,2020-06-11T22:10:27Z,sub3
two-step-fixation,87,527182,0.0-61.0-2.8,FALSE,TRUE,TRUE,FALSE,"""event"",""trial"",""time""
""fullscreenenter"",""5"",""33998""
","
","
","""event"",""trial"",""time""
""fullscreenenter"",""5"",""33998""
","
",NA,images/earth.jpg,NA,NA,NA,NA,NA,NA,NA,NA,NA,NA,NA,NA,NA,fixation,NA,NA,NA,NA,NA,NA,sub3
d3-animate-choice,88,529757,0.0-61.0-0.9,FALSE,TRUE,TRUE,FALSE,"""event"",""trial"",""time""
""fullscreenenter"",""5"",""33998""
","
","
","""event"",""trial"",""time""
""fullscreenenter"",""5"",""33998""
","
",573.0000000001164,NA,48,NA,NA,3000,1,NA,NA,images/earth.jpg,images/tutrocket1,images/tutrocket2,null,images/tutrocket1,NA,1,practice,null,2,NA,NA,NA,sub3
d3-animate-choice,89,532546,0.0-61.0-1.9,FALSE,TRUE,TRUE,FALSE,"""event"",""trial"",""time""
""fullscreenenter"",""5"",""33998""
","
","
","""event"",""trial"",""time""
""fullscreenenter"",""5"",""33998""
","
",786,NA,48,NA,NA,3000,1,NA,NA,images/tutyellowplanet.jpg,images/tutalien4,images/tutalien3,images/tutrocket1,images/tutalien4,images/t.png,2,practice,false,2,rare,1,2020-06-11T22:10:33Z,sub3
two-step-fixation,90,533548,0.0-61.0-2.9,FALSE,TRUE,TRUE,FALSE,"""event"",""trial"",""time""
""fullscreenenter"",""5"",""33998""
","
","
","""event"",""trial"",""time""
""fullscreenenter"",""5"",""33998""
","
",NA,images/earth.jpg,NA,NA,NA,NA,NA,NA,NA,NA,NA,NA,NA,NA,NA,fixation,NA,NA,NA,NA,NA,NA,sub3
d3-animate-choice,91,536501,0.0-61.0-0.10,FALSE,TRUE,TRUE,FALSE,"""event"",""trial"",""time""
""fullscreenenter"",""5"",""33998""
","
","
","""event"",""trial"",""time""
""fullscreenenter"",""5"",""33998""
","
",951,NA,49,NA,NA,3000,1,NA,NA,images/earth.jpg,images/tutrocket1,images/tutrocket2,null,images/tutrocket2,NA,1,practice,null,1,NA,NA,NA,sub3
d3-animate-choice,92,539485,0.0-61.0-1.10,FALSE,TRUE,TRUE,FALSE,"""event"",""trial"",""time""
""fullscreenenter"",""5"",""33998""
","
","
","""event"",""trial"",""time""
""fullscreenenter"",""5"",""33998""
","
",981.0000000001164,NA,48,NA,NA,3000,1,NA,NA,images/tutyellowplanet.jpg,images/tutalien4,images/tutalien3,images/tutrocket2,images/tutalien4,images/nothing.png,2,practice,true,2,common,0,2020-06-11T22:10:40Z,sub3
two-step-fixation,93,540486,0.0-61.0-2.10,FALSE,TRUE,TRUE,FALSE,"""event"",""trial"",""time""
""fullscreenenter"",""5"",""33998""
","
","
","""event"",""trial"",""time""
""fullscreenenter"",""5"",""33998""
","
",NA,images/earth.jpg,NA,NA,NA,NA,NA,NA,NA,NA,NA,NA,NA,NA,NA,fixation,NA,NA,NA,NA,NA,NA,sub3
d3-animate-choice,94,542813,0.0-61.0-0.11,FALSE,TRUE,TRUE,FALSE,"""event"",""trial"",""time""
""fullscreenenter"",""5"",""33998""
","
","
","""event"",""trial"",""time""
""fullscreenenter"",""5"",""33998""
","
",325,NA,49,NA,NA,3000,1,NA,NA,images/earth.jpg,images/tutrocket1,images/tutrocket2,null,images/tutrocket2,NA,1,practice,null,1,NA,NA,NA,sub3
d3-animate-choice,95,545651,0.0-61.0-1.11,FALSE,TRUE,TRUE,FALSE,"""event"",""trial"",""time""
""fullscreenenter"",""5"",""33998""
","
","
","""event"",""trial"",""time""
""fullscreenenter"",""5"",""33998""
","
",836,NA,48,NA,NA,3000,1,NA,NA,images/tutyellowplanet.jpg,images/tutalien4,images/tutalien3,images/tutrocket2,images/tutalien4,images/t.png,2,practice,true,2,common,1,2020-06-11T22:10:46Z,sub3
two-step-fixation,96,546653,0.0-61.0-2.11,FALSE,TRUE,TRUE,FALSE,"""event"",""trial"",""time""
""fullscreenenter"",""5"",""33998""
","
","
","""event"",""trial"",""time""
""fullscreenenter"",""5"",""33998""
","
",NA,images/earth.jpg,NA,NA,NA,NA,NA,NA,NA,NA,NA,NA,NA,NA,NA,fixation,NA,NA,NA,NA,NA,NA,sub3
d3-animate-choice,97,549243,0.0-61.0-0.12,FALSE,TRUE,TRUE,FALSE,"""event"",""trial"",""time""
""fullscreenenter"",""5"",""33998""
","
","
","""event"",""trial"",""time""
""fullscreenenter"",""5"",""33998""
","
",589,NA,48,NA,NA,3000,1,NA,NA,images/earth.jpg,images/tutrocket1,images/tutrocket2,null,images/tutrocket1,NA,1,practice,null,2,NA,NA,NA,sub3
d3-animate-choice,98,552980,0.0-61.0-1.12,FALSE,TRUE,TRUE,FALSE,"""event"",""trial"",""time""
""fullscreenenter"",""5"",""33998""
","
","
","""event"",""trial"",""time""
""fullscreenenter"",""5"",""33998""
","
",1736,NA,48,NA,NA,3000,1,NA,NA,images/tutgreenplanet.jpg,images/tutalien2,images/tutalien1,images/tutrocket1,images/tutalien2,images/t.png,2,practice,true,2,common,1,2020-06-11T22:10:54Z,sub3
two-step-fixation,99,553983,0.0-61.0-2.12,FALSE,TRUE,TRUE,FALSE,"""event"",""trial"",""time""
""fullscreenenter"",""5"",""33998""
","
","
","""event"",""trial"",""time""
""fullscreenenter"",""5"",""33998""
","
",NA,images/earth.jpg,NA,NA,NA,NA,NA,NA,NA,NA,NA,NA,NA,NA,NA,fixation,NA,NA,NA,NA,NA,NA,sub3
d3-animate-choice,100,556750,0.0-61.0-0.13,FALSE,TRUE,TRUE,FALSE,"""event"",""trial"",""time""
""fullscreenenter"",""5"",""33998""
","
","
","""event"",""trial"",""time""
""fullscreenenter"",""5"",""33998""
","
",764.9999999998836,NA,48,NA,NA,3000,1,NA,NA,images/earth.jpg,images/tutrocket1,images/tutrocket2,null,images/tutrocket1,NA,1,practice,null,2,NA,NA,NA,sub3
d3-animate-choice,101,559375,0.0-61.0-1.13,FALSE,TRUE,TRUE,FALSE,"""event"",""trial"",""time""
""fullscreenenter"",""5"",""33998""
","
","
","""event"",""trial"",""time""
""fullscreenenter"",""5"",""33998""
","
",621,NA,48,NA,NA,3000,1,NA,NA,images/tutgreenplanet.jpg,images/tutalien2,images/tutalien1,images/tutrocket1,images/tutalien2,images/nothing.png,2,practice,true,2,common,0,2020-06-11T22:11:00Z,sub3
two-step-fixation,102,560377,0.0-61.0-2.13,FALSE,TRUE,TRUE,FALSE,"""event"",""trial"",""time""
""fullscreenenter"",""5"",""33998""
","
","
","""event"",""trial"",""time""
""fullscreenenter"",""5"",""33998""
","
",NA,images/earth.jpg,NA,NA,NA,NA,NA,NA,NA,NA,NA,NA,NA,NA,NA,fixation,NA,NA,NA,NA,NA,NA,sub3
d3-animate-choice,103,563061,0.0-61.0-0.14,FALSE,TRUE,TRUE,FALSE,"""event"",""trial"",""time""
""fullscreenenter"",""5"",""33998""
","
","
","""event"",""trial"",""time""
""fullscreenenter"",""5"",""33998""
","
",681,NA,48,NA,NA,3000,1,NA,NA,images/earth.jpg,images/tutrocket1,images/tutrocket2,null,images/tutrocket1,NA,1,practice,null,2,NA,NA,NA,sub3
d3-animate-choice,104,565556,0.0-61.0-1.14,FALSE,TRUE,TRUE,FALSE,"""event"",""trial"",""time""
""fullscreenenter"",""5"",""33998""
","
","
","""event"",""trial"",""time""
""fullscreenenter"",""5"",""33998""
","
",493,NA,49,NA,NA,3000,1,NA,NA,images/tutgreenplanet.jpg,images/tutalien2,images/tutalien1,images/tutrocket1,images/tutalien1,images/nothing.png,2,practice,true,1,common,0,2020-06-11T22:11:06Z,sub3
two-step-fixation,105,566557,0.0-61.0-2.14,FALSE,TRUE,TRUE,FALSE,"""event"",""trial"",""time""
""fullscreenenter"",""5"",""33998""
","
","
","""event"",""trial"",""time""
""fullscreenenter"",""5"",""33998""
","
",NA,images/earth.jpg,NA,NA,NA,NA,NA,NA,NA,NA,NA,NA,NA,NA,NA,fixation,NA,NA,NA,NA,NA,NA,sub3
d3-animate-choice,106,568561,0.0-61.0-0.15,FALSE,TRUE,TRUE,FALSE,"""event"",""trial"",""time""
""fullscreenenter"",""5"",""33998""
","
","
","""event"",""trial"",""time""
""fullscreenenter"",""5"",""33998""
","
",1,NA,48,NA,NA,3000,1,NA,NA,images/earth.jpg,images/tutrocket1,images/tutrocket2,null,images/tutrocket1,NA,1,practice,null,2,NA,NA,NA,sub3
d3-animate-choice,107,570855,0.0-61.0-1.15,FALSE,TRUE,TRUE,FALSE,"""event"",""trial"",""time""
""fullscreenenter"",""5"",""33998""
","
","
","""event"",""trial"",""time""
""fullscreenenter"",""5"",""33998""
","
",291,NA,48,NA,NA,3000,1,NA,NA,images/tutyellowplanet.jpg,images/tutalien4,images/tutalien3,images/tutrocket1,images/tutalien4,images/nothing.png,2,practice,false,2,rare,0,2020-06-11T22:11:12Z,sub3
two-step-fixation,108,571857,0.0-61.0-2.15,FALSE,TRUE,TRUE,FALSE,"""event"",""trial"",""time""
""fullscreenenter"",""5"",""33998""
","
","
","""event"",""trial"",""time""
""fullscreenenter"",""5"",""33998""
","
",NA,images/earth.jpg,NA,NA,NA,NA,NA,NA,NA,NA,NA,NA,NA,NA,NA,fixation,NA,NA,NA,NA,NA,NA,sub3
d3-animate-choice,109,574402,0.0-61.0-0.16,FALSE,TRUE,TRUE,FALSE,"""event"",""trial"",""time""
""fullscreenenter"",""5"",""33998""
","
","
","""event"",""trial"",""time""
""fullscreenenter"",""5"",""33998""
","
",541.9999999998836,NA,48,NA,NA,3000,1,NA,NA,images/earth.jpg,images/tutrocket1,images/tutrocket2,null,images/tutrocket1,NA,1,practice,null,2,NA,NA,NA,sub3
d3-animate-choice,110,577490,0.0-61.0-1.16,FALSE,TRUE,TRUE,FALSE,"""event"",""trial"",""time""
""fullscreenenter"",""5"",""33998""
","
","
","""event"",""trial"",""time""
""fullscreenenter"",""5"",""33998""
","
",1087,NA,49,NA,NA,3000,1,NA,NA,images/tutyellowplanet.jpg,images/tutalien4,images/tutalien3,images/tutrocket1,images/tutalien3,images/t.png,2,practice,false,1,rare,1,2020-06-11T22:11:18Z,sub3
two-step-fixation,111,578492,0.0-61.0-2.16,FALSE,TRUE,TRUE,FALSE,"""event"",""trial"",""time""
""fullscreenenter"",""5"",""33998""
","
","
","""event"",""trial"",""time""
""fullscreenenter"",""5"",""33998""
","
",NA,images/earth.jpg,NA,NA,NA,NA,NA,NA,NA,NA,NA,NA,NA,NA,NA,fixation,NA,NA,NA,NA,NA,NA,sub3
d3-animate-choice,112,581234,0.0-61.0-0.17,FALSE,TRUE,TRUE,FALSE,"""event"",""trial"",""time""
""fullscreenenter"",""5"",""33998""
","
","
","""event"",""trial"",""time""
""fullscreenenter"",""5"",""33998""
","
",741.0000000001164,NA,48,NA,NA,3000,1,NA,NA,images/earth.jpg,images/tutrocket1,images/tutrocket2,null,images/tutrocket1,NA,1,practice,null,2,NA,NA,NA,sub3
d3-animate-choice,113,583752,0.0-61.0-1.17,FALSE,TRUE,TRUE,FALSE,"""event"",""trial"",""time""
""fullscreenenter"",""5"",""33998""
","
","
","""event"",""trial"",""time""
""fullscreenenter"",""5"",""33998""
","
",515,NA,49,NA,NA,3000,1,NA,NA,images/tutyellowplanet.jpg,images/tutalien4,images/tutalien3,images/tutrocket1,images/tutalien3,images/nothing.png,2,practice,false,1,rare,0,2020-06-11T22:11:25Z,sub3
two-step-fixation,114,584754,0.0-61.0-2.17,FALSE,TRUE,TRUE,FALSE,"""event"",""trial"",""time""
""fullscreenenter"",""5"",""33998""
","
","
","""event"",""trial"",""time""
""fullscreenenter"",""5"",""33998""
","
",NA,images/earth.jpg,NA,NA,NA,NA,NA,NA,NA,NA,NA,NA,NA,NA,NA,fixation,NA,NA,NA,NA,NA,NA,sub3
d3-animate-choice,115,587410,0.0-61.0-0.18,FALSE,TRUE,TRUE,FALSE,"""event"",""trial"",""time""
""fullscreenenter"",""5"",""33998""
","
","
","""event"",""trial"",""time""
""fullscreenenter"",""5"",""33998""
","
",655,NA,49,NA,NA,3000,1,NA,NA,images/earth.jpg,images/tutrocket1,images/tutrocket2,null,images/tutrocket2,NA,1,practice,null,1,NA,NA,NA,sub3
d3-animate-choice,116,590301,0.0-61.0-1.18,FALSE,TRUE,TRUE,FALSE,"""event"",""trial"",""time""
""fullscreenenter"",""5"",""33998""
","
","
","""event"",""trial"",""time""
""fullscreenenter"",""5"",""33998""
","
",889,NA,48,NA,NA,3000,1,NA,NA,images/tutyellowplanet.jpg,images/tutalien4,images/tutalien3,images/tutrocket2,images/tutalien4,images/nothing.png,2,practice,true,2,common,0,2020-06-11T22:11:31Z,sub3
two-step-fixation,117,591303,0.0-61.0-2.18,FALSE,TRUE,TRUE,FALSE,"""event"",""trial"",""time""
""fullscreenenter"",""5"",""33998""
","
","
","""event"",""trial"",""time""
""fullscreenenter"",""5"",""33998""
","
",NA,images/earth.jpg,NA,NA,NA,NA,NA,NA,NA,NA,NA,NA,NA,NA,NA,fixation,NA,NA,NA,NA,NA,NA,sub3
d3-animate-choice,118,594461,0.0-61.0-0.19,FALSE,TRUE,TRUE,FALSE,"""event"",""trial"",""time""
""fullscreenenter"",""5"",""33998""
","
","
","""event"",""trial"",""time""
""fullscreenenter"",""5"",""33998""
","
",1157.0000000001164,NA,48,NA,NA,3000,1,NA,NA,images/earth.jpg,images/tutrocket1,images/tutrocket2,null,images/tutrocket1,NA,1,practice,null,2,NA,NA,NA,sub3
d3-animate-choice,119,597066,0.0-61.0-1.19,FALSE,TRUE,TRUE,FALSE,"""event"",""trial"",""time""
""fullscreenenter"",""5"",""33998""
","
","
","""event"",""trial"",""time""
""fullscreenenter"",""5"",""33998""
","
",604,NA,48,NA,NA,3000,1,NA,NA,images/tutgreenplanet.jpg,images/tutalien2,images/tutalien1,images/tutrocket1,images/tutalien2,images/t.png,2,practice,true,2,common,1,2020-06-11T22:11:38Z,sub3
two-step-fixation,120,598068,0.0-61.0-2.19,FALSE,TRUE,TRUE,FALSE,"""event"",""trial"",""time""
""fullscreenenter"",""5"",""33998""
","
","
","""event"",""trial"",""time""
""fullscreenenter"",""5"",""33998""
","
",NA,images/earth.jpg,NA,NA,NA,NA,NA,NA,NA,NA,NA,NA,NA,NA,NA,fixation,NA,NA,NA,NA,NA,NA,sub3
d3-instructions,121,605136,0.0-62.0,FALSE,TRUE,TRUE,FALSE,"""event"",""trial"",""time""
""fullscreenenter"",""5"",""33998""
","
","
","""event"",""trial"",""time""
""fullscreenenter"",""5"",""33998""
","
",NA,NA,NA,NA,NA,NA,NA,NA,NA,NA,NA,NA,NA,NA,NA,NA,NA,NA,NA,NA,NA,NA,sub3
audio-keyboard-response,122,615831,0.0-63.0,FALSE,TRUE,TRUE,FALSE,"""event"",""trial"",""time""
""fullscreenenter"",""5"",""33998""
","
","
","""event"",""trial"",""time""
""fullscreenenter"",""5"",""33998""
","
",10693,audio/instructions/treasure_feedback.wav,32,NA,NA,NA,NA,NA,NA,NA,NA,NA,NA,NA,NA,NA,NA,NA,NA,NA,NA,NA,sub3
d3-instructions,123,635219,0.0-64.0,FALSE,TRUE,TRUE,FALSE,"""event"",""trial"",""time""
""fullscreenenter"",""5"",""33998""
","
","
","""event"",""trial"",""time""
""fullscreenenter"",""5"",""33998""
","
",NA,NA,NA,NA,NA,NA,NA,NA,NA,NA,NA,NA,NA,NA,NA,NA,NA,NA,NA,NA,NA,NA,sub3
d3-instructions,124,649849,0.0-65.0,FALSE,TRUE,TRUE,FALSE,"""event"",""trial"",""time""
""fullscreenenter"",""5"",""33998""
","
","
","""event"",""trial"",""time""
""fullscreenenter"",""5"",""33998""
","
",NA,NA,NA,NA,NA,NA,NA,NA,NA,NA,NA,NA,NA,NA,NA,NA,NA,NA,NA,NA,NA,NA,sub3
d3-instructions,125,674174,0.0-66.0,FALSE,TRUE,TRUE,FALSE,"""event"",""trial"",""time""
""fullscreenenter"",""5"",""33998""
","
","
","""event"",""trial"",""time""
""fullscreenenter"",""5"",""33998""
","
",NA,NA,NA,NA,NA,NA,NA,NA,NA,NA,NA,NA,NA,NA,NA,NA,NA,NA,NA,NA,NA,NA,sub3
d3-instructions,126,690326,0.0-67.0,FALSE,TRUE,TRUE,FALSE,"""event"",""trial"",""time""
""fullscreenenter"",""5"",""33998""
","
","
","""event"",""trial"",""time""
""fullscreenenter"",""5"",""33998""
","
",NA,NA,NA,NA,NA,NA,NA,NA,NA,NA,NA,NA,NA,NA,NA,NA,NA,NA,NA,NA,NA,NA,sub3
d3-instructions,127,698859,0.0-68.0,FALSE,TRUE,TRUE,FALSE,"""event"",""trial"",""time""
""fullscreenenter"",""5"",""33998""
","
","
","""event"",""trial"",""time""
""fullscreenenter"",""5"",""33998""
","
",NA,NA,NA,NA,NA,NA,NA,NA,NA,NA,NA,NA,NA,NA,NA,NA,NA,NA,NA,NA,NA,NA,sub3
instructions-quiz,128,704154,0.0-69.0,FALSE,TRUE,TRUE,FALSE,"""event"",""trial"",""time""
""fullscreenenter"",""5"",""33998""
","
","
","""event"",""trial"",""time""
""fullscreenenter"",""5"",""33998""
","
",5292.999999999884,audio/quiz/Q1_Prompt.wav,NA,1,NA,NA,NA,NA,NA,NA,NA,NA,NA,NA,NA,NA,NA,NA,NA,NA,NA,NA,sub3
audio-keyboard-response,129,713320,0.0-70.0,FALSE,TRUE,TRUE,FALSE,"""event"",""trial"",""time""
""fullscreenenter"",""5"",""33998""
","
","
","""event"",""trial"",""time""
""fullscreenenter"",""5"",""33998""
","
",null,audio/quiz/Q1_Correct.wav,null,NA,NA,NA,NA,NA,NA,NA,NA,NA,NA,NA,NA,NA,NA,NA,NA,NA,NA,NA,sub3
instructions-quiz,130,720563,0.0-71.0,FALSE,TRUE,TRUE,FALSE,"""event"",""trial"",""time""
""fullscreenenter"",""5"",""33998""
","
","
","""event"",""trial"",""time""
""fullscreenenter"",""5"",""33998""
","
",7243,audio/quiz/Q2_Prompt.wav,NA,0,NA,NA,NA,NA,NA,NA,NA,NA,NA,NA,NA,NA,NA,NA,NA,NA,NA,NA,sub3
audio-keyboard-response,131,733431,0.0-72.0,FALSE,TRUE,TRUE,FALSE,"""event"",""trial"",""time""
""fullscreenenter"",""5"",""33998""
","
","
","""event"",""trial"",""time""
""fullscreenenter"",""5"",""33998""
","
",null,audio/quiz/Q2_Correct.wav,null,NA,NA,NA,NA,NA,NA,NA,NA,NA,NA,NA,NA,NA,NA,NA,NA,NA,NA,NA,sub3
instructions-quiz,132,737581,0.0-73.0,FALSE,TRUE,TRUE,FALSE,"""event"",""trial"",""time""
""fullscreenenter"",""5"",""33998""
","
","
","""event"",""trial"",""time""
""fullscreenenter"",""5"",""33998""
","
",4149,audio/quiz/Q3_Prompt.wav,NA,1,NA,NA,NA,NA,NA,NA,NA,NA,NA,NA,NA,NA,NA,NA,NA,NA,NA,NA,sub3
audio-keyboard-response,133,743380,0.0-74.0,FALSE,TRUE,TRUE,FALSE,"""event"",""trial"",""time""
""fullscreenenter"",""5"",""33998""
","
","
","""event"",""trial"",""time""
""fullscreenenter"",""5"",""33998""
","
",null,audio/quiz/Q3_Correct.wav,null,NA,NA,NA,NA,NA,NA,NA,NA,NA,NA,NA,NA,NA,NA,NA,NA,NA,NA,NA,sub3
d3-instructions,134,756902,0.0-75.0,FALSE,TRUE,TRUE,FALSE,"""event"",""trial"",""time""
""fullscreenenter"",""5"",""33998""
","
","
","""event"",""trial"",""time""
""fullscreenenter"",""5"",""33998""
","
",NA,NA,NA,NA,NA,NA,NA,NA,NA,NA,NA,NA,NA,NA,NA,NA,NA,NA,NA,NA,NA,NA,sub3
d3-animate-choice,135,760578,0.0-76.0-0.0,FALSE,TRUE,TRUE,FALSE,"""event"",""trial"",""time""
""fullscreenenter"",""5"",""33998""
","
","
","""event"",""trial"",""time""
""fullscreenenter"",""5"",""33998""
","
",1674,NA,48,NA,NA,3000,1,NA,NA,images/earth.jpg,images/rocket1,images/rocket2,null,images/rocket1,NA,1,real,null,2,NA,NA,NA,sub3
d3-animate-choice,136,764234,0.0-76.0-1.0,FALSE,TRUE,TRUE,FALSE,"""event"",""trial"",""time""
""fullscreenenter"",""5"",""33998""
","
","
","""event"",""trial"",""time""
""fullscreenenter"",""5"",""33998""
","
",1653,NA,49,NA,NA,3000,1,NA,NA,images/purpleplanet.jpg,images/alien4,images/alien3,images/rocket1,images/alien3,images/nothing.png,2,real,false,1,rare,0,2020-06-11T22:14:25Z,sub3
two-step-fixation,137,765235,0.0-76.0-2.0,FALSE,TRUE,TRUE,FALSE,"""event"",""trial"",""time""
""fullscreenenter"",""5"",""33998""
","
","
","""event"",""trial"",""time""
""fullscreenenter"",""5"",""33998""
","
",NA,images/earth.jpg,NA,NA,NA,NA,NA,NA,NA,NA,NA,NA,NA,NA,NA,fixation,NA,NA,NA,NA,NA,NA,sub3
d3-animate-choice,138,767951,0.0-76.0-0.1,FALSE,TRUE,TRUE,FALSE,"""event"",""trial"",""time""
""fullscreenenter"",""5"",""33998""
","
","
","""event"",""trial"",""time""
""fullscreenenter"",""5"",""33998""
","
",715,NA,48,NA,NA,3000,1,NA,NA,images/earth.jpg,images/rocket1,images/rocket2,null,images/rocket1,NA,1,real,null,2,NA,NA,NA,sub3
d3-animate-choice,139,771369,0.0-76.0-1.1,FALSE,TRUE,TRUE,FALSE,"""event"",""trial"",""time""
""fullscreenenter"",""5"",""33998""
","
","
","""event"",""trial"",""time""
""fullscreenenter"",""5"",""33998""
","
",1416,NA,49,NA,NA,3000,1,NA,NA,images/redplanet1.jpg,images/alien2,images/alien1,images/rocket1,images/alien1,images/nothing.png,2,real,true,1,common,0,2020-06-11T22:14:32Z,sub3
two-step-fixation,140,772370,0.0-76.0-2.1,FALSE,TRUE,TRUE,FALSE,"""event"",""trial"",""time""
""fullscreenenter"",""5"",""33998""
","
","
","""event"",""trial"",""time""
""fullscreenenter"",""5"",""33998""
","
",NA,images/earth.jpg,NA,NA,NA,NA,NA,NA,NA,NA,NA,NA,NA,NA,NA,fixation,NA,NA,NA,NA,NA,NA,sub3
d3-animate-choice,141,774746,0.0-76.0-0.2,FALSE,TRUE,TRUE,FALSE,"""event"",""trial"",""time""
""fullscreenenter"",""5"",""33998""
","
","
","""event"",""trial"",""time""
""fullscreenenter"",""5"",""33998""
","
",374,NA,48,NA,NA,3000,1,NA,NA,images/earth.jpg,images/rocket1,images/rocket2,null,images/rocket1,NA,1,real,null,2,NA,NA,NA,sub3
d3-animate-choice,142,778114,0.0-76.0-1.2,FALSE,TRUE,TRUE,FALSE,"""event"",""trial"",""time""
""fullscreenenter"",""5"",""33998""
","
","
","""event"",""trial"",""time""
""fullscreenenter"",""5"",""33998""
","
",1367,NA,48,NA,NA,3000,1,NA,NA,images/redplanet1.jpg,images/alien2,images/alien1,images/rocket1,images/alien2,images/nothing.png,2,real,true,2,common,0,2020-06-11T22:14:39Z,sub3
two-step-fixation,143,779116,0.0-76.0-2.2,FALSE,TRUE,TRUE,FALSE,"""event"",""trial"",""time""
""fullscreenenter"",""5"",""33998""
","
","
","""event"",""trial"",""time""
""fullscreenenter"",""5"",""33998""
","
",NA,images/earth.jpg,NA,NA,NA,NA,NA,NA,NA,NA,NA,NA,NA,NA,NA,fixation,NA,NA,NA,NA,NA,NA,sub3
d3-animate-choice,144,781389,0.0-76.0-0.3,FALSE,TRUE,TRUE,FALSE,"""event"",""trial"",""time""
""fullscreenenter"",""5"",""33998""
","
","
","""event"",""trial"",""time""
""fullscreenenter"",""5"",""33998""
","
",270,NA,48,NA,NA,3000,1,NA,NA,images/earth.jpg,images/rocket1,images/rocket2,null,images/rocket1,NA,1,real,null,2,NA,NA,NA,sub3
d3-animate-choice,145,783823,0.0-76.0-1.3,FALSE,TRUE,TRUE,FALSE,"""event"",""trial"",""time""
""fullscreenenter"",""5"",""33998""
","
","
","""event"",""trial"",""time""
""fullscreenenter"",""5"",""33998""
","
",432.9999999998836,NA,48,NA,NA,3000,1,NA,NA,images/redplanet1.jpg,images/alien2,images/alien1,images/rocket1,images/alien2,images/t.png,2,real,true,2,common,1,2020-06-11T22:14:45Z,sub3
two-step-fixation,146,784825,0.0-76.0-2.3,FALSE,TRUE,TRUE,FALSE,"""event"",""trial"",""time""
""fullscreenenter"",""5"",""33998""
","
","
","""event"",""trial"",""time""
""fullscreenenter"",""5"",""33998""
","
",NA,images/earth.jpg,NA,NA,NA,NA,NA,NA,NA,NA,NA,NA,NA,NA,NA,fixation,NA,NA,NA,NA,NA,NA,sub3
d3-animate-choice,147,787540,0.0-76.0-0.4,FALSE,TRUE,TRUE,FALSE,"""event"",""trial"",""time""
""fullscreenenter"",""5"",""33998""
","
","
","""event"",""trial"",""time""
""fullscreenenter"",""5"",""33998""
","
",713,NA,49,NA,NA,3000,1,NA,NA,images/earth.jpg,images/rocket1,images/rocket2,null,images/rocket2,NA,1,real,null,1,NA,NA,NA,sub3
d3-animate-choice,148,790775,0.0-76.0-1.4,FALSE,TRUE,TRUE,FALSE,"""event"",""trial"",""time""
""fullscreenenter"",""5"",""33998""
","
","
","""event"",""trial"",""time""
""fullscreenenter"",""5"",""33998""
","
",1234,NA,48,NA,NA,3000,1,NA,NA,images/purpleplanet.jpg,images/alien4,images/alien3,images/rocket2,images/alien4,images/t.png,2,real,true,2,common,1,2020-06-11T22:14:52Z,sub3
two-step-fixation,149,791777,0.0-76.0-2.4,FALSE,TRUE,TRUE,FALSE,"""event"",""trial"",""time""
""fullscreenenter"",""5"",""33998""
","
","
","""event"",""trial"",""time""
""fullscreenenter"",""5"",""33998""
","
",NA,images/earth.jpg,NA,NA,NA,NA,NA,NA,NA,NA,NA,NA,NA,NA,NA,fixation,NA,NA,NA,NA,NA,NA,sub3
d3-animate-choice,150,794620,0.0-76.0-0.5,FALSE,TRUE,TRUE,FALSE,"""event"",""trial"",""time""
""fullscreenenter"",""5"",""33998""
","
","
","""event"",""trial"",""time""
""fullscreenenter"",""5"",""33998""
","
",839.9999999998836,NA,49,NA,NA,3000,1,NA,NA,images/earth.jpg,images/rocket1,images/rocket2,null,images/rocket2,NA,1,real,null,1,NA,NA,NA,sub3
d3-animate-choice,151,797369,0.0-76.0-1.5,FALSE,TRUE,TRUE,FALSE,"""event"",""trial"",""time""
""fullscreenenter"",""5"",""33998""
","
","
","""event"",""trial"",""time""
""fullscreenenter"",""5"",""33998""
","
",745,NA,48,NA,NA,3000,1,NA,NA,images/purpleplanet.jpg,images/alien4,images/alien3,images/rocket2,images/alien4,images/t.png,2,real,true,2,common,1,2020-06-11T22:14:58Z,sub3
two-step-fixation,152,798370,0.0-76.0-2.5,FALSE,TRUE,TRUE,FALSE,"""event"",""trial"",""time""
""fullscreenenter"",""5"",""33998""
","
","
","""event"",""trial"",""time""
""fullscreenenter"",""5"",""33998""
","
",NA,images/earth.jpg,NA,NA,NA,NA,NA,NA,NA,NA,NA,NA,NA,NA,NA,fixation,NA,NA,NA,NA,NA,NA,sub3
d3-animate-choice,153,800970,0.0-76.0-0.6,FALSE,TRUE,TRUE,FALSE,"""event"",""trial"",""time""
""fullscreenenter"",""5"",""33998""
","
","
","""event"",""trial"",""time""
""fullscreenenter"",""5"",""33998""
","
",598,NA,48,NA,NA,3000,1,NA,NA,images/earth.jpg,images/rocket1,images/rocket2,null,images/rocket1,NA,1,real,null,2,NA,NA,NA,sub3
d3-animate-choice,154,803393,0.0-76.0-1.6,FALSE,TRUE,TRUE,FALSE,"""event"",""trial"",""time""
""fullscreenenter"",""5"",""33998""
","
","
","""event"",""trial"",""time""
""fullscreenenter"",""5"",""33998""
","
",421,NA,48,NA,NA,3000,1,NA,NA,images/redplanet1.jpg,images/alien2,images/alien1,images/rocket1,images/alien2,images/t.png,2,real,true,2,common,1,2020-06-11T22:15:04Z,sub3
two-step-fixation,155,804395,0.0-76.0-2.6,FALSE,TRUE,TRUE,FALSE,"""event"",""trial"",""time""
""fullscreenenter"",""5"",""33998""
","
","
","""event"",""trial"",""time""
""fullscreenenter"",""5"",""33998""
","
",NA,images/earth.jpg,NA,NA,NA,NA,NA,NA,NA,NA,NA,NA,NA,NA,NA,fixation,NA,NA,NA,NA,NA,NA,sub3
d3-animate-choice,156,807055,0.0-76.0-0.7,FALSE,TRUE,TRUE,FALSE,"""event"",""trial"",""time""
""fullscreenenter"",""5"",""33998""
","
","
","""event"",""trial"",""time""
""fullscreenenter"",""5"",""33998""
","
",657,NA,49,NA,NA,3000,1,NA,NA,images/earth.jpg,images/rocket1,images/rocket2,null,images/rocket2,NA,1,real,null,1,NA,NA,NA,sub3
d3-animate-choice,157,809368,0.0-76.0-1.7,FALSE,TRUE,TRUE,FALSE,"""event"",""trial"",""time""
""fullscreenenter"",""5"",""33998""
","
","
","""event"",""trial"",""time""
""fullscreenenter"",""5"",""33998""
","
",311,NA,48,NA,NA,3000,1,NA,NA,images/redplanet1.jpg,images/alien2,images/alien1,images/rocket2,images/alien2,images/t.png,2,real,false,2,rare,1,2020-06-11T22:15:10Z,sub3
two-step-fixation,158,810370,0.0-76.0-2.7,FALSE,TRUE,TRUE,FALSE,"""event"",""trial"",""time""
""fullscreenenter"",""5"",""33998""
","
","
","""event"",""trial"",""time""
""fullscreenenter"",""5"",""33998""
","
",NA,images/earth.jpg,NA,NA,NA,NA,NA,NA,NA,NA,NA,NA,NA,NA,NA,fixation,NA,NA,NA,NA,NA,NA,sub3
d3-animate-choice,159,812922,0.0-76.0-0.8,FALSE,TRUE,TRUE,FALSE,"""event"",""trial"",""time""
""fullscreenenter"",""5"",""33998""
","
","
","""event"",""trial"",""time""
""fullscreenenter"",""5"",""33998""
","
",551,NA,48,NA,NA,3000,1,NA,NA,images/earth.jpg,images/rocket1,images/rocket2,null,images/rocket1,NA,1,real,null,2,NA,NA,NA,sub3
d3-animate-choice,160,815637,0.0-76.0-1.8,FALSE,TRUE,TRUE,FALSE,"""event"",""trial"",""time""
""fullscreenenter"",""5"",""33998""
","
","
","""event"",""trial"",""time""
""fullscreenenter"",""5"",""33998""
","
",713,NA,48,NA,NA,3000,1,NA,NA,images/redplanet1.jpg,images/alien2,images/alien1,images/rocket1,images/alien2,images/t.png,2,real,true,2,common,1,2020-06-11T22:15:16Z,sub3
two-step-fixation,161,816639,0.0-76.0-2.8,FALSE,TRUE,TRUE,FALSE,"""event"",""trial"",""time""
""fullscreenenter"",""5"",""33998""
","
","
","""event"",""trial"",""time""
""fullscreenenter"",""5"",""33998""
","
",NA,images/earth.jpg,NA,NA,NA,NA,NA,NA,NA,NA,NA,NA,NA,NA,NA,fixation,NA,NA,NA,NA,NA,NA,sub3
d3-animate-choice,162,819100,0.0-76.0-0.9,FALSE,TRUE,TRUE,FALSE,"""event"",""trial"",""time""
""fullscreenenter"",""5"",""33998""
","
","
","""event"",""trial"",""time""
""fullscreenenter"",""5"",""33998""
","
",457.9999999998836,NA,48,NA,NA,3000,1,NA,NA,images/earth.jpg,images/rocket1,images/rocket2,null,images/rocket1,NA,1,real,null,2,NA,NA,NA,sub3
d3-animate-choice,163,821765,0.0-76.0-1.9,FALSE,TRUE,TRUE,FALSE,"""event"",""trial"",""time""
""fullscreenenter"",""5"",""33998""
","
","
","""event"",""trial"",""time""
""fullscreenenter"",""5"",""33998""
","
",662,NA,48,NA,NA,3000,1,NA,NA,images/redplanet1.jpg,images/alien2,images/alien1,images/rocket1,images/alien2,images/nothing.png,2,real,true,2,common,0,2020-06-11T22:15:23Z,sub3
two-step-fixation,164,822767,0.0-76.0-2.9,FALSE,TRUE,TRUE,FALSE,"""event"",""trial"",""time""
""fullscreenenter"",""5"",""33998""
","
","
","""event"",""trial"",""time""
""fullscreenenter"",""5"",""33998""
","
",NA,images/earth.jpg,NA,NA,NA,NA,NA,NA,NA,NA,NA,NA,NA,NA,NA,fixation,NA,NA,NA,NA,NA,NA,sub3
d3-animate-choice,165,825321,0.0-76.0-0.10,FALSE,TRUE,TRUE,FALSE,"""event"",""trial"",""time""
""fullscreenenter"",""5"",""33998""
","
","
","""event"",""trial"",""time""
""fullscreenenter"",""5"",""33998""
","
",551,NA,49,NA,NA,3000,1,NA,NA,images/earth.jpg,images/rocket1,images/rocket2,null,images/rocket2,NA,1,real,null,1,NA,NA,NA,sub3
d3-animate-choice,166,827685,0.0-76.0-1.10,FALSE,TRUE,TRUE,FALSE,"""event"",""trial"",""time""
""fullscreenenter"",""5"",""33998""
","
","
","""event"",""trial"",""time""
""fullscreenenter"",""5"",""33998""
","
",361.0000000001164,NA,48,NA,NA,3000,1,NA,NA,images/purpleplanet.jpg,images/alien4,images/alien3,images/rocket2,images/alien4,images/t.png,2,real,true,2,common,1,2020-06-11T22:15:28Z,sub3
two-step-fixation,167,828687,0.0-76.0-2.10,FALSE,TRUE,TRUE,FALSE,"""event"",""trial"",""time""
""fullscreenenter"",""5"",""33998""
","
","
","""event"",""trial"",""time""
""fullscreenenter"",""5"",""33998""
","
",NA,images/earth.jpg,NA,NA,NA,NA,NA,NA,NA,NA,NA,NA,NA,NA,NA,fixation,NA,NA,NA,NA,NA,NA,sub3
d3-animate-choice,168,830975,0.0-76.0-0.11,FALSE,TRUE,TRUE,FALSE,"""event"",""trial"",""time""
""fullscreenenter"",""5"",""33998""
","
","
","""event"",""trial"",""time""
""fullscreenenter"",""5"",""33998""
","
",286,NA,48,NA,NA,3000,1,NA,NA,images/earth.jpg,images/rocket1,images/rocket2,null,images/rocket1,NA,1,real,null,2,NA,NA,NA,sub3
d3-animate-choice,169,833679,0.0-76.0-1.11,FALSE,TRUE,TRUE,FALSE,"""event"",""trial"",""time""
""fullscreenenter"",""5"",""33998""
","
","
","""event"",""trial"",""time""
""fullscreenenter"",""5"",""33998""
","
",702,NA,49,NA,NA,3000,1,NA,NA,images/redplanet1.jpg,images/alien2,images/alien1,images/rocket1,images/alien1,images/t.png,2,real,true,1,common,1,2020-06-11T22:15:34Z,sub3
two-step-fixation,170,834680,0.0-76.0-2.11,FALSE,TRUE,TRUE,FALSE,"""event"",""trial"",""time""
""fullscreenenter"",""5"",""33998""
","
","
","""event"",""trial"",""time""
""fullscreenenter"",""5"",""33998""
","
",NA,images/earth.jpg,NA,NA,NA,NA,NA,NA,NA,NA,NA,NA,NA,NA,NA,fixation,NA,NA,NA,NA,NA,NA,sub3
d3-animate-choice,171,837040,0.0-76.0-0.12,FALSE,TRUE,TRUE,FALSE,"""event"",""trial"",""time""
""fullscreenenter"",""5"",""33998""
","
","
","""event"",""trial"",""time""
""fullscreenenter"",""5"",""33998""
","
",358,NA,48,NA,NA,3000,1,NA,NA,images/earth.jpg,images/rocket1,images/rocket2,null,images/rocket1,NA,1,real,null,2,NA,NA,NA,sub3
d3-animate-choice,172,839416,0.0-76.0-1.12,FALSE,TRUE,TRUE,FALSE,"""event"",""trial"",""time""
""fullscreenenter"",""5"",""33998""
","
","
","""event"",""trial"",""time""
""fullscreenenter"",""5"",""33998""
","
",375,NA,49,NA,NA,3000,1,NA,NA,images/redplanet1.jpg,images/alien2,images/alien1,images/rocket1,images/alien1,images/nothing.png,2,real,true,1,common,0,2020-06-11T22:15:40Z,sub3
two-step-fixation,173,840418,0.0-76.0-2.12,FALSE,TRUE,TRUE,FALSE,"""event"",""trial"",""time""
""fullscreenenter"",""5"",""33998""
","
","
","""event"",""trial"",""time""
""fullscreenenter"",""5"",""33998""
","
",NA,images/earth.jpg,NA,NA,NA,NA,NA,NA,NA,NA,NA,NA,NA,NA,NA,fixation,NA,NA,NA,NA,NA,NA,sub3
d3-animate-choice,174,843180,0.0-76.0-0.13,FALSE,TRUE,TRUE,FALSE,"""event"",""trial"",""time""
""fullscreenenter"",""5"",""33998""
","
","
","""event"",""trial"",""time""
""fullscreenenter"",""5"",""33998""
","
",761,NA,48,NA,NA,3000,1,NA,NA,images/earth.jpg,images/rocket1,images/rocket2,null,images/rocket1,NA,1,real,null,2,NA,NA,NA,sub3
d3-animate-choice,175,845843,0.0-76.0-1.13,FALSE,TRUE,TRUE,FALSE,"""event"",""trial"",""time""
""fullscreenenter"",""5"",""33998""
","
","
","""event"",""trial"",""time""
""fullscreenenter"",""5"",""33998""
","
",660,NA,49,NA,NA,3000,1,NA,NA,images/redplanet1.jpg,images/alien2,images/alien1,images/rocket1,images/alien1,images/t.png,2,real,true,1,common,1,2020-06-11T22:15:47Z,sub3
two-step-fixation,176,846844,0.0-76.0-2.13,FALSE,TRUE,TRUE,FALSE,"""event"",""trial"",""time""
""fullscreenenter"",""5"",""33998""
","
","
","""event"",""trial"",""time""
""fullscreenenter"",""5"",""33998""
","
",NA,images/earth.jpg,NA,NA,NA,NA,NA,NA,NA,NA,NA,NA,NA,NA,NA,fixation,NA,NA,NA,NA,NA,NA,sub3
d3-animate-choice,177,849229,0.0-76.0-0.14,FALSE,TRUE,TRUE,FALSE,"""event"",""trial"",""time""
""fullscreenenter"",""5"",""33998""
","
","
","""event"",""trial"",""time""
""fullscreenenter"",""5"",""33998""
","
",382,NA,49,NA,NA,3000,1,NA,NA,images/earth.jpg,images/rocket1,images/rocket2,null,images/rocket2,NA,1,real,null,1,NA,NA,NA,sub3
d3-animate-choice,178,852068,0.0-76.0-1.14,FALSE,TRUE,TRUE,FALSE,"""event"",""trial"",""time""
""fullscreenenter"",""5"",""33998""
","
","
","""event"",""trial"",""time""
""fullscreenenter"",""5"",""33998""
","
",836,NA,48,NA,NA,3000,1,NA,NA,images/purpleplanet.jpg,images/alien4,images/alien3,images/rocket2,images/alien4,images/t.png,2,real,true,2,common,1,2020-06-11T22:15:53Z,sub3
two-step-fixation,179,853071,0.0-76.0-2.14,FALSE,TRUE,TRUE,FALSE,"""event"",""trial"",""time""
""fullscreenenter"",""5"",""33998""
","
","
","""event"",""trial"",""time""
""fullscreenenter"",""5"",""33998""
","
",NA,images/earth.jpg,NA,NA,NA,NA,NA,NA,NA,NA,NA,NA,NA,NA,NA,fixation,NA,NA,NA,NA,NA,NA,sub3
d3-animate-choice,180,855429,0.0-76.0-0.15,FALSE,TRUE,TRUE,FALSE,"""event"",""trial"",""time""
""fullscreenenter"",""5"",""33998""
","
","
","""event"",""trial"",""time""
""fullscreenenter"",""5"",""33998""
","
",356,NA,48,NA,NA,3000,1,NA,NA,images/earth.jpg,images/rocket1,images/rocket2,null,images/rocket1,NA,1,real,null,2,NA,NA,NA,sub3
d3-animate-choice,181,858234,0.0-76.0-1.15,FALSE,TRUE,TRUE,FALSE,"""event"",""trial"",""time""
""fullscreenenter"",""5"",""33998""
","
","
","""event"",""trial"",""time""
""fullscreenenter"",""5"",""33998""
","
",802.0000000001164,NA,48,NA,NA,3000,1,NA,NA,images/redplanet1.jpg,images/alien2,images/alien1,images/rocket1,images/alien2,images/t.png,2,real,true,2,common,1,2020-06-11T22:15:59Z,sub3
two-step-fixation,182,859236,0.0-76.0-2.15,FALSE,TRUE,TRUE,FALSE,"""event"",""trial"",""time""
""fullscreenenter"",""5"",""33998""
","
","
","""event"",""trial"",""time""
""fullscreenenter"",""5"",""33998""
","
",NA,images/earth.jpg,NA,NA,NA,NA,NA,NA,NA,NA,NA,NA,NA,NA,NA,fixation,NA,NA,NA,NA,NA,NA,sub3
d3-animate-choice,183,861677,0.0-76.0-0.16,FALSE,TRUE,TRUE,FALSE,"""event"",""trial"",""time""
""fullscreenenter"",""5"",""33998""
","
","
","""event"",""trial"",""time""
""fullscreenenter"",""5"",""33998""
","
",438.9999999998836,NA,49,NA,NA,3000,1,NA,NA,images/earth.jpg,images/rocket1,images/rocket2,null,images/rocket2,NA,1,real,null,1,NA,NA,NA,sub3
d3-animate-choice,184,864141,0.0-76.0-1.16,FALSE,TRUE,TRUE,FALSE,"""event"",""trial"",""time""
""fullscreenenter"",""5"",""33998""
","
","
","""event"",""trial"",""time""
""fullscreenenter"",""5"",""33998""
","
",461,NA,48,NA,NA,3000,1,NA,NA,images/purpleplanet.jpg,images/alien4,images/alien3,images/rocket2,images/alien4,images/t.png,2,real,true,2,common,1,2020-06-11T22:16:05Z,sub3
two-step-fixation,185,865143,0.0-76.0-2.16,FALSE,TRUE,TRUE,FALSE,"""event"",""trial"",""time""
""fullscreenenter"",""5"",""33998""
","
","
","""event"",""trial"",""time""
""fullscreenenter"",""5"",""33998""
","
",NA,images/earth.jpg,NA,NA,NA,NA,NA,NA,NA,NA,NA,NA,NA,NA,NA,fixation,NA,NA,NA,NA,NA,NA,sub3
d3-animate-choice,186,867635,0.0-76.0-0.17,FALSE,TRUE,TRUE,FALSE,"""event"",""trial"",""time""
""fullscreenenter"",""5"",""33998""
","
","
","""event"",""trial"",""time""
""fullscreenenter"",""5"",""33998""
","
",491,NA,49,NA,NA,3000,1,NA,NA,images/earth.jpg,images/rocket1,images/rocket2,null,images/rocket2,NA,1,real,null,1,NA,NA,NA,sub3
d3-animate-choice,187,869995,0.0-76.0-1.17,FALSE,TRUE,TRUE,FALSE,"""event"",""trial"",""time""
""fullscreenenter"",""5"",""33998""
","
","
","""event"",""trial"",""time""
""fullscreenenter"",""5"",""33998""
","
",359,NA,48,NA,NA,3000,1,NA,NA,images/redplanet1.jpg,images/alien2,images/alien1,images/rocket2,images/alien2,images/t.png,2,real,false,2,rare,1,2020-06-11T22:16:11Z,sub3
two-step-fixation,188,870996,0.0-76.0-2.17,FALSE,TRUE,TRUE,FALSE,"""event"",""trial"",""time""
""fullscreenenter"",""5"",""33998""
","
","
","""event"",""trial"",""time""
""fullscreenenter"",""5"",""33998""
","
",NA,images/earth.jpg,NA,NA,NA,NA,NA,NA,NA,NA,NA,NA,NA,NA,NA,fixation,NA,NA,NA,NA,NA,NA,sub3
d3-animate-choice,189,873448,0.0-76.0-0.18,FALSE,TRUE,TRUE,FALSE,"""event"",""trial"",""time""
""fullscreenenter"",""5"",""33998""
","
","
","""event"",""trial"",""time""
""fullscreenenter"",""5"",""33998""
","
",449,NA,49,NA,NA,3000,1,NA,NA,images/earth.jpg,images/rocket1,images/rocket2,null,images/rocket2,NA,1,real,null,1,NA,NA,NA,sub3
d3-animate-choice,190,875770,0.0-76.0-1.18,FALSE,TRUE,TRUE,FALSE,"""event"",""trial"",""time""
""fullscreenenter"",""5"",""33998""
","
","
","""event"",""trial"",""time""
""fullscreenenter"",""5"",""33998""
","
",319,NA,48,NA,NA,3000,1,NA,NA,images/redplanet1.jpg,images/alien2,images/alien1,images/rocket2,images/alien2,images/t.png,2,real,false,2,rare,1,2020-06-11T22:16:17Z,sub3
two-step-fixation,191,876772,0.0-76.0-2.18,FALSE,TRUE,TRUE,FALSE,"""event"",""trial"",""time""
""fullscreenenter"",""5"",""33998""
","
","
","""event"",""trial"",""time""
""fullscreenenter"",""5"",""33998""
","
",NA,images/earth.jpg,NA,NA,NA,NA,NA,NA,NA,NA,NA,NA,NA,NA,NA,fixation,NA,NA,NA,NA,NA,NA,sub3
d3-animate-choice,192,879155,0.0-76.0-0.19,FALSE,TRUE,TRUE,FALSE,"""event"",""trial"",""time""
""fullscreenenter"",""5"",""33998""
","
","
","""event"",""trial"",""time""
""fullscreenenter"",""5"",""33998""
","
",379,NA,49,NA,NA,3000,1,NA,NA,images/earth.jpg,images/rocket1,images/rocket2,null,images/rocket2,NA,1,real,null,1,NA,NA,NA,sub3
d3-animate-choice,193,881732,0.0-76.0-1.19,FALSE,TRUE,TRUE,FALSE,"""event"",""trial"",""time""
""fullscreenenter"",""5"",""33998""
","
","
","""event"",""trial"",""time""
""fullscreenenter"",""5"",""33998""
","
",574.9999999998836,NA,48,NA,NA,3000,1,NA,NA,images/purpleplanet.jpg,images/alien4,images/alien3,images/rocket2,images/alien4,images/t.png,2,real,true,2,common,1,2020-06-11T22:16:22Z,sub3
two-step-fixation,194,882734,0.0-76.0-2.19,FALSE,TRUE,TRUE,FALSE,"""event"",""trial"",""time""
""fullscreenenter"",""5"",""33998""
","
","
","""event"",""trial"",""time""
""fullscreenenter"",""5"",""33998""
","
",NA,images/earth.jpg,NA,NA,NA,NA,NA,NA,NA,NA,NA,NA,NA,NA,NA,fixation,NA,NA,NA,NA,NA,NA,sub3
d3-animate-choice,195,885222,0.0-76.0-0.20,FALSE,TRUE,TRUE,FALSE,"""event"",""trial"",""time""
""fullscreenenter"",""5"",""33998""
","
","
","""event"",""trial"",""time""
""fullscreenenter"",""5"",""33998""
","
",486,NA,49,NA,NA,3000,1,NA,NA,images/earth.jpg,images/rocket1,images/rocket2,null,images/rocket2,NA,1,real,null,1,NA,NA,NA,sub3
d3-animate-choice,196,888795,0.0-76.0-1.20,FALSE,TRUE,TRUE,FALSE,"""event"",""trial"",""time""
""fullscreenenter"",""5"",""33998""
","
","
","""event"",""trial"",""time""
""fullscreenenter"",""5"",""33998""
","
",1572,NA,49,NA,NA,3000,1,NA,NA,images/redplanet1.jpg,images/alien2,images/alien1,images/rocket2,images/alien1,images/t.png,2,real,false,1,rare,1,2020-06-11T22:16:30Z,sub3
two-step-fixation,197,889797,0.0-76.0-2.20,FALSE,TRUE,TRUE,FALSE,"""event"",""trial"",""time""
""fullscreenenter"",""5"",""33998""
","
","
","""event"",""trial"",""time""
""fullscreenenter"",""5"",""33998""
","
",NA,images/earth.jpg,NA,NA,NA,NA,NA,NA,NA,NA,NA,NA,NA,NA,NA,fixation,NA,NA,NA,NA,NA,NA,sub3
d3-animate-choice,198,892357,0.0-76.0-0.21,FALSE,TRUE,TRUE,FALSE,"""event"",""trial"",""time""
""fullscreenenter"",""5"",""33998""
","
","
","""event"",""trial"",""time""
""fullscreenenter"",""5"",""33998""
","
",557,NA,49,NA,NA,3000,1,NA,NA,images/earth.jpg,images/rocket1,images/rocket2,null,images/rocket2,NA,1,real,null,1,NA,NA,NA,sub3
d3-animate-choice,199,894747,0.0-76.0-1.21,FALSE,TRUE,TRUE,FALSE,"""event"",""trial"",""time""
""fullscreenenter"",""5"",""33998""
","
","
","""event"",""trial"",""time""
""fullscreenenter"",""5"",""33998""
","
",388,NA,48,NA,NA,3000,1,NA,NA,images/purpleplanet.jpg,images/alien4,images/alien3,images/rocket2,images/alien4,images/t.png,2,real,true,2,common,1,2020-06-11T22:16:36Z,sub3
two-step-fixation,200,895749,0.0-76.0-2.21,FALSE,TRUE,TRUE,FALSE,"""event"",""trial"",""time""
""fullscreenenter"",""5"",""33998""
","
","
","""event"",""trial"",""time""
""fullscreenenter"",""5"",""33998""
","
",NA,images/earth.jpg,NA,NA,NA,NA,NA,NA,NA,NA,NA,NA,NA,NA,NA,fixation,NA,NA,NA,NA,NA,NA,sub3
d3-animate-choice,201,898171,0.0-76.0-0.22,FALSE,TRUE,TRUE,FALSE,"""event"",""trial"",""time""
""fullscreenenter"",""5"",""33998""
","
","
","""event"",""trial"",""time""
""fullscreenenter"",""5"",""33998""
","
",421,NA,48,NA,NA,3000,1,NA,NA,images/earth.jpg,images/rocket1,images/rocket2,null,images/rocket1,NA,1,real,null,2,NA,NA,NA,sub3
d3-animate-choice,202,900672,0.0-76.0-1.22,FALSE,TRUE,TRUE,FALSE,"""event"",""trial"",""time""
""fullscreenenter"",""5"",""33998""
","
","
","""event"",""trial"",""time""
""fullscreenenter"",""5"",""33998""
","
",499.0000000001164,NA,48,NA,NA,3000,1,NA,NA,images/redplanet1.jpg,images/alien2,images/alien1,images/rocket1,images/alien2,images/t.png,2,real,true,2,common,1,2020-06-11T22:16:41Z,sub3
two-step-fixation,203,901675,0.0-76.0-2.22,FALSE,TRUE,TRUE,FALSE,"""event"",""trial"",""time""
""fullscreenenter"",""5"",""33998""
","
","
","""event"",""trial"",""time""
""fullscreenenter"",""5"",""33998""
","
",NA,images/earth.jpg,NA,NA,NA,NA,NA,NA,NA,NA,NA,NA,NA,NA,NA,fixation,NA,NA,NA,NA,NA,NA,sub3
d3-animate-choice,204,904318,0.0-76.0-0.23,FALSE,TRUE,TRUE,FALSE,"""event"",""trial"",""time""
""fullscreenenter"",""5"",""33998""
","
","
","""event"",""trial"",""time""
""fullscreenenter"",""5"",""33998""
","
",641,NA,49,NA,NA,3000,1,NA,NA,images/earth.jpg,images/rocket1,images/rocket2,null,images/rocket2,NA,1,real,null,1,NA,NA,NA,sub3
d3-animate-choice,205,907107,0.0-76.0-1.23,FALSE,TRUE,TRUE,FALSE,"""event"",""trial"",""time""
""fullscreenenter"",""5"",""33998""
","
","
","""event"",""trial"",""time""
""fullscreenenter"",""5"",""33998""
","
",787,NA,48,NA,NA,3000,1,NA,NA,images/purpleplanet.jpg,images/alien4,images/alien3,images/rocket2,images/alien4,images/nothing.png,2,real,true,2,common,0,2020-06-11T22:16:48Z,sub3
two-step-fixation,206,908109,0.0-76.0-2.23,FALSE,TRUE,TRUE,FALSE,"""event"",""trial"",""time""
""fullscreenenter"",""5"",""33998""
","
","
","""event"",""trial"",""time""
""fullscreenenter"",""5"",""33998""
","
",NA,images/earth.jpg,NA,NA,NA,NA,NA,NA,NA,NA,NA,NA,NA,NA,NA,fixation,NA,NA,NA,NA,NA,NA,sub3
d3-animate-choice,207,910587,0.0-76.0-0.24,FALSE,TRUE,TRUE,FALSE,"""event"",""trial"",""time""
""fullscreenenter"",""5"",""33998""
","
","
","""event"",""trial"",""time""
""fullscreenenter"",""5"",""33998""
","
",475.0000000001164,NA,48,NA,NA,3000,1,NA,NA,images/earth.jpg,images/rocket1,images/rocket2,null,images/rocket1,NA,1,real,null,2,NA,NA,NA,sub3
d3-animate-choice,208,913770,0.0-76.0-1.24,FALSE,TRUE,TRUE,FALSE,"""event"",""trial"",""time""
""fullscreenenter"",""5"",""33998""
","
","
","""event"",""trial"",""time""
""fullscreenenter"",""5"",""33998""
","
",1181,NA,48,NA,NA,3000,1,NA,NA,images/redplanet1.jpg,images/alien2,images/alien1,images/rocket1,images/alien2,images/t.png,2,real,true,2,common,1,2020-06-11T22:16:55Z,sub3
two-step-fixation,209,914771,0.0-76.0-2.24,FALSE,TRUE,TRUE,FALSE,"""event"",""trial"",""time""
""fullscreenenter"",""5"",""33998""
","
","
","""event"",""trial"",""time""
""fullscreenenter"",""5"",""33998""
","
",NA,images/earth.jpg,NA,NA,NA,NA,NA,NA,NA,NA,NA,NA,NA,NA,NA,fixation,NA,NA,NA,NA,NA,NA,sub3
d3-animate-choice,210,917157,0.0-76.0-0.25,FALSE,TRUE,TRUE,FALSE,"""event"",""trial"",""time""
""fullscreenenter"",""5"",""33998""
","
","
","""event"",""trial"",""time""
""fullscreenenter"",""5"",""33998""
","
",384,NA,49,NA,NA,3000,1,NA,NA,images/earth.jpg,images/rocket1,images/rocket2,null,images/rocket2,NA,1,real,null,1,NA,NA,NA,sub3
d3-animate-choice,211,919725,0.0-76.0-1.25,FALSE,TRUE,TRUE,FALSE,"""event"",""trial"",""time""
""fullscreenenter"",""5"",""33998""
","
","
","""event"",""trial"",""time""
""fullscreenenter"",""5"",""33998""
","
",565,NA,49,NA,NA,3000,1,NA,NA,images/purpleplanet.jpg,images/alien4,images/alien3,images/rocket2,images/alien3,images/nothing.png,2,real,true,1,common,0,2020-06-11T22:17:00Z,sub3
two-step-fixation,212,920726,0.0-76.0-2.25,FALSE,TRUE,TRUE,FALSE,"""event"",""trial"",""time""
""fullscreenenter"",""5"",""33998""
","
","
","""event"",""trial"",""time""
""fullscreenenter"",""5"",""33998""
","
",NA,images/earth.jpg,NA,NA,NA,NA,NA,NA,NA,NA,NA,NA,NA,NA,NA,fixation,NA,NA,NA,NA,NA,NA,sub3
d3-animate-choice,213,923355,0.0-76.0-0.26,FALSE,TRUE,TRUE,FALSE,"""event"",""trial"",""time""
""fullscreenenter"",""5"",""33998""
","
","
","""event"",""trial"",""time""
""fullscreenenter"",""5"",""33998""
","
",627.0000000001164,NA,49,NA,NA,3000,1,NA,NA,images/earth.jpg,images/rocket1,images/rocket2,null,images/rocket2,NA,1,real,null,1,NA,NA,NA,sub3
d3-animate-choice,214,925817,0.0-76.0-1.26,FALSE,TRUE,TRUE,FALSE,"""event"",""trial"",""time""
""fullscreenenter"",""5"",""33998""
","
","
","""event"",""trial"",""time""
""fullscreenenter"",""5"",""33998""
","
",459,NA,48,NA,NA,3000,1,NA,NA,images/purpleplanet.jpg,images/alien4,images/alien3,images/rocket2,images/alien4,images/nothing.png,2,real,true,2,common,0,2020-06-11T22:17:07Z,sub3
two-step-fixation,215,926819,0.0-76.0-2.26,FALSE,TRUE,TRUE,FALSE,"""event"",""trial"",""time""
""fullscreenenter"",""5"",""33998""
","
","
","""event"",""trial"",""time""
""fullscreenenter"",""5"",""33998""
","
",NA,images/earth.jpg,NA,NA,NA,NA,NA,NA,NA,NA,NA,NA,NA,NA,NA,fixation,NA,NA,NA,NA,NA,NA,sub3
d3-animate-choice,216,928953,0.0-76.0-0.27,FALSE,TRUE,TRUE,FALSE,"""event"",""trial"",""time""
""fullscreenenter"",""5"",""33998""
","
","
","""event"",""trial"",""time""
""fullscreenenter"",""5"",""33998""
","
",133,NA,49,NA,NA,3000,1,NA,NA,images/earth.jpg,images/rocket1,images/rocket2,null,images/rocket2,NA,1,real,null,1,NA,NA,NA,sub3
d3-animate-choice,217,931462,0.0-76.0-1.27,FALSE,TRUE,TRUE,FALSE,"""event"",""trial"",""time""
""fullscreenenter"",""5"",""33998""
","
","
","""event"",""trial"",""time""
""fullscreenenter"",""5"",""33998""
","
",508,NA,48,NA,NA,3000,1,NA,NA,images/purpleplanet.jpg,images/alien4,images/alien3,images/rocket2,images/alien4,images/t.png,2,real,true,2,common,1,2020-06-11T22:17:12Z,sub3
two-step-fixation,218,932464,0.0-76.0-2.27,FALSE,TRUE,TRUE,FALSE,"""event"",""trial"",""time""
""fullscreenenter"",""5"",""33998""
","
","
","""event"",""trial"",""time""
""fullscreenenter"",""5"",""33998""
","
",NA,images/earth.jpg,NA,NA,NA,NA,NA,NA,NA,NA,NA,NA,NA,NA,NA,fixation,NA,NA,NA,NA,NA,NA,sub3
d3-animate-choice,219,935089,0.0-76.0-0.28,FALSE,TRUE,TRUE,FALSE,"""event"",""trial"",""time""
""fullscreenenter"",""5"",""33998""
","
","
","""event"",""trial"",""time""
""fullscreenenter"",""5"",""33998""
","
",623,NA,48,NA,NA,3000,1,NA,NA,images/earth.jpg,images/rocket1,images/rocket2,null,images/rocket1,NA,1,real,null,2,NA,NA,NA,sub3
d3-animate-choice,220,937665,0.0-76.0-1.28,FALSE,TRUE,TRUE,FALSE,"""event"",""trial"",""time""
""fullscreenenter"",""5"",""33998""
","
","
","""event"",""trial"",""time""
""fullscreenenter"",""5"",""33998""
","
",574,NA,48,NA,NA,3000,1,NA,NA,images/redplanet1.jpg,images/alien2,images/alien1,images/rocket1,images/alien2,images/nothing.png,2,real,true,2,common,0,2020-06-11T22:17:18Z,sub3
two-step-fixation,221,938666,0.0-76.0-2.28,FALSE,TRUE,TRUE,FALSE,"""event"",""trial"",""time""
""fullscreenenter"",""5"",""33998""
","
","
","""event"",""trial"",""time""
""fullscreenenter"",""5"",""33998""
","
",NA,images/earth.jpg,NA,NA,NA,NA,NA,NA,NA,NA,NA,NA,NA,NA,NA,fixation,NA,NA,NA,NA,NA,NA,sub3
d3-animate-choice,222,941142,0.0-76.0-0.29,FALSE,TRUE,TRUE,FALSE,"""event"",""trial"",""time""
""fullscreenenter"",""5"",""33998""
","
","
","""event"",""trial"",""time""
""fullscreenenter"",""5"",""33998""
","
",474,NA,49,NA,NA,3000,1,NA,NA,images/earth.jpg,images/rocket1,images/rocket2,null,images/rocket2,NA,1,real,null,1,NA,NA,NA,sub3
d3-animate-choice,223,943744,0.0-76.0-1.29,FALSE,TRUE,TRUE,FALSE,"""event"",""trial"",""time""
""fullscreenenter"",""5"",""33998""
","
","
","""event"",""trial"",""time""
""fullscreenenter"",""5"",""33998""
","
",599,NA,49,NA,NA,3000,1,NA,NA,images/purpleplanet.jpg,images/alien4,images/alien3,images/rocket2,images/alien3,images/nothing.png,2,real,true,1,common,0,2020-06-11T22:17:25Z,sub3
two-step-fixation,224,944745,0.0-76.0-2.29,FALSE,TRUE,TRUE,FALSE,"""event"",""trial"",""time""
""fullscreenenter"",""5"",""33998""
","
","
","""event"",""trial"",""time""
""fullscreenenter"",""5"",""33998""
","
",NA,images/earth.jpg,NA,NA,NA,NA,NA,NA,NA,NA,NA,NA,NA,NA,NA,fixation,NA,NA,NA,NA,NA,NA,sub3
d3-animate-choice,225,947168,0.0-76.0-0.30,FALSE,TRUE,TRUE,FALSE,"""event"",""trial"",""time""
""fullscreenenter"",""5"",""33998""
","
","
","""event"",""trial"",""time""
""fullscreenenter"",""5"",""33998""
","
",421,NA,48,NA,NA,3000,1,NA,NA,images/earth.jpg,images/rocket1,images/rocket2,null,images/rocket1,NA,1,real,null,2,NA,NA,NA,sub3
d3-animate-choice,226,949785,0.0-76.0-1.30,FALSE,TRUE,TRUE,FALSE,"""event"",""trial"",""time""
""fullscreenenter"",""5"",""33998""
","
","
","""event"",""trial"",""time""
""fullscreenenter"",""5"",""33998""
","
",615,NA,49,NA,NA,3000,1,NA,NA,images/redplanet1.jpg,images/alien2,images/alien1,images/rocket1,images/alien1,images/t.png,2,real,true,1,common,1,2020-06-11T22:17:31Z,sub3
two-step-fixation,227,950787,0.0-76.0-2.30,FALSE,TRUE,TRUE,FALSE,"""event"",""trial"",""time""
""fullscreenenter"",""5"",""33998""
","
","
","""event"",""trial"",""time""
""fullscreenenter"",""5"",""33998""
","
",NA,images/earth.jpg,NA,NA,NA,NA,NA,NA,NA,NA,NA,NA,NA,NA,NA,fixation,NA,NA,NA,NA,NA,NA,sub3
d3-animate-choice,228,953131,0.0-76.0-0.31,FALSE,TRUE,TRUE,FALSE,"""event"",""trial"",""time""
""fullscreenenter"",""5"",""33998""
","
","
","""event"",""trial"",""time""
""fullscreenenter"",""5"",""33998""
","
",340.9999999998836,NA,48,NA,NA,3000,1,NA,NA,images/earth.jpg,images/rocket1,images/rocket2,null,images/rocket1,NA,1,real,null,2,NA,NA,NA,sub3
d3-animate-choice,229,955843,0.0-76.0-1.31,FALSE,TRUE,TRUE,FALSE,"""event"",""trial"",""time""
""fullscreenenter"",""5"",""33998""
","
","
","""event"",""trial"",""time""
""fullscreenenter"",""5"",""33998""
","
",709.0000000001164,NA,49,NA,NA,3000,1,NA,NA,images/redplanet1.jpg,images/alien2,images/alien1,images/rocket1,images/alien1,images/t.png,2,real,true,1,common,1,2020-06-11T22:17:37Z,sub3
two-step-fixation,230,956845,0.0-76.0-2.31,FALSE,TRUE,TRUE,FALSE,"""event"",""trial"",""time""
""fullscreenenter"",""5"",""33998""
","
","
","""event"",""trial"",""time""
""fullscreenenter"",""5"",""33998""
","
",NA,images/earth.jpg,NA,NA,NA,NA,NA,NA,NA,NA,NA,NA,NA,NA,NA,fixation,NA,NA,NA,NA,NA,NA,sub3
d3-animate-choice,231,959390,0.0-76.0-0.32,FALSE,TRUE,TRUE,FALSE,"""event"",""trial"",""time""
""fullscreenenter"",""5"",""33998""
","
","
","""event"",""trial"",""time""
""fullscreenenter"",""5"",""33998""
","
",543,NA,48,NA,NA,3000,1,NA,NA,images/earth.jpg,images/rocket1,images/rocket2,null,images/rocket1,NA,1,real,null,2,NA,NA,NA,sub3
d3-animate-choice,232,961933,0.0-76.0-1.32,FALSE,TRUE,TRUE,FALSE,"""event"",""trial"",""time""
""fullscreenenter"",""5"",""33998""
","
","
","""event"",""trial"",""time""
""fullscreenenter"",""5"",""33998""
","
",541.0000000001164,NA,49,NA,NA,3000,1,NA,NA,images/purpleplanet.jpg,images/alien4,images/alien3,images/rocket1,images/alien3,images/nothing.png,2,real,false,1,rare,0,2020-06-11T22:17:43Z,sub3
two-step-fixation,233,962934,0.0-76.0-2.32,FALSE,TRUE,TRUE,FALSE,"""event"",""trial"",""time""
""fullscreenenter"",""5"",""33998""
","
","
","""event"",""trial"",""time""
""fullscreenenter"",""5"",""33998""
","
",NA,images/earth.jpg,NA,NA,NA,NA,NA,NA,NA,NA,NA,NA,NA,NA,NA,fixation,NA,NA,NA,NA,NA,NA,sub3
d3-animate-choice,234,966892,0.0-76.0-0.33,FALSE,TRUE,TRUE,FALSE,"""event"",""trial"",""time""
""fullscreenenter"",""5"",""33998""
","
","
","""event"",""trial"",""time""
""fullscreenenter"",""5"",""33998""
","
",1956,NA,48,NA,NA,3000,1,NA,NA,images/earth.jpg,images/rocket1,images/rocket2,null,images/rocket1,NA,1,real,null,2,NA,NA,NA,sub3
d3-animate-choice,235,970185,0.0-76.0-1.33,FALSE,TRUE,TRUE,FALSE,"""event"",""trial"",""time""
""fullscreenenter"",""5"",""33998""
","
","
","""event"",""trial"",""time""
""fullscreenenter"",""5"",""33998""
","
",1290.0000000001164,NA,49,NA,NA,3000,1,NA,NA,images/redplanet1.jpg,images/alien2,images/alien1,images/rocket1,images/alien1,images/t.png,2,real,true,1,common,1,2020-06-11T22:17:51Z,sub3
two-step-fixation,236,971187,0.0-76.0-2.33,FALSE,TRUE,TRUE,FALSE,"""event"",""trial"",""time""
""fullscreenenter"",""5"",""33998""
","
","
","""event"",""trial"",""time""
""fullscreenenter"",""5"",""33998""
","
",NA,images/earth.jpg,NA,NA,NA,NA,NA,NA,NA,NA,NA,NA,NA,NA,NA,fixation,NA,NA,NA,NA,NA,NA,sub3
d3-animate-choice,237,973833,0.0-76.0-0.34,FALSE,TRUE,TRUE,FALSE,"""event"",""trial"",""time""
""fullscreenenter"",""5"",""33998""
","
","
","""event"",""trial"",""time""
""fullscreenenter"",""5"",""33998""
","
",642.9999999998836,NA,49,NA,NA,3000,1,NA,NA,images/earth.jpg,images/rocket1,images/rocket2,null,images/rocket2,NA,1,real,null,1,NA,NA,NA,sub3
d3-animate-choice,238,976592,0.0-76.0-1.34,FALSE,TRUE,TRUE,FALSE,"""event"",""trial"",""time""
""fullscreenenter"",""5"",""33998""
","
","
","""event"",""trial"",""time""
""fullscreenenter"",""5"",""33998""
","
",757,NA,49,NA,NA,3000,1,NA,NA,images/redplanet1.jpg,images/alien2,images/alien1,images/rocket2,images/alien1,images/nothing.png,2,real,false,1,rare,0,2020-06-11T22:17:57Z,sub3
two-step-fixation,239,977593,0.0-76.0-2.34,FALSE,TRUE,TRUE,FALSE,"""event"",""trial"",""time""
""fullscreenenter"",""5"",""33998""
","
","
","""event"",""trial"",""time""
""fullscreenenter"",""5"",""33998""
","
",NA,images/earth.jpg,NA,NA,NA,NA,NA,NA,NA,NA,NA,NA,NA,NA,NA,fixation,NA,NA,NA,NA,NA,NA,sub3
d3-animate-choice,240,980700,0.0-76.0-0.35,FALSE,TRUE,TRUE,FALSE,"""event"",""trial"",""time""
""fullscreenenter"",""5"",""33998""
","
","
","""event"",""trial"",""time""
""fullscreenenter"",""5"",""33998""
","
",1105,NA,48,NA,NA,3000,1,NA,NA,images/earth.jpg,images/rocket1,images/rocket2,null,images/rocket1,NA,1,real,null,2,NA,NA,NA,sub3
d3-animate-choice,241,983150,0.0-76.0-1.35,FALSE,TRUE,TRUE,FALSE,"""event"",""trial"",""time""
""fullscreenenter"",""5"",""33998""
","
","
","""event"",""trial"",""time""
""fullscreenenter"",""5"",""33998""
","
",447,NA,48,NA,NA,3000,1,NA,NA,images/redplanet1.jpg,images/alien2,images/alien1,images/rocket1,images/alien2,images/t.png,2,real,true,2,common,1,2020-06-11T22:18:04Z,sub3
two-step-fixation,242,984152,0.0-76.0-2.35,FALSE,TRUE,TRUE,FALSE,"""event"",""trial"",""time""
""fullscreenenter"",""5"",""33998""
","
","
","""event"",""trial"",""time""
""fullscreenenter"",""5"",""33998""
","
",NA,images/earth.jpg,NA,NA,NA,NA,NA,NA,NA,NA,NA,NA,NA,NA,NA,fixation,NA,NA,NA,NA,NA,NA,sub3
d3-animate-choice,243,987221,0.0-76.0-0.36,FALSE,TRUE,TRUE,FALSE,"""event"",""trial"",""time""
""fullscreenenter"",""5"",""33998""
","
","
","""event"",""trial"",""time""
""fullscreenenter"",""5"",""33998""
","
",1066,NA,49,NA,NA,3000,1,NA,NA,images/earth.jpg,images/rocket1,images/rocket2,null,images/rocket2,NA,1,real,null,1,NA,NA,NA,sub3
d3-animate-choice,244,989857,0.0-76.0-1.36,FALSE,TRUE,TRUE,FALSE,"""event"",""trial"",""time""
""fullscreenenter"",""5"",""33998""
","
","
","""event"",""trial"",""time""
""fullscreenenter"",""5"",""33998""
","
",634,NA,48,NA,NA,3000,1,NA,NA,images/redplanet1.jpg,images/alien2,images/alien1,images/rocket2,images/alien2,images/nothing.png,2,real,false,2,rare,0,2020-06-11T22:18:11Z,sub3
two-step-fixation,245,990859,0.0-76.0-2.36,FALSE,TRUE,TRUE,FALSE,"""event"",""trial"",""time""
""fullscreenenter"",""5"",""33998""
","
","
","""event"",""trial"",""time""
""fullscreenenter"",""5"",""33998""
","
",NA,images/earth.jpg,NA,NA,NA,NA,NA,NA,NA,NA,NA,NA,NA,NA,NA,fixation,NA,NA,NA,NA,NA,NA,sub3
d3-animate-choice,246,993584,0.0-76.0-0.37,FALSE,TRUE,TRUE,FALSE,"""event"",""trial"",""time""
""fullscreenenter"",""5"",""33998""
","
","
","""event"",""trial"",""time""
""fullscreenenter"",""5"",""33998""
","
",722.0000000001164,NA,49,NA,NA,3000,1,NA,NA,images/earth.jpg,images/rocket1,images/rocket2,null,images/rocket2,NA,1,real,null,1,NA,NA,NA,sub3
d3-animate-choice,247,996145,0.0-76.0-1.37,FALSE,TRUE,TRUE,FALSE,"""event"",""trial"",""time""
""fullscreenenter"",""5"",""33998""
","
","
","""event"",""trial"",""time""
""fullscreenenter"",""5"",""33998""
","
",558,NA,48,NA,NA,3000,1,NA,NA,images/redplanet1.jpg,images/alien2,images/alien1,images/rocket2,images/alien2,images/nothing.png,2,real,false,2,rare,0,2020-06-11T22:18:17Z,sub3
two-step-fixation,248,997147,0.0-76.0-2.37,FALSE,TRUE,TRUE,FALSE,"""event"",""trial"",""time""
""fullscreenenter"",""5"",""33998""
","
","
","""event"",""trial"",""time""
""fullscreenenter"",""5"",""33998""
","
",NA,images/earth.jpg,NA,NA,NA,NA,NA,NA,NA,NA,NA,NA,NA,NA,NA,fixation,NA,NA,NA,NA,NA,NA,sub3
d3-animate-choice,249,999748,0.0-76.0-0.38,FALSE,TRUE,TRUE,FALSE,"""event"",""trial"",""time""
""fullscreenenter"",""5"",""33998""
","
","
","""event"",""trial"",""time""
""fullscreenenter"",""5"",""33998""
","
",598.0000000001164,NA,49,NA,NA,3000,1,NA,NA,images/earth.jpg,images/rocket1,images/rocket2,null,images/rocket2,NA,1,real,null,1,NA,NA,NA,sub3
d3-animate-choice,250,1003098,0.0-76.0-1.38,FALSE,TRUE,TRUE,FALSE,"""event"",""trial"",""time""
""fullscreenenter"",""5"",""33998""
","
","
","""event"",""trial"",""time""
""fullscreenenter"",""5"",""33998""
","
",1347,NA,48,NA,NA,3000,1,NA,NA,images/purpleplanet.jpg,images/alien4,images/alien3,images/rocket2,images/alien4,images/nothing.png,2,real,true,2,common,0,2020-06-11T22:18:24Z,sub3
two-step-fixation,251,1004100,0.0-76.0-2.38,FALSE,TRUE,TRUE,FALSE,"""event"",""trial"",""time""
""fullscreenenter"",""5"",""33998""
","
","
","""event"",""trial"",""time""
""fullscreenenter"",""5"",""33998""
","
",NA,images/earth.jpg,NA,NA,NA,NA,NA,NA,NA,NA,NA,NA,NA,NA,NA,fixation,NA,NA,NA,NA,NA,NA,sub3
d3-animate-choice,252,1006986,0.0-76.0-0.39,FALSE,TRUE,TRUE,FALSE,"""event"",""trial"",""time""
""fullscreenenter"",""5"",""33998""
","
","
","""event"",""trial"",""time""
""fullscreenenter"",""5"",""33998""
","
",884,NA,48,NA,NA,3000,1,NA,NA,images/earth.jpg,images/rocket1,images/rocket2,null,images/rocket1,NA,1,real,null,2,NA,NA,NA,sub3
d3-animate-choice,253,1009896,0.0-76.0-1.39,FALSE,TRUE,TRUE,FALSE,"""event"",""trial"",""time""
""fullscreenenter"",""5"",""33998""
","
","
","""event"",""trial"",""time""
""fullscreenenter"",""5"",""33998""
","
",908.0000000001164,NA,49,NA,NA,3000,1,NA,NA,images/redplanet1.jpg,images/alien2,images/alien1,images/rocket1,images/alien1,images/nothing.png,2,real,true,1,common,0,2020-06-11T22:18:31Z,sub3
two-step-fixation,254,1010898,0.0-76.0-2.39,FALSE,TRUE,TRUE,FALSE,"""event"",""trial"",""time""
""fullscreenenter"",""5"",""33998""
","
","
","""event"",""trial"",""time""
""fullscreenenter"",""5"",""33998""
","
",NA,images/earth.jpg,NA,NA,NA,NA,NA,NA,NA,NA,NA,NA,NA,NA,NA,fixation,NA,NA,NA,NA,NA,NA,sub3
d3-animate-choice,255,1013791,0.0-76.0-0.40,FALSE,TRUE,TRUE,FALSE,"""event"",""trial"",""time""
""fullscreenenter"",""5"",""33998""
","
","
","""event"",""trial"",""time""
""fullscreenenter"",""5"",""33998""
","
",891.0000000001164,NA,49,NA,NA,3000,1,NA,NA,images/earth.jpg,images/rocket1,images/rocket2,null,images/rocket2,NA,1,real,null,1,NA,NA,NA,sub3
d3-animate-choice,256,1016547,0.0-76.0-1.40,FALSE,TRUE,TRUE,FALSE,"""event"",""trial"",""time""
""fullscreenenter"",""5"",""33998""
","
","
","""event"",""trial"",""time""
""fullscreenenter"",""5"",""33998""
","
",753.9999999998836,NA,49,NA,NA,3000,1,NA,NA,images/purpleplanet.jpg,images/alien4,images/alien3,images/rocket2,images/alien3,images/nothing.png,2,real,true,1,common,0,2020-06-11T22:18:37Z,sub3
two-step-fixation,257,1017550,0.0-76.0-2.40,FALSE,TRUE,TRUE,FALSE,"""event"",""trial"",""time""
""fullscreenenter"",""5"",""33998""
","
","
","""event"",""trial"",""time""
""fullscreenenter"",""5"",""33998""
","
",NA,images/earth.jpg,NA,NA,NA,NA,NA,NA,NA,NA,NA,NA,NA,NA,NA,fixation,NA,NA,NA,NA,NA,NA,sub3
d3-animate-choice,258,1020186,0.0-76.0-0.41,FALSE,TRUE,TRUE,FALSE,"""event"",""trial"",""time""
""fullscreenenter"",""5"",""33998""
","
","
","""event"",""trial"",""time""
""fullscreenenter"",""5"",""33998""
","
",634.9999999998836,NA,48,NA,NA,3000,1,NA,NA,images/earth.jpg,images/rocket1,images/rocket2,null,images/rocket1,NA,1,real,null,2,NA,NA,NA,sub3
d3-animate-choice,259,1022614,0.0-76.0-1.41,FALSE,TRUE,TRUE,FALSE,"""event"",""trial"",""time""
""fullscreenenter"",""5"",""33998""
","
","
","""event"",""trial"",""time""
""fullscreenenter"",""5"",""33998""
","
",426,NA,48,NA,NA,3000,1,NA,NA,images/redplanet1.jpg,images/alien2,images/alien1,images/rocket1,images/alien2,images/nothing.png,2,real,true,2,common,0,2020-06-11T22:18:43Z,sub3
two-step-fixation,260,1023616,0.0-76.0-2.41,FALSE,TRUE,TRUE,FALSE,"""event"",""trial"",""time""
""fullscreenenter"",""5"",""33998""
","
","
","""event"",""trial"",""time""
""fullscreenenter"",""5"",""33998""
","
",NA,images/earth.jpg,NA,NA,NA,NA,NA,NA,NA,NA,NA,NA,NA,NA,NA,fixation,NA,NA,NA,NA,NA,NA,sub3
d3-animate-choice,261,1025939,0.0-76.0-0.42,FALSE,TRUE,TRUE,FALSE,"""event"",""trial"",""time""
""fullscreenenter"",""5"",""33998""
","
","
","""event"",""trial"",""time""
""fullscreenenter"",""5"",""33998""
","
",319.9999999998836,NA,49,NA,NA,3000,1,NA,NA,images/earth.jpg,images/rocket1,images/rocket2,null,images/rocket2,NA,1,real,null,1,NA,NA,NA,sub3
d3-animate-choice,262,1028978,0.0-76.0-1.42,FALSE,TRUE,TRUE,FALSE,"""event"",""trial"",""time""
""fullscreenenter"",""5"",""33998""
","
","
","""event"",""trial"",""time""
""fullscreenenter"",""5"",""33998""
","
",1037,NA,49,NA,NA,3000,1,NA,NA,images/purpleplanet.jpg,images/alien4,images/alien3,images/rocket2,images/alien3,images/nothing.png,2,real,true,1,common,0,2020-06-11T22:18:50Z,sub3
two-step-fixation,263,1029980,0.0-76.0-2.42,FALSE,TRUE,TRUE,FALSE,"""event"",""trial"",""time""
""fullscreenenter"",""5"",""33998""
","
","
","""event"",""trial"",""time""
""fullscreenenter"",""5"",""33998""
","
",NA,images/earth.jpg,NA,NA,NA,NA,NA,NA,NA,NA,NA,NA,NA,NA,NA,fixation,NA,NA,NA,NA,NA,NA,sub3
d3-animate-choice,264,1032656,0.0-76.0-0.43,FALSE,TRUE,TRUE,FALSE,"""event"",""trial"",""time""
""fullscreenenter"",""5"",""33998""
","
","
","""event"",""trial"",""time""
""fullscreenenter"",""5"",""33998""
","
",673.9999999997672,NA,48,NA,NA,3000,1,NA,NA,images/earth.jpg,images/rocket1,images/rocket2,null,images/rocket1,NA,1,real,null,2,NA,NA,NA,sub3
d3-animate-choice,265,1035575,0.0-76.0-1.43,FALSE,TRUE,TRUE,FALSE,"""event"",""trial"",""time""
""fullscreenenter"",""5"",""33998""
","
","
","""event"",""trial"",""time""
""fullscreenenter"",""5"",""33998""
","
",917,NA,48,NA,NA,3000,1,NA,NA,images/redplanet1.jpg,images/alien2,images/alien1,images/rocket1,images/alien2,images/t.png,2,real,true,2,common,1,2020-06-11T22:18:56Z,sub3
two-step-fixation,266,1036577,0.0-76.0-2.43,FALSE,TRUE,TRUE,FALSE,"""event"",""trial"",""time""
""fullscreenenter"",""5"",""33998""
","
","
","""event"",""trial"",""time""
""fullscreenenter"",""5"",""33998""
","
",NA,images/earth.jpg,NA,NA,NA,NA,NA,NA,NA,NA,NA,NA,NA,NA,NA,fixation,NA,NA,NA,NA,NA,NA,sub3
d3-animate-choice,267,1039350,0.0-76.0-0.44,FALSE,TRUE,TRUE,FALSE,"""event"",""trial"",""time""
""fullscreenenter"",""5"",""33998""
","
","
","""event"",""trial"",""time""
""fullscreenenter"",""5"",""33998""
","
",771,NA,49,NA,NA,3000,1,NA,NA,images/earth.jpg,images/rocket1,images/rocket2,null,images/rocket2,NA,1,real,null,1,NA,NA,NA,sub3
d3-animate-choice,268,1042537,0.0-76.0-1.44,FALSE,TRUE,TRUE,FALSE,"""event"",""trial"",""time""
""fullscreenenter"",""5"",""33998""
","
","
","""event"",""trial"",""time""
""fullscreenenter"",""5"",""33998""
","
",1185,NA,48,NA,NA,3000,1,NA,NA,images/redplanet1.jpg,images/alien2,images/alien1,images/rocket2,images/alien2,images/nothing.png,2,real,false,2,rare,0,2020-06-11T22:19:03Z,sub3
two-step-fixation,269,1043539,0.0-76.0-2.44,FALSE,TRUE,TRUE,FALSE,"""event"",""trial"",""time""
""fullscreenenter"",""5"",""33998""
","
","
","""event"",""trial"",""time""
""fullscreenenter"",""5"",""33998""
","
",NA,images/earth.jpg,NA,NA,NA,NA,NA,NA,NA,NA,NA,NA,NA,NA,NA,fixation,NA,NA,NA,NA,NA,NA,sub3
d3-animate-choice,270,1046279,0.0-76.0-0.45,FALSE,TRUE,TRUE,FALSE,"""event"",""trial"",""time""
""fullscreenenter"",""5"",""33998""
","
","
","""event"",""trial"",""time""
""fullscreenenter"",""5"",""33998""
","
",739.0000000002328,NA,49,NA,NA,3000,1,NA,NA,images/earth.jpg,images/rocket1,images/rocket2,null,images/rocket2,NA,1,real,null,1,NA,NA,NA,sub3
d3-animate-choice,271,1048900,0.0-76.0-1.45,FALSE,TRUE,TRUE,FALSE,"""event"",""trial"",""time""
""fullscreenenter"",""5"",""33998""
","
","
","""event"",""trial"",""time""
""fullscreenenter"",""5"",""33998""
","
",618,NA,48,NA,NA,3000,1,1414,48,images/redplanet1.jpg,images/alien2,images/alien1,images/rocket2,images/alien2,images/t.png,2,real,false,2,rare,1,2020-06-11T22:19:10Z,sub3
two-step-fixation,272,1049902,0.0-76.0-2.45,FALSE,TRUE,TRUE,FALSE,"""event"",""trial"",""time""
""fullscreenenter"",""5"",""33998""
","
","
","""event"",""trial"",""time""
""fullscreenenter"",""5"",""33998""
","
",NA,images/earth.jpg,NA,NA,NA,NA,NA,NA,NA,NA,NA,NA,NA,NA,NA,fixation,NA,NA,NA,NA,NA,NA,sub3
d3-animate-choice,273,1052826,0.0-76.0-0.46,FALSE,TRUE,TRUE,FALSE,"""event"",""trial"",""time""
""fullscreenenter"",""5"",""33998""
","
","
","""event"",""trial"",""time""
""fullscreenenter"",""5"",""33998""
","
",922,NA,49,NA,NA,3000,1,NA,NA,images/earth.jpg,images/rocket1,images/rocket2,null,images/rocket2,NA,1,real,null,1,NA,NA,NA,sub3
d3-animate-choice,274,1056671,0.0-76.0-1.46,FALSE,TRUE,TRUE,FALSE,"""event"",""trial"",""time""
""fullscreenenter"",""5"",""33998""
","
","
","""event"",""trial"",""time""
""fullscreenenter"",""5"",""33998""
","
",1842.9999999997672,NA,49,NA,NA,3000,1,NA,NA,images/purpleplanet.jpg,images/alien4,images/alien3,images/rocket2,images/alien3,images/nothing.png,2,real,true,1,common,0,2020-06-11T22:19:17Z,sub3
two-step-fixation,275,1057673,0.0-76.0-2.46,FALSE,TRUE,TRUE,FALSE,"""event"",""trial"",""time""
""fullscreenenter"",""5"",""33998""
","
","
","""event"",""trial"",""time""
""fullscreenenter"",""5"",""33998""
","
",NA,images/earth.jpg,NA,NA,NA,NA,NA,NA,NA,NA,NA,NA,NA,NA,NA,fixation,NA,NA,NA,NA,NA,NA,sub3
d3-animate-choice,276,1060316,0.0-76.0-0.47,FALSE,TRUE,TRUE,FALSE,"""event"",""trial"",""time""
""fullscreenenter"",""5"",""33998""
","
","
","""event"",""trial"",""time""
""fullscreenenter"",""5"",""33998""
","
",640,NA,48,NA,NA,3000,1,NA,NA,images/earth.jpg,images/rocket1,images/rocket2,null,images/rocket1,NA,1,real,null,2,NA,NA,NA,sub3
d3-animate-choice,277,1062890,0.0-76.0-1.47,FALSE,TRUE,TRUE,FALSE,"""event"",""trial"",""time""
""fullscreenenter"",""5"",""33998""
","
","
","""event"",""trial"",""time""
""fullscreenenter"",""5"",""33998""
","
",572,NA,48,NA,NA,3000,1,NA,NA,images/redplanet1.jpg,images/alien2,images/alien1,images/rocket1,images/alien2,images/t.png,2,real,true,2,common,1,2020-06-11T22:19:24Z,sub3
two-step-fixation,278,1063892,0.0-76.0-2.47,FALSE,TRUE,TRUE,FALSE,"""event"",""trial"",""time""
""fullscreenenter"",""5"",""33998""
","
","
","""event"",""trial"",""time""
""fullscreenenter"",""5"",""33998""
","
",NA,images/earth.jpg,NA,NA,NA,NA,NA,NA,NA,NA,NA,NA,NA,NA,NA,fixation,NA,NA,NA,NA,NA,NA,sub3
d3-animate-choice,279,1066494,0.0-76.0-0.48,FALSE,TRUE,TRUE,FALSE,"""event"",""trial"",""time""
""fullscreenenter"",""5"",""33998""
","
","
","""event"",""trial"",""time""
""fullscreenenter"",""5"",""33998""
","
",600,NA,49,NA,NA,3000,1,NA,NA,images/earth.jpg,images/rocket1,images/rocket2,null,images/rocket2,NA,1,real,null,1,NA,NA,NA,sub3
d3-animate-choice,280,1069266,0.0-76.0-1.48,FALSE,TRUE,TRUE,FALSE,"""event"",""trial"",""time""
""fullscreenenter"",""5"",""33998""
","
","
","""event"",""trial"",""time""
""fullscreenenter"",""5"",""33998""
","
",770,NA,48,NA,NA,3000,1,NA,NA,images/redplanet1.jpg,images/alien2,images/alien1,images/rocket2,images/alien2,images/nothing.png,2,real,false,2,rare,0,2020-06-11T22:19:30Z,sub3
two-step-fixation,281,1070268,0.0-76.0-2.48,FALSE,TRUE,TRUE,FALSE,"""event"",""trial"",""time""
""fullscreenenter"",""5"",""33998""
","
","
","""event"",""trial"",""time""
""fullscreenenter"",""5"",""33998""
","
",NA,images/earth.jpg,NA,NA,NA,NA,NA,NA,NA,NA,NA,NA,NA,NA,NA,fixation,NA,NA,NA,NA,NA,NA,sub3
d3-animate-choice,282,1073237,0.0-76.0-0.49,FALSE,TRUE,TRUE,FALSE,"""event"",""trial"",""time""
""fullscreenenter"",""5"",""33998""
","
","
","""event"",""trial"",""time""
""fullscreenenter"",""5"",""33998""
","
",967,NA,49,NA,NA,3000,1,NA,NA,images/earth.jpg,images/rocket1,images/rocket2,null,images/rocket2,NA,1,real,null,1,NA,NA,NA,sub3
d3-animate-choice,283,1076008,0.0-76.0-1.49,FALSE,TRUE,TRUE,FALSE,"""event"",""trial"",""time""
""fullscreenenter"",""5"",""33998""
","
","
","""event"",""trial"",""time""
""fullscreenenter"",""5"",""33998""
","
",769,NA,48,NA,NA,3000,1,NA,NA,images/purpleplanet.jpg,images/alien4,images/alien3,images/rocket2,images/alien4,images/nothing.png,2,real,true,2,common,0,2020-06-11T22:19:37Z,sub3
two-step-fixation,284,1077010,0.0-76.0-2.49,FALSE,TRUE,TRUE,FALSE,"""event"",""trial"",""time""
""fullscreenenter"",""5"",""33998""
","
","
","""event"",""trial"",""time""
""fullscreenenter"",""5"",""33998""
","
",NA,images/earth.jpg,NA,NA,NA,NA,NA,NA,NA,NA,NA,NA,NA,NA,NA,fixation,NA,NA,NA,NA,NA,NA,sub3
audio-button-response-2,285,1164091,0.0-77.0,FALSE,TRUE,TRUE,FALSE,"""event"",""trial"",""time""
""fullscreenenter"",""5"",""33998""
","
","
","""event"",""trial"",""time""
""fullscreenenter"",""5"",""33998""
","
",87077,audio/instructions/break_1.wav,NA,0,NA,NA,NA,NA,NA,NA,NA,NA,NA,NA,NA,NA,NA,NA,NA,NA,NA,NA,sub3
d3-animate-choice,286,1168094,0.0-78.0-0.0,FALSE,TRUE,TRUE,FALSE,"""event"",""trial"",""time""
""fullscreenenter"",""5"",""33998""
","
","
","""event"",""trial"",""time""
""fullscreenenter"",""5"",""33998""
","
",null,NA,null,NA,NA,3000,0,NA,NA,images/earth.jpg,images/rocket1,images/rocket2,null,NA,NA,1,real,null,NA,NA,NA,NA,sub3
d3-animate-choice,287,1169097,0.0-78.0-1.0,FALSE,TRUE,TRUE,FALSE,"""event"",""trial"",""time""
""fullscreenenter"",""5"",""33998""
","
","
","""event"",""trial"",""time""
""fullscreenenter"",""5"",""33998""
","
",null,NA,null,NA,NA,0,0,NA,NA,images/earth.jpg,images/rocket1,images/rocket2,null,NA,NA,2,real,null,NA,NA,0,2020-06-11T22:21:10Z,sub3
two-step-fixation,288,1170099,0.0-78.0-2.0,FALSE,TRUE,TRUE,FALSE,"""event"",""trial"",""time""
""fullscreenenter"",""5"",""33998""
","
","
","""event"",""trial"",""time""
""fullscreenenter"",""5"",""33998""
","
",NA,images/earth.jpg,NA,NA,NA,NA,NA,NA,NA,NA,NA,NA,NA,NA,NA,fixation,NA,NA,NA,NA,NA,NA,sub3
d3-animate-choice,289,1173110,0.0-78.0-0.1,FALSE,TRUE,TRUE,FALSE,"""event"",""trial"",""time""
""fullscreenenter"",""5"",""33998""
","
","
","""event"",""trial"",""time""
""fullscreenenter"",""5"",""33998""
","
",1008.9999999997672,NA,49,NA,NA,3000,1,NA,NA,images/earth.jpg,images/rocket1,images/rocket2,null,images/rocket2,NA,1,real,null,1,NA,NA,NA,sub3
