trial_type,trial_index,time_elapsed,internal_node_id,rocket_sides,red_planet_first_rocket,red_display_order,purple_display_order,interactions,blur_events,focus_events,fullscreenenter_events,fullscreenexit_events,rt,stimulus,key_press,button_pressed,success,duration,valid_pressed,rts,keys,planet_text,right_text,left_text,center_text,chosen_text,reward_text,trial_stage,practice_trial,transition_type,choice,transition,reward,timestamp,subject_id
pavlovia,0,16,0.0-0.0,TRUE,TRUE,FALSE,FALSE,"
","
","
","
","
",NA,NA,NA,NA,NA,NA,NA,NA,NA,NA,NA,NA,NA,NA,NA,NA,NA,NA,NA,NA,NA,NA,sub105
html-keyboard-response,1,1723,0.0-1.0,TRUE,TRUE,FALSE,FALSE,"
","
","
","
","
",1704.7899999961373,Welcome! Press the space bar to begin.,32,NA,NA,NA,NA,NA,NA,NA,NA,NA,NA,NA,NA,NA,NA,NA,NA,NA,NA,NA,sub105
audio-keyboard-response,2,8649,0.0-2.0,TRUE,TRUE,FALSE,FALSE,"
","
","
","
","
",6629,audio/beep_loop.wav,32,NA,NA,NA,NA,NA,NA,NA,NA,NA,NA,NA,NA,NA,NA,NA,NA,NA,NA,NA,sub105
audio-button-response,3,11391,0.0-3.0,TRUE,TRUE,FALSE,FALSE,"
","
","
","
","
",NaN,audio/fish.mp3,NA,1,NA,NA,NA,NA,NA,NA,NA,NA,NA,NA,NA,NA,NA,NA,NA,NA,NA,NA,sub105
audio-button-response,4,15103,0.0-4.0,TRUE,TRUE,FALSE,FALSE,"""event"",""trial"",""time""
""fullscreenenter"",""5"",""20803""
","
","
","""event"",""trial"",""time""
""fullscreenenter"",""5"",""20803""
","
",NaN,audio/tiger.mp3,NA,4,NA,NA,NA,NA,NA,NA,NA,NA,NA,NA,NA,NA,NA,NA,NA,NA,NA,NA,sub105
fullscreen,5,21690,0.0-5.0,TRUE,TRUE,FALSE,FALSE,"""event"",""trial"",""time""
""fullscreenenter"",""5"",""20803""
","
","
","""event"",""trial"",""time""
""fullscreenenter"",""5"",""20803""
","
",NA,NA,NA,NA,TRUE,NA,NA,NA,NA,NA,NA,NA,NA,NA,NA,NA,NA,NA,NA,NA,NA,NA,sub105
d3-instructions,6,35667,0.0-6.0,TRUE,TRUE,FALSE,FALSE,"""event"",""trial"",""time""
""fullscreenenter"",""5"",""20803""
","
","
","""event"",""trial"",""time""
""fullscreenenter"",""5"",""20803""
","
",NA,NA,NA,NA,NA,NA,NA,NA,NA,NA,NA,NA,NA,NA,NA,NA,NA,NA,NA,NA,NA,NA,sub105
d3-instructions,7,46161,0.0-7.0,TRUE,TRUE,FALSE,FALSE,"""event"",""trial"",""time""
""fullscreenenter"",""5"",""20803""
","
","
","""event"",""trial"",""time""
""fullscreenenter"",""5"",""20803""
","
",NA,NA,NA,NA,NA,NA,NA,NA,NA,NA,NA,NA,NA,NA,NA,NA,NA,NA,NA,NA,NA,NA,sub105
d3-instructions,8,54740,0.0-8.0,TRUE,TRUE,FALSE,FALSE,"""event"",""trial"",""time""
""fullscreenenter"",""5"",""20803""
","
","
","""event"",""trial"",""time""
""fullscreenenter"",""5"",""20803""
","
",NA,NA,NA,NA,NA,NA,NA,NA,NA,NA,NA,NA,NA,NA,NA,NA,NA,NA,NA,NA,NA,NA,sub105
d3-instructions,9,67493,0.0-9.0,TRUE,TRUE,FALSE,FALSE,"""event"",""trial"",""time""
""fullscreenenter"",""5"",""20803""
","
","
","""event"",""trial"",""time""
""fullscreenenter"",""5"",""20803""
","
",NA,NA,NA,NA,NA,NA,NA,NA,NA,NA,NA,NA,NA,NA,NA,NA,NA,NA,NA,NA,NA,NA,sub105
d3-instructions,10,87961,0.0-10.0,TRUE,TRUE,FALSE,FALSE,"""event"",""trial"",""time""
""fullscreenenter"",""5"",""20803""
","
","
","""event"",""trial"",""time""
""fullscreenenter"",""5"",""20803""
","
",NA,NA,NA,NA,NA,NA,NA,NA,NA,NA,NA,NA,NA,NA,NA,NA,NA,NA,NA,NA,NA,NA,sub105
d3-animate-choice,11,91430,0.0-11.0,TRUE,TRUE,FALSE,FALSE,"""event"",""trial"",""time""
""fullscreenenter"",""5"",""20803""
","
","
","""event"",""trial"",""time""
""fullscreenenter"",""5"",""20803""
","
",1455.9300000037183,NA,49,NA,NA,3000,1,3040.2050000047893,48,images/tutgreenplanet.jpg,images/tutalien1,images/tutalien2,null,images/tutalien2,NA,NA,practice,null,NA,NA,NA,NA,sub105
d3-animate-choice,12,95440,0.0-12.0,TRUE,TRUE,FALSE,FALSE,"""event"",""trial"",""time""
""fullscreenenter"",""5"",""20803""
","
","
","""event"",""trial"",""time""
""fullscreenenter"",""5"",""20803""
","
",1991.0600000002887,NA,48,NA,NA,3000,1,NA,NA,images/tutgreenplanet.jpg,images/tutalien1,images/tutalien2,null,images/tutalien1,NA,NA,practice,null,NA,NA,NA,NA,sub105
d3-animate-choice,13,104051,0.0-13.0,TRUE,TRUE,FALSE,FALSE,"""event"",""trial"",""time""
""fullscreenenter"",""5"",""20803""
","
","
","""event"",""trial"",""time""
""fullscreenenter"",""5"",""20803""
","
",6601.300000002084,NA,48,NA,NA,3000,1,NA,NA,images/tutgreenplanet.jpg,images/tutalien1,images/tutalien2,null,images/tutalien1,NA,NA,practice,null,NA,NA,NA,NA,sub105
d3-animate-choice,14,108340,0.0-14.0,TRUE,TRUE,FALSE,FALSE,"""event"",""trial"",""time""
""fullscreenenter"",""5"",""20803""
","
","
","""event"",""trial"",""time""
""fullscreenenter"",""5"",""20803""
","
",2270.519999998214,NA,49,NA,NA,3000,1,NA,NA,images/tutgreenplanet.jpg,images/tutalien1,images/tutalien2,null,images/tutalien2,NA,NA,practice,null,NA,NA,NA,NA,sub105
d3-instructions,15,116813,0.0-15.0,TRUE,TRUE,FALSE,FALSE,"""event"",""trial"",""time""
""fullscreenenter"",""5"",""20803""
","
","
","""event"",""trial"",""time""
""fullscreenenter"",""5"",""20803""
","
",NA,NA,NA,NA,NA,NA,NA,NA,NA,NA,NA,NA,NA,NA,NA,NA,NA,NA,NA,NA,NA,NA,sub105
d3-instructions,16,125416,0.0-16.0,TRUE,TRUE,FALSE,FALSE,"""event"",""trial"",""time""
""fullscreenenter"",""5"",""20803""
","
","
","""event"",""trial"",""time""
""fullscreenenter"",""5"",""20803""
","
",NA,NA,NA,NA,NA,NA,NA,NA,NA,NA,NA,NA,NA,NA,NA,NA,NA,NA,NA,NA,NA,NA,sub105
d3-instructions,17,135509,0.0-17.0,TRUE,TRUE,FALSE,FALSE,"""event"",""trial"",""time""
""fullscreenenter"",""5"",""20803""
","
","
","""event"",""trial"",""time""
""fullscreenenter"",""5"",""20803""
","
",NA,NA,NA,NA,NA,NA,NA,NA,NA,NA,NA,NA,NA,NA,NA,NA,NA,NA,NA,NA,NA,NA,sub105
d3-instructions,18,149743,0.0-18.0,TRUE,TRUE,FALSE,FALSE,"""event"",""trial"",""time""
""fullscreenenter"",""5"",""20803""
","
","
","""event"",""trial"",""time""
""fullscreenenter"",""5"",""20803""
","
",NA,NA,NA,NA,NA,NA,NA,NA,NA,NA,NA,NA,NA,NA,NA,NA,NA,NA,NA,NA,NA,NA,sub105
d3-instructions,19,165165,0.0-19.0,TRUE,TRUE,FALSE,FALSE,"""event"",""trial"",""time""
""fullscreenenter"",""5"",""20803""
","
","
","""event"",""trial"",""time""
""fullscreenenter"",""5"",""20803""
","
",NA,NA,NA,NA,NA,NA,NA,NA,NA,NA,NA,NA,NA,NA,NA,NA,NA,NA,NA,NA,NA,NA,sub105
d3-animate-choice,20,168665,0.0-20.0,TRUE,TRUE,FALSE,FALSE,"""event"",""trial"",""time""
""fullscreenenter"",""5"",""20803""
","
","
","""event"",""trial"",""time""
""fullscreenenter"",""5"",""20803""
","
",1480.6099999987055,NA,49,NA,NA,3000,1,NA,NA,images/tutyellowplanet.jpg,null,images/tutalien3,null,images/tutalien3,images/t.png,NA,practice,null,NA,NA,NA,NA,sub105
d3-animate-choice,21,171572,0.0-21.0,TRUE,TRUE,FALSE,FALSE,"""event"",""trial"",""time""
""fullscreenenter"",""5"",""20803""
","
","
","""event"",""trial"",""time""
""fullscreenenter"",""5"",""20803""
","
",891.1300000036135,NA,49,NA,NA,3000,1,NA,NA,images/tutyellowplanet.jpg,null,images/tutalien3,null,images/tutalien3,images/t.png,NA,practice,null,NA,NA,NA,NA,sub105
d3-animate-choice,22,174006,0.0-22.0,TRUE,TRUE,FALSE,FALSE,"""event"",""trial"",""time""
""fullscreenenter"",""5"",""20803""
","
","
","""event"",""trial"",""time""
""fullscreenenter"",""5"",""20803""
","
",423.48499999934575,NA,49,NA,NA,3000,1,NA,NA,images/tutyellowplanet.jpg,null,images/tutalien3,null,images/tutalien3,images/nothing.png,NA,practice,null,NA,NA,NA,NA,sub105
d3-animate-choice,23,176426,0.0-23.0,TRUE,TRUE,FALSE,FALSE,"""event"",""trial"",""time""
""fullscreenenter"",""5"",""20803""
","
","
","""event"",""trial"",""time""
""fullscreenenter"",""5"",""20803""
","
",404.8750000001746,NA,49,NA,NA,3000,1,NA,NA,images/tutyellowplanet.jpg,null,images/tutalien3,null,images/tutalien3,images/nothing.png,NA,practice,null,NA,NA,NA,NA,sub105
d3-animate-choice,24,178717,0.0-24.0,TRUE,TRUE,FALSE,FALSE,"""event"",""trial"",""time""
""fullscreenenter"",""5"",""20803""
","
","
","""event"",""trial"",""time""
""fullscreenenter"",""5"",""20803""
","
",283.2449999987148,NA,49,NA,NA,3000,1,NA,NA,images/tutyellowplanet.jpg,null,images/tutalien3,null,images/tutalien3,images/t.png,NA,practice,null,NA,NA,NA,NA,sub105
d3-animate-choice,25,180997,0.0-25.0,TRUE,TRUE,FALSE,FALSE,"""event"",""trial"",""time""
""fullscreenenter"",""5"",""20803""
","
","
","""event"",""trial"",""time""
""fullscreenenter"",""5"",""20803""
","
",267.7400000029593,NA,49,NA,NA,3000,1,NA,NA,images/tutyellowplanet.jpg,null,images/tutalien3,null,images/tutalien3,images/t.png,NA,practice,null,NA,NA,NA,NA,sub105
d3-animate-choice,26,183347,0.0-26.0,TRUE,TRUE,FALSE,FALSE,"""event"",""trial"",""time""
""fullscreenenter"",""5"",""20803""
","
","
","""event"",""trial"",""time""
""fullscreenenter"",""5"",""20803""
","
",328.27499999984866,NA,49,NA,NA,3000,1,NA,NA,images/tutyellowplanet.jpg,null,images/tutalien3,null,images/tutalien3,images/t.png,NA,practice,null,NA,NA,NA,NA,sub105
d3-animate-choice,27,185522,0.0-27.0,TRUE,TRUE,FALSE,FALSE,"""event"",""trial"",""time""
""fullscreenenter"",""5"",""20803""
","
","
","""event"",""trial"",""time""
""fullscreenenter"",""5"",""20803""
","
",167.65999999915948,NA,49,NA,NA,3000,1,NA,NA,images/tutyellowplanet.jpg,null,images/tutalien3,null,images/tutalien3,images/t.png,NA,practice,null,NA,NA,NA,NA,sub105
d3-animate-choice,28,187856,0.0-28.0,TRUE,TRUE,FALSE,FALSE,"""event"",""trial"",""time""
""fullscreenenter"",""5"",""20803""
","
","
","""event"",""trial"",""time""
""fullscreenenter"",""5"",""20803""
","
",312.4900000038906,NA,49,NA,NA,3000,1,NA,NA,images/tutyellowplanet.jpg,null,images/tutalien3,null,images/tutalien3,images/t.png,NA,practice,null,NA,NA,NA,NA,sub105
d3-animate-choice,29,190247,0.0-29.0,TRUE,TRUE,FALSE,FALSE,"""event"",""trial"",""time""
""fullscreenenter"",""5"",""20803""
","
","
","""event"",""trial"",""time""
""fullscreenenter"",""5"",""20803""
","
",381.9549999971059,NA,49,NA,NA,3000,1,NA,NA,images/tutyellowplanet.jpg,null,images/tutalien3,null,images/tutalien3,images/t.png,NA,practice,null,NA,NA,NA,NA,sub105
d3-instructions,30,197924,0.0-30.0,TRUE,TRUE,FALSE,FALSE,"""event"",""trial"",""time""
""fullscreenenter"",""5"",""20803""
","
","
","""event"",""trial"",""time""
""fullscreenenter"",""5"",""20803""
","
",NA,NA,NA,NA,NA,NA,NA,NA,NA,NA,NA,NA,NA,NA,NA,NA,NA,NA,NA,NA,NA,NA,sub105
d3-instructions,31,209110,0.0-31.0,TRUE,TRUE,FALSE,FALSE,"""event"",""trial"",""time""
""fullscreenenter"",""5"",""20803""
","
","
","""event"",""trial"",""time""
""fullscreenenter"",""5"",""20803""
","
",NA,NA,NA,NA,NA,NA,NA,NA,NA,NA,NA,NA,NA,NA,NA,NA,NA,NA,NA,NA,NA,NA,sub105
d3-instructions,32,222961,0.0-32.0,TRUE,TRUE,FALSE,FALSE,"""event"",""trial"",""time""
""fullscreenenter"",""5"",""20803""
","
","
","""event"",""trial"",""time""
""fullscreenenter"",""5"",""20803""
","
",NA,NA,NA,NA,NA,NA,NA,NA,NA,NA,NA,NA,NA,NA,NA,NA,NA,NA,NA,NA,NA,NA,sub105
d3-instructions,33,234818,0.0-33.0,TRUE,TRUE,FALSE,FALSE,"""event"",""trial"",""time""
""fullscreenenter"",""5"",""20803""
","
","
","""event"",""trial"",""time""
""fullscreenenter"",""5"",""20803""
","
",NA,NA,NA,NA,NA,NA,NA,NA,NA,NA,NA,NA,NA,NA,NA,NA,NA,NA,NA,NA,NA,NA,sub105
d3-animate-choice,34,238435,0.0-34.0,TRUE,TRUE,FALSE,FALSE,"""event"",""trial"",""time""
""fullscreenenter"",""5"",""20803""
","
","
","""event"",""trial"",""time""
""fullscreenenter"",""5"",""20803""
","
",1601.345000002766,NA,48,NA,NA,3000,1,NA,NA,images/tutgreenplanet.jpg,images/tutalien1,images/tutalien2,null,images/tutalien1,images/nothing.png,NA,practice,null,NA,NA,NA,NA,sub105
d3-animate-choice,35,241860,0.0-35.0,TRUE,TRUE,FALSE,FALSE,"""event"",""trial"",""time""
""fullscreenenter"",""5"",""20803""
","
","
","""event"",""trial"",""time""
""fullscreenenter"",""5"",""20803""
","
",1418.6750000008033,NA,48,NA,NA,3000,1,NA,NA,images/tutgreenplanet.jpg,images/tutalien1,images/tutalien2,null,images/tutalien1,images/t.png,NA,practice,null,NA,NA,NA,NA,sub105
d3-animate-choice,36,244630,0.0-36.0,TRUE,TRUE,FALSE,FALSE,"""event"",""trial"",""time""
""fullscreenenter"",""5"",""20803""
","
","
","""event"",""trial"",""time""
""fullscreenenter"",""5"",""20803""
","
",762.0150000002468,NA,48,NA,NA,3000,1,NA,NA,images/tutgreenplanet.jpg,images/tutalien1,images/tutalien2,null,images/tutalien1,images/nothing.png,NA,practice,null,NA,NA,NA,NA,sub105
d3-animate-choice,37,247036,0.0-37.0,TRUE,TRUE,FALSE,FALSE,"""event"",""trial"",""time""
""fullscreenenter"",""5"",""20803""
","
","
","""event"",""trial"",""time""
""fullscreenenter"",""5"",""20803""
","
",387.1149999977206,NA,48,NA,NA,3000,1,NA,NA,images/tutgreenplanet.jpg,images/tutalien1,images/tutalien2,null,images/tutalien1,images/t.png,NA,practice,null,NA,NA,NA,NA,sub105
d3-animate-choice,38,249507,0.0-38.0,TRUE,TRUE,FALSE,FALSE,"""event"",""trial"",""time""
""fullscreenenter"",""5"",""20803""
","
","
","""event"",""trial"",""time""
""fullscreenenter"",""5"",""20803""
","
",455.30999999755295,NA,48,NA,NA,3000,1,NA,NA,images/tutgreenplanet.jpg,images/tutalien1,images/tutalien2,null,images/tutalien1,images/nothing.png,NA,practice,null,NA,NA,NA,NA,sub105
d3-animate-choice,39,251950,0.0-39.0,TRUE,TRUE,FALSE,FALSE,"""event"",""trial"",""time""
""fullscreenenter"",""5"",""20803""
","
","
","""event"",""trial"",""time""
""fullscreenenter"",""5"",""20803""
","
",431.3899999979185,NA,48,NA,NA,3000,1,NA,NA,images/tutgreenplanet.jpg,images/tutalien1,images/tutalien2,null,images/tutalien1,images/t.png,NA,practice,null,NA,NA,NA,NA,sub105
d3-animate-choice,40,254455,0.0-40.0,TRUE,TRUE,FALSE,FALSE,"""event"",""trial"",""time""
""fullscreenenter"",""5"",""20803""
","
","
","""event"",""trial"",""time""
""fullscreenenter"",""5"",""20803""
","
",490.06999999983236,NA,48,NA,NA,3000,1,NA,NA,images/tutgreenplanet.jpg,images/tutalien1,images/tutalien2,null,images/tutalien1,images/nothing.png,NA,practice,null,NA,NA,NA,NA,sub105
d3-animate-choice,41,257015,0.0-41.0,TRUE,TRUE,FALSE,FALSE,"""event"",""trial"",""time""
""fullscreenenter"",""5"",""20803""
","
","
","""event"",""trial"",""time""
""fullscreenenter"",""5"",""20803""
","
",539.5449999996345,NA,48,NA,NA,3000,1,NA,NA,images/tutgreenplanet.jpg,images/tutalien1,images/tutalien2,null,images/tutalien1,images/nothing.png,NA,practice,null,NA,NA,NA,NA,sub105
d3-animate-choice,42,262961,0.0-42.0,TRUE,TRUE,FALSE,FALSE,"""event"",""trial"",""time""
""fullscreenenter"",""5"",""20803""
","
","
","""event"",""trial"",""time""
""fullscreenenter"",""5"",""20803""
","
",3938.0900000032852,NA,49,NA,NA,3000,1,NA,NA,images/tutgreenplanet.jpg,images/tutalien1,images/tutalien2,null,images/tutalien2,images/t.png,NA,practice,null,NA,NA,NA,NA,sub105
d3-animate-choice,43,267392,0.0-43.0,TRUE,TRUE,FALSE,FALSE,"""event"",""trial"",""time""
""fullscreenenter"",""5"",""20803""
","
","
","""event"",""trial"",""time""
""fullscreenenter"",""5"",""20803""
","
",2426.255000005767,NA,49,NA,NA,3000,1,NA,NA,images/tutgreenplanet.jpg,images/tutalien1,images/tutalien2,null,images/tutalien2,images/t.png,NA,practice,null,NA,NA,NA,NA,sub105
d3-instructions,44,282270,0.0-44.0,TRUE,TRUE,FALSE,FALSE,"""event"",""trial"",""time""
""fullscreenenter"",""5"",""20803""
","
","
","""event"",""trial"",""time""
""fullscreenenter"",""5"",""20803""
","
",NA,NA,NA,NA,NA,NA,NA,NA,NA,NA,NA,NA,NA,NA,NA,NA,NA,NA,NA,NA,NA,NA,sub105
d3-instructions,45,289597,0.0-45.0,TRUE,TRUE,FALSE,FALSE,"""event"",""trial"",""time""
""fullscreenenter"",""5"",""20803""
","
","
","""event"",""trial"",""time""
""fullscreenenter"",""5"",""20803""
","
",NA,NA,NA,NA,NA,NA,NA,NA,NA,NA,NA,NA,NA,NA,NA,NA,NA,NA,NA,NA,NA,NA,sub105
d3-instructions,46,296180,0.0-46.0,TRUE,TRUE,FALSE,FALSE,"""event"",""trial"",""time""
""fullscreenenter"",""5"",""20803""
","
","
","""event"",""trial"",""time""
""fullscreenenter"",""5"",""20803""
","
",NA,NA,NA,NA,NA,NA,NA,NA,NA,NA,NA,NA,NA,NA,NA,NA,NA,NA,NA,NA,NA,NA,sub105
d3-instructions,47,314225,0.0-47.0,TRUE,TRUE,FALSE,FALSE,"""event"",""trial"",""time""
""fullscreenenter"",""5"",""20803""
","
","
","""event"",""trial"",""time""
""fullscreenenter"",""5"",""20803""
","
",NA,NA,NA,NA,NA,NA,NA,NA,NA,NA,NA,NA,NA,NA,NA,NA,NA,NA,NA,NA,NA,NA,sub105
d3-instructions,48,323538,0.0-48.0,TRUE,TRUE,FALSE,FALSE,"""event"",""trial"",""time""
""fullscreenenter"",""5"",""20803""
","
","
","""event"",""trial"",""time""
""fullscreenenter"",""5"",""20803""
","
",NA,NA,NA,NA,NA,NA,NA,NA,NA,NA,NA,NA,NA,NA,NA,NA,NA,NA,NA,NA,NA,NA,sub105
d3-instructions,49,352736,0.0-49.0,TRUE,TRUE,FALSE,FALSE,"""event"",""trial"",""time""
""fullscreenenter"",""5"",""20803""
","
","
","""event"",""trial"",""time""
""fullscreenenter"",""5"",""20803""
","
",NA,NA,NA,NA,NA,NA,NA,NA,NA,NA,NA,NA,NA,NA,NA,NA,NA,NA,NA,NA,NA,NA,sub105
d3-instructions,50,366981,0.0-50.0,TRUE,TRUE,FALSE,FALSE,"""event"",""trial"",""time""
""fullscreenenter"",""5"",""20803""
","
","
","""event"",""trial"",""time""
""fullscreenenter"",""5"",""20803""
","
",NA,NA,NA,NA,NA,NA,NA,NA,NA,NA,NA,NA,NA,NA,NA,NA,NA,NA,NA,NA,NA,NA,sub105
d3-instructions,51,372958,0.0-51.0,TRUE,TRUE,FALSE,FALSE,"""event"",""trial"",""time""
""fullscreenenter"",""5"",""20803""
","
","
","""event"",""trial"",""time""
""fullscreenenter"",""5"",""20803""
","
",NA,NA,NA,NA,NA,NA,NA,NA,NA,NA,NA,NA,NA,NA,NA,NA,NA,NA,NA,NA,NA,NA,sub105
d3-instructions,52,379941,0.0-52.0,TRUE,TRUE,FALSE,FALSE,"""event"",""trial"",""time""
""fullscreenenter"",""5"",""20803""
","
","
","""event"",""trial"",""time""
""fullscreenenter"",""5"",""20803""
","
",NA,NA,NA,NA,NA,NA,NA,NA,NA,NA,NA,NA,NA,NA,NA,NA,NA,NA,NA,NA,NA,NA,sub105
d3-instructions,53,395238,0.0-53.0,TRUE,TRUE,FALSE,FALSE,"""event"",""trial"",""time""
""fullscreenenter"",""5"",""20803""
","
","
","""event"",""trial"",""time""
""fullscreenenter"",""5"",""20803""
","
",NA,NA,NA,NA,NA,NA,NA,NA,NA,NA,NA,NA,NA,NA,NA,NA,NA,NA,NA,NA,NA,NA,sub105
d3-instructions,54,409057,0.0-54.0,TRUE,TRUE,FALSE,FALSE,"""event"",""trial"",""time""
""fullscreenenter"",""5"",""20803""
","
","
","""event"",""trial"",""time""
""fullscreenenter"",""5"",""20803""
","
",NA,NA,NA,NA,NA,NA,NA,NA,NA,NA,NA,NA,NA,NA,NA,NA,NA,NA,NA,NA,NA,NA,sub105
d3-instructions,55,421572,0.0-55.0,TRUE,TRUE,FALSE,FALSE,"""event"",""trial"",""time""
""fullscreenenter"",""5"",""20803""
","
","
","""event"",""trial"",""time""
""fullscreenenter"",""5"",""20803""
","
",NA,NA,NA,NA,NA,NA,NA,NA,NA,NA,NA,NA,NA,NA,NA,NA,NA,NA,NA,NA,NA,NA,sub105
d3-instructions,56,432490,0.0-56.0,TRUE,TRUE,FALSE,FALSE,"""event"",""trial"",""time""
""fullscreenenter"",""5"",""20803""
","
","
","""event"",""trial"",""time""
""fullscreenenter"",""5"",""20803""
","
",NA,NA,NA,NA,NA,NA,NA,NA,NA,NA,NA,NA,NA,NA,NA,NA,NA,NA,NA,NA,NA,NA,sub105
d3-instructions,57,444421,0.0-57.0,TRUE,TRUE,FALSE,FALSE,"""event"",""trial"",""time""
""fullscreenenter"",""5"",""20803""
","
","
","""event"",""trial"",""time""
""fullscreenenter"",""5"",""20803""
","
",NA,NA,NA,NA,NA,NA,NA,NA,NA,NA,NA,NA,NA,NA,NA,NA,NA,NA,NA,NA,NA,NA,sub105
d3-instructions,58,459357,0.0-58.0,TRUE,TRUE,FALSE,FALSE,"""event"",""trial"",""time""
""fullscreenenter"",""5"",""20803""
","
","
","""event"",""trial"",""time""
""fullscreenenter"",""5"",""20803""
","
",NA,NA,NA,NA,NA,NA,NA,NA,NA,NA,NA,NA,NA,NA,NA,NA,NA,NA,NA,NA,NA,NA,sub105
d3-instructions,59,469134,0.0-59.0,TRUE,TRUE,FALSE,FALSE,"""event"",""trial"",""time""
""fullscreenenter"",""5"",""20803""
","
","
","""event"",""trial"",""time""
""fullscreenenter"",""5"",""20803""
","
",NA,NA,NA,NA,NA,NA,NA,NA,NA,NA,NA,NA,NA,NA,NA,NA,NA,NA,NA,NA,NA,NA,sub105
d3-instructions,60,478611,0.0-60.0,TRUE,TRUE,FALSE,FALSE,"""event"",""trial"",""time""
""fullscreenenter"",""5"",""20803""
","
","
","""event"",""trial"",""time""
""fullscreenenter"",""5"",""20803""
","
",NA,NA,NA,NA,NA,NA,NA,NA,NA,NA,NA,NA,NA,NA,NA,NA,NA,NA,NA,NA,NA,NA,sub105
d3-animate-choice,61,482624,0.0-61.0-0.0,TRUE,TRUE,FALSE,FALSE,"""event"",""trial"",""time""
""fullscreenenter"",""5"",""20803""
","
","
","""event"",""trial"",""time""
""fullscreenenter"",""5"",""20803""
","
",2533.824999998673,NA,48,NA,NA,3000,1,NA,NA,images/earth.jpg,images/tutrocket1,images/tutrocket2,null,images/tutrocket1,NA,1,practice,null,2,NA,NA,NA,sub105
d3-animate-choice,62,486309,0.0-61.0-1.0,TRUE,TRUE,FALSE,FALSE,"""event"",""trial"",""time""
""fullscreenenter"",""5"",""20803""
","
","
","""event"",""trial"",""time""
""fullscreenenter"",""5"",""20803""
","
",1660.3499999982305,NA,48,NA,NA,3000,1,NA,NA,images/tutgreenplanet.jpg,images/tutalien2,images/tutalien1,images/tutrocket1,images/tutalien2,images/nothing.png,2,practice,true,2,common,0,2020-06-26T16:46:45Z,sub105
two-step-fixation,63,487340,0.0-61.0-2.0,TRUE,TRUE,FALSE,FALSE,"""event"",""trial"",""time""
""fullscreenenter"",""5"",""20803""
","
","
","""event"",""trial"",""time""
""fullscreenenter"",""5"",""20803""
","
",NA,images/earth.jpg,NA,NA,NA,NA,NA,NA,NA,NA,NA,NA,NA,NA,NA,fixation,NA,NA,NA,NA,NA,NA,sub105
d3-animate-choice,64,490991,0.0-61.0-0.1,TRUE,TRUE,FALSE,FALSE,"""event"",""trial"",""time""
""fullscreenenter"",""5"",""20803""
","
","
","""event"",""trial"",""time""
""fullscreenenter"",""5"",""20803""
","
",1640.1750000003958,NA,48,NA,NA,3000,1,NA,NA,images/earth.jpg,images/tutrocket1,images/tutrocket2,null,images/tutrocket1,NA,1,practice,null,2,NA,NA,NA,sub105
d3-animate-choice,65,494377,0.0-61.0-1.1,TRUE,TRUE,FALSE,FALSE,"""event"",""trial"",""time""
""fullscreenenter"",""5"",""20803""
","
","
","""event"",""trial"",""time""
""fullscreenenter"",""5"",""20803""
","
",1374.040000002482,NA,49,NA,NA,3000,1,NA,NA,images/tutgreenplanet.jpg,images/tutalien2,images/tutalien1,images/tutrocket1,images/tutalien1,images/nothing.png,2,practice,true,1,common,0,2020-06-26T16:46:53Z,sub105
two-step-fixation,66,495389,0.0-61.0-2.1,TRUE,TRUE,FALSE,FALSE,"""event"",""trial"",""time""
""fullscreenenter"",""5"",""20803""
","
","
","""event"",""trial"",""time""
""fullscreenenter"",""5"",""20803""
","
",NA,images/earth.jpg,NA,NA,NA,NA,NA,NA,NA,NA,NA,NA,NA,NA,NA,fixation,NA,NA,NA,NA,NA,NA,sub105
d3-animate-choice,67,498208,0.0-61.0-0.2,TRUE,TRUE,FALSE,FALSE,"""event"",""trial"",""time""
""fullscreenenter"",""5"",""20803""
","
","
","""event"",""trial"",""time""
""fullscreenenter"",""5"",""20803""
","
",807.6250000012806,NA,48,NA,NA,3000,1,NA,NA,images/earth.jpg,images/tutrocket1,images/tutrocket2,null,images/tutrocket1,NA,1,practice,null,2,NA,NA,NA,sub105
d3-animate-choice,68,501279,0.0-61.0-1.2,TRUE,TRUE,FALSE,FALSE,"""event"",""trial"",""time""
""fullscreenenter"",""5"",""20803""
","
","
","""event"",""trial"",""time""
""fullscreenenter"",""5"",""20803""
","
",1045.7600000008242,NA,48,NA,NA,3000,1,NA,NA,images/tutgreenplanet.jpg,images/tutalien2,images/tutalien1,images/tutrocket1,images/tutalien2,images/nothing.png,2,practice,true,2,common,0,2020-06-26T16:47:00Z,sub105
two-step-fixation,69,502289,0.0-61.0-2.2,TRUE,TRUE,FALSE,FALSE,"""event"",""trial"",""time""
""fullscreenenter"",""5"",""20803""
","
","
","""event"",""trial"",""time""
""fullscreenenter"",""5"",""20803""
","
",NA,images/earth.jpg,NA,NA,NA,NA,NA,NA,NA,NA,NA,NA,NA,NA,NA,fixation,NA,NA,NA,NA,NA,NA,sub105
d3-animate-choice,70,504902,0.0-61.0-0.3,TRUE,TRUE,FALSE,FALSE,"""event"",""trial"",""time""
""fullscreenenter"",""5"",""20803""
","
","
","""event"",""trial"",""time""
""fullscreenenter"",""5"",""20803""
","
",602.1099999998696,NA,48,NA,NA,3000,1,NA,NA,images/earth.jpg,images/tutrocket1,images/tutrocket2,null,images/tutrocket1,NA,1,practice,null,2,NA,NA,NA,sub105
d3-animate-choice,71,508747,0.0-61.0-1.3,TRUE,TRUE,FALSE,FALSE,"""event"",""trial"",""time""
""fullscreenenter"",""5"",""20803""
","
","
","""event"",""trial"",""time""
""fullscreenenter"",""5"",""20803""
","
",1831.0249999994412,NA,48,NA,NA,3000,1,NA,NA,images/tutyellowplanet.jpg,images/tutalien4,images/tutalien3,images/tutrocket1,images/tutalien4,images/nothing.png,2,practice,false,2,rare,0,2020-06-26T16:47:07Z,sub105
two-step-fixation,72,509756,0.0-61.0-2.3,TRUE,TRUE,FALSE,FALSE,"""event"",""trial"",""time""
""fullscreenenter"",""5"",""20803""
","
","
","""event"",""trial"",""time""
""fullscreenenter"",""5"",""20803""
","
",NA,images/earth.jpg,NA,NA,NA,NA,NA,NA,NA,NA,NA,NA,NA,NA,NA,fixation,NA,NA,NA,NA,NA,NA,sub105
d3-animate-choice,73,512512,0.0-61.0-0.4,TRUE,TRUE,FALSE,FALSE,"""event"",""trial"",""time""
""fullscreenenter"",""5"",""20803""
","
","
","""event"",""trial"",""time""
""fullscreenenter"",""5"",""20803""
","
",743.660000000149,NA,48,NA,NA,3000,1,NA,NA,images/earth.jpg,images/tutrocket1,images/tutrocket2,null,images/tutrocket1,NA,1,practice,null,2,NA,NA,NA,sub105
d3-animate-choice,74,515270,0.0-61.0-1.4,TRUE,TRUE,FALSE,FALSE,"""event"",""trial"",""time""
""fullscreenenter"",""5"",""20803""
","
","
","""event"",""trial"",""time""
""fullscreenenter"",""5"",""20803""
","
",743.6149999994086,NA,49,NA,NA,3000,1,NA,NA,images/tutgreenplanet.jpg,images/tutalien2,images/tutalien1,images/tutrocket1,images/tutalien1,images/t.png,2,practice,true,1,common,1,2020-06-26T16:47:14Z,sub105
two-step-fixation,75,516282,0.0-61.0-2.4,TRUE,TRUE,FALSE,FALSE,"""event"",""trial"",""time""
""fullscreenenter"",""5"",""20803""
","
","
","""event"",""trial"",""time""
""fullscreenenter"",""5"",""20803""
","
",NA,images/earth.jpg,NA,NA,NA,NA,NA,NA,NA,NA,NA,NA,NA,NA,NA,fixation,NA,NA,NA,NA,NA,NA,sub105
d3-animate-choice,76,518856,0.0-61.0-0.5,TRUE,TRUE,FALSE,FALSE,"""event"",""trial"",""time""
""fullscreenenter"",""5"",""20803""
","
","
","""event"",""trial"",""time""
""fullscreenenter"",""5"",""20803""
","
",561.9700000025332,NA,48,NA,NA,3000,1,NA,NA,images/earth.jpg,images/tutrocket1,images/tutrocket2,null,images/tutrocket1,NA,1,practice,null,2,NA,NA,NA,sub105
d3-animate-choice,77,521630,0.0-61.0-1.5,TRUE,TRUE,FALSE,FALSE,"""event"",""trial"",""time""
""fullscreenenter"",""5"",""20803""
","
","
","""event"",""trial"",""time""
""fullscreenenter"",""5"",""20803""
","
",760.775000002468,NA,49,NA,NA,3000,1,NA,NA,images/tutgreenplanet.jpg,images/tutalien2,images/tutalien1,images/tutrocket1,images/tutalien1,images/t.png,2,practice,true,1,common,1,2020-06-26T16:47:20Z,sub105
two-step-fixation,78,522637,0.0-61.0-2.5,TRUE,TRUE,FALSE,FALSE,"""event"",""trial"",""time""
""fullscreenenter"",""5"",""20803""
","
","
","""event"",""trial"",""time""
""fullscreenenter"",""5"",""20803""
","
",NA,images/earth.jpg,NA,NA,NA,NA,NA,NA,NA,NA,NA,NA,NA,NA,NA,fixation,NA,NA,NA,NA,NA,NA,sub105
d3-animate-choice,79,525082,0.0-61.0-0.6,TRUE,TRUE,FALSE,FALSE,"""event"",""trial"",""time""
""fullscreenenter"",""5"",""20803""
","
","
","""event"",""trial"",""time""
""fullscreenenter"",""5"",""20803""
","
",436.1750000026077,NA,48,NA,NA,3000,1,NA,NA,images/earth.jpg,images/tutrocket1,images/tutrocket2,null,images/tutrocket1,NA,1,practice,null,2,NA,NA,NA,sub105
d3-animate-choice,80,527734,0.0-61.0-1.6,TRUE,TRUE,FALSE,FALSE,"""event"",""trial"",""time""
""fullscreenenter"",""5"",""20803""
","
","
","""event"",""trial"",""time""
""fullscreenenter"",""5"",""20803""
","
",640.0500000016764,NA,49,NA,NA,3000,1,NA,NA,images/tutgreenplanet.jpg,images/tutalien2,images/tutalien1,images/tutrocket1,images/tutalien1,images/nothing.png,2,practice,true,1,common,0,2020-06-26T16:47:26Z,sub105
two-step-fixation,81,528745,0.0-61.0-2.6,TRUE,TRUE,FALSE,FALSE,"""event"",""trial"",""time""
""fullscreenenter"",""5"",""20803""
","
","
","""event"",""trial"",""time""
""fullscreenenter"",""5"",""20803""
","
",NA,images/earth.jpg,NA,NA,NA,NA,NA,NA,NA,NA,NA,NA,NA,NA,NA,fixation,NA,NA,NA,NA,NA,NA,sub105
d3-animate-choice,82,531156,0.0-61.0-0.7,TRUE,TRUE,FALSE,FALSE,"""event"",""trial"",""time""
""fullscreenenter"",""5"",""20803""
","
","
","""event"",""trial"",""time""
""fullscreenenter"",""5"",""20803""
","
",400.98500000021886,NA,48,NA,NA,3000,1,NA,NA,images/earth.jpg,images/tutrocket1,images/tutrocket2,null,images/tutrocket1,NA,1,practice,null,2,NA,NA,NA,sub105
d3-animate-choice,83,534225,0.0-61.0-1.7,TRUE,TRUE,FALSE,FALSE,"""event"",""trial"",""time""
""fullscreenenter"",""5"",""20803""
","
","
","""event"",""trial"",""time""
""fullscreenenter"",""5"",""20803""
","
",1055.6599999982864,NA,49,NA,NA,3000,1,NA,NA,images/tutyellowplanet.jpg,images/tutalien4,images/tutalien3,images/tutrocket1,images/tutalien3,images/nothing.png,2,practice,false,1,rare,0,2020-06-26T16:47:33Z,sub105
two-step-fixation,84,535236,0.0-61.0-2.7,TRUE,TRUE,FALSE,FALSE,"""event"",""trial"",""time""
""fullscreenenter"",""5"",""20803""
","
","
","""event"",""trial"",""time""
""fullscreenenter"",""5"",""20803""
","
",NA,images/earth.jpg,NA,NA,NA,NA,NA,NA,NA,NA,NA,NA,NA,NA,NA,fixation,NA,NA,NA,NA,NA,NA,sub105
d3-animate-choice,85,537687,0.0-61.0-0.8,TRUE,TRUE,FALSE,FALSE,"""event"",""trial"",""time""
""fullscreenenter"",""5"",""20803""
","
","
","""event"",""trial"",""time""
""fullscreenenter"",""5"",""20803""
","
",440.20499999902677,NA,48,NA,NA,3000,1,NA,NA,images/earth.jpg,images/tutrocket1,images/tutrocket2,null,images/tutrocket1,NA,1,practice,null,2,NA,NA,NA,sub105
d3-animate-choice,86,540300,0.0-61.0-1.8,TRUE,TRUE,FALSE,FALSE,"""event"",""trial"",""time""
""fullscreenenter"",""5"",""20803""
","
","
","""event"",""trial"",""time""
""fullscreenenter"",""5"",""20803""
","
",601.8049999984214,NA,49,NA,NA,3000,1,NA,NA,images/tutyellowplanet.jpg,images/tutalien4,images/tutalien3,images/tutrocket1,images/tutalien3,images/nothing.png,2,practice,false,1,rare,0,2020-06-26T16:47:39Z,sub105
two-step-fixation,87,541310,0.0-61.0-2.8,TRUE,TRUE,FALSE,FALSE,"""event"",""trial"",""time""
""fullscreenenter"",""5"",""20803""
","
","
","""event"",""trial"",""time""
""fullscreenenter"",""5"",""20803""
","
",NA,images/earth.jpg,NA,NA,NA,NA,NA,NA,NA,NA,NA,NA,NA,NA,NA,fixation,NA,NA,NA,NA,NA,NA,sub105
d3-animate-choice,88,543685,0.0-61.0-0.9,TRUE,TRUE,FALSE,FALSE,"""event"",""trial"",""time""
""fullscreenenter"",""5"",""20803""
","
","
","""event"",""trial"",""time""
""fullscreenenter"",""5"",""20803""
","
",364.54500000411645,NA,48,NA,NA,3000,1,NA,NA,images/earth.jpg,images/tutrocket1,images/tutrocket2,null,images/tutrocket1,NA,1,practice,null,2,NA,NA,NA,sub105
d3-animate-choice,89,546549,0.0-61.0-1.9,TRUE,TRUE,FALSE,FALSE,"""event"",""trial"",""time""
""fullscreenenter"",""5"",""20803""
","
","
","""event"",""trial"",""time""
""fullscreenenter"",""5"",""20803""
","
",854.5099999974482,NA,48,NA,NA,3000,1,NA,NA,images/tutyellowplanet.jpg,images/tutalien4,images/tutalien3,images/tutrocket1,images/tutalien4,images/nothing.png,2,practice,false,2,rare,0,2020-06-26T16:47:45Z,sub105
two-step-fixation,90,547558,0.0-61.0-2.9,TRUE,TRUE,FALSE,FALSE,"""event"",""trial"",""time""
""fullscreenenter"",""5"",""20803""
","
","
","""event"",""trial"",""time""
""fullscreenenter"",""5"",""20803""
","
",NA,images/earth.jpg,NA,NA,NA,NA,NA,NA,NA,NA,NA,NA,NA,NA,NA,fixation,NA,NA,NA,NA,NA,NA,sub105
d3-animate-choice,91,550000,0.0-61.0-0.10,TRUE,TRUE,FALSE,FALSE,"""event"",""trial"",""time""
""fullscreenenter"",""5"",""20803""
","
","
","""event"",""trial"",""time""
""fullscreenenter"",""5"",""20803""
","
",432.7399999964982,NA,48,NA,NA,3000,1,NA,NA,images/earth.jpg,images/tutrocket1,images/tutrocket2,null,images/tutrocket1,NA,1,practice,null,2,NA,NA,NA,sub105
d3-animate-choice,92,552984,0.0-61.0-1.10,TRUE,TRUE,FALSE,FALSE,"""event"",""trial"",""time""
""fullscreenenter"",""5"",""20803""
","
","
","""event"",""trial"",""time""
""fullscreenenter"",""5"",""20803""
","
",970.3499999960186,NA,48,NA,NA,3000,1,NA,NA,images/tutyellowplanet.jpg,images/tutalien4,images/tutalien3,images/tutrocket1,images/tutalien4,images/t.png,2,practice,false,2,rare,1,2020-06-26T16:47:52Z,sub105
two-step-fixation,93,553995,0.0-61.0-2.10,TRUE,TRUE,FALSE,FALSE,"""event"",""trial"",""time""
""fullscreenenter"",""5"",""20803""
","
","
","""event"",""trial"",""time""
""fullscreenenter"",""5"",""20803""
","
",NA,images/earth.jpg,NA,NA,NA,NA,NA,NA,NA,NA,NA,NA,NA,NA,NA,fixation,NA,NA,NA,NA,NA,NA,sub105
d3-animate-choice,94,556541,0.0-61.0-0.11,TRUE,TRUE,FALSE,FALSE,"""event"",""trial"",""time""
""fullscreenenter"",""5"",""20803""
","
","
","""event"",""trial"",""time""
""fullscreenenter"",""5"",""20803""
","
",534.8599999997532,NA,49,NA,NA,3000,1,NA,NA,images/earth.jpg,images/tutrocket1,images/tutrocket2,null,images/tutrocket2,NA,1,practice,null,1,NA,NA,NA,sub105
d3-animate-choice,95,559523,0.0-61.0-1.11,TRUE,TRUE,FALSE,FALSE,"""event"",""trial"",""time""
""fullscreenenter"",""5"",""20803""
","
","
","""event"",""trial"",""time""
""fullscreenenter"",""5"",""20803""
","
",972.2699999983888,NA,48,NA,NA,3000,1,NA,NA,images/tutyellowplanet.jpg,images/tutalien4,images/tutalien3,images/tutrocket2,images/tutalien4,images/nothing.png,2,practice,true,2,common,0,2020-06-26T16:47:58Z,sub105
two-step-fixation,96,560531,0.0-61.0-2.11,TRUE,TRUE,FALSE,FALSE,"""event"",""trial"",""time""
""fullscreenenter"",""5"",""20803""
","
","
","""event"",""trial"",""time""
""fullscreenenter"",""5"",""20803""
","
",NA,images/earth.jpg,NA,NA,NA,NA,NA,NA,NA,NA,NA,NA,NA,NA,NA,fixation,NA,NA,NA,NA,NA,NA,sub105
d3-animate-choice,97,562983,0.0-61.0-0.12,TRUE,TRUE,FALSE,FALSE,"""event"",""trial"",""time""
""fullscreenenter"",""5"",""20803""
","
","
","""event"",""trial"",""time""
""fullscreenenter"",""5"",""20803""
","
",438.5550000006333,NA,48,NA,NA,3000,1,NA,NA,images/earth.jpg,images/tutrocket1,images/tutrocket2,null,images/tutrocket1,NA,1,practice,null,2,NA,NA,NA,sub105
d3-animate-choice,98,565676,0.0-61.0-1.12,TRUE,TRUE,FALSE,FALSE,"""event"",""trial"",""time""
""fullscreenenter"",""5"",""20803""
","
","
","""event"",""trial"",""time""
""fullscreenenter"",""5"",""20803""
","
",681.1899999957532,NA,49,NA,NA,3000,1,NA,NA,images/tutgreenplanet.jpg,images/tutalien2,images/tutalien1,images/tutrocket1,images/tutalien1,images/t.png,2,practice,true,1,common,1,2020-06-26T16:48:04Z,sub105
two-step-fixation,99,566684,0.0-61.0-2.12,TRUE,TRUE,FALSE,FALSE,"""event"",""trial"",""time""
""fullscreenenter"",""5"",""20803""
","
","
","""event"",""trial"",""time""
""fullscreenenter"",""5"",""20803""
","
",NA,images/earth.jpg,NA,NA,NA,NA,NA,NA,NA,NA,NA,NA,NA,NA,NA,fixation,NA,NA,NA,NA,NA,NA,sub105
d3-animate-choice,100,569006,0.0-61.0-0.13,TRUE,TRUE,FALSE,FALSE,"""event"",""trial"",""time""
""fullscreenenter"",""5"",""20803""
","
","
","""event"",""trial"",""time""
""fullscreenenter"",""5"",""20803""
","
",316.3249999997206,NA,48,NA,NA,3000,1,NA,NA,images/earth.jpg,images/tutrocket1,images/tutrocket2,null,images/tutrocket1,NA,1,practice,null,2,NA,NA,NA,sub105
d3-animate-choice,101,571676,0.0-61.0-1.13,TRUE,TRUE,FALSE,FALSE,"""event"",""trial"",""time""
""fullscreenenter"",""5"",""20803""
","
","
","""event"",""trial"",""time""
""fullscreenenter"",""5"",""20803""
","
",658.0249999971129,NA,49,NA,NA,3000,1,NA,NA,images/tutgreenplanet.jpg,images/tutalien2,images/tutalien1,images/tutrocket1,images/tutalien1,images/nothing.png,2,practice,true,1,common,0,2020-06-26T16:48:10Z,sub105
two-step-fixation,102,572684,0.0-61.0-2.13,TRUE,TRUE,FALSE,FALSE,"""event"",""trial"",""time""
""fullscreenenter"",""5"",""20803""
","
","
","""event"",""trial"",""time""
""fullscreenenter"",""5"",""20803""
","
",NA,images/earth.jpg,NA,NA,NA,NA,NA,NA,NA,NA,NA,NA,NA,NA,NA,fixation,NA,NA,NA,NA,NA,NA,sub105
d3-animate-choice,103,575011,0.0-61.0-0.14,TRUE,TRUE,FALSE,FALSE,"""event"",""trial"",""time""
""fullscreenenter"",""5"",""20803""
","
","
","""event"",""trial"",""time""
""fullscreenenter"",""5"",""20803""
","
",317.68000000016764,NA,48,NA,NA,3000,1,NA,NA,images/earth.jpg,images/tutrocket1,images/tutrocket2,null,images/tutrocket1,NA,1,practice,null,2,NA,NA,NA,sub105
d3-animate-choice,104,577792,0.0-61.0-1.14,TRUE,TRUE,FALSE,FALSE,"""event"",""trial"",""time""
""fullscreenenter"",""5"",""20803""
","
","
","""event"",""trial"",""time""
""fullscreenenter"",""5"",""20803""
","
",769.7950000001583,NA,49,NA,NA,3000,1,NA,NA,images/tutgreenplanet.jpg,images/tutalien2,images/tutalien1,images/tutrocket1,images/tutalien1,images/nothing.png,2,practice,true,1,common,0,2020-06-26T16:48:17Z,sub105
two-step-fixation,105,578802,0.0-61.0-2.14,TRUE,TRUE,FALSE,FALSE,"""event"",""trial"",""time""
""fullscreenenter"",""5"",""20803""
","
","
","""event"",""trial"",""time""
""fullscreenenter"",""5"",""20803""
","
",NA,images/earth.jpg,NA,NA,NA,NA,NA,NA,NA,NA,NA,NA,NA,NA,NA,fixation,NA,NA,NA,NA,NA,NA,sub105
d3-animate-choice,106,581260,0.0-61.0-0.15,TRUE,TRUE,FALSE,FALSE,"""event"",""trial"",""time""
""fullscreenenter"",""5"",""20803""
","
","
","""event"",""trial"",""time""
""fullscreenenter"",""5"",""20803""
","
",444.0099999991944,NA,48,NA,NA,3000,1,NA,NA,images/earth.jpg,images/tutrocket1,images/tutrocket2,null,images/tutrocket1,NA,1,practice,null,2,NA,NA,NA,sub105
d3-animate-choice,107,584214,0.0-61.0-1.15,TRUE,TRUE,FALSE,FALSE,"""event"",""trial"",""time""
""fullscreenenter"",""5"",""20803""
","
","
","""event"",""trial"",""time""
""fullscreenenter"",""5"",""20803""
","
",941.4200000028359,NA,48,NA,NA,3000,1,NA,NA,images/tutyellowplanet.jpg,images/tutalien4,images/tutalien3,images/tutrocket1,images/tutalien4,images/t.png,2,practice,false,2,rare,1,2020-06-26T16:48:23Z,sub105
two-step-fixation,108,585226,0.0-61.0-2.15,TRUE,TRUE,FALSE,FALSE,"""event"",""trial"",""time""
""fullscreenenter"",""5"",""20803""
","
","
","""event"",""trial"",""time""
""fullscreenenter"",""5"",""20803""
","
",NA,images/earth.jpg,NA,NA,NA,NA,NA,NA,NA,NA,NA,NA,NA,NA,NA,fixation,NA,NA,NA,NA,NA,NA,sub105
d3-animate-choice,109,587688,0.0-61.0-0.16,TRUE,TRUE,FALSE,FALSE,"""event"",""trial"",""time""
""fullscreenenter"",""5"",""20803""
","
","
","""event"",""trial"",""time""
""fullscreenenter"",""5"",""20803""
","
",449.1699999999255,NA,49,NA,NA,3000,1,NA,NA,images/earth.jpg,images/tutrocket1,images/tutrocket2,null,images/tutrocket2,NA,1,practice,null,1,NA,NA,NA,sub105
d3-animate-choice,110,590423,0.0-61.0-1.16,TRUE,TRUE,FALSE,FALSE,"""event"",""trial"",""time""
""fullscreenenter"",""5"",""20803""
","
","
","""event"",""trial"",""time""
""fullscreenenter"",""5"",""20803""
","
",724.4400000054156,NA,48,NA,NA,3000,1,NA,NA,images/tutgreenplanet.jpg,images/tutalien2,images/tutalien1,images/tutrocket2,images/tutalien2,images/nothing.png,2,practice,false,2,rare,0,2020-06-26T16:48:29Z,sub105
two-step-fixation,111,591432,0.0-61.0-2.16,TRUE,TRUE,FALSE,FALSE,"""event"",""trial"",""time""
""fullscreenenter"",""5"",""20803""
","
","
","""event"",""trial"",""time""
""fullscreenenter"",""5"",""20803""
","
",NA,images/earth.jpg,NA,NA,NA,NA,NA,NA,NA,NA,NA,NA,NA,NA,NA,fixation,NA,NA,NA,NA,NA,NA,sub105
d3-animate-choice,112,593787,0.0-61.0-0.17,TRUE,TRUE,FALSE,FALSE,"""event"",""trial"",""time""
""fullscreenenter"",""5"",""20803""
","
","
","""event"",""trial"",""time""
""fullscreenenter"",""5"",""20803""
","
",344.21999999904074,NA,49,NA,NA,3000,1,NA,NA,images/earth.jpg,images/tutrocket1,images/tutrocket2,null,images/tutrocket2,NA,1,practice,null,1,NA,NA,NA,sub105
d3-animate-choice,113,596352,0.0-61.0-1.17,TRUE,TRUE,FALSE,FALSE,"""event"",""trial"",""time""
""fullscreenenter"",""5"",""20803""
","
","
","""event"",""trial"",""time""
""fullscreenenter"",""5"",""20803""
","
",551.659999997355,NA,48,NA,NA,3000,1,NA,NA,images/tutyellowplanet.jpg,images/tutalien4,images/tutalien3,images/tutrocket2,images/tutalien4,images/t.png,2,practice,true,2,common,1,2020-06-26T16:48:35Z,sub105
two-step-fixation,114,597363,0.0-61.0-2.17,TRUE,TRUE,FALSE,FALSE,"""event"",""trial"",""time""
""fullscreenenter"",""5"",""20803""
","
","
","""event"",""trial"",""time""
""fullscreenenter"",""5"",""20803""
","
",NA,images/earth.jpg,NA,NA,NA,NA,NA,NA,NA,NA,NA,NA,NA,NA,NA,fixation,NA,NA,NA,NA,NA,NA,sub105
d3-animate-choice,115,599891,0.0-61.0-0.18,TRUE,TRUE,FALSE,FALSE,"""event"",""trial"",""time""
""fullscreenenter"",""5"",""20803""
","
","
","""event"",""trial"",""time""
""fullscreenenter"",""5"",""20803""
","
",516.5349999951432,NA,49,NA,NA,3000,1,NA,NA,images/earth.jpg,images/tutrocket1,images/tutrocket2,null,images/tutrocket2,NA,1,practice,null,1,NA,NA,NA,sub105
d3-animate-choice,116,603266,0.0-61.0-1.18,TRUE,TRUE,FALSE,FALSE,"""event"",""trial"",""time""
""fullscreenenter"",""5"",""20803""
","
","
","""event"",""trial"",""time""
""fullscreenenter"",""5"",""20803""
","
",1364.7099999943748,NA,48,NA,NA,3000,1,NA,NA,images/tutgreenplanet.jpg,images/tutalien2,images/tutalien1,images/tutrocket2,images/tutalien2,images/t.png,2,practice,false,2,rare,1,2020-06-26T16:48:42Z,sub105
two-step-fixation,117,604277,0.0-61.0-2.18,TRUE,TRUE,FALSE,FALSE,"""event"",""trial"",""time""
""fullscreenenter"",""5"",""20803""
","
","
","""event"",""trial"",""time""
""fullscreenenter"",""5"",""20803""
","
",NA,images/earth.jpg,NA,NA,NA,NA,NA,NA,NA,NA,NA,NA,NA,NA,NA,fixation,NA,NA,NA,NA,NA,NA,sub105
d3-animate-choice,118,606835,0.0-61.0-0.19,TRUE,TRUE,FALSE,FALSE,"""event"",""trial"",""time""
""fullscreenenter"",""5"",""20803""
","
","
","""event"",""trial"",""time""
""fullscreenenter"",""5"",""20803""
","
",548.4550000037998,NA,49,NA,NA,3000,1,NA,NA,images/earth.jpg,images/tutrocket1,images/tutrocket2,null,images/tutrocket2,NA,1,practice,null,1,NA,NA,NA,sub105
d3-animate-choice,119,609293,0.0-61.0-1.19,TRUE,TRUE,FALSE,FALSE,"""event"",""trial"",""time""
""fullscreenenter"",""5"",""20803""
","
","
","""event"",""trial"",""time""
""fullscreenenter"",""5"",""20803""
","
",443.5200000007171,NA,48,NA,NA,3000,1,NA,NA,images/tutyellowplanet.jpg,images/tutalien4,images/tutalien3,images/tutrocket2,images/tutalien4,images/nothing.png,2,practice,true,2,common,0,2020-06-26T16:48:48Z,sub105
two-step-fixation,120,610304,0.0-61.0-2.19,TRUE,TRUE,FALSE,FALSE,"""event"",""trial"",""time""
""fullscreenenter"",""5"",""20803""
","
","
","""event"",""trial"",""time""
""fullscreenenter"",""5"",""20803""
","
",NA,images/earth.jpg,NA,NA,NA,NA,NA,NA,NA,NA,NA,NA,NA,NA,NA,fixation,NA,NA,NA,NA,NA,NA,sub105
d3-instructions,121,619238,0.0-62.0,TRUE,TRUE,FALSE,FALSE,"""event"",""trial"",""time""
""fullscreenenter"",""5"",""20803""
","
","
","""event"",""trial"",""time""
""fullscreenenter"",""5"",""20803""
","
",NA,NA,NA,NA,NA,NA,NA,NA,NA,NA,NA,NA,NA,NA,NA,NA,NA,NA,NA,NA,NA,NA,sub105
audio-keyboard-response,122,639660,0.0-63.0,TRUE,TRUE,FALSE,FALSE,"""event"",""trial"",""time""
""fullscreenenter"",""5"",""20803""
","
","
","""event"",""trial"",""time""
""fullscreenenter"",""5"",""20803""
","
",20419,audio/instructions/treasure_feedback.wav,32,NA,NA,NA,NA,NA,NA,NA,NA,NA,NA,NA,NA,NA,NA,NA,NA,NA,NA,NA,sub105
d3-instructions,123,661537,0.0-64.0,TRUE,TRUE,FALSE,FALSE,"""event"",""trial"",""time""
""fullscreenenter"",""5"",""20803""
","
","
","""event"",""trial"",""time""
""fullscreenenter"",""5"",""20803""
","
",NA,NA,NA,NA,NA,NA,NA,NA,NA,NA,NA,NA,NA,NA,NA,NA,NA,NA,NA,NA,NA,NA,sub105
d3-instructions,124,676208,0.0-65.0,TRUE,TRUE,FALSE,FALSE,"""event"",""trial"",""time""
""fullscreenenter"",""5"",""20803""
","
","
","""event"",""trial"",""time""
""fullscreenenter"",""5"",""20803""
","
",NA,NA,NA,NA,NA,NA,NA,NA,NA,NA,NA,NA,NA,NA,NA,NA,NA,NA,NA,NA,NA,NA,sub105
d3-instructions,125,743408,0.0-66.0,TRUE,TRUE,FALSE,FALSE,"""event"",""trial"",""time""
""fullscreenenter"",""5"",""20803""
","
","
","""event"",""trial"",""time""
""fullscreenenter"",""5"",""20803""
","
",NA,NA,NA,NA,NA,NA,NA,NA,NA,NA,NA,NA,NA,NA,NA,NA,NA,NA,NA,NA,NA,NA,sub105
d3-instructions,126,771703,0.0-67.0,TRUE,TRUE,FALSE,FALSE,"""event"",""trial"",""time""
""fullscreenenter"",""5"",""20803""
","
","
","""event"",""trial"",""time""
""fullscreenenter"",""5"",""20803""
","
",NA,NA,NA,NA,NA,NA,NA,NA,NA,NA,NA,NA,NA,NA,NA,NA,NA,NA,NA,NA,NA,NA,sub105
d3-instructions,127,780960,0.0-68.0,TRUE,TRUE,FALSE,FALSE,"""event"",""trial"",""time""
""fullscreenenter"",""5"",""20803""
","
","
","""event"",""trial"",""time""
""fullscreenenter"",""5"",""20803""
","
",NA,NA,NA,NA,NA,NA,NA,NA,NA,NA,NA,NA,NA,NA,NA,NA,NA,NA,NA,NA,NA,NA,sub105
instructions-quiz,128,785952,0.0-69.0,TRUE,TRUE,FALSE,FALSE,"""event"",""trial"",""time""
""fullscreenenter"",""5"",""20803""
","
","
","""event"",""trial"",""time""
""fullscreenenter"",""5"",""20803""
","
",4985.409999993863,audio/quiz/Q1_Prompt.wav,NA,1,NA,NA,NA,NA,NA,NA,NA,NA,NA,NA,NA,NA,NA,NA,NA,NA,NA,NA,sub105
audio-keyboard-response,129,795130,0.0-70.0,TRUE,TRUE,FALSE,FALSE,"""event"",""trial"",""time""
""fullscreenenter"",""5"",""20803""
","
","
","""event"",""trial"",""time""
""fullscreenenter"",""5"",""20803""
","
",null,audio/quiz/Q1_Correct.wav,null,NA,NA,NA,NA,NA,NA,NA,NA,NA,NA,NA,NA,NA,NA,NA,NA,NA,NA,NA,sub105
instructions-quiz,130,804685,0.0-71.0,TRUE,TRUE,FALSE,FALSE,"""event"",""trial"",""time""
""fullscreenenter"",""5"",""20803""
","
","
","""event"",""trial"",""time""
""fullscreenenter"",""5"",""20803""
","
",9549.85500000487,audio/quiz/Q2_Prompt.wav,NA,0,NA,NA,NA,NA,NA,NA,NA,NA,NA,NA,NA,NA,NA,NA,NA,NA,NA,NA,sub105
audio-keyboard-response,131,817553,0.0-72.0,TRUE,TRUE,FALSE,FALSE,"""event"",""trial"",""time""
""fullscreenenter"",""5"",""20803""
","
","
","""event"",""trial"",""time""
""fullscreenenter"",""5"",""20803""
","
",12861,audio/quiz/Q2_Correct.wav,32,NA,NA,NA,NA,NA,NA,NA,NA,NA,NA,NA,NA,NA,NA,NA,NA,NA,NA,NA,sub105
instructions-quiz,132,823135,0.0-73.0,TRUE,TRUE,FALSE,FALSE,"""event"",""trial"",""time""
""fullscreenenter"",""5"",""20803""
","
","
","""event"",""trial"",""time""
""fullscreenenter"",""5"",""20803""
","
",5576.154999995255,audio/quiz/Q3_Prompt.wav,NA,1,NA,NA,NA,NA,NA,NA,NA,NA,NA,NA,NA,NA,NA,NA,NA,NA,NA,NA,sub105
audio-keyboard-response,133,827834,0.0-74.0,TRUE,TRUE,FALSE,FALSE,"""event"",""trial"",""time""
""fullscreenenter"",""5"",""20803""
","
","
","""event"",""trial"",""time""
""fullscreenenter"",""5"",""20803""
","
",4701,audio/quiz/Q3_Correct.wav,32,NA,NA,NA,NA,NA,NA,NA,NA,NA,NA,NA,NA,NA,NA,NA,NA,NA,NA,NA,sub105
d3-instructions,134,844002,0.0-75.0,TRUE,TRUE,FALSE,FALSE,"""event"",""trial"",""time""
""fullscreenenter"",""5"",""20803""
","
","
","""event"",""trial"",""time""
""fullscreenenter"",""5"",""20803""
","
",NA,NA,NA,NA,NA,NA,NA,NA,NA,NA,NA,NA,NA,NA,NA,NA,NA,NA,NA,NA,NA,NA,sub105
d3-animate-choice,135,847221,0.0-76.0-0.0,TRUE,TRUE,FALSE,FALSE,"""event"",""trial"",""time""
""fullscreenenter"",""5"",""20803""
","
","
","""event"",""trial"",""time""
""fullscreenenter"",""5"",""20803""
","
",1202.9699999984587,NA,48,NA,NA,3000,1,NA,NA,images/earth.jpg,images/rocket2,images/rocket1,null,images/rocket2,NA,1,real,null,2,NA,NA,NA,sub105
d3-animate-choice,136,850488,0.0-76.0-1.0,TRUE,TRUE,FALSE,FALSE,"""event"",""trial"",""time""
""fullscreenenter"",""5"",""20803""
","
","
","""event"",""trial"",""time""
""fullscreenenter"",""5"",""20803""
","
",1252.5700000042561,NA,48,NA,NA,3000,1,NA,NA,images/purpleplanet.jpg,images/alien4,images/alien3,images/rocket2,images/alien4,images/t.png,2,real,true,2,common,1,2020-06-26T16:52:49Z,sub105
two-step-fixation,137,851501,0.0-76.0-2.0,TRUE,TRUE,FALSE,FALSE,"""event"",""trial"",""time""
""fullscreenenter"",""5"",""20803""
","
","
","""event"",""trial"",""time""
""fullscreenenter"",""5"",""20803""
","
",NA,images/earth.jpg,NA,NA,NA,NA,NA,NA,NA,NA,NA,NA,NA,NA,NA,fixation,NA,NA,NA,NA,NA,NA,sub105
d3-animate-choice,138,853958,0.0-76.0-0.1,TRUE,TRUE,FALSE,FALSE,"""event"",""trial"",""time""
""fullscreenenter"",""5"",""20803""
","
","
","""event"",""trial"",""time""
""fullscreenenter"",""5"",""20803""
","
",443.77499999967404,NA,48,NA,NA,3000,1,NA,NA,images/earth.jpg,images/rocket2,images/rocket1,null,images/rocket2,NA,1,real,null,2,NA,NA,NA,sub105
d3-animate-choice,139,857045,0.0-76.0-1.1,TRUE,TRUE,FALSE,FALSE,"""event"",""trial"",""time""
""fullscreenenter"",""5"",""20803""
","
","
","""event"",""trial"",""time""
""fullscreenenter"",""5"",""20803""
","
",1074.2249999966007,NA,48,NA,NA,3000,1,NA,NA,images/redplanet1.jpg,images/alien2,images/alien1,images/rocket2,images/alien2,images/t.png,2,real,false,2,rare,1,2020-06-26T16:52:56Z,sub105
two-step-fixation,140,858071,0.0-76.0-2.1,TRUE,TRUE,FALSE,FALSE,"""event"",""trial"",""time""
""fullscreenenter"",""5"",""20803""
","
","
","""event"",""trial"",""time""
""fullscreenenter"",""5"",""20803""
","
",NA,images/earth.jpg,NA,NA,NA,NA,NA,NA,NA,NA,NA,NA,NA,NA,NA,fixation,NA,NA,NA,NA,NA,NA,sub105
d3-animate-choice,141,860502,0.0-76.0-0.2,TRUE,TRUE,FALSE,FALSE,"""event"",""trial"",""time""
""fullscreenenter"",""5"",""20803""
","
","
","""event"",""trial"",""time""
""fullscreenenter"",""5"",""20803""
","
",414.2199999986915,NA,48,NA,NA,3000,1,NA,NA,images/earth.jpg,images/rocket2,images/rocket1,null,images/rocket2,NA,1,real,null,2,NA,NA,NA,sub105
d3-animate-choice,142,863221,0.0-76.0-1.2,TRUE,TRUE,FALSE,FALSE,"""event"",""trial"",""time""
""fullscreenenter"",""5"",""20803""
","
","
","""event"",""trial"",""time""
""fullscreenenter"",""5"",""20803""
","
",688.7649999989662,NA,48,NA,NA,3000,1,NA,NA,images/purpleplanet.jpg,images/alien4,images/alien3,images/rocket2,images/alien4,images/t.png,2,real,true,2,common,1,2020-06-26T16:53:02Z,sub105
two-step-fixation,143,864241,0.0-76.0-2.2,TRUE,TRUE,FALSE,FALSE,"""event"",""trial"",""time""
""fullscreenenter"",""5"",""20803""
","
","
","""event"",""trial"",""time""
""fullscreenenter"",""5"",""20803""
","
",NA,images/earth.jpg,NA,NA,NA,NA,NA,NA,NA,NA,NA,NA,NA,NA,NA,fixation,NA,NA,NA,NA,NA,NA,sub105
d3-animate-choice,144,866591,0.0-76.0-0.3,TRUE,TRUE,FALSE,FALSE,"""event"",""trial"",""time""
""fullscreenenter"",""5"",""20803""
","
","
","""event"",""trial"",""time""
""fullscreenenter"",""5"",""20803""
","
",337.16000000271015,NA,48,NA,NA,3000,1,NA,NA,images/earth.jpg,images/rocket2,images/rocket1,null,images/rocket2,NA,1,real,null,2,NA,NA,NA,sub105
d3-animate-choice,145,869079,0.0-76.0-1.3,TRUE,TRUE,FALSE,FALSE,"""event"",""trial"",""time""
""fullscreenenter"",""5"",""20803""
","
","
","""event"",""trial"",""time""
""fullscreenenter"",""5"",""20803""
","
",460.76499999617226,NA,48,NA,NA,3000,1,NA,NA,images/purpleplanet.jpg,images/alien4,images/alien3,images/rocket2,images/alien4,images/nothing.png,2,real,true,2,common,0,2020-06-26T16:53:08Z,sub105
two-step-fixation,146,870089,0.0-76.0-2.3,TRUE,TRUE,FALSE,FALSE,"""event"",""trial"",""time""
""fullscreenenter"",""5"",""20803""
","
","
","""event"",""trial"",""time""
""fullscreenenter"",""5"",""20803""
","
",NA,images/earth.jpg,NA,NA,NA,NA,NA,NA,NA,NA,NA,NA,NA,NA,NA,fixation,NA,NA,NA,NA,NA,NA,sub105
d3-animate-choice,147,872422,0.0-76.0-0.4,TRUE,TRUE,FALSE,FALSE,"""event"",""trial"",""time""
""fullscreenenter"",""5"",""20803""
","
","
","""event"",""trial"",""time""
""fullscreenenter"",""5"",""20803""
","
",322.295000005397,NA,48,NA,NA,3000,1,NA,NA,images/earth.jpg,images/rocket2,images/rocket1,null,images/rocket2,NA,1,real,null,2,NA,NA,NA,sub105
d3-animate-choice,148,875075,0.0-76.0-1.4,TRUE,TRUE,FALSE,FALSE,"""event"",""trial"",""time""
""fullscreenenter"",""5"",""20803""
","
","
","""event"",""trial"",""time""
""fullscreenenter"",""5"",""20803""
","
",638.9849999977741,NA,48,NA,NA,3000,1,NA,NA,images/purpleplanet.jpg,images/alien4,images/alien3,images/rocket2,images/alien4,images/t.png,2,real,true,2,common,1,2020-06-26T16:53:14Z,sub105
two-step-fixation,149,876086,0.0-76.0-2.4,TRUE,TRUE,FALSE,FALSE,"""event"",""trial"",""time""
""fullscreenenter"",""5"",""20803""
","
","
","""event"",""trial"",""time""
""fullscreenenter"",""5"",""20803""
","
",NA,images/earth.jpg,NA,NA,NA,NA,NA,NA,NA,NA,NA,NA,NA,NA,NA,fixation,NA,NA,NA,NA,NA,NA,sub105
d3-animate-choice,150,878430,0.0-76.0-0.5,TRUE,TRUE,FALSE,FALSE,"""event"",""trial"",""time""
""fullscreenenter"",""5"",""20803""
","
","
","""event"",""trial"",""time""
""fullscreenenter"",""5"",""20803""
","
",334.6999999994878,NA,48,NA,NA,3000,1,NA,NA,images/earth.jpg,images/rocket2,images/rocket1,null,images/rocket2,NA,1,real,null,2,NA,NA,NA,sub105
d3-animate-choice,151,881608,0.0-76.0-1.5,TRUE,TRUE,FALSE,FALSE,"""event"",""trial"",""time""
""fullscreenenter"",""5"",""20803""
","
","
","""event"",""trial"",""time""
""fullscreenenter"",""5"",""20803""
","
",1167.8749999990687,NA,48,NA,NA,3000,1,NA,NA,images/redplanet1.jpg,images/alien2,images/alien1,images/rocket2,images/alien2,images/t.png,2,real,false,2,rare,1,2020-06-26T16:53:20Z,sub105
two-step-fixation,152,882616,0.0-76.0-2.5,TRUE,TRUE,FALSE,FALSE,"""event"",""trial"",""time""
""fullscreenenter"",""5"",""20803""
","
","
","""event"",""trial"",""time""
""fullscreenenter"",""5"",""20803""
","
",NA,images/earth.jpg,NA,NA,NA,NA,NA,NA,NA,NA,NA,NA,NA,NA,NA,fixation,NA,NA,NA,NA,NA,NA,sub105
d3-animate-choice,153,885017,0.0-76.0-0.6,TRUE,TRUE,FALSE,FALSE,"""event"",""trial"",""time""
""fullscreenenter"",""5"",""20803""
","
","
","""event"",""trial"",""time""
""fullscreenenter"",""5"",""20803""
","
",390.01500000455417,NA,48,NA,NA,3000,1,NA,NA,images/earth.jpg,images/rocket2,images/rocket1,null,images/rocket2,NA,1,real,null,2,NA,NA,NA,sub105
d3-animate-choice,154,887436,0.0-76.0-1.6,TRUE,TRUE,FALSE,FALSE,"""event"",""trial"",""time""
""fullscreenenter"",""5"",""20803""
","
","
","""event"",""trial"",""time""
""fullscreenenter"",""5"",""20803""
","
",406.2999999951571,NA,48,NA,NA,3000,1,NA,NA,images/redplanet1.jpg,images/alien2,images/alien1,images/rocket2,images/alien2,images/nothing.png,2,real,false,2,rare,0,2020-06-26T16:53:26Z,sub105
two-step-fixation,155,888444,0.0-76.0-2.6,TRUE,TRUE,FALSE,FALSE,"""event"",""trial"",""time""
""fullscreenenter"",""5"",""20803""
","
","
","""event"",""trial"",""time""
""fullscreenenter"",""5"",""20803""
","
",NA,images/earth.jpg,NA,NA,NA,NA,NA,NA,NA,NA,NA,NA,NA,NA,NA,fixation,NA,NA,NA,NA,NA,NA,sub105
d3-animate-choice,156,890743,0.0-76.0-0.7,TRUE,TRUE,FALSE,FALSE,"""event"",""trial"",""time""
""fullscreenenter"",""5"",""20803""
","
","
","""event"",""trial"",""time""
""fullscreenenter"",""5"",""20803""
","
",294.7050000001909,NA,48,NA,NA,3000,1,NA,NA,images/earth.jpg,images/rocket2,images/rocket1,null,images/rocket2,NA,1,real,null,2,NA,NA,NA,sub105
d3-animate-choice,157,893219,0.0-76.0-1.7,TRUE,TRUE,FALSE,FALSE,"""event"",""trial"",""time""
""fullscreenenter"",""5"",""20803""
","
","
","""event"",""trial"",""time""
""fullscreenenter"",""5"",""20803""
","
",464.6599999978207,NA,48,NA,NA,3000,1,NA,NA,images/purpleplanet.jpg,images/alien4,images/alien3,images/rocket2,images/alien4,images/t.png,2,real,true,2,common,1,2020-06-26T16:53:32Z,sub105
two-step-fixation,158,894229,0.0-76.0-2.7,TRUE,TRUE,FALSE,FALSE,"""event"",""trial"",""time""
""fullscreenenter"",""5"",""20803""
","
","
","""event"",""trial"",""time""
""fullscreenenter"",""5"",""20803""
","
",NA,images/earth.jpg,NA,NA,NA,NA,NA,NA,NA,NA,NA,NA,NA,NA,NA,fixation,NA,NA,NA,NA,NA,NA,sub105
d3-animate-choice,159,896542,0.0-76.0-0.8,TRUE,TRUE,FALSE,FALSE,"""event"",""trial"",""time""
""fullscreenenter"",""5"",""20803""
","
","
","""event"",""trial"",""time""
""fullscreenenter"",""5"",""20803""
","
",302.75000000256114,NA,48,NA,NA,3000,1,NA,NA,images/earth.jpg,images/rocket2,images/rocket1,null,images/rocket2,NA,1,real,null,2,NA,NA,NA,sub105
d3-animate-choice,160,898942,0.0-76.0-1.8,TRUE,TRUE,FALSE,FALSE,"""event"",""trial"",""time""
""fullscreenenter"",""5"",""20803""
","
","
","""event"",""trial"",""time""
""fullscreenenter"",""5"",""20803""
","
",388.785000002943,NA,48,NA,NA,3000,1,NA,NA,images/purpleplanet.jpg,images/alien4,images/alien3,images/rocket2,images/alien4,images/t.png,2,real,true,2,common,1,2020-06-26T16:53:38Z,sub105
two-step-fixation,161,899953,0.0-76.0-2.8,TRUE,TRUE,FALSE,FALSE,"""event"",""trial"",""time""
""fullscreenenter"",""5"",""20803""
","
","
","""event"",""trial"",""time""
""fullscreenenter"",""5"",""20803""
","
",NA,images/earth.jpg,NA,NA,NA,NA,NA,NA,NA,NA,NA,NA,NA,NA,NA,fixation,NA,NA,NA,NA,NA,NA,sub105
d3-animate-choice,162,902274,0.0-76.0-0.9,TRUE,TRUE,FALSE,FALSE,"""event"",""trial"",""time""
""fullscreenenter"",""5"",""20803""
","
","
","""event"",""trial"",""time""
""fullscreenenter"",""5"",""20803""
","
",307.89499999803957,NA,48,NA,NA,3000,1,NA,NA,images/earth.jpg,images/rocket2,images/rocket1,null,images/rocket2,NA,1,real,null,2,NA,NA,NA,sub105
d3-animate-choice,163,904819,0.0-76.0-1.9,TRUE,TRUE,FALSE,FALSE,"""event"",""trial"",""time""
""fullscreenenter"",""5"",""20803""
","
","
","""event"",""trial"",""time""
""fullscreenenter"",""5"",""20803""
","
",534.8200000007637,NA,48,NA,NA,3000,1,NA,NA,images/redplanet1.jpg,images/alien2,images/alien1,images/rocket2,images/alien2,images/t.png,2,real,false,2,rare,1,2020-06-26T16:53:44Z,sub105
two-step-fixation,164,905829,0.0-76.0-2.9,TRUE,TRUE,FALSE,FALSE,"""event"",""trial"",""time""
""fullscreenenter"",""5"",""20803""
","
","
","""event"",""trial"",""time""
""fullscreenenter"",""5"",""20803""
","
",NA,images/earth.jpg,NA,NA,NA,NA,NA,NA,NA,NA,NA,NA,NA,NA,NA,fixation,NA,NA,NA,NA,NA,NA,sub105
d3-animate-choice,165,908141,0.0-76.0-0.10,TRUE,TRUE,FALSE,FALSE,"""event"",""trial"",""time""
""fullscreenenter"",""5"",""20803""
","
","
","""event"",""trial"",""time""
""fullscreenenter"",""5"",""20803""
","
",301.39000000059605,NA,48,NA,NA,3000,1,NA,NA,images/earth.jpg,images/rocket2,images/rocket1,null,images/rocket2,NA,1,real,null,2,NA,NA,NA,sub105
d3-animate-choice,166,910505,0.0-76.0-1.10,TRUE,TRUE,FALSE,FALSE,"""event"",""trial"",""time""
""fullscreenenter"",""5"",""20803""
","
","
","""event"",""trial"",""time""
""fullscreenenter"",""5"",""20803""
","
",352.7350000003353,NA,48,NA,NA,3000,1,NA,NA,images/purpleplanet.jpg,images/alien4,images/alien3,images/rocket2,images/alien4,images/t.png,2,real,true,2,common,1,2020-06-26T16:53:49Z,sub105
two-step-fixation,167,911514,0.0-76.0-2.10,TRUE,TRUE,FALSE,FALSE,"""event"",""trial"",""time""
""fullscreenenter"",""5"",""20803""
","
","
","""event"",""trial"",""time""
""fullscreenenter"",""5"",""20803""
","
",NA,images/earth.jpg,NA,NA,NA,NA,NA,NA,NA,NA,NA,NA,NA,NA,NA,fixation,NA,NA,NA,NA,NA,NA,sub105
d3-animate-choice,168,913798,0.0-76.0-0.11,TRUE,TRUE,FALSE,FALSE,"""event"",""trial"",""time""
""fullscreenenter"",""5"",""20803""
","
","
","""event"",""trial"",""time""
""fullscreenenter"",""5"",""20803""
","
",272.7999999988824,NA,48,NA,NA,3000,1,NA,NA,images/earth.jpg,images/rocket2,images/rocket1,null,images/rocket2,NA,1,real,null,2,NA,NA,NA,sub105
d3-animate-choice,169,916355,0.0-76.0-1.11,TRUE,TRUE,FALSE,FALSE,"""event"",""trial"",""time""
""fullscreenenter"",""5"",""20803""
","
","
","""event"",""trial"",""time""
""fullscreenenter"",""5"",""20803""
","
",546.4950000022072,NA,48,NA,NA,3000,1,NA,NA,images/redplanet1.jpg,images/alien2,images/alien1,images/rocket2,images/alien2,images/nothing.png,2,real,false,2,rare,0,2020-06-26T16:53:55Z,sub105
two-step-fixation,170,917364,0.0-76.0-2.11,TRUE,TRUE,FALSE,FALSE,"""event"",""trial"",""time""
""fullscreenenter"",""5"",""20803""
","
","
","""event"",""trial"",""time""
""fullscreenenter"",""5"",""20803""
","
",NA,images/earth.jpg,NA,NA,NA,NA,NA,NA,NA,NA,NA,NA,NA,NA,NA,fixation,NA,NA,NA,NA,NA,NA,sub105
d3-animate-choice,171,919672,0.0-76.0-0.12,TRUE,TRUE,FALSE,FALSE,"""event"",""trial"",""time""
""fullscreenenter"",""5"",""20803""
","
","
","""event"",""trial"",""time""
""fullscreenenter"",""5"",""20803""
","
",298.57500000076834,NA,48,NA,NA,3000,1,NA,NA,images/earth.jpg,images/rocket2,images/rocket1,null,images/rocket2,NA,1,real,null,2,NA,NA,NA,sub105
d3-animate-choice,172,922207,0.0-76.0-1.12,TRUE,TRUE,FALSE,FALSE,"""event"",""trial"",""time""
""fullscreenenter"",""5"",""20803""
","
","
","""event"",""trial"",""time""
""fullscreenenter"",""5"",""20803""
","
",524.3049999990035,NA,48,NA,NA,3000,1,NA,NA,images/redplanet1.jpg,images/alien2,images/alien1,images/rocket2,images/alien2,images/nothing.png,2,real,false,2,rare,0,2020-06-26T16:54:01Z,sub105
two-step-fixation,173,923215,0.0-76.0-2.12,TRUE,TRUE,FALSE,FALSE,"""event"",""trial"",""time""
""fullscreenenter"",""5"",""20803""
","
","
","""event"",""trial"",""time""
""fullscreenenter"",""5"",""20803""
","
",NA,images/earth.jpg,NA,NA,NA,NA,NA,NA,NA,NA,NA,NA,NA,NA,NA,fixation,NA,NA,NA,NA,NA,NA,sub105
d3-animate-choice,174,925517,0.0-76.0-0.13,TRUE,TRUE,FALSE,FALSE,"""event"",""trial"",""time""
""fullscreenenter"",""5"",""20803""
","
","
","""event"",""trial"",""time""
""fullscreenenter"",""5"",""20803""
","
",289.50500000058673,NA,48,NA,NA,3000,1,NA,NA,images/earth.jpg,images/rocket2,images/rocket1,null,images/rocket2,NA,1,real,null,2,NA,NA,NA,sub105
d3-animate-choice,175,928306,0.0-76.0-1.13,TRUE,TRUE,FALSE,FALSE,"""event"",""trial"",""time""
""fullscreenenter"",""5"",""20803""
","
","
","""event"",""trial"",""time""
""fullscreenenter"",""5"",""20803""
","
",776.804999994114,NA,49,NA,NA,3000,1,NA,NA,images/redplanet1.jpg,images/alien2,images/alien1,images/rocket2,images/alien1,images/t.png,2,real,false,1,rare,1,2020-06-26T16:54:07Z,sub105
two-step-fixation,176,929317,0.0-76.0-2.13,TRUE,TRUE,FALSE,FALSE,"""event"",""trial"",""time""
""fullscreenenter"",""5"",""20803""
","
","
","""event"",""trial"",""time""
""fullscreenenter"",""5"",""20803""
","
",NA,images/earth.jpg,NA,NA,NA,NA,NA,NA,NA,NA,NA,NA,NA,NA,NA,fixation,NA,NA,NA,NA,NA,NA,sub105
d3-animate-choice,177,931660,0.0-76.0-0.14,TRUE,TRUE,FALSE,FALSE,"""event"",""trial"",""time""
""fullscreenenter"",""5"",""20803""
","
","
","""event"",""trial"",""time""
""fullscreenenter"",""5"",""20803""
","
",333.95000000018626,NA,48,NA,NA,3000,1,NA,NA,images/earth.jpg,images/rocket2,images/rocket1,null,images/rocket2,NA,1,real,null,2,NA,NA,NA,sub105
d3-animate-choice,178,934506,0.0-76.0-1.14,TRUE,TRUE,FALSE,FALSE,"""event"",""trial"",""time""
""fullscreenenter"",""5"",""20803""
","
","
","""event"",""trial"",""time""
""fullscreenenter"",""5"",""20803""
","
",835.4200000029523,NA,48,NA,NA,3000,1,NA,NA,images/purpleplanet.jpg,images/alien4,images/alien3,images/rocket2,images/alien4,images/t.png,2,real,true,2,common,1,2020-06-26T16:54:13Z,sub105
two-step-fixation,179,935516,0.0-76.0-2.14,TRUE,TRUE,FALSE,FALSE,"""event"",""trial"",""time""
""fullscreenenter"",""5"",""20803""
","
","
","""event"",""trial"",""time""
""fullscreenenter"",""5"",""20803""
","
",NA,images/earth.jpg,NA,NA,NA,NA,NA,NA,NA,NA,NA,NA,NA,NA,NA,fixation,NA,NA,NA,NA,NA,NA,sub105
d3-animate-choice,180,938025,0.0-76.0-0.15,TRUE,TRUE,FALSE,FALSE,"""event"",""trial"",""time""
""fullscreenenter"",""5"",""20803""
","
","
","""event"",""trial"",""time""
""fullscreenenter"",""5"",""20803""
","
",497.5600000034319,NA,48,NA,NA,3000,1,NA,NA,images/earth.jpg,images/rocket2,images/rocket1,null,images/rocket2,NA,1,real,null,2,NA,NA,NA,sub105
d3-animate-choice,181,940935,0.0-76.0-1.15,TRUE,TRUE,FALSE,FALSE,"""event"",""trial"",""time""
""fullscreenenter"",""5"",""20803""
","
","
","""event"",""trial"",""time""
""fullscreenenter"",""5"",""20803""
","
",897.1500000043306,NA,48,NA,NA,3000,1,NA,NA,images/purpleplanet.jpg,images/alien4,images/alien3,images/rocket2,images/alien4,images/t.png,2,real,true,2,common,1,2020-06-26T16:54:20Z,sub105
two-step-fixation,182,941944,0.0-76.0-2.15,TRUE,TRUE,FALSE,FALSE,"""event"",""trial"",""time""
""fullscreenenter"",""5"",""20803""
","
","
","""event"",""trial"",""time""
""fullscreenenter"",""5"",""20803""
","
",NA,images/earth.jpg,NA,NA,NA,NA,NA,NA,NA,NA,NA,NA,NA,NA,NA,fixation,NA,NA,NA,NA,NA,NA,sub105
d3-animate-choice,183,944252,0.0-76.0-0.16,TRUE,TRUE,FALSE,FALSE,"""event"",""trial"",""time""
""fullscreenenter"",""5"",""20803""
","
","
","""event"",""trial"",""time""
""fullscreenenter"",""5"",""20803""
","
",295.97999999532476,NA,48,NA,NA,3000,1,NA,NA,images/earth.jpg,images/rocket2,images/rocket1,null,images/rocket2,NA,1,real,null,2,NA,NA,NA,sub105
d3-animate-choice,184,946958,0.0-76.0-1.16,TRUE,TRUE,FALSE,FALSE,"""event"",""trial"",""time""
""fullscreenenter"",""5"",""20803""
","
","
","""event"",""trial"",""time""
""fullscreenenter"",""5"",""20803""
","
",696.2800000037532,NA,48,NA,NA,3000,1,NA,NA,images/purpleplanet.jpg,images/alien4,images/alien3,images/rocket2,images/alien4,images/t.png,2,real,true,2,common,1,2020-06-26T16:54:26Z,sub105
two-step-fixation,185,947968,0.0-76.0-2.16,TRUE,TRUE,FALSE,FALSE,"""event"",""trial"",""time""
""fullscreenenter"",""5"",""20803""
","
","
","""event"",""trial"",""time""
""fullscreenenter"",""5"",""20803""
","
",NA,images/earth.jpg,NA,NA,NA,NA,NA,NA,NA,NA,NA,NA,NA,NA,NA,fixation,NA,NA,NA,NA,NA,NA,sub105
d3-animate-choice,186,950571,0.0-76.0-0.17,TRUE,TRUE,FALSE,FALSE,"""event"",""trial"",""time""
""fullscreenenter"",""5"",""20803""
","
","
","""event"",""trial"",""time""
""fullscreenenter"",""5"",""20803""
","
",593.9599999983329,NA,48,NA,NA,3000,1,NA,NA,images/earth.jpg,images/rocket2,images/rocket1,null,images/rocket2,NA,1,real,null,2,NA,NA,NA,sub105
d3-animate-choice,187,953127,0.0-76.0-1.17,TRUE,TRUE,FALSE,FALSE,"""event"",""trial"",""time""
""fullscreenenter"",""5"",""20803""
","
","
","""event"",""trial"",""time""
""fullscreenenter"",""5"",""20803""
","
",543.7199999942677,NA,48,NA,NA,3000,1,NA,NA,images/purpleplanet.jpg,images/alien4,images/alien3,images/rocket2,images/alien4,images/nothing.png,2,real,true,2,common,0,2020-06-26T16:54:32Z,sub105
two-step-fixation,188,954137,0.0-76.0-2.17,TRUE,TRUE,FALSE,FALSE,"""event"",""trial"",""time""
""fullscreenenter"",""5"",""20803""
","
","
","""event"",""trial"",""time""
""fullscreenenter"",""5"",""20803""
","
",NA,images/earth.jpg,NA,NA,NA,NA,NA,NA,NA,NA,NA,NA,NA,NA,NA,fixation,NA,NA,NA,NA,NA,NA,sub105
d3-animate-choice,189,956451,0.0-76.0-0.18,TRUE,TRUE,FALSE,FALSE,"""event"",""trial"",""time""
""fullscreenenter"",""5"",""20803""
","
","
","""event"",""trial"",""time""
""fullscreenenter"",""5"",""20803""
","
",304.72999999613967,NA,48,NA,NA,3000,1,NA,NA,images/earth.jpg,images/rocket2,images/rocket1,null,images/rocket2,NA,1,real,null,2,NA,NA,NA,sub105
d3-animate-choice,190,959099,0.0-76.0-1.18,TRUE,TRUE,FALSE,FALSE,"""event"",""trial"",""time""
""fullscreenenter"",""5"",""20803""
","
","
","""event"",""trial"",""time""
""fullscreenenter"",""5"",""20803""
","
",634.8300000026356,NA,48,NA,NA,3000,1,NA,NA,images/purpleplanet.jpg,images/alien4,images/alien3,images/rocket2,images/alien4,images/t.png,2,real,true,2,common,1,2020-06-26T16:54:38Z,sub105
two-step-fixation,191,960110,0.0-76.0-2.18,TRUE,TRUE,FALSE,FALSE,"""event"",""trial"",""time""
""fullscreenenter"",""5"",""20803""
","
","
","""event"",""trial"",""time""
""fullscreenenter"",""5"",""20803""
","
",NA,images/earth.jpg,NA,NA,NA,NA,NA,NA,NA,NA,NA,NA,NA,NA,NA,fixation,NA,NA,NA,NA,NA,NA,sub105
d3-animate-choice,192,962394,0.0-76.0-0.19,TRUE,TRUE,FALSE,FALSE,"""event"",""trial"",""time""
""fullscreenenter"",""5"",""20803""
","
","
","""event"",""trial"",""time""
""fullscreenenter"",""5"",""20803""
","
",275.6500000032829,NA,48,NA,NA,3000,1,NA,NA,images/earth.jpg,images/rocket2,images/rocket1,null,images/rocket2,NA,1,real,null,2,NA,NA,NA,sub105
d3-animate-choice,193,965348,0.0-76.0-1.19,TRUE,TRUE,FALSE,FALSE,"""event"",""trial"",""time""
""fullscreenenter"",""5"",""20803""
","
","
","""event"",""trial"",""time""
""fullscreenenter"",""5"",""20803""
","
",943.7599999946542,NA,49,NA,NA,3000,1,NA,NA,images/redplanet1.jpg,images/alien2,images/alien1,images/rocket2,images/alien1,images/t.png,2,real,false,1,rare,1,2020-06-26T16:54:44Z,sub105
two-step-fixation,194,966352,0.0-76.0-2.19,TRUE,TRUE,FALSE,FALSE,"""event"",""trial"",""time""
""fullscreenenter"",""5"",""20803""
","
","
","""event"",""trial"",""time""
""fullscreenenter"",""5"",""20803""
","
",NA,images/earth.jpg,NA,NA,NA,NA,NA,NA,NA,NA,NA,NA,NA,NA,NA,fixation,NA,NA,NA,NA,NA,NA,sub105
d3-animate-choice,195,968650,0.0-76.0-0.20,TRUE,TRUE,FALSE,FALSE,"""event"",""trial"",""time""
""fullscreenenter"",""5"",""20803""
","
","
","""event"",""trial"",""time""
""fullscreenenter"",""5"",""20803""
","
",288.14499999862164,NA,48,NA,NA,3000,1,NA,NA,images/earth.jpg,images/rocket2,images/rocket1,null,images/rocket2,NA,1,real,null,2,NA,NA,NA,sub105
d3-animate-choice,196,971629,0.0-76.0-1.20,TRUE,TRUE,FALSE,FALSE,"""event"",""trial"",""time""
""fullscreenenter"",""5"",""20803""
","
","
","""event"",""trial"",""time""
""fullscreenenter"",""5"",""20803""
","
",968.8099999985425,NA,48,NA,NA,3000,1,NA,NA,images/purpleplanet.jpg,images/alien4,images/alien3,images/rocket2,images/alien4,images/t.png,2,real,true,2,common,1,2020-06-26T16:54:50Z,sub105
two-step-fixation,197,972640,0.0-76.0-2.20,TRUE,TRUE,FALSE,FALSE,"""event"",""trial"",""time""
""fullscreenenter"",""5"",""20803""
","
","
","""event"",""trial"",""time""
""fullscreenenter"",""5"",""20803""
","
",NA,images/earth.jpg,NA,NA,NA,NA,NA,NA,NA,NA,NA,NA,NA,NA,NA,fixation,NA,NA,NA,NA,NA,NA,sub105
d3-animate-choice,198,975059,0.0-76.0-0.21,TRUE,TRUE,FALSE,FALSE,"""event"",""trial"",""time""
""fullscreenenter"",""5"",""20803""
","
","
","""event"",""trial"",""time""
""fullscreenenter"",""5"",""20803""
","
",405.3700000003446,NA,48,NA,NA,3000,1,NA,NA,images/earth.jpg,images/rocket2,images/rocket1,null,images/rocket2,NA,1,real,null,2,NA,NA,NA,sub105
d3-animate-choice,199,977656,0.0-76.0-1.21,TRUE,TRUE,FALSE,FALSE,"""event"",""trial"",""time""
""fullscreenenter"",""5"",""20803""
","
","
","""event"",""trial"",""time""
""fullscreenenter"",""5"",""20803""
","
",585.9200000049314,NA,48,NA,NA,3000,1,NA,NA,images/purpleplanet.jpg,images/alien4,images/alien3,images/rocket2,images/alien4,images/t.png,2,real,true,2,common,1,2020-06-26T16:54:56Z,sub105
two-step-fixation,200,978665,0.0-76.0-2.21,TRUE,TRUE,FALSE,FALSE,"""event"",""trial"",""time""
""fullscreenenter"",""5"",""20803""
","
","
","""event"",""trial"",""time""
""fullscreenenter"",""5"",""20803""
","
",NA,images/earth.jpg,NA,NA,NA,NA,NA,NA,NA,NA,NA,NA,NA,NA,NA,fixation,NA,NA,NA,NA,NA,NA,sub105
d3-animate-choice,201,980937,0.0-76.0-0.22,TRUE,TRUE,FALSE,FALSE,"""event"",""trial"",""time""
""fullscreenenter"",""5"",""20803""
","
","
","""event"",""trial"",""time""
""fullscreenenter"",""5"",""20803""
","
",262.40999999572523,NA,48,NA,NA,3000,1,NA,NA,images/earth.jpg,images/rocket2,images/rocket1,null,images/rocket2,NA,1,real,null,2,NA,NA,NA,sub105
d3-animate-choice,202,983866,0.0-76.0-1.22,TRUE,TRUE,FALSE,FALSE,"""event"",""trial"",""time""
""fullscreenenter"",""5"",""20803""
","
","
","""event"",""trial"",""time""
""fullscreenenter"",""5"",""20803""
","
",915.3050000022631,NA,49,NA,NA,3000,1,NA,NA,images/redplanet1.jpg,images/alien2,images/alien1,images/rocket2,images/alien1,images/t.png,2,real,false,1,rare,1,2020-06-26T16:55:03Z,sub105
two-step-fixation,203,984874,0.0-76.0-2.22,TRUE,TRUE,FALSE,FALSE,"""event"",""trial"",""time""
""fullscreenenter"",""5"",""20803""
","
","
","""event"",""trial"",""time""
""fullscreenenter"",""5"",""20803""
","
",NA,images/earth.jpg,NA,NA,NA,NA,NA,NA,NA,NA,NA,NA,NA,NA,NA,fixation,NA,NA,NA,NA,NA,NA,sub105
d3-animate-choice,204,987280,0.0-76.0-0.23,TRUE,TRUE,FALSE,FALSE,"""event"",""trial"",""time""
""fullscreenenter"",""5"",""20803""
","
","
","""event"",""trial"",""time""
""fullscreenenter"",""5"",""20803""
","
",392.2400000010384,NA,48,NA,NA,3000,1,NA,NA,images/earth.jpg,images/rocket2,images/rocket1,null,images/rocket2,NA,1,real,null,2,NA,NA,NA,sub105
d3-animate-choice,205,990051,0.0-76.0-1.23,TRUE,TRUE,FALSE,FALSE,"""event"",""trial"",""time""
""fullscreenenter"",""5"",""20803""
","
","
","""event"",""trial"",""time""
""fullscreenenter"",""5"",""20803""
","
",758.5699999982025,NA,49,NA,NA,3000,1,NA,NA,images/redplanet1.jpg,images/alien2,images/alien1,images/rocket2,images/alien1,images/nothing.png,2,real,false,1,rare,0,2020-06-26T16:55:09Z,sub105
two-step-fixation,206,991061,0.0-76.0-2.23,TRUE,TRUE,FALSE,FALSE,"""event"",""trial"",""time""
""fullscreenenter"",""5"",""20803""
","
","
","""event"",""trial"",""time""
""fullscreenenter"",""5"",""20803""
","
",NA,images/earth.jpg,NA,NA,NA,NA,NA,NA,NA,NA,NA,NA,NA,NA,NA,fixation,NA,NA,NA,NA,NA,NA,sub105
d3-animate-choice,207,993346,0.0-76.0-0.24,TRUE,TRUE,FALSE,FALSE,"""event"",""trial"",""time""
""fullscreenenter"",""5"",""20803""
","
","
","""event"",""trial"",""time""
""fullscreenenter"",""5"",""20803""
","
",274.22500000102445,NA,48,NA,NA,3000,1,NA,NA,images/earth.jpg,images/rocket2,images/rocket1,null,images/rocket2,NA,1,real,null,2,NA,NA,NA,sub105
d3-animate-choice,208,995867,0.0-76.0-1.24,TRUE,TRUE,FALSE,FALSE,"""event"",""trial"",""time""
""fullscreenenter"",""5"",""20803""
","
","
","""event"",""trial"",""time""
""fullscreenenter"",""5"",""20803""
","
",508.8099999993574,NA,48,NA,NA,3000,1,NA,NA,images/purpleplanet.jpg,images/alien4,images/alien3,images/rocket2,images/alien4,images/t.png,2,real,true,2,common,1,2020-06-26T16:55:15Z,sub105
two-step-fixation,209,996876,0.0-76.0-2.24,TRUE,TRUE,FALSE,FALSE,"""event"",""trial"",""time""
""fullscreenenter"",""5"",""20803""
","
","
","""event"",""trial"",""time""
""fullscreenenter"",""5"",""20803""
","
",NA,images/earth.jpg,NA,NA,NA,NA,NA,NA,NA,NA,NA,NA,NA,NA,NA,fixation,NA,NA,NA,NA,NA,NA,sub105
d3-animate-choice,210,999171,0.0-76.0-0.25,TRUE,TRUE,FALSE,FALSE,"""event"",""trial"",""time""
""fullscreenenter"",""5"",""20803""
","
","
","""event"",""trial"",""time""
""fullscreenenter"",""5"",""20803""
","
",285.0999999938067,NA,48,NA,NA,3000,1,NA,NA,images/earth.jpg,images/rocket2,images/rocket1,null,images/rocket2,NA,1,real,null,2,NA,NA,NA,sub105
d3-animate-choice,211,1001648,0.0-76.0-1.25,TRUE,TRUE,FALSE,FALSE,"""event"",""trial"",""time""
""fullscreenenter"",""5"",""20803""
","
","
","""event"",""trial"",""time""
""fullscreenenter"",""5"",""20803""
","
",465.32999999902677,NA,48,NA,NA,3000,1,NA,NA,images/purpleplanet.jpg,images/alien4,images/alien3,images/rocket2,images/alien4,images/t.png,2,real,true,2,common,1,2020-06-26T16:55:20Z,sub105
two-step-fixation,212,1002658,0.0-76.0-2.25,TRUE,TRUE,FALSE,FALSE,"""event"",""trial"",""time""
""fullscreenenter"",""5"",""20803""
","
","
","""event"",""trial"",""time""
""fullscreenenter"",""5"",""20803""
","
",NA,images/earth.jpg,NA,NA,NA,NA,NA,NA,NA,NA,NA,NA,NA,NA,NA,fixation,NA,NA,NA,NA,NA,NA,sub105
d3-animate-choice,213,1005070,0.0-76.0-0.26,TRUE,TRUE,FALSE,FALSE,"""event"",""trial"",""time""
""fullscreenenter"",""5"",""20803""
","
","
","""event"",""trial"",""time""
""fullscreenenter"",""5"",""20803""
","
",400.59499999904074,NA,48,NA,NA,3000,1,NA,NA,images/earth.jpg,images/rocket2,images/rocket1,null,images/rocket2,NA,1,real,null,2,NA,NA,NA,sub105
d3-animate-choice,214,1007686,0.0-76.0-1.26,TRUE,TRUE,FALSE,FALSE,"""event"",""trial"",""time""
""fullscreenenter"",""5"",""20803""
","
","
","""event"",""trial"",""time""
""fullscreenenter"",""5"",""20803""
","
",603.6500000045635,NA,48,NA,NA,3000,1,NA,NA,images/purpleplanet.jpg,images/alien4,images/alien3,images/rocket2,images/alien4,images/t.png,2,real,true,2,common,1,2020-06-26T16:55:26Z,sub105
two-step-fixation,215,1008698,0.0-76.0-2.26,TRUE,TRUE,FALSE,FALSE,"""event"",""trial"",""time""
""fullscreenenter"",""5"",""20803""
","
","
","""event"",""trial"",""time""
""fullscreenenter"",""5"",""20803""
","
",NA,images/earth.jpg,NA,NA,NA,NA,NA,NA,NA,NA,NA,NA,NA,NA,NA,fixation,NA,NA,NA,NA,NA,NA,sub105
d3-animate-choice,216,1011294,0.0-76.0-0.27,TRUE,TRUE,FALSE,FALSE,"""event"",""trial"",""time""
""fullscreenenter"",""5"",""20803""
","
","
","""event"",""trial"",""time""
""fullscreenenter"",""5"",""20803""
","
",585.1249999979045,NA,48,NA,NA,3000,1,NA,NA,images/earth.jpg,images/rocket2,images/rocket1,null,images/rocket2,NA,1,real,null,2,NA,NA,NA,sub105
d3-animate-choice,217,1013920,0.0-76.0-1.27,TRUE,TRUE,FALSE,FALSE,"""event"",""trial"",""time""
""fullscreenenter"",""5"",""20803""
","
","
","""event"",""trial"",""time""
""fullscreenenter"",""5"",""20803""
","
",612.3250000018161,NA,48,NA,NA,3000,1,NA,NA,images/purpleplanet.jpg,images/alien4,images/alien3,images/rocket2,images/alien4,images/t.png,2,real,true,2,common,1,2020-06-26T16:55:33Z,sub105
two-step-fixation,218,1014931,0.0-76.0-2.27,TRUE,TRUE,FALSE,FALSE,"""event"",""trial"",""time""
""fullscreenenter"",""5"",""20803""
","
","
","""event"",""trial"",""time""
""fullscreenenter"",""5"",""20803""
","
",NA,images/earth.jpg,NA,NA,NA,NA,NA,NA,NA,NA,NA,NA,NA,NA,NA,fixation,NA,NA,NA,NA,NA,NA,sub105
d3-animate-choice,219,1017840,0.0-76.0-0.28,TRUE,TRUE,FALSE,FALSE,"""event"",""trial"",""time""
""fullscreenenter"",""5"",""20803""
","
","
","""event"",""trial"",""time""
""fullscreenenter"",""5"",""20803""
","
",897.4149999995716,NA,48,NA,NA,3000,1,NA,NA,images/earth.jpg,images/rocket2,images/rocket1,null,images/rocket2,NA,1,real,null,2,NA,NA,NA,sub105
d3-animate-choice,220,1020514,0.0-76.0-1.28,TRUE,TRUE,FALSE,FALSE,"""event"",""trial"",""time""
""fullscreenenter"",""5"",""20803""
","
","
","""event"",""trial"",""time""
""fullscreenenter"",""5"",""20803""
","
",663.9150000046939,NA,48,NA,NA,3000,1,NA,NA,images/purpleplanet.jpg,images/alien4,images/alien3,images/rocket2,images/alien4,images/t.png,2,real,true,2,common,1,2020-06-26T16:55:39Z,sub105
two-step-fixation,221,1021524,0.0-76.0-2.28,TRUE,TRUE,FALSE,FALSE,"""event"",""trial"",""time""
""fullscreenenter"",""5"",""20803""
","
","
","""event"",""trial"",""time""
""fullscreenenter"",""5"",""20803""
","
",NA,images/earth.jpg,NA,NA,NA,NA,NA,NA,NA,NA,NA,NA,NA,NA,NA,fixation,NA,NA,NA,NA,NA,NA,sub105
d3-animate-choice,222,1024597,0.0-76.0-0.29,TRUE,TRUE,FALSE,FALSE,"""event"",""trial"",""time""
""fullscreenenter"",""5"",""20803""
","
","
","""event"",""trial"",""time""
""fullscreenenter"",""5"",""20803""
","
",1062.575000003446,NA,48,NA,NA,3000,1,NA,NA,images/earth.jpg,images/rocket2,images/rocket1,null,images/rocket2,NA,1,real,null,2,NA,NA,NA,sub105
d3-animate-choice,223,1028540,0.0-76.0-1.29,TRUE,TRUE,FALSE,FALSE,"""event"",""trial"",""time""
""fullscreenenter"",""5"",""20803""
","
","
","""event"",""trial"",""time""
""fullscreenenter"",""5"",""20803""
","
",1929.3150000011083,NA,49,NA,NA,3000,1,NA,NA,images/redplanet1.jpg,images/alien2,images/alien1,images/rocket2,images/alien1,images/t.png,2,real,false,1,rare,1,2020-06-26T16:55:47Z,sub105
two-step-fixation,224,1029550,0.0-76.0-2.29,TRUE,TRUE,FALSE,FALSE,"""event"",""trial"",""time""
""fullscreenenter"",""5"",""20803""
","
","
","""event"",""trial"",""time""
""fullscreenenter"",""5"",""20803""
","
",NA,images/earth.jpg,NA,NA,NA,NA,NA,NA,NA,NA,NA,NA,NA,NA,NA,fixation,NA,NA,NA,NA,NA,NA,sub105
d3-animate-choice,225,1031929,0.0-76.0-0.30,TRUE,TRUE,FALSE,FALSE,"""event"",""trial"",""time""
""fullscreenenter"",""5"",""20803""
","
","
","""event"",""trial"",""time""
""fullscreenenter"",""5"",""20803""
","
",368.73999999812804,NA,48,NA,NA,3000,1,NA,NA,images/earth.jpg,images/rocket2,images/rocket1,null,images/rocket2,NA,1,real,null,2,NA,NA,NA,sub105
d3-animate-choice,226,1034900,0.0-76.0-1.30,TRUE,TRUE,FALSE,FALSE,"""event"",""trial"",""time""
""fullscreenenter"",""5"",""20803""
","
","
","""event"",""trial"",""time""
""fullscreenenter"",""5"",""20803""
","
",960.0050000008196,NA,48,NA,NA,3000,1,NA,NA,images/purpleplanet.jpg,images/alien4,images/alien3,images/rocket2,images/alien4,images/t.png,2,real,true,2,common,1,2020-06-26T16:55:54Z,sub105
two-step-fixation,227,1035909,0.0-76.0-2.30,TRUE,TRUE,FALSE,FALSE,"""event"",""trial"",""time""
""fullscreenenter"",""5"",""20803""
","
","
","""event"",""trial"",""time""
""fullscreenenter"",""5"",""20803""
","
",NA,images/earth.jpg,NA,NA,NA,NA,NA,NA,NA,NA,NA,NA,NA,NA,NA,fixation,NA,NA,NA,NA,NA,NA,sub105
d3-animate-choice,228,1038762,0.0-76.0-0.31,TRUE,TRUE,FALSE,FALSE,"""event"",""trial"",""time""
""fullscreenenter"",""5"",""20803""
","
","
","""event"",""trial"",""time""
""fullscreenenter"",""5"",""20803""
","
",841.0549999971408,NA,48,NA,NA,3000,1,NA,NA,images/earth.jpg,images/rocket2,images/rocket1,null,images/rocket2,NA,1,real,null,2,NA,NA,NA,sub105
d3-animate-choice,229,1041697,0.0-76.0-1.31,TRUE,TRUE,FALSE,FALSE,"""event"",""trial"",""time""
""fullscreenenter"",""5"",""20803""
","
","
","""event"",""trial"",""time""
""fullscreenenter"",""5"",""20803""
","
",924.3900000001304,NA,48,NA,NA,3000,1,NA,NA,images/purpleplanet.jpg,images/alien4,images/alien3,images/rocket2,images/alien4,images/t.png,2,real,true,2,common,1,2020-06-26T16:56:00Z,sub105
two-step-fixation,230,1042706,0.0-76.0-2.31,TRUE,TRUE,FALSE,FALSE,"""event"",""trial"",""time""
""fullscreenenter"",""5"",""20803""
","
","
","""event"",""trial"",""time""
""fullscreenenter"",""5"",""20803""
","
",NA,images/earth.jpg,NA,NA,NA,NA,NA,NA,NA,NA,NA,NA,NA,NA,NA,fixation,NA,NA,NA,NA,NA,NA,sub105
d3-animate-choice,231,1045255,0.0-76.0-0.32,TRUE,TRUE,FALSE,FALSE,"""event"",""trial"",""time""
""fullscreenenter"",""5"",""20803""
","
","
","""event"",""trial"",""time""
""fullscreenenter"",""5"",""20803""
","
",537.195000004489,NA,48,NA,NA,3000,1,NA,NA,images/earth.jpg,images/rocket2,images/rocket1,null,images/rocket2,NA,1,real,null,2,NA,NA,NA,sub105
d3-animate-choice,232,1047867,0.0-76.0-1.32,TRUE,TRUE,FALSE,FALSE,"""event"",""trial"",""time""
""fullscreenenter"",""5"",""20803""
","
","
","""event"",""trial"",""time""
""fullscreenenter"",""5"",""20803""
","
",598.105000004638,NA,48,NA,NA,3000,1,NA,NA,images/purpleplanet.jpg,images/alien4,images/alien3,images/rocket2,images/alien4,images/nothing.png,2,real,true,2,common,0,2020-06-26T16:56:07Z,sub105
two-step-fixation,233,1048879,0.0-76.0-2.32,TRUE,TRUE,FALSE,FALSE,"""event"",""trial"",""time""
""fullscreenenter"",""5"",""20803""
","
","
","""event"",""trial"",""time""
""fullscreenenter"",""5"",""20803""
","
",NA,images/earth.jpg,NA,NA,NA,NA,NA,NA,NA,NA,NA,NA,NA,NA,NA,fixation,NA,NA,NA,NA,NA,NA,sub105
d3-animate-choice,234,1051224,0.0-76.0-0.33,TRUE,TRUE,FALSE,FALSE,"""event"",""trial"",""time""
""fullscreenenter"",""5"",""20803""
","
","
","""event"",""trial"",""time""
""fullscreenenter"",""5"",""20803""
","
",331.9449999979697,NA,48,NA,NA,3000,1,NA,NA,images/earth.jpg,images/rocket2,images/rocket1,null,images/rocket2,NA,1,real,null,2,NA,NA,NA,sub105
d3-animate-choice,235,1053619,0.0-76.0-1.33,TRUE,TRUE,FALSE,FALSE,"""event"",""trial"",""time""
""fullscreenenter"",""5"",""20803""
","
","
","""event"",""trial"",""time""
""fullscreenenter"",""5"",""20803""
","
",381.49500000150874,NA,48,NA,NA,3000,1,NA,NA,images/purpleplanet.jpg,images/alien4,images/alien3,images/rocket2,images/alien4,images/t.png,2,real,true,2,common,1,2020-06-26T16:56:12Z,sub105
two-step-fixation,236,1054631,0.0-76.0-2.33,TRUE,TRUE,FALSE,FALSE,"""event"",""trial"",""time""
""fullscreenenter"",""5"",""20803""
","
","
","""event"",""trial"",""time""
""fullscreenenter"",""5"",""20803""
","
",NA,images/earth.jpg,NA,NA,NA,NA,NA,NA,NA,NA,NA,NA,NA,NA,NA,fixation,NA,NA,NA,NA,NA,NA,sub105
d3-animate-choice,237,1056957,0.0-76.0-0.34,TRUE,TRUE,FALSE,FALSE,"""event"",""trial"",""time""
""fullscreenenter"",""5"",""20803""
","
","
","""event"",""trial"",""time""
""fullscreenenter"",""5"",""20803""
","
",310.35500000137836,NA,48,NA,NA,3000,1,NA,NA,images/earth.jpg,images/rocket2,images/rocket1,null,images/rocket2,NA,1,real,null,2,NA,NA,NA,sub105
d3-animate-choice,238,1059443,0.0-76.0-1.34,TRUE,TRUE,FALSE,FALSE,"""event"",""trial"",""time""
""fullscreenenter"",""5"",""20803""
","
","
","""event"",""trial"",""time""
""fullscreenenter"",""5"",""20803""
","
",475.41500000073574,NA,48,NA,NA,3000,1,NA,NA,images/purpleplanet.jpg,images/alien4,images/alien3,images/rocket2,images/alien4,images/t.png,2,real,true,2,common,1,2020-06-26T16:56:18Z,sub105
two-step-fixation,239,1060454,0.0-76.0-2.34,TRUE,TRUE,FALSE,FALSE,"""event"",""trial"",""time""
""fullscreenenter"",""5"",""20803""
","
","
","""event"",""trial"",""time""
""fullscreenenter"",""5"",""20803""
","
",NA,images/earth.jpg,NA,NA,NA,NA,NA,NA,NA,NA,NA,NA,NA,NA,NA,fixation,NA,NA,NA,NA,NA,NA,sub105
d3-animate-choice,240,1062771,0.0-76.0-0.35,TRUE,TRUE,FALSE,FALSE,"""event"",""trial"",""time""
""fullscreenenter"",""5"",""20803""
","
","
","""event"",""trial"",""time""
""fullscreenenter"",""5"",""20803""
","
",305.2399999941699,NA,48,NA,NA,3000,1,NA,NA,images/earth.jpg,images/rocket2,images/rocket1,null,images/rocket2,NA,1,real,null,2,NA,NA,NA,sub105
d3-animate-choice,241,1065206,0.0-76.0-1.35,TRUE,TRUE,FALSE,FALSE,"""event"",""trial"",""time""
""fullscreenenter"",""5"",""20803""
","
","
","""event"",""trial"",""time""
""fullscreenenter"",""5"",""20803""
","
",423.3249999959953,NA,48,NA,NA,3000,1,NA,NA,images/purpleplanet.jpg,images/alien4,images/alien3,images/rocket2,images/alien4,images/t.png,2,real,true,2,common,1,2020-06-26T16:56:24Z,sub105
two-step-fixation,242,1066215,0.0-76.0-2.35,TRUE,TRUE,FALSE,FALSE,"""event"",""trial"",""time""
""fullscreenenter"",""5"",""20803""
","
","
","""event"",""trial"",""time""
""fullscreenenter"",""5"",""20803""
","
",NA,images/earth.jpg,NA,NA,NA,NA,NA,NA,NA,NA,NA,NA,NA,NA,NA,fixation,NA,NA,NA,NA,NA,NA,sub105
d3-animate-choice,243,1068581,0.0-76.0-0.36,TRUE,TRUE,FALSE,FALSE,"""event"",""trial"",""time""
""fullscreenenter"",""5"",""20803""
","
","
","""event"",""trial"",""time""
""fullscreenenter"",""5"",""20803""
","
",357.40500000235625,NA,48,NA,NA,3000,1,NA,NA,images/earth.jpg,images/rocket2,images/rocket1,null,images/rocket2,NA,1,real,null,2,NA,NA,NA,sub105
d3-animate-choice,244,1070975,0.0-76.0-1.36,TRUE,TRUE,FALSE,FALSE,"""event"",""trial"",""time""
""fullscreenenter"",""5"",""20803""
","
","
","""event"",""trial"",""time""
""fullscreenenter"",""5"",""20803""
","
",379.96999999461696,NA,48,NA,NA,3000,1,NA,NA,images/purpleplanet.jpg,images/alien4,images/alien3,images/rocket2,images/alien4,images/t.png,2,real,true,2,common,1,2020-06-26T16:56:30Z,sub105
two-step-fixation,245,1071984,0.0-76.0-2.36,TRUE,TRUE,FALSE,FALSE,"""event"",""trial"",""time""
""fullscreenenter"",""5"",""20803""
","
","
","""event"",""trial"",""time""
""fullscreenenter"",""5"",""20803""
","
",NA,images/earth.jpg,NA,NA,NA,NA,NA,NA,NA,NA,NA,NA,NA,NA,NA,fixation,NA,NA,NA,NA,NA,NA,sub105
d3-animate-choice,246,1074321,0.0-76.0-0.37,TRUE,TRUE,FALSE,FALSE,"""event"",""trial"",""time""
""fullscreenenter"",""5"",""20803""
","
","
","""event"",""trial"",""time""
""fullscreenenter"",""5"",""20803""
","
",325.8300000014715,NA,48,NA,NA,3000,1,NA,NA,images/earth.jpg,images/rocket2,images/rocket1,null,images/rocket2,NA,1,real,null,2,NA,NA,NA,sub105
d3-animate-choice,247,1076765,0.0-76.0-1.37,TRUE,TRUE,FALSE,FALSE,"""event"",""trial"",""time""
""fullscreenenter"",""5"",""20803""
","
","
","""event"",""trial"",""time""
""fullscreenenter"",""5"",""20803""
","
",432.01499999850057,NA,48,NA,NA,3000,1,NA,NA,images/purpleplanet.jpg,images/alien4,images/alien3,images/rocket2,images/alien4,images/nothing.png,2,real,true,2,common,0,2020-06-26T16:56:36Z,sub105
two-step-fixation,248,1077773,0.0-76.0-2.37,TRUE,TRUE,FALSE,FALSE,"""event"",""trial"",""time""
""fullscreenenter"",""5"",""20803""
","
","
","""event"",""trial"",""time""
""fullscreenenter"",""5"",""20803""
","
",NA,images/earth.jpg,NA,NA,NA,NA,NA,NA,NA,NA,NA,NA,NA,NA,NA,fixation,NA,NA,NA,NA,NA,NA,sub105
d3-animate-choice,249,1080079,0.0-76.0-0.38,TRUE,TRUE,FALSE,FALSE,"""event"",""trial"",""time""
""fullscreenenter"",""5"",""20803""
","
","
","""event"",""trial"",""time""
""fullscreenenter"",""5"",""20803""
","
",296.8800000017509,NA,48,NA,NA,3000,1,NA,NA,images/earth.jpg,images/rocket2,images/rocket1,null,images/rocket2,NA,1,real,null,2,NA,NA,NA,sub105
d3-animate-choice,250,1082621,0.0-76.0-1.38,TRUE,TRUE,FALSE,FALSE,"""event"",""trial"",""time""
""fullscreenenter"",""5"",""20803""
","
","
","""event"",""trial"",""time""
""fullscreenenter"",""5"",""20803""
","
",531.9749999979977,NA,48,NA,NA,3000,1,NA,NA,images/purpleplanet.jpg,images/alien4,images/alien3,images/rocket2,images/alien4,images/t.png,2,real,true,2,common,1,2020-06-26T16:56:41Z,sub105
two-step-fixation,251,1083627,0.0-76.0-2.38,TRUE,TRUE,FALSE,FALSE,"""event"",""trial"",""time""
""fullscreenenter"",""5"",""20803""
","
","
","""event"",""trial"",""time""
""fullscreenenter"",""5"",""20803""
","
",NA,images/earth.jpg,NA,NA,NA,NA,NA,NA,NA,NA,NA,NA,NA,NA,NA,fixation,NA,NA,NA,NA,NA,NA,sub105
d3-animate-choice,252,1085969,0.0-76.0-0.39,TRUE,TRUE,FALSE,FALSE,"""event"",""trial"",""time""
""fullscreenenter"",""5"",""20803""
","
","
","""event"",""trial"",""time""
""fullscreenenter"",""5"",""20803""
","
",331.1050000048708,NA,48,NA,NA,3000,1,NA,NA,images/earth.jpg,images/rocket2,images/rocket1,null,images/rocket2,NA,1,real,null,2,NA,NA,NA,sub105
d3-animate-choice,253,1088439,0.0-76.0-1.39,TRUE,TRUE,FALSE,FALSE,"""event"",""trial"",""time""
""fullscreenenter"",""5"",""20803""
","
","
","""event"",""trial"",""time""
""fullscreenenter"",""5"",""20803""
","
",458.78000000072643,NA,48,NA,NA,3000,1,NA,NA,images/purpleplanet.jpg,images/alien4,images/alien3,images/rocket2,images/alien4,images/nothing.png,2,real,true,2,common,0,2020-06-26T16:56:47Z,sub105
two-step-fixation,254,1089443,0.0-76.0-2.39,TRUE,TRUE,FALSE,FALSE,"""event"",""trial"",""time""
""fullscreenenter"",""5"",""20803""
","
","
","""event"",""trial"",""time""
""fullscreenenter"",""5"",""20803""
","
",NA,images/earth.jpg,NA,NA,NA,NA,NA,NA,NA,NA,NA,NA,NA,NA,NA,fixation,NA,NA,NA,NA,NA,NA,sub105
d3-animate-choice,255,1091837,0.0-76.0-0.40,TRUE,TRUE,FALSE,FALSE,"""event"",""trial"",""time""
""fullscreenenter"",""5"",""20803""
","
","
","""event"",""trial"",""time""
""fullscreenenter"",""5"",""20803""
","
",383.4750000021886,NA,48,NA,NA,3000,1,NA,NA,images/earth.jpg,images/rocket2,images/rocket1,null,images/rocket2,NA,1,real,null,2,NA,NA,NA,sub105
d3-animate-choice,256,1094894,0.0-76.0-1.40,TRUE,TRUE,FALSE,FALSE,"""event"",""trial"",""time""
""fullscreenenter"",""5"",""20803""
","
","
","""event"",""trial"",""time""
""fullscreenenter"",""5"",""20803""
","
",1043.1299999980256,NA,48,NA,NA,3000,1,NA,NA,images/purpleplanet.jpg,images/alien4,images/alien3,images/rocket2,images/alien4,images/nothing.png,2,real,true,2,common,0,2020-06-26T16:56:54Z,sub105
two-step-fixation,257,1095903,0.0-76.0-2.40,TRUE,TRUE,FALSE,FALSE,"""event"",""trial"",""time""
""fullscreenenter"",""5"",""20803""
","
","
","""event"",""trial"",""time""
""fullscreenenter"",""5"",""20803""
","
",NA,images/earth.jpg,NA,NA,NA,NA,NA,NA,NA,NA,NA,NA,NA,NA,NA,fixation,NA,NA,NA,NA,NA,NA,sub105
d3-animate-choice,258,1098853,0.0-76.0-0.41,TRUE,TRUE,FALSE,FALSE,"""event"",""trial"",""time""
""fullscreenenter"",""5"",""20803""
","
","
","""event"",""trial"",""time""
""fullscreenenter"",""5"",""20803""
","
",940.3249999959953,NA,48,NA,NA,3000,1,NA,NA,images/earth.jpg,images/rocket2,images/rocket1,null,images/rocket2,NA,1,real,null,2,NA,NA,NA,sub105
d3-animate-choice,259,1101490,0.0-76.0-1.41,TRUE,TRUE,FALSE,FALSE,"""event"",""trial"",""time""
""fullscreenenter"",""5"",""20803""
","
","
","""event"",""trial"",""time""
""fullscreenenter"",""5"",""20803""
","
",624.7899999944493,NA,49,NA,NA,3000,1,NA,NA,images/purpleplanet.jpg,images/alien4,images/alien3,images/rocket2,images/alien3,images/t.png,2,real,true,1,common,1,2020-06-26T16:57:00Z,sub105
two-step-fixation,260,1102501,0.0-76.0-2.41,TRUE,TRUE,FALSE,FALSE,"""event"",""trial"",""time""
""fullscreenenter"",""5"",""20803""
","
","
","""event"",""trial"",""time""
""fullscreenenter"",""5"",""20803""
","
",NA,images/earth.jpg,NA,NA,NA,NA,NA,NA,NA,NA,NA,NA,NA,NA,NA,fixation,NA,NA,NA,NA,NA,NA,sub105
d3-animate-choice,261,1104853,0.0-76.0-0.42,TRUE,TRUE,FALSE,FALSE,"""event"",""trial"",""time""
""fullscreenenter"",""5"",""20803""
","
","
","""event"",""trial"",""time""
""fullscreenenter"",""5"",""20803""
","
",340.76000000629574,NA,48,NA,NA,3000,1,NA,NA,images/earth.jpg,images/rocket2,images/rocket1,null,images/rocket2,NA,1,real,null,2,NA,NA,NA,sub105
d3-animate-choice,262,1108041,0.0-76.0-1.42,TRUE,TRUE,FALSE,FALSE,"""event"",""trial"",""time""
""fullscreenenter"",""5"",""20803""
","
","
","""event"",""trial"",""time""
""fullscreenenter"",""5"",""20803""
","
",1177.7750000036322,NA,49,NA,NA,3000,1,NA,NA,images/redplanet1.jpg,images/alien2,images/alien1,images/rocket2,images/alien1,images/t.png,2,real,false,1,rare,1,2020-06-26T16:57:07Z,sub105
two-step-fixation,263,1109051,0.0-76.0-2.42,TRUE,TRUE,FALSE,FALSE,"""event"",""trial"",""time""
""fullscreenenter"",""5"",""20803""
","
","
","""event"",""trial"",""time""
""fullscreenenter"",""5"",""20803""
","
",NA,images/earth.jpg,NA,NA,NA,NA,NA,NA,NA,NA,NA,NA,NA,NA,NA,fixation,NA,NA,NA,NA,NA,NA,sub105
d3-animate-choice,264,1111501,0.0-76.0-0.43,TRUE,TRUE,FALSE,FALSE,"""event"",""trial"",""time""
""fullscreenenter"",""5"",""20803""
","
","
","""event"",""trial"",""time""
""fullscreenenter"",""5"",""20803""
","
",438.4300000020303,NA,48,NA,NA,3000,1,NA,NA,images/earth.jpg,images/rocket2,images/rocket1,null,images/rocket2,NA,1,real,null,2,NA,NA,NA,sub105
d3-animate-choice,265,1113935,0.0-76.0-1.43,TRUE,TRUE,FALSE,FALSE,"""event"",""trial"",""time""
""fullscreenenter"",""5"",""20803""
","
","
","""event"",""trial"",""time""
""fullscreenenter"",""5"",""20803""
","
",423.47500000335276,NA,49,NA,NA,3000,1,NA,NA,images/purpleplanet.jpg,images/alien4,images/alien3,images/rocket2,images/alien3,images/nothing.png,2,real,true,1,common,0,2020-06-26T16:57:13Z,sub105
two-step-fixation,266,1114946,0.0-76.0-2.43,TRUE,TRUE,FALSE,FALSE,"""event"",""trial"",""time""
""fullscreenenter"",""5"",""20803""
","
","
","""event"",""trial"",""time""
""fullscreenenter"",""5"",""20803""
","
",NA,images/earth.jpg,NA,NA,NA,NA,NA,NA,NA,NA,NA,NA,NA,NA,NA,fixation,NA,NA,NA,NA,NA,NA,sub105
d3-animate-choice,267,1117363,0.0-76.0-0.44,TRUE,TRUE,FALSE,FALSE,"""event"",""trial"",""time""
""fullscreenenter"",""5"",""20803""
","
","
","""event"",""trial"",""time""
""fullscreenenter"",""5"",""20803""
","
",407.8450000016019,NA,48,NA,NA,3000,1,NA,NA,images/earth.jpg,images/rocket2,images/rocket1,null,images/rocket2,NA,1,real,null,2,NA,NA,NA,sub105
d3-animate-choice,268,1119891,0.0-76.0-1.44,TRUE,TRUE,FALSE,FALSE,"""event"",""trial"",""time""
""fullscreenenter"",""5"",""20803""
","
","
","""event"",""trial"",""time""
""fullscreenenter"",""5"",""20803""
","
",514.2300000006799,NA,49,NA,NA,3000,1,NA,NA,images/purpleplanet.jpg,images/alien4,images/alien3,images/rocket2,images/alien3,images/t.png,2,real,true,1,common,1,2020-06-26T16:57:19Z,sub105
two-step-fixation,269,1120901,0.0-76.0-2.44,TRUE,TRUE,FALSE,FALSE,"""event"",""trial"",""time""
""fullscreenenter"",""5"",""20803""
","
","
","""event"",""trial"",""time""
""fullscreenenter"",""5"",""20803""
","
",NA,images/earth.jpg,NA,NA,NA,NA,NA,NA,NA,NA,NA,NA,NA,NA,NA,fixation,NA,NA,NA,NA,NA,NA,sub105
d3-animate-choice,270,1123440,0.0-76.0-0.45,TRUE,TRUE,FALSE,FALSE,"""event"",""trial"",""time""
""fullscreenenter"",""5"",""20803""
","
","
","""event"",""trial"",""time""
""fullscreenenter"",""5"",""20803""
","
",528.2700000025798,NA,48,NA,NA,3000,1,NA,NA,images/earth.jpg,images/rocket2,images/rocket1,null,images/rocket2,NA,1,real,null,2,NA,NA,NA,sub105
d3-animate-choice,271,1125887,0.0-76.0-1.45,TRUE,TRUE,FALSE,FALSE,"""event"",""trial"",""time""
""fullscreenenter"",""5"",""20803""
","
","
","""event"",""trial"",""time""
""fullscreenenter"",""5"",""20803""
","
",436.69999999855645,NA,49,NA,NA,3000,1,NA,NA,images/purpleplanet.jpg,images/alien4,images/alien3,images/rocket2,images/alien3,images/nothing.png,2,real,true,1,common,0,2020-06-26T16:57:25Z,sub105
two-step-fixation,272,1126898,0.0-76.0-2.45,TRUE,TRUE,FALSE,FALSE,"""event"",""trial"",""time""
""fullscreenenter"",""5"",""20803""
","
","
","""event"",""trial"",""time""
""fullscreenenter"",""5"",""20803""
","
",NA,images/earth.jpg,NA,NA,NA,NA,NA,NA,NA,NA,NA,NA,NA,NA,NA,fixation,NA,NA,NA,NA,NA,NA,sub105
d3-animate-choice,273,1129621,0.0-76.0-0.46,TRUE,TRUE,FALSE,FALSE,"""event"",""trial"",""time""
""fullscreenenter"",""5"",""20803""
","
","
","""event"",""trial"",""time""
""fullscreenenter"",""5"",""20803""
","
",710.0900000005495,NA,49,NA,NA,3000,1,NA,NA,images/earth.jpg,images/rocket2,images/rocket1,null,images/rocket1,NA,1,real,null,1,NA,NA,NA,sub105
d3-animate-choice,274,1131947,0.0-76.0-1.46,TRUE,TRUE,FALSE,FALSE,"""event"",""trial"",""time""
""fullscreenenter"",""5"",""20803""
","
","
","""event"",""trial"",""time""
""fullscreenenter"",""5"",""20803""
","
",315.64500000234693,NA,49,NA,NA,3000,1,NA,NA,images/redplanet1.jpg,images/alien2,images/alien1,images/rocket1,images/alien1,images/t.png,2,real,true,1,common,1,2020-06-26T16:57:31Z,sub105
two-step-fixation,275,1132956,0.0-76.0-2.46,TRUE,TRUE,FALSE,FALSE,"""event"",""trial"",""time""
""fullscreenenter"",""5"",""20803""
","
","
","""event"",""trial"",""time""
""fullscreenenter"",""5"",""20803""
","
",NA,images/earth.jpg,NA,NA,NA,NA,NA,NA,NA,NA,NA,NA,NA,NA,NA,fixation,NA,NA,NA,NA,NA,NA,sub105
d3-animate-choice,276,1135371,0.0-76.0-0.47,TRUE,TRUE,FALSE,FALSE,"""event"",""trial"",""time""
""fullscreenenter"",""5"",""20803""
","
","
","""event"",""trial"",""time""
""fullscreenenter"",""5"",""20803""
","
",404.71500000427477,NA,49,NA,NA,3000,1,NA,NA,images/earth.jpg,images/rocket2,images/rocket1,null,images/rocket1,NA,1,real,null,1,NA,NA,NA,sub105
d3-animate-choice,277,1137757,0.0-76.0-1.47,TRUE,TRUE,FALSE,FALSE,"""event"",""trial"",""time""
""fullscreenenter"",""5"",""20803""
","
","
","""event"",""trial"",""time""
""fullscreenenter"",""5"",""20803""
","
",373.275000005262,NA,49,NA,NA,3000,1,NA,NA,images/redplanet1.jpg,images/alien2,images/alien1,images/rocket1,images/alien1,images/t.png,2,real,true,1,common,1,2020-06-26T16:57:36Z,sub105
two-step-fixation,278,1138766,0.0-76.0-2.47,TRUE,TRUE,FALSE,FALSE,"""event"",""trial"",""time""
""fullscreenenter"",""5"",""20803""
","
","
","""event"",""trial"",""time""
""fullscreenenter"",""5"",""20803""
","
",NA,images/earth.jpg,NA,NA,NA,NA,NA,NA,NA,NA,NA,NA,NA,NA,NA,fixation,NA,NA,NA,NA,NA,NA,sub105
d3-animate-choice,279,1141254,0.0-76.0-0.48,TRUE,TRUE,FALSE,FALSE,"""event"",""trial"",""time""
""fullscreenenter"",""5"",""20803""
","
","
","""event"",""trial"",""time""
""fullscreenenter"",""5"",""20803""
","
",477.3249999997206,NA,49,NA,NA,3000,1,NA,NA,images/earth.jpg,images/rocket2,images/rocket1,null,images/rocket1,NA,1,real,null,1,NA,NA,NA,sub105
d3-animate-choice,280,1143614,0.0-76.0-1.48,TRUE,TRUE,FALSE,FALSE,"""event"",""trial"",""time""
""fullscreenenter"",""5"",""20803""
","
","
","""event"",""trial"",""time""
""fullscreenenter"",""5"",""20803""
","
",348.0150000031572,NA,49,NA,NA,3000,1,NA,NA,images/purpleplanet.jpg,images/alien4,images/alien3,images/rocket1,images/alien3,images/nothing.png,2,real,false,1,rare,0,2020-06-26T16:57:42Z,sub105
two-step-fixation,281,1144624,0.0-76.0-2.48,TRUE,TRUE,FALSE,FALSE,"""event"",""trial"",""time""
""fullscreenenter"",""5"",""20803""
","
","
","""event"",""trial"",""time""
""fullscreenenter"",""5"",""20803""
","
",NA,images/earth.jpg,NA,NA,NA,NA,NA,NA,NA,NA,NA,NA,NA,NA,NA,fixation,NA,NA,NA,NA,NA,NA,sub105
d3-animate-choice,282,1147073,0.0-76.0-0.49,TRUE,TRUE,FALSE,FALSE,"""event"",""trial"",""time""
""fullscreenenter"",""5"",""20803""
","
","
","""event"",""trial"",""time""
""fullscreenenter"",""5"",""20803""
","
",440.3999999994412,NA,49,NA,NA,3000,1,NA,NA,images/earth.jpg,images/rocket2,images/rocket1,null,images/rocket1,NA,1,real,null,1,NA,NA,NA,sub105
