trial_type,trial_index,time_elapsed,internal_node_id,rocket_sides,red_planet_first_rocket,red_display_order,purple_display_order,interactions,blur_events,focus_events,fullscreenenter_events,fullscreenexit_events,rt,stimulus,key_press,button_pressed,success,duration,valid_pressed,rts,keys,planet_text,right_text,left_text,center_text,chosen_text,reward_text,trial_stage,practice_trial,transition_type,choice,transition,reward,timestamp,subject_id
pavlovia,0,16,0.0-0.0,TRUE,FALSE,FALSE,TRUE,"
","
","
","
","
",NA,NA,NA,NA,NA,NA,NA,NA,NA,NA,NA,NA,NA,NA,NA,NA,NA,NA,NA,NA,NA,NA,sub84
html-keyboard-response,1,1717,0.0-1.0,TRUE,FALSE,FALSE,TRUE,"
","
","
","
","
",1698,Welcome! Press the space bar to begin.,32,NA,NA,NA,NA,NA,NA,NA,NA,NA,NA,NA,NA,NA,NA,NA,NA,NA,NA,NA,sub84
audio-keyboard-response,2,1731,0.0-2.0,TRUE,FALSE,FALSE,TRUE,"
","
","
","
","
",11,audio/beep_loop.wav,78,NA,NA,NA,NA,NA,NA,NA,NA,NA,NA,NA,NA,NA,NA,NA,NA,NA,NA,NA,sub84
audio-button-response,3,5008,0.0-3.0,TRUE,FALSE,FALSE,TRUE,"
","
","
","
","
",NaN,audio/fish.mp3,NA,1,NA,NA,NA,NA,NA,NA,NA,NA,NA,NA,NA,NA,NA,NA,NA,NA,NA,NA,sub84
audio-button-response,4,7493,0.0-4.0,TRUE,FALSE,FALSE,TRUE,"""event"",""trial"",""time""
""fullscreenenter"",""5"",""10213""
","
","
","""event"",""trial"",""time""
""fullscreenenter"",""5"",""10213""
","
",NaN,audio/tiger.mp3,NA,4,NA,NA,NA,NA,NA,NA,NA,NA,NA,NA,NA,NA,NA,NA,NA,NA,NA,NA,sub84
fullscreen,5,10874,0.0-5.0,TRUE,FALSE,FALSE,TRUE,"""event"",""trial"",""time""
""fullscreenenter"",""5"",""10213""
","
","
","""event"",""trial"",""time""
""fullscreenenter"",""5"",""10213""
","
",NA,NA,NA,NA,TRUE,NA,NA,NA,NA,NA,NA,NA,NA,NA,NA,NA,NA,NA,NA,NA,NA,NA,sub84
d3-instructions,6,123771,0.0-6.0,TRUE,FALSE,FALSE,TRUE,"""event"",""trial"",""time""
""fullscreenenter"",""5"",""10213""
","
","
","""event"",""trial"",""time""
""fullscreenenter"",""5"",""10213""
","
",NA,NA,NA,NA,NA,NA,NA,NA,NA,NA,NA,NA,NA,NA,NA,NA,NA,NA,NA,NA,NA,NA,sub84
d3-instructions,7,147764,0.0-7.0,TRUE,FALSE,FALSE,TRUE,"""event"",""trial"",""time""
""fullscreenenter"",""5"",""10213""
","
","
","""event"",""trial"",""time""
""fullscreenenter"",""5"",""10213""
","
",NA,NA,NA,NA,NA,NA,NA,NA,NA,NA,NA,NA,NA,NA,NA,NA,NA,NA,NA,NA,NA,NA,sub84
d3-instructions,8,157342,0.0-8.0,TRUE,FALSE,FALSE,TRUE,"""event"",""trial"",""time""
""fullscreenenter"",""5"",""10213""
","
","
","""event"",""trial"",""time""
""fullscreenenter"",""5"",""10213""
","
",NA,NA,NA,NA,NA,NA,NA,NA,NA,NA,NA,NA,NA,NA,NA,NA,NA,NA,NA,NA,NA,NA,sub84
d3-instructions,9,172282,0.0-9.0,TRUE,FALSE,FALSE,TRUE,"""event"",""trial"",""time""
""fullscreenenter"",""5"",""10213""
","
","
","""event"",""trial"",""time""
""fullscreenenter"",""5"",""10213""
","
",NA,NA,NA,NA,NA,NA,NA,NA,NA,NA,NA,NA,NA,NA,NA,NA,NA,NA,NA,NA,NA,NA,sub84
d3-instructions,10,188953,0.0-10.0,TRUE,FALSE,FALSE,TRUE,"""event"",""trial"",""time""
""fullscreenenter"",""5"",""10213""
","
","
","""event"",""trial"",""time""
""fullscreenenter"",""5"",""10213""
","
",NA,NA,NA,NA,NA,NA,NA,NA,NA,NA,NA,NA,NA,NA,NA,NA,NA,NA,NA,NA,NA,NA,sub84
d3-animate-choice,11,195766,0.0-11.0,TRUE,FALSE,FALSE,TRUE,"""event"",""trial"",""time""
""fullscreenenter"",""5"",""10213""
","
","
","""event"",""trial"",""time""
""fullscreenenter"",""5"",""10213""
","
",4795,NA,48,NA,NA,3000,1,6771,48,images/tutgreenplanet.jpg,images/tutalien1,images/tutalien2,null,images/tutalien1,NA,NA,practice,null,NA,NA,NA,NA,sub84
d3-animate-choice,12,199671,0.0-12.0,TRUE,FALSE,FALSE,TRUE,"""event"",""trial"",""time""
""fullscreenenter"",""5"",""10213""
","
","
","""event"",""trial"",""time""
""fullscreenenter"",""5"",""10213""
","
",1894,NA,49,NA,NA,3000,1,3143,49,images/tutgreenplanet.jpg,images/tutalien1,images/tutalien2,null,images/tutalien2,NA,NA,practice,null,NA,NA,NA,NA,sub84
d3-animate-choice,13,202323,0.0-13.0,TRUE,FALSE,FALSE,TRUE,"""event"",""trial"",""time""
""fullscreenenter"",""5"",""10213""
","
","
","""event"",""trial"",""time""
""fullscreenenter"",""5"",""10213""
","
",638,NA,48,NA,NA,3000,1,18062366,4849,images/tutgreenplanet.jpg,images/tutalien1,images/tutalien2,null,images/tutalien1,NA,NA,practice,null,NA,NA,NA,NA,sub84
d3-animate-choice,14,204833,0.0-14.0,TRUE,FALSE,FALSE,TRUE,"""event"",""trial"",""time""
""fullscreenenter"",""5"",""10213""
","
","
","""event"",""trial"",""time""
""fullscreenenter"",""5"",""10213""
","
",498,NA,49,NA,NA,3000,1,2106,49,images/tutgreenplanet.jpg,images/tutalien1,images/tutalien2,null,images/tutalien2,NA,NA,practice,null,NA,NA,NA,NA,sub84
d3-instructions,15,225784,0.0-15.0,TRUE,FALSE,FALSE,TRUE,"""event"",""trial"",""time""
""fullscreenenter"",""5"",""10213""
","
","
","""event"",""trial"",""time""
""fullscreenenter"",""5"",""10213""
","
",NA,NA,NA,NA,NA,NA,NA,NA,NA,NA,NA,NA,NA,NA,NA,NA,NA,NA,NA,NA,NA,NA,sub84
d3-instructions,16,235777,0.0-16.0,TRUE,FALSE,FALSE,TRUE,"""event"",""trial"",""time""
""fullscreenenter"",""5"",""10213""
","
","
","""event"",""trial"",""time""
""fullscreenenter"",""5"",""10213""
","
",NA,NA,NA,NA,NA,NA,NA,NA,NA,NA,NA,NA,NA,NA,NA,NA,NA,NA,NA,NA,NA,NA,sub84
d3-instructions,17,238393,0.0-17.0,TRUE,FALSE,FALSE,TRUE,"""event"",""trial"",""time""
""fullscreenenter"",""5"",""10213""
","
","
","""event"",""trial"",""time""
""fullscreenenter"",""5"",""10213""
","
",NA,NA,NA,NA,NA,NA,NA,NA,NA,NA,NA,NA,NA,NA,NA,NA,NA,NA,NA,NA,NA,NA,sub84
d3-instructions,18,260313,0.0-18.0,TRUE,FALSE,FALSE,TRUE,"""event"",""trial"",""time""
""fullscreenenter"",""5"",""10213""
","
","
","""event"",""trial"",""time""
""fullscreenenter"",""5"",""10213""
","
",NA,NA,NA,NA,NA,NA,NA,NA,NA,NA,NA,NA,NA,NA,NA,NA,NA,NA,NA,NA,NA,NA,sub84
d3-instructions,19,279121,0.0-19.0,TRUE,FALSE,FALSE,TRUE,"""event"",""trial"",""time""
""fullscreenenter"",""5"",""10213""
","
","
","""event"",""trial"",""time""
""fullscreenenter"",""5"",""10213""
","
",NA,NA,NA,NA,NA,NA,NA,NA,NA,NA,NA,NA,NA,NA,NA,NA,NA,NA,NA,NA,NA,NA,sub84
d3-animate-choice,20,284952,0.0-20.0,TRUE,FALSE,FALSE,TRUE,"""event"",""trial"",""time""
""fullscreenenter"",""5"",""10213""
","
","
","""event"",""trial"",""time""
""fullscreenenter"",""5"",""10213""
","
",3819,NA,49,NA,NA,3000,1,5763,49,images/tutyellowplanet.jpg,null,images/tutalien3,null,images/tutalien3,images/t.png,NA,practice,null,NA,NA,NA,NA,sub84
d3-animate-choice,21,287412,0.0-21.0,TRUE,FALSE,FALSE,TRUE,"""event"",""trial"",""time""
""fullscreenenter"",""5"",""10213""
","
","
","""event"",""trial"",""time""
""fullscreenenter"",""5"",""10213""
","
",452,NA,49,NA,NA,3000,1,2179,49,images/tutyellowplanet.jpg,null,images/tutalien3,null,images/tutalien3,images/t.png,NA,practice,null,NA,NA,NA,NA,sub84
d3-animate-choice,22,289882,0.0-22.0,TRUE,FALSE,FALSE,TRUE,"""event"",""trial"",""time""
""fullscreenenter"",""5"",""10213""
","
","
","""event"",""trial"",""time""
""fullscreenenter"",""5"",""10213""
","
",465,NA,49,NA,NA,3000,1,2008,49,images/tutyellowplanet.jpg,null,images/tutalien3,null,images/tutalien3,images/t.png,NA,practice,null,NA,NA,NA,NA,sub84
d3-animate-choice,23,292302,0.0-23.0,TRUE,FALSE,FALSE,TRUE,"""event"",""trial"",""time""
""fullscreenenter"",""5"",""10213""
","
","
","""event"",""trial"",""time""
""fullscreenenter"",""5"",""10213""
","
",409,NA,49,NA,NA,3000,1,2050,49,images/tutyellowplanet.jpg,null,images/tutalien3,null,images/tutalien3,images/t.png,NA,practice,null,NA,NA,NA,NA,sub84
d3-animate-choice,24,294763,0.0-24.0,TRUE,FALSE,FALSE,TRUE,"""event"",""trial"",""time""
""fullscreenenter"",""5"",""10213""
","
","
","""event"",""trial"",""time""
""fullscreenenter"",""5"",""10213""
","
",455,NA,49,NA,NA,3000,1,2158,49,images/tutyellowplanet.jpg,null,images/tutalien3,null,images/tutalien3,images/t.png,NA,practice,null,NA,NA,NA,NA,sub84
d3-animate-choice,25,297212,0.0-25.0,TRUE,FALSE,FALSE,TRUE,"""event"",""trial"",""time""
""fullscreenenter"",""5"",""10213""
","
","
","""event"",""trial"",""time""
""fullscreenenter"",""5"",""10213""
","
",440,NA,49,NA,NA,3000,1,1969,49,images/tutyellowplanet.jpg,null,images/tutalien3,null,images/tutalien3,images/t.png,NA,practice,null,NA,NA,NA,NA,sub84
d3-animate-choice,26,299635,0.0-26.0,TRUE,FALSE,FALSE,TRUE,"""event"",""trial"",""time""
""fullscreenenter"",""5"",""10213""
","
","
","""event"",""trial"",""time""
""fullscreenenter"",""5"",""10213""
","
",409,NA,49,NA,NA,3000,1,1921,49,images/tutyellowplanet.jpg,null,images/tutalien3,null,images/tutalien3,images/nothing.png,NA,practice,null,NA,NA,NA,NA,sub84
d3-animate-choice,27,302113,0.0-27.0,TRUE,FALSE,FALSE,TRUE,"""event"",""trial"",""time""
""fullscreenenter"",""5"",""10213""
","
","
","""event"",""trial"",""time""
""fullscreenenter"",""5"",""10213""
","
",466,NA,49,NA,NA,3000,1,NA,NA,images/tutyellowplanet.jpg,null,images/tutalien3,null,images/tutalien3,images/nothing.png,NA,practice,null,NA,NA,NA,NA,sub84
d3-animate-choice,28,304135,0.0-28.0,TRUE,FALSE,FALSE,TRUE,"""event"",""trial"",""time""
""fullscreenenter"",""5"",""10213""
","
","
","""event"",""trial"",""time""
""fullscreenenter"",""5"",""10213""
","
",11,NA,49,NA,NA,3000,1,763,49,images/tutyellowplanet.jpg,null,images/tutalien3,null,images/tutalien3,images/t.png,NA,practice,null,NA,NA,NA,NA,sub84
d3-animate-choice,29,306175,0.0-29.0,TRUE,FALSE,FALSE,TRUE,"""event"",""trial"",""time""
""fullscreenenter"",""5"",""10213""
","
","
","""event"",""trial"",""time""
""fullscreenenter"",""5"",""10213""
","
",32,NA,49,NA,NA,3000,1,8151703,4949,images/tutyellowplanet.jpg,null,images/tutalien3,null,images/tutalien3,images/t.png,NA,practice,null,NA,NA,NA,NA,sub84
d3-instructions,30,316311,0.0-30.0,TRUE,FALSE,FALSE,TRUE,"""event"",""trial"",""time""
""fullscreenenter"",""5"",""10213""
","
","
","""event"",""trial"",""time""
""fullscreenenter"",""5"",""10213""
","
",NA,NA,NA,NA,NA,NA,NA,NA,NA,NA,NA,NA,NA,NA,NA,NA,NA,NA,NA,NA,NA,NA,sub84
d3-instructions,31,327536,0.0-31.0,TRUE,FALSE,FALSE,TRUE,"""event"",""trial"",""time""
""fullscreenenter"",""5"",""10213""
","
","
","""event"",""trial"",""time""
""fullscreenenter"",""5"",""10213""
","
",NA,NA,NA,NA,NA,NA,NA,NA,NA,NA,NA,NA,NA,NA,NA,NA,NA,NA,NA,NA,NA,NA,sub84
d3-instructions,32,336183,0.0-32.0,TRUE,FALSE,FALSE,TRUE,"""event"",""trial"",""time""
""fullscreenenter"",""5"",""10213""
","
","
","""event"",""trial"",""time""
""fullscreenenter"",""5"",""10213""
","
",NA,NA,NA,NA,NA,NA,NA,NA,NA,NA,NA,NA,NA,NA,NA,NA,NA,NA,NA,NA,NA,NA,sub84
d3-instructions,33,346176,0.0-33.0,TRUE,FALSE,FALSE,TRUE,"""event"",""trial"",""time""
""fullscreenenter"",""5"",""10213""
","
","
","""event"",""trial"",""time""
""fullscreenenter"",""5"",""10213""
","
",NA,NA,NA,NA,NA,NA,NA,NA,NA,NA,NA,NA,NA,NA,NA,NA,NA,NA,NA,NA,NA,NA,sub84
d3-animate-choice,34,350403,0.0-34.0,TRUE,FALSE,FALSE,TRUE,"""event"",""trial"",""time""
""fullscreenenter"",""5"",""10213""
","
","
","""event"",""trial"",""time""
""fullscreenenter"",""5"",""10213""
","
",2212,NA,49,NA,NA,3000,1,NA,NA,images/tutgreenplanet.jpg,images/tutalien1,images/tutalien2,null,images/tutalien2,images/t.png,NA,practice,null,NA,NA,NA,NA,sub84
d3-animate-choice,35,352782,0.0-35.0,TRUE,FALSE,FALSE,TRUE,"""event"",""trial"",""time""
""fullscreenenter"",""5"",""10213""
","
","
","""event"",""trial"",""time""
""fullscreenenter"",""5"",""10213""
","
",368,NA,49,NA,NA,3000,1,1960,49,images/tutgreenplanet.jpg,images/tutalien1,images/tutalien2,null,images/tutalien2,images/t.png,NA,practice,null,NA,NA,NA,NA,sub84
d3-animate-choice,36,355233,0.0-36.0,TRUE,FALSE,FALSE,TRUE,"""event"",""trial"",""time""
""fullscreenenter"",""5"",""10213""
","
","
","""event"",""trial"",""time""
""fullscreenenter"",""5"",""10213""
","
",437,NA,49,NA,NA,3000,1,1967,49,images/tutgreenplanet.jpg,images/tutalien1,images/tutalien2,null,images/tutalien2,images/t.png,NA,practice,null,NA,NA,NA,NA,sub84
d3-animate-choice,37,357657,0.0-37.0,TRUE,FALSE,FALSE,TRUE,"""event"",""trial"",""time""
""fullscreenenter"",""5"",""10213""
","
","
","""event"",""trial"",""time""
""fullscreenenter"",""5"",""10213""
","
",420,NA,49,NA,NA,3000,1,2016,49,images/tutgreenplanet.jpg,images/tutalien1,images/tutalien2,null,images/tutalien2,images/t.png,NA,practice,null,NA,NA,NA,NA,sub84
d3-animate-choice,38,360451,0.0-38.0,TRUE,FALSE,FALSE,TRUE,"""event"",""trial"",""time""
""fullscreenenter"",""5"",""10213""
","
","
","""event"",""trial"",""time""
""fullscreenenter"",""5"",""10213""
","
",786,NA,49,NA,NA,3000,1,2434,49,images/tutgreenplanet.jpg,images/tutalien1,images/tutalien2,null,images/tutalien2,images/t.png,NA,practice,null,NA,NA,NA,NA,sub84
d3-animate-choice,39,362890,0.0-39.0,TRUE,FALSE,FALSE,TRUE,"""event"",""trial"",""time""
""fullscreenenter"",""5"",""10213""
","
","
","""event"",""trial"",""time""
""fullscreenenter"",""5"",""10213""
","
",434,NA,49,NA,NA,3000,1,2386,49,images/tutgreenplanet.jpg,images/tutalien1,images/tutalien2,null,images/tutalien2,images/nothing.png,NA,practice,null,NA,NA,NA,NA,sub84
d3-animate-choice,40,365346,0.0-40.0,TRUE,FALSE,FALSE,TRUE,"""event"",""trial"",""time""
""fullscreenenter"",""5"",""10213""
","
","
","""event"",""trial"",""time""
""fullscreenenter"",""5"",""10213""
","
",426,NA,49,NA,NA,3000,1,1932,49,images/tutgreenplanet.jpg,images/tutalien1,images/tutalien2,null,images/tutalien2,images/t.png,NA,practice,null,NA,NA,NA,NA,sub84
d3-animate-choice,41,367787,0.0-41.0,TRUE,FALSE,FALSE,TRUE,"""event"",""trial"",""time""
""fullscreenenter"",""5"",""10213""
","
","
","""event"",""trial"",""time""
""fullscreenenter"",""5"",""10213""
","
",432,NA,49,NA,NA,3000,1,2416,49,images/tutgreenplanet.jpg,images/tutalien1,images/tutalien2,null,images/tutalien2,images/nothing.png,NA,practice,null,NA,NA,NA,NA,sub84
d3-animate-choice,42,370377,0.0-42.0,TRUE,FALSE,FALSE,TRUE,"""event"",""trial"",""time""
""fullscreenenter"",""5"",""10213""
","
","
","""event"",""trial"",""time""
""fullscreenenter"",""5"",""10213""
","
",583,NA,49,NA,NA,3000,1,2248,49,images/tutgreenplanet.jpg,images/tutalien1,images/tutalien2,null,images/tutalien2,images/t.png,NA,practice,null,NA,NA,NA,NA,sub84
d3-animate-choice,43,372799,0.0-43.0,TRUE,FALSE,FALSE,TRUE,"""event"",""trial"",""time""
""fullscreenenter"",""5"",""10213""
","
","
","""event"",""trial"",""time""
""fullscreenenter"",""5"",""10213""
","
",411,NA,49,NA,NA,3000,1,1954,49,images/tutgreenplanet.jpg,images/tutalien1,images/tutalien2,null,images/tutalien2,images/t.png,NA,practice,null,NA,NA,NA,NA,sub84
d3-instructions,44,387558,0.0-44.0,TRUE,FALSE,FALSE,TRUE,"""event"",""trial"",""time""
""fullscreenenter"",""5"",""10213""
","
","
","""event"",""trial"",""time""
""fullscreenenter"",""5"",""10213""
","
",NA,NA,NA,NA,NA,NA,NA,NA,NA,NA,NA,NA,NA,NA,NA,NA,NA,NA,NA,NA,NA,NA,sub84
d3-instructions,45,398302,0.0-45.0,TRUE,FALSE,FALSE,TRUE,"""event"",""trial"",""time""
""fullscreenenter"",""5"",""10213""
","
","
","""event"",""trial"",""time""
""fullscreenenter"",""5"",""10213""
","
",NA,NA,NA,NA,NA,NA,NA,NA,NA,NA,NA,NA,NA,NA,NA,NA,NA,NA,NA,NA,NA,NA,sub84
d3-instructions,46,405814,0.0-46.0,TRUE,FALSE,FALSE,TRUE,"""event"",""trial"",""time""
""fullscreenenter"",""5"",""10213""
","
","
","""event"",""trial"",""time""
""fullscreenenter"",""5"",""10213""
","
",NA,NA,NA,NA,NA,NA,NA,NA,NA,NA,NA,NA,NA,NA,NA,NA,NA,NA,NA,NA,NA,NA,sub84
d3-instructions,47,423038,0.0-47.0,TRUE,FALSE,FALSE,TRUE,"""event"",""trial"",""time""
""fullscreenenter"",""5"",""10213""
","
","
","""event"",""trial"",""time""
""fullscreenenter"",""5"",""10213""
","
",NA,NA,NA,NA,NA,NA,NA,NA,NA,NA,NA,NA,NA,NA,NA,NA,NA,NA,NA,NA,NA,NA,sub84
d3-instructions,48,433126,0.0-48.0,TRUE,FALSE,FALSE,TRUE,"""event"",""trial"",""time""
""fullscreenenter"",""5"",""10213""
","
","
","""event"",""trial"",""time""
""fullscreenenter"",""5"",""10213""
","
",NA,NA,NA,NA,NA,NA,NA,NA,NA,NA,NA,NA,NA,NA,NA,NA,NA,NA,NA,NA,NA,NA,sub84
d3-instructions,49,444662,0.0-49.0,TRUE,FALSE,FALSE,TRUE,"""event"",""trial"",""time""
""fullscreenenter"",""5"",""10213""
","
","
","""event"",""trial"",""time""
""fullscreenenter"",""5"",""10213""
","
",NA,NA,NA,NA,NA,NA,NA,NA,NA,NA,NA,NA,NA,NA,NA,NA,NA,NA,NA,NA,NA,NA,sub84
d3-instructions,50,455493,0.0-50.0,TRUE,FALSE,FALSE,TRUE,"""event"",""trial"",""time""
""fullscreenenter"",""5"",""10213""
","
","
","""event"",""trial"",""time""
""fullscreenenter"",""5"",""10213""
","
",NA,NA,NA,NA,NA,NA,NA,NA,NA,NA,NA,NA,NA,NA,NA,NA,NA,NA,NA,NA,NA,NA,sub84
d3-instructions,51,461998,0.0-51.0,TRUE,FALSE,FALSE,TRUE,"""event"",""trial"",""time""
""fullscreenenter"",""5"",""10213""
","
","
","""event"",""trial"",""time""
""fullscreenenter"",""5"",""10213""
","
",NA,NA,NA,NA,NA,NA,NA,NA,NA,NA,NA,NA,NA,NA,NA,NA,NA,NA,NA,NA,NA,NA,sub84
d3-instructions,52,471894,0.0-52.0,TRUE,FALSE,FALSE,TRUE,"""event"",""trial"",""time""
""fullscreenenter"",""5"",""10213""
","
","
","""event"",""trial"",""time""
""fullscreenenter"",""5"",""10213""
","
",NA,NA,NA,NA,NA,NA,NA,NA,NA,NA,NA,NA,NA,NA,NA,NA,NA,NA,NA,NA,NA,NA,sub84
d3-instructions,53,485902,0.0-53.0,TRUE,FALSE,FALSE,TRUE,"""event"",""trial"",""time""
""fullscreenenter"",""5"",""10213""
","
","
","""event"",""trial"",""time""
""fullscreenenter"",""5"",""10213""
","
",NA,NA,NA,NA,NA,NA,NA,NA,NA,NA,NA,NA,NA,NA,NA,NA,NA,NA,NA,NA,NA,NA,sub84
d3-instructions,54,499358,0.0-54.0,TRUE,FALSE,FALSE,TRUE,"""event"",""trial"",""time""
""fullscreenenter"",""5"",""10213""
","
","
","""event"",""trial"",""time""
""fullscreenenter"",""5"",""10213""
","
",NA,NA,NA,NA,NA,NA,NA,NA,NA,NA,NA,NA,NA,NA,NA,NA,NA,NA,NA,NA,NA,NA,sub84
d3-instructions,55,509005,0.0-55.0,TRUE,FALSE,FALSE,TRUE,"""event"",""trial"",""time""
""fullscreenenter"",""5"",""10213""
","
","
","""event"",""trial"",""time""
""fullscreenenter"",""5"",""10213""
","
",NA,NA,NA,NA,NA,NA,NA,NA,NA,NA,NA,NA,NA,NA,NA,NA,NA,NA,NA,NA,NA,NA,sub84
d3-instructions,56,517284,0.0-56.0,TRUE,FALSE,FALSE,TRUE,"""event"",""trial"",""time""
""fullscreenenter"",""5"",""10213""
","
","
","""event"",""trial"",""time""
""fullscreenenter"",""5"",""10213""
","
",NA,NA,NA,NA,NA,NA,NA,NA,NA,NA,NA,NA,NA,NA,NA,NA,NA,NA,NA,NA,NA,NA,sub84
d3-instructions,57,529332,0.0-57.0,TRUE,FALSE,FALSE,TRUE,"""event"",""trial"",""time""
""fullscreenenter"",""5"",""10213""
","
","
","""event"",""trial"",""time""
""fullscreenenter"",""5"",""10213""
","
",NA,NA,NA,NA,NA,NA,NA,NA,NA,NA,NA,NA,NA,NA,NA,NA,NA,NA,NA,NA,NA,NA,sub84
d3-instructions,58,541605,0.0-58.0,TRUE,FALSE,FALSE,TRUE,"""event"",""trial"",""time""
""fullscreenenter"",""5"",""10213""
","
","
","""event"",""trial"",""time""
""fullscreenenter"",""5"",""10213""
","
",NA,NA,NA,NA,NA,NA,NA,NA,NA,NA,NA,NA,NA,NA,NA,NA,NA,NA,NA,NA,NA,NA,sub84
d3-instructions,59,547820,0.0-59.0,TRUE,FALSE,FALSE,TRUE,"""event"",""trial"",""time""
""fullscreenenter"",""5"",""10213""
","
","
","""event"",""trial"",""time""
""fullscreenenter"",""5"",""10213""
","
",NA,NA,NA,NA,NA,NA,NA,NA,NA,NA,NA,NA,NA,NA,NA,NA,NA,NA,NA,NA,NA,NA,sub84
d3-instructions,60,555132,0.0-60.0,TRUE,FALSE,FALSE,TRUE,"""event"",""trial"",""time""
""fullscreenenter"",""5"",""10213""
","
","
","""event"",""trial"",""time""
""fullscreenenter"",""5"",""10213""
","
",NA,NA,NA,NA,NA,NA,NA,NA,NA,NA,NA,NA,NA,NA,NA,NA,NA,NA,NA,NA,NA,NA,sub84
d3-animate-choice,61,559146,0.0-61.0-0.0,TRUE,FALSE,FALSE,TRUE,"""event"",""trial"",""time""
""fullscreenenter"",""5"",""10213""
","
","
","""event"",""trial"",""time""
""fullscreenenter"",""5"",""10213""
","
",2866,NA,48,NA,NA,3000,1,NA,NA,images/earth.jpg,images/tutrocket2,images/tutrocket1,null,images/tutrocket2,NA,1,practice,null,2,NA,NA,NA,sub84
d3-animate-choice,62,562118,0.0-61.0-1.0,TRUE,FALSE,FALSE,TRUE,"""event"",""trial"",""time""
""fullscreenenter"",""5"",""10213""
","
","
","""event"",""trial"",""time""
""fullscreenenter"",""5"",""10213""
","
",958,NA,48,NA,NA,3000,1,2342,48,images/tutyellowplanet.jpg,images/tutalien4,images/tutalien3,images/tutrocket2,images/tutalien4,images/t.png,2,practice,false,2,rare,1,2020-06-17T00:08:13Z,sub84
two-step-fixation,63,563128,0.0-61.0-2.0,TRUE,FALSE,FALSE,TRUE,"""event"",""trial"",""time""
""fullscreenenter"",""5"",""10213""
","
","
","""event"",""trial"",""time""
""fullscreenenter"",""5"",""10213""
","
",NA,images/earth.jpg,NA,NA,NA,NA,NA,NA,NA,NA,NA,NA,NA,NA,NA,fixation,NA,NA,NA,NA,NA,NA,sub84
d3-animate-choice,64,565208,0.0-61.0-0.1,TRUE,FALSE,FALSE,TRUE,"""event"",""trial"",""time""
""fullscreenenter"",""5"",""10213""
","
","
","""event"",""trial"",""time""
""fullscreenenter"",""5"",""10213""
","
",65,NA,49,NA,NA,3000,1,1089,49,images/earth.jpg,images/tutrocket2,images/tutrocket1,null,images/tutrocket1,NA,1,practice,null,1,NA,NA,NA,sub84
d3-animate-choice,65,568080,0.0-61.0-1.1,TRUE,FALSE,FALSE,TRUE,"""event"",""trial"",""time""
""fullscreenenter"",""5"",""10213""
","
","
","""event"",""trial"",""time""
""fullscreenenter"",""5"",""10213""
","
",866,NA,49,NA,NA,3000,1,NA,NA,images/tutgreenplanet.jpg,images/tutalien2,images/tutalien1,images/tutrocket1,images/tutalien1,images/t.png,2,practice,false,1,rare,1,2020-06-17T00:08:19Z,sub84
two-step-fixation,66,569089,0.0-61.0-2.1,TRUE,FALSE,FALSE,TRUE,"""event"",""trial"",""time""
""fullscreenenter"",""5"",""10213""
","
","
","""event"",""trial"",""time""
""fullscreenenter"",""5"",""10213""
","
",NA,images/earth.jpg,NA,NA,NA,NA,NA,NA,NA,NA,NA,NA,NA,NA,NA,fixation,NA,NA,NA,NA,NA,NA,sub84
d3-animate-choice,67,571730,0.0-61.0-0.2,TRUE,FALSE,FALSE,TRUE,"""event"",""trial"",""time""
""fullscreenenter"",""5"",""10213""
","
","
","""event"",""trial"",""time""
""fullscreenenter"",""5"",""10213""
","
",632,NA,48,NA,NA,3000,1,1912,48,images/earth.jpg,images/tutrocket2,images/tutrocket1,null,images/tutrocket2,NA,1,practice,null,2,NA,NA,NA,sub84
d3-animate-choice,68,573881,0.0-61.0-1.2,TRUE,FALSE,FALSE,TRUE,"""event"",""trial"",""time""
""fullscreenenter"",""5"",""10213""
","
","
","""event"",""trial"",""time""
""fullscreenenter"",""5"",""10213""
","
",141,NA,48,NA,NA,3000,1,2037,48,images/tutyellowplanet.jpg,images/tutalien4,images/tutalien3,images/tutrocket2,images/tutalien4,images/t.png,2,practice,false,2,rare,1,2020-06-17T00:08:24Z,sub84
two-step-fixation,69,574891,0.0-61.0-2.2,TRUE,FALSE,FALSE,TRUE,"""event"",""trial"",""time""
""fullscreenenter"",""5"",""10213""
","
","
","""event"",""trial"",""time""
""fullscreenenter"",""5"",""10213""
","
",NA,images/earth.jpg,NA,NA,NA,NA,NA,NA,NA,NA,NA,NA,NA,NA,NA,fixation,NA,NA,NA,NA,NA,NA,sub84
d3-animate-choice,70,577350,0.0-61.0-0.3,TRUE,FALSE,FALSE,TRUE,"""event"",""trial"",""time""
""fullscreenenter"",""5"",""10213""
","
","
","""event"",""trial"",""time""
""fullscreenenter"",""5"",""10213""
","
",456,NA,49,NA,NA,3000,1,15992456,4949,images/earth.jpg,images/tutrocket2,images/tutrocket1,null,images/tutrocket1,NA,1,practice,null,1,NA,NA,NA,sub84
d3-animate-choice,71,579979,0.0-61.0-1.3,TRUE,FALSE,FALSE,TRUE,"""event"",""trial"",""time""
""fullscreenenter"",""5"",""10213""
","
","
","""event"",""trial"",""time""
""fullscreenenter"",""5"",""10213""
","
",619,NA,49,NA,NA,3000,1,NA,NA,images/tutgreenplanet.jpg,images/tutalien2,images/tutalien1,images/tutrocket1,images/tutalien1,images/nothing.png,2,practice,false,1,rare,0,2020-06-17T00:08:31Z,sub84
two-step-fixation,72,580989,0.0-61.0-2.3,TRUE,FALSE,FALSE,TRUE,"""event"",""trial"",""time""
""fullscreenenter"",""5"",""10213""
","
","
","""event"",""trial"",""time""
""fullscreenenter"",""5"",""10213""
","
",NA,images/earth.jpg,NA,NA,NA,NA,NA,NA,NA,NA,NA,NA,NA,NA,NA,fixation,NA,NA,NA,NA,NA,NA,sub84
d3-animate-choice,73,583469,0.0-61.0-0.4,TRUE,FALSE,FALSE,TRUE,"""event"",""trial"",""time""
""fullscreenenter"",""5"",""10213""
","
","
","""event"",""trial"",""time""
""fullscreenenter"",""5"",""10213""
","
",468,NA,48,NA,NA,3000,1,2309,48,images/earth.jpg,images/tutrocket2,images/tutrocket1,null,images/tutrocket2,NA,1,practice,null,2,NA,NA,NA,sub84
d3-animate-choice,74,585978,0.0-61.0-1.4,TRUE,FALSE,FALSE,TRUE,"""event"",""trial"",""time""
""fullscreenenter"",""5"",""10213""
","
","
","""event"",""trial"",""time""
""fullscreenenter"",""5"",""10213""
","
",499,NA,48,NA,NA,3000,1,2371,48,images/tutgreenplanet.jpg,images/tutalien2,images/tutalien1,images/tutrocket2,images/tutalien2,images/nothing.png,2,practice,true,2,common,0,2020-06-17T00:08:37Z,sub84
two-step-fixation,75,586989,0.0-61.0-2.4,TRUE,FALSE,FALSE,TRUE,"""event"",""trial"",""time""
""fullscreenenter"",""5"",""10213""
","
","
","""event"",""trial"",""time""
""fullscreenenter"",""5"",""10213""
","
",NA,images/earth.jpg,NA,NA,NA,NA,NA,NA,NA,NA,NA,NA,NA,NA,NA,fixation,NA,NA,NA,NA,NA,NA,sub84
d3-animate-choice,76,589448,0.0-61.0-0.5,TRUE,FALSE,FALSE,TRUE,"""event"",""trial"",""time""
""fullscreenenter"",""5"",""10213""
","
","
","""event"",""trial"",""time""
""fullscreenenter"",""5"",""10213""
","
",452,NA,49,NA,NA,3000,1,NA,NA,images/earth.jpg,images/tutrocket2,images/tutrocket1,null,images/tutrocket1,NA,1,practice,null,1,NA,NA,NA,sub84
d3-animate-choice,77,591838,0.0-61.0-1.5,TRUE,FALSE,FALSE,TRUE,"""event"",""trial"",""time""
""fullscreenenter"",""5"",""10213""
","
","
","""event"",""trial"",""time""
""fullscreenenter"",""5"",""10213""
","
",376,NA,48,NA,NA,3000,1,2359,49,images/tutyellowplanet.jpg,images/tutalien4,images/tutalien3,images/tutrocket1,images/tutalien4,images/nothing.png,2,practice,true,2,common,0,2020-06-17T00:08:42Z,sub84
two-step-fixation,78,592848,0.0-61.0-2.5,TRUE,FALSE,FALSE,TRUE,"""event"",""trial"",""time""
""fullscreenenter"",""5"",""10213""
","
","
","""event"",""trial"",""time""
""fullscreenenter"",""5"",""10213""
","
",NA,images/earth.jpg,NA,NA,NA,NA,NA,NA,NA,NA,NA,NA,NA,NA,NA,fixation,NA,NA,NA,NA,NA,NA,sub84
d3-animate-choice,79,595498,0.0-61.0-0.6,TRUE,FALSE,FALSE,TRUE,"""event"",""trial"",""time""
""fullscreenenter"",""5"",""10213""
","
","
","""event"",""trial"",""time""
""fullscreenenter"",""5"",""10213""
","
",641,NA,49,NA,NA,3000,1,21372561,4949,images/earth.jpg,images/tutrocket2,images/tutrocket1,null,images/tutrocket1,NA,1,practice,null,1,NA,NA,NA,sub84
d3-animate-choice,80,598130,0.0-61.0-1.6,TRUE,FALSE,FALSE,TRUE,"""event"",""trial"",""time""
""fullscreenenter"",""5"",""10213""
","
","
","""event"",""trial"",""time""
""fullscreenenter"",""5"",""10213""
","
",621,NA,49,NA,NA,3000,1,2421,48,images/tutyellowplanet.jpg,images/tutalien4,images/tutalien3,images/tutrocket1,images/tutalien3,images/nothing.png,2,practice,true,1,common,0,2020-06-17T00:08:49Z,sub84
two-step-fixation,81,599141,0.0-61.0-2.6,TRUE,FALSE,FALSE,TRUE,"""event"",""trial"",""time""
""fullscreenenter"",""5"",""10213""
","
","
","""event"",""trial"",""time""
""fullscreenenter"",""5"",""10213""
","
",NA,images/earth.jpg,NA,NA,NA,NA,NA,NA,NA,NA,NA,NA,NA,NA,NA,fixation,NA,NA,NA,NA,NA,NA,sub84
d3-animate-choice,82,601552,0.0-61.0-0.7,TRUE,FALSE,FALSE,TRUE,"""event"",""trial"",""time""
""fullscreenenter"",""5"",""10213""
","
","
","""event"",""trial"",""time""
""fullscreenenter"",""5"",""10213""
","
",397,NA,48,NA,NA,3000,1,NA,NA,images/earth.jpg,images/tutrocket2,images/tutrocket1,null,images/tutrocket2,NA,1,practice,null,2,NA,NA,NA,sub84
d3-animate-choice,83,604420,0.0-61.0-1.7,TRUE,FALSE,FALSE,TRUE,"""event"",""trial"",""time""
""fullscreenenter"",""5"",""10213""
","
","
","""event"",""trial"",""time""
""fullscreenenter"",""5"",""10213""
","
",857,NA,48,NA,NA,3000,1,1257,48,images/tutgreenplanet.jpg,images/tutalien2,images/tutalien1,images/tutrocket2,images/tutalien2,images/nothing.png,2,practice,true,2,common,0,2020-06-17T00:08:55Z,sub84
two-step-fixation,84,605430,0.0-61.0-2.7,TRUE,FALSE,FALSE,TRUE,"""event"",""trial"",""time""
""fullscreenenter"",""5"",""10213""
","
","
","""event"",""trial"",""time""
""fullscreenenter"",""5"",""10213""
","
",NA,images/earth.jpg,NA,NA,NA,NA,NA,NA,NA,NA,NA,NA,NA,NA,NA,fixation,NA,NA,NA,NA,NA,NA,sub84
d3-animate-choice,85,608221,0.0-61.0-0.8,TRUE,FALSE,FALSE,TRUE,"""event"",""trial"",""time""
""fullscreenenter"",""5"",""10213""
","
","
","""event"",""trial"",""time""
""fullscreenenter"",""5"",""10213""
","
",780,NA,49,NA,NA,3000,1,2180,49,images/earth.jpg,images/tutrocket2,images/tutrocket1,null,images/tutrocket1,NA,1,practice,null,1,NA,NA,NA,sub84
d3-animate-choice,86,611446,0.0-61.0-1.8,TRUE,FALSE,FALSE,TRUE,"""event"",""trial"",""time""
""fullscreenenter"",""5"",""10213""
","
","
","""event"",""trial"",""time""
""fullscreenenter"",""5"",""10213""
","
",1210,NA,48,NA,NA,3000,1,3163,48,images/tutgreenplanet.jpg,images/tutalien2,images/tutalien1,images/tutrocket1,images/tutalien2,images/nothing.png,2,practice,false,2,rare,0,2020-06-17T00:09:02Z,sub84
two-step-fixation,87,612456,0.0-61.0-2.8,TRUE,FALSE,FALSE,TRUE,"""event"",""trial"",""time""
""fullscreenenter"",""5"",""10213""
","
","
","""event"",""trial"",""time""
""fullscreenenter"",""5"",""10213""
","
",NA,images/earth.jpg,NA,NA,NA,NA,NA,NA,NA,NA,NA,NA,NA,NA,NA,fixation,NA,NA,NA,NA,NA,NA,sub84
d3-animate-choice,88,615156,0.0-61.0-0.9,TRUE,FALSE,FALSE,TRUE,"""event"",""trial"",""time""
""fullscreenenter"",""5"",""10213""
","
","
","""event"",""trial"",""time""
""fullscreenenter"",""5"",""10213""
","
",690,NA,49,NA,NA,3000,1,2376,49,images/earth.jpg,images/tutrocket2,images/tutrocket1,null,images/tutrocket1,NA,1,practice,null,1,NA,NA,NA,sub84
d3-animate-choice,89,617606,0.0-61.0-1.9,TRUE,FALSE,FALSE,TRUE,"""event"",""trial"",""time""
""fullscreenenter"",""5"",""10213""
","
","
","""event"",""trial"",""time""
""fullscreenenter"",""5"",""10213""
","
",437,NA,49,NA,NA,3000,1,2308,49,images/tutgreenplanet.jpg,images/tutalien2,images/tutalien1,images/tutrocket1,images/tutalien1,images/nothing.png,2,practice,false,1,rare,0,2020-06-17T00:09:08Z,sub84
two-step-fixation,90,618616,0.0-61.0-2.9,TRUE,FALSE,FALSE,TRUE,"""event"",""trial"",""time""
""fullscreenenter"",""5"",""10213""
","
","
","""event"",""trial"",""time""
""fullscreenenter"",""5"",""10213""
","
",NA,images/earth.jpg,NA,NA,NA,NA,NA,NA,NA,NA,NA,NA,NA,NA,NA,fixation,NA,NA,NA,NA,NA,NA,sub84
d3-animate-choice,91,621137,0.0-61.0-0.10,TRUE,FALSE,FALSE,TRUE,"""event"",""trial"",""time""
""fullscreenenter"",""5"",""10213""
","
","
","""event"",""trial"",""time""
""fullscreenenter"",""5"",""10213""
","
",513,NA,49,NA,NA,3000,1,2122,49,images/earth.jpg,images/tutrocket2,images/tutrocket1,null,images/tutrocket1,NA,1,practice,null,1,NA,NA,NA,sub84
d3-animate-choice,92,623517,0.0-61.0-1.10,TRUE,FALSE,FALSE,TRUE,"""event"",""trial"",""time""
""fullscreenenter"",""5"",""10213""
","
","
","""event"",""trial"",""time""
""fullscreenenter"",""5"",""10213""
","
",366,NA,49,NA,NA,3000,1,2174,49,images/tutyellowplanet.jpg,images/tutalien4,images/tutalien3,images/tutrocket1,images/tutalien3,images/nothing.png,2,practice,true,1,common,0,2020-06-17T00:09:14Z,sub84
two-step-fixation,93,624527,0.0-61.0-2.10,TRUE,FALSE,FALSE,TRUE,"""event"",""trial"",""time""
""fullscreenenter"",""5"",""10213""
","
","
","""event"",""trial"",""time""
""fullscreenenter"",""5"",""10213""
","
",NA,images/earth.jpg,NA,NA,NA,NA,NA,NA,NA,NA,NA,NA,NA,NA,NA,fixation,NA,NA,NA,NA,NA,NA,sub84
d3-animate-choice,94,626950,0.0-61.0-0.11,TRUE,FALSE,FALSE,TRUE,"""event"",""trial"",""time""
""fullscreenenter"",""5"",""10213""
","
","
","""event"",""trial"",""time""
""fullscreenenter"",""5"",""10213""
","
",420,NA,49,NA,NA,3000,1,2011,49,images/earth.jpg,images/tutrocket2,images/tutrocket1,null,images/tutrocket1,NA,1,practice,null,1,NA,NA,NA,sub84
d3-animate-choice,95,629780,0.0-61.0-1.11,TRUE,FALSE,FALSE,TRUE,"""event"",""trial"",""time""
""fullscreenenter"",""5"",""10213""
","
","
","""event"",""trial"",""time""
""fullscreenenter"",""5"",""10213""
","
",818,NA,48,NA,NA,3000,1,2739,49,images/tutgreenplanet.jpg,images/tutalien2,images/tutalien1,images/tutrocket1,images/tutalien2,images/nothing.png,2,practice,false,2,rare,0,2020-06-17T00:09:20Z,sub84
two-step-fixation,96,630790,0.0-61.0-2.11,TRUE,FALSE,FALSE,TRUE,"""event"",""trial"",""time""
""fullscreenenter"",""5"",""10213""
","
","
","""event"",""trial"",""time""
""fullscreenenter"",""5"",""10213""
","
",NA,images/earth.jpg,NA,NA,NA,NA,NA,NA,NA,NA,NA,NA,NA,NA,NA,fixation,NA,NA,NA,NA,NA,NA,sub84
d3-animate-choice,97,633280,0.0-61.0-0.12,TRUE,FALSE,FALSE,TRUE,"""event"",""trial"",""time""
""fullscreenenter"",""5"",""10213""
","
","
","""event"",""trial"",""time""
""fullscreenenter"",""5"",""10213""
","
",483,NA,49,NA,NA,3000,1,2203,49,images/earth.jpg,images/tutrocket2,images/tutrocket1,null,images/tutrocket1,NA,1,practice,null,1,NA,NA,NA,sub84
d3-animate-choice,98,635822,0.0-61.0-1.12,TRUE,FALSE,FALSE,TRUE,"""event"",""trial"",""time""
""fullscreenenter"",""5"",""10213""
","
","
","""event"",""trial"",""time""
""fullscreenenter"",""5"",""10213""
","
",535,NA,49,NA,NA,3000,1,NA,NA,images/tutyellowplanet.jpg,images/tutalien4,images/tutalien3,images/tutrocket1,images/tutalien3,images/t.png,2,practice,true,1,common,1,2020-06-17T00:09:26Z,sub84
two-step-fixation,99,636833,0.0-61.0-2.12,TRUE,FALSE,FALSE,TRUE,"""event"",""trial"",""time""
""fullscreenenter"",""5"",""10213""
","
","
","""event"",""trial"",""time""
""fullscreenenter"",""5"",""10213""
","
",NA,images/earth.jpg,NA,NA,NA,NA,NA,NA,NA,NA,NA,NA,NA,NA,NA,fixation,NA,NA,NA,NA,NA,NA,sub84
d3-animate-choice,100,639294,0.0-61.0-0.13,TRUE,FALSE,FALSE,TRUE,"""event"",""trial"",""time""
""fullscreenenter"",""5"",""10213""
","
","
","""event"",""trial"",""time""
""fullscreenenter"",""5"",""10213""
","
",447,NA,49,NA,NA,3000,1,NA,NA,images/earth.jpg,images/tutrocket2,images/tutrocket1,null,images/tutrocket1,NA,1,practice,null,1,NA,NA,NA,sub84
d3-animate-choice,101,641313,0.0-61.0-1.13,TRUE,FALSE,FALSE,TRUE,"""event"",""trial"",""time""
""fullscreenenter"",""5"",""10213""
","
","
","""event"",""trial"",""time""
""fullscreenenter"",""5"",""10213""
","
",11,NA,49,NA,NA,3000,1,8331969,4949,images/tutyellowplanet.jpg,images/tutalien4,images/tutalien3,images/tutrocket1,images/tutalien3,images/t.png,2,practice,true,1,common,1,2020-06-17T00:09:32Z,sub84
two-step-fixation,102,642323,0.0-61.0-2.13,TRUE,FALSE,FALSE,TRUE,"""event"",""trial"",""time""
""fullscreenenter"",""5"",""10213""
","
","
","""event"",""trial"",""time""
""fullscreenenter"",""5"",""10213""
","
",NA,images/earth.jpg,NA,NA,NA,NA,NA,NA,NA,NA,NA,NA,NA,NA,NA,fixation,NA,NA,NA,NA,NA,NA,sub84
d3-animate-choice,103,644735,0.0-61.0-0.14,TRUE,FALSE,FALSE,TRUE,"""event"",""trial"",""time""
""fullscreenenter"",""5"",""10213""
","
","
","""event"",""trial"",""time""
""fullscreenenter"",""5"",""10213""
","
",405,NA,49,NA,NA,3000,1,16212372,4949,images/earth.jpg,images/tutrocket2,images/tutrocket1,null,images/tutrocket1,NA,1,practice,null,1,NA,NA,NA,sub84
d3-animate-choice,104,647693,0.0-61.0-1.14,TRUE,FALSE,FALSE,TRUE,"""event"",""trial"",""time""
""fullscreenenter"",""5"",""10213""
","
","
","""event"",""trial"",""time""
""fullscreenenter"",""5"",""10213""
","
",945,NA,49,NA,NA,3000,1,2816,49,images/tutyellowplanet.jpg,images/tutalien4,images/tutalien3,images/tutrocket1,images/tutalien3,images/nothing.png,2,practice,true,1,common,0,2020-06-17T00:09:38Z,sub84
two-step-fixation,105,648702,0.0-61.0-2.14,TRUE,FALSE,FALSE,TRUE,"""event"",""trial"",""time""
""fullscreenenter"",""5"",""10213""
","
","
","""event"",""trial"",""time""
""fullscreenenter"",""5"",""10213""
","
",NA,images/earth.jpg,NA,NA,NA,NA,NA,NA,NA,NA,NA,NA,NA,NA,NA,fixation,NA,NA,NA,NA,NA,NA,sub84
d3-animate-choice,106,651162,0.0-61.0-0.15,TRUE,FALSE,FALSE,TRUE,"""event"",""trial"",""time""
""fullscreenenter"",""5"",""10213""
","
","
","""event"",""trial"",""time""
""fullscreenenter"",""5"",""10213""
","
",451,NA,49,NA,NA,3000,1,1995,49,images/earth.jpg,images/tutrocket2,images/tutrocket1,null,images/tutrocket1,NA,1,practice,null,1,NA,NA,NA,sub84
d3-animate-choice,107,653562,0.0-61.0-1.15,TRUE,FALSE,FALSE,TRUE,"""event"",""trial"",""time""
""fullscreenenter"",""5"",""10213""
","
","
","""event"",""trial"",""time""
""fullscreenenter"",""5"",""10213""
","
",390,NA,49,NA,NA,3000,1,9432214,4949,images/tutyellowplanet.jpg,images/tutalien4,images/tutalien3,images/tutrocket1,images/tutalien3,images/t.png,2,practice,true,1,common,1,2020-06-17T00:09:44Z,sub84
two-step-fixation,108,654573,0.0-61.0-2.15,TRUE,FALSE,FALSE,TRUE,"""event"",""trial"",""time""
""fullscreenenter"",""5"",""10213""
","
","
","""event"",""trial"",""time""
""fullscreenenter"",""5"",""10213""
","
",NA,images/earth.jpg,NA,NA,NA,NA,NA,NA,NA,NA,NA,NA,NA,NA,NA,fixation,NA,NA,NA,NA,NA,NA,sub84
d3-animate-choice,109,656932,0.0-61.0-0.16,TRUE,FALSE,FALSE,TRUE,"""event"",""trial"",""time""
""fullscreenenter"",""5"",""10213""
","
","
","""event"",""trial"",""time""
""fullscreenenter"",""5"",""10213""
","
",349,NA,49,NA,NA,3000,1,15812125,4949,images/earth.jpg,images/tutrocket2,images/tutrocket1,null,images/tutrocket1,NA,1,practice,null,1,NA,NA,NA,sub84
d3-animate-choice,110,659378,0.0-61.0-1.16,TRUE,FALSE,FALSE,TRUE,"""event"",""trial"",""time""
""fullscreenenter"",""5"",""10213""
","
","
","""event"",""trial"",""time""
""fullscreenenter"",""5"",""10213""
","
",436,NA,49,NA,NA,3000,1,10282180,4949,images/tutyellowplanet.jpg,images/tutalien4,images/tutalien3,images/tutrocket1,images/tutalien3,images/nothing.png,2,practice,true,1,common,0,2020-06-17T00:09:50Z,sub84
two-step-fixation,111,660386,0.0-61.0-2.16,TRUE,FALSE,FALSE,TRUE,"""event"",""trial"",""time""
""fullscreenenter"",""5"",""10213""
","
","
","""event"",""trial"",""time""
""fullscreenenter"",""5"",""10213""
","
",NA,images/earth.jpg,NA,NA,NA,NA,NA,NA,NA,NA,NA,NA,NA,NA,NA,fixation,NA,NA,NA,NA,NA,NA,sub84
d3-animate-choice,112,662527,0.0-61.0-0.17,TRUE,FALSE,FALSE,TRUE,"""event"",""trial"",""time""
""fullscreenenter"",""5"",""10213""
","
","
","""event"",""trial"",""time""
""fullscreenenter"",""5"",""10213""
","
",135,NA,49,NA,NA,3000,1,12871863,4949,images/earth.jpg,images/tutrocket2,images/tutrocket1,null,images/tutrocket1,NA,1,practice,null,1,NA,NA,NA,sub84
d3-animate-choice,113,664975,0.0-61.0-1.17,TRUE,FALSE,FALSE,TRUE,"""event"",""trial"",""time""
""fullscreenenter"",""5"",""10213""
","
","
","""event"",""trial"",""time""
""fullscreenenter"",""5"",""10213""
","
",441,NA,49,NA,NA,3000,1,1280,49,images/tutgreenplanet.jpg,images/tutalien2,images/tutalien1,images/tutrocket1,images/tutalien1,images/t.png,2,practice,false,1,rare,1,2020-06-17T00:09:56Z,sub84
two-step-fixation,114,665987,0.0-61.0-2.17,TRUE,FALSE,FALSE,TRUE,"""event"",""trial"",""time""
""fullscreenenter"",""5"",""10213""
","
","
","""event"",""trial"",""time""
""fullscreenenter"",""5"",""10213""
","
",NA,images/earth.jpg,NA,NA,NA,NA,NA,NA,NA,NA,NA,NA,NA,NA,NA,fixation,NA,NA,NA,NA,NA,NA,sub84
d3-animate-choice,115,668482,0.0-61.0-0.18,TRUE,FALSE,FALSE,TRUE,"""event"",""trial"",""time""
""fullscreenenter"",""5"",""10213""
","
","
","""event"",""trial"",""time""
""fullscreenenter"",""5"",""10213""
","
",485,NA,49,NA,NA,3000,1,13422045,4949,images/earth.jpg,images/tutrocket2,images/tutrocket1,null,images/tutrocket1,NA,1,practice,null,1,NA,NA,NA,sub84
d3-animate-choice,116,670600,0.0-61.0-1.18,TRUE,FALSE,FALSE,TRUE,"""event"",""trial"",""time""
""fullscreenenter"",""5"",""10213""
","
","
","""event"",""trial"",""time""
""fullscreenenter"",""5"",""10213""
","
",110,NA,49,NA,NA,3000,1,1902,49,images/tutgreenplanet.jpg,images/tutalien2,images/tutalien1,images/tutrocket1,images/tutalien1,images/nothing.png,2,practice,false,1,rare,0,2020-06-17T00:10:01Z,sub84
two-step-fixation,117,671601,0.0-61.0-2.18,TRUE,FALSE,FALSE,TRUE,"""event"",""trial"",""time""
""fullscreenenter"",""5"",""10213""
","
","
","""event"",""trial"",""time""
""fullscreenenter"",""5"",""10213""
","
",NA,images/earth.jpg,NA,NA,NA,NA,NA,NA,NA,NA,NA,NA,NA,NA,NA,fixation,NA,NA,NA,NA,NA,NA,sub84
d3-animate-choice,118,673732,0.0-61.0-0.19,TRUE,FALSE,FALSE,TRUE,"""event"",""trial"",""time""
""fullscreenenter"",""5"",""10213""
","
","
","""event"",""trial"",""time""
""fullscreenenter"",""5"",""10213""
","
",126,NA,49,NA,NA,3000,1,1639,49,images/earth.jpg,images/tutrocket2,images/tutrocket1,null,images/tutrocket1,NA,1,practice,null,1,NA,NA,NA,sub84
d3-animate-choice,119,675902,0.0-61.0-1.19,TRUE,FALSE,FALSE,TRUE,"""event"",""trial"",""time""
""fullscreenenter"",""5"",""10213""
","
","
","""event"",""trial"",""time""
""fullscreenenter"",""5"",""10213""
","
",163,NA,49,NA,NA,3000,1,1986,49,images/tutyellowplanet.jpg,images/tutalien4,images/tutalien3,images/tutrocket1,images/tutalien3,images/t.png,2,practice,true,1,common,1,2020-06-17T00:10:07Z,sub84
two-step-fixation,120,676912,0.0-61.0-2.19,TRUE,FALSE,FALSE,TRUE,"""event"",""trial"",""time""
""fullscreenenter"",""5"",""10213""
","
","
","""event"",""trial"",""time""
""fullscreenenter"",""5"",""10213""
","
",NA,images/earth.jpg,NA,NA,NA,NA,NA,NA,NA,NA,NA,NA,NA,NA,NA,fixation,NA,NA,NA,NA,NA,NA,sub84
d3-instructions,121,684683,0.0-62.0,TRUE,FALSE,FALSE,TRUE,"""event"",""trial"",""time""
""fullscreenenter"",""5"",""10213""
","
","
","""event"",""trial"",""time""
""fullscreenenter"",""5"",""10213""
","
",NA,NA,NA,NA,NA,NA,NA,NA,NA,NA,NA,NA,NA,NA,NA,NA,NA,NA,NA,NA,NA,NA,sub84
audio-keyboard-response,122,689658,0.0-63.0,TRUE,FALSE,FALSE,TRUE,"""event"",""trial"",""time""
""fullscreenenter"",""5"",""10213""
","
","
","""event"",""trial"",""time""
""fullscreenenter"",""5"",""10213""
","
",4979,audio/instructions/treasure_feedback.wav,32,NA,NA,NA,NA,NA,NA,NA,NA,NA,NA,NA,NA,NA,NA,NA,NA,NA,NA,NA,sub84
d3-instructions,123,708802,0.0-64.0,TRUE,FALSE,FALSE,TRUE,"""event"",""trial"",""time""
""fullscreenenter"",""5"",""10213""
","
","
","""event"",""trial"",""time""
""fullscreenenter"",""5"",""10213""
","
",NA,NA,NA,NA,NA,NA,NA,NA,NA,NA,NA,NA,NA,NA,NA,NA,NA,NA,NA,NA,NA,NA,sub84
d3-instructions,124,726170,0.0-65.0,TRUE,FALSE,FALSE,TRUE,"""event"",""trial"",""time""
""fullscreenenter"",""5"",""10213""
","
","
","""event"",""trial"",""time""
""fullscreenenter"",""5"",""10213""
","
",NA,NA,NA,NA,NA,NA,NA,NA,NA,NA,NA,NA,NA,NA,NA,NA,NA,NA,NA,NA,NA,NA,sub84
d3-instructions,125,751587,0.0-66.0,TRUE,FALSE,FALSE,TRUE,"""event"",""trial"",""time""
""fullscreenenter"",""5"",""10213""
","
","
","""event"",""trial"",""time""
""fullscreenenter"",""5"",""10213""
","
",NA,NA,NA,NA,NA,NA,NA,NA,NA,NA,NA,NA,NA,NA,NA,NA,NA,NA,NA,NA,NA,NA,sub84
d3-instructions,126,770490,0.0-67.0,TRUE,FALSE,FALSE,TRUE,"""event"",""trial"",""time""
""fullscreenenter"",""5"",""10213""
","
","
","""event"",""trial"",""time""
""fullscreenenter"",""5"",""10213""
","
",NA,NA,NA,NA,NA,NA,NA,NA,NA,NA,NA,NA,NA,NA,NA,NA,NA,NA,NA,NA,NA,NA,sub84
d3-instructions,127,779674,0.0-68.0,TRUE,FALSE,FALSE,TRUE,"""event"",""trial"",""time""
""fullscreenenter"",""5"",""10213""
","
","
","""event"",""trial"",""time""
""fullscreenenter"",""5"",""10213""
","
",NA,NA,NA,NA,NA,NA,NA,NA,NA,NA,NA,NA,NA,NA,NA,NA,NA,NA,NA,NA,NA,NA,sub84
instructions-quiz,128,784723,0.0-69.0,TRUE,FALSE,FALSE,TRUE,"""event"",""trial"",""time""
""fullscreenenter"",""5"",""10213""
","
","
","""event"",""trial"",""time""
""fullscreenenter"",""5"",""10213""
","
",5046,audio/quiz/Q1_Prompt.wav,NA,1,NA,NA,NA,NA,NA,NA,NA,NA,NA,NA,NA,NA,NA,NA,NA,NA,NA,NA,sub84
audio-keyboard-response,129,793904,0.0-70.0,TRUE,FALSE,FALSE,TRUE,"""event"",""trial"",""time""
""fullscreenenter"",""5"",""10213""
","
","
","""event"",""trial"",""time""
""fullscreenenter"",""5"",""10213""
","
",null,audio/quiz/Q1_Correct.wav,null,NA,NA,NA,NA,NA,NA,NA,NA,NA,NA,NA,NA,NA,NA,NA,NA,NA,NA,NA,sub84
instructions-quiz,130,803081,0.0-71.0,TRUE,FALSE,FALSE,TRUE,"""event"",""trial"",""time""
""fullscreenenter"",""5"",""10213""
","
","
","""event"",""trial"",""time""
""fullscreenenter"",""5"",""10213""
","
",9174,audio/quiz/Q2_Prompt.wav,NA,0,NA,NA,NA,NA,NA,NA,NA,NA,NA,NA,NA,NA,NA,NA,NA,NA,NA,NA,sub84
audio-keyboard-response,131,815964,0.0-72.0,TRUE,FALSE,FALSE,TRUE,"""event"",""trial"",""time""
""fullscreenenter"",""5"",""10213""
","
","
","""event"",""trial"",""time""
""fullscreenenter"",""5"",""10213""
","
",null,audio/quiz/Q2_Correct.wav,null,NA,NA,NA,NA,NA,NA,NA,NA,NA,NA,NA,NA,NA,NA,NA,NA,NA,NA,NA,sub84
instructions-quiz,132,821279,0.0-73.0,TRUE,FALSE,FALSE,TRUE,"""event"",""trial"",""time""
""fullscreenenter"",""5"",""10213""
","
","
","""event"",""trial"",""time""
""fullscreenenter"",""5"",""10213""
","
",5313,audio/quiz/Q3_Prompt.wav,NA,1,NA,NA,NA,NA,NA,NA,NA,NA,NA,NA,NA,NA,NA,NA,NA,NA,NA,NA,sub84
audio-keyboard-response,133,827094,0.0-74.0,TRUE,FALSE,FALSE,TRUE,"""event"",""trial"",""time""
""fullscreenenter"",""5"",""10213""
","
","
","""event"",""trial"",""time""
""fullscreenenter"",""5"",""10213""
","
",null,audio/quiz/Q3_Correct.wav,null,NA,NA,NA,NA,NA,NA,NA,NA,NA,NA,NA,NA,NA,NA,NA,NA,NA,NA,NA,sub84
d3-instructions,134,841714,0.0-75.0,TRUE,FALSE,FALSE,TRUE,"""event"",""trial"",""time""
""fullscreenenter"",""5"",""10213""
","
","
","""event"",""trial"",""time""
""fullscreenenter"",""5"",""10213""
","
",NA,NA,NA,NA,NA,NA,NA,NA,NA,NA,NA,NA,NA,NA,NA,NA,NA,NA,NA,NA,NA,NA,sub84
d3-animate-choice,135,845730,0.0-76.0-0.0,TRUE,FALSE,FALSE,TRUE,"""event"",""trial"",""time""
""fullscreenenter"",""5"",""10213""
","
","
","""event"",""trial"",""time""
""fullscreenenter"",""5"",""10213""
","
",2965,NA,48,NA,NA,3000,1,NA,NA,images/earth.jpg,images/rocket2,images/rocket1,null,images/rocket2,NA,1,real,null,2,NA,NA,NA,sub84
d3-animate-choice,136,848602,0.0-76.0-1.0,TRUE,FALSE,FALSE,TRUE,"""event"",""trial"",""time""
""fullscreenenter"",""5"",""10213""
","
","
","""event"",""trial"",""time""
""fullscreenenter"",""5"",""10213""
","
",857,NA,48,NA,NA,3000,1,2857,48,images/purpleplanet.jpg,images/alien4,images/alien3,images/rocket2,images/alien4,images/t.png,2,real,false,2,rare,1,2020-06-17T00:12:59Z,sub84
two-step-fixation,137,849611,0.0-76.0-2.0,TRUE,FALSE,FALSE,TRUE,"""event"",""trial"",""time""
""fullscreenenter"",""5"",""10213""
","
","
","""event"",""trial"",""time""
""fullscreenenter"",""5"",""10213""
","
",NA,images/earth.jpg,NA,NA,NA,NA,NA,NA,NA,NA,NA,NA,NA,NA,NA,fixation,NA,NA,NA,NA,NA,NA,sub84
d3-animate-choice,138,852051,0.0-76.0-0.1,TRUE,FALSE,FALSE,TRUE,"""event"",""trial"",""time""
""fullscreenenter"",""5"",""10213""
","
","
","""event"",""trial"",""time""
""fullscreenenter"",""5"",""10213""
","
",425,NA,48,NA,NA,3000,1,2202,48,images/earth.jpg,images/rocket2,images/rocket1,null,images/rocket2,NA,1,real,null,2,NA,NA,NA,sub84
d3-animate-choice,139,854403,0.0-76.0-1.1,TRUE,FALSE,FALSE,TRUE,"""event"",""trial"",""time""
""fullscreenenter"",""5"",""10213""
","
","
","""event"",""trial"",""time""
""fullscreenenter"",""5"",""10213""
","
",336,NA,48,NA,NA,3000,1,2080,48,images/redplanet1.jpg,images/alien2,images/alien1,images/rocket2,images/alien2,images/t.png,2,real,true,2,common,1,2020-06-17T00:13:05Z,sub84
two-step-fixation,140,855412,0.0-76.0-2.1,TRUE,FALSE,FALSE,TRUE,"""event"",""trial"",""time""
""fullscreenenter"",""5"",""10213""
","
","
","""event"",""trial"",""time""
""fullscreenenter"",""5"",""10213""
","
",NA,images/earth.jpg,NA,NA,NA,NA,NA,NA,NA,NA,NA,NA,NA,NA,NA,fixation,NA,NA,NA,NA,NA,NA,sub84
d3-animate-choice,141,857687,0.0-76.0-0.2,TRUE,FALSE,FALSE,TRUE,"""event"",""trial"",""time""
""fullscreenenter"",""5"",""10213""
","
","
","""event"",""trial"",""time""
""fullscreenenter"",""5"",""10213""
","
",265,NA,48,NA,NA,3000,1,1993,48,images/earth.jpg,images/rocket2,images/rocket1,null,images/rocket2,NA,1,real,null,2,NA,NA,NA,sub84
d3-animate-choice,142,860149,0.0-76.0-1.2,TRUE,FALSE,FALSE,TRUE,"""event"",""trial"",""time""
""fullscreenenter"",""5"",""10213""
","
","
","""event"",""trial"",""time""
""fullscreenenter"",""5"",""10213""
","
",455,NA,48,NA,NA,3000,1,2214,48,images/redplanet1.jpg,images/alien2,images/alien1,images/rocket2,images/alien2,images/t.png,2,real,true,2,common,1,2020-06-17T00:13:11Z,sub84
two-step-fixation,143,861159,0.0-76.0-2.2,TRUE,FALSE,FALSE,TRUE,"""event"",""trial"",""time""
""fullscreenenter"",""5"",""10213""
","
","
","""event"",""trial"",""time""
""fullscreenenter"",""5"",""10213""
","
",NA,images/earth.jpg,NA,NA,NA,NA,NA,NA,NA,NA,NA,NA,NA,NA,NA,fixation,NA,NA,NA,NA,NA,NA,sub84
d3-animate-choice,144,863219,0.0-76.0-0.3,TRUE,FALSE,FALSE,TRUE,"""event"",""trial"",""time""
""fullscreenenter"",""5"",""10213""
","
","
","""event"",""trial"",""time""
""fullscreenenter"",""5"",""10213""
","
",55,NA,48,NA,NA,3000,1,NA,NA,images/earth.jpg,images/rocket2,images/rocket1,null,images/rocket2,NA,1,real,null,2,NA,NA,NA,sub84
d3-animate-choice,145,865508,0.0-76.0-1.3,TRUE,FALSE,FALSE,TRUE,"""event"",""trial"",""time""
""fullscreenenter"",""5"",""10213""
","
","
","""event"",""trial"",""time""
""fullscreenenter"",""5"",""10213""
","
",282,NA,48,NA,NA,3000,1,8422074,4848,images/redplanet1.jpg,images/alien2,images/alien1,images/rocket2,images/alien2,images/t.png,2,real,true,2,common,1,2020-06-17T00:13:16Z,sub84
two-step-fixation,146,866518,0.0-76.0-2.3,TRUE,FALSE,FALSE,TRUE,"""event"",""trial"",""time""
""fullscreenenter"",""5"",""10213""
","
","
","""event"",""trial"",""time""
""fullscreenenter"",""5"",""10213""
","
",NA,images/earth.jpg,NA,NA,NA,NA,NA,NA,NA,NA,NA,NA,NA,NA,NA,fixation,NA,NA,NA,NA,NA,NA,sub84
d3-animate-choice,147,868938,0.0-76.0-0.4,TRUE,FALSE,FALSE,TRUE,"""event"",""trial"",""time""
""fullscreenenter"",""5"",""10213""
","
","
","""event"",""trial"",""time""
""fullscreenenter"",""5"",""10213""
","
",416,NA,48,NA,NA,3000,1,NA,NA,images/earth.jpg,images/rocket2,images/rocket1,null,images/rocket2,NA,1,real,null,2,NA,NA,NA,sub84
d3-animate-choice,148,871208,0.0-76.0-1.4,TRUE,FALSE,FALSE,TRUE,"""event"",""trial"",""time""
""fullscreenenter"",""5"",""10213""
","
","
","""event"",""trial"",""time""
""fullscreenenter"",""5"",""10213""
","
",259,NA,48,NA,NA,3000,1,8592051,4848,images/redplanet1.jpg,images/alien2,images/alien1,images/rocket2,images/alien2,images/t.png,2,real,true,2,common,1,2020-06-17T00:13:22Z,sub84
two-step-fixation,149,872210,0.0-76.0-2.4,TRUE,FALSE,FALSE,TRUE,"""event"",""trial"",""time""
""fullscreenenter"",""5"",""10213""
","
","
","""event"",""trial"",""time""
""fullscreenenter"",""5"",""10213""
","
",NA,images/earth.jpg,NA,NA,NA,NA,NA,NA,NA,NA,NA,NA,NA,NA,NA,fixation,NA,NA,NA,NA,NA,NA,sub84
d3-animate-choice,150,874680,0.0-76.0-0.5,TRUE,FALSE,FALSE,TRUE,"""event"",""trial"",""time""
""fullscreenenter"",""5"",""10213""
","
","
","""event"",""trial"",""time""
""fullscreenenter"",""5"",""10213""
","
",461,NA,48,NA,NA,3000,1,2269,48,images/earth.jpg,images/rocket2,images/rocket1,null,images/rocket2,NA,1,real,null,2,NA,NA,NA,sub84
d3-animate-choice,151,877080,0.0-76.0-1.5,TRUE,FALSE,FALSE,TRUE,"""event"",""trial"",""time""
""fullscreenenter"",""5"",""10213""
","
","
","""event"",""trial"",""time""
""fullscreenenter"",""5"",""10213""
","
",388,NA,48,NA,NA,3000,1,2261,48,images/redplanet1.jpg,images/alien2,images/alien1,images/rocket2,images/alien2,images/t.png,2,real,true,2,common,1,2020-06-17T00:13:28Z,sub84
two-step-fixation,152,878090,0.0-76.0-2.5,TRUE,FALSE,FALSE,TRUE,"""event"",""trial"",""time""
""fullscreenenter"",""5"",""10213""
","
","
","""event"",""trial"",""time""
""fullscreenenter"",""5"",""10213""
","
",NA,images/earth.jpg,NA,NA,NA,NA,NA,NA,NA,NA,NA,NA,NA,NA,NA,fixation,NA,NA,NA,NA,NA,NA,sub84
d3-animate-choice,153,880559,0.0-76.0-0.6,TRUE,FALSE,FALSE,TRUE,"""event"",""trial"",""time""
""fullscreenenter"",""5"",""10213""
","
","
","""event"",""trial"",""time""
""fullscreenenter"",""5"",""10213""
","
",459,NA,48,NA,NA,3000,1,2220,48,images/earth.jpg,images/rocket2,images/rocket1,null,images/rocket2,NA,1,real,null,2,NA,NA,NA,sub84
d3-animate-choice,154,882978,0.0-76.0-1.6,TRUE,FALSE,FALSE,TRUE,"""event"",""trial"",""time""
""fullscreenenter"",""5"",""10213""
","
","
","""event"",""trial"",""time""
""fullscreenenter"",""5"",""10213""
","
",406,NA,48,NA,NA,3000,1,2150,48,images/purpleplanet.jpg,images/alien4,images/alien3,images/rocket2,images/alien4,images/t.png,2,real,false,2,rare,1,2020-06-17T00:13:34Z,sub84
two-step-fixation,155,883989,0.0-76.0-2.6,TRUE,FALSE,FALSE,TRUE,"""event"",""trial"",""time""
""fullscreenenter"",""5"",""10213""
","
","
","""event"",""trial"",""time""
""fullscreenenter"",""5"",""10213""
","
",NA,images/earth.jpg,NA,NA,NA,NA,NA,NA,NA,NA,NA,NA,NA,NA,NA,fixation,NA,NA,NA,NA,NA,NA,sub84
d3-animate-choice,156,886130,0.0-76.0-0.7,TRUE,FALSE,FALSE,TRUE,"""event"",""trial"",""time""
""fullscreenenter"",""5"",""10213""
","
","
","""event"",""trial"",""time""
""fullscreenenter"",""5"",""10213""
","
",137,NA,48,NA,NA,3000,1,1665,48,images/earth.jpg,images/rocket2,images/rocket1,null,images/rocket2,NA,1,real,null,2,NA,NA,NA,sub84
d3-animate-choice,157,888450,0.0-76.0-1.7,TRUE,FALSE,FALSE,TRUE,"""event"",""trial"",""time""
""fullscreenenter"",""5"",""10213""
","
","
","""event"",""trial"",""time""
""fullscreenenter"",""5"",""10213""
","
",307,NA,48,NA,NA,3000,1,NA,NA,images/redplanet1.jpg,images/alien2,images/alien1,images/rocket2,images/alien2,images/nothing.png,2,real,true,2,common,0,2020-06-17T00:13:39Z,sub84
two-step-fixation,158,889460,0.0-76.0-2.7,TRUE,FALSE,FALSE,TRUE,"""event"",""trial"",""time""
""fullscreenenter"",""5"",""10213""
","
","
","""event"",""trial"",""time""
""fullscreenenter"",""5"",""10213""
","
",NA,images/earth.jpg,NA,NA,NA,NA,NA,NA,NA,NA,NA,NA,NA,NA,NA,fixation,NA,NA,NA,NA,NA,NA,sub84
d3-animate-choice,159,891809,0.0-76.0-0.8,TRUE,FALSE,FALSE,TRUE,"""event"",""trial"",""time""
""fullscreenenter"",""5"",""10213""
","
","
","""event"",""trial"",""time""
""fullscreenenter"",""5"",""10213""
","
",344,NA,48,NA,NA,3000,1,2225,48,images/earth.jpg,images/rocket2,images/rocket1,null,images/rocket2,NA,1,real,null,2,NA,NA,NA,sub84
d3-animate-choice,160,894250,0.0-76.0-1.8,TRUE,FALSE,FALSE,TRUE,"""event"",""trial"",""time""
""fullscreenenter"",""5"",""10213""
","
","
","""event"",""trial"",""time""
""fullscreenenter"",""5"",""10213""
","
",428,NA,48,NA,NA,3000,1,12042420,4848,images/redplanet1.jpg,images/alien2,images/alien1,images/rocket2,images/alien2,images/t.png,2,real,true,2,common,1,2020-06-17T00:13:45Z,sub84
two-step-fixation,161,895261,0.0-76.0-2.8,TRUE,FALSE,FALSE,TRUE,"""event"",""trial"",""time""
""fullscreenenter"",""5"",""10213""
","
","
","""event"",""trial"",""time""
""fullscreenenter"",""5"",""10213""
","
",NA,images/earth.jpg,NA,NA,NA,NA,NA,NA,NA,NA,NA,NA,NA,NA,NA,fixation,NA,NA,NA,NA,NA,NA,sub84
d3-animate-choice,162,897730,0.0-76.0-0.9,TRUE,FALSE,FALSE,TRUE,"""event"",""trial"",""time""
""fullscreenenter"",""5"",""10213""
","
","
","""event"",""trial"",""time""
""fullscreenenter"",""5"",""10213""
","
",464,NA,48,NA,NA,3000,1,NA,NA,images/earth.jpg,images/rocket2,images/rocket1,null,images/rocket2,NA,1,real,null,2,NA,NA,NA,sub84
d3-animate-choice,163,899741,0.0-76.0-1.9,TRUE,FALSE,FALSE,TRUE,"""event"",""trial"",""time""
""fullscreenenter"",""5"",""10213""
","
","
","""event"",""trial"",""time""
""fullscreenenter"",""5"",""10213""
","
",4,NA,48,NA,NA,3000,1,5711859,4848,images/redplanet1.jpg,images/alien2,images/alien1,images/rocket2,images/alien2,images/t.png,2,real,true,2,common,1,2020-06-17T00:13:50Z,sub84
two-step-fixation,164,900752,0.0-76.0-2.9,TRUE,FALSE,FALSE,TRUE,"""event"",""trial"",""time""
""fullscreenenter"",""5"",""10213""
","
","
","""event"",""trial"",""time""
""fullscreenenter"",""5"",""10213""
","
",NA,images/earth.jpg,NA,NA,NA,NA,NA,NA,NA,NA,NA,NA,NA,NA,NA,fixation,NA,NA,NA,NA,NA,NA,sub84
d3-animate-choice,165,902864,0.0-76.0-0.10,TRUE,FALSE,FALSE,TRUE,"""event"",""trial"",""time""
""fullscreenenter"",""5"",""10213""
","
","
","""event"",""trial"",""time""
""fullscreenenter"",""5"",""10213""
","
",102,NA,48,NA,NA,3000,1,1758,48,images/earth.jpg,images/rocket2,images/rocket1,null,images/rocket2,NA,1,real,null,2,NA,NA,NA,sub84
d3-animate-choice,166,905244,0.0-76.0-1.10,TRUE,FALSE,FALSE,TRUE,"""event"",""trial"",""time""
""fullscreenenter"",""5"",""10213""
","
","
","""event"",""trial"",""time""
""fullscreenenter"",""5"",""10213""
","
",373,NA,48,NA,NA,3000,1,2140,48,images/redplanet1.jpg,images/alien2,images/alien1,images/rocket2,images/alien2,images/t.png,2,real,true,2,common,1,2020-06-17T00:13:56Z,sub84
two-step-fixation,167,906254,0.0-76.0-2.10,TRUE,FALSE,FALSE,TRUE,"""event"",""trial"",""time""
""fullscreenenter"",""5"",""10213""
","
","
","""event"",""trial"",""time""
""fullscreenenter"",""5"",""10213""
","
",NA,images/earth.jpg,NA,NA,NA,NA,NA,NA,NA,NA,NA,NA,NA,NA,NA,fixation,NA,NA,NA,NA,NA,NA,sub84
d3-animate-choice,168,908385,0.0-76.0-0.11,TRUE,FALSE,FALSE,TRUE,"""event"",""trial"",""time""
""fullscreenenter"",""5"",""10213""
","
","
","""event"",""trial"",""time""
""fullscreenenter"",""5"",""10213""
","
",118,NA,48,NA,NA,3000,1,1774,48,images/earth.jpg,images/rocket2,images/rocket1,null,images/rocket2,NA,1,real,null,2,NA,NA,NA,sub84
d3-animate-choice,169,910705,0.0-76.0-1.11,TRUE,FALSE,FALSE,TRUE,"""event"",""trial"",""time""
""fullscreenenter"",""5"",""10213""
","
","
","""event"",""trial"",""time""
""fullscreenenter"",""5"",""10213""
","
",308,NA,48,NA,NA,3000,1,2147,48,images/redplanet1.jpg,images/alien2,images/alien1,images/rocket2,images/alien2,images/t.png,2,real,true,2,common,1,2020-06-17T00:14:01Z,sub84
two-step-fixation,170,911716,0.0-76.0-2.11,TRUE,FALSE,FALSE,TRUE,"""event"",""trial"",""time""
""fullscreenenter"",""5"",""10213""
","
","
","""event"",""trial"",""time""
""fullscreenenter"",""5"",""10213""
","
",NA,images/earth.jpg,NA,NA,NA,NA,NA,NA,NA,NA,NA,NA,NA,NA,NA,fixation,NA,NA,NA,NA,NA,NA,sub84
d3-animate-choice,171,914305,0.0-76.0-0.12,TRUE,FALSE,FALSE,TRUE,"""event"",""trial"",""time""
""fullscreenenter"",""5"",""10213""
","
","
","""event"",""trial"",""time""
""fullscreenenter"",""5"",""10213""
","
",578,NA,48,NA,NA,3000,1,2250,48,images/earth.jpg,images/rocket2,images/rocket1,null,images/rocket2,NA,1,real,null,2,NA,NA,NA,sub84
d3-animate-choice,172,916795,0.0-76.0-1.12,TRUE,FALSE,FALSE,TRUE,"""event"",""trial"",""time""
""fullscreenenter"",""5"",""10213""
","
","
","""event"",""trial"",""time""
""fullscreenenter"",""5"",""10213""
","
",483,NA,48,NA,NA,3000,1,1484,48,images/purpleplanet.jpg,images/alien4,images/alien3,images/rocket2,images/alien4,images/t.png,2,real,false,2,rare,1,2020-06-17T00:14:07Z,sub84
two-step-fixation,173,917806,0.0-76.0-2.12,TRUE,FALSE,FALSE,TRUE,"""event"",""trial"",""time""
""fullscreenenter"",""5"",""10213""
","
","
","""event"",""trial"",""time""
""fullscreenenter"",""5"",""10213""
","
",NA,images/earth.jpg,NA,NA,NA,NA,NA,NA,NA,NA,NA,NA,NA,NA,NA,fixation,NA,NA,NA,NA,NA,NA,sub84
d3-animate-choice,174,919968,0.0-76.0-0.13,TRUE,FALSE,FALSE,TRUE,"""event"",""trial"",""time""
""fullscreenenter"",""5"",""10213""
","
","
","""event"",""trial"",""time""
""fullscreenenter"",""5"",""10213""
","
",153,NA,48,NA,NA,3000,1,1567,48,images/earth.jpg,images/rocket2,images/rocket1,null,images/rocket2,NA,1,real,null,2,NA,NA,NA,sub84
d3-animate-choice,175,922199,0.0-76.0-1.13,TRUE,FALSE,FALSE,TRUE,"""event"",""trial"",""time""
""fullscreenenter"",""5"",""10213""
","
","
","""event"",""trial"",""time""
""fullscreenenter"",""5"",""10213""
","
",220,NA,48,NA,NA,3000,1,2084,48,images/redplanet1.jpg,images/alien2,images/alien1,images/rocket2,images/alien2,images/nothing.png,2,real,true,2,common,0,2020-06-17T00:14:13Z,sub84
two-step-fixation,176,923209,0.0-76.0-2.13,TRUE,FALSE,FALSE,TRUE,"""event"",""trial"",""time""
""fullscreenenter"",""5"",""10213""
","
","
","""event"",""trial"",""time""
""fullscreenenter"",""5"",""10213""
","
",NA,images/earth.jpg,NA,NA,NA,NA,NA,NA,NA,NA,NA,NA,NA,NA,NA,fixation,NA,NA,NA,NA,NA,NA,sub84
d3-animate-choice,177,925868,0.0-76.0-0.14,TRUE,FALSE,FALSE,TRUE,"""event"",""trial"",""time""
""fullscreenenter"",""5"",""10213""
","
","
","""event"",""trial"",""time""
""fullscreenenter"",""5"",""10213""
","
",652,NA,48,NA,NA,3000,1,2061,48,images/earth.jpg,images/rocket2,images/rocket1,null,images/rocket2,NA,1,real,null,2,NA,NA,NA,sub84
d3-animate-choice,178,928168,0.0-76.0-1.14,TRUE,FALSE,FALSE,TRUE,"""event"",""trial"",""time""
""fullscreenenter"",""5"",""10213""
","
","
","""event"",""trial"",""time""
""fullscreenenter"",""5"",""10213""
","
",289,NA,48,NA,NA,3000,1,2033,48,images/purpleplanet.jpg,images/alien4,images/alien3,images/rocket2,images/alien4,images/nothing.png,2,real,false,2,rare,0,2020-06-17T00:14:19Z,sub84
two-step-fixation,179,929177,0.0-76.0-2.14,TRUE,FALSE,FALSE,TRUE,"""event"",""trial"",""time""
""fullscreenenter"",""5"",""10213""
","
","
","""event"",""trial"",""time""
""fullscreenenter"",""5"",""10213""
","
",NA,images/earth.jpg,NA,NA,NA,NA,NA,NA,NA,NA,NA,NA,NA,NA,NA,fixation,NA,NA,NA,NA,NA,NA,sub84
d3-animate-choice,180,931658,0.0-76.0-0.15,TRUE,FALSE,FALSE,TRUE,"""event"",""trial"",""time""
""fullscreenenter"",""5"",""10213""
","
","
","""event"",""trial"",""time""
""fullscreenenter"",""5"",""10213""
","
",467,NA,48,NA,NA,3000,1,1995,48,images/earth.jpg,images/rocket2,images/rocket1,null,images/rocket2,NA,1,real,null,2,NA,NA,NA,sub84
d3-animate-choice,181,933919,0.0-76.0-1.15,TRUE,FALSE,FALSE,TRUE,"""event"",""trial"",""time""
""fullscreenenter"",""5"",""10213""
","
","
","""event"",""trial"",""time""
""fullscreenenter"",""5"",""10213""
","
",250,NA,48,NA,NA,3000,1,2091,48,images/redplanet1.jpg,images/alien2,images/alien1,images/rocket2,images/alien2,images/nothing.png,2,real,true,2,common,0,2020-06-17T00:14:25Z,sub84
two-step-fixation,182,934928,0.0-76.0-2.15,TRUE,FALSE,FALSE,TRUE,"""event"",""trial"",""time""
""fullscreenenter"",""5"",""10213""
","
","
","""event"",""trial"",""time""
""fullscreenenter"",""5"",""10213""
","
",NA,images/earth.jpg,NA,NA,NA,NA,NA,NA,NA,NA,NA,NA,NA,NA,NA,fixation,NA,NA,NA,NA,NA,NA,sub84
d3-animate-choice,183,937417,0.0-76.0-0.16,TRUE,FALSE,FALSE,TRUE,"""event"",""trial"",""time""
""fullscreenenter"",""5"",""10213""
","
","
","""event"",""trial"",""time""
""fullscreenenter"",""5"",""10213""
","
",485,NA,48,NA,NA,3000,1,2278,48,images/earth.jpg,images/rocket2,images/rocket1,null,images/rocket2,NA,1,real,null,2,NA,NA,NA,sub84
d3-animate-choice,184,939817,0.0-76.0-1.16,TRUE,FALSE,FALSE,TRUE,"""event"",""trial"",""time""
""fullscreenenter"",""5"",""10213""
","
","
","""event"",""trial"",""time""
""fullscreenenter"",""5"",""10213""
","
",395,NA,48,NA,NA,3000,1,NA,NA,images/redplanet1.jpg,images/alien2,images/alien1,images/rocket2,images/alien2,images/t.png,2,real,true,2,common,1,2020-06-17T00:14:30Z,sub84
two-step-fixation,185,940828,0.0-76.0-2.16,TRUE,FALSE,FALSE,TRUE,"""event"",""trial"",""time""
""fullscreenenter"",""5"",""10213""
","
","
","""event"",""trial"",""time""
""fullscreenenter"",""5"",""10213""
","
",NA,images/earth.jpg,NA,NA,NA,NA,NA,NA,NA,NA,NA,NA,NA,NA,NA,fixation,NA,NA,NA,NA,NA,NA,sub84
d3-animate-choice,186,943317,0.0-76.0-0.17,TRUE,FALSE,FALSE,TRUE,"""event"",""trial"",""time""
""fullscreenenter"",""5"",""10213""
","
","
","""event"",""trial"",""time""
""fullscreenenter"",""5"",""10213""
","
",480,NA,48,NA,NA,3000,1,2056,48,images/earth.jpg,images/rocket2,images/rocket1,null,images/rocket2,NA,1,real,null,2,NA,NA,NA,sub84
d3-animate-choice,187,945768,0.0-76.0-1.17,TRUE,FALSE,FALSE,TRUE,"""event"",""trial"",""time""
""fullscreenenter"",""5"",""10213""
","
","
","""event"",""trial"",""time""
""fullscreenenter"",""5"",""10213""
","
",439,NA,48,NA,NA,3000,1,2432,48,images/purpleplanet.jpg,images/alien4,images/alien3,images/rocket2,images/alien4,images/nothing.png,2,real,false,2,rare,0,2020-06-17T00:14:36Z,sub84
two-step-fixation,188,946770,0.0-76.0-2.17,TRUE,FALSE,FALSE,TRUE,"""event"",""trial"",""time""
""fullscreenenter"",""5"",""10213""
","
","
","""event"",""trial"",""time""
""fullscreenenter"",""5"",""10213""
","
",NA,images/earth.jpg,NA,NA,NA,NA,NA,NA,NA,NA,NA,NA,NA,NA,NA,fixation,NA,NA,NA,NA,NA,NA,sub84
d3-animate-choice,189,949149,0.0-76.0-0.18,TRUE,FALSE,FALSE,TRUE,"""event"",""trial"",""time""
""fullscreenenter"",""5"",""10213""
","
","
","""event"",""trial"",""time""
""fullscreenenter"",""5"",""10213""
","
",371,NA,48,NA,NA,3000,1,NA,NA,images/earth.jpg,images/rocket2,images/rocket1,null,images/rocket2,NA,1,real,null,2,NA,NA,NA,sub84
d3-animate-choice,190,951769,0.0-76.0-1.18,TRUE,FALSE,FALSE,TRUE,"""event"",""trial"",""time""
""fullscreenenter"",""5"",""10213""
","
","
","""event"",""trial"",""time""
""fullscreenenter"",""5"",""10213""
","
",607,NA,48,NA,NA,3000,1,1776,49,images/redplanet1.jpg,images/alien2,images/alien1,images/rocket2,images/alien2,images/t.png,2,real,true,2,common,1,2020-06-17T00:14:42Z,sub84
two-step-fixation,191,952779,0.0-76.0-2.18,TRUE,FALSE,FALSE,TRUE,"""event"",""trial"",""time""
""fullscreenenter"",""5"",""10213""
","
","
","""event"",""trial"",""time""
""fullscreenenter"",""5"",""10213""
","
",NA,images/earth.jpg,NA,NA,NA,NA,NA,NA,NA,NA,NA,NA,NA,NA,NA,fixation,NA,NA,NA,NA,NA,NA,sub84
d3-animate-choice,192,955259,0.0-76.0-0.19,TRUE,FALSE,FALSE,TRUE,"""event"",""trial"",""time""
""fullscreenenter"",""5"",""10213""
","
","
","""event"",""trial"",""time""
""fullscreenenter"",""5"",""10213""
","
",473,NA,48,NA,NA,3000,1,NA,NA,images/earth.jpg,images/rocket2,images/rocket1,null,images/rocket2,NA,1,real,null,2,NA,NA,NA,sub84
d3-animate-choice,193,957961,0.0-76.0-1.19,TRUE,FALSE,FALSE,TRUE,"""event"",""trial"",""time""
""fullscreenenter"",""5"",""10213""
","
","
","""event"",""trial"",""time""
""fullscreenenter"",""5"",""10213""
","
",689,NA,49,NA,NA,3000,1,11532545,4948,images/redplanet1.jpg,images/alien2,images/alien1,images/rocket2,images/alien1,images/nothing.png,2,real,true,1,common,0,2020-06-17T00:14:49Z,sub84
two-step-fixation,194,958974,0.0-76.0-2.19,TRUE,FALSE,FALSE,TRUE,"""event"",""trial"",""time""
""fullscreenenter"",""5"",""10213""
","
","
","""event"",""trial"",""time""
""fullscreenenter"",""5"",""10213""
","
",NA,images/earth.jpg,NA,NA,NA,NA,NA,NA,NA,NA,NA,NA,NA,NA,NA,fixation,NA,NA,NA,NA,NA,NA,sub84
d3-animate-choice,195,960986,0.0-76.0-0.20,TRUE,FALSE,FALSE,TRUE,"""event"",""trial"",""time""
""fullscreenenter"",""5"",""10213""
","
","
","""event"",""trial"",""time""
""fullscreenenter"",""5"",""10213""
","
",2,NA,48,NA,NA,3000,1,1758,48,images/earth.jpg,images/rocket2,images/rocket1,null,images/rocket2,NA,1,real,null,2,NA,NA,NA,sub84
d3-animate-choice,196,963466,0.0-76.0-1.20,TRUE,FALSE,FALSE,TRUE,"""event"",""trial"",""time""
""fullscreenenter"",""5"",""10213""
","
","
","""event"",""trial"",""time""
""fullscreenenter"",""5"",""10213""
","
",465,NA,48,NA,NA,3000,1,2256,48,images/redplanet1.jpg,images/alien2,images/alien1,images/rocket2,images/alien2,images/t.png,2,real,true,2,common,1,2020-06-17T00:14:54Z,sub84
two-step-fixation,197,964477,0.0-76.0-2.20,TRUE,FALSE,FALSE,TRUE,"""event"",""trial"",""time""
""fullscreenenter"",""5"",""10213""
","
","
","""event"",""trial"",""time""
""fullscreenenter"",""5"",""10213""
","
",NA,images/earth.jpg,NA,NA,NA,NA,NA,NA,NA,NA,NA,NA,NA,NA,NA,fixation,NA,NA,NA,NA,NA,NA,sub84
d3-animate-choice,198,967016,0.0-76.0-0.21,TRUE,FALSE,FALSE,TRUE,"""event"",""trial"",""time""
""fullscreenenter"",""5"",""10213""
","
","
","""event"",""trial"",""time""
""fullscreenenter"",""5"",""10213""
","
",528,NA,48,NA,NA,3000,1,2336,48,images/earth.jpg,images/rocket2,images/rocket1,null,images/rocket2,NA,1,real,null,2,NA,NA,NA,sub84
d3-animate-choice,199,969477,0.0-76.0-1.21,TRUE,FALSE,FALSE,TRUE,"""event"",""trial"",""time""
""fullscreenenter"",""5"",""10213""
","
","
","""event"",""trial"",""time""
""fullscreenenter"",""5"",""10213""
","
",452,NA,48,NA,NA,3000,1,2309,48,images/redplanet1.jpg,images/alien2,images/alien1,images/rocket2,images/alien2,images/nothing.png,2,real,true,2,common,0,2020-06-17T00:15:00Z,sub84
two-step-fixation,200,970488,0.0-76.0-2.21,TRUE,FALSE,FALSE,TRUE,"""event"",""trial"",""time""
""fullscreenenter"",""5"",""10213""
","
","
","""event"",""trial"",""time""
""fullscreenenter"",""5"",""10213""
","
",NA,images/earth.jpg,NA,NA,NA,NA,NA,NA,NA,NA,NA,NA,NA,NA,NA,fixation,NA,NA,NA,NA,NA,NA,sub84
d3-animate-choice,201,972997,0.0-76.0-0.22,TRUE,FALSE,FALSE,TRUE,"""event"",""trial"",""time""
""fullscreenenter"",""5"",""10213""
","
","
","""event"",""trial"",""time""
""fullscreenenter"",""5"",""10213""
","
",501,NA,48,NA,NA,3000,1,1997,48,images/earth.jpg,images/rocket2,images/rocket1,null,images/rocket2,NA,1,real,null,2,NA,NA,NA,sub84
d3-animate-choice,202,975307,0.0-76.0-1.22,TRUE,FALSE,FALSE,TRUE,"""event"",""trial"",""time""
""fullscreenenter"",""5"",""10213""
","
","
","""event"",""trial"",""time""
""fullscreenenter"",""5"",""10213""
","
",303,NA,48,NA,NA,3000,1,2047,48,images/redplanet1.jpg,images/alien2,images/alien1,images/rocket2,images/alien2,images/nothing.png,2,real,true,2,common,0,2020-06-17T00:15:06Z,sub84
two-step-fixation,203,976316,0.0-76.0-2.22,TRUE,FALSE,FALSE,TRUE,"""event"",""trial"",""time""
""fullscreenenter"",""5"",""10213""
","
","
","""event"",""trial"",""time""
""fullscreenenter"",""5"",""10213""
","
",NA,images/earth.jpg,NA,NA,NA,NA,NA,NA,NA,NA,NA,NA,NA,NA,NA,fixation,NA,NA,NA,NA,NA,NA,sub84
d3-animate-choice,204,979018,0.0-76.0-0.23,TRUE,FALSE,FALSE,TRUE,"""event"",""trial"",""time""
""fullscreenenter"",""5"",""10213""
","
","
","""event"",""trial"",""time""
""fullscreenenter"",""5"",""10213""
","
",688,NA,48,NA,NA,3000,1,2145,48,images/earth.jpg,images/rocket2,images/rocket1,null,images/rocket2,NA,1,real,null,2,NA,NA,NA,sub84
d3-animate-choice,205,981338,0.0-76.0-1.23,TRUE,FALSE,FALSE,TRUE,"""event"",""trial"",""time""
""fullscreenenter"",""5"",""10213""
","
","
","""event"",""trial"",""time""
""fullscreenenter"",""5"",""10213""
","
",313,NA,48,NA,NA,3000,1,2073,48,images/redplanet1.jpg,images/alien2,images/alien1,images/rocket2,images/alien2,images/t.png,2,real,true,2,common,1,2020-06-17T00:15:12Z,sub84
two-step-fixation,206,982348,0.0-76.0-2.23,TRUE,FALSE,FALSE,TRUE,"""event"",""trial"",""time""
""fullscreenenter"",""5"",""10213""
","
","
","""event"",""trial"",""time""
""fullscreenenter"",""5"",""10213""
","
",NA,images/earth.jpg,NA,NA,NA,NA,NA,NA,NA,NA,NA,NA,NA,NA,NA,fixation,NA,NA,NA,NA,NA,NA,sub84
d3-animate-choice,207,984698,0.0-76.0-0.24,TRUE,FALSE,FALSE,TRUE,"""event"",""trial"",""time""
""fullscreenenter"",""5"",""10213""
","
","
","""event"",""trial"",""time""
""fullscreenenter"",""5"",""10213""
","
",336,NA,48,NA,NA,3000,1,1865,48,images/earth.jpg,images/rocket2,images/rocket1,null,images/rocket2,NA,1,real,null,2,NA,NA,NA,sub84
d3-animate-choice,208,986998,0.0-76.0-1.24,TRUE,FALSE,FALSE,TRUE,"""event"",""trial"",""time""
""fullscreenenter"",""5"",""10213""
","
","
","""event"",""trial"",""time""
""fullscreenenter"",""5"",""10213""
","
",295,NA,48,NA,NA,3000,1,2034,48,images/redplanet1.jpg,images/alien2,images/alien1,images/rocket2,images/alien2,images/t.png,2,real,true,2,common,1,2020-06-17T00:15:18Z,sub84
two-step-fixation,209,988009,0.0-76.0-2.24,TRUE,FALSE,FALSE,TRUE,"""event"",""trial"",""time""
""fullscreenenter"",""5"",""10213""
","
","
","""event"",""trial"",""time""
""fullscreenenter"",""5"",""10213""
","
",NA,images/earth.jpg,NA,NA,NA,NA,NA,NA,NA,NA,NA,NA,NA,NA,NA,fixation,NA,NA,NA,NA,NA,NA,sub84
d3-animate-choice,210,990488,0.0-76.0-0.25,TRUE,FALSE,FALSE,TRUE,"""event"",""trial"",""time""
""fullscreenenter"",""5"",""10213""
","
","
","""event"",""trial"",""time""
""fullscreenenter"",""5"",""10213""
","
",475,NA,48,NA,NA,3000,1,1843,48,images/earth.jpg,images/rocket2,images/rocket1,null,images/rocket2,NA,1,real,null,2,NA,NA,NA,sub84
d3-animate-choice,211,992908,0.0-76.0-1.25,TRUE,FALSE,FALSE,TRUE,"""event"",""trial"",""time""
""fullscreenenter"",""5"",""10213""
","
","
","""event"",""trial"",""time""
""fullscreenenter"",""5"",""10213""
","
",411,NA,48,NA,NA,3000,1,12192371,4848,images/redplanet1.jpg,images/alien2,images/alien1,images/rocket2,images/alien2,images/t.png,2,real,true,2,common,1,2020-06-17T00:15:24Z,sub84
two-step-fixation,212,993919,0.0-76.0-2.25,TRUE,FALSE,FALSE,TRUE,"""event"",""trial"",""time""
""fullscreenenter"",""5"",""10213""
","
","
","""event"",""trial"",""time""
""fullscreenenter"",""5"",""10213""
","
",NA,images/earth.jpg,NA,NA,NA,NA,NA,NA,NA,NA,NA,NA,NA,NA,NA,fixation,NA,NA,NA,NA,NA,NA,sub84
d3-animate-choice,213,996119,0.0-76.0-0.26,TRUE,FALSE,FALSE,TRUE,"""event"",""trial"",""time""
""fullscreenenter"",""5"",""10213""
","
","
","""event"",""trial"",""time""
""fullscreenenter"",""5"",""10213""
","
",189,NA,48,NA,NA,3000,1,1638,48,images/earth.jpg,images/rocket2,images/rocket1,null,images/rocket2,NA,1,real,null,2,NA,NA,NA,sub84
d3-animate-choice,214,998519,0.0-76.0-1.26,TRUE,FALSE,FALSE,TRUE,"""event"",""trial"",""time""
""fullscreenenter"",""5"",""10213""
","
","
","""event"",""trial"",""time""
""fullscreenenter"",""5"",""10213""
","
",389,NA,48,NA,NA,3000,1,2229,48,images/redplanet1.jpg,images/alien2,images/alien1,images/rocket2,images/alien2,images/t.png,2,real,true,2,common,1,2020-06-17T00:15:29Z,sub84
two-step-fixation,215,999529,0.0-76.0-2.26,TRUE,FALSE,FALSE,TRUE,"""event"",""trial"",""time""
""fullscreenenter"",""5"",""10213""
","
","
","""event"",""trial"",""time""
""fullscreenenter"",""5"",""10213""
","
",NA,images/earth.jpg,NA,NA,NA,NA,NA,NA,NA,NA,NA,NA,NA,NA,NA,fixation,NA,NA,NA,NA,NA,NA,sub84
d3-animate-choice,216,1002029,0.0-76.0-0.27,TRUE,FALSE,FALSE,TRUE,"""event"",""trial"",""time""
""fullscreenenter"",""5"",""10213""
","
","
","""event"",""trial"",""time""
""fullscreenenter"",""5"",""10213""
","
",492,NA,48,NA,NA,3000,1,2172,48,images/earth.jpg,images/rocket2,images/rocket1,null,images/rocket2,NA,1,real,null,2,NA,NA,NA,sub84
d3-animate-choice,217,1004649,0.0-76.0-1.27,TRUE,FALSE,FALSE,TRUE,"""event"",""trial"",""time""
""fullscreenenter"",""5"",""10213""
","
","
","""event"",""trial"",""time""
""fullscreenenter"",""5"",""10213""
","
",605,NA,48,NA,NA,3000,1,2478,48,images/redplanet1.jpg,images/alien2,images/alien1,images/rocket2,images/alien2,images/t.png,2,real,true,2,common,1,2020-06-17T00:15:35Z,sub84
two-step-fixation,218,1005659,0.0-76.0-2.27,TRUE,FALSE,FALSE,TRUE,"""event"",""trial"",""time""
""fullscreenenter"",""5"",""10213""
","
","
","""event"",""trial"",""time""
""fullscreenenter"",""5"",""10213""
","
",NA,images/earth.jpg,NA,NA,NA,NA,NA,NA,NA,NA,NA,NA,NA,NA,NA,fixation,NA,NA,NA,NA,NA,NA,sub84
d3-animate-choice,219,1008338,0.0-76.0-0.28,TRUE,FALSE,FALSE,TRUE,"""event"",""trial"",""time""
""fullscreenenter"",""5"",""10213""
","
","
","""event"",""trial"",""time""
""fullscreenenter"",""5"",""10213""
","
",674,NA,48,NA,NA,3000,1,2402,48,images/earth.jpg,images/rocket2,images/rocket1,null,images/rocket2,NA,1,real,null,2,NA,NA,NA,sub84
d3-animate-choice,220,1010759,0.0-76.0-1.28,TRUE,FALSE,FALSE,TRUE,"""event"",""trial"",""time""
""fullscreenenter"",""5"",""10213""
","
","
","""event"",""trial"",""time""
""fullscreenenter"",""5"",""10213""
","
",409,NA,48,NA,NA,3000,1,2249,48,images/purpleplanet.jpg,images/alien4,images/alien3,images/rocket2,images/alien4,images/t.png,2,real,false,2,rare,1,2020-06-17T00:15:41Z,sub84
two-step-fixation,221,1011769,0.0-76.0-2.28,TRUE,FALSE,FALSE,TRUE,"""event"",""trial"",""time""
""fullscreenenter"",""5"",""10213""
","
","
","""event"",""trial"",""time""
""fullscreenenter"",""5"",""10213""
","
",NA,images/earth.jpg,NA,NA,NA,NA,NA,NA,NA,NA,NA,NA,NA,NA,NA,fixation,NA,NA,NA,NA,NA,NA,sub84
d3-animate-choice,222,1013879,0.0-76.0-0.29,TRUE,FALSE,FALSE,TRUE,"""event"",""trial"",""time""
""fullscreenenter"",""5"",""10213""
","
","
","""event"",""trial"",""time""
""fullscreenenter"",""5"",""10213""
","
",97,NA,48,NA,NA,3000,1,1809,48,images/earth.jpg,images/rocket2,images/rocket1,null,images/rocket2,NA,1,real,null,2,NA,NA,NA,sub84
d3-animate-choice,223,1016543,0.0-76.0-1.29,TRUE,FALSE,FALSE,TRUE,"""event"",""trial"",""time""
""fullscreenenter"",""5"",""10213""
","
","
","""event"",""trial"",""time""
""fullscreenenter"",""5"",""10213""
","
",653,NA,48,NA,NA,3000,1,2477,48,images/purpleplanet.jpg,images/alien4,images/alien3,images/rocket2,images/alien4,images/t.png,2,real,false,2,rare,1,2020-06-17T00:15:47Z,sub84
two-step-fixation,224,1017554,0.0-76.0-2.29,TRUE,FALSE,FALSE,TRUE,"""event"",""trial"",""time""
""fullscreenenter"",""5"",""10213""
","
","
","""event"",""trial"",""time""
""fullscreenenter"",""5"",""10213""
","
",NA,images/earth.jpg,NA,NA,NA,NA,NA,NA,NA,NA,NA,NA,NA,NA,NA,fixation,NA,NA,NA,NA,NA,NA,sub84
d3-animate-choice,225,1020294,0.0-76.0-0.30,TRUE,FALSE,FALSE,TRUE,"""event"",""trial"",""time""
""fullscreenenter"",""5"",""10213""
","
","
","""event"",""trial"",""time""
""fullscreenenter"",""5"",""10213""
","
",730,NA,48,NA,NA,3000,1,2242,48,images/earth.jpg,images/rocket2,images/rocket1,null,images/rocket2,NA,1,real,null,2,NA,NA,NA,sub84
d3-animate-choice,226,1022513,0.0-76.0-1.30,TRUE,FALSE,FALSE,TRUE,"""event"",""trial"",""time""
""fullscreenenter"",""5"",""10213""
","
","
","""event"",""trial"",""time""
""fullscreenenter"",""5"",""10213""
","
",206,NA,48,NA,NA,3000,1,92515342141,484848,images/redplanet1.jpg,images/alien2,images/alien1,images/rocket2,images/alien2,images/nothing.png,2,real,true,2,common,0,2020-06-17T00:15:53Z,sub84
two-step-fixation,227,1023523,0.0-76.0-2.30,TRUE,FALSE,FALSE,TRUE,"""event"",""trial"",""time""
""fullscreenenter"",""5"",""10213""
","
","
","""event"",""trial"",""time""
""fullscreenenter"",""5"",""10213""
","
",NA,images/earth.jpg,NA,NA,NA,NA,NA,NA,NA,NA,NA,NA,NA,NA,NA,fixation,NA,NA,NA,NA,NA,NA,sub84
d3-animate-choice,228,1025924,0.0-76.0-0.31,TRUE,FALSE,FALSE,TRUE,"""event"",""trial"",""time""
""fullscreenenter"",""5"",""10213""
","
","
","""event"",""trial"",""time""
""fullscreenenter"",""5"",""10213""
","
",393,NA,48,NA,NA,3000,1,2008,48,images/earth.jpg,images/rocket2,images/rocket1,null,images/rocket2,NA,1,real,null,2,NA,NA,NA,sub84
d3-animate-choice,229,1028294,0.0-76.0-1.31,TRUE,FALSE,FALSE,TRUE,"""event"",""trial"",""time""
""fullscreenenter"",""5"",""10213""
","
","
","""event"",""trial"",""time""
""fullscreenenter"",""5"",""10213""
","
",360,NA,48,NA,NA,3000,1,9372104,4848,images/redplanet1.jpg,images/alien2,images/alien1,images/rocket2,images/alien2,images/nothing.png,2,real,true,2,common,0,2020-06-17T00:15:59Z,sub84
two-step-fixation,230,1029304,0.0-76.0-2.31,TRUE,FALSE,FALSE,TRUE,"""event"",""trial"",""time""
""fullscreenenter"",""5"",""10213""
","
","
","""event"",""trial"",""time""
""fullscreenenter"",""5"",""10213""
","
",NA,images/earth.jpg,NA,NA,NA,NA,NA,NA,NA,NA,NA,NA,NA,NA,NA,fixation,NA,NA,NA,NA,NA,NA,sub84
d3-animate-choice,231,1031876,0.0-76.0-0.32,TRUE,FALSE,FALSE,TRUE,"""event"",""trial"",""time""
""fullscreenenter"",""5"",""10213""
","
","
","""event"",""trial"",""time""
""fullscreenenter"",""5"",""10213""
","
",564,NA,48,NA,NA,3000,1,2283,48,images/earth.jpg,images/rocket2,images/rocket1,null,images/rocket2,NA,1,real,null,2,NA,NA,NA,sub84
d3-animate-choice,232,1034277,0.0-76.0-1.32,TRUE,FALSE,FALSE,TRUE,"""event"",""trial"",""time""
""fullscreenenter"",""5"",""10213""
","
","
","""event"",""trial"",""time""
""fullscreenenter"",""5"",""10213""
","
",391,NA,48,NA,NA,3000,1,2279,48,images/purpleplanet.jpg,images/alien4,images/alien3,images/rocket2,images/alien4,images/t.png,2,real,false,2,rare,1,2020-06-17T00:16:05Z,sub84
two-step-fixation,233,1035286,0.0-76.0-2.32,TRUE,FALSE,FALSE,TRUE,"""event"",""trial"",""time""
""fullscreenenter"",""5"",""10213""
","
","
","""event"",""trial"",""time""
""fullscreenenter"",""5"",""10213""
","
",NA,images/earth.jpg,NA,NA,NA,NA,NA,NA,NA,NA,NA,NA,NA,NA,NA,fixation,NA,NA,NA,NA,NA,NA,sub84
d3-animate-choice,234,1037578,0.0-76.0-0.33,TRUE,FALSE,FALSE,TRUE,"""event"",""trial"",""time""
""fullscreenenter"",""5"",""10213""
","
","
","""event"",""trial"",""time""
""fullscreenenter"",""5"",""10213""
","
",285,NA,48,NA,NA,3000,1,1861,48,images/earth.jpg,images/rocket2,images/rocket1,null,images/rocket2,NA,1,real,null,2,NA,NA,NA,sub84
d3-animate-choice,235,1040388,0.0-76.0-1.33,TRUE,FALSE,FALSE,TRUE,"""event"",""trial"",""time""
""fullscreenenter"",""5"",""10213""
","
","
","""event"",""trial"",""time""
""fullscreenenter"",""5"",""10213""
","
",802,NA,48,NA,NA,3000,1,2179,48,images/redplanet1.jpg,images/alien2,images/alien1,images/rocket2,images/alien2,images/t.png,2,real,true,2,common,1,2020-06-17T00:16:11Z,sub84
two-step-fixation,236,1041399,0.0-76.0-2.33,TRUE,FALSE,FALSE,TRUE,"""event"",""trial"",""time""
""fullscreenenter"",""5"",""10213""
","
","
","""event"",""trial"",""time""
""fullscreenenter"",""5"",""10213""
","
",NA,images/earth.jpg,NA,NA,NA,NA,NA,NA,NA,NA,NA,NA,NA,NA,NA,fixation,NA,NA,NA,NA,NA,NA,sub84
d3-animate-choice,237,1043809,0.0-76.0-0.34,TRUE,FALSE,FALSE,TRUE,"""event"",""trial"",""time""
""fullscreenenter"",""5"",""10213""
","
","
","""event"",""trial"",""time""
""fullscreenenter"",""5"",""10213""
","
",396,NA,48,NA,NA,3000,1,18122356,4848,images/earth.jpg,images/rocket2,images/rocket1,null,images/rocket2,NA,1,real,null,2,NA,NA,NA,sub84
d3-animate-choice,238,1046389,0.0-76.0-1.34,TRUE,FALSE,FALSE,TRUE,"""event"",""trial"",""time""
""fullscreenenter"",""5"",""10213""
","
","
","""event"",""trial"",""time""
""fullscreenenter"",""5"",""10213""
","
",569,NA,48,NA,NA,3000,1,13692440,4848,images/redplanet1.jpg,images/alien2,images/alien1,images/rocket2,images/alien2,images/nothing.png,2,real,true,2,common,0,2020-06-17T00:16:17Z,sub84
two-step-fixation,239,1047401,0.0-76.0-2.34,TRUE,FALSE,FALSE,TRUE,"""event"",""trial"",""time""
""fullscreenenter"",""5"",""10213""
","
","
","""event"",""trial"",""time""
""fullscreenenter"",""5"",""10213""
","
",NA,images/earth.jpg,NA,NA,NA,NA,NA,NA,NA,NA,NA,NA,NA,NA,NA,fixation,NA,NA,NA,NA,NA,NA,sub84
d3-animate-choice,240,1049440,0.0-76.0-0.35,TRUE,FALSE,FALSE,TRUE,"""event"",""trial"",""time""
""fullscreenenter"",""5"",""10213""
","
","
","""event"",""trial"",""time""
""fullscreenenter"",""5"",""10213""
","
",36,NA,48,NA,NA,3000,1,1595,48,images/earth.jpg,images/rocket2,images/rocket1,null,images/rocket2,NA,1,real,null,2,NA,NA,NA,sub84
d3-animate-choice,241,1052000,0.0-76.0-1.35,TRUE,FALSE,FALSE,TRUE,"""event"",""trial"",""time""
""fullscreenenter"",""5"",""10213""
","
","
","""event"",""trial"",""time""
""fullscreenenter"",""5"",""10213""
","
",554,NA,48,NA,NA,3000,1,2362,48,images/purpleplanet.jpg,images/alien4,images/alien3,images/rocket2,images/alien4,images/nothing.png,2,real,false,2,rare,0,2020-06-17T00:16:23Z,sub84
two-step-fixation,242,1053016,0.0-76.0-2.35,TRUE,FALSE,FALSE,TRUE,"""event"",""trial"",""time""
""fullscreenenter"",""5"",""10213""
","
","
","""event"",""trial"",""time""
""fullscreenenter"",""5"",""10213""
","
",NA,images/earth.jpg,NA,NA,NA,NA,NA,NA,NA,NA,NA,NA,NA,NA,NA,fixation,NA,NA,NA,NA,NA,NA,sub84
d3-animate-choice,243,1055411,0.0-76.0-0.36,TRUE,FALSE,FALSE,TRUE,"""event"",""trial"",""time""
""fullscreenenter"",""5"",""10213""
","
","
","""event"",""trial"",""time""
""fullscreenenter"",""5"",""10213""
","
",388,NA,48,NA,NA,3000,1,1932,48,images/earth.jpg,images/rocket2,images/rocket1,null,images/rocket2,NA,1,real,null,2,NA,NA,NA,sub84
d3-animate-choice,244,1058472,0.0-76.0-1.36,TRUE,FALSE,FALSE,TRUE,"""event"",""trial"",""time""
""fullscreenenter"",""5"",""10213""
","
","
","""event"",""trial"",""time""
""fullscreenenter"",""5"",""10213""
","
",1049,NA,48,NA,NA,3000,1,2856,48,images/purpleplanet.jpg,images/alien4,images/alien3,images/rocket2,images/alien4,images/t.png,2,real,false,2,rare,1,2020-06-17T00:16:29Z,sub84
two-step-fixation,245,1059479,0.0-76.0-2.36,TRUE,FALSE,FALSE,TRUE,"""event"",""trial"",""time""
""fullscreenenter"",""5"",""10213""
","
","
","""event"",""trial"",""time""
""fullscreenenter"",""5"",""10213""
","
",NA,images/earth.jpg,NA,NA,NA,NA,NA,NA,NA,NA,NA,NA,NA,NA,NA,fixation,NA,NA,NA,NA,NA,NA,sub84
d3-animate-choice,246,1061850,0.0-76.0-0.37,TRUE,FALSE,FALSE,TRUE,"""event"",""trial"",""time""
""fullscreenenter"",""5"",""10213""
","
","
","""event"",""trial"",""time""
""fullscreenenter"",""5"",""10213""
","
",364,NA,48,NA,NA,3000,1,1812,48,images/earth.jpg,images/rocket2,images/rocket1,null,images/rocket2,NA,1,real,null,2,NA,NA,NA,sub84
d3-animate-choice,247,1064020,0.0-76.0-1.37,TRUE,FALSE,FALSE,TRUE,"""event"",""trial"",""time""
""fullscreenenter"",""5"",""10213""
","
","
","""event"",""trial"",""time""
""fullscreenenter"",""5"",""10213""
","
",161,NA,48,NA,NA,3000,1,1969,48,images/redplanet1.jpg,images/alien2,images/alien1,images/rocket2,images/alien2,images/t.png,2,real,true,2,common,1,2020-06-17T00:16:35Z,sub84
two-step-fixation,248,1065031,0.0-76.0-2.37,TRUE,FALSE,FALSE,TRUE,"""event"",""trial"",""time""
""fullscreenenter"",""5"",""10213""
","
","
","""event"",""trial"",""time""
""fullscreenenter"",""5"",""10213""
","
",NA,images/earth.jpg,NA,NA,NA,NA,NA,NA,NA,NA,NA,NA,NA,NA,NA,fixation,NA,NA,NA,NA,NA,NA,sub84
d3-animate-choice,249,1067160,0.0-76.0-0.38,TRUE,FALSE,FALSE,TRUE,"""event"",""trial"",""time""
""fullscreenenter"",""5"",""10213""
","
","
","""event"",""trial"",""time""
""fullscreenenter"",""5"",""10213""
","
",117,NA,48,NA,NA,3000,1,1701,48,images/earth.jpg,images/rocket2,images/rocket1,null,images/rocket2,NA,1,real,null,2,NA,NA,NA,sub84
d3-animate-choice,250,1069410,0.0-76.0-1.38,TRUE,FALSE,FALSE,TRUE,"""event"",""trial"",""time""
""fullscreenenter"",""5"",""10213""
","
","
","""event"",""trial"",""time""
""fullscreenenter"",""5"",""10213""
","
",242,NA,48,NA,NA,3000,1,2051,48,images/redplanet1.jpg,images/alien2,images/alien1,images/rocket2,images/alien2,images/nothing.png,2,real,true,2,common,0,2020-06-17T00:16:40Z,sub84
two-step-fixation,251,1070420,0.0-76.0-2.38,TRUE,FALSE,FALSE,TRUE,"""event"",""trial"",""time""
""fullscreenenter"",""5"",""10213""
","
","
","""event"",""trial"",""time""
""fullscreenenter"",""5"",""10213""
","
",NA,images/earth.jpg,NA,NA,NA,NA,NA,NA,NA,NA,NA,NA,NA,NA,NA,fixation,NA,NA,NA,NA,NA,NA,sub84
d3-animate-choice,252,1072601,0.0-76.0-0.39,TRUE,FALSE,FALSE,TRUE,"""event"",""trial"",""time""
""fullscreenenter"",""5"",""10213""
","
","
","""event"",""trial"",""time""
""fullscreenenter"",""5"",""10213""
","
",167,NA,48,NA,NA,3000,1,1865,48,images/earth.jpg,images/rocket2,images/rocket1,null,images/rocket2,NA,1,real,null,2,NA,NA,NA,sub84
d3-animate-choice,253,1075361,0.0-76.0-1.39,TRUE,FALSE,FALSE,TRUE,"""event"",""trial"",""time""
""fullscreenenter"",""5"",""10213""
","
","
","""event"",""trial"",""time""
""fullscreenenter"",""5"",""10213""
","
",747,NA,48,NA,NA,3000,1,1225,48,images/redplanet1.jpg,images/alien2,images/alien1,images/rocket2,images/alien2,images/t.png,2,real,true,2,common,1,2020-06-17T00:16:46Z,sub84
two-step-fixation,254,1076371,0.0-76.0-2.39,TRUE,FALSE,FALSE,TRUE,"""event"",""trial"",""time""
""fullscreenenter"",""5"",""10213""
","
","
","""event"",""trial"",""time""
""fullscreenenter"",""5"",""10213""
","
",NA,images/earth.jpg,NA,NA,NA,NA,NA,NA,NA,NA,NA,NA,NA,NA,NA,fixation,NA,NA,NA,NA,NA,NA,sub84
d3-animate-choice,255,1078781,0.0-76.0-0.40,TRUE,FALSE,FALSE,TRUE,"""event"",""trial"",""time""
""fullscreenenter"",""5"",""10213""
","
","
","""event"",""trial"",""time""
""fullscreenenter"",""5"",""10213""
","
",401,NA,48,NA,NA,3000,1,1880,48,images/earth.jpg,images/rocket2,images/rocket1,null,images/rocket2,NA,1,real,null,2,NA,NA,NA,sub84
d3-animate-choice,256,1081072,0.0-76.0-1.40,TRUE,FALSE,FALSE,TRUE,"""event"",""trial"",""time""
""fullscreenenter"",""5"",""10213""
","
","
","""event"",""trial"",""time""
""fullscreenenter"",""5"",""10213""
","
",285,NA,48,NA,NA,3000,1,2000,48,images/redplanet1.jpg,images/alien2,images/alien1,images/rocket2,images/alien2,images/t.png,2,real,true,2,common,1,2020-06-17T00:16:52Z,sub84
two-step-fixation,257,1082081,0.0-76.0-2.40,TRUE,FALSE,FALSE,TRUE,"""event"",""trial"",""time""
""fullscreenenter"",""5"",""10213""
","
","
","""event"",""trial"",""time""
""fullscreenenter"",""5"",""10213""
","
",NA,images/earth.jpg,NA,NA,NA,NA,NA,NA,NA,NA,NA,NA,NA,NA,NA,fixation,NA,NA,NA,NA,NA,NA,sub84
d3-animate-choice,258,1084222,0.0-76.0-0.41,TRUE,FALSE,FALSE,TRUE,"""event"",""trial"",""time""
""fullscreenenter"",""5"",""10213""
","
","
","""event"",""trial"",""time""
""fullscreenenter"",""5"",""10213""
","
",130,NA,48,NA,NA,3000,1,1601,48,images/earth.jpg,images/rocket2,images/rocket1,null,images/rocket2,NA,1,real,null,2,NA,NA,NA,sub84
d3-animate-choice,259,1086932,0.0-76.0-1.41,TRUE,FALSE,FALSE,TRUE,"""event"",""trial"",""time""
""fullscreenenter"",""5"",""10213""
","
","
","""event"",""trial"",""time""
""fullscreenenter"",""5"",""10213""
","
",701,NA,48,NA,NA,3000,1,2557,48,images/purpleplanet.jpg,images/alien4,images/alien3,images/rocket2,images/alien4,images/t.png,2,real,false,2,rare,1,2020-06-17T00:16:58Z,sub84
two-step-fixation,260,1087942,0.0-76.0-2.41,TRUE,FALSE,FALSE,TRUE,"""event"",""trial"",""time""
""fullscreenenter"",""5"",""10213""
","
","
","""event"",""trial"",""time""
""fullscreenenter"",""5"",""10213""
","
",NA,images/earth.jpg,NA,NA,NA,NA,NA,NA,NA,NA,NA,NA,NA,NA,NA,fixation,NA,NA,NA,NA,NA,NA,sub84
d3-animate-choice,261,1090392,0.0-76.0-0.42,TRUE,FALSE,FALSE,TRUE,"""event"",""trial"",""time""
""fullscreenenter"",""5"",""10213""
","
","
","""event"",""trial"",""time""
""fullscreenenter"",""5"",""10213""
","
",445,NA,48,NA,NA,3000,1,1989,48,images/earth.jpg,images/rocket2,images/rocket1,null,images/rocket2,NA,1,real,null,2,NA,NA,NA,sub84
d3-animate-choice,262,1092874,0.0-76.0-1.42,TRUE,FALSE,FALSE,TRUE,"""event"",""trial"",""time""
""fullscreenenter"",""5"",""10213""
","
","
","""event"",""trial"",""time""
""fullscreenenter"",""5"",""10213""
","
",475,NA,48,NA,NA,3000,1,2236,48,images/purpleplanet.jpg,images/alien4,images/alien3,images/rocket2,images/alien4,images/t.png,2,real,false,2,rare,1,2020-06-17T00:17:03Z,sub84
two-step-fixation,263,1093885,0.0-76.0-2.42,TRUE,FALSE,FALSE,TRUE,"""event"",""trial"",""time""
""fullscreenenter"",""5"",""10213""
","
","
","""event"",""trial"",""time""
""fullscreenenter"",""5"",""10213""
","
",NA,images/earth.jpg,NA,NA,NA,NA,NA,NA,NA,NA,NA,NA,NA,NA,NA,fixation,NA,NA,NA,NA,NA,NA,sub84
d3-animate-choice,264,1096503,0.0-76.0-0.43,TRUE,FALSE,FALSE,TRUE,"""event"",""trial"",""time""
""fullscreenenter"",""5"",""10213""
","
","
","""event"",""trial"",""time""
""fullscreenenter"",""5"",""10213""
","
",615,NA,48,NA,NA,3000,1,2111,48,images/earth.jpg,images/rocket2,images/rocket1,null,images/rocket2,NA,1,real,null,2,NA,NA,NA,sub84
d3-animate-choice,265,1098893,0.0-76.0-1.43,TRUE,FALSE,FALSE,TRUE,"""event"",""trial"",""time""
""fullscreenenter"",""5"",""10213""
","
","
","""event"",""trial"",""time""
""fullscreenenter"",""5"",""10213""
","
",378,NA,48,NA,NA,3000,1,2123,48,images/redplanet1.jpg,images/alien2,images/alien1,images/rocket2,images/alien2,images/t.png,2,real,true,2,common,1,2020-06-17T00:17:09Z,sub84
two-step-fixation,266,1099904,0.0-76.0-2.43,TRUE,FALSE,FALSE,TRUE,"""event"",""trial"",""time""
""fullscreenenter"",""5"",""10213""
","
","
","""event"",""trial"",""time""
""fullscreenenter"",""5"",""10213""
","
",NA,images/earth.jpg,NA,NA,NA,NA,NA,NA,NA,NA,NA,NA,NA,NA,NA,fixation,NA,NA,NA,NA,NA,NA,sub84
d3-animate-choice,267,1102304,0.0-76.0-0.44,TRUE,FALSE,FALSE,TRUE,"""event"",""trial"",""time""
""fullscreenenter"",""5"",""10213""
","
","
","""event"",""trial"",""time""
""fullscreenenter"",""5"",""10213""
","
",395,NA,48,NA,NA,3000,1,1940,48,images/earth.jpg,images/rocket2,images/rocket1,null,images/rocket2,NA,1,real,null,2,NA,NA,NA,sub84
d3-animate-choice,268,1104703,0.0-76.0-1.44,TRUE,FALSE,FALSE,TRUE,"""event"",""trial"",""time""
""fullscreenenter"",""5"",""10213""
","
","
","""event"",""trial"",""time""
""fullscreenenter"",""5"",""10213""
","
",395,NA,48,NA,NA,3000,1,2155,48,images/purpleplanet.jpg,images/alien4,images/alien3,images/rocket2,images/alien4,images/nothing.png,2,real,false,2,rare,0,2020-06-17T00:17:15Z,sub84
two-step-fixation,269,1105705,0.0-76.0-2.44,TRUE,FALSE,FALSE,TRUE,"""event"",""trial"",""time""
""fullscreenenter"",""5"",""10213""
","
","
","""event"",""trial"",""time""
""fullscreenenter"",""5"",""10213""
","
",NA,images/earth.jpg,NA,NA,NA,NA,NA,NA,NA,NA,NA,NA,NA,NA,NA,fixation,NA,NA,NA,NA,NA,NA,sub84
d3-animate-choice,270,1107946,0.0-76.0-0.45,TRUE,FALSE,FALSE,TRUE,"""event"",""trial"",""time""
""fullscreenenter"",""5"",""10213""
","
","
","""event"",""trial"",""time""
""fullscreenenter"",""5"",""10213""
","
",234,NA,48,NA,NA,3000,1,1747,48,images/earth.jpg,images/rocket2,images/rocket1,null,images/rocket2,NA,1,real,null,2,NA,NA,NA,sub84
d3-animate-choice,271,1110316,0.0-76.0-1.45,TRUE,FALSE,FALSE,TRUE,"""event"",""trial"",""time""
""fullscreenenter"",""5"",""10213""
","
","
","""event"",""trial"",""time""
""fullscreenenter"",""5"",""10213""
","
",361,NA,48,NA,NA,3000,1,9692314,4848,images/redplanet1.jpg,images/alien2,images/alien1,images/rocket2,images/alien2,images/t.png,2,real,true,2,common,1,2020-06-17T00:17:21Z,sub84
two-step-fixation,272,1111325,0.0-76.0-2.45,TRUE,FALSE,FALSE,TRUE,"""event"",""trial"",""time""
""fullscreenenter"",""5"",""10213""
","
","
","""event"",""trial"",""time""
""fullscreenenter"",""5"",""10213""
","
",NA,images/earth.jpg,NA,NA,NA,NA,NA,NA,NA,NA,NA,NA,NA,NA,NA,fixation,NA,NA,NA,NA,NA,NA,sub84
d3-animate-choice,273,1113687,0.0-76.0-0.46,TRUE,FALSE,FALSE,TRUE,"""event"",""trial"",""time""
""fullscreenenter"",""5"",""10213""
","
","
","""event"",""trial"",""time""
""fullscreenenter"",""5"",""10213""
","
",351,NA,48,NA,NA,3000,1,16132134,4848,images/earth.jpg,images/rocket2,images/rocket1,null,images/rocket2,NA,1,real,null,2,NA,NA,NA,sub84
d3-animate-choice,274,1116427,0.0-76.0-1.46,TRUE,FALSE,FALSE,TRUE,"""event"",""trial"",""time""
""fullscreenenter"",""5"",""10213""
","
","
","""event"",""trial"",""time""
""fullscreenenter"",""5"",""10213""
","
",732,NA,48,NA,NA,3000,1,2571,48,images/purpleplanet.jpg,images/alien4,images/alien3,images/rocket2,images/alien4,images/t.png,2,real,false,2,rare,1,2020-06-17T00:17:27Z,sub84
two-step-fixation,275,1117439,0.0-76.0-2.46,TRUE,FALSE,FALSE,TRUE,"""event"",""trial"",""time""
""fullscreenenter"",""5"",""10213""
","
","
","""event"",""trial"",""time""
""fullscreenenter"",""5"",""10213""
","
",NA,images/earth.jpg,NA,NA,NA,NA,NA,NA,NA,NA,NA,NA,NA,NA,NA,fixation,NA,NA,NA,NA,NA,NA,sub84
d3-animate-choice,276,1119707,0.0-76.0-0.47,TRUE,FALSE,FALSE,TRUE,"""event"",""trial"",""time""
""fullscreenenter"",""5"",""10213""
","
","
","""event"",""trial"",""time""
""fullscreenenter"",""5"",""10213""
","
",259,NA,48,NA,NA,3000,1,892,48,images/earth.jpg,images/rocket2,images/rocket1,null,images/rocket2,NA,1,real,null,2,NA,NA,NA,sub84
d3-animate-choice,277,1122177,0.0-76.0-1.47,TRUE,FALSE,FALSE,TRUE,"""event"",""trial"",""time""
""fullscreenenter"",""5"",""10213""
","
","
","""event"",""trial"",""time""
""fullscreenenter"",""5"",""10213""
","
",463,NA,48,NA,NA,3000,1,11672447,4848,images/redplanet1.jpg,images/alien2,images/alien1,images/rocket2,images/alien2,images/t.png,2,real,true,2,common,1,2020-06-17T00:17:33Z,sub84
two-step-fixation,278,1123187,0.0-76.0-2.47,TRUE,FALSE,FALSE,TRUE,"""event"",""trial"",""time""
""fullscreenenter"",""5"",""10213""
","
","
","""event"",""trial"",""time""
""fullscreenenter"",""5"",""10213""
","
",NA,images/earth.jpg,NA,NA,NA,NA,NA,NA,NA,NA,NA,NA,NA,NA,NA,fixation,NA,NA,NA,NA,NA,NA,sub84
d3-animate-choice,279,1125568,0.0-76.0-0.48,TRUE,FALSE,FALSE,TRUE,"""event"",""trial"",""time""
""fullscreenenter"",""5"",""10213""
","
","
","""event"",""trial"",""time""
""fullscreenenter"",""5"",""10213""
","
",368,NA,48,NA,NA,3000,1,1880,48,images/earth.jpg,images/rocket2,images/rocket1,null,images/rocket2,NA,1,real,null,2,NA,NA,NA,sub84
d3-animate-choice,280,1127827,0.0-76.0-1.48,TRUE,FALSE,FALSE,TRUE,"""event"",""trial"",""time""
""fullscreenenter"",""5"",""10213""
","
","
","""event"",""trial"",""time""
""fullscreenenter"",""5"",""10213""
","
",251,NA,48,NA,NA,3000,1,9241827,4848,images/redplanet1.jpg,images/alien2,images/alien1,images/rocket2,images/alien2,images/nothing.png,2,real,true,2,common,0,2020-06-17T00:17:38Z,sub84
two-step-fixation,281,1128837,0.0-76.0-2.48,TRUE,FALSE,FALSE,TRUE,"""event"",""trial"",""time""
""fullscreenenter"",""5"",""10213""
","
","
","""event"",""trial"",""time""
""fullscreenenter"",""5"",""10213""
","
",NA,images/earth.jpg,NA,NA,NA,NA,NA,NA,NA,NA,NA,NA,NA,NA,NA,fixation,NA,NA,NA,NA,NA,NA,sub84
d3-animate-choice,282,1130919,0.0-76.0-0.49,TRUE,FALSE,FALSE,TRUE,"""event"",""trial"",""time""
""fullscreenenter"",""5"",""10213""
","
","
","""event"",""trial"",""time""
""fullscreenenter"",""5"",""10213""
","
",70,NA,48,NA,NA,3000,1,1302,48,images/earth.jpg,images/rocket2,images/rocket1,null,images/rocket2,NA,1,real,null,2,NA,NA,NA,sub84
d3-animate-choice,283,1133247,0.0-76.0-1.49,TRUE,FALSE,FALSE,TRUE,"""event"",""trial"",""time""
""fullscreenenter"",""5"",""10213""
","
","
","""event"",""trial"",""time""
""fullscreenenter"",""5"",""10213""
","
",324,NA,48,NA,NA,3000,1,10122020,4848,images/redplanet1.jpg,images/alien2,images/alien1,images/rocket2,images/alien2,images/t.png,2,real,true,2,common,1,2020-06-17T00:17:44Z,sub84
two-step-fixation,284,1134257,0.0-76.0-2.49,TRUE,FALSE,FALSE,TRUE,"""event"",""trial"",""time""
""fullscreenenter"",""5"",""10213""
","
","
","""event"",""trial"",""time""
""fullscreenenter"",""5"",""10213""
","
",NA,images/earth.jpg,NA,NA,NA,NA,NA,NA,NA,NA,NA,NA,NA,NA,NA,fixation,NA,NA,NA,NA,NA,NA,sub84
audio-button-response-2,285,1143639,0.0-77.0,TRUE,FALSE,FALSE,TRUE,"""event"",""trial"",""time""
""fullscreenenter"",""5"",""10213""
","
","
","""event"",""trial"",""time""
""fullscreenenter"",""5"",""10213""
","
",9380,audio/instructions/break_1.wav,NA,0,NA,NA,NA,NA,NA,NA,NA,NA,NA,NA,NA,NA,NA,NA,NA,NA,NA,NA,sub84
d3-animate-choice,286,1147654,0.0-78.0-0.0,TRUE,FALSE,FALSE,TRUE,"""event"",""trial"",""time""
""fullscreenenter"",""5"",""10213""
","
","
","""event"",""trial"",""time""
""fullscreenenter"",""5"",""10213""
","
",null,NA,null,NA,NA,3000,0,NA,NA,images/earth.jpg,images/rocket2,images/rocket1,null,NA,NA,1,real,null,NA,NA,NA,NA,sub84
d3-animate-choice,287,1148658,0.0-78.0-1.0,TRUE,FALSE,FALSE,TRUE,"""event"",""trial"",""time""
""fullscreenenter"",""5"",""10213""
","
","
","""event"",""trial"",""time""
""fullscreenenter"",""5"",""10213""
","
",null,NA,null,NA,NA,0,0,NA,NA,images/earth.jpg,images/rocket2,images/rocket1,null,NA,NA,2,real,null,NA,NA,0,2020-06-17T00:17:59Z,sub84
two-step-fixation,288,1149666,0.0-78.0-2.0,TRUE,FALSE,FALSE,TRUE,"""event"",""trial"",""time""
""fullscreenenter"",""5"",""10213""
","
","
","""event"",""trial"",""time""
""fullscreenenter"",""5"",""10213""
","
",NA,images/earth.jpg,NA,NA,NA,NA,NA,NA,NA,NA,NA,NA,NA,NA,NA,fixation,NA,NA,NA,NA,NA,NA,sub84
d3-animate-choice,289,1152384,0.0-78.0-0.1,TRUE,FALSE,FALSE,TRUE,"""event"",""trial"",""time""
""fullscreenenter"",""5"",""10213""
","
","
","""event"",""trial"",""time""
""fullscreenenter"",""5"",""10213""
","
