trial_type,trial_index,time_elapsed,internal_node_id,rocket_sides,red_planet_first_rocket,red_display_order,purple_display_order,interactions,blur_events,focus_events,fullscreenenter_events,fullscreenexit_events,rt,stimulus,key_press,button_pressed,success,duration,valid_pressed,rts,keys,planet_text,right_text,left_text,center_text,chosen_text,reward_text,trial_stage,practice_trial,transition_type,choice,transition,reward,timestamp,subject_id
pavlovia,0,3,0.0-0.0,FALSE,FALSE,TRUE,TRUE,"
","
","
","
","
",NA,NA,NA,NA,NA,NA,NA,NA,NA,NA,NA,NA,NA,NA,NA,NA,NA,NA,NA,NA,NA,NA,sub122
html-keyboard-response,1,2565,0.0-1.0,FALSE,FALSE,TRUE,TRUE,"
","
","
","
","
",2560.4049999965355,Welcome! Press the space bar to begin.,32,NA,NA,NA,NA,NA,NA,NA,NA,NA,NA,NA,NA,NA,NA,NA,NA,NA,NA,NA,sub122
audio-keyboard-response,2,6024,0.0-2.0,FALSE,FALSE,TRUE,TRUE,"
","
","
","
","
",3451,audio/beep_loop.wav,32,NA,NA,NA,NA,NA,NA,NA,NA,NA,NA,NA,NA,NA,NA,NA,NA,NA,NA,NA,sub122
audio-button-response,3,9825,0.0-3.0,FALSE,FALSE,TRUE,TRUE,"
","
","
","
","
",NaN,audio/fish.mp3,NA,1,NA,NA,NA,NA,NA,NA,NA,NA,NA,NA,NA,NA,NA,NA,NA,NA,NA,NA,sub122
audio-button-response,4,12825,0.0-4.0,FALSE,FALSE,TRUE,TRUE,"""event"",""trial"",""time""
""fullscreenenter"",""5"",""18079""
","
","
","""event"",""trial"",""time""
""fullscreenenter"",""5"",""18079""
","
",NaN,audio/tiger.mp3,NA,4,NA,NA,NA,NA,NA,NA,NA,NA,NA,NA,NA,NA,NA,NA,NA,NA,NA,NA,sub122
fullscreen,5,19069,0.0-5.0,FALSE,FALSE,TRUE,TRUE,"""event"",""trial"",""time""
""fullscreenenter"",""5"",""18079""
","
","
","""event"",""trial"",""time""
""fullscreenenter"",""5"",""18079""
","
",NA,NA,NA,NA,TRUE,NA,NA,NA,NA,NA,NA,NA,NA,NA,NA,NA,NA,NA,NA,NA,NA,NA,sub122
d3-instructions,6,32346,0.0-6.0,FALSE,FALSE,TRUE,TRUE,"""event"",""trial"",""time""
""fullscreenenter"",""5"",""18079""
","
","
","""event"",""trial"",""time""
""fullscreenenter"",""5"",""18079""
","
",NA,NA,NA,NA,NA,NA,NA,NA,NA,NA,NA,NA,NA,NA,NA,NA,NA,NA,NA,NA,NA,NA,sub122
d3-instructions,7,41582,0.0-7.0,FALSE,FALSE,TRUE,TRUE,"""event"",""trial"",""time""
""fullscreenenter"",""5"",""18079""
","
","
","""event"",""trial"",""time""
""fullscreenenter"",""5"",""18079""
","
",NA,NA,NA,NA,NA,NA,NA,NA,NA,NA,NA,NA,NA,NA,NA,NA,NA,NA,NA,NA,NA,NA,sub122
d3-instructions,8,48563,0.0-8.0,FALSE,FALSE,TRUE,TRUE,"""event"",""trial"",""time""
""fullscreenenter"",""5"",""18079""
","
","
","""event"",""trial"",""time""
""fullscreenenter"",""5"",""18079""
","
",NA,NA,NA,NA,NA,NA,NA,NA,NA,NA,NA,NA,NA,NA,NA,NA,NA,NA,NA,NA,NA,NA,sub122
d3-instructions,9,60679,0.0-9.0,FALSE,FALSE,TRUE,TRUE,"""event"",""trial"",""time""
""fullscreenenter"",""5"",""18079""
","
","
","""event"",""trial"",""time""
""fullscreenenter"",""5"",""18079""
","
",NA,NA,NA,NA,NA,NA,NA,NA,NA,NA,NA,NA,NA,NA,NA,NA,NA,NA,NA,NA,NA,NA,sub122
d3-instructions,10,76626,0.0-10.0,FALSE,FALSE,TRUE,TRUE,"""event"",""trial"",""time""
""fullscreenenter"",""5"",""18079""
","
","
","""event"",""trial"",""time""
""fullscreenenter"",""5"",""18079""
","
",NA,NA,NA,NA,NA,NA,NA,NA,NA,NA,NA,NA,NA,NA,NA,NA,NA,NA,NA,NA,NA,NA,sub122
d3-animate-choice,11,79975,0.0-11.0,FALSE,FALSE,TRUE,TRUE,"""event"",""trial"",""time""
""fullscreenenter"",""5"",""18079""
","
","
","""event"",""trial"",""time""
""fullscreenenter"",""5"",""18079""
","
",1334.709999995539,NA,49,NA,NA,3000,1,2053.269999989425,50,images/tutgreenplanet.jpg,images/tutalien1,images/tutalien2,null,images/tutalien2,NA,NA,practice,null,NA,NA,NA,NA,sub122
d3-animate-choice,12,86340,0.0-12.0,FALSE,FALSE,TRUE,TRUE,"""event"",""trial"",""time""
""fullscreenenter"",""5"",""18079""
","
","
","""event"",""trial"",""time""
""fullscreenenter"",""5"",""18079""
","
",994.4399999949383,NA,50,NA,NA,3000,1,"1559.4200000050478,3440.275000000838,3665.420000004815,4358.420000004116",50505049,images/tutgreenplanet.jpg,images/tutalien1,images/tutalien2,null,images/tutalien2,NA,NA,practice,null,NA,NA,NA,NA,sub122
d3-animate-choice,13,89275,0.0-13.0,FALSE,FALSE,TRUE,TRUE,"""event"",""trial"",""time""
""fullscreenenter"",""5"",""18079""
","
","
","""event"",""trial"",""time""
""fullscreenenter"",""5"",""18079""
","
",630.0800000026356,NA,50,NA,NA,3000,1,926.9999999960419,49,images/tutgreenplanet.jpg,images/tutalien1,images/tutalien2,null,images/tutalien2,NA,NA,practice,null,NA,NA,NA,NA,sub122
d3-animate-choice,14,92387,0.0-14.0,FALSE,FALSE,TRUE,TRUE,"""event"",""trial"",""time""
""fullscreenenter"",""5"",""18079""
","
","
","""event"",""trial"",""time""
""fullscreenenter"",""5"",""18079""
","
",262.50500000605825,NA,50,NA,NA,3000,1,1105.6700000044657,49,images/tutgreenplanet.jpg,images/tutalien1,images/tutalien2,null,images/tutalien2,NA,NA,practice,null,NA,NA,NA,NA,sub122
d3-instructions,15,98871,0.0-15.0,FALSE,FALSE,TRUE,TRUE,"""event"",""trial"",""time""
""fullscreenenter"",""5"",""18079""
","
","
","""event"",""trial"",""time""
""fullscreenenter"",""5"",""18079""
","
",NA,NA,NA,NA,NA,NA,NA,NA,NA,NA,NA,NA,NA,NA,NA,NA,NA,NA,NA,NA,NA,NA,sub122
d3-instructions,16,106513,0.0-16.0,FALSE,FALSE,TRUE,TRUE,"""event"",""trial"",""time""
""fullscreenenter"",""5"",""18079""
","
","
","""event"",""trial"",""time""
""fullscreenenter"",""5"",""18079""
","
",NA,NA,NA,NA,NA,NA,NA,NA,NA,NA,NA,NA,NA,NA,NA,NA,NA,NA,NA,NA,NA,NA,sub122
d3-instructions,17,116106,0.0-17.0,FALSE,FALSE,TRUE,TRUE,"""event"",""trial"",""time""
""fullscreenenter"",""5"",""18079""
","
","
","""event"",""trial"",""time""
""fullscreenenter"",""5"",""18079""
","
",NA,NA,NA,NA,NA,NA,NA,NA,NA,NA,NA,NA,NA,NA,NA,NA,NA,NA,NA,NA,NA,NA,sub122
d3-instructions,18,128598,0.0-18.0,FALSE,FALSE,TRUE,TRUE,"""event"",""trial"",""time""
""fullscreenenter"",""5"",""18079""
","
","
","""event"",""trial"",""time""
""fullscreenenter"",""5"",""18079""
","
",NA,NA,NA,NA,NA,NA,NA,NA,NA,NA,NA,NA,NA,NA,NA,NA,NA,NA,NA,NA,NA,NA,sub122
d3-instructions,19,144013,0.0-19.0,FALSE,FALSE,TRUE,TRUE,"""event"",""trial"",""time""
""fullscreenenter"",""5"",""18079""
","
","
","""event"",""trial"",""time""
""fullscreenenter"",""5"",""18079""
","
",NA,NA,NA,NA,NA,NA,NA,NA,NA,NA,NA,NA,NA,NA,NA,NA,NA,NA,NA,NA,NA,NA,sub122
d3-animate-choice,20,146556,0.0-20.0,FALSE,FALSE,TRUE,TRUE,"""event"",""trial"",""time""
""fullscreenenter"",""5"",""18079""
","
","
","""event"",""trial"",""time""
""fullscreenenter"",""5"",""18079""
","
",536.469999991823,NA,49,NA,NA,3000,1,NA,NA,images/tutyellowplanet.jpg,null,images/tutalien3,null,images/tutalien3,images/nothing.png,NA,practice,null,NA,NA,NA,NA,sub122
d3-animate-choice,21,148851,0.0-21.0,FALSE,FALSE,TRUE,TRUE,"""event"",""trial"",""time""
""fullscreenenter"",""5"",""18079""
","
","
","""event"",""trial"",""time""
""fullscreenenter"",""5"",""18079""
","
",289.81000000203494,NA,49,NA,NA,3000,1,NA,NA,images/tutyellowplanet.jpg,null,images/tutalien3,null,images/tutalien3,images/t.png,NA,practice,null,NA,NA,NA,NA,sub122
d3-animate-choice,22,151078,0.0-22.0,FALSE,FALSE,TRUE,TRUE,"""event"",""trial"",""time""
""fullscreenenter"",""5"",""18079""
","
","
","""event"",""trial"",""time""
""fullscreenenter"",""5"",""18079""
","
",221.29999999015126,NA,49,NA,NA,3000,1,NA,NA,images/tutyellowplanet.jpg,null,images/tutalien3,null,images/tutalien3,images/t.png,NA,practice,null,NA,NA,NA,NA,sub122
d3-animate-choice,23,153284,0.0-23.0,FALSE,FALSE,TRUE,TRUE,"""event"",""trial"",""time""
""fullscreenenter"",""5"",""18079""
","
","
","""event"",""trial"",""time""
""fullscreenenter"",""5"",""18079""
","
",201.17499999469146,NA,49,NA,NA,3000,1,NA,NA,images/tutyellowplanet.jpg,null,images/tutalien3,null,images/tutalien3,images/nothing.png,NA,practice,null,NA,NA,NA,NA,sub122
d3-animate-choice,24,155414,0.0-24.0,FALSE,FALSE,TRUE,TRUE,"""event"",""trial"",""time""
""fullscreenenter"",""5"",""18079""
","
","
","""event"",""trial"",""time""
""fullscreenenter"",""5"",""18079""
","
",124.41500001295935,NA,49,NA,NA,3000,1,NA,NA,images/tutyellowplanet.jpg,null,images/tutalien3,null,images/tutalien3,images/t.png,NA,practice,null,NA,NA,NA,NA,sub122
d3-animate-choice,25,157440,0.0-25.0,FALSE,FALSE,TRUE,TRUE,"""event"",""trial"",""time""
""fullscreenenter"",""5"",""18079""
","
","
","""event"",""trial"",""time""
""fullscreenenter"",""5"",""18079""
","
",21.139999997103587,NA,49,NA,NA,3000,1,1973.1599999940954,49,images/tutyellowplanet.jpg,null,images/tutalien3,null,images/tutalien3,images/nothing.png,NA,practice,null,NA,NA,NA,NA,sub122
d3-animate-choice,26,159850,0.0-26.0,FALSE,FALSE,TRUE,TRUE,"""event"",""trial"",""time""
""fullscreenenter"",""5"",""18079""
","
","
","""event"",""trial"",""time""
""fullscreenenter"",""5"",""18079""
","
",405.5299999890849,NA,49,NA,NA,3000,1,NA,NA,images/tutyellowplanet.jpg,null,images/tutalien3,null,images/tutalien3,images/t.png,NA,practice,null,NA,NA,NA,NA,sub122
d3-animate-choice,27,162091,0.0-27.0,FALSE,FALSE,TRUE,TRUE,"""event"",""trial"",""time""
""fullscreenenter"",""5"",""18079""
","
","
","""event"",""trial"",""time""
""fullscreenenter"",""5"",""18079""
","
",233.6349999968661,NA,49,NA,NA,3000,1,NA,NA,images/tutyellowplanet.jpg,null,images/tutalien3,null,images/tutalien3,images/t.png,NA,practice,null,NA,NA,NA,NA,sub122
d3-animate-choice,28,164105,0.0-28.0,FALSE,FALSE,TRUE,TRUE,"""event"",""trial"",""time""
""fullscreenenter"",""5"",""18079""
","
","
","""event"",""trial"",""time""
""fullscreenenter"",""5"",""18079""
","
",7.729999997536652,NA,49,NA,NA,3000,1,NA,NA,images/tutyellowplanet.jpg,null,images/tutalien3,null,images/tutalien3,images/t.png,NA,practice,null,NA,NA,NA,NA,sub122
d3-animate-choice,29,166143,0.0-29.0,FALSE,FALSE,TRUE,TRUE,"""event"",""trial"",""time""
""fullscreenenter"",""5"",""18079""
","
","
","""event"",""trial"",""time""
""fullscreenenter"",""5"",""18079""
","
",33.530000000610016,NA,49,NA,NA,3000,1,NA,NA,images/tutyellowplanet.jpg,null,images/tutalien3,null,images/tutalien3,images/t.png,NA,practice,null,NA,NA,NA,NA,sub122
d3-instructions,30,173261,0.0-30.0,FALSE,FALSE,TRUE,TRUE,"""event"",""trial"",""time""
""fullscreenenter"",""5"",""18079""
","
","
","""event"",""trial"",""time""
""fullscreenenter"",""5"",""18079""
","
",NA,NA,NA,NA,NA,NA,NA,NA,NA,NA,NA,NA,NA,NA,NA,NA,NA,NA,NA,NA,NA,NA,sub122
d3-instructions,31,184474,0.0-31.0,FALSE,FALSE,TRUE,TRUE,"""event"",""trial"",""time""
""fullscreenenter"",""5"",""18079""
","
","
","""event"",""trial"",""time""
""fullscreenenter"",""5"",""18079""
","
",NA,NA,NA,NA,NA,NA,NA,NA,NA,NA,NA,NA,NA,NA,NA,NA,NA,NA,NA,NA,NA,NA,sub122
d3-instructions,32,195056,0.0-32.0,FALSE,FALSE,TRUE,TRUE,"""event"",""trial"",""time""
""fullscreenenter"",""5"",""18079""
","
","
","""event"",""trial"",""time""
""fullscreenenter"",""5"",""18079""
","
",NA,NA,NA,NA,NA,NA,NA,NA,NA,NA,NA,NA,NA,NA,NA,NA,NA,NA,NA,NA,NA,NA,sub122
d3-instructions,33,209262,0.0-33.0,FALSE,FALSE,TRUE,TRUE,"""event"",""trial"",""time""
""fullscreenenter"",""5"",""18079""
","
","
","""event"",""trial"",""time""
""fullscreenenter"",""5"",""18079""
","
",NA,NA,NA,NA,NA,NA,NA,NA,NA,NA,NA,NA,NA,NA,NA,NA,NA,NA,NA,NA,NA,NA,sub122
d3-animate-choice,34,212843,0.0-34.0,FALSE,FALSE,TRUE,TRUE,"""event"",""trial"",""time""
""fullscreenenter"",""5"",""18079""
","
","
","""event"",""trial"",""time""
""fullscreenenter"",""5"",""18079""
","
",1575.4850000084843,NA,48,NA,NA,3000,1,2287.660000001779,32,images/tutgreenplanet.jpg,images/tutalien1,images/tutalien2,null,images/tutalien1,images/nothing.png,NA,practice,null,NA,NA,NA,NA,sub122
d3-animate-choice,35,215764,0.0-35.0,FALSE,FALSE,TRUE,TRUE,"""event"",""trial"",""time""
""fullscreenenter"",""5"",""18079""
","
","
","""event"",""trial"",""time""
""fullscreenenter"",""5"",""18079""
","
",915.3249999944819,NA,48,NA,NA,3000,1,NA,NA,images/tutgreenplanet.jpg,images/tutalien1,images/tutalien2,null,images/tutalien1,images/nothing.png,NA,practice,null,NA,NA,NA,NA,sub122
d3-animate-choice,36,218375,0.0-36.0,FALSE,FALSE,TRUE,TRUE,"""event"",""trial"",""time""
""fullscreenenter"",""5"",""18079""
","
","
","""event"",""trial"",""time""
""fullscreenenter"",""5"",""18079""
","
",606.2499999970896,NA,48,NA,NA,3000,1,NA,NA,images/tutgreenplanet.jpg,images/tutalien1,images/tutalien2,null,images/tutalien1,images/nothing.png,NA,practice,null,NA,NA,NA,NA,sub122
d3-animate-choice,37,221121,0.0-37.0,FALSE,FALSE,TRUE,TRUE,"""event"",""trial"",""time""
""fullscreenenter"",""5"",""18079""
","
","
","""event"",""trial"",""time""
""fullscreenenter"",""5"",""18079""
","
",740.4749999986961,NA,49,NA,NA,3000,1,NA,NA,images/tutgreenplanet.jpg,images/tutalien1,images/tutalien2,null,images/tutalien2,images/t.png,NA,practice,null,NA,NA,NA,NA,sub122
d3-animate-choice,38,223437,0.0-38.0,FALSE,FALSE,TRUE,TRUE,"""event"",""trial"",""time""
""fullscreenenter"",""5"",""18079""
","
","
","""event"",""trial"",""time""
""fullscreenenter"",""5"",""18079""
","
",309.69499998900574,NA,49,NA,NA,3000,1,NA,NA,images/tutgreenplanet.jpg,images/tutalien1,images/tutalien2,null,images/tutalien2,images/nothing.png,NA,practice,null,NA,NA,NA,NA,sub122
d3-animate-choice,39,225763,0.0-39.0,FALSE,FALSE,TRUE,TRUE,"""event"",""trial"",""time""
""fullscreenenter"",""5"",""18079""
","
","
","""event"",""trial"",""time""
""fullscreenenter"",""5"",""18079""
","
",321.3149999937741,NA,49,NA,NA,3000,1,NA,NA,images/tutgreenplanet.jpg,images/tutalien1,images/tutalien2,null,images/tutalien2,images/t.png,NA,practice,null,NA,NA,NA,NA,sub122
d3-animate-choice,40,227986,0.0-40.0,FALSE,FALSE,TRUE,TRUE,"""event"",""trial"",""time""
""fullscreenenter"",""5"",""18079""
","
","
","""event"",""trial"",""time""
""fullscreenenter"",""5"",""18079""
","
",217.51999999105465,NA,49,NA,NA,3000,1,NA,NA,images/tutgreenplanet.jpg,images/tutalien1,images/tutalien2,null,images/tutalien2,images/t.png,NA,practice,null,NA,NA,NA,NA,sub122
d3-animate-choice,41,230265,0.0-41.0,FALSE,FALSE,TRUE,TRUE,"""event"",""trial"",""time""
""fullscreenenter"",""5"",""18079""
","
","
","""event"",""trial"",""time""
""fullscreenenter"",""5"",""18079""
","
",272.55999999761116,NA,49,NA,NA,3000,1,NA,NA,images/tutgreenplanet.jpg,images/tutalien1,images/tutalien2,null,images/tutalien2,images/t.png,NA,practice,null,NA,NA,NA,NA,sub122
d3-animate-choice,42,232508,0.0-42.0,FALSE,FALSE,TRUE,TRUE,"""event"",""trial"",""time""
""fullscreenenter"",""5"",""18079""
","
","
","""event"",""trial"",""time""
""fullscreenenter"",""5"",""18079""
","
",237.024999994901,NA,49,NA,NA,3000,1,NA,NA,images/tutgreenplanet.jpg,images/tutalien1,images/tutalien2,null,images/tutalien2,images/t.png,NA,practice,null,NA,NA,NA,NA,sub122
d3-animate-choice,43,234786,0.0-43.0,FALSE,FALSE,TRUE,TRUE,"""event"",""trial"",""time""
""fullscreenenter"",""5"",""18079""
","
","
","""event"",""trial"",""time""
""fullscreenenter"",""5"",""18079""
","
",272.9550000076415,NA,49,NA,NA,3000,1,NA,NA,images/tutgreenplanet.jpg,images/tutalien1,images/tutalien2,null,images/tutalien2,images/t.png,NA,practice,null,NA,NA,NA,NA,sub122
d3-instructions,44,249993,0.0-44.0,FALSE,FALSE,TRUE,TRUE,"""event"",""trial"",""time""
""fullscreenenter"",""5"",""18079""
","
","
","""event"",""trial"",""time""
""fullscreenenter"",""5"",""18079""
","
",NA,NA,NA,NA,NA,NA,NA,NA,NA,NA,NA,NA,NA,NA,NA,NA,NA,NA,NA,NA,NA,NA,sub122
d3-instructions,45,256644,0.0-45.0,FALSE,FALSE,TRUE,TRUE,"""event"",""trial"",""time""
""fullscreenenter"",""5"",""18079""
","
","
","""event"",""trial"",""time""
""fullscreenenter"",""5"",""18079""
","
",NA,NA,NA,NA,NA,NA,NA,NA,NA,NA,NA,NA,NA,NA,NA,NA,NA,NA,NA,NA,NA,NA,sub122
d3-instructions,46,262180,0.0-46.0,FALSE,FALSE,TRUE,TRUE,"""event"",""trial"",""time""
""fullscreenenter"",""5"",""18079""
","
","
","""event"",""trial"",""time""
""fullscreenenter"",""5"",""18079""
","
",NA,NA,NA,NA,NA,NA,NA,NA,NA,NA,NA,NA,NA,NA,NA,NA,NA,NA,NA,NA,NA,NA,sub122
d3-instructions,47,283355,0.0-47.0,FALSE,FALSE,TRUE,TRUE,"""event"",""trial"",""time""
""fullscreenenter"",""5"",""18079""
","
","
","""event"",""trial"",""time""
""fullscreenenter"",""5"",""18079""
","
",NA,NA,NA,NA,NA,NA,NA,NA,NA,NA,NA,NA,NA,NA,NA,NA,NA,NA,NA,NA,NA,NA,sub122
d3-instructions,48,290411,0.0-48.0,FALSE,FALSE,TRUE,TRUE,"""event"",""trial"",""time""
""fullscreenenter"",""5"",""18079""
","
","
","""event"",""trial"",""time""
""fullscreenenter"",""5"",""18079""
","
",NA,NA,NA,NA,NA,NA,NA,NA,NA,NA,NA,NA,NA,NA,NA,NA,NA,NA,NA,NA,NA,NA,sub122
d3-instructions,49,300901,0.0-49.0,FALSE,FALSE,TRUE,TRUE,"""event"",""trial"",""time""
""fullscreenenter"",""5"",""18079""
","
","
","""event"",""trial"",""time""
""fullscreenenter"",""5"",""18079""
","
",NA,NA,NA,NA,NA,NA,NA,NA,NA,NA,NA,NA,NA,NA,NA,NA,NA,NA,NA,NA,NA,NA,sub122
d3-instructions,50,309140,0.0-50.0,FALSE,FALSE,TRUE,TRUE,"""event"",""trial"",""time""
""fullscreenenter"",""5"",""18079""
","
","
","""event"",""trial"",""time""
""fullscreenenter"",""5"",""18079""
","
",NA,NA,NA,NA,NA,NA,NA,NA,NA,NA,NA,NA,NA,NA,NA,NA,NA,NA,NA,NA,NA,NA,sub122
d3-instructions,51,312451,0.0-51.0,FALSE,FALSE,TRUE,TRUE,"""event"",""trial"",""time""
""fullscreenenter"",""5"",""18079""
","
","
","""event"",""trial"",""time""
""fullscreenenter"",""5"",""18079""
","
",NA,NA,NA,NA,NA,NA,NA,NA,NA,NA,NA,NA,NA,NA,NA,NA,NA,NA,NA,NA,NA,NA,sub122
d3-instructions,52,315310,0.0-52.0,FALSE,FALSE,TRUE,TRUE,"""event"",""trial"",""time""
""fullscreenenter"",""5"",""18079""
","
","
","""event"",""trial"",""time""
""fullscreenenter"",""5"",""18079""
","
",NA,NA,NA,NA,NA,NA,NA,NA,NA,NA,NA,NA,NA,NA,NA,NA,NA,NA,NA,NA,NA,NA,sub122
d3-instructions,53,330247,0.0-53.0,FALSE,FALSE,TRUE,TRUE,"""event"",""trial"",""time""
""fullscreenenter"",""5"",""18079""
","
","
","""event"",""trial"",""time""
""fullscreenenter"",""5"",""18079""
","
",NA,NA,NA,NA,NA,NA,NA,NA,NA,NA,NA,NA,NA,NA,NA,NA,NA,NA,NA,NA,NA,NA,sub122
d3-instructions,54,343570,0.0-54.0,FALSE,FALSE,TRUE,TRUE,"""event"",""trial"",""time""
""fullscreenenter"",""5"",""18079""
","
","
","""event"",""trial"",""time""
""fullscreenenter"",""5"",""18079""
","
",NA,NA,NA,NA,NA,NA,NA,NA,NA,NA,NA,NA,NA,NA,NA,NA,NA,NA,NA,NA,NA,NA,sub122
d3-instructions,55,352839,0.0-55.0,FALSE,FALSE,TRUE,TRUE,"""event"",""trial"",""time""
""fullscreenenter"",""5"",""18079""
","
","
","""event"",""trial"",""time""
""fullscreenenter"",""5"",""18079""
","
",NA,NA,NA,NA,NA,NA,NA,NA,NA,NA,NA,NA,NA,NA,NA,NA,NA,NA,NA,NA,NA,NA,sub122
d3-instructions,56,361130,0.0-56.0,FALSE,FALSE,TRUE,TRUE,"""event"",""trial"",""time""
""fullscreenenter"",""5"",""18079""
","
","
","""event"",""trial"",""time""
""fullscreenenter"",""5"",""18079""
","
",NA,NA,NA,NA,NA,NA,NA,NA,NA,NA,NA,NA,NA,NA,NA,NA,NA,NA,NA,NA,NA,NA,sub122
d3-instructions,57,370701,0.0-57.0,FALSE,FALSE,TRUE,TRUE,"""event"",""trial"",""time""
""fullscreenenter"",""5"",""18079""
","
","
","""event"",""trial"",""time""
""fullscreenenter"",""5"",""18079""
","
",NA,NA,NA,NA,NA,NA,NA,NA,NA,NA,NA,NA,NA,NA,NA,NA,NA,NA,NA,NA,NA,NA,sub122
d3-instructions,58,389362,0.0-58.0,FALSE,FALSE,TRUE,TRUE,"""event"",""trial"",""time""
""fullscreenenter"",""5"",""18079""
","
","
","""event"",""trial"",""time""
""fullscreenenter"",""5"",""18079""
","
",NA,NA,NA,NA,NA,NA,NA,NA,NA,NA,NA,NA,NA,NA,NA,NA,NA,NA,NA,NA,NA,NA,sub122
d3-instructions,59,393987,0.0-59.0,FALSE,FALSE,TRUE,TRUE,"""event"",""trial"",""time""
""fullscreenenter"",""5"",""18079""
","
","
","""event"",""trial"",""time""
""fullscreenenter"",""5"",""18079""
","
",NA,NA,NA,NA,NA,NA,NA,NA,NA,NA,NA,NA,NA,NA,NA,NA,NA,NA,NA,NA,NA,NA,sub122
d3-instructions,60,403259,0.0-60.0,FALSE,FALSE,TRUE,TRUE,"""event"",""trial"",""time""
""fullscreenenter"",""5"",""18079""
","
","
","""event"",""trial"",""time""
""fullscreenenter"",""5"",""18079""
","
",NA,NA,NA,NA,NA,NA,NA,NA,NA,NA,NA,NA,NA,NA,NA,NA,NA,NA,NA,NA,NA,NA,sub122
d3-animate-choice,61,406171,0.0-61.0-0.0,FALSE,FALSE,TRUE,TRUE,"""event"",""trial"",""time""
""fullscreenenter"",""5"",""18079""
","
","
","""event"",""trial"",""time""
""fullscreenenter"",""5"",""18079""
","
",902.379999999539,NA,49,NA,NA,3000,1,1299.1999999940163,32,images/earth.jpg,images/tutrocket1,images/tutrocket2,null,images/tutrocket2,NA,1,practice,null,1,NA,NA,NA,sub122
d3-animate-choice,62,409231,0.0-61.0-1.0,FALSE,FALSE,TRUE,TRUE,"""event"",""trial"",""time""
""fullscreenenter"",""5"",""18079""
","
","
","""event"",""trial"",""time""
""fullscreenenter"",""5"",""18079""
","
",1047.6399999897694,NA,49,NA,NA,3000,1,1710.68999999261,32,images/tutgreenplanet.jpg,images/tutalien2,images/tutalien1,images/tutrocket2,images/tutalien1,images/nothing.png,2,practice,true,1,common,0,2020-06-20T19:48:44Z,sub122
two-step-fixation,63,410241,0.0-61.0-2.0,FALSE,FALSE,TRUE,TRUE,"""event"",""trial"",""time""
""fullscreenenter"",""5"",""18079""
","
","
","""event"",""trial"",""time""
""fullscreenenter"",""5"",""18079""
","
",NA,images/earth.jpg,NA,NA,NA,NA,NA,NA,NA,NA,NA,NA,NA,NA,NA,fixation,NA,NA,NA,NA,NA,NA,sub122
d3-animate-choice,64,413047,0.0-61.0-0.1,FALSE,FALSE,TRUE,TRUE,"""event"",""trial"",""time""
""fullscreenenter"",""5"",""18079""
","
","
","""event"",""trial"",""time""
""fullscreenenter"",""5"",""18079""
","
",798.7299999949755,NA,49,NA,NA,3000,1,1039.7249999950873,32,images/earth.jpg,images/tutrocket1,images/tutrocket2,null,images/tutrocket2,NA,1,practice,null,1,NA,NA,NA,sub122
d3-animate-choice,65,415489,0.0-61.0-1.1,FALSE,FALSE,TRUE,TRUE,"""event"",""trial"",""time""
""fullscreenenter"",""5"",""18079""
","
","
","""event"",""trial"",""time""
""fullscreenenter"",""5"",""18079""
","
",435.315000009723,NA,49,NA,NA,3000,1,NA,NA,images/tutgreenplanet.jpg,images/tutalien2,images/tutalien1,images/tutrocket2,images/tutalien1,images/nothing.png,2,practice,true,1,common,0,2020-06-20T19:48:50Z,sub122
two-step-fixation,66,416496,0.0-61.0-2.1,FALSE,FALSE,TRUE,TRUE,"""event"",""trial"",""time""
""fullscreenenter"",""5"",""18079""
","
","
","""event"",""trial"",""time""
""fullscreenenter"",""5"",""18079""
","
",NA,images/earth.jpg,NA,NA,NA,NA,NA,NA,NA,NA,NA,NA,NA,NA,NA,fixation,NA,NA,NA,NA,NA,NA,sub122
d3-animate-choice,67,419330,0.0-61.0-0.2,FALSE,FALSE,TRUE,TRUE,"""event"",""trial"",""time""
""fullscreenenter"",""5"",""18079""
","
","
","""event"",""trial"",""time""
""fullscreenenter"",""5"",""18079""
","
",826.3199999928474,NA,49,NA,NA,3000,1,NA,NA,images/earth.jpg,images/tutrocket1,images/tutrocket2,null,images/tutrocket2,NA,1,practice,null,1,NA,NA,NA,sub122
d3-animate-choice,68,421805,0.0-61.0-1.2,FALSE,FALSE,TRUE,TRUE,"""event"",""trial"",""time""
""fullscreenenter"",""5"",""18079""
","
","
","""event"",""trial"",""time""
""fullscreenenter"",""5"",""18079""
","
",468.15000000060536,NA,48,NA,NA,3000,1,NA,NA,images/tutgreenplanet.jpg,images/tutalien2,images/tutalien1,images/tutrocket2,images/tutalien2,images/nothing.png,2,practice,true,2,common,0,2020-06-20T19:48:56Z,sub122
two-step-fixation,69,422811,0.0-61.0-2.2,FALSE,FALSE,TRUE,TRUE,"""event"",""trial"",""time""
""fullscreenenter"",""5"",""18079""
","
","
","""event"",""trial"",""time""
""fullscreenenter"",""5"",""18079""
","
",NA,images/earth.jpg,NA,NA,NA,NA,NA,NA,NA,NA,NA,NA,NA,NA,NA,fixation,NA,NA,NA,NA,NA,NA,sub122
d3-animate-choice,70,424884,0.0-61.0-0.3,FALSE,FALSE,TRUE,TRUE,"""event"",""trial"",""time""
""fullscreenenter"",""5"",""18079""
","
","
","""event"",""trial"",""time""
""fullscreenenter"",""5"",""18079""
","
",66.980000003241,NA,49,NA,NA,3000,1,NA,NA,images/earth.jpg,images/tutrocket1,images/tutrocket2,null,images/tutrocket2,NA,1,practice,null,1,NA,NA,NA,sub122
d3-animate-choice,71,427255,0.0-61.0-1.3,FALSE,FALSE,TRUE,TRUE,"""event"",""trial"",""time""
""fullscreenenter"",""5"",""18079""
","
","
","""event"",""trial"",""time""
""fullscreenenter"",""5"",""18079""
","
",361.9299999991199,NA,48,NA,NA,3000,1,NA,NA,images/tutgreenplanet.jpg,images/tutalien2,images/tutalien1,images/tutrocket2,images/tutalien2,images/t.png,2,practice,true,2,common,1,2020-06-20T19:49:02Z,sub122
two-step-fixation,72,428261,0.0-61.0-2.3,FALSE,FALSE,TRUE,TRUE,"""event"",""trial"",""time""
""fullscreenenter"",""5"",""18079""
","
","
","""event"",""trial"",""time""
""fullscreenenter"",""5"",""18079""
","
",NA,images/earth.jpg,NA,NA,NA,NA,NA,NA,NA,NA,NA,NA,NA,NA,NA,fixation,NA,NA,NA,NA,NA,NA,sub122
d3-animate-choice,73,430273,0.0-61.0-0.4,FALSE,FALSE,TRUE,TRUE,"""event"",""trial"",""time""
""fullscreenenter"",""5"",""18079""
","
","
","""event"",""trial"",""time""
""fullscreenenter"",""5"",""18079""
","
",4.14999999338761,NA,49,NA,NA,3000,1,NA,NA,images/earth.jpg,images/tutrocket1,images/tutrocket2,null,images/tutrocket2,NA,1,practice,null,1,NA,NA,NA,sub122
d3-animate-choice,74,432557,0.0-61.0-1.4,FALSE,FALSE,TRUE,TRUE,"""event"",""trial"",""time""
""fullscreenenter"",""5"",""18079""
","
","
","""event"",""trial"",""time""
""fullscreenenter"",""5"",""18079""
","
",276.9750000006752,NA,48,NA,NA,3000,1,NA,NA,images/tutgreenplanet.jpg,images/tutalien2,images/tutalien1,images/tutrocket2,images/tutalien2,images/nothing.png,2,practice,true,2,common,0,2020-06-20T19:49:07Z,sub122
two-step-fixation,75,433564,0.0-61.0-2.4,FALSE,FALSE,TRUE,TRUE,"""event"",""trial"",""time""
""fullscreenenter"",""5"",""18079""
","
","
","""event"",""trial"",""time""
""fullscreenenter"",""5"",""18079""
","
",NA,images/earth.jpg,NA,NA,NA,NA,NA,NA,NA,NA,NA,NA,NA,NA,NA,fixation,NA,NA,NA,NA,NA,NA,sub122
d3-animate-choice,76,436026,0.0-61.0-0.5,FALSE,FALSE,TRUE,TRUE,"""event"",""trial"",""time""
""fullscreenenter"",""5"",""18079""
","
","
","""event"",""trial"",""time""
""fullscreenenter"",""5"",""18079""
","
",455.2200000034645,NA,48,NA,NA,3000,1,NA,NA,images/earth.jpg,images/tutrocket1,images/tutrocket2,null,images/tutrocket1,NA,1,practice,null,2,NA,NA,NA,sub122
d3-animate-choice,77,438446,0.0-61.0-1.5,FALSE,FALSE,TRUE,TRUE,"""event"",""trial"",""time""
""fullscreenenter"",""5"",""18079""
","
","
","""event"",""trial"",""time""
""fullscreenenter"",""5"",""18079""
","
",413.08999998727813,NA,49,NA,NA,3000,1,NA,NA,images/tutyellowplanet.jpg,images/tutalien4,images/tutalien3,images/tutrocket1,images/tutalien3,images/nothing.png,2,practice,true,1,common,0,2020-06-20T19:49:13Z,sub122
two-step-fixation,78,439453,0.0-61.0-2.5,FALSE,FALSE,TRUE,TRUE,"""event"",""trial"",""time""
""fullscreenenter"",""5"",""18079""
","
","
","""event"",""trial"",""time""
""fullscreenenter"",""5"",""18079""
","
",NA,images/earth.jpg,NA,NA,NA,NA,NA,NA,NA,NA,NA,NA,NA,NA,NA,fixation,NA,NA,NA,NA,NA,NA,sub122
d3-animate-choice,79,441708,0.0-61.0-0.6,FALSE,FALSE,TRUE,TRUE,"""event"",""trial"",""time""
""fullscreenenter"",""5"",""18079""
","
","
","""event"",""trial"",""time""
""fullscreenenter"",""5"",""18079""
","
",247.19499998900574,NA,48,NA,NA,3000,1,NA,NA,images/earth.jpg,images/tutrocket1,images/tutrocket2,null,images/tutrocket1,NA,1,practice,null,2,NA,NA,NA,sub122
d3-animate-choice,80,444005,0.0-61.0-1.6,FALSE,FALSE,TRUE,TRUE,"""event"",""trial"",""time""
""fullscreenenter"",""5"",""18079""
","
","
","""event"",""trial"",""time""
""fullscreenenter"",""5"",""18079""
","
",291.34500000509433,NA,49,NA,NA,3000,1,NA,NA,images/tutyellowplanet.jpg,images/tutalien4,images/tutalien3,images/tutrocket1,images/tutalien3,images/nothing.png,2,practice,true,1,common,0,2020-06-20T19:49:18Z,sub122
two-step-fixation,81,445011,0.0-61.0-2.6,FALSE,FALSE,TRUE,TRUE,"""event"",""trial"",""time""
""fullscreenenter"",""5"",""18079""
","
","
","""event"",""trial"",""time""
""fullscreenenter"",""5"",""18079""
","
",NA,images/earth.jpg,NA,NA,NA,NA,NA,NA,NA,NA,NA,NA,NA,NA,NA,fixation,NA,NA,NA,NA,NA,NA,sub122
d3-animate-choice,82,447227,0.0-61.0-0.7,FALSE,FALSE,TRUE,TRUE,"""event"",""trial"",""time""
""fullscreenenter"",""5"",""18079""
","
","
","""event"",""trial"",""time""
""fullscreenenter"",""5"",""18079""
","
",208.85999999882188,NA,48,NA,NA,3000,1,NA,NA,images/earth.jpg,images/tutrocket1,images/tutrocket2,null,images/tutrocket1,NA,1,practice,null,2,NA,NA,NA,sub122
d3-animate-choice,83,449452,0.0-61.0-1.7,FALSE,FALSE,TRUE,TRUE,"""event"",""trial"",""time""
""fullscreenenter"",""5"",""18079""
","
","
","""event"",""trial"",""time""
""fullscreenenter"",""5"",""18079""
","
",219.1200000088429,NA,48,NA,NA,3000,1,NA,NA,images/tutgreenplanet.jpg,images/tutalien2,images/tutalien1,images/tutrocket1,images/tutalien2,images/t.png,2,practice,false,2,rare,1,2020-06-20T19:49:24Z,sub122
two-step-fixation,84,450459,0.0-61.0-2.7,FALSE,FALSE,TRUE,TRUE,"""event"",""trial"",""time""
""fullscreenenter"",""5"",""18079""
","
","
","""event"",""trial"",""time""
""fullscreenenter"",""5"",""18079""
","
",NA,images/earth.jpg,NA,NA,NA,NA,NA,NA,NA,NA,NA,NA,NA,NA,NA,fixation,NA,NA,NA,NA,NA,NA,sub122
d3-animate-choice,85,452703,0.0-61.0-0.8,FALSE,FALSE,TRUE,TRUE,"""event"",""trial"",""time""
""fullscreenenter"",""5"",""18079""
","
","
","""event"",""trial"",""time""
""fullscreenenter"",""5"",""18079""
","
",236.38499999651685,NA,48,NA,NA,3000,1,NA,NA,images/earth.jpg,images/tutrocket1,images/tutrocket2,null,images/tutrocket1,NA,1,practice,null,2,NA,NA,NA,sub122
d3-animate-choice,86,455207,0.0-61.0-1.8,FALSE,FALSE,TRUE,TRUE,"""event"",""trial"",""time""
""fullscreenenter"",""5"",""18079""
","
","
","""event"",""trial"",""time""
""fullscreenenter"",""5"",""18079""
","
",498.4799999947427,NA,48,NA,NA,3000,1,NA,NA,images/tutgreenplanet.jpg,images/tutalien2,images/tutalien1,images/tutrocket1,images/tutalien2,images/nothing.png,2,practice,false,2,rare,0,2020-06-20T19:49:30Z,sub122
two-step-fixation,87,456209,0.0-61.0-2.8,FALSE,FALSE,TRUE,TRUE,"""event"",""trial"",""time""
""fullscreenenter"",""5"",""18079""
","
","
","""event"",""trial"",""time""
""fullscreenenter"",""5"",""18079""
","
",NA,images/earth.jpg,NA,NA,NA,NA,NA,NA,NA,NA,NA,NA,NA,NA,NA,fixation,NA,NA,NA,NA,NA,NA,sub122
d3-animate-choice,88,458492,0.0-61.0-0.9,FALSE,FALSE,TRUE,TRUE,"""event"",""trial"",""time""
""fullscreenenter"",""5"",""18079""
","
","
","""event"",""trial"",""time""
""fullscreenenter"",""5"",""18079""
","
",275.96499999344815,NA,48,NA,NA,3000,1,NA,NA,images/earth.jpg,images/tutrocket1,images/tutrocket2,null,images/tutrocket1,NA,1,practice,null,2,NA,NA,NA,sub122
d3-animate-choice,89,461322,0.0-61.0-1.9,FALSE,FALSE,TRUE,TRUE,"""event"",""trial"",""time""
""fullscreenenter"",""5"",""18079""
","
","
","""event"",""trial"",""time""
""fullscreenenter"",""5"",""18079""
","
",821.7900000017835,NA,49,NA,NA,3000,1,NA,NA,images/tutgreenplanet.jpg,images/tutalien2,images/tutalien1,images/tutrocket1,images/tutalien1,images/nothing.png,2,practice,false,1,rare,0,2020-06-20T19:49:36Z,sub122
two-step-fixation,90,462328,0.0-61.0-2.9,FALSE,FALSE,TRUE,TRUE,"""event"",""trial"",""time""
""fullscreenenter"",""5"",""18079""
","
","
","""event"",""trial"",""time""
""fullscreenenter"",""5"",""18079""
","
",NA,images/earth.jpg,NA,NA,NA,NA,NA,NA,NA,NA,NA,NA,NA,NA,NA,fixation,NA,NA,NA,NA,NA,NA,sub122
d3-animate-choice,91,464749,0.0-61.0-0.10,FALSE,FALSE,TRUE,TRUE,"""event"",""trial"",""time""
""fullscreenenter"",""5"",""18079""
","
","
","""event"",""trial"",""time""
""fullscreenenter"",""5"",""18079""
","
",414.1899999958696,NA,49,NA,NA,3000,1,NA,NA,images/earth.jpg,images/tutrocket1,images/tutrocket2,null,images/tutrocket2,NA,1,practice,null,1,NA,NA,NA,sub122
d3-animate-choice,92,467628,0.0-61.0-1.10,FALSE,FALSE,TRUE,TRUE,"""event"",""trial"",""time""
""fullscreenenter"",""5"",""18079""
","
","
","""event"",""trial"",""time""
""fullscreenenter"",""5"",""18079""
","
",871.8700000026729,NA,49,NA,NA,3000,1,NA,NA,images/tutgreenplanet.jpg,images/tutalien2,images/tutalien1,images/tutrocket2,images/tutalien1,images/t.png,2,practice,true,1,common,1,2020-06-20T19:49:42Z,sub122
two-step-fixation,93,468635,0.0-61.0-2.10,FALSE,FALSE,TRUE,TRUE,"""event"",""trial"",""time""
""fullscreenenter"",""5"",""18079""
","
","
","""event"",""trial"",""time""
""fullscreenenter"",""5"",""18079""
","
",NA,images/earth.jpg,NA,NA,NA,NA,NA,NA,NA,NA,NA,NA,NA,NA,NA,fixation,NA,NA,NA,NA,NA,NA,sub122
d3-animate-choice,94,471092,0.0-61.0-0.11,FALSE,FALSE,TRUE,TRUE,"""event"",""trial"",""time""
""fullscreenenter"",""5"",""18079""
","
","
","""event"",""trial"",""time""
""fullscreenenter"",""5"",""18079""
","
",449.5849999948405,NA,48,NA,NA,3000,1,NA,NA,images/earth.jpg,images/tutrocket1,images/tutrocket2,null,images/tutrocket1,NA,1,practice,null,2,NA,NA,NA,sub122
d3-animate-choice,95,474006,0.0-61.0-1.11,FALSE,FALSE,TRUE,TRUE,"""event"",""trial"",""time""
""fullscreenenter"",""5"",""18079""
","
","
","""event"",""trial"",""time""
""fullscreenenter"",""5"",""18079""
","
",906.8199999892386,NA,49,NA,NA,3000,1,NA,NA,images/tutgreenplanet.jpg,images/tutalien2,images/tutalien1,images/tutrocket1,images/tutalien1,images/nothing.png,2,practice,false,1,rare,0,2020-06-20T19:49:48Z,sub122
two-step-fixation,96,475012,0.0-61.0-2.11,FALSE,FALSE,TRUE,TRUE,"""event"",""trial"",""time""
""fullscreenenter"",""5"",""18079""
","
","
","""event"",""trial"",""time""
""fullscreenenter"",""5"",""18079""
","
",NA,images/earth.jpg,NA,NA,NA,NA,NA,NA,NA,NA,NA,NA,NA,NA,NA,fixation,NA,NA,NA,NA,NA,NA,sub122
d3-animate-choice,97,477315,0.0-61.0-0.12,FALSE,FALSE,TRUE,TRUE,"""event"",""trial"",""time""
""fullscreenenter"",""5"",""18079""
","
","
","""event"",""trial"",""time""
""fullscreenenter"",""5"",""18079""
","
",296.75000000861473,NA,49,NA,NA,3000,1,NA,NA,images/earth.jpg,images/tutrocket1,images/tutrocket2,null,images/tutrocket2,NA,1,practice,null,1,NA,NA,NA,sub122
d3-animate-choice,98,480123,0.0-61.0-1.12,FALSE,FALSE,TRUE,TRUE,"""event"",""trial"",""time""
""fullscreenenter"",""5"",""18079""
","
","
","""event"",""trial"",""time""
""fullscreenenter"",""5"",""18079""
","
",798.8850000110688,NA,48,NA,NA,3000,1,NA,NA,images/tutyellowplanet.jpg,images/tutalien4,images/tutalien3,images/tutrocket2,images/tutalien4,images/nothing.png,2,practice,false,2,rare,0,2020-06-20T19:49:54Z,sub122
two-step-fixation,99,481131,0.0-61.0-2.12,FALSE,FALSE,TRUE,TRUE,"""event"",""trial"",""time""
""fullscreenenter"",""5"",""18079""
","
","
","""event"",""trial"",""time""
""fullscreenenter"",""5"",""18079""
","
",NA,images/earth.jpg,NA,NA,NA,NA,NA,NA,NA,NA,NA,NA,NA,NA,NA,fixation,NA,NA,NA,NA,NA,NA,sub122
d3-animate-choice,100,483410,0.0-61.0-0.13,FALSE,FALSE,TRUE,TRUE,"""event"",""trial"",""time""
""fullscreenenter"",""5"",""18079""
","
","
","""event"",""trial"",""time""
""fullscreenenter"",""5"",""18079""
","
",272.7100000047358,NA,49,NA,NA,3000,1,NA,NA,images/earth.jpg,images/tutrocket1,images/tutrocket2,null,images/tutrocket2,NA,1,practice,null,1,NA,NA,NA,sub122
d3-animate-choice,101,485780,0.0-61.0-1.13,FALSE,FALSE,TRUE,TRUE,"""event"",""trial"",""time""
""fullscreenenter"",""5"",""18079""
","
","
","""event"",""trial"",""time""
""fullscreenenter"",""5"",""18079""
","
",363.71999999391846,NA,48,NA,NA,3000,1,NA,NA,images/tutyellowplanet.jpg,images/tutalien4,images/tutalien3,images/tutrocket2,images/tutalien4,images/t.png,2,practice,false,2,rare,1,2020-06-20T19:50:00Z,sub122
two-step-fixation,102,486787,0.0-61.0-2.13,FALSE,FALSE,TRUE,TRUE,"""event"",""trial"",""time""
""fullscreenenter"",""5"",""18079""
","
","
","""event"",""trial"",""time""
""fullscreenenter"",""5"",""18079""
","
",NA,images/earth.jpg,NA,NA,NA,NA,NA,NA,NA,NA,NA,NA,NA,NA,NA,fixation,NA,NA,NA,NA,NA,NA,sub122
d3-animate-choice,103,489111,0.0-61.0-0.14,FALSE,FALSE,TRUE,TRUE,"""event"",""trial"",""time""
""fullscreenenter"",""5"",""18079""
","
","
","""event"",""trial"",""time""
""fullscreenenter"",""5"",""18079""
","
",317.85999999556225,NA,49,NA,NA,3000,1,NA,NA,images/earth.jpg,images/tutrocket1,images/tutrocket2,null,images/tutrocket2,NA,1,practice,null,1,NA,NA,NA,sub122
d3-animate-choice,104,491731,0.0-61.0-1.14,FALSE,FALSE,TRUE,TRUE,"""event"",""trial"",""time""
""fullscreenenter"",""5"",""18079""
","
","
","""event"",""trial"",""time""
""fullscreenenter"",""5"",""18079""
","
",613.1700000114506,NA,48,NA,NA,3000,1,NA,NA,images/tutyellowplanet.jpg,images/tutalien4,images/tutalien3,images/tutrocket2,images/tutalien4,images/t.png,2,practice,false,2,rare,1,2020-06-20T19:50:06Z,sub122
two-step-fixation,105,492738,0.0-61.0-2.14,FALSE,FALSE,TRUE,TRUE,"""event"",""trial"",""time""
""fullscreenenter"",""5"",""18079""
","
","
","""event"",""trial"",""time""
""fullscreenenter"",""5"",""18079""
","
",NA,images/earth.jpg,NA,NA,NA,NA,NA,NA,NA,NA,NA,NA,NA,NA,NA,fixation,NA,NA,NA,NA,NA,NA,sub122
d3-animate-choice,106,495016,0.0-61.0-0.15,FALSE,FALSE,TRUE,TRUE,"""event"",""trial"",""time""
""fullscreenenter"",""5"",""18079""
","
","
","""event"",""trial"",""time""
""fullscreenenter"",""5"",""18079""
","
",272.7850000082981,NA,49,NA,NA,3000,1,NA,NA,images/earth.jpg,images/tutrocket1,images/tutrocket2,null,images/tutrocket2,NA,1,practice,null,1,NA,NA,NA,sub122
d3-animate-choice,107,497634,0.0-61.0-1.15,FALSE,FALSE,TRUE,TRUE,"""event"",""trial"",""time""
""fullscreenenter"",""5"",""18079""
","
","
","""event"",""trial"",""time""
""fullscreenenter"",""5"",""18079""
","
",611.2299999949755,NA,48,NA,NA,3000,1,NA,NA,images/tutyellowplanet.jpg,images/tutalien4,images/tutalien3,images/tutrocket2,images/tutalien4,images/t.png,2,practice,false,2,rare,1,2020-06-20T19:50:12Z,sub122
two-step-fixation,108,498641,0.0-61.0-2.15,FALSE,FALSE,TRUE,TRUE,"""event"",""trial"",""time""
""fullscreenenter"",""5"",""18079""
","
","
","""event"",""trial"",""time""
""fullscreenenter"",""5"",""18079""
","
",NA,images/earth.jpg,NA,NA,NA,NA,NA,NA,NA,NA,NA,NA,NA,NA,NA,fixation,NA,NA,NA,NA,NA,NA,sub122
d3-animate-choice,109,500906,0.0-61.0-0.16,FALSE,FALSE,TRUE,TRUE,"""event"",""trial"",""time""
""fullscreenenter"",""5"",""18079""
","
","
","""event"",""trial"",""time""
""fullscreenenter"",""5"",""18079""
","
",258.2399999955669,NA,49,NA,NA,3000,1,NA,NA,images/earth.jpg,images/tutrocket1,images/tutrocket2,null,images/tutrocket2,NA,1,practice,null,1,NA,NA,NA,sub122
d3-animate-choice,110,503214,0.0-61.0-1.16,FALSE,FALSE,TRUE,TRUE,"""event"",""trial"",""time""
""fullscreenenter"",""5"",""18079""
","
","
","""event"",""trial"",""time""
""fullscreenenter"",""5"",""18079""
","
",301.32499999308493,NA,48,NA,NA,3000,1,NA,NA,images/tutgreenplanet.jpg,images/tutalien2,images/tutalien1,images/tutrocket2,images/tutalien2,images/t.png,2,practice,true,2,common,1,2020-06-20T19:50:18Z,sub122
two-step-fixation,111,504221,0.0-61.0-2.16,FALSE,FALSE,TRUE,TRUE,"""event"",""trial"",""time""
""fullscreenenter"",""5"",""18079""
","
","
","""event"",""trial"",""time""
""fullscreenenter"",""5"",""18079""
","
",NA,images/earth.jpg,NA,NA,NA,NA,NA,NA,NA,NA,NA,NA,NA,NA,NA,fixation,NA,NA,NA,NA,NA,NA,sub122
d3-animate-choice,112,506506,0.0-61.0-0.17,FALSE,FALSE,TRUE,TRUE,"""event"",""trial"",""time""
""fullscreenenter"",""5"",""18079""
","
","
","""event"",""trial"",""time""
""fullscreenenter"",""5"",""18079""
","
",278.05500000249594,NA,49,NA,NA,3000,1,NA,NA,images/earth.jpg,images/tutrocket1,images/tutrocket2,null,images/tutrocket2,NA,1,practice,null,1,NA,NA,NA,sub122
d3-animate-choice,113,508784,0.0-61.0-1.17,FALSE,FALSE,TRUE,TRUE,"""event"",""trial"",""time""
""fullscreenenter"",""5"",""18079""
","
","
","""event"",""trial"",""time""
""fullscreenenter"",""5"",""18079""
","
",271.33499999763444,NA,48,NA,NA,3000,1,NA,NA,images/tutyellowplanet.jpg,images/tutalien4,images/tutalien3,images/tutrocket2,images/tutalien4,images/t.png,2,practice,false,2,rare,1,2020-06-20T19:50:23Z,sub122
two-step-fixation,114,509791,0.0-61.0-2.17,FALSE,FALSE,TRUE,TRUE,"""event"",""trial"",""time""
""fullscreenenter"",""5"",""18079""
","
","
","""event"",""trial"",""time""
""fullscreenenter"",""5"",""18079""
","
",NA,images/earth.jpg,NA,NA,NA,NA,NA,NA,NA,NA,NA,NA,NA,NA,NA,fixation,NA,NA,NA,NA,NA,NA,sub122
d3-animate-choice,115,512052,0.0-61.0-0.18,FALSE,FALSE,TRUE,TRUE,"""event"",""trial"",""time""
""fullscreenenter"",""5"",""18079""
","
","
","""event"",""trial"",""time""
""fullscreenenter"",""5"",""18079""
","
",252.80999999085907,NA,49,NA,NA,3000,1,NA,NA,images/earth.jpg,images/tutrocket1,images/tutrocket2,null,images/tutrocket2,NA,1,practice,null,1,NA,NA,NA,sub122
d3-animate-choice,116,514299,0.0-61.0-1.18,FALSE,FALSE,TRUE,TRUE,"""event"",""trial"",""time""
""fullscreenenter"",""5"",""18079""
","
","
","""event"",""trial"",""time""
""fullscreenenter"",""5"",""18079""
","
",241.3549999910174,NA,48,NA,NA,3000,1,NA,NA,images/tutgreenplanet.jpg,images/tutalien2,images/tutalien1,images/tutrocket2,images/tutalien2,images/nothing.png,2,practice,true,2,common,0,2020-06-20T19:50:29Z,sub122
two-step-fixation,117,515305,0.0-61.0-2.18,FALSE,FALSE,TRUE,TRUE,"""event"",""trial"",""time""
""fullscreenenter"",""5"",""18079""
","
","
","""event"",""trial"",""time""
""fullscreenenter"",""5"",""18079""
","
",NA,images/earth.jpg,NA,NA,NA,NA,NA,NA,NA,NA,NA,NA,NA,NA,NA,fixation,NA,NA,NA,NA,NA,NA,sub122
d3-animate-choice,118,517671,0.0-61.0-0.19,FALSE,FALSE,TRUE,TRUE,"""event"",""trial"",""time""
""fullscreenenter"",""5"",""18079""
","
","
","""event"",""trial"",""time""
""fullscreenenter"",""5"",""18079""
","
",359.01000000012573,NA,49,NA,NA,3000,1,NA,NA,images/earth.jpg,images/tutrocket1,images/tutrocket2,null,images/tutrocket2,NA,1,practice,null,1,NA,NA,NA,sub122
d3-animate-choice,119,520097,0.0-61.0-1.19,FALSE,FALSE,TRUE,TRUE,"""event"",""trial"",""time""
""fullscreenenter"",""5"",""18079""
","
","
","""event"",""trial"",""time""
""fullscreenenter"",""5"",""18079""
","
",419.225000005099,NA,48,NA,NA,3000,1,NA,NA,images/tutgreenplanet.jpg,images/tutalien2,images/tutalien1,images/tutrocket2,images/tutalien2,images/t.png,2,practice,true,2,common,1,2020-06-20T19:50:34Z,sub122
two-step-fixation,120,521104,0.0-61.0-2.19,FALSE,FALSE,TRUE,TRUE,"""event"",""trial"",""time""
""fullscreenenter"",""5"",""18079""
","
","
","""event"",""trial"",""time""
""fullscreenenter"",""5"",""18079""
","
",NA,images/earth.jpg,NA,NA,NA,NA,NA,NA,NA,NA,NA,NA,NA,NA,NA,fixation,NA,NA,NA,NA,NA,NA,sub122
d3-instructions,121,526203,0.0-62.0,FALSE,FALSE,TRUE,TRUE,"""event"",""trial"",""time""
""fullscreenenter"",""5"",""18079""
","
","
","""event"",""trial"",""time""
""fullscreenenter"",""5"",""18079""
","
",NA,NA,NA,NA,NA,NA,NA,NA,NA,NA,NA,NA,NA,NA,NA,NA,NA,NA,NA,NA,NA,NA,sub122
audio-keyboard-response,122,531122,0.0-63.0,FALSE,FALSE,TRUE,TRUE,"""event"",""trial"",""time""
""fullscreenenter"",""5"",""18079""
","
","
","""event"",""trial"",""time""
""fullscreenenter"",""5"",""18079""
","
",4920,audio/instructions/treasure_feedback.wav,32,NA,NA,NA,NA,NA,NA,NA,NA,NA,NA,NA,NA,NA,NA,NA,NA,NA,NA,NA,sub122
d3-instructions,123,551091,0.0-64.0,FALSE,FALSE,TRUE,TRUE,"""event"",""trial"",""time""
""fullscreenenter"",""5"",""18079""
","
","
","""event"",""trial"",""time""
""fullscreenenter"",""5"",""18079""
","
",NA,NA,NA,NA,NA,NA,NA,NA,NA,NA,NA,NA,NA,NA,NA,NA,NA,NA,NA,NA,NA,NA,sub122
d3-instructions,124,566936,0.0-65.0,FALSE,FALSE,TRUE,TRUE,"""event"",""trial"",""time""
""fullscreenenter"",""5"",""18079""
","
","
","""event"",""trial"",""time""
""fullscreenenter"",""5"",""18079""
","
",NA,NA,NA,NA,NA,NA,NA,NA,NA,NA,NA,NA,NA,NA,NA,NA,NA,NA,NA,NA,NA,NA,sub122
d3-instructions,125,592651,0.0-66.0,FALSE,FALSE,TRUE,TRUE,"""event"",""trial"",""time""
""fullscreenenter"",""5"",""18079""
","
","
","""event"",""trial"",""time""
""fullscreenenter"",""5"",""18079""
","
",NA,NA,NA,NA,NA,NA,NA,NA,NA,NA,NA,NA,NA,NA,NA,NA,NA,NA,NA,NA,NA,NA,sub122
d3-instructions,126,609919,0.0-67.0,FALSE,FALSE,TRUE,TRUE,"""event"",""trial"",""time""
""fullscreenenter"",""5"",""18079""
","
","
","""event"",""trial"",""time""
""fullscreenenter"",""5"",""18079""
","
",NA,NA,NA,NA,NA,NA,NA,NA,NA,NA,NA,NA,NA,NA,NA,NA,NA,NA,NA,NA,NA,NA,sub122
d3-instructions,127,615693,0.0-68.0,FALSE,FALSE,TRUE,TRUE,"""event"",""trial"",""time""
""fullscreenenter"",""5"",""18079""
","
","
","""event"",""trial"",""time""
""fullscreenenter"",""5"",""18079""
","
",NA,NA,NA,NA,NA,NA,NA,NA,NA,NA,NA,NA,NA,NA,NA,NA,NA,NA,NA,NA,NA,NA,sub122
instructions-quiz,128,621236,0.0-69.0,FALSE,FALSE,TRUE,TRUE,"""event"",""trial"",""time""
""fullscreenenter"",""5"",""18079""
","
","
","""event"",""trial"",""time""
""fullscreenenter"",""5"",""18079""
","
",5540.7800000102725,audio/quiz/Q1_Prompt.wav,NA,1,NA,NA,NA,NA,NA,NA,NA,NA,NA,NA,NA,NA,NA,NA,NA,NA,NA,NA,sub122
audio-keyboard-response,129,630407,0.0-70.0,FALSE,FALSE,TRUE,TRUE,"""event"",""trial"",""time""
""fullscreenenter"",""5"",""18079""
","
","
","""event"",""trial"",""time""
""fullscreenenter"",""5"",""18079""
","
",null,audio/quiz/Q1_Correct.wav,null,NA,NA,NA,NA,NA,NA,NA,NA,NA,NA,NA,NA,NA,NA,NA,NA,NA,NA,NA,sub122
instructions-quiz,130,639236,0.0-71.0,FALSE,FALSE,TRUE,TRUE,"""event"",""trial"",""time""
""fullscreenenter"",""5"",""18079""
","
","
","""event"",""trial"",""time""
""fullscreenenter"",""5"",""18079""
","
",8827.465000009397,audio/quiz/Q2_Prompt.wav,NA,0,NA,NA,NA,NA,NA,NA,NA,NA,NA,NA,NA,NA,NA,NA,NA,NA,NA,NA,sub122
audio-keyboard-response,131,652108,0.0-72.0,FALSE,FALSE,TRUE,TRUE,"""event"",""trial"",""time""
""fullscreenenter"",""5"",""18079""
","
","
","""event"",""trial"",""time""
""fullscreenenter"",""5"",""18079""
","
",null,audio/quiz/Q2_Correct.wav,null,NA,NA,NA,NA,NA,NA,NA,NA,NA,NA,NA,NA,NA,NA,NA,NA,NA,NA,NA,sub122
instructions-quiz,132,656021,0.0-73.0,FALSE,FALSE,TRUE,TRUE,"""event"",""trial"",""time""
""fullscreenenter"",""5"",""18079""
","
","
","""event"",""trial"",""time""
""fullscreenenter"",""5"",""18079""
","
",3911.419999989448,audio/quiz/Q3_Prompt.wav,NA,1,NA,NA,NA,NA,NA,NA,NA,NA,NA,NA,NA,NA,NA,NA,NA,NA,NA,NA,sub122
audio-keyboard-response,133,661817,0.0-74.0,FALSE,FALSE,TRUE,TRUE,"""event"",""trial"",""time""
""fullscreenenter"",""5"",""18079""
","
","
","""event"",""trial"",""time""
""fullscreenenter"",""5"",""18079""
","
",null,audio/quiz/Q3_Correct.wav,null,NA,NA,NA,NA,NA,NA,NA,NA,NA,NA,NA,NA,NA,NA,NA,NA,NA,NA,NA,sub122
d3-instructions,134,674977,0.0-75.0,FALSE,FALSE,TRUE,TRUE,"""event"",""trial"",""time""
""fullscreenenter"",""5"",""18079""
","
","
","""event"",""trial"",""time""
""fullscreenenter"",""5"",""18079""
","
",NA,NA,NA,NA,NA,NA,NA,NA,NA,NA,NA,NA,NA,NA,NA,NA,NA,NA,NA,NA,NA,NA,sub122
d3-animate-choice,135,678255,0.0-76.0-0.0,FALSE,FALSE,TRUE,TRUE,"""event"",""trial"",""time""
""fullscreenenter"",""5"",""18079""
","
","
","""event"",""trial"",""time""
""fullscreenenter"",""5"",""18079""
","
",1270.5900000000838,NA,48,NA,NA,3000,1,1417.6299999962794,32,images/earth.jpg,images/rocket1,images/rocket2,null,images/rocket1,NA,1,real,null,2,NA,NA,NA,sub122
d3-animate-choice,136,680724,0.0-76.0-1.0,FALSE,FALSE,TRUE,TRUE,"""event"",""trial"",""time""
""fullscreenenter"",""5"",""18079""
","
","
","""event"",""trial"",""time""
""fullscreenenter"",""5"",""18079""
","
",462.0649999997113,NA,48,NA,NA,3000,1,NA,NA,images/purpleplanet.jpg,images/alien4,images/alien3,images/rocket1,images/alien4,images/nothing.png,2,real,true,2,common,0,2020-06-20T19:53:15Z,sub122
two-step-fixation,137,681731,0.0-76.0-2.0,FALSE,FALSE,TRUE,TRUE,"""event"",""trial"",""time""
""fullscreenenter"",""5"",""18079""
","
","
","""event"",""trial"",""time""
""fullscreenenter"",""5"",""18079""
","
",NA,images/earth.jpg,NA,NA,NA,NA,NA,NA,NA,NA,NA,NA,NA,NA,NA,fixation,NA,NA,NA,NA,NA,NA,sub122
d3-animate-choice,138,684055,0.0-76.0-0.1,FALSE,FALSE,TRUE,TRUE,"""event"",""trial"",""time""
""fullscreenenter"",""5"",""18079""
","
","
","""event"",""trial"",""time""
""fullscreenenter"",""5"",""18079""
","
",317.0700000046054,NA,48,NA,NA,3000,1,NA,NA,images/earth.jpg,images/rocket1,images/rocket2,null,images/rocket1,NA,1,real,null,2,NA,NA,NA,sub122
d3-animate-choice,139,686385,0.0-76.0-1.1,FALSE,FALSE,TRUE,TRUE,"""event"",""trial"",""time""
""fullscreenenter"",""5"",""18079""
","
","
","""event"",""trial"",""time""
""fullscreenenter"",""5"",""18079""
","
",323.2399999978952,NA,48,NA,NA,3000,1,NA,NA,images/purpleplanet.jpg,images/alien4,images/alien3,images/rocket1,images/alien4,images/t.png,2,real,true,2,common,1,2020-06-20T19:53:21Z,sub122
two-step-fixation,140,687392,0.0-76.0-2.1,FALSE,FALSE,TRUE,TRUE,"""event"",""trial"",""time""
""fullscreenenter"",""5"",""18079""
","
","
","""event"",""trial"",""time""
""fullscreenenter"",""5"",""18079""
","
",NA,images/earth.jpg,NA,NA,NA,NA,NA,NA,NA,NA,NA,NA,NA,NA,NA,fixation,NA,NA,NA,NA,NA,NA,sub122
d3-animate-choice,141,689640,0.0-76.0-0.2,FALSE,FALSE,TRUE,TRUE,"""event"",""trial"",""time""
""fullscreenenter"",""5"",""18079""
","
","
","""event"",""trial"",""time""
""fullscreenenter"",""5"",""18079""
","
",239.64999998861458,NA,48,NA,NA,3000,1,NA,NA,images/earth.jpg,images/rocket1,images/rocket2,null,images/rocket1,NA,1,real,null,2,NA,NA,NA,sub122
d3-animate-choice,142,691919,0.0-76.0-1.2,FALSE,FALSE,TRUE,TRUE,"""event"",""trial"",""time""
""fullscreenenter"",""5"",""18079""
","
","
","""event"",""trial"",""time""
""fullscreenenter"",""5"",""18079""
","
",272.5700000009965,NA,48,NA,NA,3000,1,NA,NA,images/redplanet1.jpg,images/alien2,images/alien1,images/rocket1,images/alien2,images/t.png,2,real,false,2,rare,1,2020-06-20T19:53:26Z,sub122
two-step-fixation,143,692926,0.0-76.0-2.2,FALSE,FALSE,TRUE,TRUE,"""event"",""trial"",""time""
""fullscreenenter"",""5"",""18079""
","
","
","""event"",""trial"",""time""
""fullscreenenter"",""5"",""18079""
","
",NA,images/earth.jpg,NA,NA,NA,NA,NA,NA,NA,NA,NA,NA,NA,NA,NA,fixation,NA,NA,NA,NA,NA,NA,sub122
d3-animate-choice,144,695186,0.0-76.0-0.3,FALSE,FALSE,TRUE,TRUE,"""event"",""trial"",""time""
""fullscreenenter"",""5"",""18079""
","
","
","""event"",""trial"",""time""
""fullscreenenter"",""5"",""18079""
","
",254.4250000064494,NA,48,NA,NA,3000,1,NA,NA,images/earth.jpg,images/rocket1,images/rocket2,null,images/rocket1,NA,1,real,null,2,NA,NA,NA,sub122
d3-animate-choice,145,697644,0.0-76.0-1.3,FALSE,FALSE,TRUE,TRUE,"""event"",""trial"",""time""
""fullscreenenter"",""5"",""18079""
","
","
","""event"",""trial"",""time""
""fullscreenenter"",""5"",""18079""
","
",451.8700000044191,NA,48,NA,NA,3000,1,NA,NA,images/redplanet1.jpg,images/alien2,images/alien1,images/rocket1,images/alien2,images/nothing.png,2,real,false,2,rare,0,2020-06-20T19:53:32Z,sub122
two-step-fixation,146,698651,0.0-76.0-2.3,FALSE,FALSE,TRUE,TRUE,"""event"",""trial"",""time""
""fullscreenenter"",""5"",""18079""
","
","
","""event"",""trial"",""time""
""fullscreenenter"",""5"",""18079""
","
",NA,images/earth.jpg,NA,NA,NA,NA,NA,NA,NA,NA,NA,NA,NA,NA,NA,fixation,NA,NA,NA,NA,NA,NA,sub122
d3-animate-choice,147,700914,0.0-76.0-0.4,FALSE,FALSE,TRUE,TRUE,"""event"",""trial"",""time""
""fullscreenenter"",""5"",""18079""
","
","
","""event"",""trial"",""time""
""fullscreenenter"",""5"",""18079""
","
",255.1099999982398,NA,48,NA,NA,3000,1,NA,NA,images/earth.jpg,images/rocket1,images/rocket2,null,images/rocket1,NA,1,real,null,2,NA,NA,NA,sub122
d3-animate-choice,148,703746,0.0-76.0-1.4,FALSE,FALSE,TRUE,TRUE,"""event"",""trial"",""time""
""fullscreenenter"",""5"",""18079""
","
","
","""event"",""trial"",""time""
""fullscreenenter"",""5"",""18079""
","
",825.9149999939837,NA,49,NA,NA,3000,1,NA,NA,images/purpleplanet.jpg,images/alien4,images/alien3,images/rocket1,images/alien3,images/nothing.png,2,real,true,1,common,0,2020-06-20T19:53:38Z,sub122
two-step-fixation,149,704753,0.0-76.0-2.4,FALSE,FALSE,TRUE,TRUE,"""event"",""trial"",""time""
""fullscreenenter"",""5"",""18079""
","
","
","""event"",""trial"",""time""
""fullscreenenter"",""5"",""18079""
","
",NA,images/earth.jpg,NA,NA,NA,NA,NA,NA,NA,NA,NA,NA,NA,NA,NA,fixation,NA,NA,NA,NA,NA,NA,sub122
d3-animate-choice,150,707024,0.0-76.0-0.5,FALSE,FALSE,TRUE,TRUE,"""event"",""trial"",""time""
""fullscreenenter"",""5"",""18079""
","
","
","""event"",""trial"",""time""
""fullscreenenter"",""5"",""18079""
","
",263.61499998893123,NA,48,NA,NA,3000,1,NA,NA,images/earth.jpg,images/rocket1,images/rocket2,null,images/rocket1,NA,1,real,null,2,NA,NA,NA,sub122
d3-animate-choice,151,709724,0.0-76.0-1.5,FALSE,FALSE,TRUE,TRUE,"""event"",""trial"",""time""
""fullscreenenter"",""5"",""18079""
","
","
","""event"",""trial"",""time""
""fullscreenenter"",""5"",""18079""
","
",693.2349999988219,NA,48,NA,NA,3000,1,NA,NA,images/purpleplanet.jpg,images/alien4,images/alien3,images/rocket1,images/alien4,images/t.png,2,real,true,2,common,1,2020-06-20T19:53:44Z,sub122
two-step-fixation,152,710731,0.0-76.0-2.5,FALSE,FALSE,TRUE,TRUE,"""event"",""trial"",""time""
""fullscreenenter"",""5"",""18079""
","
","
","""event"",""trial"",""time""
""fullscreenenter"",""5"",""18079""
","
",NA,images/earth.jpg,NA,NA,NA,NA,NA,NA,NA,NA,NA,NA,NA,NA,NA,fixation,NA,NA,NA,NA,NA,NA,sub122
d3-animate-choice,153,713143,0.0-76.0-0.6,FALSE,FALSE,TRUE,TRUE,"""event"",""trial"",""time""
""fullscreenenter"",""5"",""18079""
","
","
","""event"",""trial"",""time""
""fullscreenenter"",""5"",""18079""
","
",405.68500000517815,NA,48,NA,NA,3000,1,NA,NA,images/earth.jpg,images/rocket1,images/rocket2,null,images/rocket1,NA,1,real,null,2,NA,NA,NA,sub122
d3-animate-choice,154,716015,0.0-76.0-1.6,FALSE,FALSE,TRUE,TRUE,"""event"",""trial"",""time""
""fullscreenenter"",""5"",""18079""
","
","
","""event"",""trial"",""time""
""fullscreenenter"",""5"",""18079""
","
",864.9449999938952,NA,48,NA,NA,3000,1,NA,NA,images/purpleplanet.jpg,images/alien4,images/alien3,images/rocket1,images/alien4,images/t.png,2,real,true,2,common,1,2020-06-20T19:53:50Z,sub122
two-step-fixation,155,717022,0.0-76.0-2.6,FALSE,FALSE,TRUE,TRUE,"""event"",""trial"",""time""
""fullscreenenter"",""5"",""18079""
","
","
","""event"",""trial"",""time""
""fullscreenenter"",""5"",""18079""
","
",NA,images/earth.jpg,NA,NA,NA,NA,NA,NA,NA,NA,NA,NA,NA,NA,NA,fixation,NA,NA,NA,NA,NA,NA,sub122
d3-animate-choice,156,719341,0.0-76.0-0.7,FALSE,FALSE,TRUE,TRUE,"""event"",""trial"",""time""
""fullscreenenter"",""5"",""18079""
","
","
","""event"",""trial"",""time""
""fullscreenenter"",""5"",""18079""
","
",310.7250000030035,NA,48,NA,NA,3000,1,NA,NA,images/earth.jpg,images/rocket1,images/rocket2,null,images/rocket1,NA,1,real,null,2,NA,NA,NA,sub122
d3-animate-choice,157,722629,0.0-76.0-1.7,FALSE,FALSE,TRUE,TRUE,"""event"",""trial"",""time""
""fullscreenenter"",""5"",""18079""
","
","
","""event"",""trial"",""time""
""fullscreenenter"",""5"",""18079""
","
",1281.8499999993946,NA,48,NA,NA,3000,1,NA,NA,images/redplanet1.jpg,images/alien2,images/alien1,images/rocket1,images/alien2,images/t.png,2,real,false,2,rare,1,2020-06-20T19:53:57Z,sub122
two-step-fixation,158,723636,0.0-76.0-2.7,FALSE,FALSE,TRUE,TRUE,"""event"",""trial"",""time""
""fullscreenenter"",""5"",""18079""
","
","
","""event"",""trial"",""time""
""fullscreenenter"",""5"",""18079""
","
",NA,images/earth.jpg,NA,NA,NA,NA,NA,NA,NA,NA,NA,NA,NA,NA,NA,fixation,NA,NA,NA,NA,NA,NA,sub122
d3-animate-choice,159,725932,0.0-76.0-0.8,FALSE,FALSE,TRUE,TRUE,"""event"",""trial"",""time""
""fullscreenenter"",""5"",""18079""
","
","
","""event"",""trial"",""time""
""fullscreenenter"",""5"",""18079""
","
",288.7450000125682,NA,48,NA,NA,3000,1,NA,NA,images/earth.jpg,images/rocket1,images/rocket2,null,images/rocket1,NA,1,real,null,2,NA,NA,NA,sub122
d3-animate-choice,160,728373,0.0-76.0-1.8,FALSE,FALSE,TRUE,TRUE,"""event"",""trial"",""time""
""fullscreenenter"",""5"",""18079""
","
","
","""event"",""trial"",""time""
""fullscreenenter"",""5"",""18079""
","
",434.43499998829793,NA,48,NA,NA,3000,1,NA,NA,images/purpleplanet.jpg,images/alien4,images/alien3,images/rocket1,images/alien4,images/t.png,2,real,true,2,common,1,2020-06-20T19:54:03Z,sub122
two-step-fixation,161,729381,0.0-76.0-2.8,FALSE,FALSE,TRUE,TRUE,"""event"",""trial"",""time""
""fullscreenenter"",""5"",""18079""
","
","
","""event"",""trial"",""time""
""fullscreenenter"",""5"",""18079""
","
",NA,images/earth.jpg,NA,NA,NA,NA,NA,NA,NA,NA,NA,NA,NA,NA,NA,fixation,NA,NA,NA,NA,NA,NA,sub122
d3-animate-choice,162,731561,0.0-76.0-0.9,FALSE,FALSE,TRUE,TRUE,"""event"",""trial"",""time""
""fullscreenenter"",""5"",""18079""
","
","
","""event"",""trial"",""time""
""fullscreenenter"",""5"",""18079""
","
",172.76000000128988,NA,48,NA,NA,3000,1,NA,NA,images/earth.jpg,images/rocket1,images/rocket2,null,images/rocket1,NA,1,real,null,2,NA,NA,NA,sub122
d3-animate-choice,163,733846,0.0-76.0-1.9,FALSE,FALSE,TRUE,TRUE,"""event"",""trial"",""time""
""fullscreenenter"",""5"",""18079""
","
","
","""event"",""trial"",""time""
""fullscreenenter"",""5"",""18079""
","
",278.3849999977974,NA,48,NA,NA,3000,1,NA,NA,images/purpleplanet.jpg,images/alien4,images/alien3,images/rocket1,images/alien4,images/nothing.png,2,real,true,2,common,0,2020-06-20T19:54:08Z,sub122
two-step-fixation,164,734853,0.0-76.0-2.9,FALSE,FALSE,TRUE,TRUE,"""event"",""trial"",""time""
""fullscreenenter"",""5"",""18079""
","
","
","""event"",""trial"",""time""
""fullscreenenter"",""5"",""18079""
","
",NA,images/earth.jpg,NA,NA,NA,NA,NA,NA,NA,NA,NA,NA,NA,NA,NA,fixation,NA,NA,NA,NA,NA,NA,sub122
d3-animate-choice,165,737148,0.0-76.0-0.10,FALSE,FALSE,TRUE,TRUE,"""event"",""trial"",""time""
""fullscreenenter"",""5"",""18079""
","
","
","""event"",""trial"",""time""
""fullscreenenter"",""5"",""18079""
","
",288.08999998727813,NA,49,NA,NA,3000,1,NA,NA,images/earth.jpg,images/rocket1,images/rocket2,null,images/rocket2,NA,1,real,null,1,NA,NA,NA,sub122
d3-animate-choice,166,739727,0.0-76.0-1.10,FALSE,FALSE,TRUE,TRUE,"""event"",""trial"",""time""
""fullscreenenter"",""5"",""18079""
","
","
","""event"",""trial"",""time""
""fullscreenenter"",""5"",""18079""
","
",574.2999999929452,NA,48,NA,NA,3000,1,NA,NA,images/redplanet1.jpg,images/alien2,images/alien1,images/rocket2,images/alien2,images/t.png,2,real,true,2,common,1,2020-06-20T19:54:14Z,sub122
two-step-fixation,167,740734,0.0-76.0-2.10,FALSE,FALSE,TRUE,TRUE,"""event"",""trial"",""time""
""fullscreenenter"",""5"",""18079""
","
","
","""event"",""trial"",""time""
""fullscreenenter"",""5"",""18079""
","
",NA,images/earth.jpg,NA,NA,NA,NA,NA,NA,NA,NA,NA,NA,NA,NA,NA,fixation,NA,NA,NA,NA,NA,NA,sub122
d3-animate-choice,168,743027,0.0-76.0-0.11,FALSE,FALSE,TRUE,TRUE,"""event"",""trial"",""time""
""fullscreenenter"",""5"",""18079""
","
","
","""event"",""trial"",""time""
""fullscreenenter"",""5"",""18079""
","
",285.48000000591855,NA,49,NA,NA,3000,1,NA,NA,images/earth.jpg,images/rocket1,images/rocket2,null,images/rocket2,NA,1,real,null,1,NA,NA,NA,sub122
d3-animate-choice,169,745418,0.0-76.0-1.11,FALSE,FALSE,TRUE,TRUE,"""event"",""trial"",""time""
""fullscreenenter"",""5"",""18079""
","
","
","""event"",""trial"",""time""
""fullscreenenter"",""5"",""18079""
","
",383.3849999937229,NA,48,NA,NA,3000,1,NA,NA,images/redplanet1.jpg,images/alien2,images/alien1,images/rocket2,images/alien2,images/t.png,2,real,true,2,common,1,2020-06-20T19:54:20Z,sub122
two-step-fixation,170,746425,0.0-76.0-2.11,FALSE,FALSE,TRUE,TRUE,"""event"",""trial"",""time""
""fullscreenenter"",""5"",""18079""
","
","
","""event"",""trial"",""time""
""fullscreenenter"",""5"",""18079""
","
",NA,images/earth.jpg,NA,NA,NA,NA,NA,NA,NA,NA,NA,NA,NA,NA,NA,fixation,NA,NA,NA,NA,NA,NA,sub122
d3-animate-choice,171,748710,0.0-76.0-0.12,FALSE,FALSE,TRUE,TRUE,"""event"",""trial"",""time""
""fullscreenenter"",""5"",""18079""
","
","
","""event"",""trial"",""time""
""fullscreenenter"",""5"",""18079""
","
",278.72499999648426,NA,49,NA,NA,3000,1,NA,NA,images/earth.jpg,images/rocket1,images/rocket2,null,images/rocket2,NA,1,real,null,1,NA,NA,NA,sub122
d3-animate-choice,172,751033,0.0-76.0-1.12,FALSE,FALSE,TRUE,TRUE,"""event"",""trial"",""time""
""fullscreenenter"",""5"",""18079""
","
","
","""event"",""trial"",""time""
""fullscreenenter"",""5"",""18079""
","
",315.8849999890663,NA,48,NA,NA,3000,1,NA,NA,images/redplanet1.jpg,images/alien2,images/alien1,images/rocket2,images/alien2,images/nothing.png,2,real,true,2,common,0,2020-06-20T19:54:25Z,sub122
two-step-fixation,173,752039,0.0-76.0-2.12,FALSE,FALSE,TRUE,TRUE,"""event"",""trial"",""time""
""fullscreenenter"",""5"",""18079""
","
","
","""event"",""trial"",""time""
""fullscreenenter"",""5"",""18079""
","
",NA,images/earth.jpg,NA,NA,NA,NA,NA,NA,NA,NA,NA,NA,NA,NA,NA,fixation,NA,NA,NA,NA,NA,NA,sub122
d3-animate-choice,174,754358,0.0-76.0-0.13,FALSE,FALSE,TRUE,TRUE,"""event"",""trial"",""time""
""fullscreenenter"",""5"",""18079""
","
","
","""event"",""trial"",""time""
""fullscreenenter"",""5"",""18079""
","
",311.34499999461696,NA,49,NA,NA,3000,1,NA,NA,images/earth.jpg,images/rocket1,images/rocket2,null,images/rocket2,NA,1,real,null,1,NA,NA,NA,sub122
d3-animate-choice,175,756668,0.0-76.0-1.13,FALSE,FALSE,TRUE,TRUE,"""event"",""trial"",""time""
""fullscreenenter"",""5"",""18079""
","
","
","""event"",""trial"",""time""
""fullscreenenter"",""5"",""18079""
","
",302.96000000089407,NA,48,NA,NA,3000,1,NA,NA,images/redplanet1.jpg,images/alien2,images/alien1,images/rocket2,images/alien2,images/t.png,2,real,true,2,common,1,2020-06-20T19:54:31Z,sub122
two-step-fixation,176,757674,0.0-76.0-2.13,FALSE,FALSE,TRUE,TRUE,"""event"",""trial"",""time""
""fullscreenenter"",""5"",""18079""
","
","
","""event"",""trial"",""time""
""fullscreenenter"",""5"",""18079""
","
",NA,images/earth.jpg,NA,NA,NA,NA,NA,NA,NA,NA,NA,NA,NA,NA,NA,fixation,NA,NA,NA,NA,NA,NA,sub122
d3-animate-choice,177,760059,0.0-76.0-0.14,FALSE,FALSE,TRUE,TRUE,"""event"",""trial"",""time""
""fullscreenenter"",""5"",""18079""
","
","
","""event"",""trial"",""time""
""fullscreenenter"",""5"",""18079""
","
",377.0149999909336,NA,49,NA,NA,3000,1,NA,NA,images/earth.jpg,images/rocket1,images/rocket2,null,images/rocket2,NA,1,real,null,1,NA,NA,NA,sub122
d3-animate-choice,178,762408,0.0-76.0-1.14,FALSE,FALSE,TRUE,TRUE,"""event"",""trial"",""time""
""fullscreenenter"",""5"",""18079""
","
","
","""event"",""trial"",""time""
""fullscreenenter"",""5"",""18079""
","
",342.9900000046473,NA,48,NA,NA,3000,1,NA,NA,images/redplanet1.jpg,images/alien2,images/alien1,images/rocket2,images/alien2,images/t.png,2,real,true,2,common,1,2020-06-20T19:54:37Z,sub122
two-step-fixation,179,763416,0.0-76.0-2.14,FALSE,FALSE,TRUE,TRUE,"""event"",""trial"",""time""
""fullscreenenter"",""5"",""18079""
","
","
","""event"",""trial"",""time""
""fullscreenenter"",""5"",""18079""
","
",NA,images/earth.jpg,NA,NA,NA,NA,NA,NA,NA,NA,NA,NA,NA,NA,NA,fixation,NA,NA,NA,NA,NA,NA,sub122
d3-animate-choice,180,765692,0.0-76.0-0.15,FALSE,FALSE,TRUE,TRUE,"""event"",""trial"",""time""
""fullscreenenter"",""5"",""18079""
","
","
","""event"",""trial"",""time""
""fullscreenenter"",""5"",""18079""
","
",268.9350000000559,NA,49,NA,NA,3000,1,NA,NA,images/earth.jpg,images/rocket1,images/rocket2,null,images/rocket2,NA,1,real,null,1,NA,NA,NA,sub122
d3-animate-choice,181,767955,0.0-76.0-1.15,FALSE,FALSE,TRUE,TRUE,"""event"",""trial"",""time""
""fullscreenenter"",""5"",""18079""
","
","
","""event"",""trial"",""time""
""fullscreenenter"",""5"",""18079""
","
",256.8349999928614,NA,48,NA,NA,3000,1,NA,NA,images/redplanet1.jpg,images/alien2,images/alien1,images/rocket2,images/alien2,images/t.png,2,real,true,2,common,1,2020-06-20T19:54:42Z,sub122
two-step-fixation,182,768962,0.0-76.0-2.15,FALSE,FALSE,TRUE,TRUE,"""event"",""trial"",""time""
""fullscreenenter"",""5"",""18079""
","
","
","""event"",""trial"",""time""
""fullscreenenter"",""5"",""18079""
","
",NA,images/earth.jpg,NA,NA,NA,NA,NA,NA,NA,NA,NA,NA,NA,NA,NA,fixation,NA,NA,NA,NA,NA,NA,sub122
d3-animate-choice,183,771272,0.0-76.0-0.16,FALSE,FALSE,TRUE,TRUE,"""event"",""trial"",""time""
""fullscreenenter"",""5"",""18079""
","
","
","""event"",""trial"",""time""
""fullscreenenter"",""5"",""18079""
","
",302.1700000099372,NA,49,NA,NA,3000,1,NA,NA,images/earth.jpg,images/rocket1,images/rocket2,null,images/rocket2,NA,1,real,null,1,NA,NA,NA,sub122
d3-animate-choice,184,773602,0.0-76.0-1.16,FALSE,FALSE,TRUE,TRUE,"""event"",""trial"",""time""
""fullscreenenter"",""5"",""18079""
","
","
","""event"",""trial"",""time""
""fullscreenenter"",""5"",""18079""
","
",323.8299999939045,NA,48,NA,NA,3000,1,NA,NA,images/redplanet1.jpg,images/alien2,images/alien1,images/rocket2,images/alien2,images/nothing.png,2,real,true,2,common,0,2020-06-20T19:54:48Z,sub122
two-step-fixation,185,774609,0.0-76.0-2.16,FALSE,FALSE,TRUE,TRUE,"""event"",""trial"",""time""
""fullscreenenter"",""5"",""18079""
","
","
","""event"",""trial"",""time""
""fullscreenenter"",""5"",""18079""
","
",NA,images/earth.jpg,NA,NA,NA,NA,NA,NA,NA,NA,NA,NA,NA,NA,NA,fixation,NA,NA,NA,NA,NA,NA,sub122
d3-animate-choice,186,776633,0.0-76.0-0.17,FALSE,FALSE,TRUE,TRUE,"""event"",""trial"",""time""
""fullscreenenter"",""5"",""18079""
","
","
","""event"",""trial"",""time""
""fullscreenenter"",""5"",""18079""
","
",16.485000000102445,NA,49,NA,NA,3000,1,NA,NA,images/earth.jpg,images/rocket1,images/rocket2,null,images/rocket2,NA,1,real,null,1,NA,NA,NA,sub122
d3-animate-choice,187,778855,0.0-76.0-1.17,FALSE,FALSE,TRUE,TRUE,"""event"",""trial"",""time""
""fullscreenenter"",""5"",""18079""
","
","
","""event"",""trial"",""time""
""fullscreenenter"",""5"",""18079""
","
",215.3249999973923,NA,48,NA,NA,3000,1,NA,NA,images/purpleplanet.jpg,images/alien4,images/alien3,images/rocket2,images/alien4,images/t.png,2,real,false,2,rare,1,2020-06-20T19:54:53Z,sub122
two-step-fixation,188,779864,0.0-76.0-2.17,FALSE,FALSE,TRUE,TRUE,"""event"",""trial"",""time""
""fullscreenenter"",""5"",""18079""
","
","
","""event"",""trial"",""time""
""fullscreenenter"",""5"",""18079""
","
",NA,images/earth.jpg,NA,NA,NA,NA,NA,NA,NA,NA,NA,NA,NA,NA,NA,fixation,NA,NA,NA,NA,NA,NA,sub122
d3-animate-choice,189,781932,0.0-76.0-0.18,FALSE,FALSE,TRUE,TRUE,"""event"",""trial"",""time""
""fullscreenenter"",""5"",""18079""
","
","
","""event"",""trial"",""time""
""fullscreenenter"",""5"",""18079""
","
",60.26499999279622,NA,49,NA,NA,3000,1,NA,NA,images/earth.jpg,images/rocket1,images/rocket2,null,images/rocket2,NA,1,real,null,1,NA,NA,NA,sub122
d3-animate-choice,190,784269,0.0-76.0-1.18,FALSE,FALSE,TRUE,TRUE,"""event"",""trial"",""time""
""fullscreenenter"",""5"",""18079""
","
","
","""event"",""trial"",""time""
""fullscreenenter"",""5"",""18079""
","
",330.75999999709893,NA,48,NA,NA,3000,1,NA,NA,images/redplanet1.jpg,images/alien2,images/alien1,images/rocket2,images/alien2,images/t.png,2,real,true,2,common,1,2020-06-20T19:54:59Z,sub122
two-step-fixation,191,785276,0.0-76.0-2.18,FALSE,FALSE,TRUE,TRUE,"""event"",""trial"",""time""
""fullscreenenter"",""5"",""18079""
","
","
","""event"",""trial"",""time""
""fullscreenenter"",""5"",""18079""
","
",NA,images/earth.jpg,NA,NA,NA,NA,NA,NA,NA,NA,NA,NA,NA,NA,NA,fixation,NA,NA,NA,NA,NA,NA,sub122
d3-animate-choice,192,787500,0.0-76.0-0.19,FALSE,FALSE,TRUE,TRUE,"""event"",""trial"",""time""
""fullscreenenter"",""5"",""18079""
","
","
","""event"",""trial"",""time""
""fullscreenenter"",""5"",""18079""
","
",216.50500000396278,NA,49,NA,NA,3000,1,NA,NA,images/earth.jpg,images/rocket1,images/rocket2,null,images/rocket2,NA,1,real,null,1,NA,NA,NA,sub122
d3-animate-choice,193,789860,0.0-76.0-1.19,FALSE,FALSE,TRUE,TRUE,"""event"",""trial"",""time""
""fullscreenenter"",""5"",""18079""
","
","
","""event"",""trial"",""time""
""fullscreenenter"",""5"",""18079""
","
",354.5799999992596,NA,48,NA,NA,3000,1,NA,NA,images/redplanet1.jpg,images/alien2,images/alien1,images/rocket2,images/alien2,images/t.png,2,real,true,2,common,1,2020-06-20T19:55:04Z,sub122
two-step-fixation,194,790868,0.0-76.0-2.19,FALSE,FALSE,TRUE,TRUE,"""event"",""trial"",""time""
""fullscreenenter"",""5"",""18079""
","
","
","""event"",""trial"",""time""
""fullscreenenter"",""5"",""18079""
","
",NA,images/earth.jpg,NA,NA,NA,NA,NA,NA,NA,NA,NA,NA,NA,NA,NA,fixation,NA,NA,NA,NA,NA,NA,sub122
d3-animate-choice,195,793149,0.0-76.0-0.20,FALSE,FALSE,TRUE,TRUE,"""event"",""trial"",""time""
""fullscreenenter"",""5"",""18079""
","
","
","""event"",""trial"",""time""
""fullscreenenter"",""5"",""18079""
","
",274.68499999667984,NA,49,NA,NA,3000,1,NA,NA,images/earth.jpg,images/rocket1,images/rocket2,null,images/rocket2,NA,1,real,null,1,NA,NA,NA,sub122
d3-animate-choice,196,795463,0.0-76.0-1.20,FALSE,FALSE,TRUE,TRUE,"""event"",""trial"",""time""
""fullscreenenter"",""5"",""18079""
","
","
","""event"",""trial"",""time""
""fullscreenenter"",""5"",""18079""
","
",308.1349999993108,NA,48,NA,NA,3000,1,NA,NA,images/purpleplanet.jpg,images/alien4,images/alien3,images/rocket2,images/alien4,images/t.png,2,real,false,2,rare,1,2020-06-20T19:55:10Z,sub122
two-step-fixation,197,796470,0.0-76.0-2.20,FALSE,FALSE,TRUE,TRUE,"""event"",""trial"",""time""
""fullscreenenter"",""5"",""18079""
","
","
","""event"",""trial"",""time""
""fullscreenenter"",""5"",""18079""
","
",NA,images/earth.jpg,NA,NA,NA,NA,NA,NA,NA,NA,NA,NA,NA,NA,NA,fixation,NA,NA,NA,NA,NA,NA,sub122
d3-animate-choice,198,798511,0.0-76.0-0.21,FALSE,FALSE,TRUE,TRUE,"""event"",""trial"",""time""
""fullscreenenter"",""5"",""18079""
","
","
","""event"",""trial"",""time""
""fullscreenenter"",""5"",""18079""
","
",33.36999999010004,NA,49,NA,NA,3000,1,NA,NA,images/earth.jpg,images/rocket1,images/rocket2,null,images/rocket2,NA,1,real,null,1,NA,NA,NA,sub122
d3-animate-choice,199,800763,0.0-76.0-1.21,FALSE,FALSE,TRUE,TRUE,"""event"",""trial"",""time""
""fullscreenenter"",""5"",""18079""
","
","
","""event"",""trial"",""time""
""fullscreenenter"",""5"",""18079""
","
",249.1500000032829,NA,48,NA,NA,3000,1,NA,NA,images/redplanet1.jpg,images/alien2,images/alien1,images/rocket2,images/alien2,images/t.png,2,real,true,2,common,1,2020-06-20T19:55:15Z,sub122
two-step-fixation,200,801769,0.0-76.0-2.21,FALSE,FALSE,TRUE,TRUE,"""event"",""trial"",""time""
""fullscreenenter"",""5"",""18079""
","
","
","""event"",""trial"",""time""
""fullscreenenter"",""5"",""18079""
","
",NA,images/earth.jpg,NA,NA,NA,NA,NA,NA,NA,NA,NA,NA,NA,NA,NA,fixation,NA,NA,NA,NA,NA,NA,sub122
d3-animate-choice,201,803985,0.0-76.0-0.22,FALSE,FALSE,TRUE,TRUE,"""event"",""trial"",""time""
""fullscreenenter"",""5"",""18079""
","
","
","""event"",""trial"",""time""
""fullscreenenter"",""5"",""18079""
","
",207.32499999576248,NA,49,NA,NA,3000,1,NA,NA,images/earth.jpg,images/rocket1,images/rocket2,null,images/rocket2,NA,1,real,null,1,NA,NA,NA,sub122
d3-animate-choice,202,806268,0.0-76.0-1.22,FALSE,FALSE,TRUE,TRUE,"""event"",""trial"",""time""
""fullscreenenter"",""5"",""18079""
","
","
","""event"",""trial"",""time""
""fullscreenenter"",""5"",""18079""
","
",276.8300000025192,NA,48,NA,NA,3000,1,NA,NA,images/redplanet1.jpg,images/alien2,images/alien1,images/rocket2,images/alien2,images/nothing.png,2,real,true,2,common,0,2020-06-20T19:55:21Z,sub122
two-step-fixation,203,807275,0.0-76.0-2.22,FALSE,FALSE,TRUE,TRUE,"""event"",""trial"",""time""
""fullscreenenter"",""5"",""18079""
","
","
","""event"",""trial"",""time""
""fullscreenenter"",""5"",""18079""
","
",NA,images/earth.jpg,NA,NA,NA,NA,NA,NA,NA,NA,NA,NA,NA,NA,NA,fixation,NA,NA,NA,NA,NA,NA,sub122
d3-animate-choice,204,809511,0.0-76.0-0.23,FALSE,FALSE,TRUE,TRUE,"""event"",""trial"",""time""
""fullscreenenter"",""5"",""18079""
","
","
","""event"",""trial"",""time""
""fullscreenenter"",""5"",""18079""
","
",228.27000000688713,NA,49,NA,NA,3000,1,NA,NA,images/earth.jpg,images/rocket1,images/rocket2,null,images/rocket2,NA,1,real,null,1,NA,NA,NA,sub122
d3-animate-choice,205,811720,0.0-76.0-1.23,FALSE,FALSE,TRUE,TRUE,"""event"",""trial"",""time""
""fullscreenenter"",""5"",""18079""
","
","
","""event"",""trial"",""time""
""fullscreenenter"",""5"",""18079""
","
",203.0700000032084,NA,48,NA,NA,3000,1,NA,NA,images/redplanet1.jpg,images/alien2,images/alien1,images/rocket2,images/alien2,images/t.png,2,real,true,2,common,1,2020-06-20T19:55:26Z,sub122
two-step-fixation,206,812727,0.0-76.0-2.23,FALSE,FALSE,TRUE,TRUE,"""event"",""trial"",""time""
""fullscreenenter"",""5"",""18079""
","
","
","""event"",""trial"",""time""
""fullscreenenter"",""5"",""18079""
","
",NA,images/earth.jpg,NA,NA,NA,NA,NA,NA,NA,NA,NA,NA,NA,NA,NA,fixation,NA,NA,NA,NA,NA,NA,sub122
d3-animate-choice,207,814970,0.0-76.0-0.24,FALSE,FALSE,TRUE,TRUE,"""event"",""trial"",""time""
""fullscreenenter"",""5"",""18079""
","
","
","""event"",""trial"",""time""
""fullscreenenter"",""5"",""18079""
","
",236.10999999800697,NA,49,NA,NA,3000,1,NA,NA,images/earth.jpg,images/rocket1,images/rocket2,null,images/rocket2,NA,1,real,null,1,NA,NA,NA,sub122
d3-animate-choice,208,817192,0.0-76.0-1.24,FALSE,FALSE,TRUE,TRUE,"""event"",""trial"",""time""
""fullscreenenter"",""5"",""18079""
","
","
","""event"",""trial"",""time""
""fullscreenenter"",""5"",""18079""
","
",216.05499999714084,NA,48,NA,NA,3000,1,NA,NA,images/purpleplanet.jpg,images/alien4,images/alien3,images/rocket2,images/alien4,images/t.png,2,real,false,2,rare,1,2020-06-20T19:55:32Z,sub122
two-step-fixation,209,818200,0.0-76.0-2.24,FALSE,FALSE,TRUE,TRUE,"""event"",""trial"",""time""
""fullscreenenter"",""5"",""18079""
","
","
","""event"",""trial"",""time""
""fullscreenenter"",""5"",""18079""
","
",NA,images/earth.jpg,NA,NA,NA,NA,NA,NA,NA,NA,NA,NA,NA,NA,NA,fixation,NA,NA,NA,NA,NA,NA,sub122
d3-animate-choice,210,820478,0.0-76.0-0.25,FALSE,FALSE,TRUE,TRUE,"""event"",""trial"",""time""
""fullscreenenter"",""5"",""18079""
","
","
","""event"",""trial"",""time""
""fullscreenenter"",""5"",""18079""
","
",272.4750000052154,NA,49,NA,NA,3000,1,NA,NA,images/earth.jpg,images/rocket1,images/rocket2,null,images/rocket2,NA,1,real,null,1,NA,NA,NA,sub122
d3-animate-choice,211,822709,0.0-76.0-1.25,FALSE,FALSE,TRUE,TRUE,"""event"",""trial"",""time""
""fullscreenenter"",""5"",""18079""
","
","
","""event"",""trial"",""time""
""fullscreenenter"",""5"",""18079""
","
",224.23500000149943,NA,48,NA,NA,3000,1,NA,NA,images/redplanet1.jpg,images/alien2,images/alien1,images/rocket2,images/alien2,images/t.png,2,real,true,2,common,1,2020-06-20T19:55:37Z,sub122
two-step-fixation,212,823716,0.0-76.0-2.25,FALSE,FALSE,TRUE,TRUE,"""event"",""trial"",""time""
""fullscreenenter"",""5"",""18079""
","
","
","""event"",""trial"",""time""
""fullscreenenter"",""5"",""18079""
","
",NA,images/earth.jpg,NA,NA,NA,NA,NA,NA,NA,NA,NA,NA,NA,NA,NA,fixation,NA,NA,NA,NA,NA,NA,sub122
d3-animate-choice,213,825954,0.0-76.0-0.26,FALSE,FALSE,TRUE,TRUE,"""event"",""trial"",""time""
""fullscreenenter"",""5"",""18079""
","
","
","""event"",""trial"",""time""
""fullscreenenter"",""5"",""18079""
","
",231.12500000570435,NA,49,NA,NA,3000,1,NA,NA,images/earth.jpg,images/rocket1,images/rocket2,null,images/rocket2,NA,1,real,null,1,NA,NA,NA,sub122
d3-animate-choice,214,828274,0.0-76.0-1.26,FALSE,FALSE,TRUE,TRUE,"""event"",""trial"",""time""
""fullscreenenter"",""5"",""18079""
","
","
","""event"",""trial"",""time""
""fullscreenenter"",""5"",""18079""
","
",313.64000000758097,NA,48,NA,NA,3000,1,2101.445000007516,49,images/redplanet1.jpg,images/alien2,images/alien1,images/rocket2,images/alien2,images/t.png,2,real,true,2,common,1,2020-06-20T19:55:43Z,sub122
two-step-fixation,215,829280,0.0-76.0-2.26,FALSE,FALSE,TRUE,TRUE,"""event"",""trial"",""time""
""fullscreenenter"",""5"",""18079""
","
","
","""event"",""trial"",""time""
""fullscreenenter"",""5"",""18079""
","
",NA,images/earth.jpg,NA,NA,NA,NA,NA,NA,NA,NA,NA,NA,NA,NA,NA,fixation,NA,NA,NA,NA,NA,NA,sub122
d3-animate-choice,216,831562,0.0-76.0-0.27,FALSE,FALSE,TRUE,TRUE,"""event"",""trial"",""time""
""fullscreenenter"",""5"",""18079""
","
","
","""event"",""trial"",""time""
""fullscreenenter"",""5"",""18079""
","
",274.9199999962002,NA,49,NA,NA,3000,1,NA,NA,images/earth.jpg,images/rocket1,images/rocket2,null,images/rocket2,NA,1,real,null,1,NA,NA,NA,sub122
d3-animate-choice,217,833875,0.0-76.0-1.27,FALSE,FALSE,TRUE,TRUE,"""event"",""trial"",""time""
""fullscreenenter"",""5"",""18079""
","
","
","""event"",""trial"",""time""
""fullscreenenter"",""5"",""18079""
","
",306.44000000029337,NA,48,NA,NA,3000,1,NA,NA,images/redplanet1.jpg,images/alien2,images/alien1,images/rocket2,images/alien2,images/t.png,2,real,true,2,common,1,2020-06-20T19:55:48Z,sub122
two-step-fixation,218,834881,0.0-76.0-2.27,FALSE,FALSE,TRUE,TRUE,"""event"",""trial"",""time""
""fullscreenenter"",""5"",""18079""
","
","
","""event"",""trial"",""time""
""fullscreenenter"",""5"",""18079""
","
",NA,images/earth.jpg,NA,NA,NA,NA,NA,NA,NA,NA,NA,NA,NA,NA,NA,fixation,NA,NA,NA,NA,NA,NA,sub122
d3-animate-choice,219,837188,0.0-76.0-0.28,FALSE,FALSE,TRUE,TRUE,"""event"",""trial"",""time""
""fullscreenenter"",""5"",""18079""
","
","
","""event"",""trial"",""time""
""fullscreenenter"",""5"",""18079""
","
",301.27000001084525,NA,49,NA,NA,3000,1,NA,NA,images/earth.jpg,images/rocket1,images/rocket2,null,images/rocket2,NA,1,real,null,1,NA,NA,NA,sub122
d3-animate-choice,220,839493,0.0-76.0-1.28,FALSE,FALSE,TRUE,TRUE,"""event"",""trial"",""time""
""fullscreenenter"",""5"",""18079""
","
","
","""event"",""trial"",""time""
""fullscreenenter"",""5"",""18079""
","
",298.3050000038929,NA,48,NA,NA,3000,1,NA,NA,images/purpleplanet.jpg,images/alien4,images/alien3,images/rocket2,images/alien4,images/t.png,2,real,false,2,rare,1,2020-06-20T19:55:54Z,sub122
two-step-fixation,221,840500,0.0-76.0-2.28,FALSE,FALSE,TRUE,TRUE,"""event"",""trial"",""time""
""fullscreenenter"",""5"",""18079""
","
","
","""event"",""trial"",""time""
""fullscreenenter"",""5"",""18079""
","
",NA,images/earth.jpg,NA,NA,NA,NA,NA,NA,NA,NA,NA,NA,NA,NA,NA,fixation,NA,NA,NA,NA,NA,NA,sub122
d3-animate-choice,222,842819,0.0-76.0-0.29,FALSE,FALSE,TRUE,TRUE,"""event"",""trial"",""time""
""fullscreenenter"",""5"",""18079""
","
","
","""event"",""trial"",""time""
""fullscreenenter"",""5"",""18079""
","
",312.2249999869382,NA,49,NA,NA,3000,1,NA,NA,images/earth.jpg,images/rocket1,images/rocket2,null,images/rocket2,NA,1,real,null,1,NA,NA,NA,sub122
d3-animate-choice,223,845159,0.0-76.0-1.29,FALSE,FALSE,TRUE,TRUE,"""event"",""trial"",""time""
""fullscreenenter"",""5"",""18079""
","
","
","""event"",""trial"",""time""
""fullscreenenter"",""5"",""18079""
","
",332.44500000728294,NA,48,NA,NA,3000,1,NA,NA,images/redplanet1.jpg,images/alien2,images/alien1,images/rocket2,images/alien2,images/t.png,2,real,true,2,common,1,2020-06-20T19:56:00Z,sub122
two-step-fixation,224,846166,0.0-76.0-2.29,FALSE,FALSE,TRUE,TRUE,"""event"",""trial"",""time""
""fullscreenenter"",""5"",""18079""
","
","
","""event"",""trial"",""time""
""fullscreenenter"",""5"",""18079""
","
",NA,images/earth.jpg,NA,NA,NA,NA,NA,NA,NA,NA,NA,NA,NA,NA,NA,fixation,NA,NA,NA,NA,NA,NA,sub122
d3-animate-choice,225,848646,0.0-76.0-0.30,FALSE,FALSE,TRUE,TRUE,"""event"",""trial"",""time""
""fullscreenenter"",""5"",""18079""
","
","
","""event"",""trial"",""time""
""fullscreenenter"",""5"",""18079""
","
",473.0799999961164,NA,49,NA,NA,3000,1,NA,NA,images/earth.jpg,images/rocket1,images/rocket2,null,images/rocket2,NA,1,real,null,1,NA,NA,NA,sub122
d3-animate-choice,226,850945,0.0-76.0-1.30,FALSE,FALSE,TRUE,TRUE,"""event"",""trial"",""time""
""fullscreenenter"",""5"",""18079""
","
","
","""event"",""trial"",""time""
""fullscreenenter"",""5"",""18079""
","
",290.47999999602325,NA,48,NA,NA,3000,1,NA,NA,images/redplanet1.jpg,images/alien2,images/alien1,images/rocket2,images/alien2,images/t.png,2,real,true,2,common,1,2020-06-20T19:56:05Z,sub122
two-step-fixation,227,851952,0.0-76.0-2.30,FALSE,FALSE,TRUE,TRUE,"""event"",""trial"",""time""
""fullscreenenter"",""5"",""18079""
","
","
","""event"",""trial"",""time""
""fullscreenenter"",""5"",""18079""
","
",NA,images/earth.jpg,NA,NA,NA,NA,NA,NA,NA,NA,NA,NA,NA,NA,NA,fixation,NA,NA,NA,NA,NA,NA,sub122
d3-animate-choice,228,854224,0.0-76.0-0.31,FALSE,FALSE,TRUE,TRUE,"""event"",""trial"",""time""
""fullscreenenter"",""5"",""18079""
","
","
","""event"",""trial"",""time""
""fullscreenenter"",""5"",""18079""
","
",265.72499999019783,NA,49,NA,NA,3000,1,NA,NA,images/earth.jpg,images/rocket1,images/rocket2,null,images/rocket2,NA,1,real,null,1,NA,NA,NA,sub122
d3-animate-choice,229,856501,0.0-76.0-1.31,FALSE,FALSE,TRUE,TRUE,"""event"",""trial"",""time""
""fullscreenenter"",""5"",""18079""
","
","
","""event"",""trial"",""time""
""fullscreenenter"",""5"",""18079""
","
",267.2750000056112,NA,48,NA,NA,3000,1,NA,NA,images/purpleplanet.jpg,images/alien4,images/alien3,images/rocket2,images/alien4,images/t.png,2,real,false,2,rare,1,2020-06-20T19:56:11Z,sub122
two-step-fixation,230,857508,0.0-76.0-2.31,FALSE,FALSE,TRUE,TRUE,"""event"",""trial"",""time""
""fullscreenenter"",""5"",""18079""
","
","
","""event"",""trial"",""time""
""fullscreenenter"",""5"",""18079""
","
",NA,images/earth.jpg,NA,NA,NA,NA,NA,NA,NA,NA,NA,NA,NA,NA,NA,fixation,NA,NA,NA,NA,NA,NA,sub122
d3-animate-choice,231,859939,0.0-76.0-0.32,FALSE,FALSE,TRUE,TRUE,"""event"",""trial"",""time""
""fullscreenenter"",""5"",""18079""
","
","
","""event"",""trial"",""time""
""fullscreenenter"",""5"",""18079""
","
",424.3750000023283,NA,49,NA,NA,3000,1,NA,NA,images/earth.jpg,images/rocket1,images/rocket2,null,images/rocket2,NA,1,real,null,1,NA,NA,NA,sub122
d3-animate-choice,232,862300,0.0-76.0-1.32,FALSE,FALSE,TRUE,TRUE,"""event"",""trial"",""time""
""fullscreenenter"",""5"",""18079""
","
","
","""event"",""trial"",""time""
""fullscreenenter"",""5"",""18079""
","
",354.34499999973923,NA,48,NA,NA,3000,1,NA,NA,images/purpleplanet.jpg,images/alien4,images/alien3,images/rocket2,images/alien4,images/t.png,2,real,false,2,rare,1,2020-06-20T19:56:17Z,sub122
two-step-fixation,233,863307,0.0-76.0-2.32,FALSE,FALSE,TRUE,TRUE,"""event"",""trial"",""time""
""fullscreenenter"",""5"",""18079""
","
","
","""event"",""trial"",""time""
""fullscreenenter"",""5"",""18079""
","
",NA,images/earth.jpg,NA,NA,NA,NA,NA,NA,NA,NA,NA,NA,NA,NA,NA,fixation,NA,NA,NA,NA,NA,NA,sub122
d3-animate-choice,234,865597,0.0-76.0-0.33,FALSE,FALSE,TRUE,TRUE,"""event"",""trial"",""time""
""fullscreenenter"",""5"",""18079""
","
","
","""event"",""trial"",""time""
""fullscreenenter"",""5"",""18079""
","
",282.9399999900488,NA,49,NA,NA,3000,1,NA,NA,images/earth.jpg,images/rocket1,images/rocket2,null,images/rocket2,NA,1,real,null,1,NA,NA,NA,sub122
d3-animate-choice,235,867935,0.0-76.0-1.33,FALSE,FALSE,TRUE,TRUE,"""event"",""trial"",""time""
""fullscreenenter"",""5"",""18079""
","
","
","""event"",""trial"",""time""
""fullscreenenter"",""5"",""18079""
","
",331.3999999954831,NA,48,NA,NA,3000,1,NA,NA,images/redplanet1.jpg,images/alien2,images/alien1,images/rocket2,images/alien2,images/t.png,2,real,true,2,common,1,2020-06-20T19:56:22Z,sub122
two-step-fixation,236,868942,0.0-76.0-2.33,FALSE,FALSE,TRUE,TRUE,"""event"",""trial"",""time""
""fullscreenenter"",""5"",""18079""
","
","
","""event"",""trial"",""time""
""fullscreenenter"",""5"",""18079""
","
",NA,images/earth.jpg,NA,NA,NA,NA,NA,NA,NA,NA,NA,NA,NA,NA,NA,fixation,NA,NA,NA,NA,NA,NA,sub122
d3-animate-choice,237,871273,0.0-76.0-0.34,FALSE,FALSE,TRUE,TRUE,"""event"",""trial"",""time""
""fullscreenenter"",""5"",""18079""
","
","
","""event"",""trial"",""time""
""fullscreenenter"",""5"",""18079""
","
",321.49000000208616,NA,49,NA,NA,3000,1,NA,NA,images/earth.jpg,images/rocket1,images/rocket2,null,images/rocket2,NA,1,real,null,1,NA,NA,NA,sub122
d3-animate-choice,238,873670,0.0-76.0-1.34,FALSE,FALSE,TRUE,TRUE,"""event"",""trial"",""time""
""fullscreenenter"",""5"",""18079""
","
","
","""event"",""trial"",""time""
""fullscreenenter"",""5"",""18079""
","
",390.41499998711515,NA,48,NA,NA,3000,1,NA,NA,images/redplanet1.jpg,images/alien2,images/alien1,images/rocket2,images/alien2,images/nothing.png,2,real,true,2,common,0,2020-06-20T19:56:28Z,sub122
two-step-fixation,239,874676,0.0-76.0-2.34,FALSE,FALSE,TRUE,TRUE,"""event"",""trial"",""time""
""fullscreenenter"",""5"",""18079""
","
","
","""event"",""trial"",""time""
""fullscreenenter"",""5"",""18079""
","
",NA,images/earth.jpg,NA,NA,NA,NA,NA,NA,NA,NA,NA,NA,NA,NA,NA,fixation,NA,NA,NA,NA,NA,NA,sub122
d3-animate-choice,240,876967,0.0-76.0-0.35,FALSE,FALSE,TRUE,TRUE,"""event"",""trial"",""time""
""fullscreenenter"",""5"",""18079""
","
","
","""event"",""trial"",""time""
""fullscreenenter"",""5"",""18079""
","
",283.899999994901,NA,49,NA,NA,3000,1,NA,NA,images/earth.jpg,images/rocket1,images/rocket2,null,images/rocket2,NA,1,real,null,1,NA,NA,NA,sub122
d3-animate-choice,241,879330,0.0-76.0-1.35,FALSE,FALSE,TRUE,TRUE,"""event"",""trial"",""time""
""fullscreenenter"",""5"",""18079""
","
","
","""event"",""trial"",""time""
""fullscreenenter"",""5"",""18079""
","
",355.51499998837244,NA,48,NA,NA,3000,1,NA,NA,images/redplanet1.jpg,images/alien2,images/alien1,images/rocket2,images/alien2,images/nothing.png,2,real,true,2,common,0,2020-06-20T19:56:34Z,sub122
two-step-fixation,242,880337,0.0-76.0-2.35,FALSE,FALSE,TRUE,TRUE,"""event"",""trial"",""time""
""fullscreenenter"",""5"",""18079""
","
","
","""event"",""trial"",""time""
""fullscreenenter"",""5"",""18079""
","
",NA,images/earth.jpg,NA,NA,NA,NA,NA,NA,NA,NA,NA,NA,NA,NA,NA,fixation,NA,NA,NA,NA,NA,NA,sub122
d3-animate-choice,243,882631,0.0-76.0-0.36,FALSE,FALSE,TRUE,TRUE,"""event"",""trial"",""time""
""fullscreenenter"",""5"",""18079""
","
","
","""event"",""trial"",""time""
""fullscreenenter"",""5"",""18079""
","
",286.33499999705236,NA,49,NA,NA,3000,1,NA,NA,images/earth.jpg,images/rocket1,images/rocket2,null,images/rocket2,NA,1,real,null,1,NA,NA,NA,sub122
d3-animate-choice,244,884978,0.0-76.0-1.36,FALSE,FALSE,TRUE,TRUE,"""event"",""trial"",""time""
""fullscreenenter"",""5"",""18079""
","
","
","""event"",""trial"",""time""
""fullscreenenter"",""5"",""18079""
","
",340.90999999898486,NA,48,NA,NA,3000,1,NA,NA,images/redplanet1.jpg,images/alien2,images/alien1,images/rocket2,images/alien2,images/nothing.png,2,real,true,2,common,0,2020-06-20T19:56:39Z,sub122
two-step-fixation,245,885985,0.0-76.0-2.36,FALSE,FALSE,TRUE,TRUE,"""event"",""trial"",""time""
""fullscreenenter"",""5"",""18079""
","
","
","""event"",""trial"",""time""
""fullscreenenter"",""5"",""18079""
","
",NA,images/earth.jpg,NA,NA,NA,NA,NA,NA,NA,NA,NA,NA,NA,NA,NA,fixation,NA,NA,NA,NA,NA,NA,sub122
d3-animate-choice,246,888262,0.0-76.0-0.37,FALSE,FALSE,TRUE,TRUE,"""event"",""trial"",""time""
""fullscreenenter"",""5"",""18079""
","
","
","""event"",""trial"",""time""
""fullscreenenter"",""5"",""18079""
","
",270.4400000075111,NA,49,NA,NA,3000,1,NA,NA,images/earth.jpg,images/rocket1,images/rocket2,null,images/rocket2,NA,1,real,null,1,NA,NA,NA,sub122
d3-animate-choice,247,890558,0.0-76.0-1.37,FALSE,FALSE,TRUE,TRUE,"""event"",""trial"",""time""
""fullscreenenter"",""5"",""18079""
","
","
","""event"",""trial"",""time""
""fullscreenenter"",""5"",""18079""
","
",290.2699999976903,NA,49,NA,NA,3000,1,NA,NA,images/purpleplanet.jpg,images/alien4,images/alien3,images/rocket2,images/alien3,images/nothing.png,2,real,false,1,rare,0,2020-06-20T19:56:45Z,sub122
two-step-fixation,248,891564,0.0-76.0-2.37,FALSE,FALSE,TRUE,TRUE,"""event"",""trial"",""time""
""fullscreenenter"",""5"",""18079""
","
","
","""event"",""trial"",""time""
""fullscreenenter"",""5"",""18079""
","
",NA,images/earth.jpg,NA,NA,NA,NA,NA,NA,NA,NA,NA,NA,NA,NA,NA,fixation,NA,NA,NA,NA,NA,NA,sub122
d3-animate-choice,249,893942,0.0-76.0-0.38,FALSE,FALSE,TRUE,TRUE,"""event"",""trial"",""time""
""fullscreenenter"",""5"",""18079""
","
","
","""event"",""trial"",""time""
""fullscreenenter"",""5"",""18079""
","
",371.60500000754837,NA,49,NA,NA,3000,1,NA,NA,images/earth.jpg,images/rocket1,images/rocket2,null,images/rocket2,NA,1,real,null,1,NA,NA,NA,sub122
d3-animate-choice,250,896671,0.0-76.0-1.38,FALSE,FALSE,TRUE,TRUE,"""event"",""trial"",""time""
""fullscreenenter"",""5"",""18079""
","
","
","""event"",""trial"",""time""
""fullscreenenter"",""5"",""18079""
","
",724.6699999959674,NA,48,NA,NA,3000,1,NA,NA,images/purpleplanet.jpg,images/alien4,images/alien3,images/rocket2,images/alien4,images/t.png,2,real,false,2,rare,1,2020-06-20T19:56:51Z,sub122
two-step-fixation,251,897678,0.0-76.0-2.38,FALSE,FALSE,TRUE,TRUE,"""event"",""trial"",""time""
""fullscreenenter"",""5"",""18079""
","
","
","""event"",""trial"",""time""
""fullscreenenter"",""5"",""18079""
","
",NA,images/earth.jpg,NA,NA,NA,NA,NA,NA,NA,NA,NA,NA,NA,NA,NA,fixation,NA,NA,NA,NA,NA,NA,sub122
d3-animate-choice,252,899989,0.0-76.0-0.39,FALSE,FALSE,TRUE,TRUE,"""event"",""trial"",""time""
""fullscreenenter"",""5"",""18079""
","
","
","""event"",""trial"",""time""
""fullscreenenter"",""5"",""18079""
","
",303.97500000253785,NA,49,NA,NA,3000,1,NA,NA,images/earth.jpg,images/rocket1,images/rocket2,null,images/rocket2,NA,1,real,null,1,NA,NA,NA,sub122
d3-animate-choice,253,902410,0.0-76.0-1.39,FALSE,FALSE,TRUE,TRUE,"""event"",""trial"",""time""
""fullscreenenter"",""5"",""18079""
","
","
","""event"",""trial"",""time""
""fullscreenenter"",""5"",""18079""
","
",415.5750000063563,NA,49,NA,NA,3000,1,NA,NA,images/redplanet1.jpg,images/alien2,images/alien1,images/rocket2,images/alien1,images/nothing.png,2,real,true,1,common,0,2020-06-20T19:56:57Z,sub122
two-step-fixation,254,903418,0.0-76.0-2.39,FALSE,FALSE,TRUE,TRUE,"""event"",""trial"",""time""
""fullscreenenter"",""5"",""18079""
","
","
","""event"",""trial"",""time""
""fullscreenenter"",""5"",""18079""
","
",NA,images/earth.jpg,NA,NA,NA,NA,NA,NA,NA,NA,NA,NA,NA,NA,NA,fixation,NA,NA,NA,NA,NA,NA,sub122
d3-animate-choice,255,905772,0.0-76.0-0.40,FALSE,FALSE,TRUE,TRUE,"""event"",""trial"",""time""
""fullscreenenter"",""5"",""18079""
","
","
","""event"",""trial"",""time""
""fullscreenenter"",""5"",""18079""
","
",348.20499998750165,NA,49,NA,NA,3000,1,NA,NA,images/earth.jpg,images/rocket1,images/rocket2,null,images/rocket2,NA,1,real,null,1,NA,NA,NA,sub122
d3-animate-choice,256,908161,0.0-76.0-1.40,FALSE,FALSE,TRUE,TRUE,"""event"",""trial"",""time""
""fullscreenenter"",""5"",""18079""
","
","
","""event"",""trial"",""time""
""fullscreenenter"",""5"",""18079""
","
",381.8699999974342,NA,48,NA,NA,3000,1,NA,NA,images/redplanet1.jpg,images/alien2,images/alien1,images/rocket2,images/alien2,images/nothing.png,2,real,true,2,common,0,2020-06-20T19:57:03Z,sub122
two-step-fixation,257,909167,0.0-76.0-2.40,FALSE,FALSE,TRUE,TRUE,"""event"",""trial"",""time""
""fullscreenenter"",""5"",""18079""
","
","
","""event"",""trial"",""time""
""fullscreenenter"",""5"",""18079""
","
",NA,images/earth.jpg,NA,NA,NA,NA,NA,NA,NA,NA,NA,NA,NA,NA,NA,fixation,NA,NA,NA,NA,NA,NA,sub122
d3-animate-choice,258,911453,0.0-76.0-0.41,FALSE,FALSE,TRUE,TRUE,"""event"",""trial"",""time""
""fullscreenenter"",""5"",""18079""
","
","
","""event"",""trial"",""time""
""fullscreenenter"",""5"",""18079""
","
",279.1900000011083,NA,48,NA,NA,3000,1,NA,NA,images/earth.jpg,images/rocket1,images/rocket2,null,images/rocket1,NA,1,real,null,2,NA,NA,NA,sub122
d3-animate-choice,259,914422,0.0-76.0-1.41,FALSE,FALSE,TRUE,TRUE,"""event"",""trial"",""time""
""fullscreenenter"",""5"",""18079""
","
","
","""event"",""trial"",""time""
""fullscreenenter"",""5"",""18079""
","
",962.824999995064,NA,49,NA,NA,3000,1,NA,NA,images/redplanet1.jpg,images/alien2,images/alien1,images/rocket1,images/alien1,images/nothing.png,2,real,false,1,rare,0,2020-06-20T19:57:09Z,sub122
two-step-fixation,260,915429,0.0-76.0-2.41,FALSE,FALSE,TRUE,TRUE,"""event"",""trial"",""time""
""fullscreenenter"",""5"",""18079""
","
","
","""event"",""trial"",""time""
""fullscreenenter"",""5"",""18079""
","
",NA,images/earth.jpg,NA,NA,NA,NA,NA,NA,NA,NA,NA,NA,NA,NA,NA,fixation,NA,NA,NA,NA,NA,NA,sub122
d3-animate-choice,261,917721,0.0-76.0-0.42,FALSE,FALSE,TRUE,TRUE,"""event"",""trial"",""time""
""fullscreenenter"",""5"",""18079""
","
","
","""event"",""trial"",""time""
""fullscreenenter"",""5"",""18079""
","
",285.49500000372063,NA,48,NA,NA,3000,1,NA,NA,images/earth.jpg,images/rocket1,images/rocket2,null,images/rocket1,NA,1,real,null,2,NA,NA,NA,sub122
d3-animate-choice,262,920424,0.0-76.0-1.42,FALSE,FALSE,TRUE,TRUE,"""event"",""trial"",""time""
""fullscreenenter"",""5"",""18079""
","
","
","""event"",""trial"",""time""
""fullscreenenter"",""5"",""18079""
","
",696.4049999951385,NA,48,NA,NA,3000,1,NA,NA,images/redplanet1.jpg,images/alien2,images/alien1,images/rocket1,images/alien2,images/t.png,2,real,false,2,rare,1,2020-06-20T19:57:15Z,sub122
two-step-fixation,263,921431,0.0-76.0-2.42,FALSE,FALSE,TRUE,TRUE,"""event"",""trial"",""time""
""fullscreenenter"",""5"",""18079""
","
","
","""event"",""trial"",""time""
""fullscreenenter"",""5"",""18079""
","
",NA,images/earth.jpg,NA,NA,NA,NA,NA,NA,NA,NA,NA,NA,NA,NA,NA,fixation,NA,NA,NA,NA,NA,NA,sub122
d3-animate-choice,264,923762,0.0-76.0-0.43,FALSE,FALSE,TRUE,TRUE,"""event"",""trial"",""time""
""fullscreenenter"",""5"",""18079""
","
","
","""event"",""trial"",""time""
""fullscreenenter"",""5"",""18079""
","
",324.399999997695,NA,48,NA,NA,3000,1,NA,NA,images/earth.jpg,images/rocket1,images/rocket2,null,images/rocket1,NA,1,real,null,2,NA,NA,NA,sub122
d3-animate-choice,265,926153,0.0-76.0-1.43,FALSE,FALSE,TRUE,TRUE,"""event"",""trial"",""time""
""fullscreenenter"",""5"",""18079""
","
","
","""event"",""trial"",""time""
""fullscreenenter"",""5"",""18079""
","
",383.8299999915762,NA,48,NA,NA,3000,1,NA,NA,images/redplanet1.jpg,images/alien2,images/alien1,images/rocket1,images/alien2,images/nothing.png,2,real,false,2,rare,0,2020-06-20T19:57:20Z,sub122
two-step-fixation,266,927160,0.0-76.0-2.43,FALSE,FALSE,TRUE,TRUE,"""event"",""trial"",""time""
""fullscreenenter"",""5"",""18079""
","
","
","""event"",""trial"",""time""
""fullscreenenter"",""5"",""18079""
","
",NA,images/earth.jpg,NA,NA,NA,NA,NA,NA,NA,NA,NA,NA,NA,NA,NA,fixation,NA,NA,NA,NA,NA,NA,sub122
d3-animate-choice,267,929559,0.0-76.0-0.44,FALSE,FALSE,TRUE,TRUE,"""event"",""trial"",""time""
""fullscreenenter"",""5"",""18079""
","
","
","""event"",""trial"",""time""
""fullscreenenter"",""5"",""18079""
","
",391.749999995227,NA,48,NA,NA,3000,1,NA,NA,images/earth.jpg,images/rocket1,images/rocket2,null,images/rocket1,NA,1,real,null,2,NA,NA,NA,sub122
d3-animate-choice,268,932109,0.0-76.0-1.44,FALSE,FALSE,TRUE,TRUE,"""event"",""trial"",""time""
""fullscreenenter"",""5"",""18079""
","
","
","""event"",""trial"",""time""
""fullscreenenter"",""5"",""18079""
","
",544.2350000084843,NA,48,NA,NA,3000,1,NA,NA,images/redplanet1.jpg,images/alien2,images/alien1,images/rocket1,images/alien2,images/t.png,2,real,false,2,rare,1,2020-06-20T19:57:26Z,sub122
two-step-fixation,269,933115,0.0-76.0-2.44,FALSE,FALSE,TRUE,TRUE,"""event"",""trial"",""time""
""fullscreenenter"",""5"",""18079""
","
","
","""event"",""trial"",""time""
""fullscreenenter"",""5"",""18079""
","
",NA,images/earth.jpg,NA,NA,NA,NA,NA,NA,NA,NA,NA,NA,NA,NA,NA,fixation,NA,NA,NA,NA,NA,NA,sub122
d3-animate-choice,270,935401,0.0-76.0-0.45,FALSE,FALSE,TRUE,TRUE,"""event"",""trial"",""time""
""fullscreenenter"",""5"",""18079""
","
","
","""event"",""trial"",""time""
""fullscreenenter"",""5"",""18079""
","
",278.6199999973178,NA,48,NA,NA,3000,1,NA,NA,images/earth.jpg,images/rocket1,images/rocket2,null,images/rocket1,NA,1,real,null,2,NA,NA,NA,sub122
d3-animate-choice,271,938144,0.0-76.0-1.45,FALSE,FALSE,TRUE,TRUE,"""event"",""trial"",""time""
""fullscreenenter"",""5"",""18079""
","
","
","""event"",""trial"",""time""
""fullscreenenter"",""5"",""18079""
","
",735.8399999939138,NA,48,NA,NA,3000,1,NA,NA,images/purpleplanet.jpg,images/alien4,images/alien3,images/rocket1,images/alien4,images/t.png,2,real,true,2,common,1,2020-06-20T19:57:32Z,sub122
two-step-fixation,272,939150,0.0-76.0-2.45,FALSE,FALSE,TRUE,TRUE,"""event"",""trial"",""time""
""fullscreenenter"",""5"",""18079""
","
","
","""event"",""trial"",""time""
""fullscreenenter"",""5"",""18079""
","
",NA,images/earth.jpg,NA,NA,NA,NA,NA,NA,NA,NA,NA,NA,NA,NA,NA,fixation,NA,NA,NA,NA,NA,NA,sub122
d3-animate-choice,273,941391,0.0-76.0-0.46,FALSE,FALSE,TRUE,TRUE,"""event"",""trial"",""time""
""fullscreenenter"",""5"",""18079""
","
","
","""event"",""trial"",""time""
""fullscreenenter"",""5"",""18079""
","
",233.59499999787658,NA,48,NA,NA,3000,1,NA,NA,images/earth.jpg,images/rocket1,images/rocket2,null,images/rocket1,NA,1,real,null,2,NA,NA,NA,sub122
d3-animate-choice,274,943776,0.0-76.0-1.46,FALSE,FALSE,TRUE,TRUE,"""event"",""trial"",""time""
""fullscreenenter"",""5"",""18079""
","
","
","""event"",""trial"",""time""
""fullscreenenter"",""5"",""18079""
","
",377.89499999780674,NA,48,NA,NA,3000,1,NA,NA,images/redplanet1.jpg,images/alien2,images/alien1,images/rocket1,images/alien2,images/t.png,2,real,false,2,rare,1,2020-06-20T19:57:38Z,sub122
two-step-fixation,275,944783,0.0-76.0-2.46,FALSE,FALSE,TRUE,TRUE,"""event"",""trial"",""time""
""fullscreenenter"",""5"",""18079""
","
","
","""event"",""trial"",""time""
""fullscreenenter"",""5"",""18079""
","
",NA,images/earth.jpg,NA,NA,NA,NA,NA,NA,NA,NA,NA,NA,NA,NA,NA,fixation,NA,NA,NA,NA,NA,NA,sub122
d3-animate-choice,276,947044,0.0-76.0-0.47,FALSE,FALSE,TRUE,TRUE,"""event"",""trial"",""time""
""fullscreenenter"",""5"",""18079""
","
","
","""event"",""trial"",""time""
""fullscreenenter"",""5"",""18079""
","
",254.0000000008149,NA,48,NA,NA,3000,1,NA,NA,images/earth.jpg,images/rocket1,images/rocket2,null,images/rocket1,NA,1,real,null,2,NA,NA,NA,sub122
d3-animate-choice,277,949380,0.0-76.0-1.47,FALSE,FALSE,TRUE,TRUE,"""event"",""trial"",""time""
""fullscreenenter"",""5"",""18079""
","
","
","""event"",""trial"",""time""
""fullscreenenter"",""5"",""18079""
","
",329.8450000002049,NA,48,NA,NA,3000,1,NA,NA,images/purpleplanet.jpg,images/alien4,images/alien3,images/rocket1,images/alien4,images/t.png,2,real,true,2,common,1,2020-06-20T19:57:44Z,sub122
two-step-fixation,278,950386,0.0-76.0-2.47,FALSE,FALSE,TRUE,TRUE,"""event"",""trial"",""time""
""fullscreenenter"",""5"",""18079""
","
","
","""event"",""trial"",""time""
""fullscreenenter"",""5"",""18079""
","
",NA,images/earth.jpg,NA,NA,NA,NA,NA,NA,NA,NA,NA,NA,NA,NA,NA,fixation,NA,NA,NA,NA,NA,NA,sub122
d3-animate-choice,279,952646,0.0-76.0-0.48,FALSE,FALSE,TRUE,TRUE,"""event"",""trial"",""time""
""fullscreenenter"",""5"",""18079""
","
","
","""event"",""trial"",""time""
""fullscreenenter"",""5"",""18079""
","
",253.73500000569038,NA,48,NA,NA,3000,1,NA,NA,images/earth.jpg,images/rocket1,images/rocket2,null,images/rocket1,NA,1,real,null,2,NA,NA,NA,sub122
d3-animate-choice,280,955405,0.0-76.0-1.48,FALSE,FALSE,TRUE,TRUE,"""event"",""trial"",""time""
""fullscreenenter"",""5"",""18079""
","
","
","""event"",""trial"",""time""
""fullscreenenter"",""5"",""18079""
","
",752.8099999908591,NA,48,NA,NA,3000,1,NA,NA,images/redplanet1.jpg,images/alien2,images/alien1,images/rocket1,images/alien2,images/nothing.png,2,real,false,2,rare,0,2020-06-20T19:57:50Z,sub122
two-step-fixation,281,956411,0.0-76.0-2.48,FALSE,FALSE,TRUE,TRUE,"""event"",""trial"",""time""
""fullscreenenter"",""5"",""18079""
","
","
","""event"",""trial"",""time""
""fullscreenenter"",""5"",""18079""
","
",NA,images/earth.jpg,NA,NA,NA,NA,NA,NA,NA,NA,NA,NA,NA,NA,NA,fixation,NA,NA,NA,NA,NA,NA,sub122
d3-animate-choice,282,958923,0.0-76.0-0.49,FALSE,FALSE,TRUE,TRUE,"""event"",""trial"",""time""
""fullscreenenter"",""5"",""18079""
","
","
","""event"",""trial"",""time""
""fullscreenenter"",""5"",""18079""
","
