trial_type,trial_index,time_elapsed,internal_node_id,rocket_sides,red_planet_first_rocket,red_display_order,purple_display_order,interactions,blur_events,focus_events,fullscreenenter_events,fullscreenexit_events,rt,stimulus,key_press,button_pressed,success,duration,valid_pressed,rts,keys,planet_text,right_text,left_text,center_text,chosen_text,reward_text,trial_stage,practice_trial,transition_type,choice,transition,reward,timestamp,subject_id
pavlovia,0,4,0.0-0.0,FALSE,TRUE,TRUE,TRUE,"
","
","
","
","
",NA,NA,NA,NA,NA,NA,NA,NA,NA,NA,NA,NA,NA,NA,NA,NA,NA,NA,NA,NA,NA,NA,sub108
html-keyboard-response,1,1835,0.0-1.0,FALSE,TRUE,TRUE,TRUE,"
","
","
","
","
",1829.9300000071526,Welcome! Press the space bar to begin.,32,NA,NA,NA,NA,NA,NA,NA,NA,NA,NA,NA,NA,NA,NA,NA,NA,NA,NA,NA,sub108
audio-keyboard-response,2,3970,0.0-2.0,FALSE,TRUE,TRUE,TRUE,"
","
","
","
","
",821,audio/beep_loop.wav,175,NA,NA,NA,NA,NA,NA,NA,NA,NA,NA,NA,NA,NA,NA,NA,NA,NA,NA,NA,sub108
audio-button-response,3,17311,0.0-3.0,FALSE,TRUE,TRUE,TRUE,"
","
","
","
","
",NaN,audio/fish.mp3,NA,1,NA,NA,NA,NA,NA,NA,NA,NA,NA,NA,NA,NA,NA,NA,NA,NA,NA,NA,sub108
audio-button-response,4,20851,0.0-4.0,FALSE,TRUE,TRUE,TRUE,"""event"",""trial"",""time""
""fullscreenenter"",""5"",""24976""
","
","
","""event"",""trial"",""time""
""fullscreenenter"",""5"",""24976""
","
",NaN,audio/tiger.mp3,NA,4,NA,NA,NA,NA,NA,NA,NA,NA,NA,NA,NA,NA,NA,NA,NA,NA,NA,NA,sub108
fullscreen,5,25924,0.0-5.0,FALSE,TRUE,TRUE,TRUE,"""event"",""trial"",""time""
""fullscreenenter"",""5"",""24976""
","
","
","""event"",""trial"",""time""
""fullscreenenter"",""5"",""24976""
","
",NA,NA,NA,NA,TRUE,NA,NA,NA,NA,NA,NA,NA,NA,NA,NA,NA,NA,NA,NA,NA,NA,NA,sub108
d3-instructions,6,39191,0.0-6.0,FALSE,TRUE,TRUE,TRUE,"""event"",""trial"",""time""
""fullscreenenter"",""5"",""24976""
","
","
","""event"",""trial"",""time""
""fullscreenenter"",""5"",""24976""
","
",NA,NA,NA,NA,NA,NA,NA,NA,NA,NA,NA,NA,NA,NA,NA,NA,NA,NA,NA,NA,NA,NA,sub108
d3-instructions,7,51797,0.0-7.0,FALSE,TRUE,TRUE,TRUE,"""event"",""trial"",""time""
""fullscreenenter"",""5"",""24976""
","
","
","""event"",""trial"",""time""
""fullscreenenter"",""5"",""24976""
","
",NA,NA,NA,NA,NA,NA,NA,NA,NA,NA,NA,NA,NA,NA,NA,NA,NA,NA,NA,NA,NA,NA,sub108
d3-instructions,8,60443,0.0-8.0,FALSE,TRUE,TRUE,TRUE,"""event"",""trial"",""time""
""fullscreenenter"",""5"",""24976""
","
","
","""event"",""trial"",""time""
""fullscreenenter"",""5"",""24976""
","
",NA,NA,NA,NA,NA,NA,NA,NA,NA,NA,NA,NA,NA,NA,NA,NA,NA,NA,NA,NA,NA,NA,sub108
d3-instructions,9,72165,0.0-9.0,FALSE,TRUE,TRUE,TRUE,"""event"",""trial"",""time""
""fullscreenenter"",""5"",""24976""
","
","
","""event"",""trial"",""time""
""fullscreenenter"",""5"",""24976""
","
",NA,NA,NA,NA,NA,NA,NA,NA,NA,NA,NA,NA,NA,NA,NA,NA,NA,NA,NA,NA,NA,NA,sub108
d3-instructions,10,90897,0.0-10.0,FALSE,TRUE,TRUE,TRUE,"""event"",""trial"",""time""
""fullscreenenter"",""5"",""24976""
","
","
","""event"",""trial"",""time""
""fullscreenenter"",""5"",""24976""
","
",NA,NA,NA,NA,NA,NA,NA,NA,NA,NA,NA,NA,NA,NA,NA,NA,NA,NA,NA,NA,NA,NA,sub108
d3-animate-choice,11,93703,0.0-11.0,FALSE,TRUE,TRUE,TRUE,"""event"",""trial"",""time""
""fullscreenenter"",""5"",""24976""
","
","
","""event"",""trial"",""time""
""fullscreenenter"",""5"",""24976""
","
",790.8750000060536,NA,49,NA,NA,3000,1,"1662.0949999778531,2504.4350000098348",4848,images/tutgreenplanet.jpg,images/tutalien1,images/tutalien2,null,images/tutalien2,NA,NA,practice,null,NA,NA,NA,NA,sub108
d3-animate-choice,12,96383,0.0-12.0,FALSE,TRUE,TRUE,TRUE,"""event"",""trial"",""time""
""fullscreenenter"",""5"",""24976""
","
","
","""event"",""trial"",""time""
""fullscreenenter"",""5"",""24976""
","
",667.81000001356,NA,48,NA,NA,3000,1,NA,NA,images/tutgreenplanet.jpg,images/tutalien1,images/tutalien2,null,images/tutalien1,NA,NA,practice,null,NA,NA,NA,NA,sub108
d3-animate-choice,13,100922,0.0-13.0,FALSE,TRUE,TRUE,TRUE,"""event"",""trial"",""time""
""fullscreenenter"",""5"",""24976""
","
","
","""event"",""trial"",""time""
""fullscreenenter"",""5"",""24976""
","
",2534.570000017993,NA,49,NA,NA,3000,1,NA,NA,images/tutgreenplanet.jpg,images/tutalien1,images/tutalien2,null,images/tutalien2,NA,NA,practice,null,NA,NA,NA,NA,sub108
d3-animate-choice,14,103183,0.0-14.0,FALSE,TRUE,TRUE,TRUE,"""event"",""trial"",""time""
""fullscreenenter"",""5"",""24976""
","
","
","""event"",""trial"",""time""
""fullscreenenter"",""5"",""24976""
","
",255.16500003868714,NA,48,NA,NA,3000,1,NA,NA,images/tutgreenplanet.jpg,images/tutalien1,images/tutalien2,null,images/tutalien1,NA,NA,practice,null,NA,NA,NA,NA,sub108
d3-instructions,15,109846,0.0-15.0,FALSE,TRUE,TRUE,TRUE,"""event"",""trial"",""time""
""fullscreenenter"",""5"",""24976""
","
","
","""event"",""trial"",""time""
""fullscreenenter"",""5"",""24976""
","
",NA,NA,NA,NA,NA,NA,NA,NA,NA,NA,NA,NA,NA,NA,NA,NA,NA,NA,NA,NA,NA,NA,sub108
d3-instructions,16,117032,0.0-16.0,FALSE,TRUE,TRUE,TRUE,"""event"",""trial"",""time""
""fullscreenenter"",""5"",""24976""
","
","
","""event"",""trial"",""time""
""fullscreenenter"",""5"",""24976""
","
",NA,NA,NA,NA,NA,NA,NA,NA,NA,NA,NA,NA,NA,NA,NA,NA,NA,NA,NA,NA,NA,NA,sub108
d3-instructions,17,125683,0.0-17.0,FALSE,TRUE,TRUE,TRUE,"""event"",""trial"",""time""
""fullscreenenter"",""5"",""24976""
","
","
","""event"",""trial"",""time""
""fullscreenenter"",""5"",""24976""
","
",NA,NA,NA,NA,NA,NA,NA,NA,NA,NA,NA,NA,NA,NA,NA,NA,NA,NA,NA,NA,NA,NA,sub108
d3-instructions,18,139053,0.0-18.0,FALSE,TRUE,TRUE,TRUE,"""event"",""trial"",""time""
""fullscreenenter"",""5"",""24976""
","
","
","""event"",""trial"",""time""
""fullscreenenter"",""5"",""24976""
","
",NA,NA,NA,NA,NA,NA,NA,NA,NA,NA,NA,NA,NA,NA,NA,NA,NA,NA,NA,NA,NA,NA,sub108
d3-instructions,19,153629,0.0-19.0,FALSE,TRUE,TRUE,TRUE,"""event"",""trial"",""time""
""fullscreenenter"",""5"",""24976""
","
","
","""event"",""trial"",""time""
""fullscreenenter"",""5"",""24976""
","
",NA,NA,NA,NA,NA,NA,NA,NA,NA,NA,NA,NA,NA,NA,NA,NA,NA,NA,NA,NA,NA,NA,sub108
d3-animate-choice,20,156293,0.0-20.0,FALSE,TRUE,TRUE,TRUE,"""event"",""trial"",""time""
""fullscreenenter"",""5"",""24976""
","
","
","""event"",""trial"",""time""
""fullscreenenter"",""5"",""24976""
","
",653.5450000083074,NA,49,NA,NA,3000,1,NA,NA,images/tutyellowplanet.jpg,null,images/tutalien3,null,images/tutalien3,images/t.png,NA,practice,null,NA,NA,NA,NA,sub108
d3-animate-choice,21,158564,0.0-21.0,FALSE,TRUE,TRUE,TRUE,"""event"",""trial"",""time""
""fullscreenenter"",""5"",""24976""
","
","
","""event"",""trial"",""time""
""fullscreenenter"",""5"",""24976""
","
",258.3100000047125,NA,49,NA,NA,3000,1,NA,NA,images/tutyellowplanet.jpg,null,images/tutalien3,null,images/tutalien3,images/t.png,NA,practice,null,NA,NA,NA,NA,sub108
d3-animate-choice,22,160633,0.0-22.0,FALSE,TRUE,TRUE,TRUE,"""event"",""trial"",""time""
""fullscreenenter"",""5"",""24976""
","
","
","""event"",""trial"",""time""
""fullscreenenter"",""5"",""24976""
","
",63.480000011622906,NA,49,NA,NA,3000,1,NA,NA,images/tutyellowplanet.jpg,null,images/tutalien3,null,images/tutalien3,images/t.png,NA,practice,null,NA,NA,NA,NA,sub108
d3-animate-choice,23,162734,0.0-23.0,FALSE,TRUE,TRUE,TRUE,"""event"",""trial"",""time""
""fullscreenenter"",""5"",""24976""
","
","
","""event"",""trial"",""time""
""fullscreenenter"",""5"",""24976""
","
",92.20000001369044,NA,49,NA,NA,3000,1,NA,NA,images/tutyellowplanet.jpg,null,images/tutalien3,null,images/tutalien3,images/t.png,NA,practice,null,NA,NA,NA,NA,sub108
d3-animate-choice,24,164824,0.0-24.0,FALSE,TRUE,TRUE,TRUE,"""event"",""trial"",""time""
""fullscreenenter"",""5"",""24976""
","
","
","""event"",""trial"",""time""
""fullscreenenter"",""5"",""24976""
","
",76.50999998440966,NA,49,NA,NA,3000,1,NA,NA,images/tutyellowplanet.jpg,null,images/tutalien3,null,images/tutalien3,images/t.png,NA,practice,null,NA,NA,NA,NA,sub108
d3-animate-choice,25,167063,0.0-25.0,FALSE,TRUE,TRUE,TRUE,"""event"",""trial"",""time""
""fullscreenenter"",""5"",""24976""
","
","
","""event"",""trial"",""time""
""fullscreenenter"",""5"",""24976""
","
",232.68500005360693,NA,49,NA,NA,3000,1,NA,NA,images/tutyellowplanet.jpg,null,images/tutalien3,null,images/tutalien3,images/t.png,NA,practice,null,NA,NA,NA,NA,sub108
d3-animate-choice,26,169302,0.0-26.0,FALSE,TRUE,TRUE,TRUE,"""event"",""trial"",""time""
""fullscreenenter"",""5"",""24976""
","
","
","""event"",""trial"",""time""
""fullscreenenter"",""5"",""24976""
","
",233.68499998468906,NA,49,NA,NA,3000,1,NA,NA,images/tutyellowplanet.jpg,null,images/tutalien3,null,images/tutalien3,images/t.png,NA,practice,null,NA,NA,NA,NA,sub108
d3-animate-choice,27,171448,0.0-27.0,FALSE,TRUE,TRUE,TRUE,"""event"",""trial"",""time""
""fullscreenenter"",""5"",""24976""
","
","
","""event"",""trial"",""time""
""fullscreenenter"",""5"",""24976""
","
",137.6649999874644,NA,49,NA,NA,3000,1,NA,NA,images/tutyellowplanet.jpg,null,images/tutalien3,null,images/tutalien3,images/t.png,NA,practice,null,NA,NA,NA,NA,sub108
d3-animate-choice,28,173522,0.0-28.0,FALSE,TRUE,TRUE,TRUE,"""event"",""trial"",""time""
""fullscreenenter"",""5"",""24976""
","
","
","""event"",""trial"",""time""
""fullscreenenter"",""5"",""24976""
","
",70.12500002747402,NA,49,NA,NA,3000,1,NA,NA,images/tutyellowplanet.jpg,null,images/tutalien3,null,images/tutalien3,images/t.png,NA,practice,null,NA,NA,NA,NA,sub108
d3-animate-choice,29,175753,0.0-29.0,FALSE,TRUE,TRUE,TRUE,"""event"",""trial"",""time""
""fullscreenenter"",""5"",""24976""
","
","
","""event"",""trial"",""time""
""fullscreenenter"",""5"",""24976""
","
",220.54499998921528,NA,49,NA,NA,3000,1,NA,NA,images/tutyellowplanet.jpg,null,images/tutalien3,null,images/tutalien3,images/nothing.png,NA,practice,null,NA,NA,NA,NA,sub108
d3-instructions,30,182217,0.0-30.0,FALSE,TRUE,TRUE,TRUE,"""event"",""trial"",""time""
""fullscreenenter"",""5"",""24976""
","
","
","""event"",""trial"",""time""
""fullscreenenter"",""5"",""24976""
","
",NA,NA,NA,NA,NA,NA,NA,NA,NA,NA,NA,NA,NA,NA,NA,NA,NA,NA,NA,NA,NA,NA,sub108
d3-instructions,31,192407,0.0-31.0,FALSE,TRUE,TRUE,TRUE,"""event"",""trial"",""time""
""fullscreenenter"",""5"",""24976""
","
","
","""event"",""trial"",""time""
""fullscreenenter"",""5"",""24976""
","
",NA,NA,NA,NA,NA,NA,NA,NA,NA,NA,NA,NA,NA,NA,NA,NA,NA,NA,NA,NA,NA,NA,sub108
d3-instructions,32,199997,0.0-32.0,FALSE,TRUE,TRUE,TRUE,"""event"",""trial"",""time""
""fullscreenenter"",""5"",""24976""
","
","
","""event"",""trial"",""time""
""fullscreenenter"",""5"",""24976""
","
",NA,NA,NA,NA,NA,NA,NA,NA,NA,NA,NA,NA,NA,NA,NA,NA,NA,NA,NA,NA,NA,NA,sub108
d3-instructions,33,210413,0.0-33.0,FALSE,TRUE,TRUE,TRUE,"""event"",""trial"",""time""
""fullscreenenter"",""5"",""24976""
","
","
","""event"",""trial"",""time""
""fullscreenenter"",""5"",""24976""
","
",NA,NA,NA,NA,NA,NA,NA,NA,NA,NA,NA,NA,NA,NA,NA,NA,NA,NA,NA,NA,NA,NA,sub108
d3-animate-choice,34,213562,0.0-34.0,FALSE,TRUE,TRUE,TRUE,"""event"",""trial"",""time""
""fullscreenenter"",""5"",""24976""
","
","
","""event"",""trial"",""time""
""fullscreenenter"",""5"",""24976""
","
",1140.8449999871664,NA,49,NA,NA,3000,1,NA,NA,images/tutgreenplanet.jpg,images/tutalien1,images/tutalien2,null,images/tutalien2,images/nothing.png,NA,practice,null,NA,NA,NA,NA,sub108
d3-animate-choice,35,215802,0.0-35.0,FALSE,TRUE,TRUE,TRUE,"""event"",""trial"",""time""
""fullscreenenter"",""5"",""24976""
","
","
","""event"",""trial"",""time""
""fullscreenenter"",""5"",""24976""
","
",226.09000001102686,NA,48,NA,NA,3000,1,NA,NA,images/tutgreenplanet.jpg,images/tutalien1,images/tutalien2,null,images/tutalien1,images/nothing.png,NA,practice,null,NA,NA,NA,NA,sub108
d3-animate-choice,36,217822,0.0-36.0,FALSE,TRUE,TRUE,TRUE,"""event"",""trial"",""time""
""fullscreenenter"",""5"",""24976""
","
","
","""event"",""trial"",""time""
""fullscreenenter"",""5"",""24976""
","
",9.924999962095171,NA,49,NA,NA,3000,1,NA,NA,images/tutgreenplanet.jpg,images/tutalien1,images/tutalien2,null,images/tutalien2,images/t.png,NA,practice,null,NA,NA,NA,NA,sub108
d3-animate-choice,37,220062,0.0-37.0,FALSE,TRUE,TRUE,TRUE,"""event"",""trial"",""time""
""fullscreenenter"",""5"",""24976""
","
","
","""event"",""trial"",""time""
""fullscreenenter"",""5"",""24976""
","
",232.50000004190952,NA,48,NA,NA,3000,1,NA,NA,images/tutgreenplanet.jpg,images/tutalien1,images/tutalien2,null,images/tutalien1,images/nothing.png,NA,practice,null,NA,NA,NA,NA,sub108
d3-animate-choice,38,222082,0.0-38.0,FALSE,TRUE,TRUE,TRUE,"""event"",""trial"",""time""
""fullscreenenter"",""5"",""24976""
","
","
","""event"",""trial"",""time""
""fullscreenenter"",""5"",""24976""
","
",11.240000021643937,NA,49,NA,NA,3000,1,NA,NA,images/tutgreenplanet.jpg,images/tutalien1,images/tutalien2,null,images/tutalien2,images/t.png,NA,practice,null,NA,NA,NA,NA,sub108
d3-animate-choice,39,224635,0.0-39.0,FALSE,TRUE,TRUE,TRUE,"""event"",""trial"",""time""
""fullscreenenter"",""5"",""24976""
","
","
","""event"",""trial"",""time""
""fullscreenenter"",""5"",""24976""
","
",545.3449999913573,NA,49,NA,NA,3000,1,2548.5249999910593,49,images/tutgreenplanet.jpg,images/tutalien1,images/tutalien2,null,images/tutalien2,images/t.png,NA,practice,null,NA,NA,NA,NA,sub108
d3-animate-choice,40,227112,0.0-40.0,FALSE,TRUE,TRUE,TRUE,"""event"",""trial"",""time""
""fullscreenenter"",""5"",""24976""
","
","
","""event"",""trial"",""time""
""fullscreenenter"",""5"",""24976""
","
",468.1749999872409,NA,49,NA,NA,3000,1,NA,NA,images/tutgreenplanet.jpg,images/tutalien1,images/tutalien2,null,images/tutalien2,images/t.png,NA,practice,null,NA,NA,NA,NA,sub108
d3-animate-choice,41,229312,0.0-41.0,FALSE,TRUE,TRUE,TRUE,"""event"",""trial"",""time""
""fullscreenenter"",""5"",""24976""
","
","
","""event"",""trial"",""time""
""fullscreenenter"",""5"",""24976""
","
",189.13000001339242,NA,49,NA,NA,3000,1,NA,NA,images/tutgreenplanet.jpg,images/tutalien1,images/tutalien2,null,images/tutalien2,images/t.png,NA,practice,null,NA,NA,NA,NA,sub108
d3-animate-choice,42,231389,0.0-42.0,FALSE,TRUE,TRUE,TRUE,"""event"",""trial"",""time""
""fullscreenenter"",""5"",""24976""
","
","
","""event"",""trial"",""time""
""fullscreenenter"",""5"",""24976""
","
",69.74499998614192,NA,49,NA,NA,3000,1,NA,NA,images/tutgreenplanet.jpg,images/tutalien1,images/tutalien2,null,images/tutalien2,images/nothing.png,NA,practice,null,NA,NA,NA,NA,sub108
d3-animate-choice,43,233542,0.0-43.0,FALSE,TRUE,TRUE,TRUE,"""event"",""trial"",""time""
""fullscreenenter"",""5"",""24976""
","
","
","""event"",""trial"",""time""
""fullscreenenter"",""5"",""24976""
","
",141.84500003466383,NA,48,NA,NA,3000,1,2119.745000032708,49,images/tutgreenplanet.jpg,images/tutalien1,images/tutalien2,null,images/tutalien1,images/nothing.png,NA,practice,null,NA,NA,NA,NA,sub108
d3-instructions,44,246728,0.0-44.0,FALSE,TRUE,TRUE,TRUE,"""event"",""trial"",""time""
""fullscreenenter"",""5"",""24976""
","
","
","""event"",""trial"",""time""
""fullscreenenter"",""5"",""24976""
","
",NA,NA,NA,NA,NA,NA,NA,NA,NA,NA,NA,NA,NA,NA,NA,NA,NA,NA,NA,NA,NA,NA,sub108
d3-instructions,45,253326,0.0-45.0,FALSE,TRUE,TRUE,TRUE,"""event"",""trial"",""time""
""fullscreenenter"",""5"",""24976""
","
","
","""event"",""trial"",""time""
""fullscreenenter"",""5"",""24976""
","
",NA,NA,NA,NA,NA,NA,NA,NA,NA,NA,NA,NA,NA,NA,NA,NA,NA,NA,NA,NA,NA,NA,sub108
d3-instructions,46,258554,0.0-46.0,FALSE,TRUE,TRUE,TRUE,"""event"",""trial"",""time""
""fullscreenenter"",""5"",""24976""
","
","
","""event"",""trial"",""time""
""fullscreenenter"",""5"",""24976""
","
",NA,NA,NA,NA,NA,NA,NA,NA,NA,NA,NA,NA,NA,NA,NA,NA,NA,NA,NA,NA,NA,NA,sub108
d3-instructions,47,275421,0.0-47.0,FALSE,TRUE,TRUE,TRUE,"""event"",""trial"",""time""
""fullscreenenter"",""5"",""24976""
","
","
","""event"",""trial"",""time""
""fullscreenenter"",""5"",""24976""
","
",NA,NA,NA,NA,NA,NA,NA,NA,NA,NA,NA,NA,NA,NA,NA,NA,NA,NA,NA,NA,NA,NA,sub108
d3-instructions,48,282050,0.0-48.0,FALSE,TRUE,TRUE,TRUE,"""event"",""trial"",""time""
""fullscreenenter"",""5"",""24976""
","
","
","""event"",""trial"",""time""
""fullscreenenter"",""5"",""24976""
","
",NA,NA,NA,NA,NA,NA,NA,NA,NA,NA,NA,NA,NA,NA,NA,NA,NA,NA,NA,NA,NA,NA,sub108
d3-instructions,49,298433,0.0-49.0,FALSE,TRUE,TRUE,TRUE,"""event"",""trial"",""time""
""fullscreenenter"",""5"",""24976""
","
","
","""event"",""trial"",""time""
""fullscreenenter"",""5"",""24976""
","
",NA,NA,NA,NA,NA,NA,NA,NA,NA,NA,NA,NA,NA,NA,NA,NA,NA,NA,NA,NA,NA,NA,sub108
d3-instructions,50,309388,0.0-50.0,FALSE,TRUE,TRUE,TRUE,"""event"",""trial"",""time""
""fullscreenenter"",""5"",""24976""
","
","
","""event"",""trial"",""time""
""fullscreenenter"",""5"",""24976""
","
",NA,NA,NA,NA,NA,NA,NA,NA,NA,NA,NA,NA,NA,NA,NA,NA,NA,NA,NA,NA,NA,NA,sub108
d3-instructions,51,312793,0.0-51.0,FALSE,TRUE,TRUE,TRUE,"""event"",""trial"",""time""
""fullscreenenter"",""5"",""24976""
","
","
","""event"",""trial"",""time""
""fullscreenenter"",""5"",""24976""
","
",NA,NA,NA,NA,NA,NA,NA,NA,NA,NA,NA,NA,NA,NA,NA,NA,NA,NA,NA,NA,NA,NA,sub108
d3-instructions,52,315961,0.0-52.0,FALSE,TRUE,TRUE,TRUE,"""event"",""trial"",""time""
""fullscreenenter"",""5"",""24976""
","
","
","""event"",""trial"",""time""
""fullscreenenter"",""5"",""24976""
","
",NA,NA,NA,NA,NA,NA,NA,NA,NA,NA,NA,NA,NA,NA,NA,NA,NA,NA,NA,NA,NA,NA,sub108
d3-instructions,53,329630,0.0-53.0,FALSE,TRUE,TRUE,TRUE,"""event"",""trial"",""time""
""fullscreenenter"",""5"",""24976""
","
","
","""event"",""trial"",""time""
""fullscreenenter"",""5"",""24976""
","
",NA,NA,NA,NA,NA,NA,NA,NA,NA,NA,NA,NA,NA,NA,NA,NA,NA,NA,NA,NA,NA,NA,sub108
d3-instructions,54,342054,0.0-54.0,FALSE,TRUE,TRUE,TRUE,"""event"",""trial"",""time""
""fullscreenenter"",""5"",""24976""
","
","
","""event"",""trial"",""time""
""fullscreenenter"",""5"",""24976""
","
",NA,NA,NA,NA,NA,NA,NA,NA,NA,NA,NA,NA,NA,NA,NA,NA,NA,NA,NA,NA,NA,NA,sub108
d3-instructions,55,353030,0.0-55.0,FALSE,TRUE,TRUE,TRUE,"""event"",""trial"",""time""
""fullscreenenter"",""5"",""24976""
","
","
","""event"",""trial"",""time""
""fullscreenenter"",""5"",""24976""
","
",NA,NA,NA,NA,NA,NA,NA,NA,NA,NA,NA,NA,NA,NA,NA,NA,NA,NA,NA,NA,NA,NA,sub108
d3-instructions,56,361338,0.0-56.0,FALSE,TRUE,TRUE,TRUE,"""event"",""trial"",""time""
""fullscreenenter"",""5"",""24976""
","
","
","""event"",""trial"",""time""
""fullscreenenter"",""5"",""24976""
","
",NA,NA,NA,NA,NA,NA,NA,NA,NA,NA,NA,NA,NA,NA,NA,NA,NA,NA,NA,NA,NA,NA,sub108
d3-instructions,57,371569,0.0-57.0,FALSE,TRUE,TRUE,TRUE,"""event"",""trial"",""time""
""fullscreenenter"",""5"",""24976""
","
","
","""event"",""trial"",""time""
""fullscreenenter"",""5"",""24976""
","
",NA,NA,NA,NA,NA,NA,NA,NA,NA,NA,NA,NA,NA,NA,NA,NA,NA,NA,NA,NA,NA,NA,sub108
d3-instructions,58,382247,0.0-58.0,FALSE,TRUE,TRUE,TRUE,"""event"",""trial"",""time""
""fullscreenenter"",""5"",""24976""
","
","
","""event"",""trial"",""time""
""fullscreenenter"",""5"",""24976""
","
",NA,NA,NA,NA,NA,NA,NA,NA,NA,NA,NA,NA,NA,NA,NA,NA,NA,NA,NA,NA,NA,NA,sub108
d3-instructions,59,386953,0.0-59.0,FALSE,TRUE,TRUE,TRUE,"""event"",""trial"",""time""
""fullscreenenter"",""5"",""24976""
","
","
","""event"",""trial"",""time""
""fullscreenenter"",""5"",""24976""
","
",NA,NA,NA,NA,NA,NA,NA,NA,NA,NA,NA,NA,NA,NA,NA,NA,NA,NA,NA,NA,NA,NA,sub108
d3-instructions,60,393845,0.0-60.0,FALSE,TRUE,TRUE,TRUE,"""event"",""trial"",""time""
""fullscreenenter"",""5"",""24976""
","
","
","""event"",""trial"",""time""
""fullscreenenter"",""5"",""24976""
","
",NA,NA,NA,NA,NA,NA,NA,NA,NA,NA,NA,NA,NA,NA,NA,NA,NA,NA,NA,NA,NA,NA,sub108
d3-animate-choice,61,396424,0.0-61.0-0.0,FALSE,TRUE,TRUE,TRUE,"""event"",""trial"",""time""
""fullscreenenter"",""5"",""24976""
","
","
","""event"",""trial"",""time""
""fullscreenenter"",""5"",""24976""
","
",568.4350000228733,NA,48,NA,NA,3000,1,NA,NA,images/earth.jpg,images/tutrocket1,images/tutrocket2,null,images/tutrocket1,NA,1,practice,null,2,NA,NA,NA,sub108
d3-animate-choice,62,399404,0.0-61.0-1.0,FALSE,TRUE,TRUE,TRUE,"""event"",""trial"",""time""
""fullscreenenter"",""5"",""24976""
","
","
","""event"",""trial"",""time""
""fullscreenenter"",""5"",""24976""
","
",968.1299999938346,NA,48,NA,NA,3000,1,NA,NA,images/tutgreenplanet.jpg,images/tutalien2,images/tutalien1,images/tutrocket1,images/tutalien2,images/t.png,2,practice,true,2,common,1,2020-06-27T19:24:33Z,sub108
two-step-fixation,63,400414,0.0-61.0-2.0,FALSE,TRUE,TRUE,TRUE,"""event"",""trial"",""time""
""fullscreenenter"",""5"",""24976""
","
","
","""event"",""trial"",""time""
""fullscreenenter"",""5"",""24976""
","
",NA,images/earth.jpg,NA,NA,NA,NA,NA,NA,NA,NA,NA,NA,NA,NA,NA,fixation,NA,NA,NA,NA,NA,NA,sub108
d3-animate-choice,64,403254,0.0-61.0-0.1,FALSE,TRUE,TRUE,TRUE,"""event"",""trial"",""time""
""fullscreenenter"",""5"",""24976""
","
","
","""event"",""trial"",""time""
""fullscreenenter"",""5"",""24976""
","
",828.6849999567494,NA,49,NA,NA,3000,1,NA,NA,images/earth.jpg,images/tutrocket1,images/tutrocket2,null,images/tutrocket2,NA,1,practice,null,1,NA,NA,NA,sub108
d3-animate-choice,65,405894,0.0-61.0-1.1,FALSE,TRUE,TRUE,TRUE,"""event"",""trial"",""time""
""fullscreenenter"",""5"",""24976""
","
","
","""event"",""trial"",""time""
""fullscreenenter"",""5"",""24976""
","
",629.2400000384077,NA,49,NA,NA,3000,1,NA,NA,images/tutgreenplanet.jpg,images/tutalien2,images/tutalien1,images/tutrocket2,images/tutalien1,images/nothing.png,2,practice,false,1,rare,0,2020-06-27T19:24:40Z,sub108
two-step-fixation,66,406903,0.0-61.0-2.1,FALSE,TRUE,TRUE,TRUE,"""event"",""trial"",""time""
""fullscreenenter"",""5"",""24976""
","
","
","""event"",""trial"",""time""
""fullscreenenter"",""5"",""24976""
","
",NA,images/earth.jpg,NA,NA,NA,NA,NA,NA,NA,NA,NA,NA,NA,NA,NA,fixation,NA,NA,NA,NA,NA,NA,sub108
d3-animate-choice,67,409284,0.0-61.0-0.2,FALSE,TRUE,TRUE,TRUE,"""event"",""trial"",""time""
""fullscreenenter"",""5"",""24976""
","
","
","""event"",""trial"",""time""
""fullscreenenter"",""5"",""24976""
","
",372.960000007879,NA,48,NA,NA,3000,1,NA,NA,images/earth.jpg,images/tutrocket1,images/tutrocket2,null,images/tutrocket1,NA,1,practice,null,2,NA,NA,NA,sub108
d3-animate-choice,68,411651,0.0-61.0-1.2,FALSE,TRUE,TRUE,TRUE,"""event"",""trial"",""time""
""fullscreenenter"",""5"",""24976""
","
","
","""event"",""trial"",""time""
""fullscreenenter"",""5"",""24976""
","
",358.1250000279397,NA,48,NA,NA,3000,1,NA,NA,images/tutyellowplanet.jpg,images/tutalien4,images/tutalien3,images/tutrocket1,images/tutalien4,images/t.png,2,practice,false,2,rare,1,2020-06-27T19:24:46Z,sub108
two-step-fixation,69,412664,0.0-61.0-2.2,FALSE,TRUE,TRUE,TRUE,"""event"",""trial"",""time""
""fullscreenenter"",""5"",""24976""
","
","
","""event"",""trial"",""time""
""fullscreenenter"",""5"",""24976""
","
",NA,images/earth.jpg,NA,NA,NA,NA,NA,NA,NA,NA,NA,NA,NA,NA,NA,fixation,NA,NA,NA,NA,NA,NA,sub108
d3-animate-choice,70,414914,0.0-61.0-0.3,FALSE,TRUE,TRUE,TRUE,"""event"",""trial"",""time""
""fullscreenenter"",""5"",""24976""
","
","
","""event"",""trial"",""time""
""fullscreenenter"",""5"",""24976""
","
",236.9450000114739,NA,48,NA,NA,3000,1,NA,NA,images/earth.jpg,images/tutrocket1,images/tutrocket2,null,images/tutrocket1,NA,1,practice,null,2,NA,NA,NA,sub108
d3-animate-choice,71,417355,0.0-61.0-1.3,FALSE,TRUE,TRUE,TRUE,"""event"",""trial"",""time""
""fullscreenenter"",""5"",""24976""
","
","
","""event"",""trial"",""time""
""fullscreenenter"",""5"",""24976""
","
",433.04500001249835,NA,49,NA,NA,3000,1,NA,NA,images/tutgreenplanet.jpg,images/tutalien2,images/tutalien1,images/tutrocket1,images/tutalien1,images/t.png,2,practice,true,1,common,1,2020-06-27T19:24:51Z,sub108
two-step-fixation,72,418364,0.0-61.0-2.3,FALSE,TRUE,TRUE,TRUE,"""event"",""trial"",""time""
""fullscreenenter"",""5"",""24976""
","
","
","""event"",""trial"",""time""
""fullscreenenter"",""5"",""24976""
","
",NA,images/earth.jpg,NA,NA,NA,NA,NA,NA,NA,NA,NA,NA,NA,NA,NA,fixation,NA,NA,NA,NA,NA,NA,sub108
d3-animate-choice,73,420691,0.0-61.0-0.4,FALSE,TRUE,TRUE,TRUE,"""event"",""trial"",""time""
""fullscreenenter"",""5"",""24976""
","
","
","""event"",""trial"",""time""
""fullscreenenter"",""5"",""24976""
","
",317.574999993667,NA,48,NA,NA,3000,1,NA,NA,images/earth.jpg,images/tutrocket1,images/tutrocket2,null,images/tutrocket1,NA,1,practice,null,2,NA,NA,NA,sub108
d3-animate-choice,74,422949,0.0-61.0-1.4,FALSE,TRUE,TRUE,TRUE,"""event"",""trial"",""time""
""fullscreenenter"",""5"",""24976""
","
","
","""event"",""trial"",""time""
""fullscreenenter"",""5"",""24976""
","
",254.11499995971099,NA,49,NA,NA,3000,1,NA,NA,images/tutyellowplanet.jpg,images/tutalien4,images/tutalien3,images/tutrocket1,images/tutalien3,images/nothing.png,2,practice,false,1,rare,0,2020-06-27T19:24:57Z,sub108
two-step-fixation,75,423951,0.0-61.0-2.4,FALSE,TRUE,TRUE,TRUE,"""event"",""trial"",""time""
""fullscreenenter"",""5"",""24976""
","
","
","""event"",""trial"",""time""
""fullscreenenter"",""5"",""24976""
","
",NA,images/earth.jpg,NA,NA,NA,NA,NA,NA,NA,NA,NA,NA,NA,NA,NA,fixation,NA,NA,NA,NA,NA,NA,sub108
d3-animate-choice,76,426216,0.0-61.0-0.5,FALSE,TRUE,TRUE,TRUE,"""event"",""trial"",""time""
""fullscreenenter"",""5"",""24976""
","
","
","""event"",""trial"",""time""
""fullscreenenter"",""5"",""24976""
","
",258.5500000277534,NA,49,NA,NA,3000,1,NA,NA,images/earth.jpg,images/tutrocket1,images/tutrocket2,null,images/tutrocket2,NA,1,practice,null,1,NA,NA,NA,sub108
d3-animate-choice,77,428472,0.0-61.0-1.5,FALSE,TRUE,TRUE,TRUE,"""event"",""trial"",""time""
""fullscreenenter"",""5"",""24976""
","
","
","""event"",""trial"",""time""
""fullscreenenter"",""5"",""24976""
","
",251.86000001849607,NA,48,NA,NA,3000,1,NA,NA,images/tutyellowplanet.jpg,images/tutalien4,images/tutalien3,images/tutrocket2,images/tutalien4,images/nothing.png,2,practice,true,2,common,0,2020-06-27T19:25:02Z,sub108
two-step-fixation,78,429477,0.0-61.0-2.5,FALSE,TRUE,TRUE,TRUE,"""event"",""trial"",""time""
""fullscreenenter"",""5"",""24976""
","
","
","""event"",""trial"",""time""
""fullscreenenter"",""5"",""24976""
","
",NA,images/earth.jpg,NA,NA,NA,NA,NA,NA,NA,NA,NA,NA,NA,NA,NA,fixation,NA,NA,NA,NA,NA,NA,sub108
d3-animate-choice,79,431776,0.0-61.0-0.6,FALSE,TRUE,TRUE,TRUE,"""event"",""trial"",""time""
""fullscreenenter"",""5"",""24976""
","
","
","""event"",""trial"",""time""
""fullscreenenter"",""5"",""24976""
","
",294.1149999969639,NA,49,NA,NA,3000,1,NA,NA,images/earth.jpg,images/tutrocket1,images/tutrocket2,null,images/tutrocket2,NA,1,practice,null,1,NA,NA,NA,sub108
d3-animate-choice,80,434306,0.0-61.0-1.6,FALSE,TRUE,TRUE,TRUE,"""event"",""trial"",""time""
""fullscreenenter"",""5"",""24976""
","
","
","""event"",""trial"",""time""
""fullscreenenter"",""5"",""24976""
","
",518.6000000103377,NA,49,NA,NA,3000,1,NA,NA,images/tutyellowplanet.jpg,images/tutalien4,images/tutalien3,images/tutrocket2,images/tutalien3,images/nothing.png,2,practice,true,1,common,0,2020-06-27T19:25:08Z,sub108
two-step-fixation,81,435314,0.0-61.0-2.6,FALSE,TRUE,TRUE,TRUE,"""event"",""trial"",""time""
""fullscreenenter"",""5"",""24976""
","
","
","""event"",""trial"",""time""
""fullscreenenter"",""5"",""24976""
","
",NA,images/earth.jpg,NA,NA,NA,NA,NA,NA,NA,NA,NA,NA,NA,NA,NA,fixation,NA,NA,NA,NA,NA,NA,sub108
d3-animate-choice,82,437737,0.0-61.0-0.7,FALSE,TRUE,TRUE,TRUE,"""event"",""trial"",""time""
""fullscreenenter"",""5"",""24976""
","
","
","""event"",""trial"",""time""
""fullscreenenter"",""5"",""24976""
","
",414.59499998018146,NA,48,NA,NA,3000,1,NA,NA,images/earth.jpg,images/tutrocket1,images/tutrocket2,null,images/tutrocket1,NA,1,practice,null,2,NA,NA,NA,sub108
d3-animate-choice,83,440210,0.0-61.0-1.7,FALSE,TRUE,TRUE,TRUE,"""event"",""trial"",""time""
""fullscreenenter"",""5"",""24976""
","
","
","""event"",""trial"",""time""
""fullscreenenter"",""5"",""24976""
","
",461.47499996004626,NA,48,NA,NA,3000,1,NA,NA,images/tutyellowplanet.jpg,images/tutalien4,images/tutalien3,images/tutrocket1,images/tutalien4,images/t.png,2,practice,false,2,rare,1,2020-06-27T19:25:14Z,sub108
two-step-fixation,84,441218,0.0-61.0-2.7,FALSE,TRUE,TRUE,TRUE,"""event"",""trial"",""time""
""fullscreenenter"",""5"",""24976""
","
","
","""event"",""trial"",""time""
""fullscreenenter"",""5"",""24976""
","
",NA,images/earth.jpg,NA,NA,NA,NA,NA,NA,NA,NA,NA,NA,NA,NA,NA,fixation,NA,NA,NA,NA,NA,NA,sub108
d3-animate-choice,85,443482,0.0-61.0-0.8,FALSE,TRUE,TRUE,TRUE,"""event"",""trial"",""time""
""fullscreenenter"",""5"",""24976""
","
","
","""event"",""trial"",""time""
""fullscreenenter"",""5"",""24976""
","
",255.75500004924834,NA,49,NA,NA,3000,1,NA,NA,images/earth.jpg,images/tutrocket1,images/tutrocket2,null,images/tutrocket2,NA,1,practice,null,1,NA,NA,NA,sub108
d3-animate-choice,86,445734,0.0-61.0-1.8,FALSE,TRUE,TRUE,TRUE,"""event"",""trial"",""time""
""fullscreenenter"",""5"",""24976""
","
","
","""event"",""trial"",""time""
""fullscreenenter"",""5"",""24976""
","
",247.4299999885261,NA,49,NA,NA,3000,1,NA,NA,images/tutyellowplanet.jpg,images/tutalien4,images/tutalien3,images/tutrocket2,images/tutalien3,images/t.png,2,practice,true,1,common,1,2020-06-27T19:25:20Z,sub108
two-step-fixation,87,446738,0.0-61.0-2.8,FALSE,TRUE,TRUE,TRUE,"""event"",""trial"",""time""
""fullscreenenter"",""5"",""24976""
","
","
","""event"",""trial"",""time""
""fullscreenenter"",""5"",""24976""
","
",NA,images/earth.jpg,NA,NA,NA,NA,NA,NA,NA,NA,NA,NA,NA,NA,NA,fixation,NA,NA,NA,NA,NA,NA,sub108
d3-animate-choice,88,449138,0.0-61.0-0.9,FALSE,TRUE,TRUE,TRUE,"""event"",""trial"",""time""
""fullscreenenter"",""5"",""24976""
","
","
","""event"",""trial"",""time""
""fullscreenenter"",""5"",""24976""
","
",390.6950000091456,NA,48,NA,NA,3000,1,NA,NA,images/earth.jpg,images/tutrocket1,images/tutrocket2,null,images/tutrocket1,NA,1,practice,null,2,NA,NA,NA,sub108
d3-animate-choice,89,451524,0.0-61.0-1.9,FALSE,TRUE,TRUE,TRUE,"""event"",""trial"",""time""
""fullscreenenter"",""5"",""24976""
","
","
","""event"",""trial"",""time""
""fullscreenenter"",""5"",""24976""
","
",382.3299999930896,NA,48,NA,NA,3000,1,NA,NA,images/tutgreenplanet.jpg,images/tutalien2,images/tutalien1,images/tutrocket1,images/tutalien2,images/t.png,2,practice,true,2,common,1,2020-06-27T19:25:26Z,sub108
two-step-fixation,90,452536,0.0-61.0-2.9,FALSE,TRUE,TRUE,TRUE,"""event"",""trial"",""time""
""fullscreenenter"",""5"",""24976""
","
","
","""event"",""trial"",""time""
""fullscreenenter"",""5"",""24976""
","
",NA,images/earth.jpg,NA,NA,NA,NA,NA,NA,NA,NA,NA,NA,NA,NA,NA,fixation,NA,NA,NA,NA,NA,NA,sub108
d3-animate-choice,91,454884,0.0-61.0-0.10,FALSE,TRUE,TRUE,TRUE,"""event"",""trial"",""time""
""fullscreenenter"",""5"",""24976""
","
","
","""event"",""trial"",""time""
""fullscreenenter"",""5"",""24976""
","
",342.0800000312738,NA,49,NA,NA,3000,1,NA,NA,images/earth.jpg,images/tutrocket1,images/tutrocket2,null,images/tutrocket2,NA,1,practice,null,1,NA,NA,NA,sub108
d3-animate-choice,92,457228,0.0-61.0-1.10,FALSE,TRUE,TRUE,TRUE,"""event"",""trial"",""time""
""fullscreenenter"",""5"",""24976""
","
","
","""event"",""trial"",""time""
""fullscreenenter"",""5"",""24976""
","
",336.7100000032224,NA,49,NA,NA,3000,1,NA,NA,images/tutyellowplanet.jpg,images/tutalien4,images/tutalien3,images/tutrocket2,images/tutalien3,images/nothing.png,2,practice,true,1,common,0,2020-06-27T19:25:31Z,sub108
two-step-fixation,93,458237,0.0-61.0-2.10,FALSE,TRUE,TRUE,TRUE,"""event"",""trial"",""time""
""fullscreenenter"",""5"",""24976""
","
","
","""event"",""trial"",""time""
""fullscreenenter"",""5"",""24976""
","
",NA,images/earth.jpg,NA,NA,NA,NA,NA,NA,NA,NA,NA,NA,NA,NA,NA,fixation,NA,NA,NA,NA,NA,NA,sub108
d3-animate-choice,94,461423,0.0-61.0-0.11,FALSE,TRUE,TRUE,TRUE,"""event"",""trial"",""time""
""fullscreenenter"",""5"",""24976""
","
","
","""event"",""trial"",""time""
""fullscreenenter"",""5"",""24976""
","
",1178.7250000052154,NA,49,NA,NA,3000,1,NA,NA,images/earth.jpg,images/tutrocket1,images/tutrocket2,null,images/tutrocket2,NA,1,practice,null,1,NA,NA,NA,sub108
d3-animate-choice,95,463731,0.0-61.0-1.11,FALSE,TRUE,TRUE,TRUE,"""event"",""trial"",""time""
""fullscreenenter"",""5"",""24976""
","
","
","""event"",""trial"",""time""
""fullscreenenter"",""5"",""24976""
","
",302.3350000148639,NA,48,NA,NA,3000,1,NA,NA,images/tutgreenplanet.jpg,images/tutalien2,images/tutalien1,images/tutrocket2,images/tutalien2,images/nothing.png,2,practice,false,2,rare,0,2020-06-27T19:25:38Z,sub108
two-step-fixation,96,464740,0.0-61.0-2.11,FALSE,TRUE,TRUE,TRUE,"""event"",""trial"",""time""
""fullscreenenter"",""5"",""24976""
","
","
","""event"",""trial"",""time""
""fullscreenenter"",""5"",""24976""
","
",NA,images/earth.jpg,NA,NA,NA,NA,NA,NA,NA,NA,NA,NA,NA,NA,NA,fixation,NA,NA,NA,NA,NA,NA,sub108
d3-animate-choice,97,467029,0.0-61.0-0.12,FALSE,TRUE,TRUE,TRUE,"""event"",""trial"",""time""
""fullscreenenter"",""5"",""24976""
","
","
","""event"",""trial"",""time""
""fullscreenenter"",""5"",""24976""
","
",280.67500004544854,NA,49,NA,NA,3000,1,NA,NA,images/earth.jpg,images/tutrocket1,images/tutrocket2,null,images/tutrocket2,NA,1,practice,null,1,NA,NA,NA,sub108
d3-animate-choice,98,469390,0.0-61.0-1.12,FALSE,TRUE,TRUE,TRUE,"""event"",""trial"",""time""
""fullscreenenter"",""5"",""24976""
","
","
","""event"",""trial"",""time""
""fullscreenenter"",""5"",""24976""
","
",353.79999998258427,NA,48,NA,NA,3000,1,NA,NA,images/tutyellowplanet.jpg,images/tutalien4,images/tutalien3,images/tutrocket2,images/tutalien4,images/t.png,2,practice,true,2,common,1,2020-06-27T19:25:43Z,sub108
two-step-fixation,99,470398,0.0-61.0-2.12,FALSE,TRUE,TRUE,TRUE,"""event"",""trial"",""time""
""fullscreenenter"",""5"",""24976""
","
","
","""event"",""trial"",""time""
""fullscreenenter"",""5"",""24976""
","
",NA,images/earth.jpg,NA,NA,NA,NA,NA,NA,NA,NA,NA,NA,NA,NA,NA,fixation,NA,NA,NA,NA,NA,NA,sub108
d3-animate-choice,100,472767,0.0-61.0-0.13,FALSE,TRUE,TRUE,TRUE,"""event"",""trial"",""time""
""fullscreenenter"",""5"",""24976""
","
","
","""event"",""trial"",""time""
""fullscreenenter"",""5"",""24976""
","
",364.21500000869855,NA,48,NA,NA,3000,1,NA,NA,images/earth.jpg,images/tutrocket1,images/tutrocket2,null,images/tutrocket1,NA,1,practice,null,2,NA,NA,NA,sub108
d3-animate-choice,101,475136,0.0-61.0-1.13,FALSE,TRUE,TRUE,TRUE,"""event"",""trial"",""time""
""fullscreenenter"",""5"",""24976""
","
","
","""event"",""trial"",""time""
""fullscreenenter"",""5"",""24976""
","
",362.97499999636784,NA,49,NA,NA,3000,1,NA,NA,images/tutyellowplanet.jpg,images/tutalien4,images/tutalien3,images/tutrocket1,images/tutalien3,images/nothing.png,2,practice,false,1,rare,0,2020-06-27T19:25:49Z,sub108
two-step-fixation,102,476144,0.0-61.0-2.13,FALSE,TRUE,TRUE,TRUE,"""event"",""trial"",""time""
""fullscreenenter"",""5"",""24976""
","
","
","""event"",""trial"",""time""
""fullscreenenter"",""5"",""24976""
","
",NA,images/earth.jpg,NA,NA,NA,NA,NA,NA,NA,NA,NA,NA,NA,NA,NA,fixation,NA,NA,NA,NA,NA,NA,sub108
d3-animate-choice,103,478433,0.0-61.0-0.14,FALSE,TRUE,TRUE,TRUE,"""event"",""trial"",""time""
""fullscreenenter"",""5"",""24976""
","
","
","""event"",""trial"",""time""
""fullscreenenter"",""5"",""24976""
","
",278.98000000277534,NA,48,NA,NA,3000,1,NA,NA,images/earth.jpg,images/tutrocket1,images/tutrocket2,null,images/tutrocket1,NA,1,practice,null,2,NA,NA,NA,sub108
d3-animate-choice,104,480751,0.0-61.0-1.14,FALSE,TRUE,TRUE,TRUE,"""event"",""trial"",""time""
""fullscreenenter"",""5"",""24976""
","
","
","""event"",""trial"",""time""
""fullscreenenter"",""5"",""24976""
","
",314.31500002508983,NA,48,NA,NA,3000,1,NA,NA,images/tutgreenplanet.jpg,images/tutalien2,images/tutalien1,images/tutrocket1,images/tutalien2,images/nothing.png,2,practice,true,2,common,0,2020-06-27T19:25:55Z,sub108
two-step-fixation,105,481754,0.0-61.0-2.14,FALSE,TRUE,TRUE,TRUE,"""event"",""trial"",""time""
""fullscreenenter"",""5"",""24976""
","
","
","""event"",""trial"",""time""
""fullscreenenter"",""5"",""24976""
","
",NA,images/earth.jpg,NA,NA,NA,NA,NA,NA,NA,NA,NA,NA,NA,NA,NA,fixation,NA,NA,NA,NA,NA,NA,sub108
d3-animate-choice,106,483762,0.0-61.0-0.15,FALSE,TRUE,TRUE,TRUE,"""event"",""trial"",""time""
""fullscreenenter"",""5"",""24976""
","
","
","""event"",""trial"",""time""
""fullscreenenter"",""5"",""24976""
","
",1.120000029914081,NA,48,NA,NA,3000,1,NA,NA,images/earth.jpg,images/tutrocket1,images/tutrocket2,null,images/tutrocket1,NA,1,practice,null,2,NA,NA,NA,sub108
d3-animate-choice,107,486147,0.0-61.0-1.15,FALSE,TRUE,TRUE,TRUE,"""event"",""trial"",""time""
""fullscreenenter"",""5"",""24976""
","
","
","""event"",""trial"",""time""
""fullscreenenter"",""5"",""24976""
","
",376.6099999775179,NA,49,NA,NA,3000,1,NA,NA,images/tutyellowplanet.jpg,images/tutalien4,images/tutalien3,images/tutrocket1,images/tutalien3,images/t.png,2,practice,false,1,rare,1,2020-06-27T19:26:00Z,sub108
two-step-fixation,108,487155,0.0-61.0-2.15,FALSE,TRUE,TRUE,TRUE,"""event"",""trial"",""time""
""fullscreenenter"",""5"",""24976""
","
","
","""event"",""trial"",""time""
""fullscreenenter"",""5"",""24976""
","
",NA,images/earth.jpg,NA,NA,NA,NA,NA,NA,NA,NA,NA,NA,NA,NA,NA,fixation,NA,NA,NA,NA,NA,NA,sub108
d3-animate-choice,109,489411,0.0-61.0-0.16,FALSE,TRUE,TRUE,TRUE,"""event"",""trial"",""time""
""fullscreenenter"",""5"",""24976""
","
","
","""event"",""trial"",""time""
""fullscreenenter"",""5"",""24976""
","
",249.8749999795109,NA,49,NA,NA,3000,1,NA,NA,images/earth.jpg,images/tutrocket1,images/tutrocket2,null,images/tutrocket2,NA,1,practice,null,1,NA,NA,NA,sub108
d3-animate-choice,110,492352,0.0-61.0-1.16,FALSE,TRUE,TRUE,TRUE,"""event"",""trial"",""time""
""fullscreenenter"",""5"",""24976""
","
","
","""event"",""trial"",""time""
""fullscreenenter"",""5"",""24976""
","
",930.6600000127219,NA,48,NA,NA,3000,1,NA,NA,images/tutyellowplanet.jpg,images/tutalien4,images/tutalien3,images/tutrocket2,images/tutalien4,images/t.png,2,practice,true,2,common,1,2020-06-27T19:26:06Z,sub108
two-step-fixation,111,493362,0.0-61.0-2.16,FALSE,TRUE,TRUE,TRUE,"""event"",""trial"",""time""
""fullscreenenter"",""5"",""24976""
","
","
","""event"",""trial"",""time""
""fullscreenenter"",""5"",""24976""
","
",NA,images/earth.jpg,NA,NA,NA,NA,NA,NA,NA,NA,NA,NA,NA,NA,NA,fixation,NA,NA,NA,NA,NA,NA,sub108
d3-animate-choice,112,495642,0.0-61.0-0.17,FALSE,TRUE,TRUE,TRUE,"""event"",""trial"",""time""
""fullscreenenter"",""5"",""24976""
","
","
","""event"",""trial"",""time""
""fullscreenenter"",""5"",""24976""
","
",272.9500000132248,NA,48,NA,NA,3000,1,NA,NA,images/earth.jpg,images/tutrocket1,images/tutrocket2,null,images/tutrocket1,NA,1,practice,null,2,NA,NA,NA,sub108
d3-animate-choice,113,497956,0.0-61.0-1.17,FALSE,TRUE,TRUE,TRUE,"""event"",""trial"",""time""
""fullscreenenter"",""5"",""24976""
","
","
","""event"",""trial"",""time""
""fullscreenenter"",""5"",""24976""
","
",305.6499999947846,NA,49,NA,NA,3000,1,NA,NA,images/tutgreenplanet.jpg,images/tutalien2,images/tutalien1,images/tutrocket1,images/tutalien1,images/nothing.png,2,practice,true,1,common,0,2020-06-27T19:26:12Z,sub108
two-step-fixation,114,498964,0.0-61.0-2.17,FALSE,TRUE,TRUE,TRUE,"""event"",""trial"",""time""
""fullscreenenter"",""5"",""24976""
","
","
","""event"",""trial"",""time""
""fullscreenenter"",""5"",""24976""
","
",NA,images/earth.jpg,NA,NA,NA,NA,NA,NA,NA,NA,NA,NA,NA,NA,NA,fixation,NA,NA,NA,NA,NA,NA,sub108
d3-animate-choice,115,501319,0.0-61.0-0.18,FALSE,TRUE,TRUE,TRUE,"""event"",""trial"",""time""
""fullscreenenter"",""5"",""24976""
","
","
","""event"",""trial"",""time""
""fullscreenenter"",""5"",""24976""
","
",340.4500000178814,NA,48,NA,NA,3000,1,NA,NA,images/earth.jpg,images/tutrocket1,images/tutrocket2,null,images/tutrocket1,NA,1,practice,null,2,NA,NA,NA,sub108
d3-animate-choice,116,503751,0.0-61.0-1.18,FALSE,TRUE,TRUE,TRUE,"""event"",""trial"",""time""
""fullscreenenter"",""5"",""24976""
","
","
","""event"",""trial"",""time""
""fullscreenenter"",""5"",""24976""
","
",422.0150000182912,NA,48,NA,NA,3000,1,NA,NA,images/tutgreenplanet.jpg,images/tutalien2,images/tutalien1,images/tutrocket1,images/tutalien2,images/t.png,2,practice,true,2,common,1,2020-06-27T19:26:18Z,sub108
two-step-fixation,117,504756,0.0-61.0-2.18,FALSE,TRUE,TRUE,TRUE,"""event"",""trial"",""time""
""fullscreenenter"",""5"",""24976""
","
","
","""event"",""trial"",""time""
""fullscreenenter"",""5"",""24976""
","
",NA,images/earth.jpg,NA,NA,NA,NA,NA,NA,NA,NA,NA,NA,NA,NA,NA,fixation,NA,NA,NA,NA,NA,NA,sub108
d3-animate-choice,118,507055,0.0-61.0-0.19,FALSE,TRUE,TRUE,TRUE,"""event"",""trial"",""time""
""fullscreenenter"",""5"",""24976""
","
","
","""event"",""trial"",""time""
""fullscreenenter"",""5"",""24976""
","
",290.720000048168,NA,49,NA,NA,3000,1,NA,NA,images/earth.jpg,images/tutrocket1,images/tutrocket2,null,images/tutrocket2,NA,1,practice,null,1,NA,NA,NA,sub108
d3-animate-choice,119,509443,0.0-61.0-1.19,FALSE,TRUE,TRUE,TRUE,"""event"",""trial"",""time""
""fullscreenenter"",""5"",""24976""
","
","
","""event"",""trial"",""time""
""fullscreenenter"",""5"",""24976""
","
",378.12000000849366,NA,48,NA,NA,3000,1,NA,NA,images/tutyellowplanet.jpg,images/tutalien4,images/tutalien3,images/tutrocket2,images/tutalien4,images/t.png,2,practice,true,2,common,1,2020-06-27T19:26:23Z,sub108
two-step-fixation,120,510451,0.0-61.0-2.19,FALSE,TRUE,TRUE,TRUE,"""event"",""trial"",""time""
""fullscreenenter"",""5"",""24976""
","
","
","""event"",""trial"",""time""
""fullscreenenter"",""5"",""24976""
","
",NA,images/earth.jpg,NA,NA,NA,NA,NA,NA,NA,NA,NA,NA,NA,NA,NA,fixation,NA,NA,NA,NA,NA,NA,sub108
d3-instructions,121,518537,0.0-62.0,FALSE,TRUE,TRUE,TRUE,"""event"",""trial"",""time""
""fullscreenenter"",""5"",""24976""
","
","
","""event"",""trial"",""time""
""fullscreenenter"",""5"",""24976""
","
",NA,NA,NA,NA,NA,NA,NA,NA,NA,NA,NA,NA,NA,NA,NA,NA,NA,NA,NA,NA,NA,NA,sub108
audio-keyboard-response,122,522013,0.0-63.0,FALSE,TRUE,TRUE,TRUE,"""event"",""trial"",""time""
""fullscreenenter"",""5"",""24976""
","
","
","""event"",""trial"",""time""
""fullscreenenter"",""5"",""24976""
","
",3475,audio/instructions/treasure_feedback.wav,32,NA,NA,NA,NA,NA,NA,NA,NA,NA,NA,NA,NA,NA,NA,NA,NA,NA,NA,NA,sub108
d3-instructions,123,541748,0.0-64.0,FALSE,TRUE,TRUE,TRUE,"""event"",""trial"",""time""
""fullscreenenter"",""5"",""24976""
","
","
","""event"",""trial"",""time""
""fullscreenenter"",""5"",""24976""
","
",NA,NA,NA,NA,NA,NA,NA,NA,NA,NA,NA,NA,NA,NA,NA,NA,NA,NA,NA,NA,NA,NA,sub108
d3-instructions,124,561108,0.0-65.0,FALSE,TRUE,TRUE,TRUE,"""event"",""trial"",""time""
""fullscreenenter"",""5"",""24976""
","
","
","""event"",""trial"",""time""
""fullscreenenter"",""5"",""24976""
","
",NA,NA,NA,NA,NA,NA,NA,NA,NA,NA,NA,NA,NA,NA,NA,NA,NA,NA,NA,NA,NA,NA,sub108
d3-instructions,125,586310,0.0-66.0,FALSE,TRUE,TRUE,TRUE,"""event"",""trial"",""time""
""fullscreenenter"",""5"",""24976""
","
","
","""event"",""trial"",""time""
""fullscreenenter"",""5"",""24976""
","
",NA,NA,NA,NA,NA,NA,NA,NA,NA,NA,NA,NA,NA,NA,NA,NA,NA,NA,NA,NA,NA,NA,sub108
d3-instructions,126,602395,0.0-67.0,FALSE,TRUE,TRUE,TRUE,"""event"",""trial"",""time""
""fullscreenenter"",""5"",""24976""
","
","
","""event"",""trial"",""time""
""fullscreenenter"",""5"",""24976""
","
",NA,NA,NA,NA,NA,NA,NA,NA,NA,NA,NA,NA,NA,NA,NA,NA,NA,NA,NA,NA,NA,NA,sub108
d3-instructions,127,610719,0.0-68.0,FALSE,TRUE,TRUE,TRUE,"""event"",""trial"",""time""
""fullscreenenter"",""5"",""24976""
","
","
","""event"",""trial"",""time""
""fullscreenenter"",""5"",""24976""
","
",NA,NA,NA,NA,NA,NA,NA,NA,NA,NA,NA,NA,NA,NA,NA,NA,NA,NA,NA,NA,NA,NA,sub108
instructions-quiz,128,615497,0.0-69.0,FALSE,TRUE,TRUE,TRUE,"""event"",""trial"",""time""
""fullscreenenter"",""5"",""24976""
","
","
","""event"",""trial"",""time""
""fullscreenenter"",""5"",""24976""
","
",4775.4149999818765,audio/quiz/Q1_Prompt.wav,NA,1,NA,NA,NA,NA,NA,NA,NA,NA,NA,NA,NA,NA,NA,NA,NA,NA,NA,NA,sub108
audio-keyboard-response,129,624668,0.0-70.0,FALSE,TRUE,TRUE,TRUE,"""event"",""trial"",""time""
""fullscreenenter"",""5"",""24976""
","
","
","""event"",""trial"",""time""
""fullscreenenter"",""5"",""24976""
","
",null,audio/quiz/Q1_Correct.wav,null,NA,NA,NA,NA,NA,NA,NA,NA,NA,NA,NA,NA,NA,NA,NA,NA,NA,NA,NA,sub108
instructions-quiz,130,634122,0.0-71.0,FALSE,TRUE,TRUE,TRUE,"""event"",""trial"",""time""
""fullscreenenter"",""5"",""24976""
","
","
","""event"",""trial"",""time""
""fullscreenenter"",""5"",""24976""
","
",9456.999999994878,audio/quiz/Q2_Prompt.wav,NA,0,NA,NA,NA,NA,NA,NA,NA,NA,NA,NA,NA,NA,NA,NA,NA,NA,NA,NA,sub108
audio-keyboard-response,131,646992,0.0-72.0,FALSE,TRUE,TRUE,TRUE,"""event"",""trial"",""time""
""fullscreenenter"",""5"",""24976""
","
","
","""event"",""trial"",""time""
""fullscreenenter"",""5"",""24976""
","
",null,audio/quiz/Q2_Correct.wav,null,NA,NA,NA,NA,NA,NA,NA,NA,NA,NA,NA,NA,NA,NA,NA,NA,NA,NA,NA,sub108
instructions-quiz,132,651793,0.0-73.0,FALSE,TRUE,TRUE,TRUE,"""event"",""trial"",""time""
""fullscreenenter"",""5"",""24976""
","
","
","""event"",""trial"",""time""
""fullscreenenter"",""5"",""24976""
","
",4799.219999986235,audio/quiz/Q3_Prompt.wav,NA,1,NA,NA,NA,NA,NA,NA,NA,NA,NA,NA,NA,NA,NA,NA,NA,NA,NA,NA,sub108
audio-keyboard-response,133,657593,0.0-74.0,FALSE,TRUE,TRUE,TRUE,"""event"",""trial"",""time""
""fullscreenenter"",""5"",""24976""
","
","
","""event"",""trial"",""time""
""fullscreenenter"",""5"",""24976""
","
",null,audio/quiz/Q3_Correct.wav,null,NA,NA,NA,NA,NA,NA,NA,NA,NA,NA,NA,NA,NA,NA,NA,NA,NA,NA,NA,sub108
d3-instructions,134,671704,0.0-75.0,FALSE,TRUE,TRUE,TRUE,"""event"",""trial"",""time""
""fullscreenenter"",""5"",""24976""
","
","
","""event"",""trial"",""time""
""fullscreenenter"",""5"",""24976""
","
",NA,NA,NA,NA,NA,NA,NA,NA,NA,NA,NA,NA,NA,NA,NA,NA,NA,NA,NA,NA,NA,NA,sub108
d3-animate-choice,135,674611,0.0-76.0-0.0,FALSE,TRUE,TRUE,TRUE,"""event"",""trial"",""time""
""fullscreenenter"",""5"",""24976""
","
","
","""event"",""trial"",""time""
""fullscreenenter"",""5"",""24976""
","
",891.9849999947473,NA,49,NA,NA,3000,1,NA,NA,images/earth.jpg,images/rocket1,images/rocket2,null,images/rocket2,NA,1,real,null,1,NA,NA,NA,sub108
d3-animate-choice,136,677460,0.0-76.0-1.0,FALSE,TRUE,TRUE,TRUE,"""event"",""trial"",""time""
""fullscreenenter"",""5"",""24976""
","
","
","""event"",""trial"",""time""
""fullscreenenter"",""5"",""24976""
","
",843.7900000135414,NA,49,NA,NA,3000,1,NA,NA,images/redplanet1.jpg,images/alien2,images/alien1,images/rocket2,images/alien1,images/t.png,2,real,false,1,rare,1,2020-06-27T19:29:11Z,sub108
two-step-fixation,137,678467,0.0-76.0-2.0,FALSE,TRUE,TRUE,TRUE,"""event"",""trial"",""time""
""fullscreenenter"",""5"",""24976""
","
","
","""event"",""trial"",""time""
""fullscreenenter"",""5"",""24976""
","
",NA,images/earth.jpg,NA,NA,NA,NA,NA,NA,NA,NA,NA,NA,NA,NA,NA,fixation,NA,NA,NA,NA,NA,NA,sub108
d3-animate-choice,138,680764,0.0-76.0-0.1,FALSE,TRUE,TRUE,TRUE,"""event"",""trial"",""time""
""fullscreenenter"",""5"",""24976""
","
","
","""event"",""trial"",""time""
""fullscreenenter"",""5"",""24976""
","
",293.7750000273809,NA,49,NA,NA,3000,1,NA,NA,images/earth.jpg,images/rocket1,images/rocket2,null,images/rocket2,NA,1,real,null,1,NA,NA,NA,sub108
d3-animate-choice,139,683267,0.0-76.0-1.1,FALSE,TRUE,TRUE,TRUE,"""event"",""trial"",""time""
""fullscreenenter"",""5"",""24976""
","
","
","""event"",""trial"",""time""
""fullscreenenter"",""5"",""24976""
","
",496.9000000273809,NA,48,NA,NA,3000,1,NA,NA,images/purpleplanet.jpg,images/alien4,images/alien3,images/rocket2,images/alien4,images/nothing.png,2,real,true,2,common,0,2020-06-27T19:29:17Z,sub108
two-step-fixation,140,684281,0.0-76.0-2.1,FALSE,TRUE,TRUE,TRUE,"""event"",""trial"",""time""
""fullscreenenter"",""5"",""24976""
","
","
","""event"",""trial"",""time""
""fullscreenenter"",""5"",""24976""
","
",NA,images/earth.jpg,NA,NA,NA,NA,NA,NA,NA,NA,NA,NA,NA,NA,NA,fixation,NA,NA,NA,NA,NA,NA,sub108
d3-animate-choice,141,686504,0.0-76.0-0.2,FALSE,TRUE,TRUE,TRUE,"""event"",""trial"",""time""
""fullscreenenter"",""5"",""24976""
","
","
","""event"",""trial"",""time""
""fullscreenenter"",""5"",""24976""
","
",218.5350000509061,NA,49,NA,NA,3000,1,NA,NA,images/earth.jpg,images/rocket1,images/rocket2,null,images/rocket2,NA,1,real,null,1,NA,NA,NA,sub108
d3-animate-choice,142,689438,0.0-76.0-1.2,FALSE,TRUE,TRUE,TRUE,"""event"",""trial"",""time""
""fullscreenenter"",""5"",""24976""
","
","
","""event"",""trial"",""time""
""fullscreenenter"",""5"",""24976""
","
",923.7299999804236,NA,49,NA,NA,3000,1,NA,NA,images/purpleplanet.jpg,images/alien4,images/alien3,images/rocket2,images/alien3,images/nothing.png,2,real,true,1,common,0,2020-06-27T19:29:23Z,sub108
two-step-fixation,143,690441,0.0-76.0-2.2,FALSE,TRUE,TRUE,TRUE,"""event"",""trial"",""time""
""fullscreenenter"",""5"",""24976""
","
","
","""event"",""trial"",""time""
""fullscreenenter"",""5"",""24976""
","
",NA,images/earth.jpg,NA,NA,NA,NA,NA,NA,NA,NA,NA,NA,NA,NA,NA,fixation,NA,NA,NA,NA,NA,NA,sub108
d3-animate-choice,144,692492,0.0-76.0-0.3,FALSE,TRUE,TRUE,TRUE,"""event"",""trial"",""time""
""fullscreenenter"",""5"",""24976""
","
","
","""event"",""trial"",""time""
""fullscreenenter"",""5"",""24976""
","
",37.65499999281019,NA,48,NA,NA,3000,1,NA,NA,images/earth.jpg,images/rocket1,images/rocket2,null,images/rocket1,NA,1,real,null,2,NA,NA,NA,sub108
d3-animate-choice,145,695332,0.0-76.0-1.3,FALSE,TRUE,TRUE,TRUE,"""event"",""trial"",""time""
""fullscreenenter"",""5"",""24976""
","
","
","""event"",""trial"",""time""
""fullscreenenter"",""5"",""24976""
","
",833.5300000035204,NA,49,NA,NA,3000,1,NA,NA,images/redplanet1.jpg,images/alien2,images/alien1,images/rocket1,images/alien1,images/nothing.png,2,real,true,1,common,0,2020-06-27T19:29:29Z,sub108
two-step-fixation,146,696341,0.0-76.0-2.3,FALSE,TRUE,TRUE,TRUE,"""event"",""trial"",""time""
""fullscreenenter"",""5"",""24976""
","
","
","""event"",""trial"",""time""
""fullscreenenter"",""5"",""24976""
","
",NA,images/earth.jpg,NA,NA,NA,NA,NA,NA,NA,NA,NA,NA,NA,NA,NA,fixation,NA,NA,NA,NA,NA,NA,sub108
d3-animate-choice,147,698582,0.0-76.0-0.4,FALSE,TRUE,TRUE,TRUE,"""event"",""trial"",""time""
""fullscreenenter"",""5"",""24976""
","
","
","""event"",""trial"",""time""
""fullscreenenter"",""5"",""24976""
","
",233.36999997263774,NA,49,NA,NA,3000,1,NA,NA,images/earth.jpg,images/rocket1,images/rocket2,null,images/rocket2,NA,1,real,null,1,NA,NA,NA,sub108
d3-animate-choice,148,700972,0.0-76.0-1.4,FALSE,TRUE,TRUE,TRUE,"""event"",""trial"",""time""
""fullscreenenter"",""5"",""24976""
","
","
","""event"",""trial"",""time""
""fullscreenenter"",""5"",""24976""
","
",383.73000000137836,NA,48,NA,NA,3000,1,NA,NA,images/purpleplanet.jpg,images/alien4,images/alien3,images/rocket2,images/alien4,images/t.png,2,real,true,2,common,1,2020-06-27T19:29:35Z,sub108
two-step-fixation,149,701977,0.0-76.0-2.4,FALSE,TRUE,TRUE,TRUE,"""event"",""trial"",""time""
""fullscreenenter"",""5"",""24976""
","
","
","""event"",""trial"",""time""
""fullscreenenter"",""5"",""24976""
","
",NA,images/earth.jpg,NA,NA,NA,NA,NA,NA,NA,NA,NA,NA,NA,NA,NA,fixation,NA,NA,NA,NA,NA,NA,sub108
d3-animate-choice,150,704257,0.0-76.0-0.5,FALSE,TRUE,TRUE,TRUE,"""event"",""trial"",""time""
""fullscreenenter"",""5"",""24976""
","
","
","""event"",""trial"",""time""
""fullscreenenter"",""5"",""24976""
","
",268.09500000672415,NA,48,NA,NA,3000,1,NA,NA,images/earth.jpg,images/rocket1,images/rocket2,null,images/rocket1,NA,1,real,null,2,NA,NA,NA,sub108
d3-animate-choice,151,707066,0.0-76.0-1.5,FALSE,TRUE,TRUE,TRUE,"""event"",""trial"",""time""
""fullscreenenter"",""5"",""24976""
","
","
","""event"",""trial"",""time""
""fullscreenenter"",""5"",""24976""
","
",799.7249999898486,NA,49,NA,NA,3000,1,NA,NA,images/redplanet1.jpg,images/alien2,images/alien1,images/rocket1,images/alien1,images/nothing.png,2,real,true,1,common,0,2020-06-27T19:29:41Z,sub108
two-step-fixation,152,708074,0.0-76.0-2.5,FALSE,TRUE,TRUE,TRUE,"""event"",""trial"",""time""
""fullscreenenter"",""5"",""24976""
","
","
","""event"",""trial"",""time""
""fullscreenenter"",""5"",""24976""
","
",NA,images/earth.jpg,NA,NA,NA,NA,NA,NA,NA,NA,NA,NA,NA,NA,NA,fixation,NA,NA,NA,NA,NA,NA,sub108
d3-animate-choice,153,710314,0.0-76.0-0.6,FALSE,TRUE,TRUE,TRUE,"""event"",""trial"",""time""
""fullscreenenter"",""5"",""24976""
","
","
","""event"",""trial"",""time""
""fullscreenenter"",""5"",""24976""
","
",228.18500001449138,NA,48,NA,NA,3000,1,NA,NA,images/earth.jpg,images/rocket1,images/rocket2,null,images/rocket1,NA,1,real,null,2,NA,NA,NA,sub108
d3-animate-choice,154,713432,0.0-76.0-1.6,FALSE,TRUE,TRUE,TRUE,"""event"",""trial"",""time""
""fullscreenenter"",""5"",""24976""
","
","
","""event"",""trial"",""time""
""fullscreenenter"",""5"",""24976""
","
",1109.5799999893643,NA,48,NA,NA,3000,1,NA,NA,images/redplanet1.jpg,images/alien2,images/alien1,images/rocket1,images/alien2,images/t.png,2,real,true,2,common,1,2020-06-27T19:29:47Z,sub108
two-step-fixation,155,714442,0.0-76.0-2.6,FALSE,TRUE,TRUE,TRUE,"""event"",""trial"",""time""
""fullscreenenter"",""5"",""24976""
","
","
","""event"",""trial"",""time""
""fullscreenenter"",""5"",""24976""
","
",NA,images/earth.jpg,NA,NA,NA,NA,NA,NA,NA,NA,NA,NA,NA,NA,NA,fixation,NA,NA,NA,NA,NA,NA,sub108
d3-animate-choice,156,716530,0.0-76.0-0.7,FALSE,TRUE,TRUE,TRUE,"""event"",""trial"",""time""
""fullscreenenter"",""5"",""24976""
","
","
","""event"",""trial"",""time""
""fullscreenenter"",""5"",""24976""
","
",78.88000004459172,NA,49,NA,NA,3000,1,NA,NA,images/earth.jpg,images/rocket1,images/rocket2,null,images/rocket2,NA,1,real,null,1,NA,NA,NA,sub108
d3-animate-choice,157,719146,0.0-76.0-1.7,FALSE,TRUE,TRUE,TRUE,"""event"",""trial"",""time""
""fullscreenenter"",""5"",""24976""
","
","
","""event"",""trial"",""time""
""fullscreenenter"",""5"",""24976""
","
",604.6950000454672,NA,48,NA,NA,3000,1,NA,NA,images/purpleplanet.jpg,images/alien4,images/alien3,images/rocket2,images/alien4,images/nothing.png,2,real,true,2,common,0,2020-06-27T19:29:53Z,sub108
two-step-fixation,158,720155,0.0-76.0-2.7,FALSE,TRUE,TRUE,TRUE,"""event"",""trial"",""time""
""fullscreenenter"",""5"",""24976""
","
","
","""event"",""trial"",""time""
""fullscreenenter"",""5"",""24976""
","
",NA,images/earth.jpg,NA,NA,NA,NA,NA,NA,NA,NA,NA,NA,NA,NA,NA,fixation,NA,NA,NA,NA,NA,NA,sub108
d3-animate-choice,159,722459,0.0-76.0-0.8,FALSE,TRUE,TRUE,TRUE,"""event"",""trial"",""time""
""fullscreenenter"",""5"",""24976""
","
","
","""event"",""trial"",""time""
""fullscreenenter"",""5"",""24976""
","
",296.76500003552064,NA,49,NA,NA,3000,1,NA,NA,images/earth.jpg,images/rocket1,images/rocket2,null,images/rocket2,NA,1,real,null,1,NA,NA,NA,sub108
d3-animate-choice,160,724899,0.0-76.0-1.8,FALSE,TRUE,TRUE,TRUE,"""event"",""trial"",""time""
""fullscreenenter"",""5"",""24976""
","
","
","""event"",""trial"",""time""
""fullscreenenter"",""5"",""24976""
","
",430.10499997762963,NA,49,NA,NA,3000,1,NA,NA,images/purpleplanet.jpg,images/alien4,images/alien3,images/rocket2,images/alien3,images/t.png,2,real,true,1,common,1,2020-06-27T19:29:59Z,sub108
two-step-fixation,161,725907,0.0-76.0-2.8,FALSE,TRUE,TRUE,TRUE,"""event"",""trial"",""time""
""fullscreenenter"",""5"",""24976""
","
","
","""event"",""trial"",""time""
""fullscreenenter"",""5"",""24976""
","
",NA,images/earth.jpg,NA,NA,NA,NA,NA,NA,NA,NA,NA,NA,NA,NA,NA,fixation,NA,NA,NA,NA,NA,NA,sub108
d3-animate-choice,162,728267,0.0-76.0-0.9,FALSE,TRUE,TRUE,TRUE,"""event"",""trial"",""time""
""fullscreenenter"",""5"",""24976""
","
","
","""event"",""trial"",""time""
""fullscreenenter"",""5"",""24976""
","
",349.5699999621138,NA,49,NA,NA,3000,1,NA,NA,images/earth.jpg,images/rocket1,images/rocket2,null,images/rocket2,NA,1,real,null,1,NA,NA,NA,sub108
d3-animate-choice,163,731120,0.0-76.0-1.9,FALSE,TRUE,TRUE,TRUE,"""event"",""trial"",""time""
""fullscreenenter"",""5"",""24976""
","
","
","""event"",""trial"",""time""
""fullscreenenter"",""5"",""24976""
","
",845.2050000196323,NA,48,NA,NA,3000,1,NA,NA,images/redplanet1.jpg,images/alien2,images/alien1,images/rocket2,images/alien2,images/nothing.png,2,real,false,2,rare,0,2020-06-27T19:30:05Z,sub108
two-step-fixation,164,732128,0.0-76.0-2.9,FALSE,TRUE,TRUE,TRUE,"""event"",""trial"",""time""
""fullscreenenter"",""5"",""24976""
","
","
","""event"",""trial"",""time""
""fullscreenenter"",""5"",""24976""
","
",NA,images/earth.jpg,NA,NA,NA,NA,NA,NA,NA,NA,NA,NA,NA,NA,NA,fixation,NA,NA,NA,NA,NA,NA,sub108
d3-animate-choice,165,734464,0.0-76.0-0.10,FALSE,TRUE,TRUE,TRUE,"""event"",""trial"",""time""
""fullscreenenter"",""5"",""24976""
","
","
","""event"",""trial"",""time""
""fullscreenenter"",""5"",""24976""
","
",324.0900000091642,NA,49,NA,NA,3000,1,NA,NA,images/earth.jpg,images/rocket1,images/rocket2,null,images/rocket2,NA,1,real,null,1,NA,NA,NA,sub108
d3-animate-choice,166,737126,0.0-76.0-1.10,FALSE,TRUE,TRUE,TRUE,"""event"",""trial"",""time""
""fullscreenenter"",""5"",""24976""
","
","
","""event"",""trial"",""time""
""fullscreenenter"",""5"",""24976""
","
",657.2499999892898,NA,49,NA,NA,3000,1,NA,NA,images/redplanet1.jpg,images/alien2,images/alien1,images/rocket2,images/alien1,images/nothing.png,2,real,false,1,rare,0,2020-06-27T19:30:11Z,sub108
two-step-fixation,167,738134,0.0-76.0-2.10,FALSE,TRUE,TRUE,TRUE,"""event"",""trial"",""time""
""fullscreenenter"",""5"",""24976""
","
","
","""event"",""trial"",""time""
""fullscreenenter"",""5"",""24976""
","
",NA,images/earth.jpg,NA,NA,NA,NA,NA,NA,NA,NA,NA,NA,NA,NA,NA,fixation,NA,NA,NA,NA,NA,NA,sub108
d3-animate-choice,168,740415,0.0-76.0-0.11,FALSE,TRUE,TRUE,TRUE,"""event"",""trial"",""time""
""fullscreenenter"",""5"",""24976""
","
","
","""event"",""trial"",""time""
""fullscreenenter"",""5"",""24976""
","
",276.09999995911494,NA,48,NA,NA,3000,1,NA,NA,images/earth.jpg,images/rocket1,images/rocket2,null,images/rocket1,NA,1,real,null,2,NA,NA,NA,sub108
d3-animate-choice,169,742800,0.0-76.0-1.11,FALSE,TRUE,TRUE,TRUE,"""event"",""trial"",""time""
""fullscreenenter"",""5"",""24976""
","
","
","""event"",""trial"",""time""
""fullscreenenter"",""5"",""24976""
","
",380.0850000116043,NA,48,NA,NA,3000,1,NA,NA,images/redplanet1.jpg,images/alien2,images/alien1,images/rocket1,images/alien2,images/nothing.png,2,real,true,2,common,0,2020-06-27T19:30:17Z,sub108
two-step-fixation,170,743808,0.0-76.0-2.11,FALSE,TRUE,TRUE,TRUE,"""event"",""trial"",""time""
""fullscreenenter"",""5"",""24976""
","
","
","""event"",""trial"",""time""
""fullscreenenter"",""5"",""24976""
","
",NA,images/earth.jpg,NA,NA,NA,NA,NA,NA,NA,NA,NA,NA,NA,NA,NA,fixation,NA,NA,NA,NA,NA,NA,sub108
d3-animate-choice,171,746241,0.0-76.0-0.12,FALSE,TRUE,TRUE,TRUE,"""event"",""trial"",""time""
""fullscreenenter"",""5"",""24976""
","
","
","""event"",""trial"",""time""
""fullscreenenter"",""5"",""24976""
","
",424.6949999942444,NA,49,NA,NA,3000,1,NA,NA,images/earth.jpg,images/rocket1,images/rocket2,null,images/rocket2,NA,1,real,null,1,NA,NA,NA,sub108
d3-animate-choice,172,748613,0.0-76.0-1.12,FALSE,TRUE,TRUE,TRUE,"""event"",""trial"",""time""
""fullscreenenter"",""5"",""24976""
","
","
","""event"",""trial"",""time""
""fullscreenenter"",""5"",""24976""
","
",362.88000002969056,NA,48,NA,NA,3000,1,NA,NA,images/purpleplanet.jpg,images/alien4,images/alien3,images/rocket2,images/alien4,images/t.png,2,real,true,2,common,1,2020-06-27T19:30:23Z,sub108
two-step-fixation,173,749623,0.0-76.0-2.12,FALSE,TRUE,TRUE,TRUE,"""event"",""trial"",""time""
""fullscreenenter"",""5"",""24976""
","
","
","""event"",""trial"",""time""
""fullscreenenter"",""5"",""24976""
","
",NA,images/earth.jpg,NA,NA,NA,NA,NA,NA,NA,NA,NA,NA,NA,NA,NA,fixation,NA,NA,NA,NA,NA,NA,sub108
d3-animate-choice,174,751920,0.0-76.0-0.13,FALSE,TRUE,TRUE,TRUE,"""event"",""trial"",""time""
""fullscreenenter"",""5"",""24976""
","
","
","""event"",""trial"",""time""
""fullscreenenter"",""5"",""24976""
","
",285.68500000983477,NA,48,NA,NA,3000,1,NA,NA,images/earth.jpg,images/rocket1,images/rocket2,null,images/rocket1,NA,1,real,null,2,NA,NA,NA,sub108
d3-animate-choice,175,754428,0.0-76.0-1.13,FALSE,TRUE,TRUE,TRUE,"""event"",""trial"",""time""
""fullscreenenter"",""5"",""24976""
","
","
","""event"",""trial"",""time""
""fullscreenenter"",""5"",""24976""
","
",498.52000002283603,NA,49,NA,NA,3000,1,NA,NA,images/redplanet1.jpg,images/alien2,images/alien1,images/rocket1,images/alien1,images/nothing.png,2,real,true,1,common,0,2020-06-27T19:30:28Z,sub108
two-step-fixation,176,755441,0.0-76.0-2.13,FALSE,TRUE,TRUE,TRUE,"""event"",""trial"",""time""
""fullscreenenter"",""5"",""24976""
","
","
","""event"",""trial"",""time""
""fullscreenenter"",""5"",""24976""
","
",NA,images/earth.jpg,NA,NA,NA,NA,NA,NA,NA,NA,NA,NA,NA,NA,NA,fixation,NA,NA,NA,NA,NA,NA,sub108
d3-animate-choice,177,757730,0.0-76.0-0.14,FALSE,TRUE,TRUE,TRUE,"""event"",""trial"",""time""
""fullscreenenter"",""5"",""24976""
","
","
","""event"",""trial"",""time""
""fullscreenenter"",""5"",""24976""
","
",281.01500001503155,NA,48,NA,NA,3000,1,NA,NA,images/earth.jpg,images/rocket1,images/rocket2,null,images/rocket1,NA,1,real,null,2,NA,NA,NA,sub108
d3-animate-choice,178,760323,0.0-76.0-1.14,FALSE,TRUE,TRUE,TRUE,"""event"",""trial"",""time""
""fullscreenenter"",""5"",""24976""
","
","
","""event"",""trial"",""time""
""fullscreenenter"",""5"",""24976""
","
",581.3150000176392,NA,49,NA,NA,3000,1,NA,NA,images/redplanet1.jpg,images/alien2,images/alien1,images/rocket1,images/alien1,images/nothing.png,2,real,true,1,common,0,2020-06-27T19:30:34Z,sub108
two-step-fixation,179,761333,0.0-76.0-2.14,FALSE,TRUE,TRUE,TRUE,"""event"",""trial"",""time""
""fullscreenenter"",""5"",""24976""
","
","
","""event"",""trial"",""time""
""fullscreenenter"",""5"",""24976""
","
",NA,images/earth.jpg,NA,NA,NA,NA,NA,NA,NA,NA,NA,NA,NA,NA,NA,fixation,NA,NA,NA,NA,NA,NA,sub108
d3-animate-choice,180,763592,0.0-76.0-0.15,FALSE,TRUE,TRUE,TRUE,"""event"",""trial"",""time""
""fullscreenenter"",""5"",""24976""
","
","
","""event"",""trial"",""time""
""fullscreenenter"",""5"",""24976""
","
",253.98999999742955,NA,48,NA,NA,3000,1,NA,NA,images/earth.jpg,images/rocket1,images/rocket2,null,images/rocket1,NA,1,real,null,2,NA,NA,NA,sub108
d3-animate-choice,181,765985,0.0-76.0-1.15,FALSE,TRUE,TRUE,TRUE,"""event"",""trial"",""time""
""fullscreenenter"",""5"",""24976""
","
","
","""event"",""trial"",""time""
""fullscreenenter"",""5"",""24976""
","
",380.135000043083,NA,48,NA,NA,3000,1,NA,NA,images/redplanet1.jpg,images/alien2,images/alien1,images/rocket1,images/alien2,images/t.png,2,real,true,2,common,1,2020-06-27T19:30:40Z,sub108
two-step-fixation,182,766993,0.0-76.0-2.15,FALSE,TRUE,TRUE,TRUE,"""event"",""trial"",""time""
""fullscreenenter"",""5"",""24976""
","
","
","""event"",""trial"",""time""
""fullscreenenter"",""5"",""24976""
","
",NA,images/earth.jpg,NA,NA,NA,NA,NA,NA,NA,NA,NA,NA,NA,NA,NA,fixation,NA,NA,NA,NA,NA,NA,sub108
d3-animate-choice,183,769217,0.0-76.0-0.16,FALSE,TRUE,TRUE,TRUE,"""event"",""trial"",""time""
""fullscreenenter"",""5"",""24976""
","
","
","""event"",""trial"",""time""
""fullscreenenter"",""5"",""24976""
","
",216.79999999469146,NA,49,NA,NA,3000,1,NA,NA,images/earth.jpg,images/rocket1,images/rocket2,null,images/rocket2,NA,1,real,null,1,NA,NA,NA,sub108
d3-animate-choice,184,771489,0.0-76.0-1.16,FALSE,TRUE,TRUE,TRUE,"""event"",""trial"",""time""
""fullscreenenter"",""5"",""24976""
","
","
","""event"",""trial"",""time""
""fullscreenenter"",""5"",""24976""
","
",265.9099999582395,NA,48,NA,NA,3000,1,NA,NA,images/purpleplanet.jpg,images/alien4,images/alien3,images/rocket2,images/alien4,images/t.png,2,real,true,2,common,1,2020-06-27T19:30:45Z,sub108
two-step-fixation,185,772497,0.0-76.0-2.16,FALSE,TRUE,TRUE,TRUE,"""event"",""trial"",""time""
""fullscreenenter"",""5"",""24976""
","
","
","""event"",""trial"",""time""
""fullscreenenter"",""5"",""24976""
","
",NA,images/earth.jpg,NA,NA,NA,NA,NA,NA,NA,NA,NA,NA,NA,NA,NA,fixation,NA,NA,NA,NA,NA,NA,sub108
d3-animate-choice,186,774789,0.0-76.0-0.17,FALSE,TRUE,TRUE,TRUE,"""event"",""trial"",""time""
""fullscreenenter"",""5"",""24976""
","
","
","""event"",""trial"",""time""
""fullscreenenter"",""5"",""24976""
","
",286.95500001776963,NA,49,NA,NA,3000,1,NA,NA,images/earth.jpg,images/rocket1,images/rocket2,null,images/rocket2,NA,1,real,null,1,NA,NA,NA,sub108
d3-animate-choice,187,777153,0.0-76.0-1.17,FALSE,TRUE,TRUE,TRUE,"""event"",""trial"",""time""
""fullscreenenter"",""5"",""24976""
","
","
","""event"",""trial"",""time""
""fullscreenenter"",""5"",""24976""
","
",352.35499998088926,NA,48,NA,NA,3000,1,NA,NA,images/purpleplanet.jpg,images/alien4,images/alien3,images/rocket2,images/alien4,images/t.png,2,real,true,2,common,1,2020-06-27T19:30:51Z,sub108
two-step-fixation,188,778161,0.0-76.0-2.17,FALSE,TRUE,TRUE,TRUE,"""event"",""trial"",""time""
""fullscreenenter"",""5"",""24976""
","
","
","""event"",""trial"",""time""
""fullscreenenter"",""5"",""24976""
","
",NA,images/earth.jpg,NA,NA,NA,NA,NA,NA,NA,NA,NA,NA,NA,NA,NA,fixation,NA,NA,NA,NA,NA,NA,sub108
d3-animate-choice,189,780345,0.0-76.0-0.18,FALSE,TRUE,TRUE,TRUE,"""event"",""trial"",""time""
""fullscreenenter"",""5"",""24976""
","
","
","""event"",""trial"",""time""
""fullscreenenter"",""5"",""24976""
","
",177.90000000968575,NA,48,NA,NA,3000,1,NA,NA,images/earth.jpg,images/rocket1,images/rocket2,null,images/rocket1,NA,1,real,null,2,NA,NA,NA,sub108
d3-animate-choice,190,782962,0.0-76.0-1.18,FALSE,TRUE,TRUE,TRUE,"""event"",""trial"",""time""
""fullscreenenter"",""5"",""24976""
","
","
","""event"",""trial"",""time""
""fullscreenenter"",""5"",""24976""
","
",610.1950000156648,NA,49,NA,NA,3000,1,NA,NA,images/redplanet1.jpg,images/alien2,images/alien1,images/rocket1,images/alien1,images/t.png,2,real,true,1,common,1,2020-06-27T19:30:57Z,sub108
two-step-fixation,191,783970,0.0-76.0-2.18,FALSE,TRUE,TRUE,TRUE,"""event"",""trial"",""time""
""fullscreenenter"",""5"",""24976""
","
","
","""event"",""trial"",""time""
""fullscreenenter"",""5"",""24976""
","
",NA,images/earth.jpg,NA,NA,NA,NA,NA,NA,NA,NA,NA,NA,NA,NA,NA,fixation,NA,NA,NA,NA,NA,NA,sub108
d3-animate-choice,192,786155,0.0-76.0-0.19,FALSE,TRUE,TRUE,TRUE,"""event"",""trial"",""time""
""fullscreenenter"",""5"",""24976""
","
","
","""event"",""trial"",""time""
""fullscreenenter"",""5"",""24976""
","
",177.56999999983236,NA,48,NA,NA,3000,1,NA,NA,images/earth.jpg,images/rocket1,images/rocket2,null,images/rocket1,NA,1,real,null,2,NA,NA,NA,sub108
d3-animate-choice,193,789132,0.0-76.0-1.19,FALSE,TRUE,TRUE,TRUE,"""event"",""trial"",""time""
""fullscreenenter"",""5"",""24976""
","
","
","""event"",""trial"",""time""
""fullscreenenter"",""5"",""24976""
","
",966.6050000232644,NA,48,NA,NA,3000,1,NA,NA,images/purpleplanet.jpg,images/alien4,images/alien3,images/rocket1,images/alien4,images/t.png,2,real,false,2,rare,1,2020-06-27T19:31:03Z,sub108
two-step-fixation,194,790142,0.0-76.0-2.19,FALSE,TRUE,TRUE,TRUE,"""event"",""trial"",""time""
""fullscreenenter"",""5"",""24976""
","
","
","""event"",""trial"",""time""
""fullscreenenter"",""5"",""24976""
","
",NA,images/earth.jpg,NA,NA,NA,NA,NA,NA,NA,NA,NA,NA,NA,NA,NA,fixation,NA,NA,NA,NA,NA,NA,sub108
d3-animate-choice,195,792462,0.0-76.0-0.20,FALSE,TRUE,TRUE,TRUE,"""event"",""trial"",""time""
""fullscreenenter"",""5"",""24976""
","
","
","""event"",""trial"",""time""
""fullscreenenter"",""5"",""24976""
","
",308.0600000103004,NA,48,NA,NA,3000,1,NA,NA,images/earth.jpg,images/rocket1,images/rocket2,null,images/rocket1,NA,1,real,null,2,NA,NA,NA,sub108
d3-animate-choice,196,794806,0.0-76.0-1.20,FALSE,TRUE,TRUE,TRUE,"""event"",""trial"",""time""
""fullscreenenter"",""5"",""24976""
","
","
","""event"",""trial"",""time""
""fullscreenenter"",""5"",""24976""
","
",334.8800000385381,NA,49,NA,NA,3000,1,NA,NA,images/redplanet1.jpg,images/alien2,images/alien1,images/rocket1,images/alien1,images/t.png,2,real,true,1,common,1,2020-06-27T19:31:09Z,sub108
two-step-fixation,197,795812,0.0-76.0-2.20,FALSE,TRUE,TRUE,TRUE,"""event"",""trial"",""time""
""fullscreenenter"",""5"",""24976""
","
","
","""event"",""trial"",""time""
""fullscreenenter"",""5"",""24976""
","
",NA,images/earth.jpg,NA,NA,NA,NA,NA,NA,NA,NA,NA,NA,NA,NA,NA,fixation,NA,NA,NA,NA,NA,NA,sub108
d3-animate-choice,198,798340,0.0-76.0-0.21,FALSE,TRUE,TRUE,TRUE,"""event"",""trial"",""time""
""fullscreenenter"",""5"",""24976""
","
","
","""event"",""trial"",""time""
""fullscreenenter"",""5"",""24976""
","
",514.5049999700859,NA,48,NA,NA,3000,1,NA,NA,images/earth.jpg,images/rocket1,images/rocket2,null,images/rocket1,NA,1,real,null,2,NA,NA,NA,sub108
d3-animate-choice,199,800822,0.0-76.0-1.21,FALSE,TRUE,TRUE,TRUE,"""event"",""trial"",""time""
""fullscreenenter"",""5"",""24976""
","
","
","""event"",""trial"",""time""
""fullscreenenter"",""5"",""24976""
","
",476.77499998826534,NA,49,NA,NA,3000,1,NA,NA,images/redplanet1.jpg,images/alien2,images/alien1,images/rocket1,images/alien1,images/t.png,2,real,true,1,common,1,2020-06-27T19:31:15Z,sub108
two-step-fixation,200,801830,0.0-76.0-2.21,FALSE,TRUE,TRUE,TRUE,"""event"",""trial"",""time""
""fullscreenenter"",""5"",""24976""
","
","
","""event"",""trial"",""time""
""fullscreenenter"",""5"",""24976""
","
",NA,images/earth.jpg,NA,NA,NA,NA,NA,NA,NA,NA,NA,NA,NA,NA,NA,fixation,NA,NA,NA,NA,NA,NA,sub108
d3-animate-choice,201,804086,0.0-76.0-0.22,FALSE,TRUE,TRUE,TRUE,"""event"",""trial"",""time""
""fullscreenenter"",""5"",""24976""
","
","
","""event"",""trial"",""time""
""fullscreenenter"",""5"",""24976""
","
",242.52999998861924,NA,49,NA,NA,3000,1,NA,NA,images/earth.jpg,images/rocket1,images/rocket2,null,images/rocket2,NA,1,real,null,1,NA,NA,NA,sub108
d3-animate-choice,202,806288,0.0-76.0-1.22,FALSE,TRUE,TRUE,TRUE,"""event"",""trial"",""time""
""fullscreenenter"",""5"",""24976""
","
","
","""event"",""trial"",""time""
""fullscreenenter"",""5"",""24976""
","
",197.21499999286607,NA,48,NA,NA,3000,1,NA,NA,images/purpleplanet.jpg,images/alien4,images/alien3,images/rocket2,images/alien4,images/nothing.png,2,real,true,2,common,0,2020-06-27T19:31:20Z,sub108
two-step-fixation,203,807297,0.0-76.0-2.22,FALSE,TRUE,TRUE,TRUE,"""event"",""trial"",""time""
""fullscreenenter"",""5"",""24976""
","
","
","""event"",""trial"",""time""
""fullscreenenter"",""5"",""24976""
","
",NA,images/earth.jpg,NA,NA,NA,NA,NA,NA,NA,NA,NA,NA,NA,NA,NA,fixation,NA,NA,NA,NA,NA,NA,sub108
d3-animate-choice,204,809362,0.0-76.0-0.23,FALSE,TRUE,TRUE,TRUE,"""event"",""trial"",""time""
""fullscreenenter"",""5"",""24976""
","
","
","""event"",""trial"",""time""
""fullscreenenter"",""5"",""24976""
","
",55.619999999180436,NA,49,NA,NA,3000,1,NA,NA,images/earth.jpg,images/rocket1,images/rocket2,null,images/rocket2,NA,1,real,null,1,NA,NA,NA,sub108
d3-animate-choice,205,811687,0.0-76.0-1.23,FALSE,TRUE,TRUE,TRUE,"""event"",""trial"",""time""
""fullscreenenter"",""5"",""24976""
","
","
","""event"",""trial"",""time""
""fullscreenenter"",""5"",""24976""
","
",322.3700000089593,NA,49,NA,NA,3000,1,NA,NA,images/redplanet1.jpg,images/alien2,images/alien1,images/rocket2,images/alien1,images/t.png,2,real,false,1,rare,1,2020-06-27T19:31:26Z,sub108
two-step-fixation,206,812699,0.0-76.0-2.23,FALSE,TRUE,TRUE,TRUE,"""event"",""trial"",""time""
""fullscreenenter"",""5"",""24976""
","
","
","""event"",""trial"",""time""
""fullscreenenter"",""5"",""24976""
","
",NA,images/earth.jpg,NA,NA,NA,NA,NA,NA,NA,NA,NA,NA,NA,NA,NA,fixation,NA,NA,NA,NA,NA,NA,sub108
d3-animate-choice,207,814962,0.0-76.0-0.24,FALSE,TRUE,TRUE,TRUE,"""event"",""trial"",""time""
""fullscreenenter"",""5"",""24976""
","
","
","""event"",""trial"",""time""
""fullscreenenter"",""5"",""24976""
","
",257.5800000340678,NA,49,NA,NA,3000,1,NA,NA,images/earth.jpg,images/rocket1,images/rocket2,null,images/rocket2,NA,1,real,null,1,NA,NA,NA,sub108
d3-animate-choice,208,817027,0.0-76.0-1.24,FALSE,TRUE,TRUE,TRUE,"""event"",""trial"",""time""
""fullscreenenter"",""5"",""24976""
","
","
","""event"",""trial"",""time""
""fullscreenenter"",""5"",""24976""
","
",60.39500003680587,NA,49,NA,NA,3000,1,NA,NA,images/purpleplanet.jpg,images/alien4,images/alien3,images/rocket2,images/alien3,images/t.png,2,real,true,1,common,1,2020-06-27T19:31:31Z,sub108
two-step-fixation,209,818035,0.0-76.0-2.24,FALSE,TRUE,TRUE,TRUE,"""event"",""trial"",""time""
""fullscreenenter"",""5"",""24976""
","
","
","""event"",""trial"",""time""
""fullscreenenter"",""5"",""24976""
","
",NA,images/earth.jpg,NA,NA,NA,NA,NA,NA,NA,NA,NA,NA,NA,NA,NA,fixation,NA,NA,NA,NA,NA,NA,sub108
d3-animate-choice,210,820277,0.0-76.0-0.25,FALSE,TRUE,TRUE,TRUE,"""event"",""trial"",""time""
""fullscreenenter"",""5"",""24976""
","
","
","""event"",""trial"",""time""
""fullscreenenter"",""5"",""24976""
","
",233.59499999787658,NA,49,NA,NA,3000,1,NA,NA,images/earth.jpg,images/rocket1,images/rocket2,null,images/rocket2,NA,1,real,null,1,NA,NA,NA,sub108
d3-animate-choice,211,823349,0.0-76.0-1.25,FALSE,TRUE,TRUE,TRUE,"""event"",""trial"",""time""
""fullscreenenter"",""5"",""24976""
","
","
","""event"",""trial"",""time""
""fullscreenenter"",""5"",""24976""
","
",1069.3450000253506,NA,48,NA,NA,3000,1,NA,NA,images/purpleplanet.jpg,images/alien4,images/alien3,images/rocket2,images/alien4,images/nothing.png,2,real,true,2,common,0,2020-06-27T19:31:37Z,sub108
two-step-fixation,212,824357,0.0-76.0-2.25,FALSE,TRUE,TRUE,TRUE,"""event"",""trial"",""time""
""fullscreenenter"",""5"",""24976""
","
","
","""event"",""trial"",""time""
""fullscreenenter"",""5"",""24976""
","
",NA,images/earth.jpg,NA,NA,NA,NA,NA,NA,NA,NA,NA,NA,NA,NA,NA,fixation,NA,NA,NA,NA,NA,NA,sub108
d3-animate-choice,213,826501,0.0-76.0-0.26,FALSE,TRUE,TRUE,TRUE,"""event"",""trial"",""time""
""fullscreenenter"",""5"",""24976""
","
","
","""event"",""trial"",""time""
""fullscreenenter"",""5"",""24976""
","
",136.2249999656342,NA,48,NA,NA,3000,1,NA,NA,images/earth.jpg,images/rocket1,images/rocket2,null,images/rocket1,NA,1,real,null,2,NA,NA,NA,sub108
d3-animate-choice,214,828757,0.0-76.0-1.26,FALSE,TRUE,TRUE,TRUE,"""event"",""trial"",""time""
""fullscreenenter"",""5"",""24976""
","
","
","""event"",""trial"",""time""
""fullscreenenter"",""5"",""24976""
","
",247.26000003283843,NA,49,NA,NA,3000,1,NA,NA,images/redplanet1.jpg,images/alien2,images/alien1,images/rocket1,images/alien1,images/t.png,2,real,true,1,common,1,2020-06-27T19:31:43Z,sub108
two-step-fixation,215,829766,0.0-76.0-2.26,FALSE,TRUE,TRUE,TRUE,"""event"",""trial"",""time""
""fullscreenenter"",""5"",""24976""
","
","
","""event"",""trial"",""time""
""fullscreenenter"",""5"",""24976""
","
",NA,images/earth.jpg,NA,NA,NA,NA,NA,NA,NA,NA,NA,NA,NA,NA,NA,fixation,NA,NA,NA,NA,NA,NA,sub108
d3-animate-choice,216,832140,0.0-76.0-0.27,FALSE,TRUE,TRUE,TRUE,"""event"",""trial"",""time""
""fullscreenenter"",""5"",""24976""
","
","
","""event"",""trial"",""time""
""fullscreenenter"",""5"",""24976""
","
",369.55500004114583,NA,48,NA,NA,3000,1,NA,NA,images/earth.jpg,images/rocket1,images/rocket2,null,images/rocket1,NA,1,real,null,2,NA,NA,NA,sub108
d3-animate-choice,217,834400,0.0-76.0-1.27,FALSE,TRUE,TRUE,TRUE,"""event"",""trial"",""time""
""fullscreenenter"",""5"",""24976""
","
","
","""event"",""trial"",""time""
""fullscreenenter"",""5"",""24976""
","
",250.3800000413321,NA,49,NA,NA,3000,1,NA,NA,images/purpleplanet.jpg,images/alien4,images/alien3,images/rocket1,images/alien3,images/nothing.png,2,real,false,1,rare,0,2020-06-27T19:31:48Z,sub108
two-step-fixation,218,835408,0.0-76.0-2.27,FALSE,TRUE,TRUE,TRUE,"""event"",""trial"",""time""
""fullscreenenter"",""5"",""24976""
","
","
","""event"",""trial"",""time""
""fullscreenenter"",""5"",""24976""
","
",NA,images/earth.jpg,NA,NA,NA,NA,NA,NA,NA,NA,NA,NA,NA,NA,NA,fixation,NA,NA,NA,NA,NA,NA,sub108
d3-animate-choice,219,837802,0.0-76.0-0.28,FALSE,TRUE,TRUE,TRUE,"""event"",""trial"",""time""
""fullscreenenter"",""5"",""24976""
","
","
","""event"",""trial"",""time""
""fullscreenenter"",""5"",""24976""
","
",385.74499997776,NA,49,NA,NA,3000,1,NA,NA,images/earth.jpg,images/rocket1,images/rocket2,null,images/rocket2,NA,1,real,null,1,NA,NA,NA,sub108
d3-animate-choice,220,840154,0.0-76.0-1.28,FALSE,TRUE,TRUE,TRUE,"""event"",""trial"",""time""
""fullscreenenter"",""5"",""24976""
","
","
","""event"",""trial"",""time""
""fullscreenenter"",""5"",""24976""
","
",340.37999995052814,NA,48,NA,NA,3000,1,NA,NA,images/purpleplanet.jpg,images/alien4,images/alien3,images/rocket2,images/alien4,images/t.png,2,real,true,2,common,1,2020-06-27T19:31:54Z,sub108
two-step-fixation,221,841162,0.0-76.0-2.28,FALSE,TRUE,TRUE,TRUE,"""event"",""trial"",""time""
""fullscreenenter"",""5"",""24976""
","
","
","""event"",""trial"",""time""
""fullscreenenter"",""5"",""24976""
","
",NA,images/earth.jpg,NA,NA,NA,NA,NA,NA,NA,NA,NA,NA,NA,NA,NA,fixation,NA,NA,NA,NA,NA,NA,sub108
d3-animate-choice,222,843501,0.0-76.0-0.29,FALSE,TRUE,TRUE,TRUE,"""event"",""trial"",""time""
""fullscreenenter"",""5"",""24976""
","
","
","""event"",""trial"",""time""
""fullscreenenter"",""5"",""24976""
","
",332.94500003103167,NA,49,NA,NA,3000,1,NA,NA,images/earth.jpg,images/rocket1,images/rocket2,null,images/rocket2,NA,1,real,null,1,NA,NA,NA,sub108
d3-animate-choice,223,845875,0.0-76.0-1.29,FALSE,TRUE,TRUE,TRUE,"""event"",""trial"",""time""
""fullscreenenter"",""5"",""24976""
","
","
","""event"",""trial"",""time""
""fullscreenenter"",""5"",""24976""
","
",366.7099999729544,NA,48,NA,NA,3000,1,NA,NA,images/purpleplanet.jpg,images/alien4,images/alien3,images/rocket2,images/alien4,images/t.png,2,real,true,2,common,1,2020-06-27T19:32:00Z,sub108
two-step-fixation,224,846883,0.0-76.0-2.29,FALSE,TRUE,TRUE,TRUE,"""event"",""trial"",""time""
""fullscreenenter"",""5"",""24976""
","
","
","""event"",""trial"",""time""
""fullscreenenter"",""5"",""24976""
","
",NA,images/earth.jpg,NA,NA,NA,NA,NA,NA,NA,NA,NA,NA,NA,NA,NA,fixation,NA,NA,NA,NA,NA,NA,sub108
d3-animate-choice,225,849133,0.0-76.0-0.30,FALSE,TRUE,TRUE,TRUE,"""event"",""trial"",""time""
""fullscreenenter"",""5"",""24976""
","
","
","""event"",""trial"",""time""
""fullscreenenter"",""5"",""24976""
","
",243.51000000024214,NA,48,NA,NA,3000,1,NA,NA,images/earth.jpg,images/rocket1,images/rocket2,null,images/rocket1,NA,1,real,null,2,NA,NA,NA,sub108
d3-animate-choice,226,851396,0.0-76.0-1.30,FALSE,TRUE,TRUE,TRUE,"""event"",""trial"",""time""
""fullscreenenter"",""5"",""24976""
","
","
","""event"",""trial"",""time""
""fullscreenenter"",""5"",""24976""
","
",251.22999999439344,NA,49,NA,NA,3000,1,NA,NA,images/redplanet1.jpg,images/alien2,images/alien1,images/rocket1,images/alien1,images/t.png,2,real,true,1,common,1,2020-06-27T19:32:05Z,sub108
two-step-fixation,227,852404,0.0-76.0-2.30,FALSE,TRUE,TRUE,TRUE,"""event"",""trial"",""time""
""fullscreenenter"",""5"",""24976""
","
","
","""event"",""trial"",""time""
""fullscreenenter"",""5"",""24976""
","
",NA,images/earth.jpg,NA,NA,NA,NA,NA,NA,NA,NA,NA,NA,NA,NA,NA,fixation,NA,NA,NA,NA,NA,NA,sub108
d3-animate-choice,228,854676,0.0-76.0-0.31,FALSE,TRUE,TRUE,TRUE,"""event"",""trial"",""time""
""fullscreenenter"",""5"",""24976""
","
","
","""event"",""trial"",""time""
""fullscreenenter"",""5"",""24976""
","
",263.16999999107793,NA,48,NA,NA,3000,1,NA,NA,images/earth.jpg,images/rocket1,images/rocket2,null,images/rocket1,NA,1,real,null,2,NA,NA,NA,sub108
d3-animate-choice,229,856951,0.0-76.0-1.31,FALSE,TRUE,TRUE,TRUE,"""event"",""trial"",""time""
""fullscreenenter"",""5"",""24976""
","
","
","""event"",""trial"",""time""
""fullscreenenter"",""5"",""24976""
","
",267.43999996688217,NA,49,NA,NA,3000,1,NA,NA,images/redplanet1.jpg,images/alien2,images/alien1,images/rocket1,images/alien1,images/nothing.png,2,real,true,1,common,0,2020-06-27T19:32:11Z,sub108
two-step-fixation,230,857961,0.0-76.0-2.31,FALSE,TRUE,TRUE,TRUE,"""event"",""trial"",""time""
""fullscreenenter"",""5"",""24976""
","
","
","""event"",""trial"",""time""
""fullscreenenter"",""5"",""24976""
","
",NA,images/earth.jpg,NA,NA,NA,NA,NA,NA,NA,NA,NA,NA,NA,NA,NA,fixation,NA,NA,NA,NA,NA,NA,sub108
d3-animate-choice,231,860113,0.0-76.0-0.32,FALSE,TRUE,TRUE,TRUE,"""event"",""trial"",""time""
""fullscreenenter"",""5"",""24976""
","
","
","""event"",""trial"",""time""
""fullscreenenter"",""5"",""24976""
","
",145.0800000457093,NA,48,NA,NA,3000,1,NA,NA,images/earth.jpg,images/rocket1,images/rocket2,null,images/rocket1,NA,1,real,null,2,NA,NA,NA,sub108
d3-animate-choice,232,862537,0.0-76.0-1.32,FALSE,TRUE,TRUE,TRUE,"""event"",""trial"",""time""
""fullscreenenter"",""5"",""24976""
","
","
","""event"",""trial"",""time""
""fullscreenenter"",""5"",""24976""
","
",418.1899999966845,NA,48,NA,NA,3000,1,NA,NA,images/redplanet1.jpg,images/alien2,images/alien1,images/rocket1,images/alien2,images/t.png,2,real,true,2,common,1,2020-06-27T19:32:17Z,sub108
two-step-fixation,233,863547,0.0-76.0-2.32,FALSE,TRUE,TRUE,TRUE,"""event"",""trial"",""time""
""fullscreenenter"",""5"",""24976""
","
","
","""event"",""trial"",""time""
""fullscreenenter"",""5"",""24976""
","
",NA,images/earth.jpg,NA,NA,NA,NA,NA,NA,NA,NA,NA,NA,NA,NA,NA,fixation,NA,NA,NA,NA,NA,NA,sub108
d3-animate-choice,234,865999,0.0-76.0-0.33,FALSE,TRUE,TRUE,TRUE,"""event"",""trial"",""time""
""fullscreenenter"",""5"",""24976""
","
","
","""event"",""trial"",""time""
""fullscreenenter"",""5"",""24976""
","
",443.02499998593703,NA,49,NA,NA,3000,1,NA,NA,images/earth.jpg,images/rocket1,images/rocket2,null,images/rocket2,NA,1,real,null,1,NA,NA,NA,sub108
d3-animate-choice,235,868312,0.0-76.0-1.33,FALSE,TRUE,TRUE,TRUE,"""event"",""trial"",""time""
""fullscreenenter"",""5"",""24976""
","
","
","""event"",""trial"",""time""
""fullscreenenter"",""5"",""24976""
","
",300.25500000920147,NA,48,NA,NA,3000,1,NA,NA,images/purpleplanet.jpg,images/alien4,images/alien3,images/rocket2,images/alien4,images/t.png,2,real,true,2,common,1,2020-06-27T19:32:22Z,sub108
two-step-fixation,236,869323,0.0-76.0-2.33,FALSE,TRUE,TRUE,TRUE,"""event"",""trial"",""time""
""fullscreenenter"",""5"",""24976""
","
","
","""event"",""trial"",""time""
""fullscreenenter"",""5"",""24976""
","
",NA,images/earth.jpg,NA,NA,NA,NA,NA,NA,NA,NA,NA,NA,NA,NA,NA,fixation,NA,NA,NA,NA,NA,NA,sub108
d3-animate-choice,237,871596,0.0-76.0-0.34,FALSE,TRUE,TRUE,TRUE,"""event"",""trial"",""time""
""fullscreenenter"",""5"",""24976""
","
","
","""event"",""trial"",""time""
""fullscreenenter"",""5"",""24976""
","
",265.07500000298023,NA,49,NA,NA,3000,1,NA,NA,images/earth.jpg,images/rocket1,images/rocket2,null,images/rocket2,NA,1,real,null,1,NA,NA,NA,sub108
d3-animate-choice,238,873900,0.0-76.0-1.34,FALSE,TRUE,TRUE,TRUE,"""event"",""trial"",""time""
""fullscreenenter"",""5"",""24976""
","
","
","""event"",""trial"",""time""
""fullscreenenter"",""5"",""24976""
","
",294.0550000057556,NA,48,NA,NA,3000,1,NA,NA,images/purpleplanet.jpg,images/alien4,images/alien3,images/rocket2,images/alien4,images/t.png,2,real,true,2,common,1,2020-06-27T19:32:28Z,sub108
two-step-fixation,239,874908,0.0-76.0-2.34,FALSE,TRUE,TRUE,TRUE,"""event"",""trial"",""time""
""fullscreenenter"",""5"",""24976""
","
","
","""event"",""trial"",""time""
""fullscreenenter"",""5"",""24976""
","
",NA,images/earth.jpg,NA,NA,NA,NA,NA,NA,NA,NA,NA,NA,NA,NA,NA,fixation,NA,NA,NA,NA,NA,NA,sub108
d3-animate-choice,240,877149,0.0-76.0-0.35,FALSE,TRUE,TRUE,TRUE,"""event"",""trial"",""time""
""fullscreenenter"",""5"",""24976""
","
","
","""event"",""trial"",""time""
""fullscreenenter"",""5"",""24976""
","
",233.2499999902211,NA,49,NA,NA,3000,1,NA,NA,images/earth.jpg,images/rocket1,images/rocket2,null,images/rocket2,NA,1,real,null,1,NA,NA,NA,sub108
d3-animate-choice,241,879407,0.0-76.0-1.35,FALSE,TRUE,TRUE,TRUE,"""event"",""trial"",""time""
""fullscreenenter"",""5"",""24976""
","
","
","""event"",""trial"",""time""
""fullscreenenter"",""5"",""24976""
","
",249.9900000402704,NA,48,NA,NA,3000,1,NA,NA,images/purpleplanet.jpg,images/alien4,images/alien3,images/rocket2,images/alien4,images/t.png,2,real,true,2,common,1,2020-06-27T19:32:33Z,sub108
two-step-fixation,242,880415,0.0-76.0-2.35,FALSE,TRUE,TRUE,TRUE,"""event"",""trial"",""time""
""fullscreenenter"",""5"",""24976""
","
","
","""event"",""trial"",""time""
""fullscreenenter"",""5"",""24976""
","
",NA,images/earth.jpg,NA,NA,NA,NA,NA,NA,NA,NA,NA,NA,NA,NA,NA,fixation,NA,NA,NA,NA,NA,NA,sub108
d3-animate-choice,243,882716,0.0-76.0-0.36,FALSE,TRUE,TRUE,TRUE,"""event"",""trial"",""time""
""fullscreenenter"",""5"",""24976""
","
","
","""event"",""trial"",""time""
""fullscreenenter"",""5"",""24976""
","
",293.21000003255904,NA,48,NA,NA,3000,1,NA,NA,images/earth.jpg,images/rocket1,images/rocket2,null,images/rocket1,NA,1,real,null,2,NA,NA,NA,sub108
d3-animate-choice,244,885011,0.0-76.0-1.36,FALSE,TRUE,TRUE,TRUE,"""event"",""trial"",""time""
""fullscreenenter"",""5"",""24976""
","
","
","""event"",""trial"",""time""
""fullscreenenter"",""5"",""24976""
","
",288.2899999967776,NA,48,NA,NA,3000,1,NA,NA,images/redplanet1.jpg,images/alien2,images/alien1,images/rocket1,images/alien2,images/t.png,2,real,true,2,common,1,2020-06-27T19:32:39Z,sub108
two-step-fixation,245,886021,0.0-76.0-2.36,FALSE,TRUE,TRUE,TRUE,"""event"",""trial"",""time""
""fullscreenenter"",""5"",""24976""
","
","
","""event"",""trial"",""time""
""fullscreenenter"",""5"",""24976""
","
",NA,images/earth.jpg,NA,NA,NA,NA,NA,NA,NA,NA,NA,NA,NA,NA,NA,fixation,NA,NA,NA,NA,NA,NA,sub108
d3-animate-choice,246,888285,0.0-76.0-0.37,FALSE,TRUE,TRUE,TRUE,"""event"",""trial"",""time""
""fullscreenenter"",""5"",""24976""
","
","
","""event"",""trial"",""time""
""fullscreenenter"",""5"",""24976""
","
",257.09999998798594,NA,48,NA,NA,3000,1,NA,NA,images/earth.jpg,images/rocket1,images/rocket2,null,images/rocket1,NA,1,real,null,2,NA,NA,NA,sub108
d3-animate-choice,247,890664,0.0-76.0-1.37,FALSE,TRUE,TRUE,TRUE,"""event"",""trial"",""time""
""fullscreenenter"",""5"",""24976""
","
","
","""event"",""trial"",""time""
""fullscreenenter"",""5"",""24976""
","
",373.9449999993667,NA,48,NA,NA,3000,1,NA,NA,images/redplanet1.jpg,images/alien2,images/alien1,images/rocket1,images/alien2,images/nothing.png,2,real,true,2,common,0,2020-06-27T19:32:45Z,sub108
two-step-fixation,248,891672,0.0-76.0-2.37,FALSE,TRUE,TRUE,TRUE,"""event"",""trial"",""time""
""fullscreenenter"",""5"",""24976""
","
","
","""event"",""trial"",""time""
""fullscreenenter"",""5"",""24976""
","
",NA,images/earth.jpg,NA,NA,NA,NA,NA,NA,NA,NA,NA,NA,NA,NA,NA,fixation,NA,NA,NA,NA,NA,NA,sub108
d3-animate-choice,249,893976,0.0-76.0-0.38,FALSE,TRUE,TRUE,TRUE,"""event"",""trial"",""time""
""fullscreenenter"",""5"",""24976""
","
","
","""event"",""trial"",""time""
""fullscreenenter"",""5"",""24976""
","
",293.8499999581836,NA,48,NA,NA,3000,1,NA,NA,images/earth.jpg,images/rocket1,images/rocket2,null,images/rocket1,NA,1,real,null,2,NA,NA,NA,sub108
d3-animate-choice,250,896416,0.0-76.0-1.38,FALSE,TRUE,TRUE,TRUE,"""event"",""trial"",""time""
""fullscreenenter"",""5"",""24976""
","
","
","""event"",""trial"",""time""
""fullscreenenter"",""5"",""24976""
","
",429.95000001974404,NA,49,NA,NA,3000,1,NA,NA,images/redplanet1.jpg,images/alien2,images/alien1,images/rocket1,images/alien1,images/t.png,2,real,true,1,common,1,2020-06-27T19:32:50Z,sub108
two-step-fixation,251,897425,0.0-76.0-2.38,FALSE,TRUE,TRUE,TRUE,"""event"",""trial"",""time""
""fullscreenenter"",""5"",""24976""
","
","
","""event"",""trial"",""time""
""fullscreenenter"",""5"",""24976""
","
",NA,images/earth.jpg,NA,NA,NA,NA,NA,NA,NA,NA,NA,NA,NA,NA,NA,fixation,NA,NA,NA,NA,NA,NA,sub108
d3-animate-choice,252,899708,0.0-76.0-0.39,FALSE,TRUE,TRUE,TRUE,"""event"",""trial"",""time""
""fullscreenenter"",""5"",""24976""
","
","
","""event"",""trial"",""time""
""fullscreenenter"",""5"",""24976""
","
",274.9199999962002,NA,48,NA,NA,3000,1,NA,NA,images/earth.jpg,images/rocket1,images/rocket2,null,images/rocket1,NA,1,real,null,2,NA,NA,NA,sub108
d3-animate-choice,253,902136,0.0-76.0-1.39,FALSE,TRUE,TRUE,TRUE,"""event"",""trial"",""time""
""fullscreenenter"",""5"",""24976""
","
","
","""event"",""trial"",""time""
""fullscreenenter"",""5"",""24976""
","
",424.14999997708946,NA,49,NA,NA,3000,1,NA,NA,images/purpleplanet.jpg,images/alien4,images/alien3,images/rocket1,images/alien3,images/nothing.png,2,real,false,1,rare,0,2020-06-27T19:32:56Z,sub108
two-step-fixation,254,903139,0.0-76.0-2.39,FALSE,TRUE,TRUE,TRUE,"""event"",""trial"",""time""
""fullscreenenter"",""5"",""24976""
","
","
","""event"",""trial"",""time""
""fullscreenenter"",""5"",""24976""
","
",NA,images/earth.jpg,NA,NA,NA,NA,NA,NA,NA,NA,NA,NA,NA,NA,NA,fixation,NA,NA,NA,NA,NA,NA,sub108
d3-animate-choice,255,905592,0.0-76.0-0.40,FALSE,TRUE,TRUE,TRUE,"""event"",""trial"",""time""
""fullscreenenter"",""5"",""24976""
","
","
","""event"",""trial"",""time""
""fullscreenenter"",""5"",""24976""
","
",448.2500000158325,NA,49,NA,NA,3000,1,NA,NA,images/earth.jpg,images/rocket1,images/rocket2,null,images/rocket2,NA,1,real,null,1,NA,NA,NA,sub108
d3-animate-choice,256,909043,0.0-76.0-1.40,FALSE,TRUE,TRUE,TRUE,"""event"",""trial"",""time""
""fullscreenenter"",""5"",""24976""
","
","
","""event"",""trial"",""time""
""fullscreenenter"",""5"",""24976""
","
",1444.3849999806844,NA,48,NA,NA,3000,1,NA,NA,images/redplanet1.jpg,images/alien2,images/alien1,images/rocket2,images/alien2,images/t.png,2,real,false,2,rare,1,2020-06-27T19:33:03Z,sub108
two-step-fixation,257,910051,0.0-76.0-2.40,FALSE,TRUE,TRUE,TRUE,"""event"",""trial"",""time""
""fullscreenenter"",""5"",""24976""
","
","
","""event"",""trial"",""time""
""fullscreenenter"",""5"",""24976""
","
",NA,images/earth.jpg,NA,NA,NA,NA,NA,NA,NA,NA,NA,NA,NA,NA,NA,fixation,NA,NA,NA,NA,NA,NA,sub108
d3-animate-choice,258,912426,0.0-76.0-0.41,FALSE,TRUE,TRUE,TRUE,"""event"",""trial"",""time""
""fullscreenenter"",""5"",""24976""
","
","
","""event"",""trial"",""time""
""fullscreenenter"",""5"",""24976""
","
",365.1600000448525,NA,49,NA,NA,3000,1,NA,NA,images/earth.jpg,images/rocket1,images/rocket2,null,images/rocket2,NA,1,real,null,1,NA,NA,NA,sub108
d3-animate-choice,259,914691,0.0-76.0-1.41,FALSE,TRUE,TRUE,TRUE,"""event"",""trial"",""time""
""fullscreenenter"",""5"",""24976""
","
","
","""event"",""trial"",""time""
""fullscreenenter"",""5"",""24976""
","
",256.5250000334345,NA,48,NA,NA,3000,1,NA,NA,images/redplanet1.jpg,images/alien2,images/alien1,images/rocket2,images/alien2,images/nothing.png,2,real,false,2,rare,0,2020-06-27T19:33:09Z,sub108
two-step-fixation,260,915699,0.0-76.0-2.41,FALSE,TRUE,TRUE,TRUE,"""event"",""trial"",""time""
""fullscreenenter"",""5"",""24976""
","
","
","""event"",""trial"",""time""
""fullscreenenter"",""5"",""24976""
","
",NA,images/earth.jpg,NA,NA,NA,NA,NA,NA,NA,NA,NA,NA,NA,NA,NA,fixation,NA,NA,NA,NA,NA,NA,sub108
d3-animate-choice,261,918165,0.0-76.0-0.42,FALSE,TRUE,TRUE,TRUE,"""event"",""trial"",""time""
""fullscreenenter"",""5"",""24976""
","
","
","""event"",""trial"",""time""
""fullscreenenter"",""5"",""24976""
","
",458.6600000038743,NA,48,NA,NA,3000,1,NA,NA,images/earth.jpg,images/rocket1,images/rocket2,null,images/rocket1,NA,1,real,null,2,NA,NA,NA,sub108
d3-animate-choice,262,920508,0.0-76.0-1.42,FALSE,TRUE,TRUE,TRUE,"""event"",""trial"",""time""
""fullscreenenter"",""5"",""24976""
","
","
","""event"",""trial"",""time""
""fullscreenenter"",""5"",""24976""
","
",335.1099999854341,NA,49,NA,NA,3000,1,NA,NA,images/redplanet1.jpg,images/alien2,images/alien1,images/rocket1,images/alien1,images/nothing.png,2,real,true,1,common,0,2020-06-27T19:33:14Z,sub108
two-step-fixation,263,921513,0.0-76.0-2.42,FALSE,TRUE,TRUE,TRUE,"""event"",""trial"",""time""
""fullscreenenter"",""5"",""24976""
","
","
","""event"",""trial"",""time""
""fullscreenenter"",""5"",""24976""
","
",NA,images/earth.jpg,NA,NA,NA,NA,NA,NA,NA,NA,NA,NA,NA,NA,NA,fixation,NA,NA,NA,NA,NA,NA,sub108
d3-animate-choice,264,923972,0.0-76.0-0.43,FALSE,TRUE,TRUE,TRUE,"""event"",""trial"",""time""
""fullscreenenter"",""5"",""24976""
","
","
","""event"",""trial"",""time""
""fullscreenenter"",""5"",""24976""
","
",452.129999990575,NA,49,NA,NA,3000,1,NA,NA,images/earth.jpg,images/rocket1,images/rocket2,null,images/rocket2,NA,1,real,null,1,NA,NA,NA,sub108
d3-animate-choice,265,926454,0.0-76.0-1.43,FALSE,TRUE,TRUE,TRUE,"""event"",""trial"",""time""
""fullscreenenter"",""5"",""24976""
","
","
","""event"",""trial"",""time""
""fullscreenenter"",""5"",""24976""
","
",471.4650000096299,NA,49,NA,NA,3000,1,NA,NA,images/purpleplanet.jpg,images/alien4,images/alien3,images/rocket2,images/alien3,images/nothing.png,2,real,true,1,common,0,2020-06-27T19:33:20Z,sub108
two-step-fixation,266,927462,0.0-76.0-2.43,FALSE,TRUE,TRUE,TRUE,"""event"",""trial"",""time""
""fullscreenenter"",""5"",""24976""
","
","
","""event"",""trial"",""time""
""fullscreenenter"",""5"",""24976""
","
",NA,images/earth.jpg,NA,NA,NA,NA,NA,NA,NA,NA,NA,NA,NA,NA,NA,fixation,NA,NA,NA,NA,NA,NA,sub108
d3-animate-choice,267,929826,0.0-76.0-0.44,FALSE,TRUE,TRUE,TRUE,"""event"",""trial"",""time""
""fullscreenenter"",""5"",""24976""
","
","
","""event"",""trial"",""time""
""fullscreenenter"",""5"",""24976""
","
",354.07499998109415,NA,49,NA,NA,3000,1,NA,NA,images/earth.jpg,images/rocket1,images/rocket2,null,images/rocket2,NA,1,real,null,1,NA,NA,NA,sub108
d3-animate-choice,268,932442,0.0-76.0-1.44,FALSE,TRUE,TRUE,TRUE,"""event"",""trial"",""time""
""fullscreenenter"",""5"",""24976""
","
","
","""event"",""trial"",""time""
""fullscreenenter"",""5"",""24976""
","
",605.0500000128523,NA,48,NA,NA,3000,1,NA,NA,images/redplanet1.jpg,images/alien2,images/alien1,images/rocket2,images/alien2,images/nothing.png,2,real,false,2,rare,0,2020-06-27T19:33:26Z,sub108
two-step-fixation,269,933456,0.0-76.0-2.44,FALSE,TRUE,TRUE,TRUE,"""event"",""trial"",""time""
""fullscreenenter"",""5"",""24976""
","
","
","""event"",""trial"",""time""
""fullscreenenter"",""5"",""24976""
","
",NA,images/earth.jpg,NA,NA,NA,NA,NA,NA,NA,NA,NA,NA,NA,NA,NA,fixation,NA,NA,NA,NA,NA,NA,sub108
d3-animate-choice,270,936057,0.0-76.0-0.45,FALSE,TRUE,TRUE,TRUE,"""event"",""trial"",""time""
""fullscreenenter"",""5"",""24976""
","
","
","""event"",""trial"",""time""
""fullscreenenter"",""5"",""24976""
","
",594.3649999680929,NA,48,NA,NA,3000,1,NA,NA,images/earth.jpg,images/rocket1,images/rocket2,null,images/rocket1,NA,1,real,null,2,NA,NA,NA,sub108
d3-animate-choice,271,938654,0.0-76.0-1.45,FALSE,TRUE,TRUE,TRUE,"""event"",""trial"",""time""
""fullscreenenter"",""5"",""24976""
","
","
","""event"",""trial"",""time""
""fullscreenenter"",""5"",""24976""
","
",592.2850000206381,NA,48,NA,NA,3000,1,NA,NA,images/purpleplanet.jpg,images/alien4,images/alien3,images/rocket1,images/alien4,images/nothing.png,2,real,false,2,rare,0,2020-06-27T19:33:33Z,sub108
two-step-fixation,272,939660,0.0-76.0-2.45,FALSE,TRUE,TRUE,TRUE,"""event"",""trial"",""time""
""fullscreenenter"",""5"",""24976""
","
","
","""event"",""trial"",""time""
""fullscreenenter"",""5"",""24976""
","
",NA,images/earth.jpg,NA,NA,NA,NA,NA,NA,NA,NA,NA,NA,NA,NA,NA,fixation,NA,NA,NA,NA,NA,NA,sub108
d3-animate-choice,273,941826,0.0-76.0-0.46,FALSE,TRUE,TRUE,TRUE,"""event"",""trial"",""time""
""fullscreenenter"",""5"",""24976""
","
","
","""event"",""trial"",""time""
""fullscreenenter"",""5"",""24976""
","
",156.72999998787418,NA,48,NA,NA,3000,1,NA,NA,images/earth.jpg,images/rocket1,images/rocket2,null,images/rocket1,NA,1,real,null,2,NA,NA,NA,sub108
d3-animate-choice,274,944075,0.0-76.0-1.46,FALSE,TRUE,TRUE,TRUE,"""event"",""trial"",""time""
""fullscreenenter"",""5"",""24976""
","
","
","""event"",""trial"",""time""
""fullscreenenter"",""5"",""24976""
","
",243.39999997755513,NA,49,NA,NA,3000,1,NA,NA,images/redplanet1.jpg,images/alien2,images/alien1,images/rocket1,images/alien1,images/nothing.png,2,real,true,1,common,0,2020-06-27T19:33:38Z,sub108
two-step-fixation,275,945084,0.0-76.0-2.46,FALSE,TRUE,TRUE,TRUE,"""event"",""trial"",""time""
""fullscreenenter"",""5"",""24976""
","
","
","""event"",""trial"",""time""
""fullscreenenter"",""5"",""24976""
","
",NA,images/earth.jpg,NA,NA,NA,NA,NA,NA,NA,NA,NA,NA,NA,NA,NA,fixation,NA,NA,NA,NA,NA,NA,sub108
d3-animate-choice,276,947375,0.0-76.0-0.47,FALSE,TRUE,TRUE,TRUE,"""event"",""trial"",""time""
""fullscreenenter"",""5"",""24976""
","
","
","""event"",""trial"",""time""
""fullscreenenter"",""5"",""24976""
","
",284.56500003812835,NA,48,NA,NA,3000,1,NA,NA,images/earth.jpg,images/rocket1,images/rocket2,null,images/rocket1,NA,1,real,null,2,NA,NA,NA,sub108
d3-animate-choice,277,950008,0.0-76.0-1.47,FALSE,TRUE,TRUE,TRUE,"""event"",""trial"",""time""
""fullscreenenter"",""5"",""24976""
","
","
","""event"",""trial"",""time""
""fullscreenenter"",""5"",""24976""
","
",628.3750000293367,NA,48,NA,NA,3000,1,NA,NA,images/redplanet1.jpg,images/alien2,images/alien1,images/rocket1,images/alien2,images/t.png,2,real,true,2,common,1,2020-06-27T19:33:44Z,sub108
two-step-fixation,278,951018,0.0-76.0-2.47,FALSE,TRUE,TRUE,TRUE,"""event"",""trial"",""time""
""fullscreenenter"",""5"",""24976""
","
","
","""event"",""trial"",""time""
""fullscreenenter"",""5"",""24976""
","
",NA,images/earth.jpg,NA,NA,NA,NA,NA,NA,NA,NA,NA,NA,NA,NA,NA,fixation,NA,NA,NA,NA,NA,NA,sub108
d3-animate-choice,279,953238,0.0-76.0-0.48,FALSE,TRUE,TRUE,TRUE,"""event"",""trial"",""time""
""fullscreenenter"",""5"",""24976""
","
","
","""event"",""trial"",""time""
""fullscreenenter"",""5"",""24976""
","
",212.4700000276789,NA,48,NA,NA,3000,1,NA,NA,images/earth.jpg,images/rocket1,images/rocket2,null,images/rocket1,NA,1,real,null,2,NA,NA,NA,sub108
d3-animate-choice,280,955780,0.0-76.0-1.48,FALSE,TRUE,TRUE,TRUE,"""event"",""trial"",""time""
""fullscreenenter"",""5"",""24976""
","
","
","""event"",""trial"",""time""
""fullscreenenter"",""5"",""24976""
","
",534.95500003919,NA,48,NA,NA,3000,1,NA,NA,images/purpleplanet.jpg,images/alien4,images/alien3,images/rocket1,images/alien4,images/t.png,2,real,false,2,rare,1,2020-06-27T19:33:50Z,sub108
two-step-fixation,281,956787,0.0-76.0-2.48,FALSE,TRUE,TRUE,TRUE,"""event"",""trial"",""time""
""fullscreenenter"",""5"",""24976""
","
","
","""event"",""trial"",""time""
""fullscreenenter"",""5"",""24976""
","
",NA,images/earth.jpg,NA,NA,NA,NA,NA,NA,NA,NA,NA,NA,NA,NA,NA,fixation,NA,NA,NA,NA,NA,NA,sub108
d3-animate-choice,282,958817,0.0-76.0-0.49,FALSE,TRUE,TRUE,TRUE,"""event"",""trial"",""time""
""fullscreenenter"",""5"",""24976""
","
","
","""event"",""trial"",""time""
""fullscreenenter"",""5"",""24976""
","
",24.715000006835908,NA,48,NA,NA,3000,1,NA,NA,images/earth.jpg,images/rocket1,images/rocket2,null,images/rocket1,NA,1,real,null,2,NA,NA,NA,sub108
d3-animate-choice,283,961133,0.0-76.0-1.49,FALSE,TRUE,TRUE,TRUE,"""event"",""trial"",""time""
""fullscreenenter"",""5"",""24976""
","
","
","""event"",""trial"",""time""
""fullscreenenter"",""5"",""24976""
","
