trial_type,trial_index,time_elapsed,internal_node_id,rocket_sides,red_planet_first_rocket,red_display_order,purple_display_order,interactions,blur_events,focus_events,fullscreenenter_events,fullscreenexit_events,rt,stimulus,key_press,button_pressed,success,duration,valid_pressed,rts,keys,planet_text,right_text,left_text,center_text,chosen_text,reward_text,trial_stage,practice_trial,transition_type,choice,transition,reward,timestamp,subject_id
pavlovia,0,8,0.0-0.0,TRUE,FALSE,FALSE,TRUE,"
","
","
","
","
",NA,NA,NA,NA,NA,NA,NA,NA,NA,NA,NA,NA,NA,NA,NA,NA,NA,NA,NA,NA,NA,NA,sub55
html-keyboard-response,1,6516,0.0-1.0,TRUE,FALSE,FALSE,TRUE,"
","
","
","
","
",6506.935000012163,Welcome! Press the space bar to begin.,32,NA,NA,NA,NA,NA,NA,NA,NA,NA,NA,NA,NA,NA,NA,NA,NA,NA,NA,NA,sub55
audio-keyboard-response,2,13192,0.0-2.0,TRUE,FALSE,FALSE,TRUE,"
","
","
","
","
",6091,audio/beep_loop.wav,32,NA,NA,NA,NA,NA,NA,NA,NA,NA,NA,NA,NA,NA,NA,NA,NA,NA,NA,NA,sub55
audio-button-response,3,17242,0.0-3.0,TRUE,FALSE,FALSE,TRUE,"
","
","
","
","
",NaN,audio/fish.mp3,NA,1,NA,NA,NA,NA,NA,NA,NA,NA,NA,NA,NA,NA,NA,NA,NA,NA,NA,NA,sub55
audio-button-response,4,23348,0.0-4.0,TRUE,FALSE,FALSE,TRUE,"""event"",""trial"",""time""
""fullscreenenter"",""5"",""29259""
","
","
","""event"",""trial"",""time""
""fullscreenenter"",""5"",""29259""
","
",NaN,audio/tiger.mp3,NA,4,NA,NA,NA,NA,NA,NA,NA,NA,NA,NA,NA,NA,NA,NA,NA,NA,NA,NA,sub55
fullscreen,5,30027,0.0-5.0,TRUE,FALSE,FALSE,TRUE,"""event"",""trial"",""time""
""fullscreenenter"",""5"",""29259""
","
","
","""event"",""trial"",""time""
""fullscreenenter"",""5"",""29259""
","
",NA,NA,NA,NA,TRUE,NA,NA,NA,NA,NA,NA,NA,NA,NA,NA,NA,NA,NA,NA,NA,NA,NA,sub55
d3-instructions,6,44519,0.0-6.0,TRUE,FALSE,FALSE,TRUE,"""event"",""trial"",""time""
""fullscreenenter"",""5"",""29259""
","
","
","""event"",""trial"",""time""
""fullscreenenter"",""5"",""29259""
","
",NA,NA,NA,NA,NA,NA,NA,NA,NA,NA,NA,NA,NA,NA,NA,NA,NA,NA,NA,NA,NA,NA,sub55
d3-instructions,7,51902,0.0-7.0,TRUE,FALSE,FALSE,TRUE,"""event"",""trial"",""time""
""fullscreenenter"",""5"",""29259""
","
","
","""event"",""trial"",""time""
""fullscreenenter"",""5"",""29259""
","
",NA,NA,NA,NA,NA,NA,NA,NA,NA,NA,NA,NA,NA,NA,NA,NA,NA,NA,NA,NA,NA,NA,sub55
d3-instructions,8,58736,0.0-8.0,TRUE,FALSE,FALSE,TRUE,"""event"",""trial"",""time""
""fullscreenenter"",""5"",""29259""
","
","
","""event"",""trial"",""time""
""fullscreenenter"",""5"",""29259""
","
",NA,NA,NA,NA,NA,NA,NA,NA,NA,NA,NA,NA,NA,NA,NA,NA,NA,NA,NA,NA,NA,NA,sub55
d3-instructions,9,69479,0.0-9.0,TRUE,FALSE,FALSE,TRUE,"""event"",""trial"",""time""
""fullscreenenter"",""5"",""29259""
","
","
","""event"",""trial"",""time""
""fullscreenenter"",""5"",""29259""
","
",NA,NA,NA,NA,NA,NA,NA,NA,NA,NA,NA,NA,NA,NA,NA,NA,NA,NA,NA,NA,NA,NA,sub55
d3-instructions,10,89557,0.0-10.0,TRUE,FALSE,FALSE,TRUE,"""event"",""trial"",""time""
""fullscreenenter"",""5"",""29259""
","
","
","""event"",""trial"",""time""
""fullscreenenter"",""5"",""29259""
","
",NA,NA,NA,NA,NA,NA,NA,NA,NA,NA,NA,NA,NA,NA,NA,NA,NA,NA,NA,NA,NA,NA,sub55
d3-animate-choice,11,101606,0.0-11.0,TRUE,FALSE,FALSE,TRUE,"""event"",""trial"",""time""
""fullscreenenter"",""5"",""29259""
","
","
","""event"",""trial"",""time""
""fullscreenenter"",""5"",""29259""
","
",1422.869999994873,NA,35,NA,NA,3000,1,"2751.5350000030594,3289.4499999965774,5073.424999995041,5576.7199999972945,5924.49000000488,8446.4799999987,8748.754999993253,9071.230000001378,9410.66999999748,10040.695000003325,11558.525000000373",4535354535354536e6,images/tutgreenplanet.jpg,images/tutalien1,images/tutalien2,null,images/tutalien2,NA,NA,practice,null,NA,NA,NA,NA,sub55
d3-animate-choice,12,105073,0.0-12.0,TRUE,FALSE,FALSE,TRUE,"""event"",""trial"",""time""
""fullscreenenter"",""5"",""29259""
","
","
","""event"",""trial"",""time""
""fullscreenenter"",""5"",""29259""
","
",1461.8199999968056,NA,48,NA,NA,3000,1,NA,NA,images/tutgreenplanet.jpg,images/tutalien1,images/tutalien2,null,images/tutalien1,NA,NA,practice,null,NA,NA,NA,NA,sub55
d3-animate-choice,13,107931,0.0-13.0,TRUE,FALSE,FALSE,TRUE,"""event"",""trial"",""time""
""fullscreenenter"",""5"",""29259""
","
","
","""event"",""trial"",""time""
""fullscreenenter"",""5"",""29259""
","
",853.7300000025425,NA,49,NA,NA,3000,1,NA,NA,images/tutgreenplanet.jpg,images/tutalien1,images/tutalien2,null,images/tutalien2,NA,NA,practice,null,NA,NA,NA,NA,sub55
d3-animate-choice,14,110359,0.0-14.0,TRUE,FALSE,FALSE,TRUE,"""event"",""trial"",""time""
""fullscreenenter"",""5"",""29259""
","
","
","""event"",""trial"",""time""
""fullscreenenter"",""5"",""29259""
","
",424.4999999937136,NA,48,NA,NA,3000,1,NA,NA,images/tutgreenplanet.jpg,images/tutalien1,images/tutalien2,null,images/tutalien1,NA,NA,practice,null,NA,NA,NA,NA,sub55
d3-instructions,15,116770,0.0-15.0,TRUE,FALSE,FALSE,TRUE,"""event"",""trial"",""time""
""fullscreenenter"",""5"",""29259""
","
","
","""event"",""trial"",""time""
""fullscreenenter"",""5"",""29259""
","
",NA,NA,NA,NA,NA,NA,NA,NA,NA,NA,NA,NA,NA,NA,NA,NA,NA,NA,NA,NA,NA,NA,sub55
d3-instructions,16,123881,0.0-16.0,TRUE,FALSE,FALSE,TRUE,"""event"",""trial"",""time""
""fullscreenenter"",""5"",""29259""
","
","
","""event"",""trial"",""time""
""fullscreenenter"",""5"",""29259""
","
",NA,NA,NA,NA,NA,NA,NA,NA,NA,NA,NA,NA,NA,NA,NA,NA,NA,NA,NA,NA,NA,NA,sub55
d3-instructions,17,135112,0.0-17.0,TRUE,FALSE,FALSE,TRUE,"""event"",""trial"",""time""
""fullscreenenter"",""5"",""29259""
","
","
","""event"",""trial"",""time""
""fullscreenenter"",""5"",""29259""
","
",NA,NA,NA,NA,NA,NA,NA,NA,NA,NA,NA,NA,NA,NA,NA,NA,NA,NA,NA,NA,NA,NA,sub55
d3-instructions,18,148364,0.0-18.0,TRUE,FALSE,FALSE,TRUE,"""event"",""trial"",""time""
""fullscreenenter"",""5"",""29259""
","
","
","""event"",""trial"",""time""
""fullscreenenter"",""5"",""29259""
","
",NA,NA,NA,NA,NA,NA,NA,NA,NA,NA,NA,NA,NA,NA,NA,NA,NA,NA,NA,NA,NA,NA,sub55
d3-instructions,19,162211,0.0-19.0,TRUE,FALSE,FALSE,TRUE,"""event"",""trial"",""time""
""fullscreenenter"",""5"",""29259""
","
","
","""event"",""trial"",""time""
""fullscreenenter"",""5"",""29259""
","
",NA,NA,NA,NA,NA,NA,NA,NA,NA,NA,NA,NA,NA,NA,NA,NA,NA,NA,NA,NA,NA,NA,sub55
d3-animate-choice,20,165119,0.0-20.0,TRUE,FALSE,FALSE,TRUE,"""event"",""trial"",""time""
""fullscreenenter"",""5"",""29259""
","
","
","""event"",""trial"",""time""
""fullscreenenter"",""5"",""29259""
","
",904.2550000012852,NA,49,NA,NA,3000,1,NA,NA,images/tutyellowplanet.jpg,null,images/tutalien3,null,images/tutalien3,images/nothing.png,NA,practice,null,NA,NA,NA,NA,sub55
d3-animate-choice,21,167676,0.0-21.0,TRUE,FALSE,FALSE,TRUE,"""event"",""trial"",""time""
""fullscreenenter"",""5"",""29259""
","
","
","""event"",""trial"",""time""
""fullscreenenter"",""5"",""29259""
","
",553.025000001071,NA,49,NA,NA,3000,1,NA,NA,images/tutyellowplanet.jpg,null,images/tutalien3,null,images/tutalien3,images/t.png,NA,practice,null,NA,NA,NA,NA,sub55
d3-animate-choice,22,170166,0.0-22.0,TRUE,FALSE,FALSE,TRUE,"""event"",""trial"",""time""
""fullscreenenter"",""5"",""29259""
","
","
","""event"",""trial"",""time""
""fullscreenenter"",""5"",""29259""
","
",486.95999999472406,NA,49,NA,NA,3000,1,NA,NA,images/tutyellowplanet.jpg,null,images/tutalien3,null,images/tutalien3,images/nothing.png,NA,practice,null,NA,NA,NA,NA,sub55
d3-animate-choice,23,172697,0.0-23.0,TRUE,FALSE,FALSE,TRUE,"""event"",""trial"",""time""
""fullscreenenter"",""5"",""29259""
","
","
","""event"",""trial"",""time""
""fullscreenenter"",""5"",""29259""
","
",527.8350000007777,NA,49,NA,NA,3000,1,NA,NA,images/tutyellowplanet.jpg,null,images/tutalien3,null,images/tutalien3,images/t.png,NA,practice,null,NA,NA,NA,NA,sub55
d3-animate-choice,24,175280,0.0-24.0,TRUE,FALSE,FALSE,TRUE,"""event"",""trial"",""time""
""fullscreenenter"",""5"",""29259""
","
","
","""event"",""trial"",""time""
""fullscreenenter"",""5"",""29259""
","
",578.7549999949988,NA,49,NA,NA,3000,1,NA,NA,images/tutyellowplanet.jpg,null,images/tutalien3,null,images/tutalien3,images/t.png,NA,practice,null,NA,NA,NA,NA,sub55
d3-animate-choice,25,177760,0.0-25.0,TRUE,FALSE,FALSE,TRUE,"""event"",""trial"",""time""
""fullscreenenter"",""5"",""29259""
","
","
","""event"",""trial"",""time""
""fullscreenenter"",""5"",""29259""
","
",477.8950000036275,NA,49,NA,NA,3000,1,NA,NA,images/tutyellowplanet.jpg,null,images/tutalien3,null,images/tutalien3,images/nothing.png,NA,practice,null,NA,NA,NA,NA,sub55
d3-animate-choice,26,180268,0.0-26.0,TRUE,FALSE,FALSE,TRUE,"""event"",""trial"",""time""
""fullscreenenter"",""5"",""29259""
","
","
","""event"",""trial"",""time""
""fullscreenenter"",""5"",""29259""
","
",504.3500000028871,NA,49,NA,NA,3000,1,NA,NA,images/tutyellowplanet.jpg,null,images/tutalien3,null,images/tutalien3,images/t.png,NA,practice,null,NA,NA,NA,NA,sub55
d3-animate-choice,27,182741,0.0-27.0,TRUE,FALSE,FALSE,TRUE,"""event"",""trial"",""time""
""fullscreenenter"",""5"",""29259""
","
","
","""event"",""trial"",""time""
""fullscreenenter"",""5"",""29259""
","
",468.47999999590684,NA,49,NA,NA,3000,1,NA,NA,images/tutyellowplanet.jpg,null,images/tutalien3,null,images/tutalien3,images/t.png,NA,practice,null,NA,NA,NA,NA,sub55
d3-animate-choice,28,185298,0.0-28.0,TRUE,FALSE,FALSE,TRUE,"""event"",""trial"",""time""
""fullscreenenter"",""5"",""29259""
","
","
","""event"",""trial"",""time""
""fullscreenenter"",""5"",""29259""
","
",554.5050000073388,NA,49,NA,NA,3000,1,NA,NA,images/tutyellowplanet.jpg,null,images/tutalien3,null,images/tutalien3,images/t.png,NA,practice,null,NA,NA,NA,NA,sub55
d3-animate-choice,29,187805,0.0-29.0,TRUE,FALSE,FALSE,TRUE,"""event"",""trial"",""time""
""fullscreenenter"",""5"",""29259""
","
","
","""event"",""trial"",""time""
""fullscreenenter"",""5"",""29259""
","
",502.4649999977555,NA,49,NA,NA,3000,1,NA,NA,images/tutyellowplanet.jpg,null,images/tutalien3,null,images/tutalien3,images/t.png,NA,practice,null,NA,NA,NA,NA,sub55
d3-instructions,30,194047,0.0-30.0,TRUE,FALSE,FALSE,TRUE,"""event"",""trial"",""time""
""fullscreenenter"",""5"",""29259""
","
","
","""event"",""trial"",""time""
""fullscreenenter"",""5"",""29259""
","
",NA,NA,NA,NA,NA,NA,NA,NA,NA,NA,NA,NA,NA,NA,NA,NA,NA,NA,NA,NA,NA,NA,sub55
d3-instructions,31,204046,0.0-31.0,TRUE,FALSE,FALSE,TRUE,"""event"",""trial"",""time""
""fullscreenenter"",""5"",""29259""
","
","
","""event"",""trial"",""time""
""fullscreenenter"",""5"",""29259""
","
",NA,NA,NA,NA,NA,NA,NA,NA,NA,NA,NA,NA,NA,NA,NA,NA,NA,NA,NA,NA,NA,NA,sub55
d3-instructions,32,211716,0.0-32.0,TRUE,FALSE,FALSE,TRUE,"""event"",""trial"",""time""
""fullscreenenter"",""5"",""29259""
","
","
","""event"",""trial"",""time""
""fullscreenenter"",""5"",""29259""
","
",NA,NA,NA,NA,NA,NA,NA,NA,NA,NA,NA,NA,NA,NA,NA,NA,NA,NA,NA,NA,NA,NA,sub55
d3-instructions,33,222476,0.0-33.0,TRUE,FALSE,FALSE,TRUE,"""event"",""trial"",""time""
""fullscreenenter"",""5"",""29259""
","
","
","""event"",""trial"",""time""
""fullscreenenter"",""5"",""29259""
","
",NA,NA,NA,NA,NA,NA,NA,NA,NA,NA,NA,NA,NA,NA,NA,NA,NA,NA,NA,NA,NA,NA,sub55
d3-animate-choice,34,226469,0.0-34.0,TRUE,FALSE,FALSE,TRUE,"""event"",""trial"",""time""
""fullscreenenter"",""5"",""29259""
","
","
","""event"",""trial"",""time""
""fullscreenenter"",""5"",""29259""
","
",1989.5850000029895,NA,49,NA,NA,3000,1,NA,NA,images/tutgreenplanet.jpg,images/tutalien1,images/tutalien2,null,images/tutalien2,images/t.png,NA,practice,null,NA,NA,NA,NA,sub55
d3-animate-choice,35,228914,0.0-35.0,TRUE,FALSE,FALSE,TRUE,"""event"",""trial"",""time""
""fullscreenenter"",""5"",""29259""
","
","
","""event"",""trial"",""time""
""fullscreenenter"",""5"",""29259""
","
",441.0700000007637,NA,48,NA,NA,3000,1,NA,NA,images/tutgreenplanet.jpg,images/tutalien1,images/tutalien2,null,images/tutalien1,images/nothing.png,NA,practice,null,NA,NA,NA,NA,sub55
d3-animate-choice,36,231413,0.0-36.0,TRUE,FALSE,FALSE,TRUE,"""event"",""trial"",""time""
""fullscreenenter"",""5"",""29259""
","
","
","""event"",""trial"",""time""
""fullscreenenter"",""5"",""29259""
","
",496.3900000002468,NA,49,NA,NA,3000,1,NA,NA,images/tutgreenplanet.jpg,images/tutalien1,images/tutalien2,null,images/tutalien2,images/t.png,NA,practice,null,NA,NA,NA,NA,sub55
d3-animate-choice,37,234773,0.0-37.0,TRUE,FALSE,FALSE,TRUE,"""event"",""trial"",""time""
""fullscreenenter"",""5"",""29259""
","
","
","""event"",""trial"",""time""
""fullscreenenter"",""5"",""29259""
","
",1356.870000003255,NA,49,NA,NA,3000,1,NA,NA,images/tutgreenplanet.jpg,images/tutalien1,images/tutalien2,null,images/tutalien2,images/t.png,NA,practice,null,NA,NA,NA,NA,sub55
d3-animate-choice,38,237436,0.0-38.0,TRUE,FALSE,FALSE,TRUE,"""event"",""trial"",""time""
""fullscreenenter"",""5"",""29259""
","
","
","""event"",""trial"",""time""
""fullscreenenter"",""5"",""29259""
","
",659.6500000014203,NA,49,NA,NA,3000,1,NA,NA,images/tutgreenplanet.jpg,images/tutalien1,images/tutalien2,null,images/tutalien2,images/t.png,NA,practice,null,NA,NA,NA,NA,sub55
d3-animate-choice,39,239924,0.0-39.0,TRUE,FALSE,FALSE,TRUE,"""event"",""trial"",""time""
""fullscreenenter"",""5"",""29259""
","
","
","""event"",""trial"",""time""
""fullscreenenter"",""5"",""29259""
","
",485.36999999487307,NA,49,NA,NA,3000,1,NA,NA,images/tutgreenplanet.jpg,images/tutalien1,images/tutalien2,null,images/tutalien2,images/t.png,NA,practice,null,NA,NA,NA,NA,sub55
d3-animate-choice,40,242426,0.0-40.0,TRUE,FALSE,FALSE,TRUE,"""event"",""trial"",""time""
""fullscreenenter"",""5"",""29259""
","
","
","""event"",""trial"",""time""
""fullscreenenter"",""5"",""29259""
","
",499.47500000416767,NA,48,NA,NA,3000,1,NA,NA,images/tutgreenplanet.jpg,images/tutalien1,images/tutalien2,null,images/tutalien1,images/t.png,NA,practice,null,NA,NA,NA,NA,sub55
d3-animate-choice,41,244988,0.0-41.0,TRUE,FALSE,FALSE,TRUE,"""event"",""trial"",""time""
""fullscreenenter"",""5"",""29259""
","
","
","""event"",""trial"",""time""
""fullscreenenter"",""5"",""29259""
","
",558.0049999989569,NA,48,NA,NA,3000,1,NA,NA,images/tutgreenplanet.jpg,images/tutalien1,images/tutalien2,null,images/tutalien1,images/nothing.png,NA,practice,null,NA,NA,NA,NA,sub55
d3-animate-choice,42,247457,0.0-42.0,TRUE,FALSE,FALSE,TRUE,"""event"",""trial"",""time""
""fullscreenenter"",""5"",""29259""
","
","
","""event"",""trial"",""time""
""fullscreenenter"",""5"",""29259""
","
",465.5050000001211,NA,49,NA,NA,3000,1,NA,NA,images/tutgreenplanet.jpg,images/tutalien1,images/tutalien2,null,images/tutalien2,images/t.png,NA,practice,null,NA,NA,NA,NA,sub55
d3-animate-choice,43,249927,0.0-43.0,TRUE,FALSE,FALSE,TRUE,"""event"",""trial"",""time""
""fullscreenenter"",""5"",""29259""
","
","
","""event"",""trial"",""time""
""fullscreenenter"",""5"",""29259""
","
",467.05500000098255,NA,49,NA,NA,3000,1,NA,NA,images/tutgreenplanet.jpg,images/tutalien1,images/tutalien2,null,images/tutalien2,images/t.png,NA,practice,null,NA,NA,NA,NA,sub55
d3-instructions,44,263219,0.0-44.0,TRUE,FALSE,FALSE,TRUE,"""event"",""trial"",""time""
""fullscreenenter"",""5"",""29259""
","
","
","""event"",""trial"",""time""
""fullscreenenter"",""5"",""29259""
","
",NA,NA,NA,NA,NA,NA,NA,NA,NA,NA,NA,NA,NA,NA,NA,NA,NA,NA,NA,NA,NA,NA,sub55
d3-instructions,45,270384,0.0-45.0,TRUE,FALSE,FALSE,TRUE,"""event"",""trial"",""time""
""fullscreenenter"",""5"",""29259""
","
","
","""event"",""trial"",""time""
""fullscreenenter"",""5"",""29259""
","
",NA,NA,NA,NA,NA,NA,NA,NA,NA,NA,NA,NA,NA,NA,NA,NA,NA,NA,NA,NA,NA,NA,sub55
d3-instructions,46,276742,0.0-46.0,TRUE,FALSE,FALSE,TRUE,"""event"",""trial"",""time""
""fullscreenenter"",""5"",""29259""
","
","
","""event"",""trial"",""time""
""fullscreenenter"",""5"",""29259""
","
",NA,NA,NA,NA,NA,NA,NA,NA,NA,NA,NA,NA,NA,NA,NA,NA,NA,NA,NA,NA,NA,NA,sub55
d3-instructions,47,293663,0.0-47.0,TRUE,FALSE,FALSE,TRUE,"""event"",""trial"",""time""
""fullscreenenter"",""5"",""29259""
","
","
","""event"",""trial"",""time""
""fullscreenenter"",""5"",""29259""
","
",NA,NA,NA,NA,NA,NA,NA,NA,NA,NA,NA,NA,NA,NA,NA,NA,NA,NA,NA,NA,NA,NA,sub55
d3-instructions,48,304660,0.0-48.0,TRUE,FALSE,FALSE,TRUE,"""event"",""trial"",""time""
""fullscreenenter"",""5"",""29259""
","
","
","""event"",""trial"",""time""
""fullscreenenter"",""5"",""29259""
","
",NA,NA,NA,NA,NA,NA,NA,NA,NA,NA,NA,NA,NA,NA,NA,NA,NA,NA,NA,NA,NA,NA,sub55
d3-instructions,49,316653,0.0-49.0,TRUE,FALSE,FALSE,TRUE,"""event"",""trial"",""time""
""fullscreenenter"",""5"",""29259""
","
","
","""event"",""trial"",""time""
""fullscreenenter"",""5"",""29259""
","
",NA,NA,NA,NA,NA,NA,NA,NA,NA,NA,NA,NA,NA,NA,NA,NA,NA,NA,NA,NA,NA,NA,sub55
d3-instructions,50,325752,0.0-50.0,TRUE,FALSE,FALSE,TRUE,"""event"",""trial"",""time""
""fullscreenenter"",""5"",""29259""
","
","
","""event"",""trial"",""time""
""fullscreenenter"",""5"",""29259""
","
",NA,NA,NA,NA,NA,NA,NA,NA,NA,NA,NA,NA,NA,NA,NA,NA,NA,NA,NA,NA,NA,NA,sub55
d3-instructions,51,328693,0.0-51.0,TRUE,FALSE,FALSE,TRUE,"""event"",""trial"",""time""
""fullscreenenter"",""5"",""29259""
","
","
","""event"",""trial"",""time""
""fullscreenenter"",""5"",""29259""
","
",NA,NA,NA,NA,NA,NA,NA,NA,NA,NA,NA,NA,NA,NA,NA,NA,NA,NA,NA,NA,NA,NA,sub55
d3-instructions,52,331977,0.0-52.0,TRUE,FALSE,FALSE,TRUE,"""event"",""trial"",""time""
""fullscreenenter"",""5"",""29259""
","
","
","""event"",""trial"",""time""
""fullscreenenter"",""5"",""29259""
","
",NA,NA,NA,NA,NA,NA,NA,NA,NA,NA,NA,NA,NA,NA,NA,NA,NA,NA,NA,NA,NA,NA,sub55
d3-instructions,53,344020,0.0-53.0,TRUE,FALSE,FALSE,TRUE,"""event"",""trial"",""time""
""fullscreenenter"",""5"",""29259""
","
","
","""event"",""trial"",""time""
""fullscreenenter"",""5"",""29259""
","
",NA,NA,NA,NA,NA,NA,NA,NA,NA,NA,NA,NA,NA,NA,NA,NA,NA,NA,NA,NA,NA,NA,sub55
d3-instructions,54,356420,0.0-54.0,TRUE,FALSE,FALSE,TRUE,"""event"",""trial"",""time""
""fullscreenenter"",""5"",""29259""
","
","
","""event"",""trial"",""time""
""fullscreenenter"",""5"",""29259""
","
",NA,NA,NA,NA,NA,NA,NA,NA,NA,NA,NA,NA,NA,NA,NA,NA,NA,NA,NA,NA,NA,NA,sub55
d3-instructions,55,368690,0.0-55.0,TRUE,FALSE,FALSE,TRUE,"""event"",""trial"",""time""
""fullscreenenter"",""5"",""29259""
","
","
","""event"",""trial"",""time""
""fullscreenenter"",""5"",""29259""
","
",NA,NA,NA,NA,NA,NA,NA,NA,NA,NA,NA,NA,NA,NA,NA,NA,NA,NA,NA,NA,NA,NA,sub55
d3-instructions,56,378907,0.0-56.0,TRUE,FALSE,FALSE,TRUE,"""event"",""trial"",""time""
""fullscreenenter"",""5"",""29259""
","
","
","""event"",""trial"",""time""
""fullscreenenter"",""5"",""29259""
","
",NA,NA,NA,NA,NA,NA,NA,NA,NA,NA,NA,NA,NA,NA,NA,NA,NA,NA,NA,NA,NA,NA,sub55
d3-instructions,57,389410,0.0-57.0,TRUE,FALSE,FALSE,TRUE,"""event"",""trial"",""time""
""fullscreenenter"",""5"",""29259""
","
","
","""event"",""trial"",""time""
""fullscreenenter"",""5"",""29259""
","
",NA,NA,NA,NA,NA,NA,NA,NA,NA,NA,NA,NA,NA,NA,NA,NA,NA,NA,NA,NA,NA,NA,sub55
d3-instructions,58,399945,0.0-58.0,TRUE,FALSE,FALSE,TRUE,"""event"",""trial"",""time""
""fullscreenenter"",""5"",""29259""
","
","
","""event"",""trial"",""time""
""fullscreenenter"",""5"",""29259""
","
",NA,NA,NA,NA,NA,NA,NA,NA,NA,NA,NA,NA,NA,NA,NA,NA,NA,NA,NA,NA,NA,NA,sub55
d3-instructions,59,404916,0.0-59.0,TRUE,FALSE,FALSE,TRUE,"""event"",""trial"",""time""
""fullscreenenter"",""5"",""29259""
","
","
","""event"",""trial"",""time""
""fullscreenenter"",""5"",""29259""
","
",NA,NA,NA,NA,NA,NA,NA,NA,NA,NA,NA,NA,NA,NA,NA,NA,NA,NA,NA,NA,NA,NA,sub55
d3-instructions,60,413178,0.0-60.0,TRUE,FALSE,FALSE,TRUE,"""event"",""trial"",""time""
""fullscreenenter"",""5"",""29259""
","
","
","""event"",""trial"",""time""
""fullscreenenter"",""5"",""29259""
","
",NA,NA,NA,NA,NA,NA,NA,NA,NA,NA,NA,NA,NA,NA,NA,NA,NA,NA,NA,NA,NA,NA,sub55
d3-animate-choice,61,416596,0.0-61.0-0.0,TRUE,FALSE,FALSE,TRUE,"""event"",""trial"",""time""
""fullscreenenter"",""5"",""29259""
","
","
","""event"",""trial"",""time""
""fullscreenenter"",""5"",""29259""
","
",1414.2399999982445,NA,49,NA,NA,3000,1,NA,NA,images/earth.jpg,images/tutrocket1,images/tutrocket2,null,images/tutrocket2,NA,1,practice,null,1,NA,NA,NA,sub55
d3-animate-choice,62,420602,0.0-61.0-1.0,TRUE,FALSE,FALSE,TRUE,"""event"",""trial"",""time""
""fullscreenenter"",""5"",""29259""
","
","
","""event"",""trial"",""time""
""fullscreenenter"",""5"",""29259""
","
",2392.0949999883305,NA,48,NA,NA,3000,1,NA,NA,images/tutgreenplanet.jpg,images/tutalien2,images/tutalien1,images/tutrocket2,images/tutalien2,images/nothing.png,2,practice,true,2,common,0,2020-06-12T19:37:41Z,sub55
two-step-fixation,63,421609,0.0-61.0-2.0,TRUE,FALSE,FALSE,TRUE,"""event"",""trial"",""time""
""fullscreenenter"",""5"",""29259""
","
","
","""event"",""trial"",""time""
""fullscreenenter"",""5"",""29259""
","
",NA,images/earth.jpg,NA,NA,NA,NA,NA,NA,NA,NA,NA,NA,NA,NA,NA,fixation,NA,NA,NA,NA,NA,NA,sub55
d3-animate-choice,64,424525,0.0-61.0-0.1,TRUE,FALSE,FALSE,TRUE,"""event"",""trial"",""time""
""fullscreenenter"",""5"",""29259""
","
","
","""event"",""trial"",""time""
""fullscreenenter"",""5"",""29259""
","
",913.4950000006938,NA,48,NA,NA,3000,1,NA,NA,images/earth.jpg,images/tutrocket1,images/tutrocket2,null,images/tutrocket1,NA,1,practice,null,2,NA,NA,NA,sub55
d3-animate-choice,65,427421,0.0-61.0-1.1,TRUE,FALSE,FALSE,TRUE,"""event"",""trial"",""time""
""fullscreenenter"",""5"",""29259""
","
","
","""event"",""trial"",""time""
""fullscreenenter"",""5"",""29259""
","
",893.0649999965681,NA,49,NA,NA,3000,1,NA,NA,images/tutgreenplanet.jpg,images/tutalien2,images/tutalien1,images/tutrocket1,images/tutalien1,images/nothing.png,2,practice,false,1,rare,0,2020-06-12T19:37:48Z,sub55
two-step-fixation,66,428424,0.0-61.0-2.1,TRUE,FALSE,FALSE,TRUE,"""event"",""trial"",""time""
""fullscreenenter"",""5"",""29259""
","
","
","""event"",""trial"",""time""
""fullscreenenter"",""5"",""29259""
","
",NA,images/earth.jpg,NA,NA,NA,NA,NA,NA,NA,NA,NA,NA,NA,NA,NA,fixation,NA,NA,NA,NA,NA,NA,sub55
d3-animate-choice,67,430900,0.0-61.0-0.2,TRUE,FALSE,FALSE,TRUE,"""event"",""trial"",""time""
""fullscreenenter"",""5"",""29259""
","
","
","""event"",""trial"",""time""
""fullscreenenter"",""5"",""29259""
","
",471.83500000392087,NA,49,NA,NA,3000,1,NA,NA,images/earth.jpg,images/tutrocket1,images/tutrocket2,null,images/tutrocket2,NA,1,practice,null,1,NA,NA,NA,sub55
d3-animate-choice,68,433680,0.0-61.0-1.2,TRUE,FALSE,FALSE,TRUE,"""event"",""trial"",""time""
""fullscreenenter"",""5"",""29259""
","
","
","""event"",""trial"",""time""
""fullscreenenter"",""5"",""29259""
","
",776.8099999957485,NA,48,NA,NA,3000,1,NA,NA,images/tutgreenplanet.jpg,images/tutalien2,images/tutalien1,images/tutrocket2,images/tutalien2,images/nothing.png,2,practice,true,2,common,0,2020-06-12T19:37:55Z,sub55
two-step-fixation,69,434683,0.0-61.0-2.2,TRUE,FALSE,FALSE,TRUE,"""event"",""trial"",""time""
""fullscreenenter"",""5"",""29259""
","
","
","""event"",""trial"",""time""
""fullscreenenter"",""5"",""29259""
","
",NA,images/earth.jpg,NA,NA,NA,NA,NA,NA,NA,NA,NA,NA,NA,NA,NA,fixation,NA,NA,NA,NA,NA,NA,sub55
d3-animate-choice,70,437179,0.0-61.0-0.3,TRUE,FALSE,FALSE,TRUE,"""event"",""trial"",""time""
""fullscreenenter"",""5"",""29259""
","
","
","""event"",""trial"",""time""
""fullscreenenter"",""5"",""29259""
","
",491.56500000390224,NA,48,NA,NA,3000,1,NA,NA,images/earth.jpg,images/tutrocket1,images/tutrocket2,null,images/tutrocket1,NA,1,practice,null,2,NA,NA,NA,sub55
d3-animate-choice,71,439973,0.0-61.0-1.3,TRUE,FALSE,FALSE,TRUE,"""event"",""trial"",""time""
""fullscreenenter"",""5"",""29259""
","
","
","""event"",""trial"",""time""
""fullscreenenter"",""5"",""29259""
","
",789.3049999984214,NA,49,NA,NA,3000,1,NA,NA,images/tutyellowplanet.jpg,images/tutalien4,images/tutalien3,images/tutrocket1,images/tutalien3,images/nothing.png,2,practice,true,1,common,0,2020-06-12T19:38:01Z,sub55
two-step-fixation,72,440976,0.0-61.0-2.3,TRUE,FALSE,FALSE,TRUE,"""event"",""trial"",""time""
""fullscreenenter"",""5"",""29259""
","
","
","""event"",""trial"",""time""
""fullscreenenter"",""5"",""29259""
","
",NA,images/earth.jpg,NA,NA,NA,NA,NA,NA,NA,NA,NA,NA,NA,NA,NA,fixation,NA,NA,NA,NA,NA,NA,sub55
d3-animate-choice,73,443520,0.0-61.0-0.4,TRUE,FALSE,FALSE,TRUE,"""event"",""trial"",""time""
""fullscreenenter"",""5"",""29259""
","
","
","""event"",""trial"",""time""
""fullscreenenter"",""5"",""29259""
","
",539.7550000052433,NA,48,NA,NA,3000,1,NA,NA,images/earth.jpg,images/tutrocket1,images/tutrocket2,null,images/tutrocket1,NA,1,practice,null,2,NA,NA,NA,sub55
d3-animate-choice,74,446377,0.0-61.0-1.4,TRUE,FALSE,FALSE,TRUE,"""event"",""trial"",""time""
""fullscreenenter"",""5"",""29259""
","
","
","""event"",""trial"",""time""
""fullscreenenter"",""5"",""29259""
","
",853.3499999903142,NA,48,NA,NA,3000,1,NA,NA,images/tutyellowplanet.jpg,images/tutalien4,images/tutalien3,images/tutrocket1,images/tutalien4,images/t.png,2,practice,true,2,common,1,2020-06-12T19:38:07Z,sub55
two-step-fixation,75,447380,0.0-61.0-2.4,TRUE,FALSE,FALSE,TRUE,"""event"",""trial"",""time""
""fullscreenenter"",""5"",""29259""
","
","
","""event"",""trial"",""time""
""fullscreenenter"",""5"",""29259""
","
",NA,images/earth.jpg,NA,NA,NA,NA,NA,NA,NA,NA,NA,NA,NA,NA,NA,fixation,NA,NA,NA,NA,NA,NA,sub55
d3-animate-choice,76,449973,0.0-61.0-0.5,TRUE,FALSE,FALSE,TRUE,"""event"",""trial"",""time""
""fullscreenenter"",""5"",""29259""
","
","
","""event"",""trial"",""time""
""fullscreenenter"",""5"",""29259""
","
",589.4349999871338,NA,49,NA,NA,3000,1,NA,NA,images/earth.jpg,images/tutrocket1,images/tutrocket2,null,images/tutrocket2,NA,1,practice,null,1,NA,NA,NA,sub55
d3-animate-choice,77,452454,0.0-61.0-1.5,TRUE,FALSE,FALSE,TRUE,"""event"",""trial"",""time""
""fullscreenenter"",""5"",""29259""
","
","
","""event"",""trial"",""time""
""fullscreenenter"",""5"",""29259""
","
",477.469999997993,NA,48,NA,NA,3000,1,NA,NA,images/tutgreenplanet.jpg,images/tutalien2,images/tutalien1,images/tutrocket2,images/tutalien2,images/t.png,2,practice,true,2,common,1,2020-06-12T19:38:13Z,sub55
two-step-fixation,78,453456,0.0-61.0-2.5,TRUE,FALSE,FALSE,TRUE,"""event"",""trial"",""time""
""fullscreenenter"",""5"",""29259""
","
","
","""event"",""trial"",""time""
""fullscreenenter"",""5"",""29259""
","
",NA,images/earth.jpg,NA,NA,NA,NA,NA,NA,NA,NA,NA,NA,NA,NA,NA,fixation,NA,NA,NA,NA,NA,NA,sub55
d3-animate-choice,79,456112,0.0-61.0-0.6,TRUE,FALSE,FALSE,TRUE,"""event"",""trial"",""time""
""fullscreenenter"",""5"",""29259""
","
","
","""event"",""trial"",""time""
""fullscreenenter"",""5"",""29259""
","
",651.2899999943329,NA,48,NA,NA,3000,1,NA,NA,images/earth.jpg,images/tutrocket1,images/tutrocket2,null,images/tutrocket1,NA,1,practice,null,2,NA,NA,NA,sub55
d3-animate-choice,80,459155,0.0-61.0-1.6,TRUE,FALSE,FALSE,TRUE,"""event"",""trial"",""time""
""fullscreenenter"",""5"",""29259""
","
","
","""event"",""trial"",""time""
""fullscreenenter"",""5"",""29259""
","
",1038.70000000461,NA,48,NA,NA,3000,1,NA,NA,images/tutyellowplanet.jpg,images/tutalien4,images/tutalien3,images/tutrocket1,images/tutalien4,images/t.png,2,practice,true,2,common,1,2020-06-12T19:38:20Z,sub55
two-step-fixation,81,460159,0.0-61.0-2.6,TRUE,FALSE,FALSE,TRUE,"""event"",""trial"",""time""
""fullscreenenter"",""5"",""29259""
","
","
","""event"",""trial"",""time""
""fullscreenenter"",""5"",""29259""
","
",NA,images/earth.jpg,NA,NA,NA,NA,NA,NA,NA,NA,NA,NA,NA,NA,NA,fixation,NA,NA,NA,NA,NA,NA,sub55
d3-animate-choice,82,462943,0.0-61.0-0.7,TRUE,FALSE,FALSE,TRUE,"""event"",""trial"",""time""
""fullscreenenter"",""5"",""29259""
","
","
","""event"",""trial"",""time""
""fullscreenenter"",""5"",""29259""
","
",780.8850000001257,NA,49,NA,NA,3000,1,NA,NA,images/earth.jpg,images/tutrocket1,images/tutrocket2,null,images/tutrocket2,NA,1,practice,null,1,NA,NA,NA,sub55
d3-animate-choice,83,465798,0.0-61.0-1.7,TRUE,FALSE,FALSE,TRUE,"""event"",""trial"",""time""
""fullscreenenter"",""5"",""29259""
","
","
","""event"",""trial"",""time""
""fullscreenenter"",""5"",""29259""
","
",851.3500000117347,NA,49,NA,NA,3000,1,NA,NA,images/tutgreenplanet.jpg,images/tutalien2,images/tutalien1,images/tutrocket2,images/tutalien1,images/t.png,2,practice,true,1,common,1,2020-06-12T19:38:27Z,sub55
two-step-fixation,84,466802,0.0-61.0-2.7,TRUE,FALSE,FALSE,TRUE,"""event"",""trial"",""time""
""fullscreenenter"",""5"",""29259""
","
","
","""event"",""trial"",""time""
""fullscreenenter"",""5"",""29259""
","
",NA,images/earth.jpg,NA,NA,NA,NA,NA,NA,NA,NA,NA,NA,NA,NA,NA,fixation,NA,NA,NA,NA,NA,NA,sub55
d3-animate-choice,85,469242,0.0-61.0-0.8,TRUE,FALSE,FALSE,TRUE,"""event"",""trial"",""time""
""fullscreenenter"",""5"",""29259""
","
","
","""event"",""trial"",""time""
""fullscreenenter"",""5"",""29259""
","
",435.8899999933783,NA,48,NA,NA,3000,1,NA,NA,images/earth.jpg,images/tutrocket1,images/tutrocket2,null,images/tutrocket1,NA,1,practice,null,2,NA,NA,NA,sub55
d3-animate-choice,86,471998,0.0-61.0-1.8,TRUE,FALSE,FALSE,TRUE,"""event"",""trial"",""time""
""fullscreenenter"",""5"",""29259""
","
","
","""event"",""trial"",""time""
""fullscreenenter"",""5"",""29259""
","
",751.3199999957578,NA,48,NA,NA,3000,1,NA,NA,images/tutyellowplanet.jpg,images/tutalien4,images/tutalien3,images/tutrocket1,images/tutalien4,images/t.png,2,practice,true,2,common,1,2020-06-12T19:38:33Z,sub55
two-step-fixation,87,473001,0.0-61.0-2.8,TRUE,FALSE,FALSE,TRUE,"""event"",""trial"",""time""
""fullscreenenter"",""5"",""29259""
","
","
","""event"",""trial"",""time""
""fullscreenenter"",""5"",""29259""
","
",NA,images/earth.jpg,NA,NA,NA,NA,NA,NA,NA,NA,NA,NA,NA,NA,NA,fixation,NA,NA,NA,NA,NA,NA,sub55
d3-animate-choice,88,475600,0.0-61.0-0.9,TRUE,FALSE,FALSE,TRUE,"""event"",""trial"",""time""
""fullscreenenter"",""5"",""29259""
","
","
","""event"",""trial"",""time""
""fullscreenenter"",""5"",""29259""
","
",595.3200000076322,NA,49,NA,NA,3000,1,NA,NA,images/earth.jpg,images/tutrocket1,images/tutrocket2,null,images/tutrocket2,NA,1,practice,null,1,NA,NA,NA,sub55
d3-animate-choice,89,478434,0.0-61.0-1.9,TRUE,FALSE,FALSE,TRUE,"""event"",""trial"",""time""
""fullscreenenter"",""5"",""29259""
","
","
","""event"",""trial"",""time""
""fullscreenenter"",""5"",""29259""
","
",829.3700000067474,NA,49,NA,NA,3000,1,NA,NA,images/tutgreenplanet.jpg,images/tutalien2,images/tutalien1,images/tutrocket2,images/tutalien1,images/nothing.png,2,practice,true,1,common,0,2020-06-12T19:38:39Z,sub55
two-step-fixation,90,479437,0.0-61.0-2.9,TRUE,FALSE,FALSE,TRUE,"""event"",""trial"",""time""
""fullscreenenter"",""5"",""29259""
","
","
","""event"",""trial"",""time""
""fullscreenenter"",""5"",""29259""
","
",NA,images/earth.jpg,NA,NA,NA,NA,NA,NA,NA,NA,NA,NA,NA,NA,NA,fixation,NA,NA,NA,NA,NA,NA,sub55
d3-animate-choice,91,481988,0.0-61.0-0.10,TRUE,FALSE,FALSE,TRUE,"""event"",""trial"",""time""
""fullscreenenter"",""5"",""29259""
","
","
","""event"",""trial"",""time""
""fullscreenenter"",""5"",""29259""
","
",547.5399999995716,NA,48,NA,NA,3000,1,NA,NA,images/earth.jpg,images/tutrocket1,images/tutrocket2,null,images/tutrocket1,NA,1,practice,null,2,NA,NA,NA,sub55
d3-animate-choice,92,484419,0.0-61.0-1.10,TRUE,FALSE,FALSE,TRUE,"""event"",""trial"",""time""
""fullscreenenter"",""5"",""29259""
","
","
","""event"",""trial"",""time""
""fullscreenenter"",""5"",""29259""
","
",425.94000000099186,NA,48,NA,NA,3000,1,NA,NA,images/tutyellowplanet.jpg,images/tutalien4,images/tutalien3,images/tutrocket1,images/tutalien4,images/nothing.png,2,practice,true,2,common,0,2020-06-12T19:38:45Z,sub55
two-step-fixation,93,485422,0.0-61.0-2.10,TRUE,FALSE,FALSE,TRUE,"""event"",""trial"",""time""
""fullscreenenter"",""5"",""29259""
","
","
","""event"",""trial"",""time""
""fullscreenenter"",""5"",""29259""
","
",NA,images/earth.jpg,NA,NA,NA,NA,NA,NA,NA,NA,NA,NA,NA,NA,NA,fixation,NA,NA,NA,NA,NA,NA,sub55
d3-animate-choice,94,488311,0.0-61.0-0.11,TRUE,FALSE,FALSE,TRUE,"""event"",""trial"",""time""
""fullscreenenter"",""5"",""29259""
","
","
","""event"",""trial"",""time""
""fullscreenenter"",""5"",""29259""
","
",885.0700000039069,NA,49,NA,NA,3000,1,NA,NA,images/earth.jpg,images/tutrocket1,images/tutrocket2,null,images/tutrocket2,NA,1,practice,null,1,NA,NA,NA,sub55
d3-animate-choice,95,490996,0.0-61.0-1.11,TRUE,FALSE,FALSE,TRUE,"""event"",""trial"",""time""
""fullscreenenter"",""5"",""29259""
","
","
","""event"",""trial"",""time""
""fullscreenenter"",""5"",""29259""
","
",680.899999992107,NA,49,NA,NA,3000,1,NA,NA,images/tutyellowplanet.jpg,images/tutalien4,images/tutalien3,images/tutrocket2,images/tutalien3,images/nothing.png,2,practice,false,1,rare,0,2020-06-12T19:38:52Z,sub55
two-step-fixation,96,491999,0.0-61.0-2.11,TRUE,FALSE,FALSE,TRUE,"""event"",""trial"",""time""
""fullscreenenter"",""5"",""29259""
","
","
","""event"",""trial"",""time""
""fullscreenenter"",""5"",""29259""
","
",NA,images/earth.jpg,NA,NA,NA,NA,NA,NA,NA,NA,NA,NA,NA,NA,NA,fixation,NA,NA,NA,NA,NA,NA,sub55
d3-animate-choice,97,494532,0.0-61.0-0.12,TRUE,FALSE,FALSE,TRUE,"""event"",""trial"",""time""
""fullscreenenter"",""5"",""29259""
","
","
","""event"",""trial"",""time""
""fullscreenenter"",""5"",""29259""
","
",529.5949999999721,NA,48,NA,NA,3000,1,NA,NA,images/earth.jpg,images/tutrocket1,images/tutrocket2,null,images/tutrocket1,NA,1,practice,null,2,NA,NA,NA,sub55
d3-animate-choice,98,497348,0.0-61.0-1.12,TRUE,FALSE,FALSE,TRUE,"""event"",""trial"",""time""
""fullscreenenter"",""5"",""29259""
","
","
","""event"",""trial"",""time""
""fullscreenenter"",""5"",""29259""
","
",811.6350000054808,NA,49,NA,NA,3000,1,NA,NA,images/tutgreenplanet.jpg,images/tutalien2,images/tutalien1,images/tutrocket1,images/tutalien1,images/nothing.png,2,practice,false,1,rare,0,2020-06-12T19:38:58Z,sub55
two-step-fixation,99,498351,0.0-61.0-2.12,TRUE,FALSE,FALSE,TRUE,"""event"",""trial"",""time""
""fullscreenenter"",""5"",""29259""
","
","
","""event"",""trial"",""time""
""fullscreenenter"",""5"",""29259""
","
",NA,images/earth.jpg,NA,NA,NA,NA,NA,NA,NA,NA,NA,NA,NA,NA,NA,fixation,NA,NA,NA,NA,NA,NA,sub55
d3-animate-choice,100,501277,0.0-61.0-0.13,TRUE,FALSE,FALSE,TRUE,"""event"",""trial"",""time""
""fullscreenenter"",""5"",""29259""
","
","
","""event"",""trial"",""time""
""fullscreenenter"",""5"",""29259""
","
",922.2300000110408,NA,49,NA,NA,3000,1,NA,NA,images/earth.jpg,images/tutrocket1,images/tutrocket2,null,images/tutrocket2,NA,1,practice,null,1,NA,NA,NA,sub55
d3-animate-choice,101,503822,0.0-61.0-1.13,TRUE,FALSE,FALSE,TRUE,"""event"",""trial"",""time""
""fullscreenenter"",""5"",""29259""
","
","
","""event"",""trial"",""time""
""fullscreenenter"",""5"",""29259""
","
",541.7100000049686,NA,48,NA,NA,3000,1,NA,NA,images/tutgreenplanet.jpg,images/tutalien2,images/tutalien1,images/tutrocket2,images/tutalien2,images/nothing.png,2,practice,true,2,common,0,2020-06-12T19:39:05Z,sub55
two-step-fixation,102,504827,0.0-61.0-2.13,TRUE,FALSE,FALSE,TRUE,"""event"",""trial"",""time""
""fullscreenenter"",""5"",""29259""
","
","
","""event"",""trial"",""time""
""fullscreenenter"",""5"",""29259""
","
",NA,images/earth.jpg,NA,NA,NA,NA,NA,NA,NA,NA,NA,NA,NA,NA,NA,fixation,NA,NA,NA,NA,NA,NA,sub55
d3-animate-choice,103,507410,0.0-61.0-0.14,TRUE,FALSE,FALSE,TRUE,"""event"",""trial"",""time""
""fullscreenenter"",""5"",""29259""
","
","
","""event"",""trial"",""time""
""fullscreenenter"",""5"",""29259""
","
",579.039999996894,NA,48,NA,NA,3000,1,NA,NA,images/earth.jpg,images/tutrocket1,images/tutrocket2,null,images/tutrocket1,NA,1,practice,null,2,NA,NA,NA,sub55
d3-animate-choice,104,510074,0.0-61.0-1.14,TRUE,FALSE,FALSE,TRUE,"""event"",""trial"",""time""
""fullscreenenter"",""5"",""29259""
","
","
","""event"",""trial"",""time""
""fullscreenenter"",""5"",""29259""
","
",660.2049999928568,NA,49,NA,NA,3000,1,NA,NA,images/tutyellowplanet.jpg,images/tutalien4,images/tutalien3,images/tutrocket1,images/tutalien3,images/t.png,2,practice,true,1,common,1,2020-06-12T19:39:11Z,sub55
two-step-fixation,105,511076,0.0-61.0-2.14,TRUE,FALSE,FALSE,TRUE,"""event"",""trial"",""time""
""fullscreenenter"",""5"",""29259""
","
","
","""event"",""trial"",""time""
""fullscreenenter"",""5"",""29259""
","
",NA,images/earth.jpg,NA,NA,NA,NA,NA,NA,NA,NA,NA,NA,NA,NA,NA,fixation,NA,NA,NA,NA,NA,NA,sub55
d3-animate-choice,106,513996,0.0-61.0-0.15,TRUE,FALSE,FALSE,TRUE,"""event"",""trial"",""time""
""fullscreenenter"",""5"",""29259""
","
","
","""event"",""trial"",""time""
""fullscreenenter"",""5"",""29259""
","
",917.2249999974156,NA,49,NA,NA,3000,1,NA,NA,images/earth.jpg,images/tutrocket1,images/tutrocket2,null,images/tutrocket2,NA,1,practice,null,1,NA,NA,NA,sub55
d3-animate-choice,107,516803,0.0-61.0-1.15,TRUE,FALSE,FALSE,TRUE,"""event"",""trial"",""time""
""fullscreenenter"",""5"",""29259""
","
","
","""event"",""trial"",""time""
""fullscreenenter"",""5"",""29259""
","
",801.2949999974808,NA,49,NA,NA,3000,1,NA,NA,images/tutgreenplanet.jpg,images/tutalien2,images/tutalien1,images/tutrocket2,images/tutalien1,images/t.png,2,practice,true,1,common,1,2020-06-12T19:39:18Z,sub55
two-step-fixation,108,517807,0.0-61.0-2.15,TRUE,FALSE,FALSE,TRUE,"""event"",""trial"",""time""
""fullscreenenter"",""5"",""29259""
","
","
","""event"",""trial"",""time""
""fullscreenenter"",""5"",""29259""
","
",NA,images/earth.jpg,NA,NA,NA,NA,NA,NA,NA,NA,NA,NA,NA,NA,NA,fixation,NA,NA,NA,NA,NA,NA,sub55
d3-animate-choice,109,520218,0.0-61.0-0.16,TRUE,FALSE,FALSE,TRUE,"""event"",""trial"",""time""
""fullscreenenter"",""5"",""29259""
","
","
","""event"",""trial"",""time""
""fullscreenenter"",""5"",""29259""
","
",406.2649999978021,NA,48,NA,NA,3000,1,NA,NA,images/earth.jpg,images/tutrocket1,images/tutrocket2,null,images/tutrocket1,NA,1,practice,null,2,NA,NA,NA,sub55
d3-animate-choice,110,522879,0.0-61.0-1.16,TRUE,FALSE,FALSE,TRUE,"""event"",""trial"",""time""
""fullscreenenter"",""5"",""29259""
","
","
","""event"",""trial"",""time""
""fullscreenenter"",""5"",""29259""
","
",658.2049999997253,NA,49,NA,NA,3000,1,NA,NA,images/tutyellowplanet.jpg,images/tutalien4,images/tutalien3,images/tutrocket1,images/tutalien3,images/nothing.png,2,practice,true,1,common,0,2020-06-12T19:39:24Z,sub55
two-step-fixation,111,523883,0.0-61.0-2.16,TRUE,FALSE,FALSE,TRUE,"""event"",""trial"",""time""
""fullscreenenter"",""5"",""29259""
","
","
","""event"",""trial"",""time""
""fullscreenenter"",""5"",""29259""
","
",NA,images/earth.jpg,NA,NA,NA,NA,NA,NA,NA,NA,NA,NA,NA,NA,NA,fixation,NA,NA,NA,NA,NA,NA,sub55
d3-animate-choice,112,526412,0.0-61.0-0.17,TRUE,FALSE,FALSE,TRUE,"""event"",""trial"",""time""
""fullscreenenter"",""5"",""29259""
","
","
","""event"",""trial"",""time""
""fullscreenenter"",""5"",""29259""
","
",525.9649999934481,NA,48,NA,NA,3000,1,NA,NA,images/earth.jpg,images/tutrocket1,images/tutrocket2,null,images/tutrocket1,NA,1,practice,null,2,NA,NA,NA,sub55
d3-animate-choice,113,529122,0.0-61.0-1.17,TRUE,FALSE,FALSE,TRUE,"""event"",""trial"",""time""
""fullscreenenter"",""5"",""29259""
","
","
","""event"",""trial"",""time""
""fullscreenenter"",""5"",""29259""
","
",705.1499999943189,NA,48,NA,NA,3000,1,NA,NA,images/tutyellowplanet.jpg,images/tutalien4,images/tutalien3,images/tutrocket1,images/tutalien4,images/t.png,2,practice,true,2,common,1,2020-06-12T19:39:30Z,sub55
two-step-fixation,114,530127,0.0-61.0-2.17,TRUE,FALSE,FALSE,TRUE,"""event"",""trial"",""time""
""fullscreenenter"",""5"",""29259""
","
","
","""event"",""trial"",""time""
""fullscreenenter"",""5"",""29259""
","
",NA,images/earth.jpg,NA,NA,NA,NA,NA,NA,NA,NA,NA,NA,NA,NA,NA,fixation,NA,NA,NA,NA,NA,NA,sub55
d3-animate-choice,115,532583,0.0-61.0-0.18,TRUE,FALSE,FALSE,TRUE,"""event"",""trial"",""time""
""fullscreenenter"",""5"",""29259""
","
","
","""event"",""trial"",""time""
""fullscreenenter"",""5"",""29259""
","
",452.43000000482425,NA,49,NA,NA,3000,1,NA,NA,images/earth.jpg,images/tutrocket1,images/tutrocket2,null,images/tutrocket2,NA,1,practice,null,1,NA,NA,NA,sub55
d3-animate-choice,116,534986,0.0-61.0-1.18,TRUE,FALSE,FALSE,TRUE,"""event"",""trial"",""time""
""fullscreenenter"",""5"",""29259""
","
","
","""event"",""trial"",""time""
""fullscreenenter"",""5"",""29259""
","
",399.87500000279397,NA,48,NA,NA,3000,1,NA,NA,images/tutyellowplanet.jpg,images/tutalien4,images/tutalien3,images/tutrocket2,images/tutalien4,images/t.png,2,practice,false,2,rare,1,2020-06-12T19:39:36Z,sub55
two-step-fixation,117,535989,0.0-61.0-2.18,TRUE,FALSE,FALSE,TRUE,"""event"",""trial"",""time""
""fullscreenenter"",""5"",""29259""
","
","
","""event"",""trial"",""time""
""fullscreenenter"",""5"",""29259""
","
",NA,images/earth.jpg,NA,NA,NA,NA,NA,NA,NA,NA,NA,NA,NA,NA,NA,fixation,NA,NA,NA,NA,NA,NA,sub55
d3-animate-choice,118,538358,0.0-61.0-0.19,TRUE,FALSE,FALSE,TRUE,"""event"",""trial"",""time""
""fullscreenenter"",""5"",""29259""
","
","
","""event"",""trial"",""time""
""fullscreenenter"",""5"",""29259""
","
",366.27499999303836,NA,48,NA,NA,3000,1,NA,NA,images/earth.jpg,images/tutrocket1,images/tutrocket2,null,images/tutrocket1,NA,1,practice,null,2,NA,NA,NA,sub55
d3-animate-choice,119,540860,0.0-61.0-1.19,TRUE,FALSE,FALSE,TRUE,"""event"",""trial"",""time""
""fullscreenenter"",""5"",""29259""
","
","
","""event"",""trial"",""time""
""fullscreenenter"",""5"",""29259""
","
",498.70999999984633,NA,49,NA,NA,3000,1,NA,NA,images/tutyellowplanet.jpg,images/tutalien4,images/tutalien3,images/tutrocket1,images/tutalien3,images/nothing.png,2,practice,true,1,common,0,2020-06-12T19:39:42Z,sub55
two-step-fixation,120,541864,0.0-61.0-2.19,TRUE,FALSE,FALSE,TRUE,"""event"",""trial"",""time""
""fullscreenenter"",""5"",""29259""
","
","
","""event"",""trial"",""time""
""fullscreenenter"",""5"",""29259""
","
",NA,images/earth.jpg,NA,NA,NA,NA,NA,NA,NA,NA,NA,NA,NA,NA,NA,fixation,NA,NA,NA,NA,NA,NA,sub55
d3-instructions,121,549789,0.0-62.0,TRUE,FALSE,FALSE,TRUE,"""event"",""trial"",""time""
""fullscreenenter"",""5"",""29259""
","
","
","""event"",""trial"",""time""
""fullscreenenter"",""5"",""29259""
","
",NA,NA,NA,NA,NA,NA,NA,NA,NA,NA,NA,NA,NA,NA,NA,NA,NA,NA,NA,NA,NA,NA,sub55
audio-keyboard-response,122,554873,0.0-63.0,TRUE,FALSE,FALSE,TRUE,"""event"",""trial"",""time""
""fullscreenenter"",""5"",""29259""
","
","
","""event"",""trial"",""time""
""fullscreenenter"",""5"",""29259""
","
",5080,audio/instructions/treasure_feedback.wav,32,NA,NA,NA,NA,NA,NA,NA,NA,NA,NA,NA,NA,NA,NA,NA,NA,NA,NA,NA,sub55
d3-instructions,123,574944,0.0-64.0,TRUE,FALSE,FALSE,TRUE,"""event"",""trial"",""time""
""fullscreenenter"",""5"",""29259""
","
","
","""event"",""trial"",""time""
""fullscreenenter"",""5"",""29259""
","
",NA,NA,NA,NA,NA,NA,NA,NA,NA,NA,NA,NA,NA,NA,NA,NA,NA,NA,NA,NA,NA,NA,sub55
d3-instructions,124,589937,0.0-65.0,TRUE,FALSE,FALSE,TRUE,"""event"",""trial"",""time""
""fullscreenenter"",""5"",""29259""
","
","
","""event"",""trial"",""time""
""fullscreenenter"",""5"",""29259""
","
",NA,NA,NA,NA,NA,NA,NA,NA,NA,NA,NA,NA,NA,NA,NA,NA,NA,NA,NA,NA,NA,NA,sub55
d3-instructions,125,616110,0.0-66.0,TRUE,FALSE,FALSE,TRUE,"""event"",""trial"",""time""
""fullscreenenter"",""5"",""29259""
","
","
","""event"",""trial"",""time""
""fullscreenenter"",""5"",""29259""
","
",NA,NA,NA,NA,NA,NA,NA,NA,NA,NA,NA,NA,NA,NA,NA,NA,NA,NA,NA,NA,NA,NA,sub55
d3-instructions,126,632854,0.0-67.0,TRUE,FALSE,FALSE,TRUE,"""event"",""trial"",""time""
""fullscreenenter"",""5"",""29259""
","
","
","""event"",""trial"",""time""
""fullscreenenter"",""5"",""29259""
","
",NA,NA,NA,NA,NA,NA,NA,NA,NA,NA,NA,NA,NA,NA,NA,NA,NA,NA,NA,NA,NA,NA,sub55
d3-instructions,127,641812,0.0-68.0,TRUE,FALSE,FALSE,TRUE,"""event"",""trial"",""time""
""fullscreenenter"",""5"",""29259""
","
","
","""event"",""trial"",""time""
""fullscreenenter"",""5"",""29259""
","
",NA,NA,NA,NA,NA,NA,NA,NA,NA,NA,NA,NA,NA,NA,NA,NA,NA,NA,NA,NA,NA,NA,sub55
instructions-quiz,128,646712,0.0-69.0,TRUE,FALSE,FALSE,TRUE,"""event"",""trial"",""time""
""fullscreenenter"",""5"",""29259""
","
","
","""event"",""trial"",""time""
""fullscreenenter"",""5"",""29259""
","
",4897.765000001527,audio/quiz/Q1_Prompt.wav,NA,1,NA,NA,NA,NA,NA,NA,NA,NA,NA,NA,NA,NA,NA,NA,NA,NA,NA,NA,sub55
audio-keyboard-response,129,655878,0.0-70.0,TRUE,FALSE,FALSE,TRUE,"""event"",""trial"",""time""
""fullscreenenter"",""5"",""29259""
","
","
","""event"",""trial"",""time""
""fullscreenenter"",""5"",""29259""
","
",null,audio/quiz/Q1_Correct.wav,null,NA,NA,NA,NA,NA,NA,NA,NA,NA,NA,NA,NA,NA,NA,NA,NA,NA,NA,NA,sub55
instructions-quiz,130,665255,0.0-71.0,TRUE,FALSE,FALSE,TRUE,"""event"",""trial"",""time""
""fullscreenenter"",""5"",""29259""
","
","
","""event"",""trial"",""time""
""fullscreenenter"",""5"",""29259""
","
",9374.980000007781,audio/quiz/Q2_Prompt.wav,NA,0,NA,NA,NA,NA,NA,NA,NA,NA,NA,NA,NA,NA,NA,NA,NA,NA,NA,NA,sub55
audio-keyboard-response,131,678118,0.0-72.0,TRUE,FALSE,FALSE,TRUE,"""event"",""trial"",""time""
""fullscreenenter"",""5"",""29259""
","
","
","""event"",""trial"",""time""
""fullscreenenter"",""5"",""29259""
","
",null,audio/quiz/Q2_Correct.wav,null,NA,NA,NA,NA,NA,NA,NA,NA,NA,NA,NA,NA,NA,NA,NA,NA,NA,NA,NA,sub55
instructions-quiz,132,683215,0.0-73.0,TRUE,FALSE,FALSE,TRUE,"""event"",""trial"",""time""
""fullscreenenter"",""5"",""29259""
","
","
","""event"",""trial"",""time""
""fullscreenenter"",""5"",""29259""
","
",5095.24500000407,audio/quiz/Q3_Prompt.wav,NA,1,NA,NA,NA,NA,NA,NA,NA,NA,NA,NA,NA,NA,NA,NA,NA,NA,NA,NA,sub55
audio-keyboard-response,133,689008,0.0-74.0,TRUE,FALSE,FALSE,TRUE,"""event"",""trial"",""time""
""fullscreenenter"",""5"",""29259""
","
","
","""event"",""trial"",""time""
""fullscreenenter"",""5"",""29259""
","
",null,audio/quiz/Q3_Correct.wav,null,NA,NA,NA,NA,NA,NA,NA,NA,NA,NA,NA,NA,NA,NA,NA,NA,NA,NA,NA,sub55
d3-instructions,134,703062,0.0-75.0,TRUE,FALSE,FALSE,TRUE,"""event"",""trial"",""time""
""fullscreenenter"",""5"",""29259""
","
","
","""event"",""trial"",""time""
""fullscreenenter"",""5"",""29259""
","
",NA,NA,NA,NA,NA,NA,NA,NA,NA,NA,NA,NA,NA,NA,NA,NA,NA,NA,NA,NA,NA,NA,sub55
d3-animate-choice,135,706349,0.0-76.0-0.0,TRUE,FALSE,FALSE,TRUE,"""event"",""trial"",""time""
""fullscreenenter"",""5"",""29259""
","
","
","""event"",""trial"",""time""
""fullscreenenter"",""5"",""29259""
","
",1281.5849999897182,NA,48,NA,NA,3000,1,NA,NA,images/earth.jpg,images/rocket2,images/rocket1,null,images/rocket2,NA,1,real,null,2,NA,NA,NA,sub55
d3-animate-choice,136,709251,0.0-76.0-1.0,TRUE,FALSE,FALSE,TRUE,"""event"",""trial"",""time""
""fullscreenenter"",""5"",""29259""
","
","
","""event"",""trial"",""time""
""fullscreenenter"",""5"",""29259""
","
",897.7500000037253,NA,48,NA,NA,3000,1,NA,NA,images/redplanet1.jpg,images/alien2,images/alien1,images/rocket2,images/alien2,images/t.png,2,real,true,2,common,1,2020-06-12T19:42:30Z,sub55
two-step-fixation,137,710255,0.0-76.0-2.0,TRUE,FALSE,FALSE,TRUE,"""event"",""trial"",""time""
""fullscreenenter"",""5"",""29259""
","
","
","""event"",""trial"",""time""
""fullscreenenter"",""5"",""29259""
","
",NA,images/earth.jpg,NA,NA,NA,NA,NA,NA,NA,NA,NA,NA,NA,NA,NA,fixation,NA,NA,NA,NA,NA,NA,sub55
d3-animate-choice,138,712890,0.0-76.0-0.1,TRUE,FALSE,FALSE,TRUE,"""event"",""trial"",""time""
""fullscreenenter"",""5"",""29259""
","
","
","""event"",""trial"",""time""
""fullscreenenter"",""5"",""29259""
","
",630.7349999988219,NA,48,NA,NA,3000,1,NA,NA,images/earth.jpg,images/rocket2,images/rocket1,null,images/rocket2,NA,1,real,null,2,NA,NA,NA,sub55
d3-animate-choice,139,715391,0.0-76.0-1.1,TRUE,FALSE,FALSE,TRUE,"""event"",""trial"",""time""
""fullscreenenter"",""5"",""29259""
","
","
","""event"",""trial"",""time""
""fullscreenenter"",""5"",""29259""
","
",498.34499999997206,NA,49,NA,NA,3000,1,NA,NA,images/purpleplanet.jpg,images/alien4,images/alien3,images/rocket2,images/alien3,images/nothing.png,2,real,false,1,rare,0,2020-06-12T19:42:36Z,sub55
two-step-fixation,140,716395,0.0-76.0-2.1,TRUE,FALSE,FALSE,TRUE,"""event"",""trial"",""time""
""fullscreenenter"",""5"",""29259""
","
","
","""event"",""trial"",""time""
""fullscreenenter"",""5"",""29259""
","
",NA,images/earth.jpg,NA,NA,NA,NA,NA,NA,NA,NA,NA,NA,NA,NA,NA,fixation,NA,NA,NA,NA,NA,NA,sub55
d3-animate-choice,141,719063,0.0-76.0-0.2,TRUE,FALSE,FALSE,TRUE,"""event"",""trial"",""time""
""fullscreenenter"",""5"",""29259""
","
","
","""event"",""trial"",""time""
""fullscreenenter"",""5"",""29259""
","
",663.8650000095367,NA,49,NA,NA,3000,1,703.3700000029057,48,images/earth.jpg,images/rocket2,images/rocket1,null,images/rocket1,NA,1,real,null,1,NA,NA,NA,sub55
d3-animate-choice,142,721592,0.0-76.0-1.2,TRUE,FALSE,FALSE,TRUE,"""event"",""trial"",""time""
""fullscreenenter"",""5"",""29259""
","
","
","""event"",""trial"",""time""
""fullscreenenter"",""5"",""29259""
","
",524.7749999980442,NA,48,NA,NA,3000,1,NA,NA,images/purpleplanet.jpg,images/alien4,images/alien3,images/rocket1,images/alien4,images/t.png,2,real,true,2,common,1,2020-06-12T19:42:42Z,sub55
two-step-fixation,143,722596,0.0-76.0-2.2,TRUE,FALSE,FALSE,TRUE,"""event"",""trial"",""time""
""fullscreenenter"",""5"",""29259""
","
","
","""event"",""trial"",""time""
""fullscreenenter"",""5"",""29259""
","
",NA,images/earth.jpg,NA,NA,NA,NA,NA,NA,NA,NA,NA,NA,NA,NA,NA,fixation,NA,NA,NA,NA,NA,NA,sub55
d3-animate-choice,144,725224,0.0-76.0-0.3,TRUE,FALSE,FALSE,TRUE,"""event"",""trial"",""time""
""fullscreenenter"",""5"",""29259""
","
","
","""event"",""trial"",""time""
""fullscreenenter"",""5"",""29259""
","
",625.4049999988638,NA,48,NA,NA,3000,1,NA,NA,images/earth.jpg,images/rocket2,images/rocket1,null,images/rocket2,NA,1,real,null,2,NA,NA,NA,sub55
d3-animate-choice,145,727934,0.0-76.0-1.3,TRUE,FALSE,FALSE,TRUE,"""event"",""trial"",""time""
""fullscreenenter"",""5"",""29259""
","
","
","""event"",""trial"",""time""
""fullscreenenter"",""5"",""29259""
","
",705.0549999985378,NA,48,NA,NA,3000,1,NA,NA,images/purpleplanet.jpg,images/alien4,images/alien3,images/rocket2,images/alien4,images/t.png,2,real,false,2,rare,1,2020-06-12T19:42:49Z,sub55
two-step-fixation,146,728938,0.0-76.0-2.3,TRUE,FALSE,FALSE,TRUE,"""event"",""trial"",""time""
""fullscreenenter"",""5"",""29259""
","
","
","""event"",""trial"",""time""
""fullscreenenter"",""5"",""29259""
","
",NA,images/earth.jpg,NA,NA,NA,NA,NA,NA,NA,NA,NA,NA,NA,NA,NA,fixation,NA,NA,NA,NA,NA,NA,sub55
d3-animate-choice,147,731982,0.0-76.0-0.4,TRUE,FALSE,FALSE,TRUE,"""event"",""trial"",""time""
""fullscreenenter"",""5"",""29259""
","
","
","""event"",""trial"",""time""
""fullscreenenter"",""5"",""29259""
","
",1040.3950000036275,NA,48,NA,NA,3000,1,NA,NA,images/earth.jpg,images/rocket2,images/rocket1,null,images/rocket2,NA,1,real,null,2,NA,NA,NA,sub55
d3-animate-choice,148,734506,0.0-76.0-1.4,TRUE,FALSE,FALSE,TRUE,"""event"",""trial"",""time""
""fullscreenenter"",""5"",""29259""
","
","
","""event"",""trial"",""time""
""fullscreenenter"",""5"",""29259""
","
",518.9600000012433,NA,48,NA,NA,3000,1,NA,NA,images/purpleplanet.jpg,images/alien4,images/alien3,images/rocket2,images/alien4,images/t.png,2,real,false,2,rare,1,2020-06-12T19:42:55Z,sub55
two-step-fixation,149,735509,0.0-76.0-2.4,TRUE,FALSE,FALSE,TRUE,"""event"",""trial"",""time""
""fullscreenenter"",""5"",""29259""
","
","
","""event"",""trial"",""time""
""fullscreenenter"",""5"",""29259""
","
",NA,images/earth.jpg,NA,NA,NA,NA,NA,NA,NA,NA,NA,NA,NA,NA,NA,fixation,NA,NA,NA,NA,NA,NA,sub55
d3-animate-choice,150,737875,0.0-76.0-0.5,TRUE,FALSE,FALSE,TRUE,"""event"",""trial"",""time""
""fullscreenenter"",""5"",""29259""
","
","
","""event"",""trial"",""time""
""fullscreenenter"",""5"",""29259""
","
",362.23499999323394,NA,48,NA,NA,3000,1,NA,NA,images/earth.jpg,images/rocket2,images/rocket1,null,images/rocket2,NA,1,real,null,2,NA,NA,NA,sub55
d3-animate-choice,151,740698,0.0-76.0-1.5,TRUE,FALSE,FALSE,TRUE,"""event"",""trial"",""time""
""fullscreenenter"",""5"",""29259""
","
","
","""event"",""trial"",""time""
""fullscreenenter"",""5"",""29259""
","
",819.0299999987474,NA,48,NA,NA,3000,1,NA,NA,images/redplanet1.jpg,images/alien2,images/alien1,images/rocket2,images/alien2,images/t.png,2,real,true,2,common,1,2020-06-12T19:43:02Z,sub55
two-step-fixation,152,741702,0.0-76.0-2.5,TRUE,FALSE,FALSE,TRUE,"""event"",""trial"",""time""
""fullscreenenter"",""5"",""29259""
","
","
","""event"",""trial"",""time""
""fullscreenenter"",""5"",""29259""
","
",NA,images/earth.jpg,NA,NA,NA,NA,NA,NA,NA,NA,NA,NA,NA,NA,NA,fixation,NA,NA,NA,NA,NA,NA,sub55
d3-animate-choice,153,744277,0.0-76.0-0.6,TRUE,FALSE,FALSE,TRUE,"""event"",""trial"",""time""
""fullscreenenter"",""5"",""29259""
","
","
","""event"",""trial"",""time""
""fullscreenenter"",""5"",""29259""
","
",571.6249999968568,NA,48,NA,NA,3000,1,NA,NA,images/earth.jpg,images/rocket2,images/rocket1,null,images/rocket2,NA,1,real,null,2,NA,NA,NA,sub55
d3-animate-choice,154,746935,0.0-76.0-1.6,TRUE,FALSE,FALSE,TRUE,"""event"",""trial"",""time""
""fullscreenenter"",""5"",""29259""
","
","
","""event"",""trial"",""time""
""fullscreenenter"",""5"",""29259""
","
",654.0899999963585,NA,48,NA,NA,3000,1,NA,NA,images/redplanet1.jpg,images/alien2,images/alien1,images/rocket2,images/alien2,images/t.png,2,real,true,2,common,1,2020-06-12T19:43:08Z,sub55
two-step-fixation,155,747938,0.0-76.0-2.6,TRUE,FALSE,FALSE,TRUE,"""event"",""trial"",""time""
""fullscreenenter"",""5"",""29259""
","
","
","""event"",""trial"",""time""
""fullscreenenter"",""5"",""29259""
","
",NA,images/earth.jpg,NA,NA,NA,NA,NA,NA,NA,NA,NA,NA,NA,NA,NA,fixation,NA,NA,NA,NA,NA,NA,sub55
d3-animate-choice,156,750537,0.0-76.0-0.7,TRUE,FALSE,FALSE,TRUE,"""event"",""trial"",""time""
""fullscreenenter"",""5"",""29259""
","
","
","""event"",""trial"",""time""
""fullscreenenter"",""5"",""29259""
","
",594.7400000004563,NA,49,NA,NA,3000,1,NA,NA,images/earth.jpg,images/rocket2,images/rocket1,null,images/rocket1,NA,1,real,null,1,NA,NA,NA,sub55
d3-animate-choice,157,753404,0.0-76.0-1.7,TRUE,FALSE,FALSE,TRUE,"""event"",""trial"",""time""
""fullscreenenter"",""5"",""29259""
","
","
","""event"",""trial"",""time""
""fullscreenenter"",""5"",""29259""
","
",862.1750000020256,NA,48,NA,NA,3000,1,NA,NA,images/redplanet1.jpg,images/alien2,images/alien1,images/rocket1,images/alien2,images/nothing.png,2,real,false,2,rare,0,2020-06-12T19:43:14Z,sub55
two-step-fixation,158,754407,0.0-76.0-2.7,TRUE,FALSE,FALSE,TRUE,"""event"",""trial"",""time""
""fullscreenenter"",""5"",""29259""
","
","
","""event"",""trial"",""time""
""fullscreenenter"",""5"",""29259""
","
",NA,images/earth.jpg,NA,NA,NA,NA,NA,NA,NA,NA,NA,NA,NA,NA,NA,fixation,NA,NA,NA,NA,NA,NA,sub55
d3-animate-choice,159,757066,0.0-76.0-0.8,TRUE,FALSE,FALSE,TRUE,"""event"",""trial"",""time""
""fullscreenenter"",""5"",""29259""
","
","
","""event"",""trial"",""time""
""fullscreenenter"",""5"",""29259""
","
",656.6099999909056,NA,49,NA,NA,3000,1,NA,NA,images/earth.jpg,images/rocket2,images/rocket1,null,images/rocket1,NA,1,real,null,1,NA,NA,NA,sub55
d3-animate-choice,160,759831,0.0-76.0-1.8,TRUE,FALSE,FALSE,TRUE,"""event"",""trial"",""time""
""fullscreenenter"",""5"",""29259""
","
","
","""event"",""trial"",""time""
""fullscreenenter"",""5"",""29259""
","
",760.920000000624,NA,49,NA,NA,3000,1,NA,NA,images/purpleplanet.jpg,images/alien4,images/alien3,images/rocket1,images/alien3,images/t.png,2,real,true,1,common,1,2020-06-12T19:43:21Z,sub55
two-step-fixation,161,760834,0.0-76.0-2.8,TRUE,FALSE,FALSE,TRUE,"""event"",""trial"",""time""
""fullscreenenter"",""5"",""29259""
","
","
","""event"",""trial"",""time""
""fullscreenenter"",""5"",""29259""
","
",NA,images/earth.jpg,NA,NA,NA,NA,NA,NA,NA,NA,NA,NA,NA,NA,NA,fixation,NA,NA,NA,NA,NA,NA,sub55
d3-animate-choice,162,763373,0.0-76.0-0.9,TRUE,FALSE,FALSE,TRUE,"""event"",""trial"",""time""
""fullscreenenter"",""5"",""29259""
","
","
","""event"",""trial"",""time""
""fullscreenenter"",""5"",""29259""
","
",534.4849999964936,NA,49,NA,NA,3000,1,NA,NA,images/earth.jpg,images/rocket2,images/rocket1,null,images/rocket1,NA,1,real,null,1,NA,NA,NA,sub55
d3-animate-choice,163,765872,0.0-76.0-1.9,TRUE,FALSE,FALSE,TRUE,"""event"",""trial"",""time""
""fullscreenenter"",""5"",""29259""
","
","
","""event"",""trial"",""time""
""fullscreenenter"",""5"",""29259""
","
",495.6549999915296,NA,49,NA,NA,3000,1,NA,NA,images/purpleplanet.jpg,images/alien4,images/alien3,images/rocket1,images/alien3,images/t.png,2,real,true,1,common,1,2020-06-12T19:43:27Z,sub55
two-step-fixation,164,766874,0.0-76.0-2.9,TRUE,FALSE,FALSE,TRUE,"""event"",""trial"",""time""
""fullscreenenter"",""5"",""29259""
","
","
","""event"",""trial"",""time""
""fullscreenenter"",""5"",""29259""
","
",NA,images/earth.jpg,NA,NA,NA,NA,NA,NA,NA,NA,NA,NA,NA,NA,NA,fixation,NA,NA,NA,NA,NA,NA,sub55
d3-animate-choice,165,769536,0.0-76.0-0.10,TRUE,FALSE,FALSE,TRUE,"""event"",""trial"",""time""
""fullscreenenter"",""5"",""29259""
","
","
","""event"",""trial"",""time""
""fullscreenenter"",""5"",""29259""
","
",657.7899999974761,NA,49,NA,NA,3000,1,NA,NA,images/earth.jpg,images/rocket2,images/rocket1,null,images/rocket1,NA,1,real,null,1,NA,NA,NA,sub55
d3-animate-choice,166,772073,0.0-76.0-1.10,TRUE,FALSE,FALSE,TRUE,"""event"",""trial"",""time""
""fullscreenenter"",""5"",""29259""
","
","
","""event"",""trial"",""time""
""fullscreenenter"",""5"",""29259""
","
",533.3650000102352,NA,49,NA,NA,3000,1,NA,NA,images/purpleplanet.jpg,images/alien4,images/alien3,images/rocket1,images/alien3,images/nothing.png,2,real,true,1,common,0,2020-06-12T19:43:33Z,sub55
two-step-fixation,167,773077,0.0-76.0-2.10,TRUE,FALSE,FALSE,TRUE,"""event"",""trial"",""time""
""fullscreenenter"",""5"",""29259""
","
","
","""event"",""trial"",""time""
""fullscreenenter"",""5"",""29259""
","
",NA,images/earth.jpg,NA,NA,NA,NA,NA,NA,NA,NA,NA,NA,NA,NA,NA,fixation,NA,NA,NA,NA,NA,NA,sub55
d3-animate-choice,168,775529,0.0-76.0-0.11,TRUE,FALSE,FALSE,TRUE,"""event"",""trial"",""time""
""fullscreenenter"",""5"",""29259""
","
","
","""event"",""trial"",""time""
""fullscreenenter"",""5"",""29259""
","
",449.50499999686144,NA,48,NA,NA,3000,1,NA,NA,images/earth.jpg,images/rocket2,images/rocket1,null,images/rocket2,NA,1,real,null,2,NA,NA,NA,sub55
d3-animate-choice,169,778147,0.0-76.0-1.11,TRUE,FALSE,FALSE,TRUE,"""event"",""trial"",""time""
""fullscreenenter"",""5"",""29259""
","
","
","""event"",""trial"",""time""
""fullscreenenter"",""5"",""29259""
","
",613.9899999980116,NA,48,NA,NA,3000,1,NA,NA,images/redplanet1.jpg,images/alien2,images/alien1,images/rocket2,images/alien2,images/nothing.png,2,real,true,2,common,0,2020-06-12T19:43:39Z,sub55
two-step-fixation,170,779151,0.0-76.0-2.11,TRUE,FALSE,FALSE,TRUE,"""event"",""trial"",""time""
""fullscreenenter"",""5"",""29259""
","
","
","""event"",""trial"",""time""
""fullscreenenter"",""5"",""29259""
","
",NA,images/earth.jpg,NA,NA,NA,NA,NA,NA,NA,NA,NA,NA,NA,NA,NA,fixation,NA,NA,NA,NA,NA,NA,sub55
d3-animate-choice,171,781625,0.0-76.0-0.12,TRUE,FALSE,FALSE,TRUE,"""event"",""trial"",""time""
""fullscreenenter"",""5"",""29259""
","
","
","""event"",""trial"",""time""
""fullscreenenter"",""5"",""29259""
","
",469.3249999982072,NA,48,NA,NA,3000,1,NA,NA,images/earth.jpg,images/rocket2,images/rocket1,null,images/rocket2,NA,1,real,null,2,NA,NA,NA,sub55
d3-animate-choice,172,784129,0.0-76.0-1.12,TRUE,FALSE,FALSE,TRUE,"""event"",""trial"",""time""
""fullscreenenter"",""5"",""29259""
","
","
","""event"",""trial"",""time""
""fullscreenenter"",""5"",""29259""
","
",501.2099999876227,NA,49,NA,NA,3000,1,NA,NA,images/redplanet1.jpg,images/alien2,images/alien1,images/rocket2,images/alien1,images/nothing.png,2,real,true,1,common,0,2020-06-12T19:43:45Z,sub55
two-step-fixation,173,785132,0.0-76.0-2.12,TRUE,FALSE,FALSE,TRUE,"""event"",""trial"",""time""
""fullscreenenter"",""5"",""29259""
","
","
","""event"",""trial"",""time""
""fullscreenenter"",""5"",""29259""
","
",NA,images/earth.jpg,NA,NA,NA,NA,NA,NA,NA,NA,NA,NA,NA,NA,NA,fixation,NA,NA,NA,NA,NA,NA,sub55
d3-animate-choice,174,787524,0.0-76.0-0.13,TRUE,FALSE,FALSE,TRUE,"""event"",""trial"",""time""
""fullscreenenter"",""5"",""29259""
","
","
","""event"",""trial"",""time""
""fullscreenenter"",""5"",""29259""
","
",387.605000010808,NA,49,NA,NA,3000,1,NA,NA,images/earth.jpg,images/rocket2,images/rocket1,null,images/rocket1,NA,1,real,null,1,NA,NA,NA,sub55
d3-animate-choice,175,790017,0.0-76.0-1.13,TRUE,FALSE,FALSE,TRUE,"""event"",""trial"",""time""
""fullscreenenter"",""5"",""29259""
","
","
","""event"",""trial"",""time""
""fullscreenenter"",""5"",""29259""
","
",488.3399999962421,NA,48,NA,NA,3000,1,NA,NA,images/purpleplanet.jpg,images/alien4,images/alien3,images/rocket1,images/alien4,images/t.png,2,real,true,2,common,1,2020-06-12T19:43:51Z,sub55
two-step-fixation,176,791021,0.0-76.0-2.13,TRUE,FALSE,FALSE,TRUE,"""event"",""trial"",""time""
""fullscreenenter"",""5"",""29259""
","
","
","""event"",""trial"",""time""
""fullscreenenter"",""5"",""29259""
","
",NA,images/earth.jpg,NA,NA,NA,NA,NA,NA,NA,NA,NA,NA,NA,NA,NA,fixation,NA,NA,NA,NA,NA,NA,sub55
d3-animate-choice,177,793628,0.0-76.0-0.14,TRUE,FALSE,FALSE,TRUE,"""event"",""trial"",""time""
""fullscreenenter"",""5"",""29259""
","
","
","""event"",""trial"",""time""
""fullscreenenter"",""5"",""29259""
","
",603.4099999960745,NA,49,NA,NA,3000,1,NA,NA,images/earth.jpg,images/rocket2,images/rocket1,null,images/rocket1,NA,1,real,null,1,NA,NA,NA,sub55
d3-animate-choice,178,796294,0.0-76.0-1.14,TRUE,FALSE,FALSE,TRUE,"""event"",""trial"",""time""
""fullscreenenter"",""5"",""29259""
","
","
","""event"",""trial"",""time""
""fullscreenenter"",""5"",""29259""
","
",662.5800000037998,NA,48,NA,NA,3000,1,NA,NA,images/purpleplanet.jpg,images/alien4,images/alien3,images/rocket1,images/alien4,images/t.png,2,real,true,2,common,1,2020-06-12T19:43:57Z,sub55
two-step-fixation,179,797298,0.0-76.0-2.14,TRUE,FALSE,FALSE,TRUE,"""event"",""trial"",""time""
""fullscreenenter"",""5"",""29259""
","
","
","""event"",""trial"",""time""
""fullscreenenter"",""5"",""29259""
","
",NA,images/earth.jpg,NA,NA,NA,NA,NA,NA,NA,NA,NA,NA,NA,NA,NA,fixation,NA,NA,NA,NA,NA,NA,sub55
d3-animate-choice,180,799725,0.0-76.0-0.15,TRUE,FALSE,FALSE,TRUE,"""event"",""trial"",""time""
""fullscreenenter"",""5"",""29259""
","
","
","""event"",""trial"",""time""
""fullscreenenter"",""5"",""29259""
","
",424.68000001099426,NA,49,NA,NA,3000,1,NA,NA,images/earth.jpg,images/rocket2,images/rocket1,null,images/rocket1,NA,1,real,null,1,NA,NA,NA,sub55
d3-animate-choice,181,802219,0.0-76.0-1.15,TRUE,FALSE,FALSE,TRUE,"""event"",""trial"",""time""
""fullscreenenter"",""5"",""29259""
","
","
","""event"",""trial"",""time""
""fullscreenenter"",""5"",""29259""
","
",489.0750000049593,NA,48,NA,NA,3000,1,NA,NA,images/redplanet1.jpg,images/alien2,images/alien1,images/rocket1,images/alien2,images/t.png,2,real,false,2,rare,1,2020-06-12T19:44:03Z,sub55
two-step-fixation,182,803221,0.0-76.0-2.15,TRUE,FALSE,FALSE,TRUE,"""event"",""trial"",""time""
""fullscreenenter"",""5"",""29259""
","
","
","""event"",""trial"",""time""
""fullscreenenter"",""5"",""29259""
","
",NA,images/earth.jpg,NA,NA,NA,NA,NA,NA,NA,NA,NA,NA,NA,NA,NA,fixation,NA,NA,NA,NA,NA,NA,sub55
d3-animate-choice,183,805746,0.0-76.0-0.16,TRUE,FALSE,FALSE,TRUE,"""event"",""trial"",""time""
""fullscreenenter"",""5"",""29259""
","
","
","""event"",""trial"",""time""
""fullscreenenter"",""5"",""29259""
","
",521.7700000066543,NA,49,NA,NA,3000,1,NA,NA,images/earth.jpg,images/rocket2,images/rocket1,null,images/rocket1,NA,1,real,null,1,NA,NA,NA,sub55
d3-animate-choice,184,808426,0.0-76.0-1.16,TRUE,FALSE,FALSE,TRUE,"""event"",""trial"",""time""
""fullscreenenter"",""5"",""29259""
","
","
","""event"",""trial"",""time""
""fullscreenenter"",""5"",""29259""
","
",676.3699999864912,NA,48,NA,NA,3000,1,NA,NA,images/purpleplanet.jpg,images/alien4,images/alien3,images/rocket1,images/alien4,images/t.png,2,real,true,2,common,1,2020-06-12T19:44:09Z,sub55
two-step-fixation,185,809429,0.0-76.0-2.16,TRUE,FALSE,FALSE,TRUE,"""event"",""trial"",""time""
""fullscreenenter"",""5"",""29259""
","
","
","""event"",""trial"",""time""
""fullscreenenter"",""5"",""29259""
","
",NA,images/earth.jpg,NA,NA,NA,NA,NA,NA,NA,NA,NA,NA,NA,NA,NA,fixation,NA,NA,NA,NA,NA,NA,sub55
d3-animate-choice,186,812016,0.0-76.0-0.17,TRUE,FALSE,FALSE,TRUE,"""event"",""trial"",""time""
""fullscreenenter"",""5"",""29259""
","
","
","""event"",""trial"",""time""
""fullscreenenter"",""5"",""29259""
","
",584.1249999939464,NA,48,NA,NA,3000,1,NA,NA,images/earth.jpg,images/rocket2,images/rocket1,null,images/rocket2,NA,1,real,null,2,NA,NA,NA,sub55
d3-animate-choice,187,814658,0.0-76.0-1.17,TRUE,FALSE,FALSE,TRUE,"""event"",""trial"",""time""
""fullscreenenter"",""5"",""29259""
","
","
","""event"",""trial"",""time""
""fullscreenenter"",""5"",""29259""
","
",637.3250000033295,NA,48,NA,NA,3000,1,NA,NA,images/purpleplanet.jpg,images/alien4,images/alien3,images/rocket2,images/alien4,images/t.png,2,real,false,2,rare,1,2020-06-12T19:44:16Z,sub55
two-step-fixation,188,815662,0.0-76.0-2.17,TRUE,FALSE,FALSE,TRUE,"""event"",""trial"",""time""
""fullscreenenter"",""5"",""29259""
","
","
","""event"",""trial"",""time""
""fullscreenenter"",""5"",""29259""
","
",NA,images/earth.jpg,NA,NA,NA,NA,NA,NA,NA,NA,NA,NA,NA,NA,NA,fixation,NA,NA,NA,NA,NA,NA,sub55
d3-animate-choice,189,818158,0.0-76.0-0.18,TRUE,FALSE,FALSE,TRUE,"""event"",""trial"",""time""
""fullscreenenter"",""5"",""29259""
","
","
","""event"",""trial"",""time""
""fullscreenenter"",""5"",""29259""
","
",492.78999998932704,NA,49,NA,NA,3000,1,NA,NA,images/earth.jpg,images/rocket2,images/rocket1,null,images/rocket1,NA,1,real,null,1,NA,NA,NA,sub55
d3-animate-choice,190,821086,0.0-76.0-1.18,TRUE,FALSE,FALSE,TRUE,"""event"",""trial"",""time""
""fullscreenenter"",""5"",""29259""
","
","
","""event"",""trial"",""time""
""fullscreenenter"",""5"",""29259""
","
",925.1899999944726,NA,49,NA,NA,3000,1,NA,NA,images/purpleplanet.jpg,images/alien4,images/alien3,images/rocket1,images/alien3,images/nothing.png,2,real,true,1,common,0,2020-06-12T19:44:22Z,sub55
two-step-fixation,191,822089,0.0-76.0-2.18,TRUE,FALSE,FALSE,TRUE,"""event"",""trial"",""time""
""fullscreenenter"",""5"",""29259""
","
","
","""event"",""trial"",""time""
""fullscreenenter"",""5"",""29259""
","
",NA,images/earth.jpg,NA,NA,NA,NA,NA,NA,NA,NA,NA,NA,NA,NA,NA,fixation,NA,NA,NA,NA,NA,NA,sub55
d3-animate-choice,192,824449,0.0-76.0-0.19,TRUE,FALSE,FALSE,TRUE,"""event"",""trial"",""time""
""fullscreenenter"",""5"",""29259""
","
","
","""event"",""trial"",""time""
""fullscreenenter"",""5"",""29259""
","
",355.2700000000186,NA,49,NA,NA,3000,1,NA,NA,images/earth.jpg,images/rocket2,images/rocket1,null,images/rocket1,NA,1,real,null,1,NA,NA,NA,sub55
d3-animate-choice,193,827497,0.0-76.0-1.19,TRUE,FALSE,FALSE,TRUE,"""event"",""trial"",""time""
""fullscreenenter"",""5"",""29259""
","
","
","""event"",""trial"",""time""
""fullscreenenter"",""5"",""29259""
","
",1044.0999999991618,NA,48,NA,NA,3000,1,NA,NA,images/purpleplanet.jpg,images/alien4,images/alien3,images/rocket1,images/alien4,images/nothing.png,2,real,true,2,common,0,2020-06-12T19:44:28Z,sub55
two-step-fixation,194,828500,0.0-76.0-2.19,TRUE,FALSE,FALSE,TRUE,"""event"",""trial"",""time""
""fullscreenenter"",""5"",""29259""
","
","
","""event"",""trial"",""time""
""fullscreenenter"",""5"",""29259""
","
",NA,images/earth.jpg,NA,NA,NA,NA,NA,NA,NA,NA,NA,NA,NA,NA,NA,fixation,NA,NA,NA,NA,NA,NA,sub55
d3-animate-choice,195,831190,0.0-76.0-0.20,TRUE,FALSE,FALSE,TRUE,"""event"",""trial"",""time""
""fullscreenenter"",""5"",""29259""
","
","
","""event"",""trial"",""time""
""fullscreenenter"",""5"",""29259""
","
",686.9250000017928,NA,48,NA,NA,3000,1,NA,NA,images/earth.jpg,images/rocket2,images/rocket1,null,images/rocket2,NA,1,real,null,2,NA,NA,NA,sub55
d3-animate-choice,196,833911,0.0-76.0-1.20,TRUE,FALSE,FALSE,TRUE,"""event"",""trial"",""time""
""fullscreenenter"",""5"",""29259""
","
","
","""event"",""trial"",""time""
""fullscreenenter"",""5"",""29259""
","
",715.8699999999953,NA,48,NA,NA,3000,1,NA,NA,images/redplanet1.jpg,images/alien2,images/alien1,images/rocket2,images/alien2,images/nothing.png,2,real,true,2,common,0,2020-06-12T19:44:35Z,sub55
two-step-fixation,197,834914,0.0-76.0-2.20,TRUE,FALSE,FALSE,TRUE,"""event"",""trial"",""time""
""fullscreenenter"",""5"",""29259""
","
","
","""event"",""trial"",""time""
""fullscreenenter"",""5"",""29259""
","
",NA,images/earth.jpg,NA,NA,NA,NA,NA,NA,NA,NA,NA,NA,NA,NA,NA,fixation,NA,NA,NA,NA,NA,NA,sub55
d3-animate-choice,198,837587,0.0-76.0-0.21,TRUE,FALSE,FALSE,TRUE,"""event"",""trial"",""time""
""fullscreenenter"",""5"",""29259""
","
","
","""event"",""trial"",""time""
""fullscreenenter"",""5"",""29259""
","
",669.4900000002235,NA,48,NA,NA,3000,1,NA,NA,images/earth.jpg,images/rocket2,images/rocket1,null,images/rocket2,NA,1,real,null,2,NA,NA,NA,sub55
d3-animate-choice,199,840289,0.0-76.0-1.21,TRUE,FALSE,FALSE,TRUE,"""event"",""trial"",""time""
""fullscreenenter"",""5"",""29259""
","
","
","""event"",""trial"",""time""
""fullscreenenter"",""5"",""29259""
","
",698.6699999979464,NA,49,NA,NA,3000,1,NA,NA,images/redplanet1.jpg,images/alien2,images/alien1,images/rocket2,images/alien1,images/t.png,2,real,true,1,common,1,2020-06-12T19:44:41Z,sub55
two-step-fixation,200,841291,0.0-76.0-2.21,TRUE,FALSE,FALSE,TRUE,"""event"",""trial"",""time""
""fullscreenenter"",""5"",""29259""
","
","
","""event"",""trial"",""time""
""fullscreenenter"",""5"",""29259""
","
",NA,images/earth.jpg,NA,NA,NA,NA,NA,NA,NA,NA,NA,NA,NA,NA,NA,fixation,NA,NA,NA,NA,NA,NA,sub55
d3-animate-choice,201,844082,0.0-76.0-0.22,TRUE,FALSE,FALSE,TRUE,"""event"",""trial"",""time""
""fullscreenenter"",""5"",""29259""
","
","
","""event"",""trial"",""time""
""fullscreenenter"",""5"",""29259""
","
",786.5799999999581,NA,48,NA,NA,3000,1,NA,NA,images/earth.jpg,images/rocket2,images/rocket1,null,images/rocket2,NA,1,real,null,2,NA,NA,NA,sub55
d3-animate-choice,202,846730,0.0-76.0-1.22,TRUE,FALSE,FALSE,TRUE,"""event"",""trial"",""time""
""fullscreenenter"",""5"",""29259""
","
","
","""event"",""trial"",""time""
""fullscreenenter"",""5"",""29259""
","
",644.4549999869196,NA,49,NA,NA,3000,1,NA,NA,images/redplanet1.jpg,images/alien2,images/alien1,images/rocket2,images/alien1,images/t.png,2,real,true,1,common,1,2020-06-12T19:44:48Z,sub55
two-step-fixation,203,847733,0.0-76.0-2.22,TRUE,FALSE,FALSE,TRUE,"""event"",""trial"",""time""
""fullscreenenter"",""5"",""29259""
","
","
","""event"",""trial"",""time""
""fullscreenenter"",""5"",""29259""
","
",NA,images/earth.jpg,NA,NA,NA,NA,NA,NA,NA,NA,NA,NA,NA,NA,NA,fixation,NA,NA,NA,NA,NA,NA,sub55
d3-animate-choice,204,851003,0.0-76.0-0.23,TRUE,FALSE,FALSE,TRUE,"""event"",""trial"",""time""
""fullscreenenter"",""5"",""29259""
","
","
","""event"",""trial"",""time""
""fullscreenenter"",""5"",""29259""
","
",1266.700000007404,NA,48,NA,NA,3000,1,NA,NA,images/earth.jpg,images/rocket2,images/rocket1,null,images/rocket2,NA,1,real,null,2,NA,NA,NA,sub55
d3-animate-choice,205,853717,0.0-76.0-1.23,TRUE,FALSE,FALSE,TRUE,"""event"",""trial"",""time""
""fullscreenenter"",""5"",""29259""
","
","
","""event"",""trial"",""time""
""fullscreenenter"",""5"",""29259""
","
",709.7499999945285,NA,49,NA,NA,3000,1,NA,NA,images/purpleplanet.jpg,images/alien4,images/alien3,images/rocket2,images/alien3,images/t.png,2,real,false,1,rare,1,2020-06-12T19:44:55Z,sub55
two-step-fixation,206,854720,0.0-76.0-2.23,TRUE,FALSE,FALSE,TRUE,"""event"",""trial"",""time""
""fullscreenenter"",""5"",""29259""
","
","
","""event"",""trial"",""time""
""fullscreenenter"",""5"",""29259""
","
",NA,images/earth.jpg,NA,NA,NA,NA,NA,NA,NA,NA,NA,NA,NA,NA,NA,fixation,NA,NA,NA,NA,NA,NA,sub55
d3-animate-choice,207,857709,0.0-76.0-0.24,TRUE,FALSE,FALSE,TRUE,"""event"",""trial"",""time""
""fullscreenenter"",""5"",""29259""
","
","
","""event"",""trial"",""time""
""fullscreenenter"",""5"",""29259""
","
",985.4400000040187,NA,48,NA,NA,3000,1,NA,NA,images/earth.jpg,images/rocket2,images/rocket1,null,images/rocket2,NA,1,real,null,2,NA,NA,NA,sub55
d3-animate-choice,208,860194,0.0-76.0-1.24,TRUE,FALSE,FALSE,TRUE,"""event"",""trial"",""time""
""fullscreenenter"",""5"",""29259""
","
","
","""event"",""trial"",""time""
""fullscreenenter"",""5"",""29259""
","
",482.4250000092434,NA,49,NA,NA,3000,1,NA,NA,images/redplanet1.jpg,images/alien2,images/alien1,images/rocket2,images/alien1,images/t.png,2,real,true,1,common,1,2020-06-12T19:45:01Z,sub55
two-step-fixation,209,861198,0.0-76.0-2.24,TRUE,FALSE,FALSE,TRUE,"""event"",""trial"",""time""
""fullscreenenter"",""5"",""29259""
","
","
","""event"",""trial"",""time""
""fullscreenenter"",""5"",""29259""
","
",NA,images/earth.jpg,NA,NA,NA,NA,NA,NA,NA,NA,NA,NA,NA,NA,NA,fixation,NA,NA,NA,NA,NA,NA,sub55
d3-animate-choice,210,864199,0.0-76.0-0.25,TRUE,FALSE,FALSE,TRUE,"""event"",""trial"",""time""
""fullscreenenter"",""5"",""29259""
","
","
","""event"",""trial"",""time""
""fullscreenenter"",""5"",""29259""
","
",997.5299999932759,NA,48,NA,NA,3000,1,NA,NA,images/earth.jpg,images/rocket2,images/rocket1,null,images/rocket2,NA,1,real,null,2,NA,NA,NA,sub55
d3-animate-choice,211,866885,0.0-76.0-1.25,TRUE,FALSE,FALSE,TRUE,"""event"",""trial"",""time""
""fullscreenenter"",""5"",""29259""
","
","
","""event"",""trial"",""time""
""fullscreenenter"",""5"",""29259""
","
",682.7199999970617,NA,49,NA,NA,3000,1,NA,NA,images/purpleplanet.jpg,images/alien4,images/alien3,images/rocket2,images/alien3,images/nothing.png,2,real,false,1,rare,0,2020-06-12T19:45:08Z,sub55
two-step-fixation,212,867887,0.0-76.0-2.25,TRUE,FALSE,FALSE,TRUE,"""event"",""trial"",""time""
""fullscreenenter"",""5"",""29259""
","
","
","""event"",""trial"",""time""
""fullscreenenter"",""5"",""29259""
","
",NA,images/earth.jpg,NA,NA,NA,NA,NA,NA,NA,NA,NA,NA,NA,NA,NA,fixation,NA,NA,NA,NA,NA,NA,sub55
d3-animate-choice,213,870326,0.0-76.0-0.26,TRUE,FALSE,FALSE,TRUE,"""event"",""trial"",""time""
""fullscreenenter"",""5"",""29259""
","
","
","""event"",""trial"",""time""
""fullscreenenter"",""5"",""29259""
","
",436.38499999360647,NA,48,NA,NA,3000,1,NA,NA,images/earth.jpg,images/rocket2,images/rocket1,null,images/rocket2,NA,1,real,null,2,NA,NA,NA,sub55
d3-animate-choice,214,873381,0.0-76.0-1.26,TRUE,FALSE,FALSE,TRUE,"""event"",""trial"",""time""
""fullscreenenter"",""5"",""29259""
","
","
","""event"",""trial"",""time""
""fullscreenenter"",""5"",""29259""
","
",1050.9950000123354,NA,48,NA,NA,3000,1,NA,NA,images/purpleplanet.jpg,images/alien4,images/alien3,images/rocket2,images/alien4,images/t.png,2,real,false,2,rare,1,2020-06-12T19:45:14Z,sub55
two-step-fixation,215,874385,0.0-76.0-2.26,TRUE,FALSE,FALSE,TRUE,"""event"",""trial"",""time""
""fullscreenenter"",""5"",""29259""
","
","
","""event"",""trial"",""time""
""fullscreenenter"",""5"",""29259""
","
",NA,images/earth.jpg,NA,NA,NA,NA,NA,NA,NA,NA,NA,NA,NA,NA,NA,fixation,NA,NA,NA,NA,NA,NA,sub55
d3-animate-choice,216,877007,0.0-76.0-0.27,TRUE,FALSE,FALSE,TRUE,"""event"",""trial"",""time""
""fullscreenenter"",""5"",""29259""
","
","
","""event"",""trial"",""time""
""fullscreenenter"",""5"",""29259""
","
",618.319999994128,NA,48,NA,NA,3000,1,NA,NA,images/earth.jpg,images/rocket2,images/rocket1,null,images/rocket2,NA,1,real,null,2,NA,NA,NA,sub55
d3-animate-choice,217,880045,0.0-76.0-1.27,TRUE,FALSE,FALSE,TRUE,"""event"",""trial"",""time""
""fullscreenenter"",""5"",""29259""
","
","
","""event"",""trial"",""time""
""fullscreenenter"",""5"",""29259""
","
",1033.4000000002561,NA,49,NA,NA,3000,1,NA,NA,images/redplanet1.jpg,images/alien2,images/alien1,images/rocket2,images/alien1,images/t.png,2,real,true,1,common,1,2020-06-12T19:45:21Z,sub55
two-step-fixation,218,881048,0.0-76.0-2.27,TRUE,FALSE,FALSE,TRUE,"""event"",""trial"",""time""
""fullscreenenter"",""5"",""29259""
","
","
","""event"",""trial"",""time""
""fullscreenenter"",""5"",""29259""
","
",NA,images/earth.jpg,NA,NA,NA,NA,NA,NA,NA,NA,NA,NA,NA,NA,NA,fixation,NA,NA,NA,NA,NA,NA,sub55
d3-animate-choice,219,884059,0.0-76.0-0.28,TRUE,FALSE,FALSE,TRUE,"""event"",""trial"",""time""
""fullscreenenter"",""5"",""29259""
","
","
","""event"",""trial"",""time""
""fullscreenenter"",""5"",""29259""
","
",1006.7150000104448,NA,49,NA,NA,3000,1,NA,NA,images/earth.jpg,images/rocket2,images/rocket1,null,images/rocket1,NA,1,real,null,1,NA,NA,NA,sub55
d3-animate-choice,220,886492,0.0-76.0-1.28,TRUE,FALSE,FALSE,TRUE,"""event"",""trial"",""time""
""fullscreenenter"",""5"",""29259""
","
","
","""event"",""trial"",""time""
""fullscreenenter"",""5"",""29259""
","
",428.7999999942258,NA,48,NA,NA,3000,1,NA,NA,images/purpleplanet.jpg,images/alien4,images/alien3,images/rocket1,images/alien4,images/nothing.png,2,real,true,2,common,0,2020-06-12T19:45:27Z,sub55
two-step-fixation,221,887497,0.0-76.0-2.28,TRUE,FALSE,FALSE,TRUE,"""event"",""trial"",""time""
""fullscreenenter"",""5"",""29259""
","
","
","""event"",""trial"",""time""
""fullscreenenter"",""5"",""29259""
","
",NA,images/earth.jpg,NA,NA,NA,NA,NA,NA,NA,NA,NA,NA,NA,NA,NA,fixation,NA,NA,NA,NA,NA,NA,sub55
d3-animate-choice,222,889985,0.0-76.0-0.29,TRUE,FALSE,FALSE,TRUE,"""event"",""trial"",""time""
""fullscreenenter"",""5"",""29259""
","
","
","""event"",""trial"",""time""
""fullscreenenter"",""5"",""29259""
","
",483.989999993355,NA,49,NA,NA,3000,1,NA,NA,images/earth.jpg,images/rocket2,images/rocket1,null,images/rocket1,NA,1,real,null,1,NA,NA,NA,sub55
d3-animate-choice,223,892546,0.0-76.0-1.29,TRUE,FALSE,FALSE,TRUE,"""event"",""trial"",""time""
""fullscreenenter"",""5"",""29259""
","
","
","""event"",""trial"",""time""
""fullscreenenter"",""5"",""29259""
","
",557.3500000027707,NA,49,NA,NA,3000,1,NA,NA,images/purpleplanet.jpg,images/alien4,images/alien3,images/rocket1,images/alien3,images/nothing.png,2,real,true,1,common,0,2020-06-12T19:45:33Z,sub55
two-step-fixation,224,893549,0.0-76.0-2.29,TRUE,FALSE,FALSE,TRUE,"""event"",""trial"",""time""
""fullscreenenter"",""5"",""29259""
","
","
","""event"",""trial"",""time""
""fullscreenenter"",""5"",""29259""
","
",NA,images/earth.jpg,NA,NA,NA,NA,NA,NA,NA,NA,NA,NA,NA,NA,NA,fixation,NA,NA,NA,NA,NA,NA,sub55
d3-animate-choice,225,896315,0.0-76.0-0.30,TRUE,FALSE,FALSE,TRUE,"""event"",""trial"",""time""
""fullscreenenter"",""5"",""29259""
","
","
","""event"",""trial"",""time""
""fullscreenenter"",""5"",""29259""
","
",760.870000012801,NA,48,NA,NA,3000,1,NA,NA,images/earth.jpg,images/rocket2,images/rocket1,null,images/rocket2,NA,1,real,null,2,NA,NA,NA,sub55
d3-animate-choice,226,898904,0.0-76.0-1.30,TRUE,FALSE,FALSE,TRUE,"""event"",""trial"",""time""
""fullscreenenter"",""5"",""29259""
","
","
","""event"",""trial"",""time""
""fullscreenenter"",""5"",""29259""
","
",585.2000000013504,NA,48,NA,NA,3000,1,NA,NA,images/purpleplanet.jpg,images/alien4,images/alien3,images/rocket2,images/alien4,images/nothing.png,2,real,false,2,rare,0,2020-06-12T19:45:40Z,sub55
two-step-fixation,227,899908,0.0-76.0-2.30,TRUE,FALSE,FALSE,TRUE,"""event"",""trial"",""time""
""fullscreenenter"",""5"",""29259""
","
","
","""event"",""trial"",""time""
""fullscreenenter"",""5"",""29259""
","
",NA,images/earth.jpg,NA,NA,NA,NA,NA,NA,NA,NA,NA,NA,NA,NA,NA,fixation,NA,NA,NA,NA,NA,NA,sub55
d3-animate-choice,228,902430,0.0-76.0-0.31,TRUE,FALSE,FALSE,TRUE,"""event"",""trial"",""time""
""fullscreenenter"",""5"",""29259""
","
","
","""event"",""trial"",""time""
""fullscreenenter"",""5"",""29259""
","
",519.0199999924516,NA,48,NA,NA,3000,1,NA,NA,images/earth.jpg,images/rocket2,images/rocket1,null,images/rocket2,NA,1,real,null,2,NA,NA,NA,sub55
d3-animate-choice,229,905667,0.0-76.0-1.31,TRUE,FALSE,FALSE,TRUE,"""event"",""trial"",""time""
""fullscreenenter"",""5"",""29259""
","
","
","""event"",""trial"",""time""
""fullscreenenter"",""5"",""29259""
","
",1232.2750000021188,NA,49,NA,NA,3000,1,NA,NA,images/purpleplanet.jpg,images/alien4,images/alien3,images/rocket2,images/alien3,images/nothing.png,2,real,false,1,rare,0,2020-06-12T19:45:47Z,sub55
two-step-fixation,230,906670,0.0-76.0-2.31,TRUE,FALSE,FALSE,TRUE,"""event"",""trial"",""time""
""fullscreenenter"",""5"",""29259""
","
","
","""event"",""trial"",""time""
""fullscreenenter"",""5"",""29259""
","
",NA,images/earth.jpg,NA,NA,NA,NA,NA,NA,NA,NA,NA,NA,NA,NA,NA,fixation,NA,NA,NA,NA,NA,NA,sub55
d3-animate-choice,231,909571,0.0-76.0-0.32,TRUE,FALSE,FALSE,TRUE,"""event"",""trial"",""time""
""fullscreenenter"",""5"",""29259""
","
","
","""event"",""trial"",""time""
""fullscreenenter"",""5"",""29259""
","
",897.770000010496,NA,48,NA,NA,3000,1,NA,NA,images/earth.jpg,images/rocket2,images/rocket1,null,images/rocket2,NA,1,real,null,2,NA,NA,NA,sub55
d3-animate-choice,232,912793,0.0-76.0-1.32,TRUE,FALSE,FALSE,TRUE,"""event"",""trial"",""time""
""fullscreenenter"",""5"",""29259""
","
","
","""event"",""trial"",""time""
""fullscreenenter"",""5"",""29259""
","
",1217.2199999913573,NA,49,NA,NA,3000,1,NA,NA,images/redplanet1.jpg,images/alien2,images/alien1,images/rocket2,images/alien1,images/nothing.png,2,real,true,1,common,0,2020-06-12T19:45:54Z,sub55
two-step-fixation,233,913796,0.0-76.0-2.32,TRUE,FALSE,FALSE,TRUE,"""event"",""trial"",""time""
""fullscreenenter"",""5"",""29259""
","
","
","""event"",""trial"",""time""
""fullscreenenter"",""5"",""29259""
","
",NA,images/earth.jpg,NA,NA,NA,NA,NA,NA,NA,NA,NA,NA,NA,NA,NA,fixation,NA,NA,NA,NA,NA,NA,sub55
d3-animate-choice,234,916373,0.0-76.0-0.33,TRUE,FALSE,FALSE,TRUE,"""event"",""trial"",""time""
""fullscreenenter"",""5"",""29259""
","
","
","""event"",""trial"",""time""
""fullscreenenter"",""5"",""29259""
","
",574.495000008028,NA,48,NA,NA,3000,1,NA,NA,images/earth.jpg,images/rocket2,images/rocket1,null,images/rocket2,NA,1,real,null,2,NA,NA,NA,sub55
d3-animate-choice,235,918962,0.0-76.0-1.33,TRUE,FALSE,FALSE,TRUE,"""event"",""trial"",""time""
""fullscreenenter"",""5"",""29259""
","
","
","""event"",""trial"",""time""
""fullscreenenter"",""5"",""29259""
","
",584.0900000039255,NA,48,NA,NA,3000,1,NA,NA,images/redplanet1.jpg,images/alien2,images/alien1,images/rocket2,images/alien2,images/nothing.png,2,real,true,2,common,0,2020-06-12T19:46:00Z,sub55
two-step-fixation,236,919967,0.0-76.0-2.33,TRUE,FALSE,FALSE,TRUE,"""event"",""trial"",""time""
""fullscreenenter"",""5"",""29259""
","
","
","""event"",""trial"",""time""
""fullscreenenter"",""5"",""29259""
","
",NA,images/earth.jpg,NA,NA,NA,NA,NA,NA,NA,NA,NA,NA,NA,NA,NA,fixation,NA,NA,NA,NA,NA,NA,sub55
d3-animate-choice,237,922594,0.0-76.0-0.34,TRUE,FALSE,FALSE,TRUE,"""event"",""trial"",""time""
""fullscreenenter"",""5"",""29259""
","
","
","""event"",""trial"",""time""
""fullscreenenter"",""5"",""29259""
","
",621.3450000068406,NA,49,NA,NA,3000,1,NA,NA,images/earth.jpg,images/rocket2,images/rocket1,null,images/rocket1,NA,1,real,null,1,NA,NA,NA,sub55
d3-animate-choice,238,925098,0.0-76.0-1.34,TRUE,FALSE,FALSE,TRUE,"""event"",""trial"",""time""
""fullscreenenter"",""5"",""29259""
","
","
","""event"",""trial"",""time""
""fullscreenenter"",""5"",""29259""
","
",498.84499999461696,NA,48,NA,NA,3000,1,NA,NA,images/redplanet1.jpg,images/alien2,images/alien1,images/rocket1,images/alien2,images/t.png,2,real,false,2,rare,1,2020-06-12T19:46:06Z,sub55
two-step-fixation,239,926101,0.0-76.0-2.34,TRUE,FALSE,FALSE,TRUE,"""event"",""trial"",""time""
""fullscreenenter"",""5"",""29259""
","
","
","""event"",""trial"",""time""
""fullscreenenter"",""5"",""29259""
","
",NA,images/earth.jpg,NA,NA,NA,NA,NA,NA,NA,NA,NA,NA,NA,NA,NA,fixation,NA,NA,NA,NA,NA,NA,sub55
d3-animate-choice,240,928575,0.0-76.0-0.35,TRUE,FALSE,FALSE,TRUE,"""event"",""trial"",""time""
""fullscreenenter"",""5"",""29259""
","
","
","""event"",""trial"",""time""
""fullscreenenter"",""5"",""29259""
","
",471.1549999919953,NA,49,NA,NA,3000,1,NA,NA,images/earth.jpg,images/rocket2,images/rocket1,null,images/rocket1,NA,1,real,null,1,NA,NA,NA,sub55
d3-animate-choice,241,931583,0.0-76.0-1.35,TRUE,FALSE,FALSE,TRUE,"""event"",""trial"",""time""
""fullscreenenter"",""5"",""29259""
","
","
","""event"",""trial"",""time""
""fullscreenenter"",""5"",""29259""
","
",1002.9300000023795,NA,48,NA,NA,3000,1,NA,NA,images/redplanet1.jpg,images/alien2,images/alien1,images/rocket1,images/alien2,images/nothing.png,2,real,false,2,rare,0,2020-06-12T19:46:12Z,sub55
two-step-fixation,242,932586,0.0-76.0-2.35,TRUE,FALSE,FALSE,TRUE,"""event"",""trial"",""time""
""fullscreenenter"",""5"",""29259""
","
","
","""event"",""trial"",""time""
""fullscreenenter"",""5"",""29259""
","
",NA,images/earth.jpg,NA,NA,NA,NA,NA,NA,NA,NA,NA,NA,NA,NA,NA,fixation,NA,NA,NA,NA,NA,NA,sub55
d3-animate-choice,243,935715,0.0-76.0-0.36,TRUE,FALSE,FALSE,TRUE,"""event"",""trial"",""time""
""fullscreenenter"",""5"",""29259""
","
","
","""event"",""trial"",""time""
""fullscreenenter"",""5"",""29259""
","
",1126.510000001872,NA,48,NA,NA,3000,1,NA,NA,images/earth.jpg,images/rocket2,images/rocket1,null,images/rocket2,NA,1,real,null,2,NA,NA,NA,sub55
d3-animate-choice,244,938601,0.0-76.0-1.36,TRUE,FALSE,FALSE,TRUE,"""event"",""trial"",""time""
""fullscreenenter"",""5"",""29259""
","
","
","""event"",""trial"",""time""
""fullscreenenter"",""5"",""29259""
","
",881.3850000005914,NA,48,NA,NA,3000,1,NA,NA,images/purpleplanet.jpg,images/alien4,images/alien3,images/rocket2,images/alien4,images/t.png,2,real,false,2,rare,1,2020-06-12T19:46:19Z,sub55
two-step-fixation,245,939604,0.0-76.0-2.36,TRUE,FALSE,FALSE,TRUE,"""event"",""trial"",""time""
""fullscreenenter"",""5"",""29259""
","
","
","""event"",""trial"",""time""
""fullscreenenter"",""5"",""29259""
","
",NA,images/earth.jpg,NA,NA,NA,NA,NA,NA,NA,NA,NA,NA,NA,NA,NA,fixation,NA,NA,NA,NA,NA,NA,sub55
d3-animate-choice,246,942107,0.0-76.0-0.37,TRUE,FALSE,FALSE,TRUE,"""event"",""trial"",""time""
""fullscreenenter"",""5"",""29259""
","
","
","""event"",""trial"",""time""
""fullscreenenter"",""5"",""29259""
","
",500.095000010333,NA,48,NA,NA,3000,1,NA,NA,images/earth.jpg,images/rocket2,images/rocket1,null,images/rocket2,NA,1,real,null,2,NA,NA,NA,sub55
d3-animate-choice,247,944556,0.0-76.0-1.37,TRUE,FALSE,FALSE,TRUE,"""event"",""trial"",""time""
""fullscreenenter"",""5"",""29259""
","
","
","""event"",""trial"",""time""
""fullscreenenter"",""5"",""29259""
","
",445.6050000007963,NA,48,NA,NA,3000,1,NA,NA,images/purpleplanet.jpg,images/alien4,images/alien3,images/rocket2,images/alien4,images/t.png,2,real,false,2,rare,1,2020-06-12T19:46:25Z,sub55
two-step-fixation,248,945559,0.0-76.0-2.37,TRUE,FALSE,FALSE,TRUE,"""event"",""trial"",""time""
""fullscreenenter"",""5"",""29259""
","
","
","""event"",""trial"",""time""
""fullscreenenter"",""5"",""29259""
","
",NA,images/earth.jpg,NA,NA,NA,NA,NA,NA,NA,NA,NA,NA,NA,NA,NA,fixation,NA,NA,NA,NA,NA,NA,sub55
d3-animate-choice,249,948385,0.0-76.0-0.38,TRUE,FALSE,FALSE,TRUE,"""event"",""trial"",""time""
""fullscreenenter"",""5"",""29259""
","
","
","""event"",""trial"",""time""
""fullscreenenter"",""5"",""29259""
","
",820.9000000060769,NA,48,NA,NA,3000,1,NA,NA,images/earth.jpg,images/rocket2,images/rocket1,null,images/rocket2,NA,1,real,null,2,NA,NA,NA,sub55
d3-animate-choice,250,950981,0.0-76.0-1.38,TRUE,FALSE,FALSE,TRUE,"""event"",""trial"",""time""
""fullscreenenter"",""5"",""29259""
","
","
","""event"",""trial"",""time""
""fullscreenenter"",""5"",""29259""
","
",592.3800000018673,NA,48,NA,NA,3000,1,NA,NA,images/redplanet1.jpg,images/alien2,images/alien1,images/rocket2,images/alien2,images/t.png,2,real,true,2,common,1,2020-06-12T19:46:32Z,sub55
two-step-fixation,251,951984,0.0-76.0-2.38,TRUE,FALSE,FALSE,TRUE,"""event"",""trial"",""time""
""fullscreenenter"",""5"",""29259""
","
","
","""event"",""trial"",""time""
""fullscreenenter"",""5"",""29259""
","
",NA,images/earth.jpg,NA,NA,NA,NA,NA,NA,NA,NA,NA,NA,NA,NA,NA,fixation,NA,NA,NA,NA,NA,NA,sub55
d3-animate-choice,252,954872,0.0-76.0-0.39,TRUE,FALSE,FALSE,TRUE,"""event"",""trial"",""time""
""fullscreenenter"",""5"",""29259""
","
","
","""event"",""trial"",""time""
""fullscreenenter"",""5"",""29259""
","
",884.2000000004191,NA,48,NA,NA,3000,1,NA,NA,images/earth.jpg,images/rocket2,images/rocket1,null,images/rocket2,NA,1,real,null,2,NA,NA,NA,sub55
d3-animate-choice,253,957507,0.0-76.0-1.39,TRUE,FALSE,FALSE,TRUE,"""event"",""trial"",""time""
""fullscreenenter"",""5"",""29259""
","
","
","""event"",""trial"",""time""
""fullscreenenter"",""5"",""29259""
","
",630.749999996624,NA,48,NA,NA,3000,1,NA,NA,images/purpleplanet.jpg,images/alien4,images/alien3,images/rocket2,images/alien4,images/nothing.png,2,real,false,2,rare,0,2020-06-12T19:46:38Z,sub55
two-step-fixation,254,958510,0.0-76.0-2.39,TRUE,FALSE,FALSE,TRUE,"""event"",""trial"",""time""
""fullscreenenter"",""5"",""29259""
","
","
","""event"",""trial"",""time""
""fullscreenenter"",""5"",""29259""
","
",NA,images/earth.jpg,NA,NA,NA,NA,NA,NA,NA,NA,NA,NA,NA,NA,NA,fixation,NA,NA,NA,NA,NA,NA,sub55
d3-animate-choice,255,960868,0.0-76.0-0.40,TRUE,FALSE,FALSE,TRUE,"""event"",""trial"",""time""
""fullscreenenter"",""5"",""29259""
","
","
","""event"",""trial"",""time""
""fullscreenenter"",""5"",""29259""
","
",353.9699999964796,NA,49,NA,NA,3000,1,NA,NA,images/earth.jpg,images/rocket2,images/rocket1,null,images/rocket1,NA,1,real,null,1,NA,NA,NA,sub55
d3-animate-choice,256,963392,0.0-76.0-1.40,TRUE,FALSE,FALSE,TRUE,"""event"",""trial"",""time""
""fullscreenenter"",""5"",""29259""
","
","
","""event"",""trial"",""time""
""fullscreenenter"",""5"",""29259""
","
",521.0949999891454,NA,48,NA,NA,3000,1,NA,NA,images/purpleplanet.jpg,images/alien4,images/alien3,images/rocket1,images/alien4,images/t.png,2,real,true,2,common,1,2020-06-12T19:46:44Z,sub55
two-step-fixation,257,964396,0.0-76.0-2.40,TRUE,FALSE,FALSE,TRUE,"""event"",""trial"",""time""
""fullscreenenter"",""5"",""29259""
","
","
","""event"",""trial"",""time""
""fullscreenenter"",""5"",""29259""
","
",NA,images/earth.jpg,NA,NA,NA,NA,NA,NA,NA,NA,NA,NA,NA,NA,NA,fixation,NA,NA,NA,NA,NA,NA,sub55
d3-animate-choice,258,966752,0.0-76.0-0.41,TRUE,FALSE,FALSE,TRUE,"""event"",""trial"",""time""
""fullscreenenter"",""5"",""29259""
","
","
","""event"",""trial"",""time""
""fullscreenenter"",""5"",""29259""
","
",352.3350000032224,NA,49,NA,NA,3000,1,NA,NA,images/earth.jpg,images/rocket2,images/rocket1,null,images/rocket1,NA,1,real,null,1,NA,NA,NA,sub55
d3-animate-choice,259,969137,0.0-76.0-1.41,TRUE,FALSE,FALSE,TRUE,"""event"",""trial"",""time""
""fullscreenenter"",""5"",""29259""
","
","
","""event"",""trial"",""time""
""fullscreenenter"",""5"",""29259""
","
",380.0199999968754,NA,48,NA,NA,3000,1,NA,NA,images/purpleplanet.jpg,images/alien4,images/alien3,images/rocket1,images/alien4,images/t.png,2,real,true,2,common,1,2020-06-12T19:46:50Z,sub55
two-step-fixation,260,970140,0.0-76.0-2.41,TRUE,FALSE,FALSE,TRUE,"""event"",""trial"",""time""
""fullscreenenter"",""5"",""29259""
","
","
","""event"",""trial"",""time""
""fullscreenenter"",""5"",""29259""
","
",NA,images/earth.jpg,NA,NA,NA,NA,NA,NA,NA,NA,NA,NA,NA,NA,NA,fixation,NA,NA,NA,NA,NA,NA,sub55
d3-animate-choice,261,972516,0.0-76.0-0.42,TRUE,FALSE,FALSE,TRUE,"""event"",""trial"",""time""
""fullscreenenter"",""5"",""29259""
","
","
","""event"",""trial"",""time""
""fullscreenenter"",""5"",""29259""
","
",372.189999994589,NA,49,NA,NA,3000,1,NA,NA,images/earth.jpg,images/rocket2,images/rocket1,null,images/rocket1,NA,1,real,null,1,NA,NA,NA,sub55
d3-animate-choice,262,975112,0.0-76.0-1.42,TRUE,FALSE,FALSE,TRUE,"""event"",""trial"",""time""
""fullscreenenter"",""5"",""29259""
","
","
","""event"",""trial"",""time""
""fullscreenenter"",""5"",""29259""
","
",593.4250000136672,NA,48,NA,NA,3000,1,NA,NA,images/purpleplanet.jpg,images/alien4,images/alien3,images/rocket1,images/alien4,images/t.png,2,real,true,2,common,1,2020-06-12T19:46:56Z,sub55
two-step-fixation,263,976116,0.0-76.0-2.42,TRUE,FALSE,FALSE,TRUE,"""event"",""trial"",""time""
""fullscreenenter"",""5"",""29259""
","
","
","""event"",""trial"",""time""
""fullscreenenter"",""5"",""29259""
","
",NA,images/earth.jpg,NA,NA,NA,NA,NA,NA,NA,NA,NA,NA,NA,NA,NA,fixation,NA,NA,NA,NA,NA,NA,sub55
d3-animate-choice,264,978699,0.0-76.0-0.43,TRUE,FALSE,FALSE,TRUE,"""event"",""trial"",""time""
""fullscreenenter"",""5"",""29259""
","
","
","""event"",""trial"",""time""
""fullscreenenter"",""5"",""29259""
","
",579.2199999996228,NA,49,NA,NA,3000,1,NA,NA,images/earth.jpg,images/rocket2,images/rocket1,null,images/rocket1,NA,1,real,null,1,NA,NA,NA,sub55
d3-animate-choice,265,981451,0.0-76.0-1.43,TRUE,FALSE,FALSE,TRUE,"""event"",""trial"",""time""
""fullscreenenter"",""5"",""29259""
","
","
","""event"",""trial"",""time""
""fullscreenenter"",""5"",""29259""
","
",748.8100000045961,NA,48,NA,NA,3000,1,NA,NA,images/purpleplanet.jpg,images/alien4,images/alien3,images/rocket1,images/alien4,images/nothing.png,2,real,true,2,common,0,2020-06-12T19:47:02Z,sub55
two-step-fixation,266,982454,0.0-76.0-2.43,TRUE,FALSE,FALSE,TRUE,"""event"",""trial"",""time""
""fullscreenenter"",""5"",""29259""
","
","
","""event"",""trial"",""time""
""fullscreenenter"",""5"",""29259""
","
",NA,images/earth.jpg,NA,NA,NA,NA,NA,NA,NA,NA,NA,NA,NA,NA,NA,fixation,NA,NA,NA,NA,NA,NA,sub55
d3-animate-choice,267,984926,0.0-76.0-0.44,TRUE,FALSE,FALSE,TRUE,"""event"",""trial"",""time""
""fullscreenenter"",""5"",""29259""
","
","
","""event"",""trial"",""time""
""fullscreenenter"",""5"",""29259""
","
",468.8199999945937,NA,49,NA,NA,3000,1,NA,NA,images/earth.jpg,images/rocket2,images/rocket1,null,images/rocket1,NA,1,real,null,1,NA,NA,NA,sub55
d3-animate-choice,268,987299,0.0-76.0-1.44,TRUE,FALSE,FALSE,TRUE,"""event"",""trial"",""time""
""fullscreenenter"",""5"",""29259""
","
","
","""event"",""trial"",""time""
""fullscreenenter"",""5"",""29259""
","
",369.3100000091363,NA,49,NA,NA,3000,1,NA,NA,images/purpleplanet.jpg,images/alien4,images/alien3,images/rocket1,images/alien3,images/t.png,2,real,true,1,common,1,2020-06-12T19:47:08Z,sub55
two-step-fixation,269,988301,0.0-76.0-2.44,TRUE,FALSE,FALSE,TRUE,"""event"",""trial"",""time""
""fullscreenenter"",""5"",""29259""
","
","
","""event"",""trial"",""time""
""fullscreenenter"",""5"",""29259""
","
",NA,images/earth.jpg,NA,NA,NA,NA,NA,NA,NA,NA,NA,NA,NA,NA,NA,fixation,NA,NA,NA,NA,NA,NA,sub55
d3-animate-choice,270,990755,0.0-76.0-0.45,TRUE,FALSE,FALSE,TRUE,"""event"",""trial"",""time""
""fullscreenenter"",""5"",""29259""
","
","
","""event"",""trial"",""time""
""fullscreenenter"",""5"",""29259""
","
",449.57500000600703,NA,49,NA,NA,3000,1,NA,NA,images/earth.jpg,images/rocket2,images/rocket1,null,images/rocket1,NA,1,real,null,1,NA,NA,NA,sub55
d3-animate-choice,271,993294,0.0-76.0-1.45,TRUE,FALSE,FALSE,TRUE,"""event"",""trial"",""time""
""fullscreenenter"",""5"",""29259""
","
","
","""event"",""trial"",""time""
""fullscreenenter"",""5"",""29259""
","
",534.444999997504,NA,49,NA,NA,3000,1,NA,NA,images/purpleplanet.jpg,images/alien4,images/alien3,images/rocket1,images/alien3,images/t.png,2,real,true,1,common,1,2020-06-12T19:47:14Z,sub55
two-step-fixation,272,994297,0.0-76.0-2.45,TRUE,FALSE,FALSE,TRUE,"""event"",""trial"",""time""
""fullscreenenter"",""5"",""29259""
","
","
","""event"",""trial"",""time""
""fullscreenenter"",""5"",""29259""
","
",NA,images/earth.jpg,NA,NA,NA,NA,NA,NA,NA,NA,NA,NA,NA,NA,NA,fixation,NA,NA,NA,NA,NA,NA,sub55
d3-animate-choice,273,996783,0.0-76.0-0.46,TRUE,FALSE,FALSE,TRUE,"""event"",""trial"",""time""
""fullscreenenter"",""5"",""29259""
","
","
","""event"",""trial"",""time""
""fullscreenenter"",""5"",""29259""
","
",482.1049999882234,NA,49,NA,NA,3000,1,NA,NA,images/earth.jpg,images/rocket2,images/rocket1,null,images/rocket1,NA,1,real,null,1,NA,NA,NA,sub55
d3-animate-choice,274,999290,0.0-76.0-1.46,TRUE,FALSE,FALSE,TRUE,"""event"",""trial"",""time""
""fullscreenenter"",""5"",""29259""
","
","
","""event"",""trial"",""time""
""fullscreenenter"",""5"",""29259""
","
",502.0349999977043,NA,49,NA,NA,3000,1,NA,NA,images/purpleplanet.jpg,images/alien4,images/alien3,images/rocket1,images/alien3,images/nothing.png,2,real,true,1,common,0,2020-06-12T19:47:20Z,sub55
two-step-fixation,275,1000293,0.0-76.0-2.46,TRUE,FALSE,FALSE,TRUE,"""event"",""trial"",""time""
""fullscreenenter"",""5"",""29259""
","
","
","""event"",""trial"",""time""
""fullscreenenter"",""5"",""29259""
","
",NA,images/earth.jpg,NA,NA,NA,NA,NA,NA,NA,NA,NA,NA,NA,NA,NA,fixation,NA,NA,NA,NA,NA,NA,sub55
d3-animate-choice,276,1003037,0.0-76.0-0.47,TRUE,FALSE,FALSE,TRUE,"""event"",""trial"",""time""
""fullscreenenter"",""5"",""29259""
","
","
","""event"",""trial"",""time""
""fullscreenenter"",""5"",""29259""
","
",740.6150000024354,NA,48,NA,NA,3000,1,NA,NA,images/earth.jpg,images/rocket2,images/rocket1,null,images/rocket2,NA,1,real,null,2,NA,NA,NA,sub55
d3-animate-choice,277,1005935,0.0-76.0-1.47,TRUE,FALSE,FALSE,TRUE,"""event"",""trial"",""time""
""fullscreenenter"",""5"",""29259""
","
","
","""event"",""trial"",""time""
""fullscreenenter"",""5"",""29259""
","
",893.5899999924004,NA,48,NA,NA,3000,1,NA,NA,images/redplanet1.jpg,images/alien2,images/alien1,images/rocket2,images/alien2,images/t.png,2,real,true,2,common,1,2020-06-12T19:47:27Z,sub55
two-step-fixation,278,1006937,0.0-76.0-2.47,TRUE,FALSE,FALSE,TRUE,"""event"",""trial"",""time""
""fullscreenenter"",""5"",""29259""
","
","
","""event"",""trial"",""time""
""fullscreenenter"",""5"",""29259""
","
",NA,images/earth.jpg,NA,NA,NA,NA,NA,NA,NA,NA,NA,NA,NA,NA,NA,fixation,NA,NA,NA,NA,NA,NA,sub55
d3-animate-choice,279,1009554,0.0-76.0-0.48,TRUE,FALSE,FALSE,TRUE,"""event"",""trial"",""time""
""fullscreenenter"",""5"",""29259""
","
","
","""event"",""trial"",""time""
""fullscreenenter"",""5"",""29259""
","
",613.1699999968987,NA,48,NA,NA,3000,1,NA,NA,images/earth.jpg,images/rocket2,images/rocket1,null,images/rocket2,NA,1,real,null,2,NA,NA,NA,sub55
d3-animate-choice,280,1012089,0.0-76.0-1.48,TRUE,FALSE,FALSE,TRUE,"""event"",""trial"",""time""
""fullscreenenter"",""5"",""29259""
","
","
","""event"",""trial"",""time""
""fullscreenenter"",""5"",""29259""
","
",531.9999999920838,NA,48,NA,NA,3000,1,NA,NA,images/redplanet1.jpg,images/alien2,images/alien1,images/rocket2,images/alien2,images/t.png,2,real,true,2,common,1,2020-06-12T19:47:33Z,sub55
two-step-fixation,281,1013092,0.0-76.0-2.48,TRUE,FALSE,FALSE,TRUE,"""event"",""trial"",""time""
""fullscreenenter"",""5"",""29259""
","
","
","""event"",""trial"",""time""
""fullscreenenter"",""5"",""29259""
","
",NA,images/earth.jpg,NA,NA,NA,NA,NA,NA,NA,NA,NA,NA,NA,NA,NA,fixation,NA,NA,NA,NA,NA,NA,sub55
d3-animate-choice,282,1015855,0.0-76.0-0.49,TRUE,FALSE,FALSE,TRUE,"""event"",""trial"",""time""
""fullscreenenter"",""5"",""29259""
","
","
","""event"",""trial"",""time""
""fullscreenenter"",""5"",""29259""
","
",760.0150000071153,NA,48,NA,NA,3000,1,NA,NA,images/earth.jpg,images/rocket2,images/rocket1,null,images/rocket2,NA,1,real,null,2,NA,NA,NA,sub55
d3-animate-choice,283,1018500,0.0-76.0-1.49,TRUE,FALSE,FALSE,TRUE,"""event"",""trial"",""time""
""fullscreenenter"",""5"",""29259""
","
","
","""event"",""trial"",""time""
