trial_type,trial_index,time_elapsed,internal_node_id,rocket_sides,red_planet_first_rocket,red_display_order,purple_display_order,interactions,blur_events,focus_events,fullscreenenter_events,fullscreenexit_events,rt,stimulus,key_press,button_pressed,success,duration,valid_pressed,rts,keys,planet_text,right_text,left_text,center_text,chosen_text,reward_text,trial_stage,practice_trial,transition_type,choice,transition,reward,timestamp,subject_id
pavlovia,0,4,0.0-0.0,FALSE,TRUE,TRUE,FALSE,"
","
","
","
","
",NA,NA,NA,NA,NA,NA,NA,NA,NA,NA,NA,NA,NA,NA,NA,NA,NA,NA,NA,NA,NA,NA,sub24
html-keyboard-response,1,1918,0.0-1.0,FALSE,TRUE,TRUE,FALSE,"
","
","
","
","
",1912.4649999430403,Welcome! Press the space bar to begin.,32,NA,NA,NA,NA,NA,NA,NA,NA,NA,NA,NA,NA,NA,NA,NA,NA,NA,NA,NA,sub24
audio-keyboard-response,2,4308,0.0-2.0,FALSE,TRUE,TRUE,FALSE,"
","
","
","
","
",2368,audio/beep_loop.wav,32,NA,NA,NA,NA,NA,NA,NA,NA,NA,NA,NA,NA,NA,NA,NA,NA,NA,NA,NA,sub24
audio-button-response,3,6369,0.0-3.0,FALSE,TRUE,TRUE,FALSE,"
","
","
","
","
",NaN,audio/fish.mp3,NA,1,NA,NA,NA,NA,NA,NA,NA,NA,NA,NA,NA,NA,NA,NA,NA,NA,NA,NA,sub24
audio-button-response,4,9057,0.0-4.0,FALSE,TRUE,TRUE,FALSE,"""event"",""trial"",""time""
""fullscreenenter"",""5"",""12985""
","
","
","""event"",""trial"",""time""
""fullscreenenter"",""5"",""12985""
","
",NaN,audio/tiger.mp3,NA,4,NA,NA,NA,NA,NA,NA,NA,NA,NA,NA,NA,NA,NA,NA,NA,NA,NA,NA,sub24
fullscreen,5,13969,0.0-5.0,FALSE,TRUE,TRUE,FALSE,"""event"",""trial"",""time""
""fullscreenenter"",""5"",""12985""
","
","
","""event"",""trial"",""time""
""fullscreenenter"",""5"",""12985""
","
",NA,NA,NA,NA,TRUE,NA,NA,NA,NA,NA,NA,NA,NA,NA,NA,NA,NA,NA,NA,NA,NA,NA,sub24
d3-instructions,6,22245,0.0-6.0,FALSE,TRUE,TRUE,FALSE,"""event"",""trial"",""time""
""fullscreenenter"",""5"",""12985""
","
","
","""event"",""trial"",""time""
""fullscreenenter"",""5"",""12985""
","
",NA,NA,NA,NA,NA,NA,NA,NA,NA,NA,NA,NA,NA,NA,NA,NA,NA,NA,NA,NA,NA,NA,sub24
d3-instructions,7,29275,0.0-7.0,FALSE,TRUE,TRUE,FALSE,"""event"",""trial"",""time""
""fullscreenenter"",""5"",""12985""
","
","
","""event"",""trial"",""time""
""fullscreenenter"",""5"",""12985""
","
",NA,NA,NA,NA,NA,NA,NA,NA,NA,NA,NA,NA,NA,NA,NA,NA,NA,NA,NA,NA,NA,NA,sub24
d3-instructions,8,32547,0.0-8.0,FALSE,TRUE,TRUE,FALSE,"""event"",""trial"",""time""
""fullscreenenter"",""5"",""12985""
","
","
","""event"",""trial"",""time""
""fullscreenenter"",""5"",""12985""
","
",NA,NA,NA,NA,NA,NA,NA,NA,NA,NA,NA,NA,NA,NA,NA,NA,NA,NA,NA,NA,NA,NA,sub24
d3-instructions,9,42736,0.0-9.0,FALSE,TRUE,TRUE,FALSE,"""event"",""trial"",""time""
""fullscreenenter"",""5"",""12985""
","
","
","""event"",""trial"",""time""
""fullscreenenter"",""5"",""12985""
","
",NA,NA,NA,NA,NA,NA,NA,NA,NA,NA,NA,NA,NA,NA,NA,NA,NA,NA,NA,NA,NA,NA,sub24
d3-instructions,10,56970,0.0-10.0,FALSE,TRUE,TRUE,FALSE,"""event"",""trial"",""time""
""fullscreenenter"",""5"",""12985""
","
","
","""event"",""trial"",""time""
""fullscreenenter"",""5"",""12985""
","
",NA,NA,NA,NA,NA,NA,NA,NA,NA,NA,NA,NA,NA,NA,NA,NA,NA,NA,NA,NA,NA,NA,sub24
d3-animate-choice,11,60375,0.0-11.0,FALSE,TRUE,TRUE,FALSE,"""event"",""trial"",""time""
""fullscreenenter"",""5"",""12985""
","
","
","""event"",""trial"",""time""
""fullscreenenter"",""5"",""12985""
","
",1398.6649999860674,NA,49,NA,NA,3000,1,2443.7550000147894,48,images/tutgreenplanet.jpg,images/tutalien1,images/tutalien2,null,images/tutalien2,NA,NA,practice,null,NA,NA,NA,NA,sub24
d3-animate-choice,12,63407,0.0-12.0,FALSE,TRUE,TRUE,FALSE,"""event"",""trial"",""time""
""fullscreenenter"",""5"",""12985""
","
","
","""event"",""trial"",""time""
""fullscreenenter"",""5"",""12985""
","
",1028.569999965839,NA,48,NA,NA,3000,1,NA,NA,images/tutgreenplanet.jpg,images/tutalien1,images/tutalien2,null,images/tutalien1,NA,NA,practice,null,NA,NA,NA,NA,sub24
d3-animate-choice,13,67066,0.0-13.0,FALSE,TRUE,TRUE,FALSE,"""event"",""trial"",""time""
""fullscreenenter"",""5"",""12985""
","
","
","""event"",""trial"",""time""
""fullscreenenter"",""5"",""12985""
","
",1654.8600000096485,NA,49,NA,NA,3000,1,NA,NA,images/tutgreenplanet.jpg,images/tutalien1,images/tutalien2,null,images/tutalien2,NA,NA,practice,null,NA,NA,NA,NA,sub24
d3-animate-choice,14,69389,0.0-14.0,FALSE,TRUE,TRUE,FALSE,"""event"",""trial"",""time""
""fullscreenenter"",""5"",""12985""
","
","
","""event"",""trial"",""time""
""fullscreenenter"",""5"",""12985""
","
",317.07500002812594,NA,48,NA,NA,3000,1,NA,NA,images/tutgreenplanet.jpg,images/tutalien1,images/tutalien2,null,images/tutalien1,NA,NA,practice,null,NA,NA,NA,NA,sub24
d3-instructions,15,75278,0.0-15.0,FALSE,TRUE,TRUE,FALSE,"""event"",""trial"",""time""
""fullscreenenter"",""5"",""12985""
","
","
","""event"",""trial"",""time""
""fullscreenenter"",""5"",""12985""
","
",NA,NA,NA,NA,NA,NA,NA,NA,NA,NA,NA,NA,NA,NA,NA,NA,NA,NA,NA,NA,NA,NA,sub24
d3-instructions,16,77621,0.0-16.0,FALSE,TRUE,TRUE,FALSE,"""event"",""trial"",""time""
""fullscreenenter"",""5"",""12985""
","
","
","""event"",""trial"",""time""
""fullscreenenter"",""5"",""12985""
","
",NA,NA,NA,NA,NA,NA,NA,NA,NA,NA,NA,NA,NA,NA,NA,NA,NA,NA,NA,NA,NA,NA,sub24
d3-instructions,17,84214,0.0-17.0,FALSE,TRUE,TRUE,FALSE,"""event"",""trial"",""time""
""fullscreenenter"",""5"",""12985""
","
","
","""event"",""trial"",""time""
""fullscreenenter"",""5"",""12985""
","
",NA,NA,NA,NA,NA,NA,NA,NA,NA,NA,NA,NA,NA,NA,NA,NA,NA,NA,NA,NA,NA,NA,sub24
d3-instructions,18,92622,0.0-18.0,FALSE,TRUE,TRUE,FALSE,"""event"",""trial"",""time""
""fullscreenenter"",""5"",""12985""
","
","
","""event"",""trial"",""time""
""fullscreenenter"",""5"",""12985""
","
",NA,NA,NA,NA,NA,NA,NA,NA,NA,NA,NA,NA,NA,NA,NA,NA,NA,NA,NA,NA,NA,NA,sub24
d3-instructions,19,100479,0.0-19.0,FALSE,TRUE,TRUE,FALSE,"""event"",""trial"",""time""
""fullscreenenter"",""5"",""12985""
","
","
","""event"",""trial"",""time""
""fullscreenenter"",""5"",""12985""
","
",NA,NA,NA,NA,NA,NA,NA,NA,NA,NA,NA,NA,NA,NA,NA,NA,NA,NA,NA,NA,NA,NA,sub24
d3-animate-choice,20,103124,0.0-20.0,FALSE,TRUE,TRUE,FALSE,"""event"",""trial"",""time""
""fullscreenenter"",""5"",""12985""
","
","
","""event"",""trial"",""time""
""fullscreenenter"",""5"",""12985""
","
",642.1350000891834,NA,49,NA,NA,3000,1,NA,NA,images/tutyellowplanet.jpg,null,images/tutalien3,null,images/tutalien3,images/t.png,NA,practice,null,NA,NA,NA,NA,sub24
d3-animate-choice,21,105527,0.0-21.0,FALSE,TRUE,TRUE,FALSE,"""event"",""trial"",""time""
""fullscreenenter"",""5"",""12985""
","
","
","""event"",""trial"",""time""
""fullscreenenter"",""5"",""12985""
","
",400.38500004447997,NA,49,NA,NA,3000,1,1831.7550000501797,49,images/tutyellowplanet.jpg,null,images/tutalien3,null,images/tutalien3,images/t.png,NA,practice,null,NA,NA,NA,NA,sub24
d3-animate-choice,22,107810,0.0-22.0,FALSE,TRUE,TRUE,FALSE,"""event"",""trial"",""time""
""fullscreenenter"",""5"",""12985""
","
","
","""event"",""trial"",""time""
""fullscreenenter"",""5"",""12985""
","
",280.42500000447035,NA,49,NA,NA,3000,1,NA,NA,images/tutyellowplanet.jpg,null,images/tutalien3,null,images/tutalien3,images/t.png,NA,practice,null,NA,NA,NA,NA,sub24
d3-animate-choice,23,110156,0.0-23.0,FALSE,TRUE,TRUE,FALSE,"""event"",""trial"",""time""
""fullscreenenter"",""5"",""12985""
","
","
","""event"",""trial"",""time""
""fullscreenenter"",""5"",""12985""
","
",342.18999999575317,NA,49,NA,NA,3000,1,NA,NA,images/tutyellowplanet.jpg,null,images/tutalien3,null,images/tutalien3,images/t.png,NA,practice,null,NA,NA,NA,NA,sub24
d3-animate-choice,24,112391,0.0-24.0,FALSE,TRUE,TRUE,FALSE,"""event"",""trial"",""time""
""fullscreenenter"",""5"",""12985""
","
","
","""event"",""trial"",""time""
""fullscreenenter"",""5"",""12985""
","
",233.09999995399266,NA,49,NA,NA,3000,1,NA,NA,images/tutyellowplanet.jpg,null,images/tutalien3,null,images/tutalien3,images/t.png,NA,practice,null,NA,NA,NA,NA,sub24
d3-animate-choice,25,114752,0.0-25.0,FALSE,TRUE,TRUE,FALSE,"""event"",""trial"",""time""
""fullscreenenter"",""5"",""12985""
","
","
","""event"",""trial"",""time""
""fullscreenenter"",""5"",""12985""
","
",356.38000001199543,NA,49,NA,NA,3000,1,NA,NA,images/tutyellowplanet.jpg,null,images/tutalien3,null,images/tutalien3,images/t.png,NA,practice,null,NA,NA,NA,NA,sub24
d3-animate-choice,26,116908,0.0-26.0,FALSE,TRUE,TRUE,FALSE,"""event"",""trial"",""time""
""fullscreenenter"",""5"",""12985""
","
","
","""event"",""trial"",""time""
""fullscreenenter"",""5"",""12985""
","
",152.85499999299645,NA,49,NA,NA,3000,1,NA,NA,images/tutyellowplanet.jpg,null,images/tutalien3,null,images/tutalien3,images/t.png,NA,practice,null,NA,NA,NA,NA,sub24
d3-animate-choice,27,119208,0.0-27.0,FALSE,TRUE,TRUE,FALSE,"""event"",""trial"",""time""
""fullscreenenter"",""5"",""12985""
","
","
","""event"",""trial"",""time""
""fullscreenenter"",""5"",""12985""
","
",295.7450000103563,NA,49,NA,NA,3000,1,NA,NA,images/tutyellowplanet.jpg,null,images/tutalien3,null,images/tutalien3,images/nothing.png,NA,practice,null,NA,NA,NA,NA,sub24
d3-animate-choice,28,121690,0.0-28.0,FALSE,TRUE,TRUE,FALSE,"""event"",""trial"",""time""
""fullscreenenter"",""5"",""12985""
","
","
","""event"",""trial"",""time""
""fullscreenenter"",""5"",""12985""
","
",478.4850000869483,NA,49,NA,NA,3000,1,NA,NA,images/tutyellowplanet.jpg,null,images/tutalien3,null,images/tutalien3,images/nothing.png,NA,practice,null,NA,NA,NA,NA,sub24
d3-animate-choice,29,123909,0.0-29.0,FALSE,TRUE,TRUE,FALSE,"""event"",""trial"",""time""
""fullscreenenter"",""5"",""12985""
","
","
","""event"",""trial"",""time""
""fullscreenenter"",""5"",""12985""
","
",217.00499998405576,NA,49,NA,NA,3000,1,NA,NA,images/tutyellowplanet.jpg,null,images/tutalien3,null,images/tutalien3,images/t.png,NA,practice,null,NA,NA,NA,NA,sub24
d3-instructions,30,126775,0.0-30.0,FALSE,TRUE,TRUE,FALSE,"""event"",""trial"",""time""
""fullscreenenter"",""5"",""12985""
","
","
","""event"",""trial"",""time""
""fullscreenenter"",""5"",""12985""
","
",NA,NA,NA,NA,NA,NA,NA,NA,NA,NA,NA,NA,NA,NA,NA,NA,NA,NA,NA,NA,NA,NA,sub24
d3-instructions,31,129931,0.0-31.0,FALSE,TRUE,TRUE,FALSE,"""event"",""trial"",""time""
""fullscreenenter"",""5"",""12985""
","
","
","""event"",""trial"",""time""
""fullscreenenter"",""5"",""12985""
","
",NA,NA,NA,NA,NA,NA,NA,NA,NA,NA,NA,NA,NA,NA,NA,NA,NA,NA,NA,NA,NA,NA,sub24
d3-instructions,32,134890,0.0-32.0,FALSE,TRUE,TRUE,FALSE,"""event"",""trial"",""time""
""fullscreenenter"",""5"",""12985""
","
","
","""event"",""trial"",""time""
""fullscreenenter"",""5"",""12985""
","
",NA,NA,NA,NA,NA,NA,NA,NA,NA,NA,NA,NA,NA,NA,NA,NA,NA,NA,NA,NA,NA,NA,sub24
d3-instructions,33,138074,0.0-33.0,FALSE,TRUE,TRUE,FALSE,"""event"",""trial"",""time""
""fullscreenenter"",""5"",""12985""
","
","
","""event"",""trial"",""time""
""fullscreenenter"",""5"",""12985""
","
",NA,NA,NA,NA,NA,NA,NA,NA,NA,NA,NA,NA,NA,NA,NA,NA,NA,NA,NA,NA,NA,NA,sub24
d3-animate-choice,34,141932,0.0-34.0,FALSE,TRUE,TRUE,FALSE,"""event"",""trial"",""time""
""fullscreenenter"",""5"",""12985""
","
","
","""event"",""trial"",""time""
""fullscreenenter"",""5"",""12985""
","
",1856.2350000720471,NA,49,NA,NA,3000,1,NA,NA,images/tutgreenplanet.jpg,images/tutalien1,images/tutalien2,null,images/tutalien2,images/t.png,NA,practice,null,NA,NA,NA,NA,sub24
d3-animate-choice,35,145099,0.0-35.0,FALSE,TRUE,TRUE,FALSE,"""event"",""trial"",""time""
""fullscreenenter"",""5"",""12985""
","
","
","""event"",""trial"",""time""
""fullscreenenter"",""5"",""12985""
","
",1162.4249999877065,NA,48,NA,NA,3000,1,NA,NA,images/tutgreenplanet.jpg,images/tutalien1,images/tutalien2,null,images/tutalien1,images/nothing.png,NA,practice,null,NA,NA,NA,NA,sub24
d3-animate-choice,36,147434,0.0-36.0,FALSE,TRUE,TRUE,FALSE,"""event"",""trial"",""time""
""fullscreenenter"",""5"",""12985""
","
","
","""event"",""trial"",""time""
""fullscreenenter"",""5"",""12985""
","
",332.1950000245124,NA,49,NA,NA,3000,1,NA,NA,images/tutgreenplanet.jpg,images/tutalien1,images/tutalien2,null,images/tutalien2,images/t.png,NA,practice,null,NA,NA,NA,NA,sub24
d3-animate-choice,37,149689,0.0-37.0,FALSE,TRUE,TRUE,FALSE,"""event"",""trial"",""time""
""fullscreenenter"",""5"",""12985""
","
","
","""event"",""trial"",""time""
""fullscreenenter"",""5"",""12985""
","
",252.13000003714114,NA,49,NA,NA,3000,1,NA,NA,images/tutgreenplanet.jpg,images/tutalien1,images/tutalien2,null,images/tutalien2,images/t.png,NA,practice,null,NA,NA,NA,NA,sub24
d3-animate-choice,38,151866,0.0-38.0,FALSE,TRUE,TRUE,FALSE,"""event"",""trial"",""time""
""fullscreenenter"",""5"",""12985""
","
","
","""event"",""trial"",""time""
""fullscreenenter"",""5"",""12985""
","
",173.70499996468425,NA,49,NA,NA,3000,1,NA,NA,images/tutgreenplanet.jpg,images/tutalien1,images/tutalien2,null,images/tutalien2,images/nothing.png,NA,practice,null,NA,NA,NA,NA,sub24
d3-animate-choice,39,154237,0.0-39.0,FALSE,TRUE,TRUE,FALSE,"""event"",""trial"",""time""
""fullscreenenter"",""5"",""12985""
","
","
","""event"",""trial"",""time""
""fullscreenenter"",""5"",""12985""
","
",367.0949999941513,NA,48,NA,NA,3000,1,NA,NA,images/tutgreenplanet.jpg,images/tutalien1,images/tutalien2,null,images/tutalien1,images/nothing.png,NA,practice,null,NA,NA,NA,NA,sub24
d3-animate-choice,40,156591,0.0-40.0,FALSE,TRUE,TRUE,FALSE,"""event"",""trial"",""time""
""fullscreenenter"",""5"",""12985""
","
","
","""event"",""trial"",""time""
""fullscreenenter"",""5"",""12985""
","
",348.9400000544265,NA,49,NA,NA,3000,1,NA,NA,images/tutgreenplanet.jpg,images/tutalien1,images/tutalien2,null,images/tutalien2,images/t.png,NA,practice,null,NA,NA,NA,NA,sub24
d3-animate-choice,41,158808,0.0-41.0,FALSE,TRUE,TRUE,FALSE,"""event"",""trial"",""time""
""fullscreenenter"",""5"",""12985""
","
","
","""event"",""trial"",""time""
""fullscreenenter"",""5"",""12985""
","
",211.1799999838695,NA,49,NA,NA,3000,1,NA,NA,images/tutgreenplanet.jpg,images/tutalien1,images/tutalien2,null,images/tutalien2,images/t.png,NA,practice,null,NA,NA,NA,NA,sub24
d3-animate-choice,42,161060,0.0-42.0,FALSE,TRUE,TRUE,FALSE,"""event"",""trial"",""time""
""fullscreenenter"",""5"",""12985""
","
","
","""event"",""trial"",""time""
""fullscreenenter"",""5"",""12985""
","
",246.41000002156943,NA,49,NA,NA,3000,1,1648.4700000146404,32,images/tutgreenplanet.jpg,images/tutalien1,images/tutalien2,null,images/tutalien2,images/t.png,NA,practice,null,NA,NA,NA,NA,sub24
d3-animate-choice,43,163461,0.0-43.0,FALSE,TRUE,TRUE,FALSE,"""event"",""trial"",""time""
""fullscreenenter"",""5"",""12985""
","
","
","""event"",""trial"",""time""
""fullscreenenter"",""5"",""12985""
","
",398.37499998975545,NA,49,NA,NA,3000,1,NA,NA,images/tutgreenplanet.jpg,images/tutalien1,images/tutalien2,null,images/tutalien2,images/t.png,NA,practice,null,NA,NA,NA,NA,sub24
d3-instructions,44,176070,0.0-44.0,FALSE,TRUE,TRUE,FALSE,"""event"",""trial"",""time""
""fullscreenenter"",""5"",""12985""
","
","
","""event"",""trial"",""time""
""fullscreenenter"",""5"",""12985""
","
",NA,NA,NA,NA,NA,NA,NA,NA,NA,NA,NA,NA,NA,NA,NA,NA,NA,NA,NA,NA,NA,NA,sub24
d3-instructions,45,181254,0.0-45.0,FALSE,TRUE,TRUE,FALSE,"""event"",""trial"",""time""
""fullscreenenter"",""5"",""12985""
","
","
","""event"",""trial"",""time""
""fullscreenenter"",""5"",""12985""
","
",NA,NA,NA,NA,NA,NA,NA,NA,NA,NA,NA,NA,NA,NA,NA,NA,NA,NA,NA,NA,NA,NA,sub24
d3-instructions,46,185893,0.0-46.0,FALSE,TRUE,TRUE,FALSE,"""event"",""trial"",""time""
""fullscreenenter"",""5"",""12985""
","
","
","""event"",""trial"",""time""
""fullscreenenter"",""5"",""12985""
","
",NA,NA,NA,NA,NA,NA,NA,NA,NA,NA,NA,NA,NA,NA,NA,NA,NA,NA,NA,NA,NA,NA,sub24
d3-instructions,47,189791,0.0-47.0,FALSE,TRUE,TRUE,FALSE,"""event"",""trial"",""time""
""fullscreenenter"",""5"",""12985""
","
","
","""event"",""trial"",""time""
""fullscreenenter"",""5"",""12985""
","
",NA,NA,NA,NA,NA,NA,NA,NA,NA,NA,NA,NA,NA,NA,NA,NA,NA,NA,NA,NA,NA,NA,sub24
d3-instructions,48,192634,0.0-48.0,FALSE,TRUE,TRUE,FALSE,"""event"",""trial"",""time""
""fullscreenenter"",""5"",""12985""
","
","
","""event"",""trial"",""time""
""fullscreenenter"",""5"",""12985""
","
",NA,NA,NA,NA,NA,NA,NA,NA,NA,NA,NA,NA,NA,NA,NA,NA,NA,NA,NA,NA,NA,NA,sub24
d3-instructions,49,195756,0.0-49.0,FALSE,TRUE,TRUE,FALSE,"""event"",""trial"",""time""
""fullscreenenter"",""5"",""12985""
","
","
","""event"",""trial"",""time""
""fullscreenenter"",""5"",""12985""
","
",NA,NA,NA,NA,NA,NA,NA,NA,NA,NA,NA,NA,NA,NA,NA,NA,NA,NA,NA,NA,NA,NA,sub24
d3-instructions,50,202823,0.0-50.0,FALSE,TRUE,TRUE,FALSE,"""event"",""trial"",""time""
""fullscreenenter"",""5"",""12985""
","
","
","""event"",""trial"",""time""
""fullscreenenter"",""5"",""12985""
","
",NA,NA,NA,NA,NA,NA,NA,NA,NA,NA,NA,NA,NA,NA,NA,NA,NA,NA,NA,NA,NA,NA,sub24
d3-instructions,51,204771,0.0-51.0,FALSE,TRUE,TRUE,FALSE,"""event"",""trial"",""time""
""fullscreenenter"",""5"",""12985""
","
","
","""event"",""trial"",""time""
""fullscreenenter"",""5"",""12985""
","
",NA,NA,NA,NA,NA,NA,NA,NA,NA,NA,NA,NA,NA,NA,NA,NA,NA,NA,NA,NA,NA,NA,sub24
d3-instructions,52,206489,0.0-52.0,FALSE,TRUE,TRUE,FALSE,"""event"",""trial"",""time""
""fullscreenenter"",""5"",""12985""
","
","
","""event"",""trial"",""time""
""fullscreenenter"",""5"",""12985""
","
",NA,NA,NA,NA,NA,NA,NA,NA,NA,NA,NA,NA,NA,NA,NA,NA,NA,NA,NA,NA,NA,NA,sub24
d3-instructions,53,214255,0.0-53.0,FALSE,TRUE,TRUE,FALSE,"""event"",""trial"",""time""
""fullscreenenter"",""5"",""12985""
","
","
","""event"",""trial"",""time""
""fullscreenenter"",""5"",""12985""
","
",NA,NA,NA,NA,NA,NA,NA,NA,NA,NA,NA,NA,NA,NA,NA,NA,NA,NA,NA,NA,NA,NA,sub24
d3-instructions,54,225893,0.0-54.0,FALSE,TRUE,TRUE,FALSE,"""event"",""trial"",""time""
""fullscreenenter"",""5"",""12985""
","
","
","""event"",""trial"",""time""
""fullscreenenter"",""5"",""12985""
","
",NA,NA,NA,NA,NA,NA,NA,NA,NA,NA,NA,NA,NA,NA,NA,NA,NA,NA,NA,NA,NA,NA,sub24
d3-instructions,55,229270,0.0-55.0,FALSE,TRUE,TRUE,FALSE,"""event"",""trial"",""time""
""fullscreenenter"",""5"",""12985""
","
","
","""event"",""trial"",""time""
""fullscreenenter"",""5"",""12985""
","
",NA,NA,NA,NA,NA,NA,NA,NA,NA,NA,NA,NA,NA,NA,NA,NA,NA,NA,NA,NA,NA,NA,sub24
d3-instructions,56,232578,0.0-56.0,FALSE,TRUE,TRUE,FALSE,"""event"",""trial"",""time""
""fullscreenenter"",""5"",""12985""
","
","
","""event"",""trial"",""time""
""fullscreenenter"",""5"",""12985""
","
",NA,NA,NA,NA,NA,NA,NA,NA,NA,NA,NA,NA,NA,NA,NA,NA,NA,NA,NA,NA,NA,NA,sub24
d3-instructions,57,238980,0.0-57.0,FALSE,TRUE,TRUE,FALSE,"""event"",""trial"",""time""
""fullscreenenter"",""5"",""12985""
","
","
","""event"",""trial"",""time""
""fullscreenenter"",""5"",""12985""
","
",NA,NA,NA,NA,NA,NA,NA,NA,NA,NA,NA,NA,NA,NA,NA,NA,NA,NA,NA,NA,NA,NA,sub24
d3-instructions,58,244574,0.0-58.0,FALSE,TRUE,TRUE,FALSE,"""event"",""trial"",""time""
""fullscreenenter"",""5"",""12985""
","
","
","""event"",""trial"",""time""
""fullscreenenter"",""5"",""12985""
","
",NA,NA,NA,NA,NA,NA,NA,NA,NA,NA,NA,NA,NA,NA,NA,NA,NA,NA,NA,NA,NA,NA,sub24
d3-instructions,59,248729,0.0-59.0,FALSE,TRUE,TRUE,FALSE,"""event"",""trial"",""time""
""fullscreenenter"",""5"",""12985""
","
","
","""event"",""trial"",""time""
""fullscreenenter"",""5"",""12985""
","
",NA,NA,NA,NA,NA,NA,NA,NA,NA,NA,NA,NA,NA,NA,NA,NA,NA,NA,NA,NA,NA,NA,sub24
d3-instructions,60,250920,0.0-60.0,FALSE,TRUE,TRUE,FALSE,"""event"",""trial"",""time""
""fullscreenenter"",""5"",""12985""
","
","
","""event"",""trial"",""time""
""fullscreenenter"",""5"",""12985""
","
",NA,NA,NA,NA,NA,NA,NA,NA,NA,NA,NA,NA,NA,NA,NA,NA,NA,NA,NA,NA,NA,NA,sub24
d3-animate-choice,61,254893,0.0-61.0-0.0,FALSE,TRUE,TRUE,FALSE,"""event"",""trial"",""time""
""fullscreenenter"",""5"",""12985""
","
","
","""event"",""trial"",""time""
""fullscreenenter"",""5"",""12985""
","
",1967.9000000469387,NA,49,NA,NA,3000,1,NA,NA,images/earth.jpg,images/tutrocket2,images/tutrocket1,null,images/tutrocket1,NA,1,practice,null,1,NA,NA,NA,sub24
d3-animate-choice,62,258204,0.0-61.0-1.0,FALSE,TRUE,TRUE,FALSE,"""event"",""trial"",""time""
""fullscreenenter"",""5"",""12985""
","
","
","""event"",""trial"",""time""
""fullscreenenter"",""5"",""12985""
","
",1304.4900000095367,NA,49,NA,NA,3000,1,NA,NA,images/tutgreenplanet.jpg,images/tutalien2,images/tutalien1,images/tutrocket1,images/tutalien1,images/nothing.png,2,practice,true,1,common,0,2020-06-12T19:16:48Z,sub24
two-step-fixation,63,259211,0.0-61.0-2.0,FALSE,TRUE,TRUE,FALSE,"""event"",""trial"",""time""
""fullscreenenter"",""5"",""12985""
","
","
","""event"",""trial"",""time""
""fullscreenenter"",""5"",""12985""
","
",NA,images/earth.jpg,NA,NA,NA,NA,NA,NA,NA,NA,NA,NA,NA,NA,NA,fixation,NA,NA,NA,NA,NA,NA,sub24
d3-animate-choice,64,262613,0.0-61.0-0.1,FALSE,TRUE,TRUE,FALSE,"""event"",""trial"",""time""
""fullscreenenter"",""5"",""12985""
","
","
","""event"",""trial"",""time""
""fullscreenenter"",""5"",""12985""
","
",1396.8399999430403,NA,48,NA,NA,3000,1,NA,NA,images/earth.jpg,images/tutrocket2,images/tutrocket1,null,images/tutrocket2,NA,1,practice,null,2,NA,NA,NA,sub24
d3-animate-choice,65,265159,0.0-61.0-1.1,FALSE,TRUE,TRUE,FALSE,"""event"",""trial"",""time""
""fullscreenenter"",""5"",""12985""
","
","
","""event"",""trial"",""time""
""fullscreenenter"",""5"",""12985""
","
",543.2550000259653,NA,48,NA,NA,3000,1,NA,NA,images/tutyellowplanet.jpg,images/tutalien4,images/tutalien3,images/tutrocket2,images/tutalien4,images/nothing.png,2,practice,true,2,common,0,2020-06-12T19:16:55Z,sub24
two-step-fixation,66,266161,0.0-61.0-2.1,FALSE,TRUE,TRUE,FALSE,"""event"",""trial"",""time""
""fullscreenenter"",""5"",""12985""
","
","
","""event"",""trial"",""time""
""fullscreenenter"",""5"",""12985""
","
",NA,images/earth.jpg,NA,NA,NA,NA,NA,NA,NA,NA,NA,NA,NA,NA,NA,fixation,NA,NA,NA,NA,NA,NA,sub24
d3-animate-choice,67,268705,0.0-61.0-0.2,FALSE,TRUE,TRUE,FALSE,"""event"",""trial"",""time""
""fullscreenenter"",""5"",""12985""
","
","
","""event"",""trial"",""time""
""fullscreenenter"",""5"",""12985""
","
",539.8999999742955,NA,49,NA,NA,3000,1,NA,NA,images/earth.jpg,images/tutrocket2,images/tutrocket1,null,images/tutrocket1,NA,1,practice,null,1,NA,NA,NA,sub24
d3-animate-choice,68,271003,0.0-61.0-1.2,FALSE,TRUE,TRUE,FALSE,"""event"",""trial"",""time""
""fullscreenenter"",""5"",""12985""
","
","
","""event"",""trial"",""time""
""fullscreenenter"",""5"",""12985""
","
",294.23499992117286,NA,49,NA,NA,3000,1,NA,NA,images/tutgreenplanet.jpg,images/tutalien2,images/tutalien1,images/tutrocket1,images/tutalien1,images/t.png,2,practice,true,1,common,1,2020-06-12T19:17:01Z,sub24
two-step-fixation,69,272007,0.0-61.0-2.2,FALSE,TRUE,TRUE,FALSE,"""event"",""trial"",""time""
""fullscreenenter"",""5"",""12985""
","
","
","""event"",""trial"",""time""
""fullscreenenter"",""5"",""12985""
","
",NA,images/earth.jpg,NA,NA,NA,NA,NA,NA,NA,NA,NA,NA,NA,NA,NA,fixation,NA,NA,NA,NA,NA,NA,sub24
d3-animate-choice,70,274472,0.0-61.0-0.3,FALSE,TRUE,TRUE,FALSE,"""event"",""trial"",""time""
""fullscreenenter"",""5"",""12985""
","
","
","""event"",""trial"",""time""
""fullscreenenter"",""5"",""12985""
","
",459.9500000476837,NA,49,NA,NA,3000,1,NA,NA,images/earth.jpg,images/tutrocket2,images/tutrocket1,null,images/tutrocket1,NA,1,practice,null,1,NA,NA,NA,sub24
d3-animate-choice,71,276848,0.0-61.0-1.3,FALSE,TRUE,TRUE,FALSE,"""event"",""trial"",""time""
""fullscreenenter"",""5"",""12985""
","
","
","""event"",""trial"",""time""
""fullscreenenter"",""5"",""12985""
","
",372.0099999336526,NA,49,NA,NA,3000,1,NA,NA,images/tutgreenplanet.jpg,images/tutalien2,images/tutalien1,images/tutrocket1,images/tutalien1,images/nothing.png,2,practice,true,1,common,0,2020-06-12T19:17:06Z,sub24
two-step-fixation,72,277851,0.0-61.0-2.3,FALSE,TRUE,TRUE,FALSE,"""event"",""trial"",""time""
""fullscreenenter"",""5"",""12985""
","
","
","""event"",""trial"",""time""
""fullscreenenter"",""5"",""12985""
","
",NA,images/earth.jpg,NA,NA,NA,NA,NA,NA,NA,NA,NA,NA,NA,NA,NA,fixation,NA,NA,NA,NA,NA,NA,sub24
d3-animate-choice,73,280324,0.0-61.0-0.4,FALSE,TRUE,TRUE,FALSE,"""event"",""trial"",""time""
""fullscreenenter"",""5"",""12985""
","
","
","""event"",""trial"",""time""
""fullscreenenter"",""5"",""12985""
","
",469.44000001531094,NA,48,NA,NA,3000,1,NA,NA,images/earth.jpg,images/tutrocket2,images/tutrocket1,null,images/tutrocket2,NA,1,practice,null,2,NA,NA,NA,sub24
d3-animate-choice,74,282706,0.0-61.0-1.4,FALSE,TRUE,TRUE,FALSE,"""event"",""trial"",""time""
""fullscreenenter"",""5"",""12985""
","
","
","""event"",""trial"",""time""
""fullscreenenter"",""5"",""12985""
","
",378.4900000318885,NA,49,NA,NA,3000,1,NA,NA,images/tutyellowplanet.jpg,images/tutalien4,images/tutalien3,images/tutrocket2,images/tutalien3,images/nothing.png,2,practice,true,1,common,0,2020-06-12T19:17:12Z,sub24
two-step-fixation,75,283710,0.0-61.0-2.4,FALSE,TRUE,TRUE,FALSE,"""event"",""trial"",""time""
""fullscreenenter"",""5"",""12985""
","
","
","""event"",""trial"",""time""
""fullscreenenter"",""5"",""12985""
","
",NA,images/earth.jpg,NA,NA,NA,NA,NA,NA,NA,NA,NA,NA,NA,NA,NA,fixation,NA,NA,NA,NA,NA,NA,sub24
d3-animate-choice,76,285954,0.0-61.0-0.5,FALSE,TRUE,TRUE,FALSE,"""event"",""trial"",""time""
""fullscreenenter"",""5"",""12985""
","
","
","""event"",""trial"",""time""
""fullscreenenter"",""5"",""12985""
","
",241.15500005427748,NA,49,NA,NA,3000,1,NA,NA,images/earth.jpg,images/tutrocket2,images/tutrocket1,null,images/tutrocket1,NA,1,practice,null,1,NA,NA,NA,sub24
d3-animate-choice,77,288373,0.0-61.0-1.5,FALSE,TRUE,TRUE,FALSE,"""event"",""trial"",""time""
""fullscreenenter"",""5"",""12985""
","
","
","""event"",""trial"",""time""
""fullscreenenter"",""5"",""12985""
","
",414.2800000263378,NA,48,NA,NA,3000,1,NA,NA,images/tutgreenplanet.jpg,images/tutalien2,images/tutalien1,images/tutrocket1,images/tutalien2,images/nothing.png,2,practice,true,2,common,0,2020-06-12T19:17:18Z,sub24
two-step-fixation,78,289380,0.0-61.0-2.5,FALSE,TRUE,TRUE,FALSE,"""event"",""trial"",""time""
""fullscreenenter"",""5"",""12985""
","
","
","""event"",""trial"",""time""
""fullscreenenter"",""5"",""12985""
","
",NA,images/earth.jpg,NA,NA,NA,NA,NA,NA,NA,NA,NA,NA,NA,NA,NA,fixation,NA,NA,NA,NA,NA,NA,sub24
d3-animate-choice,79,291740,0.0-61.0-0.6,FALSE,TRUE,TRUE,FALSE,"""event"",""trial"",""time""
""fullscreenenter"",""5"",""12985""
","
","
","""event"",""trial"",""time""
""fullscreenenter"",""5"",""12985""
","
",353.70999993756413,NA,49,NA,NA,3000,1,NA,NA,images/earth.jpg,images/tutrocket2,images/tutrocket1,null,images/tutrocket1,NA,1,practice,null,1,NA,NA,NA,sub24
d3-animate-choice,80,294214,0.0-61.0-1.6,FALSE,TRUE,TRUE,FALSE,"""event"",""trial"",""time""
""fullscreenenter"",""5"",""12985""
","
","
","""event"",""trial"",""time""
""fullscreenenter"",""5"",""12985""
","
",466.95499995257705,NA,49,NA,NA,3000,1,NA,NA,images/tutgreenplanet.jpg,images/tutalien2,images/tutalien1,images/tutrocket1,images/tutalien1,images/nothing.png,2,practice,true,1,common,0,2020-06-12T19:17:24Z,sub24
two-step-fixation,81,295218,0.0-61.0-2.6,FALSE,TRUE,TRUE,FALSE,"""event"",""trial"",""time""
""fullscreenenter"",""5"",""12985""
","
","
","""event"",""trial"",""time""
""fullscreenenter"",""5"",""12985""
","
",NA,images/earth.jpg,NA,NA,NA,NA,NA,NA,NA,NA,NA,NA,NA,NA,NA,fixation,NA,NA,NA,NA,NA,NA,sub24
d3-animate-choice,82,297679,0.0-61.0-0.7,FALSE,TRUE,TRUE,FALSE,"""event"",""trial"",""time""
""fullscreenenter"",""5"",""12985""
","
","
","""event"",""trial"",""time""
""fullscreenenter"",""5"",""12985""
","
",455.95999993383884,NA,48,NA,NA,3000,1,NA,NA,images/earth.jpg,images/tutrocket2,images/tutrocket1,null,images/tutrocket2,NA,1,practice,null,2,NA,NA,NA,sub24
d3-animate-choice,83,300059,0.0-61.0-1.7,FALSE,TRUE,TRUE,FALSE,"""event"",""trial"",""time""
""fullscreenenter"",""5"",""12985""
","
","
","""event"",""trial"",""time""
""fullscreenenter"",""5"",""12985""
","
",373.08500008657575,NA,48,NA,NA,3000,1,NA,NA,images/tutgreenplanet.jpg,images/tutalien2,images/tutalien1,images/tutrocket2,images/tutalien2,images/nothing.png,2,practice,false,2,rare,0,2020-06-12T19:17:30Z,sub24
two-step-fixation,84,301065,0.0-61.0-2.7,FALSE,TRUE,TRUE,FALSE,"""event"",""trial"",""time""
""fullscreenenter"",""5"",""12985""
","
","
","""event"",""trial"",""time""
""fullscreenenter"",""5"",""12985""
","
",NA,images/earth.jpg,NA,NA,NA,NA,NA,NA,NA,NA,NA,NA,NA,NA,NA,fixation,NA,NA,NA,NA,NA,NA,sub24
d3-animate-choice,85,303713,0.0-61.0-0.8,FALSE,TRUE,TRUE,FALSE,"""event"",""trial"",""time""
""fullscreenenter"",""5"",""12985""
","
","
","""event"",""trial"",""time""
""fullscreenenter"",""5"",""12985""
","
",641.1050000460818,NA,48,NA,NA,3000,1,NA,NA,images/earth.jpg,images/tutrocket2,images/tutrocket1,null,images/tutrocket2,NA,1,practice,null,2,NA,NA,NA,sub24
d3-animate-choice,86,306601,0.0-61.0-1.8,FALSE,TRUE,TRUE,FALSE,"""event"",""trial"",""time""
""fullscreenenter"",""5"",""12985""
","
","
","""event"",""trial"",""time""
""fullscreenenter"",""5"",""12985""
","
",881.095000077039,NA,49,NA,NA,3000,1,NA,NA,images/tutyellowplanet.jpg,images/tutalien4,images/tutalien3,images/tutrocket2,images/tutalien3,images/nothing.png,2,practice,true,1,common,0,2020-06-12T19:17:36Z,sub24
two-step-fixation,87,307604,0.0-61.0-2.8,FALSE,TRUE,TRUE,FALSE,"""event"",""trial"",""time""
""fullscreenenter"",""5"",""12985""
","
","
","""event"",""trial"",""time""
""fullscreenenter"",""5"",""12985""
","
",NA,images/earth.jpg,NA,NA,NA,NA,NA,NA,NA,NA,NA,NA,NA,NA,NA,fixation,NA,NA,NA,NA,NA,NA,sub24
d3-animate-choice,88,309905,0.0-61.0-0.9,FALSE,TRUE,TRUE,FALSE,"""event"",""trial"",""time""
""fullscreenenter"",""5"",""12985""
","
","
","""event"",""trial"",""time""
""fullscreenenter"",""5"",""12985""
","
",293.73000003397465,NA,48,NA,NA,3000,1,NA,NA,images/earth.jpg,images/tutrocket2,images/tutrocket1,null,images/tutrocket2,NA,1,practice,null,2,NA,NA,NA,sub24
d3-animate-choice,89,312208,0.0-61.0-1.9,FALSE,TRUE,TRUE,FALSE,"""event"",""trial"",""time""
""fullscreenenter"",""5"",""12985""
","
","
","""event"",""trial"",""time""
""fullscreenenter"",""5"",""12985""
","
",298.36000001523644,NA,48,NA,NA,3000,1,NA,NA,images/tutyellowplanet.jpg,images/tutalien4,images/tutalien3,images/tutrocket2,images/tutalien4,images/t.png,2,practice,true,2,common,1,2020-06-12T19:17:42Z,sub24
two-step-fixation,90,313215,0.0-61.0-2.9,FALSE,TRUE,TRUE,FALSE,"""event"",""trial"",""time""
""fullscreenenter"",""5"",""12985""
","
","
","""event"",""trial"",""time""
""fullscreenenter"",""5"",""12985""
","
",NA,images/earth.jpg,NA,NA,NA,NA,NA,NA,NA,NA,NA,NA,NA,NA,NA,fixation,NA,NA,NA,NA,NA,NA,sub24
d3-animate-choice,91,315729,0.0-61.0-0.10,FALSE,TRUE,TRUE,FALSE,"""event"",""trial"",""time""
""fullscreenenter"",""5"",""12985""
","
","
","""event"",""trial"",""time""
""fullscreenenter"",""5"",""12985""
","
",505.77499996870756,NA,49,NA,NA,3000,1,NA,NA,images/earth.jpg,images/tutrocket2,images/tutrocket1,null,images/tutrocket1,NA,1,practice,null,1,NA,NA,NA,sub24
d3-animate-choice,92,318071,0.0-61.0-1.10,FALSE,TRUE,TRUE,FALSE,"""event"",""trial"",""time""
""fullscreenenter"",""5"",""12985""
","
","
","""event"",""trial"",""time""
""fullscreenenter"",""5"",""12985""
","
",335.25500004179776,NA,48,NA,NA,3000,1,NA,NA,images/tutyellowplanet.jpg,images/tutalien4,images/tutalien3,images/tutrocket1,images/tutalien4,images/nothing.png,2,practice,false,2,rare,0,2020-06-12T19:17:48Z,sub24
two-step-fixation,93,319073,0.0-61.0-2.10,FALSE,TRUE,TRUE,FALSE,"""event"",""trial"",""time""
""fullscreenenter"",""5"",""12985""
","
","
","""event"",""trial"",""time""
""fullscreenenter"",""5"",""12985""
","
",NA,images/earth.jpg,NA,NA,NA,NA,NA,NA,NA,NA,NA,NA,NA,NA,NA,fixation,NA,NA,NA,NA,NA,NA,sub24
d3-animate-choice,94,321378,0.0-61.0-0.11,FALSE,TRUE,TRUE,FALSE,"""event"",""trial"",""time""
""fullscreenenter"",""5"",""12985""
","
","
","""event"",""trial"",""time""
""fullscreenenter"",""5"",""12985""
","
",301.0700000450015,NA,49,NA,NA,3000,1,NA,NA,images/earth.jpg,images/tutrocket2,images/tutrocket1,null,images/tutrocket1,NA,1,practice,null,1,NA,NA,NA,sub24
d3-animate-choice,95,323659,0.0-61.0-1.11,FALSE,TRUE,TRUE,FALSE,"""event"",""trial"",""time""
""fullscreenenter"",""5"",""12985""
","
","
","""event"",""trial"",""time""
""fullscreenenter"",""5"",""12985""
","
",273.6899999435991,NA,49,NA,NA,3000,1,NA,NA,images/tutgreenplanet.jpg,images/tutalien2,images/tutalien1,images/tutrocket1,images/tutalien1,images/nothing.png,2,practice,true,1,common,0,2020-06-12T19:17:53Z,sub24
two-step-fixation,96,324666,0.0-61.0-2.11,FALSE,TRUE,TRUE,FALSE,"""event"",""trial"",""time""
""fullscreenenter"",""5"",""12985""
","
","
","""event"",""trial"",""time""
""fullscreenenter"",""5"",""12985""
","
",NA,images/earth.jpg,NA,NA,NA,NA,NA,NA,NA,NA,NA,NA,NA,NA,NA,fixation,NA,NA,NA,NA,NA,NA,sub24
d3-animate-choice,97,326864,0.0-61.0-0.12,FALSE,TRUE,TRUE,FALSE,"""event"",""trial"",""time""
""fullscreenenter"",""5"",""12985""
","
","
","""event"",""trial"",""time""
""fullscreenenter"",""5"",""12985""
","
",192.94999993871897,NA,48,NA,NA,3000,1,NA,NA,images/earth.jpg,images/tutrocket2,images/tutrocket1,null,images/tutrocket2,NA,1,practice,null,2,NA,NA,NA,sub24
d3-animate-choice,98,329283,0.0-61.0-1.12,FALSE,TRUE,TRUE,FALSE,"""event"",""trial"",""time""
""fullscreenenter"",""5"",""12985""
","
","
","""event"",""trial"",""time""
""fullscreenenter"",""5"",""12985""
","
",412.3050000052899,NA,48,NA,NA,3000,1,NA,NA,images/tutgreenplanet.jpg,images/tutalien2,images/tutalien1,images/tutrocket2,images/tutalien2,images/nothing.png,2,practice,false,2,rare,0,2020-06-12T19:17:59Z,sub24
two-step-fixation,99,330290,0.0-61.0-2.12,FALSE,TRUE,TRUE,FALSE,"""event"",""trial"",""time""
""fullscreenenter"",""5"",""12985""
","
","
","""event"",""trial"",""time""
""fullscreenenter"",""5"",""12985""
","
",NA,images/earth.jpg,NA,NA,NA,NA,NA,NA,NA,NA,NA,NA,NA,NA,NA,fixation,NA,NA,NA,NA,NA,NA,sub24
d3-animate-choice,100,333025,0.0-61.0-0.13,FALSE,TRUE,TRUE,FALSE,"""event"",""trial"",""time""
""fullscreenenter"",""5"",""12985""
","
","
","""event"",""trial"",""time""
""fullscreenenter"",""5"",""12985""
","
",729.1149999946356,NA,48,NA,NA,3000,1,NA,NA,images/earth.jpg,images/tutrocket2,images/tutrocket1,null,images/tutrocket2,NA,1,practice,null,2,NA,NA,NA,sub24
d3-animate-choice,101,335611,0.0-61.0-1.13,FALSE,TRUE,TRUE,FALSE,"""event"",""trial"",""time""
""fullscreenenter"",""5"",""12985""
","
","
","""event"",""trial"",""time""
""fullscreenenter"",""5"",""12985""
","
",582.0049999747425,NA,49,NA,NA,3000,1,NA,NA,images/tutyellowplanet.jpg,images/tutalien4,images/tutalien3,images/tutrocket2,images/tutalien3,images/nothing.png,2,practice,true,1,common,0,2020-06-12T19:18:05Z,sub24
two-step-fixation,102,336618,0.0-61.0-2.13,FALSE,TRUE,TRUE,FALSE,"""event"",""trial"",""time""
""fullscreenenter"",""5"",""12985""
","
","
","""event"",""trial"",""time""
""fullscreenenter"",""5"",""12985""
","
",NA,images/earth.jpg,NA,NA,NA,NA,NA,NA,NA,NA,NA,NA,NA,NA,NA,fixation,NA,NA,NA,NA,NA,NA,sub24
d3-animate-choice,103,338634,0.0-61.0-0.14,FALSE,TRUE,TRUE,FALSE,"""event"",""trial"",""time""
""fullscreenenter"",""5"",""12985""
","
","
","""event"",""trial"",""time""
""fullscreenenter"",""5"",""12985""
","
",13.349999906495214,NA,48,NA,NA,3000,1,NA,NA,images/earth.jpg,images/tutrocket2,images/tutrocket1,null,images/tutrocket2,NA,1,practice,null,2,NA,NA,NA,sub24
d3-animate-choice,104,341028,0.0-61.0-1.14,FALSE,TRUE,TRUE,FALSE,"""event"",""trial"",""time""
""fullscreenenter"",""5"",""12985""
","
","
","""event"",""trial"",""time""
""fullscreenenter"",""5"",""12985""
","
",388.4900000412017,NA,48,NA,NA,3000,1,NA,NA,images/tutyellowplanet.jpg,images/tutalien4,images/tutalien3,images/tutrocket2,images/tutalien4,images/nothing.png,2,practice,true,2,common,0,2020-06-12T19:18:11Z,sub24
two-step-fixation,105,342031,0.0-61.0-2.14,FALSE,TRUE,TRUE,FALSE,"""event"",""trial"",""time""
""fullscreenenter"",""5"",""12985""
","
","
","""event"",""trial"",""time""
""fullscreenenter"",""5"",""12985""
","
",NA,images/earth.jpg,NA,NA,NA,NA,NA,NA,NA,NA,NA,NA,NA,NA,NA,fixation,NA,NA,NA,NA,NA,NA,sub24
d3-animate-choice,106,344324,0.0-61.0-0.15,FALSE,TRUE,TRUE,FALSE,"""event"",""trial"",""time""
""fullscreenenter"",""5"",""12985""
","
","
","""event"",""trial"",""time""
""fullscreenenter"",""5"",""12985""
","
",286.87000006902963,NA,49,NA,NA,3000,1,NA,NA,images/earth.jpg,images/tutrocket2,images/tutrocket1,null,images/tutrocket1,NA,1,practice,null,1,NA,NA,NA,sub24
d3-animate-choice,107,347253,0.0-61.0-1.15,FALSE,TRUE,TRUE,FALSE,"""event"",""trial"",""time""
""fullscreenenter"",""5"",""12985""
","
","
","""event"",""trial"",""time""
""fullscreenenter"",""5"",""12985""
","
",922.5450000958517,NA,49,NA,NA,3000,1,NA,NA,images/tutyellowplanet.jpg,images/tutalien4,images/tutalien3,images/tutrocket1,images/tutalien3,images/t.png,2,practice,false,1,rare,1,2020-06-12T19:18:17Z,sub24
two-step-fixation,108,348261,0.0-61.0-2.15,FALSE,TRUE,TRUE,FALSE,"""event"",""trial"",""time""
""fullscreenenter"",""5"",""12985""
","
","
","""event"",""trial"",""time""
""fullscreenenter"",""5"",""12985""
","
",NA,images/earth.jpg,NA,NA,NA,NA,NA,NA,NA,NA,NA,NA,NA,NA,NA,fixation,NA,NA,NA,NA,NA,NA,sub24
d3-animate-choice,109,350782,0.0-61.0-0.16,FALSE,TRUE,TRUE,FALSE,"""event"",""trial"",""time""
""fullscreenenter"",""5"",""12985""
","
","
","""event"",""trial"",""time""
""fullscreenenter"",""5"",""12985""
","
",509.99499997124076,NA,48,NA,NA,3000,1,NA,NA,images/earth.jpg,images/tutrocket2,images/tutrocket1,null,images/tutrocket2,NA,1,practice,null,2,NA,NA,NA,sub24
d3-animate-choice,110,353336,0.0-61.0-1.16,FALSE,TRUE,TRUE,FALSE,"""event"",""trial"",""time""
""fullscreenenter"",""5"",""12985""
","
","
","""event"",""trial"",""time""
""fullscreenenter"",""5"",""12985""
","
",547.7200000314042,NA,49,NA,NA,3000,1,NA,NA,images/tutgreenplanet.jpg,images/tutalien2,images/tutalien1,images/tutrocket2,images/tutalien1,images/nothing.png,2,practice,false,1,rare,0,2020-06-12T19:18:23Z,sub24
two-step-fixation,111,354343,0.0-61.0-2.16,FALSE,TRUE,TRUE,FALSE,"""event"",""trial"",""time""
""fullscreenenter"",""5"",""12985""
","
","
","""event"",""trial"",""time""
""fullscreenenter"",""5"",""12985""
","
",NA,images/earth.jpg,NA,NA,NA,NA,NA,NA,NA,NA,NA,NA,NA,NA,NA,fixation,NA,NA,NA,NA,NA,NA,sub24
d3-animate-choice,112,356560,0.0-61.0-0.17,FALSE,TRUE,TRUE,FALSE,"""event"",""trial"",""time""
""fullscreenenter"",""5"",""12985""
","
","
","""event"",""trial"",""time""
""fullscreenenter"",""5"",""12985""
","
",208.95000000018626,NA,48,NA,NA,3000,1,NA,NA,images/earth.jpg,images/tutrocket2,images/tutrocket1,null,images/tutrocket2,NA,1,practice,null,2,NA,NA,NA,sub24
d3-animate-choice,113,359160,0.0-61.0-1.17,FALSE,TRUE,TRUE,FALSE,"""event"",""trial"",""time""
""fullscreenenter"",""5"",""12985""
","
","
","""event"",""trial"",""time""
""fullscreenenter"",""5"",""12985""
","
",596.6949999565259,NA,49,NA,NA,3000,1,NA,NA,images/tutyellowplanet.jpg,images/tutalien4,images/tutalien3,images/tutrocket2,images/tutalien3,images/nothing.png,2,practice,true,1,common,0,2020-06-12T19:18:29Z,sub24
two-step-fixation,114,360163,0.0-61.0-2.17,FALSE,TRUE,TRUE,FALSE,"""event"",""trial"",""time""
""fullscreenenter"",""5"",""12985""
","
","
","""event"",""trial"",""time""
""fullscreenenter"",""5"",""12985""
","
",NA,images/earth.jpg,NA,NA,NA,NA,NA,NA,NA,NA,NA,NA,NA,NA,NA,fixation,NA,NA,NA,NA,NA,NA,sub24
d3-animate-choice,115,362434,0.0-61.0-0.18,FALSE,TRUE,TRUE,FALSE,"""event"",""trial"",""time""
""fullscreenenter"",""5"",""12985""
","
","
","""event"",""trial"",""time""
""fullscreenenter"",""5"",""12985""
","
",266.64000004529953,NA,48,NA,NA,3000,1,NA,NA,images/earth.jpg,images/tutrocket2,images/tutrocket1,null,images/tutrocket2,NA,1,practice,null,2,NA,NA,NA,sub24
d3-animate-choice,116,364828,0.0-61.0-1.18,FALSE,TRUE,TRUE,FALSE,"""event"",""trial"",""time""
""fullscreenenter"",""5"",""12985""
","
","
","""event"",""trial"",""time""
""fullscreenenter"",""5"",""12985""
","
",385.75499993748963,NA,48,NA,NA,3000,1,NA,NA,images/tutyellowplanet.jpg,images/tutalien4,images/tutalien3,images/tutrocket2,images/tutalien4,images/t.png,2,practice,true,2,common,1,2020-06-12T19:18:34Z,sub24
two-step-fixation,117,365835,0.0-61.0-2.18,FALSE,TRUE,TRUE,FALSE,"""event"",""trial"",""time""
""fullscreenenter"",""5"",""12985""
","
","
","""event"",""trial"",""time""
""fullscreenenter"",""5"",""12985""
","
",NA,images/earth.jpg,NA,NA,NA,NA,NA,NA,NA,NA,NA,NA,NA,NA,NA,fixation,NA,NA,NA,NA,NA,NA,sub24
d3-animate-choice,118,368515,0.0-61.0-0.19,FALSE,TRUE,TRUE,FALSE,"""event"",""trial"",""time""
""fullscreenenter"",""5"",""12985""
","
","
","""event"",""trial"",""time""
""fullscreenenter"",""5"",""12985""
","
",673.3700000913814,NA,49,NA,NA,3000,1,NA,NA,images/earth.jpg,images/tutrocket2,images/tutrocket1,null,images/tutrocket1,NA,1,practice,null,1,NA,NA,NA,sub24
d3-animate-choice,119,371117,0.0-61.0-1.19,FALSE,TRUE,TRUE,FALSE,"""event"",""trial"",""time""
""fullscreenenter"",""5"",""12985""
","
","
","""event"",""trial"",""time""
""fullscreenenter"",""5"",""12985""
","
",599.4649999774992,NA,48,NA,NA,3000,1,NA,NA,images/tutgreenplanet.jpg,images/tutalien2,images/tutalien1,images/tutrocket1,images/tutalien2,images/t.png,2,practice,true,2,common,1,2020-06-12T19:18:41Z,sub24
two-step-fixation,120,372121,0.0-61.0-2.19,FALSE,TRUE,TRUE,FALSE,"""event"",""trial"",""time""
""fullscreenenter"",""5"",""12985""
","
","
","""event"",""trial"",""time""
""fullscreenenter"",""5"",""12985""
","
",NA,images/earth.jpg,NA,NA,NA,NA,NA,NA,NA,NA,NA,NA,NA,NA,NA,fixation,NA,NA,NA,NA,NA,NA,sub24
d3-instructions,121,375474,0.0-62.0,FALSE,TRUE,TRUE,FALSE,"""event"",""trial"",""time""
""fullscreenenter"",""5"",""12985""
","
","
","""event"",""trial"",""time""
""fullscreenenter"",""5"",""12985""
","
",NA,NA,NA,NA,NA,NA,NA,NA,NA,NA,NA,NA,NA,NA,NA,NA,NA,NA,NA,NA,NA,NA,sub24
audio-keyboard-response,122,378455,0.0-63.0,FALSE,TRUE,TRUE,FALSE,"""event"",""trial"",""time""
""fullscreenenter"",""5"",""12985""
","
","
","""event"",""trial"",""time""
""fullscreenenter"",""5"",""12985""
","
",2979,audio/instructions/treasure_feedback.wav,32,NA,NA,NA,NA,NA,NA,NA,NA,NA,NA,NA,NA,NA,NA,NA,NA,NA,NA,NA,sub24
d3-instructions,123,384967,0.0-64.0,FALSE,TRUE,TRUE,FALSE,"""event"",""trial"",""time""
""fullscreenenter"",""5"",""12985""
","
","
","""event"",""trial"",""time""
""fullscreenenter"",""5"",""12985""
","
",NA,NA,NA,NA,NA,NA,NA,NA,NA,NA,NA,NA,NA,NA,NA,NA,NA,NA,NA,NA,NA,NA,sub24
d3-instructions,124,388266,0.0-65.0,FALSE,TRUE,TRUE,FALSE,"""event"",""trial"",""time""
""fullscreenenter"",""5"",""12985""
","
","
","""event"",""trial"",""time""
""fullscreenenter"",""5"",""12985""
","
",NA,NA,NA,NA,NA,NA,NA,NA,NA,NA,NA,NA,NA,NA,NA,NA,NA,NA,NA,NA,NA,NA,sub24
d3-instructions,125,399285,0.0-66.0,FALSE,TRUE,TRUE,FALSE,"""event"",""trial"",""time""
""fullscreenenter"",""5"",""12985""
","
","
","""event"",""trial"",""time""
""fullscreenenter"",""5"",""12985""
","
",NA,NA,NA,NA,NA,NA,NA,NA,NA,NA,NA,NA,NA,NA,NA,NA,NA,NA,NA,NA,NA,NA,sub24
d3-instructions,126,404639,0.0-67.0,FALSE,TRUE,TRUE,FALSE,"""event"",""trial"",""time""
""fullscreenenter"",""5"",""12985""
","
","
","""event"",""trial"",""time""
""fullscreenenter"",""5"",""12985""
","
",NA,NA,NA,NA,NA,NA,NA,NA,NA,NA,NA,NA,NA,NA,NA,NA,NA,NA,NA,NA,NA,NA,sub24
d3-instructions,127,408089,0.0-68.0,FALSE,TRUE,TRUE,FALSE,"""event"",""trial"",""time""
""fullscreenenter"",""5"",""12985""
","
","
","""event"",""trial"",""time""
""fullscreenenter"",""5"",""12985""
","
",NA,NA,NA,NA,NA,NA,NA,NA,NA,NA,NA,NA,NA,NA,NA,NA,NA,NA,NA,NA,NA,NA,sub24
instructions-quiz,128,411136,0.0-69.0,FALSE,TRUE,TRUE,FALSE,"""event"",""trial"",""time""
""fullscreenenter"",""5"",""12985""
","
","
","""event"",""trial"",""time""
""fullscreenenter"",""5"",""12985""
","
",3045.9699999773875,audio/quiz/Q1_Prompt.wav,NA,1,NA,NA,NA,NA,NA,NA,NA,NA,NA,NA,NA,NA,NA,NA,NA,NA,NA,NA,sub24
audio-keyboard-response,129,411335,0.0-70.0,FALSE,TRUE,TRUE,FALSE,"""event"",""trial"",""time""
""fullscreenenter"",""5"",""12985""
","
","
","""event"",""trial"",""time""
""fullscreenenter"",""5"",""12985""
","
",200,audio/quiz/Q1_Correct.wav,32,NA,NA,NA,NA,NA,NA,NA,NA,NA,NA,NA,NA,NA,NA,NA,NA,NA,NA,NA,sub24
instructions-quiz,130,417285,0.0-71.0,FALSE,TRUE,TRUE,FALSE,"""event"",""trial"",""time""
""fullscreenenter"",""5"",""12985""
","
","
","""event"",""trial"",""time""
""fullscreenenter"",""5"",""12985""
","
",5947.589999996126,audio/quiz/Q2_Prompt.wav,NA,1,NA,NA,NA,NA,NA,NA,NA,NA,NA,NA,NA,NA,NA,NA,NA,NA,NA,NA,sub24
audio-keyboard-response,131,421794,0.0-72.0,FALSE,TRUE,TRUE,FALSE,"""event"",""trial"",""time""
""fullscreenenter"",""5"",""12985""
","
","
","""event"",""trial"",""time""
""fullscreenenter"",""5"",""12985""
","
",4512,audio/quiz/Q2_Incorrect.wav,13,NA,NA,NA,NA,NA,NA,NA,NA,NA,NA,NA,NA,NA,NA,NA,NA,NA,NA,NA,sub24
instructions-quiz,132,424611,0.0-73.0,FALSE,TRUE,TRUE,FALSE,"""event"",""trial"",""time""
""fullscreenenter"",""5"",""12985""
","
","
","""event"",""trial"",""time""
""fullscreenenter"",""5"",""12985""
","
",2816.2500000325963,audio/quiz/Q3_Prompt.wav,NA,1,NA,NA,NA,NA,NA,NA,NA,NA,NA,NA,NA,NA,NA,NA,NA,NA,NA,NA,sub24
audio-keyboard-response,133,426094,0.0-74.0,FALSE,TRUE,TRUE,FALSE,"""event"",""trial"",""time""
""fullscreenenter"",""5"",""12985""
","
","
","""event"",""trial"",""time""
""fullscreenenter"",""5"",""12985""
","
",1480,audio/quiz/Q3_Correct.wav,13,NA,NA,NA,NA,NA,NA,NA,NA,NA,NA,NA,NA,NA,NA,NA,NA,NA,NA,NA,sub24
d3-instructions,134,428910,0.0-75.0,FALSE,TRUE,TRUE,FALSE,"""event"",""trial"",""time""
""fullscreenenter"",""5"",""12985""
","
","
","""event"",""trial"",""time""
""fullscreenenter"",""5"",""12985""
","
",NA,NA,NA,NA,NA,NA,NA,NA,NA,NA,NA,NA,NA,NA,NA,NA,NA,NA,NA,NA,NA,NA,sub24
d3-animate-choice,135,432914,0.0-76.0-0.0,FALSE,TRUE,TRUE,FALSE,"""event"",""trial"",""time""
""fullscreenenter"",""5"",""12985""
","
","
","""event"",""trial"",""time""
""fullscreenenter"",""5"",""12985""
","
",2793.4100000420585,NA,32,NA,NA,3000,1,3548.6450000898913,48,images/earth.jpg,images/rocket1,images/rocket2,null,images/rocket1,NA,1,real,null,NA,NA,NA,NA,sub24
d3-animate-choice,136,435864,0.0-76.0-1.0,FALSE,TRUE,TRUE,FALSE,"""event"",""trial"",""time""
""fullscreenenter"",""5"",""12985""
","
","
","""event"",""trial"",""time""
""fullscreenenter"",""5"",""12985""
","
",944.8100000154227,NA,49,NA,NA,3000,1,NA,NA,images/redplanet1.jpg,images/alien2,images/alien1,images/rocket1,images/alien1,images/t.png,2,real,true,1,common,1,2020-06-12T19:19:45Z,sub24
two-step-fixation,137,436867,0.0-76.0-2.0,FALSE,TRUE,TRUE,FALSE,"""event"",""trial"",""time""
""fullscreenenter"",""5"",""12985""
","
","
","""event"",""trial"",""time""
""fullscreenenter"",""5"",""12985""
","
",NA,images/earth.jpg,NA,NA,NA,NA,NA,NA,NA,NA,NA,NA,NA,NA,NA,fixation,NA,NA,NA,NA,NA,NA,sub24
d3-animate-choice,138,439886,0.0-76.0-0.1,FALSE,TRUE,TRUE,FALSE,"""event"",""trial"",""time""
""fullscreenenter"",""5"",""12985""
","
","
","""event"",""trial"",""time""
""fullscreenenter"",""5"",""12985""
","
",1015.5950000043958,NA,49,NA,NA,3000,1,NA,NA,images/earth.jpg,images/rocket1,images/rocket2,null,images/rocket2,NA,1,real,null,1,NA,NA,NA,sub24
d3-animate-choice,139,442297,0.0-76.0-1.1,FALSE,TRUE,TRUE,FALSE,"""event"",""trial"",""time""
""fullscreenenter"",""5"",""12985""
","
","
","""event"",""trial"",""time""
""fullscreenenter"",""5"",""12985""
","
",408.04500004742295,NA,48,NA,NA,3000,1,NA,NA,images/redplanet1.jpg,images/alien2,images/alien1,images/rocket2,images/alien2,images/t.png,2,real,false,2,rare,1,2020-06-12T19:19:52Z,sub24
two-step-fixation,140,443301,0.0-76.0-2.1,FALSE,TRUE,TRUE,FALSE,"""event"",""trial"",""time""
""fullscreenenter"",""5"",""12985""
","
","
","""event"",""trial"",""time""
""fullscreenenter"",""5"",""12985""
","
",NA,images/earth.jpg,NA,NA,NA,NA,NA,NA,NA,NA,NA,NA,NA,NA,NA,fixation,NA,NA,NA,NA,NA,NA,sub24
d3-animate-choice,141,445890,0.0-76.0-0.2,FALSE,TRUE,TRUE,FALSE,"""event"",""trial"",""time""
""fullscreenenter"",""5"",""12985""
","
","
","""event"",""trial"",""time""
""fullscreenenter"",""5"",""12985""
","
",583.7550000287592,NA,49,NA,NA,3000,1,NA,NA,images/earth.jpg,images/rocket1,images/rocket2,null,images/rocket2,NA,1,real,null,1,NA,NA,NA,sub24
d3-animate-choice,142,448280,0.0-76.0-1.2,FALSE,TRUE,TRUE,FALSE,"""event"",""trial"",""time""
""fullscreenenter"",""5"",""12985""
","
","
","""event"",""trial"",""time""
""fullscreenenter"",""5"",""12985""
","
",385.84999996237457,NA,49,NA,NA,3000,1,NA,NA,images/purpleplanet.jpg,images/alien4,images/alien3,images/rocket2,images/alien3,images/t.png,2,real,true,1,common,1,2020-06-12T19:19:58Z,sub24
two-step-fixation,143,449286,0.0-76.0-2.2,FALSE,TRUE,TRUE,FALSE,"""event"",""trial"",""time""
""fullscreenenter"",""5"",""12985""
","
","
","""event"",""trial"",""time""
""fullscreenenter"",""5"",""12985""
","
",NA,images/earth.jpg,NA,NA,NA,NA,NA,NA,NA,NA,NA,NA,NA,NA,NA,fixation,NA,NA,NA,NA,NA,NA,sub24
d3-animate-choice,144,451504,0.0-76.0-0.3,FALSE,TRUE,TRUE,FALSE,"""event"",""trial"",""time""
""fullscreenenter"",""5"",""12985""
","
","
","""event"",""trial"",""time""
""fullscreenenter"",""5"",""12985""
","
",214.62500002235174,NA,48,NA,NA,3000,1,NA,NA,images/earth.jpg,images/rocket1,images/rocket2,null,images/rocket1,NA,1,real,null,2,NA,NA,NA,sub24
d3-animate-choice,145,453864,0.0-76.0-1.3,FALSE,TRUE,TRUE,FALSE,"""event"",""trial"",""time""
""fullscreenenter"",""5"",""12985""
","
","
","""event"",""trial"",""time""
""fullscreenenter"",""5"",""12985""
","
",356.54000006616116,NA,48,NA,NA,3000,1,NA,NA,images/purpleplanet.jpg,images/alien4,images/alien3,images/rocket1,images/alien4,images/t.png,2,real,false,2,rare,1,2020-06-12T19:20:03Z,sub24
two-step-fixation,146,454867,0.0-76.0-2.3,FALSE,TRUE,TRUE,FALSE,"""event"",""trial"",""time""
""fullscreenenter"",""5"",""12985""
","
","
","""event"",""trial"",""time""
""fullscreenenter"",""5"",""12985""
","
",NA,images/earth.jpg,NA,NA,NA,NA,NA,NA,NA,NA,NA,NA,NA,NA,NA,fixation,NA,NA,NA,NA,NA,NA,sub24
d3-animate-choice,147,456932,0.0-76.0-0.4,FALSE,TRUE,TRUE,FALSE,"""event"",""trial"",""time""
""fullscreenenter"",""5"",""12985""
","
","
","""event"",""trial"",""time""
""fullscreenenter"",""5"",""12985""
","
",61.85499997809529,NA,49,NA,NA,3000,1,251.27999996766448,49,images/earth.jpg,images/rocket1,images/rocket2,null,images/rocket2,NA,1,real,null,1,NA,NA,NA,sub24
d3-animate-choice,148,459324,0.0-76.0-1.4,FALSE,TRUE,TRUE,FALSE,"""event"",""trial"",""time""
""fullscreenenter"",""5"",""12985""
","
","
","""event"",""trial"",""time""
""fullscreenenter"",""5"",""12985""
","
",389.3199999583885,NA,48,NA,NA,3000,1,NA,NA,images/purpleplanet.jpg,images/alien4,images/alien3,images/rocket2,images/alien4,images/nothing.png,2,real,true,2,common,0,2020-06-12T19:20:09Z,sub24
two-step-fixation,149,460329,0.0-76.0-2.4,FALSE,TRUE,TRUE,FALSE,"""event"",""trial"",""time""
""fullscreenenter"",""5"",""12985""
","
","
","""event"",""trial"",""time""
""fullscreenenter"",""5"",""12985""
","
",NA,images/earth.jpg,NA,NA,NA,NA,NA,NA,NA,NA,NA,NA,NA,NA,NA,fixation,NA,NA,NA,NA,NA,NA,sub24
d3-animate-choice,150,462526,0.0-76.0-0.5,FALSE,TRUE,TRUE,FALSE,"""event"",""trial"",""time""
""fullscreenenter"",""5"",""12985""
","
","
","""event"",""trial"",""time""
""fullscreenenter"",""5"",""12985""
","
",195.09000005200505,NA,48,NA,NA,3000,1,NA,NA,images/earth.jpg,images/rocket1,images/rocket2,null,images/rocket1,NA,1,real,null,2,NA,NA,NA,sub24
d3-animate-choice,151,464866,0.0-76.0-1.5,FALSE,TRUE,TRUE,FALSE,"""event"",""trial"",""time""
""fullscreenenter"",""5"",""12985""
","
","
","""event"",""trial"",""time""
""fullscreenenter"",""5"",""12985""
","
",332.3050000471994,NA,49,NA,NA,3000,1,NA,NA,images/purpleplanet.jpg,images/alien4,images/alien3,images/rocket1,images/alien3,images/t.png,2,real,false,1,rare,1,2020-06-12T19:20:14Z,sub24
two-step-fixation,152,465872,0.0-76.0-2.5,FALSE,TRUE,TRUE,FALSE,"""event"",""trial"",""time""
""fullscreenenter"",""5"",""12985""
","
","
","""event"",""trial"",""time""
""fullscreenenter"",""5"",""12985""
","
",NA,images/earth.jpg,NA,NA,NA,NA,NA,NA,NA,NA,NA,NA,NA,NA,NA,fixation,NA,NA,NA,NA,NA,NA,sub24
d3-animate-choice,153,468225,0.0-76.0-0.6,FALSE,TRUE,TRUE,FALSE,"""event"",""trial"",""time""
""fullscreenenter"",""5"",""12985""
","
","
","""event"",""trial"",""time""
""fullscreenenter"",""5"",""12985""
","
",344.2199999699369,NA,49,NA,NA,3000,1,NA,NA,images/earth.jpg,images/rocket1,images/rocket2,null,images/rocket2,NA,1,real,null,1,NA,NA,NA,sub24
d3-animate-choice,154,470603,0.0-76.0-1.6,FALSE,TRUE,TRUE,FALSE,"""event"",""trial"",""time""
""fullscreenenter"",""5"",""12985""
","
","
","""event"",""trial"",""time""
""fullscreenenter"",""5"",""12985""
","
",371.5900001116097,NA,48,NA,NA,3000,1,NA,NA,images/purpleplanet.jpg,images/alien4,images/alien3,images/rocket2,images/alien4,images/t.png,2,real,true,2,common,1,2020-06-12T19:20:20Z,sub24
two-step-fixation,155,471609,0.0-76.0-2.6,FALSE,TRUE,TRUE,FALSE,"""event"",""trial"",""time""
""fullscreenenter"",""5"",""12985""
","
","
","""event"",""trial"",""time""
""fullscreenenter"",""5"",""12985""
","
",NA,images/earth.jpg,NA,NA,NA,NA,NA,NA,NA,NA,NA,NA,NA,NA,NA,fixation,NA,NA,NA,NA,NA,NA,sub24
d3-animate-choice,156,473892,0.0-76.0-0.7,FALSE,TRUE,TRUE,FALSE,"""event"",""trial"",""time""
""fullscreenenter"",""5"",""12985""
","
","
","""event"",""trial"",""time""
""fullscreenenter"",""5"",""12985""
","
",274.72499990835786,NA,49,NA,NA,3000,1,NA,NA,images/earth.jpg,images/rocket1,images/rocket2,null,images/rocket2,NA,1,real,null,1,NA,NA,NA,sub24
d3-animate-choice,157,476718,0.0-76.0-1.7,FALSE,TRUE,TRUE,FALSE,"""event"",""trial"",""time""
""fullscreenenter"",""5"",""12985""
","
","
","""event"",""trial"",""time""
""fullscreenenter"",""5"",""12985""
","
",822.334999917075,NA,49,NA,NA,3000,1,NA,NA,images/redplanet1.jpg,images/alien2,images/alien1,images/rocket2,images/alien1,images/nothing.png,2,real,false,1,rare,0,2020-06-12T19:20:26Z,sub24
two-step-fixation,158,477725,0.0-76.0-2.7,FALSE,TRUE,TRUE,FALSE,"""event"",""trial"",""time""
""fullscreenenter"",""5"",""12985""
","
","
","""event"",""trial"",""time""
""fullscreenenter"",""5"",""12985""
","
",NA,images/earth.jpg,NA,NA,NA,NA,NA,NA,NA,NA,NA,NA,NA,NA,NA,fixation,NA,NA,NA,NA,NA,NA,sub24
d3-animate-choice,159,480210,0.0-76.0-0.8,FALSE,TRUE,TRUE,FALSE,"""event"",""trial"",""time""
""fullscreenenter"",""5"",""12985""
","
","
","""event"",""trial"",""time""
""fullscreenenter"",""5"",""12985""
","
",481.52499995194376,NA,49,NA,NA,3000,1,NA,NA,images/earth.jpg,images/rocket1,images/rocket2,null,images/rocket2,NA,1,real,null,1,NA,NA,NA,sub24
d3-animate-choice,160,482573,0.0-76.0-1.8,FALSE,TRUE,TRUE,FALSE,"""event"",""trial"",""time""
""fullscreenenter"",""5"",""12985""
","
","
","""event"",""trial"",""time""
""fullscreenenter"",""5"",""12985""
","
",357.2649999987334,NA,48,NA,NA,3000,1,NA,NA,images/redplanet1.jpg,images/alien2,images/alien1,images/rocket2,images/alien2,images/t.png,2,real,false,2,rare,1,2020-06-12T19:20:32Z,sub24
two-step-fixation,161,483579,0.0-76.0-2.8,FALSE,TRUE,TRUE,FALSE,"""event"",""trial"",""time""
""fullscreenenter"",""5"",""12985""
","
","
","""event"",""trial"",""time""
""fullscreenenter"",""5"",""12985""
","
",NA,images/earth.jpg,NA,NA,NA,NA,NA,NA,NA,NA,NA,NA,NA,NA,NA,fixation,NA,NA,NA,NA,NA,NA,sub24
d3-animate-choice,162,485868,0.0-76.0-0.9,FALSE,TRUE,TRUE,FALSE,"""event"",""trial"",""time""
""fullscreenenter"",""5"",""12985""
","
","
","""event"",""trial"",""time""
""fullscreenenter"",""5"",""12985""
","
",281.55499999411404,NA,49,NA,NA,3000,1,NA,NA,images/earth.jpg,images/rocket1,images/rocket2,null,images/rocket2,NA,1,real,null,1,NA,NA,NA,sub24
d3-animate-choice,163,488670,0.0-76.0-1.9,FALSE,TRUE,TRUE,FALSE,"""event"",""trial"",""time""
""fullscreenenter"",""5"",""12985""
","
","
","""event"",""trial"",""time""
""fullscreenenter"",""5"",""12985""
","
",794.9449999723583,NA,48,NA,NA,3000,1,NA,NA,images/purpleplanet.jpg,images/alien4,images/alien3,images/rocket2,images/alien4,images/t.png,2,real,true,2,common,1,2020-06-12T19:20:38Z,sub24
two-step-fixation,164,489672,0.0-76.0-2.9,FALSE,TRUE,TRUE,FALSE,"""event"",""trial"",""time""
""fullscreenenter"",""5"",""12985""
","
","
","""event"",""trial"",""time""
""fullscreenenter"",""5"",""12985""
","
",NA,images/earth.jpg,NA,NA,NA,NA,NA,NA,NA,NA,NA,NA,NA,NA,NA,fixation,NA,NA,NA,NA,NA,NA,sub24
d3-animate-choice,165,491910,0.0-76.0-0.10,FALSE,TRUE,TRUE,FALSE,"""event"",""trial"",""time""
""fullscreenenter"",""5"",""12985""
","
","
","""event"",""trial"",""time""
""fullscreenenter"",""5"",""12985""
","
",231.02999990805984,NA,48,NA,NA,3000,1,NA,NA,images/earth.jpg,images/rocket1,images/rocket2,null,images/rocket1,NA,1,real,null,2,NA,NA,NA,sub24
d3-animate-choice,166,494518,0.0-76.0-1.10,FALSE,TRUE,TRUE,FALSE,"""event"",""trial"",""time""
""fullscreenenter"",""5"",""12985""
","
","
","""event"",""trial"",""time""
""fullscreenenter"",""5"",""12985""
","
",600.1150000374764,NA,49,NA,NA,3000,1,NA,NA,images/redplanet1.jpg,images/alien2,images/alien1,images/rocket1,images/alien1,images/nothing.png,2,real,true,1,common,0,2020-06-12T19:20:44Z,sub24
two-step-fixation,167,495524,0.0-76.0-2.10,FALSE,TRUE,TRUE,FALSE,"""event"",""trial"",""time""
""fullscreenenter"",""5"",""12985""
","
","
","""event"",""trial"",""time""
""fullscreenenter"",""5"",""12985""
","
",NA,images/earth.jpg,NA,NA,NA,NA,NA,NA,NA,NA,NA,NA,NA,NA,NA,fixation,NA,NA,NA,NA,NA,NA,sub24
d3-animate-choice,168,498012,0.0-76.0-0.11,FALSE,TRUE,TRUE,FALSE,"""event"",""trial"",""time""
""fullscreenenter"",""5"",""12985""
","
","
","""event"",""trial"",""time""
""fullscreenenter"",""5"",""12985""
","
",479.52000005170703,NA,49,NA,NA,3000,1,NA,NA,images/earth.jpg,images/rocket1,images/rocket2,null,images/rocket2,NA,1,real,null,1,NA,NA,NA,sub24
d3-animate-choice,169,500679,0.0-76.0-1.11,FALSE,TRUE,TRUE,FALSE,"""event"",""trial"",""time""
""fullscreenenter"",""5"",""12985""
","
","
","""event"",""trial"",""time""
""fullscreenenter"",""5"",""12985""
","
",660.6850000098348,NA,48,NA,NA,3000,1,NA,NA,images/purpleplanet.jpg,images/alien4,images/alien3,images/rocket2,images/alien4,images/t.png,2,real,true,2,common,1,2020-06-12T19:20:50Z,sub24
two-step-fixation,170,501681,0.0-76.0-2.11,FALSE,TRUE,TRUE,FALSE,"""event"",""trial"",""time""
""fullscreenenter"",""5"",""12985""
","
","
","""event"",""trial"",""time""
""fullscreenenter"",""5"",""12985""
","
",NA,images/earth.jpg,NA,NA,NA,NA,NA,NA,NA,NA,NA,NA,NA,NA,NA,fixation,NA,NA,NA,NA,NA,NA,sub24
d3-animate-choice,171,503993,0.0-76.0-0.12,FALSE,TRUE,TRUE,FALSE,"""event"",""trial"",""time""
""fullscreenenter"",""5"",""12985""
","
","
","""event"",""trial"",""time""
""fullscreenenter"",""5"",""12985""
","
",308.69500001426786,NA,48,NA,NA,3000,1,NA,NA,images/earth.jpg,images/rocket1,images/rocket2,null,images/rocket1,NA,1,real,null,2,NA,NA,NA,sub24
d3-animate-choice,172,506941,0.0-76.0-1.12,FALSE,TRUE,TRUE,FALSE,"""event"",""trial"",""time""
""fullscreenenter"",""5"",""12985""
","
","
","""event"",""trial"",""time""
""fullscreenenter"",""5"",""12985""
","
",944.1599999554455,NA,48,NA,NA,3000,1,NA,NA,images/redplanet1.jpg,images/alien2,images/alien1,images/rocket1,images/alien2,images/t.png,2,real,true,2,common,1,2020-06-12T19:20:57Z,sub24
two-step-fixation,173,507946,0.0-76.0-2.12,FALSE,TRUE,TRUE,FALSE,"""event"",""trial"",""time""
""fullscreenenter"",""5"",""12985""
","
","
","""event"",""trial"",""time""
""fullscreenenter"",""5"",""12985""
","
",NA,images/earth.jpg,NA,NA,NA,NA,NA,NA,NA,NA,NA,NA,NA,NA,NA,fixation,NA,NA,NA,NA,NA,NA,sub24
d3-animate-choice,174,510309,0.0-76.0-0.13,FALSE,TRUE,TRUE,FALSE,"""event"",""trial"",""time""
""fullscreenenter"",""5"",""12985""
","
","
","""event"",""trial"",""time""
""fullscreenenter"",""5"",""12985""
","
",358.53500000666827,NA,49,NA,NA,3000,1,NA,NA,images/earth.jpg,images/rocket1,images/rocket2,null,images/rocket2,NA,1,real,null,1,NA,NA,NA,sub24
d3-animate-choice,175,512879,0.0-76.0-1.13,FALSE,TRUE,TRUE,FALSE,"""event"",""trial"",""time""
""fullscreenenter"",""5"",""12985""
","
","
","""event"",""trial"",""time""
""fullscreenenter"",""5"",""12985""
","
",560.9999999869615,NA,48,NA,NA,3000,1,NA,NA,images/purpleplanet.jpg,images/alien4,images/alien3,images/rocket2,images/alien4,images/t.png,2,real,true,2,common,1,2020-06-12T19:21:02Z,sub24
two-step-fixation,176,513885,0.0-76.0-2.13,FALSE,TRUE,TRUE,FALSE,"""event"",""trial"",""time""
""fullscreenenter"",""5"",""12985""
","
","
","""event"",""trial"",""time""
""fullscreenenter"",""5"",""12985""
","
",NA,images/earth.jpg,NA,NA,NA,NA,NA,NA,NA,NA,NA,NA,NA,NA,NA,fixation,NA,NA,NA,NA,NA,NA,sub24
d3-animate-choice,177,516362,0.0-76.0-0.14,FALSE,TRUE,TRUE,FALSE,"""event"",""trial"",""time""
""fullscreenenter"",""5"",""12985""
","
","
","""event"",""trial"",""time""
""fullscreenenter"",""5"",""12985""
","
",469.2599999252707,NA,48,NA,NA,3000,1,NA,NA,images/earth.jpg,images/rocket1,images/rocket2,null,images/rocket1,NA,1,real,null,2,NA,NA,NA,sub24
d3-animate-choice,178,519086,0.0-76.0-1.14,FALSE,TRUE,TRUE,FALSE,"""event"",""trial"",""time""
""fullscreenenter"",""5"",""12985""
","
","
","""event"",""trial"",""time""
""fullscreenenter"",""5"",""12985""
","
",720.2399999368936,NA,48,NA,NA,3000,1,NA,NA,images/redplanet1.jpg,images/alien2,images/alien1,images/rocket1,images/alien2,images/t.png,2,real,true,2,common,1,2020-06-12T19:21:09Z,sub24
two-step-fixation,179,520090,0.0-76.0-2.14,FALSE,TRUE,TRUE,FALSE,"""event"",""trial"",""time""
""fullscreenenter"",""5"",""12985""
","
","
","""event"",""trial"",""time""
""fullscreenenter"",""5"",""12985""
","
",NA,images/earth.jpg,NA,NA,NA,NA,NA,NA,NA,NA,NA,NA,NA,NA,NA,fixation,NA,NA,NA,NA,NA,NA,sub24
d3-animate-choice,180,522613,0.0-76.0-0.15,FALSE,TRUE,TRUE,FALSE,"""event"",""trial"",""time""
""fullscreenenter"",""5"",""12985""
","
","
","""event"",""trial"",""time""
""fullscreenenter"",""5"",""12985""
","
",518.7900000018999,NA,49,NA,NA,3000,1,NA,NA,images/earth.jpg,images/rocket1,images/rocket2,null,images/rocket2,NA,1,real,null,1,NA,NA,NA,sub24
d3-animate-choice,181,525003,0.0-76.0-1.15,FALSE,TRUE,TRUE,FALSE,"""event"",""trial"",""time""
""fullscreenenter"",""5"",""12985""
","
","
","""event"",""trial"",""time""
""fullscreenenter"",""5"",""12985""
","
",384.8950000246987,NA,48,NA,NA,3000,1,NA,NA,images/redplanet1.jpg,images/alien2,images/alien1,images/rocket2,images/alien2,images/t.png,2,real,false,2,rare,1,2020-06-12T19:21:15Z,sub24
two-step-fixation,182,526010,0.0-76.0-2.15,FALSE,TRUE,TRUE,FALSE,"""event"",""trial"",""time""
""fullscreenenter"",""5"",""12985""
","
","
","""event"",""trial"",""time""
""fullscreenenter"",""5"",""12985""
","
",NA,images/earth.jpg,NA,NA,NA,NA,NA,NA,NA,NA,NA,NA,NA,NA,NA,fixation,NA,NA,NA,NA,NA,NA,sub24
d3-animate-choice,183,528417,0.0-76.0-0.16,FALSE,TRUE,TRUE,FALSE,"""event"",""trial"",""time""
""fullscreenenter"",""5"",""12985""
","
","
","""event"",""trial"",""time""
""fullscreenenter"",""5"",""12985""
","
",398.795000044629,NA,49,NA,NA,3000,1,NA,NA,images/earth.jpg,images/rocket1,images/rocket2,null,images/rocket2,NA,1,real,null,1,NA,NA,NA,sub24
d3-animate-choice,184,530788,0.0-76.0-1.16,FALSE,TRUE,TRUE,FALSE,"""event"",""trial"",""time""
""fullscreenenter"",""5"",""12985""
","
","
","""event"",""trial"",""time""
""fullscreenenter"",""5"",""12985""
","
",365.2200000360608,NA,48,NA,NA,3000,1,NA,NA,images/purpleplanet.jpg,images/alien4,images/alien3,images/rocket2,images/alien4,images/nothing.png,2,real,true,2,common,0,2020-06-12T19:21:20Z,sub24
two-step-fixation,185,531795,0.0-76.0-2.16,FALSE,TRUE,TRUE,FALSE,"""event"",""trial"",""time""
""fullscreenenter"",""5"",""12985""
","
","
","""event"",""trial"",""time""
""fullscreenenter"",""5"",""12985""
","
",NA,images/earth.jpg,NA,NA,NA,NA,NA,NA,NA,NA,NA,NA,NA,NA,NA,fixation,NA,NA,NA,NA,NA,NA,sub24
d3-animate-choice,186,533992,0.0-76.0-0.17,FALSE,TRUE,TRUE,FALSE,"""event"",""trial"",""time""
""fullscreenenter"",""5"",""12985""
","
","
","""event"",""trial"",""time""
""fullscreenenter"",""5"",""12985""
","
",191.11499993596226,NA,49,NA,NA,3000,1,NA,NA,images/earth.jpg,images/rocket1,images/rocket2,null,images/rocket2,NA,1,real,null,1,NA,NA,NA,sub24
d3-animate-choice,187,536858,0.0-76.0-1.17,FALSE,TRUE,TRUE,FALSE,"""event"",""trial"",""time""
""fullscreenenter"",""5"",""12985""
","
","
","""event"",""trial"",""time""
""fullscreenenter"",""5"",""12985""
","
",858.4699999773875,NA,48,NA,NA,3000,1,NA,NA,images/redplanet1.jpg,images/alien2,images/alien1,images/rocket2,images/alien2,images/t.png,2,real,false,2,rare,1,2020-06-12T19:21:26Z,sub24
two-step-fixation,188,537864,0.0-76.0-2.17,FALSE,TRUE,TRUE,FALSE,"""event"",""trial"",""time""
""fullscreenenter"",""5"",""12985""
","
","
","""event"",""trial"",""time""
""fullscreenenter"",""5"",""12985""
","
",NA,images/earth.jpg,NA,NA,NA,NA,NA,NA,NA,NA,NA,NA,NA,NA,NA,fixation,NA,NA,NA,NA,NA,NA,sub24
d3-animate-choice,189,540251,0.0-76.0-0.18,FALSE,TRUE,TRUE,FALSE,"""event"",""trial"",""time""
""fullscreenenter"",""5"",""12985""
","
","
","""event"",""trial"",""time""
""fullscreenenter"",""5"",""12985""
","
",382.6450000051409,NA,48,NA,NA,3000,1,NA,NA,images/earth.jpg,images/rocket1,images/rocket2,null,images/rocket1,NA,1,real,null,2,NA,NA,NA,sub24
d3-animate-choice,190,542637,0.0-76.0-1.18,FALSE,TRUE,TRUE,FALSE,"""event"",""trial"",""time""
""fullscreenenter"",""5"",""12985""
","
","
","""event"",""trial"",""time""
""fullscreenenter"",""5"",""12985""
","
",378.2300000311807,NA,49,NA,NA,3000,1,NA,NA,images/purpleplanet.jpg,images/alien4,images/alien3,images/rocket1,images/alien3,images/t.png,2,real,false,1,rare,1,2020-06-12T19:21:32Z,sub24
two-step-fixation,191,543640,0.0-76.0-2.18,FALSE,TRUE,TRUE,FALSE,"""event"",""trial"",""time""
""fullscreenenter"",""5"",""12985""
","
","
","""event"",""trial"",""time""
""fullscreenenter"",""5"",""12985""
","
",NA,images/earth.jpg,NA,NA,NA,NA,NA,NA,NA,NA,NA,NA,NA,NA,NA,fixation,NA,NA,NA,NA,NA,NA,sub24
d3-animate-choice,192,546194,0.0-76.0-0.19,FALSE,TRUE,TRUE,FALSE,"""event"",""trial"",""time""
""fullscreenenter"",""5"",""12985""
","
","
","""event"",""trial"",""time""
""fullscreenenter"",""5"",""12985""
","
",546.0099999327213,NA,48,NA,NA,3000,1,NA,NA,images/earth.jpg,images/rocket1,images/rocket2,null,images/rocket1,NA,1,real,null,2,NA,NA,NA,sub24
d3-animate-choice,193,548566,0.0-76.0-1.19,FALSE,TRUE,TRUE,FALSE,"""event"",""trial"",""time""
""fullscreenenter"",""5"",""12985""
","
","
","""event"",""trial"",""time""
""fullscreenenter"",""5"",""12985""
","
",363.63499995786697,NA,49,NA,NA,3000,1,NA,NA,images/redplanet1.jpg,images/alien2,images/alien1,images/rocket1,images/alien1,images/nothing.png,2,real,true,1,common,0,2020-06-12T19:21:38Z,sub24
two-step-fixation,194,549571,0.0-76.0-2.19,FALSE,TRUE,TRUE,FALSE,"""event"",""trial"",""time""
""fullscreenenter"",""5"",""12985""
","
","
","""event"",""trial"",""time""
""fullscreenenter"",""5"",""12985""
","
",NA,images/earth.jpg,NA,NA,NA,NA,NA,NA,NA,NA,NA,NA,NA,NA,NA,fixation,NA,NA,NA,NA,NA,NA,sub24
d3-animate-choice,195,552063,0.0-76.0-0.20,FALSE,TRUE,TRUE,FALSE,"""event"",""trial"",""time""
""fullscreenenter"",""5"",""12985""
","
","
","""event"",""trial"",""time""
""fullscreenenter"",""5"",""12985""
","
",484.25500001758337,NA,49,NA,NA,3000,1,NA,NA,images/earth.jpg,images/rocket1,images/rocket2,null,images/rocket2,NA,1,real,null,1,NA,NA,NA,sub24
d3-animate-choice,196,554319,0.0-76.0-1.20,FALSE,TRUE,TRUE,FALSE,"""event"",""trial"",""time""
""fullscreenenter"",""5"",""12985""
","
","
","""event"",""trial"",""time""
""fullscreenenter"",""5"",""12985""
","
",252.8200000524521,NA,48,NA,NA,3000,1,NA,NA,images/redplanet1.jpg,images/alien2,images/alien1,images/rocket2,images/alien2,images/nothing.png,2,real,false,2,rare,0,2020-06-12T19:21:44Z,sub24
two-step-fixation,197,555327,0.0-76.0-2.20,FALSE,TRUE,TRUE,FALSE,"""event"",""trial"",""time""
""fullscreenenter"",""5"",""12985""
","
","
","""event"",""trial"",""time""
""fullscreenenter"",""5"",""12985""
","
",NA,images/earth.jpg,NA,NA,NA,NA,NA,NA,NA,NA,NA,NA,NA,NA,NA,fixation,NA,NA,NA,NA,NA,NA,sub24
d3-animate-choice,198,557550,0.0-76.0-0.21,FALSE,TRUE,TRUE,FALSE,"""event"",""trial"",""time""
""fullscreenenter"",""5"",""12985""
","
","
","""event"",""trial"",""time""
""fullscreenenter"",""5"",""12985""
","
",215.3400001116097,NA,48,NA,NA,3000,1,NA,NA,images/earth.jpg,images/rocket1,images/rocket2,null,images/rocket1,NA,1,real,null,2,NA,NA,NA,sub24
d3-animate-choice,199,559898,0.0-76.0-1.21,FALSE,TRUE,TRUE,FALSE,"""event"",""trial"",""time""
""fullscreenenter"",""5"",""12985""
","
","
","""event"",""trial"",""time""
""fullscreenenter"",""5"",""12985""
","
",341.1799999885261,NA,49,NA,NA,3000,1,NA,NA,images/purpleplanet.jpg,images/alien4,images/alien3,images/rocket1,images/alien3,images/nothing.png,2,real,false,1,rare,0,2020-06-12T19:21:49Z,sub24
two-step-fixation,200,560903,0.0-76.0-2.21,FALSE,TRUE,TRUE,FALSE,"""event"",""trial"",""time""
""fullscreenenter"",""5"",""12985""
","
","
","""event"",""trial"",""time""
""fullscreenenter"",""5"",""12985""
","
",NA,images/earth.jpg,NA,NA,NA,NA,NA,NA,NA,NA,NA,NA,NA,NA,NA,fixation,NA,NA,NA,NA,NA,NA,sub24
d3-animate-choice,201,563129,0.0-76.0-0.22,FALSE,TRUE,TRUE,FALSE,"""event"",""trial"",""time""
""fullscreenenter"",""5"",""12985""
","
","
","""event"",""trial"",""time""
""fullscreenenter"",""5"",""12985""
","
",219.18999997433275,NA,48,NA,NA,3000,1,NA,NA,images/earth.jpg,images/rocket1,images/rocket2,null,images/rocket1,NA,1,real,null,2,NA,NA,NA,sub24
d3-animate-choice,202,565504,0.0-76.0-1.22,FALSE,TRUE,TRUE,FALSE,"""event"",""trial"",""time""
""fullscreenenter"",""5"",""12985""
","
","
","""event"",""trial"",""time""
""fullscreenenter"",""5"",""12985""
","
",371.4649999747053,NA,48,NA,NA,3000,1,NA,NA,images/redplanet1.jpg,images/alien2,images/alien1,images/rocket1,images/alien2,images/t.png,2,real,true,2,common,1,2020-06-12T19:21:55Z,sub24
two-step-fixation,203,566509,0.0-76.0-2.22,FALSE,TRUE,TRUE,FALSE,"""event"",""trial"",""time""
""fullscreenenter"",""5"",""12985""
","
","
","""event"",""trial"",""time""
""fullscreenenter"",""5"",""12985""
","
",NA,images/earth.jpg,NA,NA,NA,NA,NA,NA,NA,NA,NA,NA,NA,NA,NA,fixation,NA,NA,NA,NA,NA,NA,sub24
d3-animate-choice,204,568720,0.0-76.0-0.23,FALSE,TRUE,TRUE,FALSE,"""event"",""trial"",""time""
""fullscreenenter"",""5"",""12985""
","
","
","""event"",""trial"",""time""
""fullscreenenter"",""5"",""12985""
","
",204.73999995738268,NA,48,NA,NA,3000,1,NA,NA,images/earth.jpg,images/rocket1,images/rocket2,null,images/rocket1,NA,1,real,null,2,NA,NA,NA,sub24
d3-animate-choice,205,571216,0.0-76.0-1.23,FALSE,TRUE,TRUE,FALSE,"""event"",""trial"",""time""
""fullscreenenter"",""5"",""12985""
","
","
","""event"",""trial"",""time""
""fullscreenenter"",""5"",""12985""
","
",489.6300000837073,NA,48,NA,NA,3000,1,NA,NA,images/redplanet1.jpg,images/alien2,images/alien1,images/rocket1,images/alien2,images/t.png,2,real,true,2,common,1,2020-06-12T19:22:01Z,sub24
two-step-fixation,206,572222,0.0-76.0-2.23,FALSE,TRUE,TRUE,FALSE,"""event"",""trial"",""time""
""fullscreenenter"",""5"",""12985""
","
","
","""event"",""trial"",""time""
""fullscreenenter"",""5"",""12985""
","
",NA,images/earth.jpg,NA,NA,NA,NA,NA,NA,NA,NA,NA,NA,NA,NA,NA,fixation,NA,NA,NA,NA,NA,NA,sub24
d3-animate-choice,207,574478,0.0-76.0-0.24,FALSE,TRUE,TRUE,FALSE,"""event"",""trial"",""time""
""fullscreenenter"",""5"",""12985""
","
","
","""event"",""trial"",""time""
""fullscreenenter"",""5"",""12985""
","
",250.1349999802187,NA,49,NA,NA,3000,1,NA,NA,images/earth.jpg,images/rocket1,images/rocket2,null,images/rocket2,NA,1,real,null,1,NA,NA,NA,sub24
d3-animate-choice,208,576916,0.0-76.0-1.24,FALSE,TRUE,TRUE,FALSE,"""event"",""trial"",""time""
""fullscreenenter"",""5"",""12985""
","
","
","""event"",""trial"",""time""
""fullscreenenter"",""5"",""12985""
","
",430.9799999464303,NA,48,NA,NA,3000,1,NA,NA,images/purpleplanet.jpg,images/alien4,images/alien3,images/rocket2,images/alien4,images/nothing.png,2,real,true,2,common,0,2020-06-12T19:22:07Z,sub24
two-step-fixation,209,577922,0.0-76.0-2.24,FALSE,TRUE,TRUE,FALSE,"""event"",""trial"",""time""
""fullscreenenter"",""5"",""12985""
","
","
","""event"",""trial"",""time""
""fullscreenenter"",""5"",""12985""
","
",NA,images/earth.jpg,NA,NA,NA,NA,NA,NA,NA,NA,NA,NA,NA,NA,NA,fixation,NA,NA,NA,NA,NA,NA,sub24
d3-animate-choice,210,580162,0.0-76.0-0.25,FALSE,TRUE,TRUE,FALSE,"""event"",""trial"",""time""
""fullscreenenter"",""5"",""12985""
","
","
","""event"",""trial"",""time""
""fullscreenenter"",""5"",""12985""
","
",234.48999994434416,NA,48,NA,NA,3000,1,NA,NA,images/earth.jpg,images/rocket1,images/rocket2,null,images/rocket1,NA,1,real,null,2,NA,NA,NA,sub24
d3-animate-choice,211,582412,0.0-76.0-1.25,FALSE,TRUE,TRUE,FALSE,"""event"",""trial"",""time""
""fullscreenenter"",""5"",""12985""
","
","
","""event"",""trial"",""time""
""fullscreenenter"",""5"",""12985""
","
",243.83999989368021,NA,49,NA,NA,3000,1,NA,NA,images/redplanet1.jpg,images/alien2,images/alien1,images/rocket1,images/alien1,images/t.png,2,real,true,1,common,1,2020-06-12T19:22:12Z,sub24
two-step-fixation,212,583420,0.0-76.0-2.25,FALSE,TRUE,TRUE,FALSE,"""event"",""trial"",""time""
""fullscreenenter"",""5"",""12985""
","
","
","""event"",""trial"",""time""
""fullscreenenter"",""5"",""12985""
","
",NA,images/earth.jpg,NA,NA,NA,NA,NA,NA,NA,NA,NA,NA,NA,NA,NA,fixation,NA,NA,NA,NA,NA,NA,sub24
d3-animate-choice,213,585752,0.0-76.0-0.26,FALSE,TRUE,TRUE,FALSE,"""event"",""trial"",""time""
""fullscreenenter"",""5"",""12985""
","
","
","""event"",""trial"",""time""
""fullscreenenter"",""5"",""12985""
","
",326.75500004552305,NA,48,NA,NA,3000,1,NA,NA,images/earth.jpg,images/rocket1,images/rocket2,null,images/rocket1,NA,1,real,null,2,NA,NA,NA,sub24
d3-animate-choice,214,588114,0.0-76.0-1.26,FALSE,TRUE,TRUE,FALSE,"""event"",""trial"",""time""
""fullscreenenter"",""5"",""12985""
","
","
","""event"",""trial"",""time""
""fullscreenenter"",""5"",""12985""
","
",356.70000000391155,NA,48,NA,NA,3000,1,NA,NA,images/purpleplanet.jpg,images/alien4,images/alien3,images/rocket1,images/alien4,images/t.png,2,real,false,2,rare,1,2020-06-12T19:22:18Z,sub24
two-step-fixation,215,589116,0.0-76.0-2.26,FALSE,TRUE,TRUE,FALSE,"""event"",""trial"",""time""
""fullscreenenter"",""5"",""12985""
","
","
","""event"",""trial"",""time""
""fullscreenenter"",""5"",""12985""
","
",NA,images/earth.jpg,NA,NA,NA,NA,NA,NA,NA,NA,NA,NA,NA,NA,NA,fixation,NA,NA,NA,NA,NA,NA,sub24
d3-animate-choice,216,591404,0.0-76.0-0.27,FALSE,TRUE,TRUE,FALSE,"""event"",""trial"",""time""
""fullscreenenter"",""5"",""12985""
","
","
","""event"",""trial"",""time""
""fullscreenenter"",""5"",""12985""
","
",284.17500003706664,NA,48,NA,NA,3000,1,NA,NA,images/earth.jpg,images/rocket1,images/rocket2,null,images/rocket1,NA,1,real,null,2,NA,NA,NA,sub24
d3-animate-choice,217,593722,0.0-76.0-1.27,FALSE,TRUE,TRUE,FALSE,"""event"",""trial"",""time""
""fullscreenenter"",""5"",""12985""
","
","
","""event"",""trial"",""time""
""fullscreenenter"",""5"",""12985""
","
",311.87500001396984,NA,48,NA,NA,3000,1,NA,NA,images/purpleplanet.jpg,images/alien4,images/alien3,images/rocket1,images/alien4,images/t.png,2,real,false,2,rare,1,2020-06-12T19:22:23Z,sub24
two-step-fixation,218,594729,0.0-76.0-2.27,FALSE,TRUE,TRUE,FALSE,"""event"",""trial"",""time""
""fullscreenenter"",""5"",""12985""
","
","
","""event"",""trial"",""time""
""fullscreenenter"",""5"",""12985""
","
",NA,images/earth.jpg,NA,NA,NA,NA,NA,NA,NA,NA,NA,NA,NA,NA,NA,fixation,NA,NA,NA,NA,NA,NA,sub24
d3-animate-choice,219,596740,0.0-76.0-0.28,FALSE,TRUE,TRUE,FALSE,"""event"",""trial"",""time""
""fullscreenenter"",""5"",""12985""
","
","
","""event"",""trial"",""time""
""fullscreenenter"",""5"",""12985""
","
",5.225000088103116,NA,49,NA,NA,3000,1,NA,NA,images/earth.jpg,images/rocket1,images/rocket2,null,images/rocket2,NA,1,real,null,1,NA,NA,NA,sub24
d3-animate-choice,220,599070,0.0-76.0-1.28,FALSE,TRUE,TRUE,FALSE,"""event"",""trial"",""time""
""fullscreenenter"",""5"",""12985""
","
","
","""event"",""trial"",""time""
""fullscreenenter"",""5"",""12985""
","
",324.4849999900907,NA,48,NA,NA,3000,1,NA,NA,images/redplanet1.jpg,images/alien2,images/alien1,images/rocket2,images/alien2,images/t.png,2,real,false,2,rare,1,2020-06-12T19:22:29Z,sub24
two-step-fixation,221,600073,0.0-76.0-2.28,FALSE,TRUE,TRUE,FALSE,"""event"",""trial"",""time""
""fullscreenenter"",""5"",""12985""
","
","
","""event"",""trial"",""time""
""fullscreenenter"",""5"",""12985""
","
",NA,images/earth.jpg,NA,NA,NA,NA,NA,NA,NA,NA,NA,NA,NA,NA,NA,fixation,NA,NA,NA,NA,NA,NA,sub24
d3-animate-choice,222,602305,0.0-76.0-0.29,FALSE,TRUE,TRUE,FALSE,"""event"",""trial"",""time""
""fullscreenenter"",""5"",""12985""
","
","
","""event"",""trial"",""time""
""fullscreenenter"",""5"",""12985""
","
",227.41499997209758,NA,49,NA,NA,3000,1,NA,NA,images/earth.jpg,images/rocket1,images/rocket2,null,images/rocket2,NA,1,real,null,1,NA,NA,NA,sub24
d3-animate-choice,223,604617,0.0-76.0-1.29,FALSE,TRUE,TRUE,FALSE,"""event"",""trial"",""time""
""fullscreenenter"",""5"",""12985""
","
","
","""event"",""trial"",""time""
""fullscreenenter"",""5"",""12985""
","
",306.11499992664903,NA,48,NA,NA,3000,1,NA,NA,images/purpleplanet.jpg,images/alien4,images/alien3,images/rocket2,images/alien4,images/t.png,2,real,true,2,common,1,2020-06-12T19:22:34Z,sub24
two-step-fixation,224,605624,0.0-76.0-2.29,FALSE,TRUE,TRUE,FALSE,"""event"",""trial"",""time""
""fullscreenenter"",""5"",""12985""
","
","
","""event"",""trial"",""time""
""fullscreenenter"",""5"",""12985""
","
",NA,images/earth.jpg,NA,NA,NA,NA,NA,NA,NA,NA,NA,NA,NA,NA,NA,fixation,NA,NA,NA,NA,NA,NA,sub24
d3-animate-choice,225,608027,0.0-76.0-0.30,FALSE,TRUE,TRUE,FALSE,"""event"",""trial"",""time""
""fullscreenenter"",""5"",""12985""
","
","
","""event"",""trial"",""time""
""fullscreenenter"",""5"",""12985""
","
",395.3149999724701,NA,49,NA,NA,3000,1,NA,NA,images/earth.jpg,images/rocket1,images/rocket2,null,images/rocket2,NA,1,real,null,1,NA,NA,NA,sub24
d3-animate-choice,226,610443,0.0-76.0-1.30,FALSE,TRUE,TRUE,FALSE,"""event"",""trial"",""time""
""fullscreenenter"",""5"",""12985""
","
","
","""event"",""trial"",""time""
""fullscreenenter"",""5"",""12985""
","
",410.1449999725446,NA,48,NA,NA,3000,1,NA,NA,images/purpleplanet.jpg,images/alien4,images/alien3,images/rocket2,images/alien4,images/t.png,2,real,true,2,common,1,2020-06-12T19:22:40Z,sub24
two-step-fixation,227,611447,0.0-76.0-2.30,FALSE,TRUE,TRUE,FALSE,"""event"",""trial"",""time""
""fullscreenenter"",""5"",""12985""
","
","
","""event"",""trial"",""time""
""fullscreenenter"",""5"",""12985""
","
",NA,images/earth.jpg,NA,NA,NA,NA,NA,NA,NA,NA,NA,NA,NA,NA,NA,fixation,NA,NA,NA,NA,NA,NA,sub24
d3-animate-choice,228,613708,0.0-76.0-0.31,FALSE,TRUE,TRUE,FALSE,"""event"",""trial"",""time""
""fullscreenenter"",""5"",""12985""
","
","
","""event"",""trial"",""time""
""fullscreenenter"",""5"",""12985""
","
",253.29499994404614,NA,49,NA,NA,3000,1,NA,NA,images/earth.jpg,images/rocket1,images/rocket2,null,images/rocket2,NA,1,real,null,1,NA,NA,NA,sub24
d3-animate-choice,229,616065,0.0-76.0-1.31,FALSE,TRUE,TRUE,FALSE,"""event"",""trial"",""time""
""fullscreenenter"",""5"",""12985""
","
","
","""event"",""trial"",""time""
""fullscreenenter"",""5"",""12985""
","
",352.5449999142438,NA,49,NA,NA,3000,1,NA,NA,images/purpleplanet.jpg,images/alien4,images/alien3,images/rocket2,images/alien3,images/nothing.png,2,real,true,1,common,0,2020-06-12T19:22:46Z,sub24
two-step-fixation,230,617068,0.0-76.0-2.31,FALSE,TRUE,TRUE,FALSE,"""event"",""trial"",""time""
""fullscreenenter"",""5"",""12985""
","
","
","""event"",""trial"",""time""
""fullscreenenter"",""5"",""12985""
","
",NA,images/earth.jpg,NA,NA,NA,NA,NA,NA,NA,NA,NA,NA,NA,NA,NA,fixation,NA,NA,NA,NA,NA,NA,sub24
d3-animate-choice,231,619365,0.0-76.0-0.32,FALSE,TRUE,TRUE,FALSE,"""event"",""trial"",""time""
""fullscreenenter"",""5"",""12985""
","
","
","""event"",""trial"",""time""
""fullscreenenter"",""5"",""12985""
","
",292.5800000084564,NA,49,NA,NA,3000,1,NA,NA,images/earth.jpg,images/rocket1,images/rocket2,null,images/rocket2,NA,1,real,null,1,NA,NA,NA,sub24
d3-animate-choice,232,621622,0.0-76.0-1.32,FALSE,TRUE,TRUE,FALSE,"""event"",""trial"",""time""
""fullscreenenter"",""5"",""12985""
","
","
","""event"",""trial"",""time""
""fullscreenenter"",""5"",""12985""
","
",251.04000000283122,NA,48,NA,NA,3000,1,NA,NA,images/purpleplanet.jpg,images/alien4,images/alien3,images/rocket2,images/alien4,images/nothing.png,2,real,true,2,common,0,2020-06-12T19:22:51Z,sub24
two-step-fixation,233,622630,0.0-76.0-2.32,FALSE,TRUE,TRUE,FALSE,"""event"",""trial"",""time""
""fullscreenenter"",""5"",""12985""
","
","
","""event"",""trial"",""time""
""fullscreenenter"",""5"",""12985""
","
",NA,images/earth.jpg,NA,NA,NA,NA,NA,NA,NA,NA,NA,NA,NA,NA,NA,fixation,NA,NA,NA,NA,NA,NA,sub24
d3-animate-choice,234,624893,0.0-76.0-0.33,FALSE,TRUE,TRUE,FALSE,"""event"",""trial"",""time""
""fullscreenenter"",""5"",""12985""
","
","
","""event"",""trial"",""time""
""fullscreenenter"",""5"",""12985""
","
",258.765000035055,NA,48,NA,NA,3000,1,NA,NA,images/earth.jpg,images/rocket1,images/rocket2,null,images/rocket1,NA,1,real,null,2,NA,NA,NA,sub24
d3-animate-choice,235,627649,0.0-76.0-1.33,FALSE,TRUE,TRUE,FALSE,"""event"",""trial"",""time""
""fullscreenenter"",""5"",""12985""
","
","
","""event"",""trial"",""time""
""fullscreenenter"",""5"",""12985""
","
",746.4749999344349,NA,48,NA,NA,3000,1,NA,NA,images/redplanet1.jpg,images/alien2,images/alien1,images/rocket1,images/alien2,images/nothing.png,2,real,true,2,common,0,2020-06-12T19:22:57Z,sub24
two-step-fixation,236,628657,0.0-76.0-2.33,FALSE,TRUE,TRUE,FALSE,"""event"",""trial"",""time""
""fullscreenenter"",""5"",""12985""
","
","
","""event"",""trial"",""time""
""fullscreenenter"",""5"",""12985""
","
",NA,images/earth.jpg,NA,NA,NA,NA,NA,NA,NA,NA,NA,NA,NA,NA,NA,fixation,NA,NA,NA,NA,NA,NA,sub24
d3-animate-choice,237,630667,0.0-76.0-0.34,FALSE,TRUE,TRUE,FALSE,"""event"",""trial"",""time""
""fullscreenenter"",""5"",""12985""
","
","
","""event"",""trial"",""time""
""fullscreenenter"",""5"",""12985""
","
",4.844999988563359,NA,48,NA,NA,3000,1,NA,NA,images/earth.jpg,images/rocket1,images/rocket2,null,images/rocket1,NA,1,real,null,2,NA,NA,NA,sub24
d3-animate-choice,238,632896,0.0-76.0-1.34,FALSE,TRUE,TRUE,FALSE,"""event"",""trial"",""time""
""fullscreenenter"",""5"",""12985""
","
","
","""event"",""trial"",""time""
""fullscreenenter"",""5"",""12985""
","
",225.4650000249967,NA,49,NA,NA,3000,1,NA,NA,images/redplanet1.jpg,images/alien2,images/alien1,images/rocket1,images/alien1,images/nothing.png,2,real,true,1,common,0,2020-06-12T19:23:02Z,sub24
two-step-fixation,239,633902,0.0-76.0-2.34,FALSE,TRUE,TRUE,FALSE,"""event"",""trial"",""time""
""fullscreenenter"",""5"",""12985""
","
","
","""event"",""trial"",""time""
""fullscreenenter"",""5"",""12985""
","
",NA,images/earth.jpg,NA,NA,NA,NA,NA,NA,NA,NA,NA,NA,NA,NA,NA,fixation,NA,NA,NA,NA,NA,NA,sub24
d3-animate-choice,240,636318,0.0-76.0-0.35,FALSE,TRUE,TRUE,FALSE,"""event"",""trial"",""time""
""fullscreenenter"",""5"",""12985""
","
","
","""event"",""trial"",""time""
""fullscreenenter"",""5"",""12985""
","
",408.7049999507144,NA,48,NA,NA,3000,1,NA,NA,images/earth.jpg,images/rocket1,images/rocket2,null,images/rocket1,NA,1,real,null,2,NA,NA,NA,sub24
d3-animate-choice,241,638643,0.0-76.0-1.35,FALSE,TRUE,TRUE,FALSE,"""event"",""trial"",""time""
""fullscreenenter"",""5"",""12985""
","
","
","""event"",""trial"",""time""
""fullscreenenter"",""5"",""12985""
","
",320.35499997437,NA,48,NA,NA,3000,1,NA,NA,images/purpleplanet.jpg,images/alien4,images/alien3,images/rocket1,images/alien4,images/nothing.png,2,real,false,2,rare,0,2020-06-12T19:23:08Z,sub24
two-step-fixation,242,639646,0.0-76.0-2.35,FALSE,TRUE,TRUE,FALSE,"""event"",""trial"",""time""
""fullscreenenter"",""5"",""12985""
","
","
","""event"",""trial"",""time""
""fullscreenenter"",""5"",""12985""
","
",NA,images/earth.jpg,NA,NA,NA,NA,NA,NA,NA,NA,NA,NA,NA,NA,NA,fixation,NA,NA,NA,NA,NA,NA,sub24
d3-animate-choice,243,642266,0.0-76.0-0.36,FALSE,TRUE,TRUE,FALSE,"""event"",""trial"",""time""
""fullscreenenter"",""5"",""12985""
","
","
","""event"",""trial"",""time""
""fullscreenenter"",""5"",""12985""
","
",613.8849999988452,NA,49,NA,NA,3000,1,NA,NA,images/earth.jpg,images/rocket1,images/rocket2,null,images/rocket2,NA,1,real,null,1,NA,NA,NA,sub24
d3-animate-choice,244,644983,0.0-76.0-1.36,FALSE,TRUE,TRUE,FALSE,"""event"",""trial"",""time""
""fullscreenenter"",""5"",""12985""
","
","
","""event"",""trial"",""time""
""fullscreenenter"",""5"",""12985""
","
",712.459999951534,NA,49,NA,NA,3000,1,NA,NA,images/purpleplanet.jpg,images/alien4,images/alien3,images/rocket2,images/alien3,images/nothing.png,2,real,true,1,common,0,2020-06-12T19:23:15Z,sub24
two-step-fixation,245,645990,0.0-76.0-2.36,FALSE,TRUE,TRUE,FALSE,"""event"",""trial"",""time""
""fullscreenenter"",""5"",""12985""
","
","
","""event"",""trial"",""time""
""fullscreenenter"",""5"",""12985""
","
",NA,images/earth.jpg,NA,NA,NA,NA,NA,NA,NA,NA,NA,NA,NA,NA,NA,fixation,NA,NA,NA,NA,NA,NA,sub24
d3-animate-choice,246,648228,0.0-76.0-0.37,FALSE,TRUE,TRUE,FALSE,"""event"",""trial"",""time""
""fullscreenenter"",""5"",""12985""
","
","
","""event"",""trial"",""time""
""fullscreenenter"",""5"",""12985""
","
",230.8650000486523,NA,49,NA,NA,3000,1,NA,NA,images/earth.jpg,images/rocket1,images/rocket2,null,images/rocket2,NA,1,real,null,1,NA,NA,NA,sub24
d3-animate-choice,247,650716,0.0-76.0-1.37,FALSE,TRUE,TRUE,FALSE,"""event"",""trial"",""time""
""fullscreenenter"",""5"",""12985""
","
","
","""event"",""trial"",""time""
""fullscreenenter"",""5"",""12985""
","
",482.75500000454485,NA,48,NA,NA,3000,1,NA,NA,images/redplanet1.jpg,images/alien2,images/alien1,images/rocket2,images/alien2,images/t.png,2,real,false,2,rare,1,2020-06-12T19:23:20Z,sub24
two-step-fixation,248,651724,0.0-76.0-2.37,FALSE,TRUE,TRUE,FALSE,"""event"",""trial"",""time""
""fullscreenenter"",""5"",""12985""
","
","
","""event"",""trial"",""time""
""fullscreenenter"",""5"",""12985""
","
",NA,images/earth.jpg,NA,NA,NA,NA,NA,NA,NA,NA,NA,NA,NA,NA,NA,fixation,NA,NA,NA,NA,NA,NA,sub24
d3-animate-choice,249,654185,0.0-76.0-0.38,FALSE,TRUE,TRUE,FALSE,"""event"",""trial"",""time""
""fullscreenenter"",""5"",""12985""
","
","
","""event"",""trial"",""time""
""fullscreenenter"",""5"",""12985""
","
",453.5100000211969,NA,49,NA,NA,3000,1,NA,NA,images/earth.jpg,images/rocket1,images/rocket2,null,images/rocket2,NA,1,real,null,1,NA,NA,NA,sub24
d3-animate-choice,250,656603,0.0-76.0-1.38,FALSE,TRUE,TRUE,FALSE,"""event"",""trial"",""time""
""fullscreenenter"",""5"",""12985""
","
","
","""event"",""trial"",""time""
""fullscreenenter"",""5"",""12985""
","
",410.704999929294,NA,48,NA,NA,3000,1,NA,NA,images/redplanet1.jpg,images/alien2,images/alien1,images/rocket2,images/alien2,images/t.png,2,real,false,2,rare,1,2020-06-12T19:23:26Z,sub24
two-step-fixation,251,657609,0.0-76.0-2.38,FALSE,TRUE,TRUE,FALSE,"""event"",""trial"",""time""
""fullscreenenter"",""5"",""12985""
","
","
","""event"",""trial"",""time""
""fullscreenenter"",""5"",""12985""
","
",NA,images/earth.jpg,NA,NA,NA,NA,NA,NA,NA,NA,NA,NA,NA,NA,NA,fixation,NA,NA,NA,NA,NA,NA,sub24
d3-animate-choice,252,659916,0.0-76.0-0.39,FALSE,TRUE,TRUE,FALSE,"""event"",""trial"",""time""
""fullscreenenter"",""5"",""12985""
","
","
","""event"",""trial"",""time""
""fullscreenenter"",""5"",""12985""
","
",299.04500010889024,NA,49,NA,NA,3000,1,NA,NA,images/earth.jpg,images/rocket1,images/rocket2,null,images/rocket2,NA,1,real,null,1,NA,NA,NA,sub24
d3-animate-choice,253,662277,0.0-76.0-1.39,FALSE,TRUE,TRUE,FALSE,"""event"",""trial"",""time""
""fullscreenenter"",""5"",""12985""
","
","
","""event"",""trial"",""time""
""fullscreenenter"",""5"",""12985""
","
",353.68499998003244,NA,48,NA,NA,3000,1,NA,NA,images/purpleplanet.jpg,images/alien4,images/alien3,images/rocket2,images/alien4,images/nothing.png,2,real,true,2,common,0,2020-06-12T19:23:32Z,sub24
two-step-fixation,254,663285,0.0-76.0-2.39,FALSE,TRUE,TRUE,FALSE,"""event"",""trial"",""time""
""fullscreenenter"",""5"",""12985""
","
","
","""event"",""trial"",""time""
""fullscreenenter"",""5"",""12985""
","
",NA,images/earth.jpg,NA,NA,NA,NA,NA,NA,NA,NA,NA,NA,NA,NA,NA,fixation,NA,NA,NA,NA,NA,NA,sub24
d3-animate-choice,255,665633,0.0-76.0-0.40,FALSE,TRUE,TRUE,FALSE,"""event"",""trial"",""time""
""fullscreenenter"",""5"",""12985""
","
","
","""event"",""trial"",""time""
""fullscreenenter"",""5"",""12985""
","
",342.60500001255423,NA,49,NA,NA,3000,1,NA,NA,images/earth.jpg,images/rocket1,images/rocket2,null,images/rocket2,NA,1,real,null,1,NA,NA,NA,sub24
d3-animate-choice,256,668429,0.0-76.0-1.40,FALSE,TRUE,TRUE,FALSE,"""event"",""trial"",""time""
""fullscreenenter"",""5"",""12985""
","
","
","""event"",""trial"",""time""
""fullscreenenter"",""5"",""12985""
","
",789.6550000878051,NA,48,NA,NA,3000,1,NA,NA,images/redplanet1.jpg,images/alien2,images/alien1,images/rocket2,images/alien2,images/nothing.png,2,real,false,2,rare,0,2020-06-12T19:23:38Z,sub24
two-step-fixation,257,669437,0.0-76.0-2.40,FALSE,TRUE,TRUE,FALSE,"""event"",""trial"",""time""
""fullscreenenter"",""5"",""12985""
","
","
","""event"",""trial"",""time""
""fullscreenenter"",""5"",""12985""
","
",NA,images/earth.jpg,NA,NA,NA,NA,NA,NA,NA,NA,NA,NA,NA,NA,NA,fixation,NA,NA,NA,NA,NA,NA,sub24
d3-animate-choice,258,671773,0.0-76.0-0.41,FALSE,TRUE,TRUE,FALSE,"""event"",""trial"",""time""
""fullscreenenter"",""5"",""12985""
","
","
","""event"",""trial"",""time""
""fullscreenenter"",""5"",""12985""
","
",328.50499998312443,NA,49,NA,NA,3000,1,NA,NA,images/earth.jpg,images/rocket1,images/rocket2,null,images/rocket2,NA,1,real,null,1,NA,NA,NA,sub24
d3-animate-choice,259,674146,0.0-76.0-1.41,FALSE,TRUE,TRUE,FALSE,"""event"",""trial"",""time""
""fullscreenenter"",""5"",""12985""
","
","
","""event"",""trial"",""time""
""fullscreenenter"",""5"",""12985""
","
",368.03000001236796,NA,49,NA,NA,3000,1,NA,NA,images/purpleplanet.jpg,images/alien4,images/alien3,images/rocket2,images/alien3,images/nothing.png,2,real,true,1,common,0,2020-06-12T19:23:44Z,sub24
two-step-fixation,260,675153,0.0-76.0-2.41,FALSE,TRUE,TRUE,FALSE,"""event"",""trial"",""time""
""fullscreenenter"",""5"",""12985""
","
","
","""event"",""trial"",""time""
""fullscreenenter"",""5"",""12985""
","
",NA,images/earth.jpg,NA,NA,NA,NA,NA,NA,NA,NA,NA,NA,NA,NA,NA,fixation,NA,NA,NA,NA,NA,NA,sub24
d3-animate-choice,261,677493,0.0-76.0-0.42,FALSE,TRUE,TRUE,FALSE,"""event"",""trial"",""time""
""fullscreenenter"",""5"",""12985""
","
","
","""event"",""trial"",""time""
""fullscreenenter"",""5"",""12985""
","
",335.4099999414757,NA,48,NA,NA,3000,1,NA,NA,images/earth.jpg,images/rocket1,images/rocket2,null,images/rocket1,NA,1,real,null,2,NA,NA,NA,sub24
d3-animate-choice,262,680135,0.0-76.0-1.42,FALSE,TRUE,TRUE,FALSE,"""event"",""trial"",""time""
""fullscreenenter"",""5"",""12985""
","
","
","""event"",""trial"",""time""
""fullscreenenter"",""5"",""12985""
","
",635.0500000407919,NA,48,NA,NA,3000,1,NA,NA,images/redplanet1.jpg,images/alien2,images/alien1,images/rocket1,images/alien2,images/nothing.png,2,real,true,2,common,0,2020-06-12T19:23:50Z,sub24
two-step-fixation,263,681138,0.0-76.0-2.42,FALSE,TRUE,TRUE,FALSE,"""event"",""trial"",""time""
""fullscreenenter"",""5"",""12985""
","
","
","""event"",""trial"",""time""
""fullscreenenter"",""5"",""12985""
","
",NA,images/earth.jpg,NA,NA,NA,NA,NA,NA,NA,NA,NA,NA,NA,NA,NA,fixation,NA,NA,NA,NA,NA,NA,sub24
d3-animate-choice,264,683514,0.0-76.0-0.43,FALSE,TRUE,TRUE,FALSE,"""event"",""trial"",""time""
""fullscreenenter"",""5"",""12985""
","
","
","""event"",""trial"",""time""
""fullscreenenter"",""5"",""12985""
","
",371.8700000317767,NA,49,NA,NA,3000,1,NA,NA,images/earth.jpg,images/rocket1,images/rocket2,null,images/rocket2,NA,1,real,null,1,NA,NA,NA,sub24
d3-animate-choice,265,685951,0.0-76.0-1.43,FALSE,TRUE,TRUE,FALSE,"""event"",""trial"",""time""
""fullscreenenter"",""5"",""12985""
","
","
","""event"",""trial"",""time""
""fullscreenenter"",""5"",""12985""
","
",430.7750000152737,NA,48,NA,NA,3000,1,NA,NA,images/purpleplanet.jpg,images/alien4,images/alien3,images/rocket2,images/alien4,images/t.png,2,real,true,2,common,1,2020-06-12T19:23:56Z,sub24
two-step-fixation,266,686957,0.0-76.0-2.43,FALSE,TRUE,TRUE,FALSE,"""event"",""trial"",""time""
""fullscreenenter"",""5"",""12985""
","
","
","""event"",""trial"",""time""
""fullscreenenter"",""5"",""12985""
","
",NA,images/earth.jpg,NA,NA,NA,NA,NA,NA,NA,NA,NA,NA,NA,NA,NA,fixation,NA,NA,NA,NA,NA,NA,sub24
d3-animate-choice,267,689423,0.0-76.0-0.44,FALSE,TRUE,TRUE,FALSE,"""event"",""trial"",""time""
""fullscreenenter"",""5"",""12985""
","
","
","""event"",""trial"",""time""
""fullscreenenter"",""5"",""12985""
","
",458.0800000112504,NA,48,NA,NA,3000,1,NA,NA,images/earth.jpg,images/rocket1,images/rocket2,null,images/rocket1,NA,1,real,null,2,NA,NA,NA,sub24
d3-animate-choice,268,692375,0.0-76.0-1.44,FALSE,TRUE,TRUE,FALSE,"""event"",""trial"",""time""
""fullscreenenter"",""5"",""12985""
","
","
","""event"",""trial"",""time""
""fullscreenenter"",""5"",""12985""
","
",945.0899999355897,NA,48,NA,NA,3000,1,NA,NA,images/redplanet1.jpg,images/alien2,images/alien1,images/rocket1,images/alien2,images/t.png,2,real,true,2,common,1,2020-06-12T19:24:02Z,sub24
two-step-fixation,269,693380,0.0-76.0-2.44,FALSE,TRUE,TRUE,FALSE,"""event"",""trial"",""time""
""fullscreenenter"",""5"",""12985""
","
","
","""event"",""trial"",""time""
""fullscreenenter"",""5"",""12985""
","
",NA,images/earth.jpg,NA,NA,NA,NA,NA,NA,NA,NA,NA,NA,NA,NA,NA,fixation,NA,NA,NA,NA,NA,NA,sub24
d3-animate-choice,270,695886,0.0-76.0-0.45,FALSE,TRUE,TRUE,FALSE,"""event"",""trial"",""time""
""fullscreenenter"",""5"",""12985""
","
","
","""event"",""trial"",""time""
""fullscreenenter"",""5"",""12985""
","
",499.8250000644475,NA,49,NA,NA,3000,1,NA,NA,images/earth.jpg,images/rocket1,images/rocket2,null,images/rocket2,NA,1,real,null,1,NA,NA,NA,sub24
d3-animate-choice,271,698396,0.0-76.0-1.45,FALSE,TRUE,TRUE,FALSE,"""event"",""trial"",""time""
""fullscreenenter"",""5"",""12985""
","
","
","""event"",""trial"",""time""
""fullscreenenter"",""5"",""12985""
","
",506.3150000059977,NA,48,NA,NA,3000,1,NA,NA,images/purpleplanet.jpg,images/alien4,images/alien3,images/rocket2,images/alien4,images/t.png,2,real,true,2,common,1,2020-06-12T19:24:08Z,sub24
two-step-fixation,272,699400,0.0-76.0-2.45,FALSE,TRUE,TRUE,FALSE,"""event"",""trial"",""time""
""fullscreenenter"",""5"",""12985""
","
","
","""event"",""trial"",""time""
""fullscreenenter"",""5"",""12985""
","
",NA,images/earth.jpg,NA,NA,NA,NA,NA,NA,NA,NA,NA,NA,NA,NA,NA,fixation,NA,NA,NA,NA,NA,NA,sub24
d3-animate-choice,273,701738,0.0-76.0-0.46,FALSE,TRUE,TRUE,FALSE,"""event"",""trial"",""time""
""fullscreenenter"",""5"",""12985""
","
","
","""event"",""trial"",""time""
""fullscreenenter"",""5"",""12985""
","
",331.44500001799315,NA,49,NA,NA,3000,1,NA,NA,images/earth.jpg,images/rocket1,images/rocket2,null,images/rocket2,NA,1,real,null,1,NA,NA,NA,sub24
d3-animate-choice,274,704143,0.0-76.0-1.46,FALSE,TRUE,TRUE,FALSE,"""event"",""trial"",""time""
""fullscreenenter"",""5"",""12985""
","
","
","""event"",""trial"",""time""
""fullscreenenter"",""5"",""12985""
","
",399.8199999332428,NA,48,NA,NA,3000,1,NA,NA,images/purpleplanet.jpg,images/alien4,images/alien3,images/rocket2,images/alien4,images/nothing.png,2,real,true,2,common,0,2020-06-12T19:24:14Z,sub24
two-step-fixation,275,705145,0.0-76.0-2.46,FALSE,TRUE,TRUE,FALSE,"""event"",""trial"",""time""
""fullscreenenter"",""5"",""12985""
","
","
","""event"",""trial"",""time""
""fullscreenenter"",""5"",""12985""
","
",NA,images/earth.jpg,NA,NA,NA,NA,NA,NA,NA,NA,NA,NA,NA,NA,NA,fixation,NA,NA,NA,NA,NA,NA,sub24
d3-animate-choice,276,707809,0.0-76.0-0.47,FALSE,TRUE,TRUE,FALSE,"""event"",""trial"",""time""
""fullscreenenter"",""5"",""12985""
","
","
","""event"",""trial"",""time""
""fullscreenenter"",""5"",""12985""
","
",658.3800000371411,NA,49,NA,NA,3000,1,NA,NA,images/earth.jpg,images/rocket1,images/rocket2,null,images/rocket2,NA,1,real,null,1,NA,NA,NA,sub24
d3-animate-choice,277,710204,0.0-76.0-1.47,FALSE,TRUE,TRUE,FALSE,"""event"",""trial"",""time""
""fullscreenenter"",""5"",""12985""
","
","
","""event"",""trial"",""time""
""fullscreenenter"",""5"",""12985""
","
",387.55500002298504,NA,48,NA,NA,3000,1,NA,NA,images/redplanet1.jpg,images/alien2,images/alien1,images/rocket2,images/alien2,images/nothing.png,2,real,false,2,rare,0,2020-06-12T19:24:20Z,sub24
two-step-fixation,278,711210,0.0-76.0-2.47,FALSE,TRUE,TRUE,FALSE,"""event"",""trial"",""time""
""fullscreenenter"",""5"",""12985""
","
","
","""event"",""trial"",""time""
""fullscreenenter"",""5"",""12985""
","
",NA,images/earth.jpg,NA,NA,NA,NA,NA,NA,NA,NA,NA,NA,NA,NA,NA,fixation,NA,NA,NA,NA,NA,NA,sub24
d3-animate-choice,279,713469,0.0-76.0-0.48,FALSE,TRUE,TRUE,FALSE,"""event"",""trial"",""time""
""fullscreenenter"",""5"",""12985""
","
","
","""event"",""trial"",""time""
""fullscreenenter"",""5"",""12985""
","
",251.4649999793619,NA,48,NA,NA,3000,1,NA,NA,images/earth.jpg,images/rocket1,images/rocket2,null,images/rocket1,NA,1,real,null,2,NA,NA,NA,sub24
d3-animate-choice,280,715866,0.0-76.0-1.48,FALSE,TRUE,TRUE,FALSE,"""event"",""trial"",""time""
""fullscreenenter"",""5"",""12985""
","
","
","""event"",""trial"",""time""
""fullscreenenter"",""5"",""12985""
","
",389.67499998398125,NA,49,NA,NA,3000,1,NA,NA,images/purpleplanet.jpg,images/alien4,images/alien3,images/rocket1,images/alien3,images/nothing.png,2,real,false,1,rare,0,2020-06-12T19:24:25Z,sub24
two-step-fixation,281,716872,0.0-76.0-2.48,FALSE,TRUE,TRUE,FALSE,"""event"",""trial"",""time""
""fullscreenenter"",""5"",""12985""
","
","
","""event"",""trial"",""time""
""fullscreenenter"",""5"",""12985""
","
",NA,images/earth.jpg,NA,NA,NA,NA,NA,NA,NA,NA,NA,NA,NA,NA,NA,fixation,NA,NA,NA,NA,NA,NA,sub24
d3-animate-choice,282,719136,0.0-76.0-0.49,FALSE,TRUE,TRUE,FALSE,"""event"",""trial"",""time""
""fullscreenenter"",""5"",""12985""
","
","
","""event"",""trial"",""time""
""fullscreenenter"",""5"",""12985""
","
",257.1999999927357,NA,48,NA,NA,3000,1,NA,NA,images/earth.jpg,images/rocket1,images/rocket2,null,images/rocket1,NA,1,real,null,2,NA,NA,NA,sub24
d3-animate-choice,283,721456,0.0-76.0-1.49,FALSE,TRUE,TRUE,FALSE,"""event"",""trial"",""time""
""fullscreenenter"",""5"",""12985""
","
","
","""event"",""trial"",""time""
""fullscreenenter"",""5"",""12985""
","
