trial_type,trial_index,time_elapsed,internal_node_id,rocket_sides,red_planet_first_rocket,red_display_order,purple_display_order,interactions,blur_events,focus_events,fullscreenenter_events,fullscreenexit_events,rt,stimulus,key_press,button_pressed,success,duration,valid_pressed,rts,keys,planet_text,right_text,left_text,center_text,chosen_text,reward_text,trial_stage,practice_trial,transition_type,choice,transition,reward,timestamp,subject_id
pavlovia,0,9,0.0-0.0,FALSE,FALSE,FALSE,FALSE,"
","
","
","
","
",NA,NA,NA,NA,NA,NA,NA,NA,NA,NA,NA,NA,NA,NA,NA,NA,NA,NA,NA,NA,NA,NA,sub43
html-keyboard-response,1,2542,0.0-1.0,FALSE,FALSE,FALSE,FALSE,"
","
","
","
","
",2530.915000010282,Welcome! Press the space bar to begin.,32,NA,NA,NA,NA,NA,NA,NA,NA,NA,NA,NA,NA,NA,NA,NA,NA,NA,NA,NA,sub43
audio-keyboard-response,2,6053,0.0-2.0,FALSE,FALSE,FALSE,FALSE,"
","
","
","
","
",3509,audio/beep_loop.wav,32,NA,NA,NA,NA,NA,NA,NA,NA,NA,NA,NA,NA,NA,NA,NA,NA,NA,NA,NA,sub43
audio-button-response,3,10238,0.0-3.0,FALSE,FALSE,FALSE,FALSE,"
","
","
","
","
",NaN,audio/fish.mp3,NA,1,NA,NA,NA,NA,NA,NA,NA,NA,NA,NA,NA,NA,NA,NA,NA,NA,NA,NA,sub43
audio-button-response,4,12801,0.0-4.0,FALSE,FALSE,FALSE,FALSE,"""event"",""trial"",""time""
""fullscreenenter"",""5"",""19161""
","
","
","""event"",""trial"",""time""
""fullscreenenter"",""5"",""19161""
","
",NaN,audio/tiger.mp3,NA,4,NA,NA,NA,NA,NA,NA,NA,NA,NA,NA,NA,NA,NA,NA,NA,NA,NA,NA,sub43
fullscreen,5,20079,0.0-5.0,FALSE,FALSE,FALSE,FALSE,"""event"",""trial"",""time""
""fullscreenenter"",""5"",""19161""
","
","
","""event"",""trial"",""time""
""fullscreenenter"",""5"",""19161""
","
",NA,NA,NA,NA,TRUE,NA,NA,NA,NA,NA,NA,NA,NA,NA,NA,NA,NA,NA,NA,NA,NA,NA,sub43
d3-instructions,6,35691,0.0-6.0,FALSE,FALSE,FALSE,FALSE,"""event"",""trial"",""time""
""fullscreenenter"",""5"",""19161""
","
","
","""event"",""trial"",""time""
""fullscreenenter"",""5"",""19161""
","
",NA,NA,NA,NA,NA,NA,NA,NA,NA,NA,NA,NA,NA,NA,NA,NA,NA,NA,NA,NA,NA,NA,sub43
d3-instructions,7,45190,0.0-7.0,FALSE,FALSE,FALSE,FALSE,"""event"",""trial"",""time""
""fullscreenenter"",""5"",""19161""
","
","
","""event"",""trial"",""time""
""fullscreenenter"",""5"",""19161""
","
",NA,NA,NA,NA,NA,NA,NA,NA,NA,NA,NA,NA,NA,NA,NA,NA,NA,NA,NA,NA,NA,NA,sub43
d3-instructions,8,53988,0.0-8.0,FALSE,FALSE,FALSE,FALSE,"""event"",""trial"",""time""
""fullscreenenter"",""5"",""19161""
","
","
","""event"",""trial"",""time""
""fullscreenenter"",""5"",""19161""
","
",NA,NA,NA,NA,NA,NA,NA,NA,NA,NA,NA,NA,NA,NA,NA,NA,NA,NA,NA,NA,NA,NA,sub43
d3-instructions,9,64792,0.0-9.0,FALSE,FALSE,FALSE,FALSE,"""event"",""trial"",""time""
""fullscreenenter"",""5"",""19161""
","
","
","""event"",""trial"",""time""
""fullscreenenter"",""5"",""19161""
","
",NA,NA,NA,NA,NA,NA,NA,NA,NA,NA,NA,NA,NA,NA,NA,NA,NA,NA,NA,NA,NA,NA,sub43
d3-instructions,10,107039,0.0-10.0,FALSE,FALSE,FALSE,FALSE,"""event"",""trial"",""time""
""fullscreenenter"",""5"",""19161""
","
","
","""event"",""trial"",""time""
""fullscreenenter"",""5"",""19161""
","
",NA,NA,NA,NA,NA,NA,NA,NA,NA,NA,NA,NA,NA,NA,NA,NA,NA,NA,NA,NA,NA,NA,sub43
d3-animate-choice,11,110675,0.0-11.0,FALSE,FALSE,FALSE,FALSE,"""event"",""trial"",""time""
""fullscreenenter"",""5"",""19161""
","
","
","""event"",""trial"",""time""
""fullscreenenter"",""5"",""19161""
","
",1621.8100000405684,NA,49,NA,NA,3000,1,NA,NA,images/tutgreenplanet.jpg,images/tutalien1,images/tutalien2,null,images/tutalien2,NA,NA,practice,null,NA,NA,NA,NA,sub43
d3-animate-choice,12,114345,0.0-12.0,FALSE,FALSE,FALSE,FALSE,"""event"",""trial"",""time""
""fullscreenenter"",""5"",""19161""
","
","
","""event"",""trial"",""time""
""fullscreenenter"",""5"",""19161""
","
",1663.1349999806844,NA,48,NA,NA,3000,1,NA,NA,images/tutgreenplanet.jpg,images/tutalien1,images/tutalien2,null,images/tutalien1,NA,NA,practice,null,NA,NA,NA,NA,sub43
d3-animate-choice,13,117165,0.0-13.0,FALSE,FALSE,FALSE,FALSE,"""event"",""trial"",""time""
""fullscreenenter"",""5"",""19161""
","
","
","""event"",""trial"",""time""
""fullscreenenter"",""5"",""19161""
","
",813.9499999815598,NA,48,NA,NA,3000,1,NA,NA,images/tutgreenplanet.jpg,images/tutalien1,images/tutalien2,null,images/tutalien1,NA,NA,practice,null,NA,NA,NA,NA,sub43
d3-animate-choice,14,119609,0.0-14.0,FALSE,FALSE,FALSE,FALSE,"""event"",""trial"",""time""
""fullscreenenter"",""5"",""19161""
","
","
","""event"",""trial"",""time""
""fullscreenenter"",""5"",""19161""
","
",438.4650000138208,NA,49,NA,NA,3000,1,NA,NA,images/tutgreenplanet.jpg,images/tutalien1,images/tutalien2,null,images/tutalien2,NA,NA,practice,null,NA,NA,NA,NA,sub43
d3-instructions,15,127101,0.0-15.0,FALSE,FALSE,FALSE,FALSE,"""event"",""trial"",""time""
""fullscreenenter"",""5"",""19161""
","
","
","""event"",""trial"",""time""
""fullscreenenter"",""5"",""19161""
","
",NA,NA,NA,NA,NA,NA,NA,NA,NA,NA,NA,NA,NA,NA,NA,NA,NA,NA,NA,NA,NA,NA,sub43
d3-instructions,16,134160,0.0-16.0,FALSE,FALSE,FALSE,FALSE,"""event"",""trial"",""time""
""fullscreenenter"",""5"",""19161""
","
","
","""event"",""trial"",""time""
""fullscreenenter"",""5"",""19161""
","
",NA,NA,NA,NA,NA,NA,NA,NA,NA,NA,NA,NA,NA,NA,NA,NA,NA,NA,NA,NA,NA,NA,sub43
d3-instructions,17,142389,0.0-17.0,FALSE,FALSE,FALSE,FALSE,"""event"",""trial"",""time""
""fullscreenenter"",""5"",""19161""
","
","
","""event"",""trial"",""time""
""fullscreenenter"",""5"",""19161""
","
",NA,NA,NA,NA,NA,NA,NA,NA,NA,NA,NA,NA,NA,NA,NA,NA,NA,NA,NA,NA,NA,NA,sub43
d3-instructions,18,157106,0.0-18.0,FALSE,FALSE,FALSE,FALSE,"""event"",""trial"",""time""
""fullscreenenter"",""5"",""19161""
","
","
","""event"",""trial"",""time""
""fullscreenenter"",""5"",""19161""
","
",NA,NA,NA,NA,NA,NA,NA,NA,NA,NA,NA,NA,NA,NA,NA,NA,NA,NA,NA,NA,NA,NA,sub43
d3-instructions,19,166205,0.0-19.0,FALSE,FALSE,FALSE,FALSE,"""event"",""trial"",""time""
""fullscreenenter"",""5"",""19161""
","
","
","""event"",""trial"",""time""
""fullscreenenter"",""5"",""19161""
","
",NA,NA,NA,NA,NA,NA,NA,NA,NA,NA,NA,NA,NA,NA,NA,NA,NA,NA,NA,NA,NA,NA,sub43
d3-animate-choice,20,169615,0.0-20.0,FALSE,FALSE,FALSE,FALSE,"""event"",""trial"",""time""
""fullscreenenter"",""5"",""19161""
","
","
","""event"",""trial"",""time""
""fullscreenenter"",""5"",""19161""
","
",1400.5150000448339,NA,49,NA,NA,3000,1,NA,NA,images/tutyellowplanet.jpg,null,images/tutalien3,null,images/tutalien3,images/t.png,NA,practice,null,NA,NA,NA,NA,sub43
d3-animate-choice,21,173045,0.0-21.0,FALSE,FALSE,FALSE,FALSE,"""event"",""trial"",""time""
""fullscreenenter"",""5"",""19161""
","
","
","""event"",""trial"",""time""
""fullscreenenter"",""5"",""19161""
","
",1424.5399999781512,NA,49,NA,NA,3000,1,NA,NA,images/tutyellowplanet.jpg,null,images/tutalien3,null,images/tutalien3,images/t.png,NA,practice,null,NA,NA,NA,NA,sub43
d3-animate-choice,22,175352,0.0-22.0,FALSE,FALSE,FALSE,FALSE,"""event"",""trial"",""time""
""fullscreenenter"",""5"",""19161""
","
","
","""event"",""trial"",""time""
""fullscreenenter"",""5"",""19161""
","
",301.3700000010431,NA,49,NA,NA,3000,1,1854.5800000429153,49,images/tutyellowplanet.jpg,null,images/tutalien3,null,images/tutalien3,images/t.png,NA,practice,null,NA,NA,NA,NA,sub43
d3-animate-choice,23,177881,0.0-23.0,FALSE,FALSE,FALSE,FALSE,"""event"",""trial"",""time""
""fullscreenenter"",""5"",""19161""
","
","
","""event"",""trial"",""time""
""fullscreenenter"",""5"",""19161""
","
",523.5700000193901,NA,49,NA,NA,3000,1,NA,NA,images/tutyellowplanet.jpg,null,images/tutalien3,null,images/tutalien3,images/t.png,NA,practice,null,NA,NA,NA,NA,sub43
d3-animate-choice,24,180498,0.0-24.0,FALSE,FALSE,FALSE,FALSE,"""event"",""trial"",""time""
""fullscreenenter"",""5"",""19161""
","
","
","""event"",""trial"",""time""
""fullscreenenter"",""5"",""19161""
","
",611.9499999913387,NA,49,NA,NA,3000,1,NA,NA,images/tutyellowplanet.jpg,null,images/tutalien3,null,images/tutalien3,images/nothing.png,NA,practice,null,NA,NA,NA,NA,sub43
d3-animate-choice,25,183147,0.0-25.0,FALSE,FALSE,FALSE,FALSE,"""event"",""trial"",""time""
""fullscreenenter"",""5"",""19161""
","
","
","""event"",""trial"",""time""
""fullscreenenter"",""5"",""19161""
","
",644.559999986086,NA,49,NA,NA,3000,1,2577.1199999726377,49,images/tutyellowplanet.jpg,null,images/tutalien3,null,images/tutalien3,images/t.png,NA,practice,null,NA,NA,NA,NA,sub43
d3-animate-choice,26,185774,0.0-26.0,FALSE,FALSE,FALSE,FALSE,"""event"",""trial"",""time""
""fullscreenenter"",""5"",""19161""
","
","
","""event"",""trial"",""time""
""fullscreenenter"",""5"",""19161""
","
",617.0250000432134,NA,49,NA,NA,3000,1,NA,NA,images/tutyellowplanet.jpg,null,images/tutalien3,null,images/tutalien3,images/t.png,NA,practice,null,NA,NA,NA,NA,sub43
d3-animate-choice,27,188152,0.0-27.0,FALSE,FALSE,FALSE,FALSE,"""event"",""trial"",""time""
""fullscreenenter"",""5"",""19161""
","
","
","""event"",""trial"",""time""
""fullscreenenter"",""5"",""19161""
","
",372.59500002255663,NA,49,NA,NA,3000,1,NA,NA,images/tutyellowplanet.jpg,null,images/tutalien3,null,images/tutalien3,images/nothing.png,NA,practice,null,NA,NA,NA,NA,sub43
d3-animate-choice,28,191053,0.0-28.0,FALSE,FALSE,FALSE,FALSE,"""event"",""trial"",""time""
""fullscreenenter"",""5"",""19161""
","
","
","""event"",""trial"",""time""
""fullscreenenter"",""5"",""19161""
","
",894.6350000333041,NA,49,NA,NA,3000,1,NA,NA,images/tutyellowplanet.jpg,null,images/tutalien3,null,images/tutalien3,images/t.png,NA,practice,null,NA,NA,NA,NA,sub43
d3-animate-choice,29,194024,0.0-29.0,FALSE,FALSE,FALSE,FALSE,"""event"",""trial"",""time""
""fullscreenenter"",""5"",""19161""
","
","
","""event"",""trial"",""time""
""fullscreenenter"",""5"",""19161""
","
",965.7349999761209,NA,49,NA,NA,3000,1,NA,NA,images/tutyellowplanet.jpg,null,images/tutalien3,null,images/tutalien3,images/t.png,NA,practice,null,NA,NA,NA,NA,sub43
d3-instructions,30,201729,0.0-30.0,FALSE,FALSE,FALSE,FALSE,"""event"",""trial"",""time""
""fullscreenenter"",""5"",""19161""
","
","
","""event"",""trial"",""time""
""fullscreenenter"",""5"",""19161""
","
",NA,NA,NA,NA,NA,NA,NA,NA,NA,NA,NA,NA,NA,NA,NA,NA,NA,NA,NA,NA,NA,NA,sub43
d3-instructions,31,211059,0.0-31.0,FALSE,FALSE,FALSE,FALSE,"""event"",""trial"",""time""
""fullscreenenter"",""5"",""19161""
","
","
","""event"",""trial"",""time""
""fullscreenenter"",""5"",""19161""
","
",NA,NA,NA,NA,NA,NA,NA,NA,NA,NA,NA,NA,NA,NA,NA,NA,NA,NA,NA,NA,NA,NA,sub43
d3-instructions,32,218466,0.0-32.0,FALSE,FALSE,FALSE,FALSE,"""event"",""trial"",""time""
""fullscreenenter"",""5"",""19161""
","
","
","""event"",""trial"",""time""
""fullscreenenter"",""5"",""19161""
","
",NA,NA,NA,NA,NA,NA,NA,NA,NA,NA,NA,NA,NA,NA,NA,NA,NA,NA,NA,NA,NA,NA,sub43
d3-instructions,33,229137,0.0-33.0,FALSE,FALSE,FALSE,FALSE,"""event"",""trial"",""time""
""fullscreenenter"",""5"",""19161""
","
","
","""event"",""trial"",""time""
""fullscreenenter"",""5"",""19161""
","
",NA,NA,NA,NA,NA,NA,NA,NA,NA,NA,NA,NA,NA,NA,NA,NA,NA,NA,NA,NA,NA,NA,sub43
d3-animate-choice,34,232741,0.0-34.0,FALSE,FALSE,FALSE,FALSE,"""event"",""trial"",""time""
""fullscreenenter"",""5"",""19161""
","
","
","""event"",""trial"",""time""
""fullscreenenter"",""5"",""19161""
","
",1595.1799999456853,NA,48,NA,NA,3000,1,3294.3450000020675,48,images/tutgreenplanet.jpg,images/tutalien1,images/tutalien2,null,images/tutalien1,images/nothing.png,NA,practice,null,NA,NA,NA,NA,sub43
d3-animate-choice,35,235657,0.0-35.0,FALSE,FALSE,FALSE,FALSE,"""event"",""trial"",""time""
""fullscreenenter"",""5"",""19161""
","
","
","""event"",""trial"",""time""
""fullscreenenter"",""5"",""19161""
","
",910.4599999845959,NA,48,NA,NA,3000,1,2800.7199999992736,48,images/tutgreenplanet.jpg,images/tutalien1,images/tutalien2,null,images/tutalien1,images/nothing.png,NA,practice,null,NA,NA,NA,NA,sub43
d3-animate-choice,36,238274,0.0-36.0,FALSE,FALSE,FALSE,FALSE,"""event"",""trial"",""time""
""fullscreenenter"",""5"",""19161""
","
","
","""event"",""trial"",""time""
""fullscreenenter"",""5"",""19161""
","
",610.3199999779463,NA,48,NA,NA,3000,1,2286.915000004228,48,images/tutgreenplanet.jpg,images/tutalien1,images/tutalien2,null,images/tutalien1,images/nothing.png,NA,practice,null,NA,NA,NA,NA,sub43
d3-animate-choice,37,240698,0.0-37.0,FALSE,FALSE,FALSE,FALSE,"""event"",""trial"",""time""
""fullscreenenter"",""5"",""19161""
","
","
","""event"",""trial"",""time""
""fullscreenenter"",""5"",""19161""
","
",418.99999999441206,NA,48,NA,NA,3000,1,2327.159999986179,49,images/tutgreenplanet.jpg,images/tutalien1,images/tutalien2,null,images/tutalien1,images/nothing.png,NA,practice,null,NA,NA,NA,NA,sub43
d3-animate-choice,38,243165,0.0-38.0,FALSE,FALSE,FALSE,FALSE,"""event"",""trial"",""time""
""fullscreenenter"",""5"",""19161""
","
","
","""event"",""trial"",""time""
""fullscreenenter"",""5"",""19161""
","
",460.9249999630265,NA,49,NA,NA,3000,1,1907.3849999695085,49,images/tutgreenplanet.jpg,images/tutalien1,images/tutalien2,null,images/tutalien2,images/t.png,NA,practice,null,NA,NA,NA,NA,sub43
d3-animate-choice,39,245636,0.0-39.0,FALSE,FALSE,FALSE,FALSE,"""event"",""trial"",""time""
""fullscreenenter"",""5"",""19161""
","
","
","""event"",""trial"",""time""
""fullscreenenter"",""5"",""19161""
","
",464.2599999788217,NA,49,NA,NA,3000,1,1969.4850000087172,49,images/tutgreenplanet.jpg,images/tutalien1,images/tutalien2,null,images/tutalien2,images/nothing.png,NA,practice,null,NA,NA,NA,NA,sub43
d3-animate-choice,40,248240,0.0-40.0,FALSE,FALSE,FALSE,FALSE,"""event"",""trial"",""time""
""fullscreenenter"",""5"",""19161""
","
","
","""event"",""trial"",""time""
""fullscreenenter"",""5"",""19161""
","
",599.0100000053644,NA,49,NA,NA,3000,1,NA,NA,images/tutgreenplanet.jpg,images/tutalien1,images/tutalien2,null,images/tutalien2,images/t.png,NA,practice,null,NA,NA,NA,NA,sub43
d3-animate-choice,41,250544,0.0-41.0,FALSE,FALSE,FALSE,FALSE,"""event"",""trial"",""time""
""fullscreenenter"",""5"",""19161""
","
","
","""event"",""trial"",""time""
""fullscreenenter"",""5"",""19161""
","
",297.90499998489395,NA,49,NA,NA,3000,1,2030.0799999968149,49,images/tutgreenplanet.jpg,images/tutalien1,images/tutalien2,null,images/tutalien2,images/nothing.png,NA,practice,null,NA,NA,NA,NA,sub43
d3-animate-choice,42,252851,0.0-42.0,FALSE,FALSE,FALSE,FALSE,"""event"",""trial"",""time""
""fullscreenenter"",""5"",""19161""
","
","
","""event"",""trial"",""time""
""fullscreenenter"",""5"",""19161""
","
",301.4700000057928,NA,49,NA,NA,3000,1,NA,NA,images/tutgreenplanet.jpg,images/tutalien1,images/tutalien2,null,images/tutalien2,images/t.png,NA,practice,null,NA,NA,NA,NA,sub43
d3-animate-choice,43,255123,0.0-43.0,FALSE,FALSE,FALSE,FALSE,"""event"",""trial"",""time""
""fullscreenenter"",""5"",""19161""
","
","
","""event"",""trial"",""time""
""fullscreenenter"",""5"",""19161""
","
",266.43000001786277,NA,49,NA,NA,3000,1,NA,NA,images/tutgreenplanet.jpg,images/tutalien1,images/tutalien2,null,images/tutalien2,images/t.png,NA,practice,null,NA,NA,NA,NA,sub43
d3-instructions,44,268226,0.0-44.0,FALSE,FALSE,FALSE,FALSE,"""event"",""trial"",""time""
""fullscreenenter"",""5"",""19161""
","
","
","""event"",""trial"",""time""
""fullscreenenter"",""5"",""19161""
","
",NA,NA,NA,NA,NA,NA,NA,NA,NA,NA,NA,NA,NA,NA,NA,NA,NA,NA,NA,NA,NA,NA,sub43
d3-instructions,45,275868,0.0-45.0,FALSE,FALSE,FALSE,FALSE,"""event"",""trial"",""time""
""fullscreenenter"",""5"",""19161""
","
","
","""event"",""trial"",""time""
""fullscreenenter"",""5"",""19161""
","
",NA,NA,NA,NA,NA,NA,NA,NA,NA,NA,NA,NA,NA,NA,NA,NA,NA,NA,NA,NA,NA,NA,sub43
d3-instructions,46,281476,0.0-46.0,FALSE,FALSE,FALSE,FALSE,"""event"",""trial"",""time""
""fullscreenenter"",""5"",""19161""
","
","
","""event"",""trial"",""time""
""fullscreenenter"",""5"",""19161""
","
",NA,NA,NA,NA,NA,NA,NA,NA,NA,NA,NA,NA,NA,NA,NA,NA,NA,NA,NA,NA,NA,NA,sub43
d3-instructions,47,298242,0.0-47.0,FALSE,FALSE,FALSE,FALSE,"""event"",""trial"",""time""
""fullscreenenter"",""5"",""19161""
","
","
","""event"",""trial"",""time""
""fullscreenenter"",""5"",""19161""
","
",NA,NA,NA,NA,NA,NA,NA,NA,NA,NA,NA,NA,NA,NA,NA,NA,NA,NA,NA,NA,NA,NA,sub43
d3-instructions,48,304950,0.0-48.0,FALSE,FALSE,FALSE,FALSE,"""event"",""trial"",""time""
""fullscreenenter"",""5"",""19161""
","
","
","""event"",""trial"",""time""
""fullscreenenter"",""5"",""19161""
","
",NA,NA,NA,NA,NA,NA,NA,NA,NA,NA,NA,NA,NA,NA,NA,NA,NA,NA,NA,NA,NA,NA,sub43
d3-instructions,49,315589,0.0-49.0,FALSE,FALSE,FALSE,FALSE,"""event"",""trial"",""time""
""fullscreenenter"",""5"",""19161""
","
","
","""event"",""trial"",""time""
""fullscreenenter"",""5"",""19161""
","
",NA,NA,NA,NA,NA,NA,NA,NA,NA,NA,NA,NA,NA,NA,NA,NA,NA,NA,NA,NA,NA,NA,sub43
d3-instructions,50,325610,0.0-50.0,FALSE,FALSE,FALSE,FALSE,"""event"",""trial"",""time""
""fullscreenenter"",""5"",""19161""
","
","
","""event"",""trial"",""time""
""fullscreenenter"",""5"",""19161""
","
",NA,NA,NA,NA,NA,NA,NA,NA,NA,NA,NA,NA,NA,NA,NA,NA,NA,NA,NA,NA,NA,NA,sub43
d3-instructions,51,328357,0.0-51.0,FALSE,FALSE,FALSE,FALSE,"""event"",""trial"",""time""
""fullscreenenter"",""5"",""19161""
","
","
","""event"",""trial"",""time""
""fullscreenenter"",""5"",""19161""
","
",NA,NA,NA,NA,NA,NA,NA,NA,NA,NA,NA,NA,NA,NA,NA,NA,NA,NA,NA,NA,NA,NA,sub43
d3-instructions,52,330996,0.0-52.0,FALSE,FALSE,FALSE,FALSE,"""event"",""trial"",""time""
""fullscreenenter"",""5"",""19161""
","
","
","""event"",""trial"",""time""
""fullscreenenter"",""5"",""19161""
","
",NA,NA,NA,NA,NA,NA,NA,NA,NA,NA,NA,NA,NA,NA,NA,NA,NA,NA,NA,NA,NA,NA,sub43
d3-instructions,53,345704,0.0-53.0,FALSE,FALSE,FALSE,FALSE,"""event"",""trial"",""time""
""fullscreenenter"",""5"",""19161""
","
","
","""event"",""trial"",""time""
""fullscreenenter"",""5"",""19161""
","
",NA,NA,NA,NA,NA,NA,NA,NA,NA,NA,NA,NA,NA,NA,NA,NA,NA,NA,NA,NA,NA,NA,sub43
d3-instructions,54,357875,0.0-54.0,FALSE,FALSE,FALSE,FALSE,"""event"",""trial"",""time""
""fullscreenenter"",""5"",""19161""
","
","
","""event"",""trial"",""time""
""fullscreenenter"",""5"",""19161""
","
",NA,NA,NA,NA,NA,NA,NA,NA,NA,NA,NA,NA,NA,NA,NA,NA,NA,NA,NA,NA,NA,NA,sub43
d3-instructions,55,367932,0.0-55.0,FALSE,FALSE,FALSE,FALSE,"""event"",""trial"",""time""
""fullscreenenter"",""5"",""19161""
","
","
","""event"",""trial"",""time""
""fullscreenenter"",""5"",""19161""
","
",NA,NA,NA,NA,NA,NA,NA,NA,NA,NA,NA,NA,NA,NA,NA,NA,NA,NA,NA,NA,NA,NA,sub43
d3-instructions,56,375974,0.0-56.0,FALSE,FALSE,FALSE,FALSE,"""event"",""trial"",""time""
""fullscreenenter"",""5"",""19161""
","
","
","""event"",""trial"",""time""
""fullscreenenter"",""5"",""19161""
","
",NA,NA,NA,NA,NA,NA,NA,NA,NA,NA,NA,NA,NA,NA,NA,NA,NA,NA,NA,NA,NA,NA,sub43
d3-instructions,57,385455,0.0-57.0,FALSE,FALSE,FALSE,FALSE,"""event"",""trial"",""time""
""fullscreenenter"",""5"",""19161""
","
","
","""event"",""trial"",""time""
""fullscreenenter"",""5"",""19161""
","
",NA,NA,NA,NA,NA,NA,NA,NA,NA,NA,NA,NA,NA,NA,NA,NA,NA,NA,NA,NA,NA,NA,sub43
d3-instructions,58,396309,0.0-58.0,FALSE,FALSE,FALSE,FALSE,"""event"",""trial"",""time""
""fullscreenenter"",""5"",""19161""
","
","
","""event"",""trial"",""time""
""fullscreenenter"",""5"",""19161""
","
",NA,NA,NA,NA,NA,NA,NA,NA,NA,NA,NA,NA,NA,NA,NA,NA,NA,NA,NA,NA,NA,NA,sub43
d3-instructions,59,400510,0.0-59.0,FALSE,FALSE,FALSE,FALSE,"""event"",""trial"",""time""
""fullscreenenter"",""5"",""19161""
","
","
","""event"",""trial"",""time""
""fullscreenenter"",""5"",""19161""
","
",NA,NA,NA,NA,NA,NA,NA,NA,NA,NA,NA,NA,NA,NA,NA,NA,NA,NA,NA,NA,NA,NA,sub43
d3-instructions,60,403292,0.0-60.0,FALSE,FALSE,FALSE,FALSE,"""event"",""trial"",""time""
""fullscreenenter"",""5"",""19161""
","
","
","""event"",""trial"",""time""
""fullscreenenter"",""5"",""19161""
","
",NA,NA,NA,NA,NA,NA,NA,NA,NA,NA,NA,NA,NA,NA,NA,NA,NA,NA,NA,NA,NA,NA,sub43
d3-animate-choice,61,406771,0.0-61.0-0.0,FALSE,FALSE,FALSE,FALSE,"""event"",""trial"",""time""
""fullscreenenter"",""5"",""19161""
","
","
","""event"",""trial"",""time""
""fullscreenenter"",""5"",""19161""
","
",1470.1350000104867,NA,49,NA,NA,3000,1,NA,NA,images/earth.jpg,images/tutrocket2,images/tutrocket1,null,images/tutrocket1,NA,1,practice,null,1,NA,NA,NA,sub43
d3-animate-choice,62,410786,0.0-61.0-1.0,FALSE,FALSE,FALSE,FALSE,"""event"",""trial"",""time""
""fullscreenenter"",""5"",""19161""
","
","
","""event"",""trial"",""time""
""fullscreenenter"",""5"",""19161""
","
",2052.0449999603443,NA,48,NA,NA,3000,1,NA,NA,images/tutyellowplanet.jpg,images/tutalien4,images/tutalien3,images/tutrocket1,images/tutalien4,images/t.png,2,practice,true,2,common,1,2020-06-11T19:56:53Z,sub43
two-step-fixation,63,411792,0.0-61.0-2.0,FALSE,FALSE,FALSE,FALSE,"""event"",""trial"",""time""
""fullscreenenter"",""5"",""19161""
","
","
","""event"",""trial"",""time""
""fullscreenenter"",""5"",""19161""
","
",NA,images/earth.jpg,NA,NA,NA,NA,NA,NA,NA,NA,NA,NA,NA,NA,NA,fixation,NA,NA,NA,NA,NA,NA,sub43
d3-animate-choice,64,415517,0.0-61.0-0.1,FALSE,FALSE,FALSE,FALSE,"""event"",""trial"",""time""
""fullscreenenter"",""5"",""19161""
","
","
","""event"",""trial"",""time""
""fullscreenenter"",""5"",""19161""
","
",1718.0800000205636,NA,48,NA,NA,3000,1,NA,NA,images/earth.jpg,images/tutrocket2,images/tutrocket1,null,images/tutrocket2,NA,1,practice,null,2,NA,NA,NA,sub43
d3-animate-choice,65,418708,0.0-61.0-1.1,FALSE,FALSE,FALSE,FALSE,"""event"",""trial"",""time""
""fullscreenenter"",""5"",""19161""
","
","
","""event"",""trial"",""time""
""fullscreenenter"",""5"",""19161""
","
",1183.1550000351854,NA,49,NA,NA,3000,1,NA,NA,images/tutgreenplanet.jpg,images/tutalien2,images/tutalien1,images/tutrocket2,images/tutalien1,images/t.png,2,practice,true,1,common,1,2020-06-11T19:57:01Z,sub43
two-step-fixation,66,419712,0.0-61.0-2.1,FALSE,FALSE,FALSE,FALSE,"""event"",""trial"",""time""
""fullscreenenter"",""5"",""19161""
","
","
","""event"",""trial"",""time""
""fullscreenenter"",""5"",""19161""
","
",NA,images/earth.jpg,NA,NA,NA,NA,NA,NA,NA,NA,NA,NA,NA,NA,NA,fixation,NA,NA,NA,NA,NA,NA,sub43
d3-animate-choice,67,422471,0.0-61.0-0.2,FALSE,FALSE,FALSE,FALSE,"""event"",""trial"",""time""
""fullscreenenter"",""5"",""19161""
","
","
","""event"",""trial"",""time""
""fullscreenenter"",""5"",""19161""
","
",752.6150000048801,NA,48,NA,NA,3000,1,NA,NA,images/earth.jpg,images/tutrocket2,images/tutrocket1,null,images/tutrocket2,NA,1,practice,null,2,NA,NA,NA,sub43
d3-animate-choice,68,424922,0.0-61.0-1.2,FALSE,FALSE,FALSE,FALSE,"""event"",""trial"",""time""
""fullscreenenter"",""5"",""19161""
","
","
","""event"",""trial"",""time""
""fullscreenenter"",""5"",""19161""
","
",444.84000001102686,NA,49,NA,NA,3000,1,NA,NA,images/tutyellowplanet.jpg,images/tutalien4,images/tutalien3,images/tutrocket2,images/tutalien3,images/nothing.png,2,practice,false,1,rare,0,2020-06-11T19:57:08Z,sub43
two-step-fixation,69,425925,0.0-61.0-2.2,FALSE,FALSE,FALSE,FALSE,"""event"",""trial"",""time""
""fullscreenenter"",""5"",""19161""
","
","
","""event"",""trial"",""time""
""fullscreenenter"",""5"",""19161""
","
",NA,images/earth.jpg,NA,NA,NA,NA,NA,NA,NA,NA,NA,NA,NA,NA,NA,fixation,NA,NA,NA,NA,NA,NA,sub43
d3-animate-choice,70,428163,0.0-61.0-0.3,FALSE,FALSE,FALSE,FALSE,"""event"",""trial"",""time""
""fullscreenenter"",""5"",""19161""
","
","
","""event"",""trial"",""time""
""fullscreenenter"",""5"",""19161""
","
",228.28999999910593,NA,49,NA,NA,3000,1,NA,NA,images/earth.jpg,images/tutrocket2,images/tutrocket1,null,images/tutrocket1,NA,1,practice,null,1,NA,NA,NA,sub43
d3-animate-choice,71,430995,0.0-61.0-1.3,FALSE,FALSE,FALSE,FALSE,"""event"",""trial"",""time""
""fullscreenenter"",""5"",""19161""
","
","
","""event"",""trial"",""time""
""fullscreenenter"",""5"",""19161""
","
",823.6150000011548,NA,48,NA,NA,3000,1,NA,NA,images/tutyellowplanet.jpg,images/tutalien4,images/tutalien3,images/tutrocket1,images/tutalien4,images/nothing.png,2,practice,true,2,common,0,2020-06-11T19:57:14Z,sub43
two-step-fixation,72,431998,0.0-61.0-2.3,FALSE,FALSE,FALSE,FALSE,"""event"",""trial"",""time""
""fullscreenenter"",""5"",""19161""
","
","
","""event"",""trial"",""time""
""fullscreenenter"",""5"",""19161""
","
",NA,images/earth.jpg,NA,NA,NA,NA,NA,NA,NA,NA,NA,NA,NA,NA,NA,fixation,NA,NA,NA,NA,NA,NA,sub43
d3-animate-choice,73,434315,0.0-61.0-0.4,FALSE,FALSE,FALSE,FALSE,"""event"",""trial"",""time""
""fullscreenenter"",""5"",""19161""
","
","
","""event"",""trial"",""time""
""fullscreenenter"",""5"",""19161""
","
",309.8549999995157,NA,49,NA,NA,3000,1,NA,NA,images/earth.jpg,images/tutrocket2,images/tutrocket1,null,images/tutrocket1,NA,1,practice,null,1,NA,NA,NA,sub43
d3-animate-choice,74,437266,0.0-61.0-1.4,FALSE,FALSE,FALSE,FALSE,"""event"",""trial"",""time""
""fullscreenenter"",""5"",""19161""
","
","
","""event"",""trial"",""time""
""fullscreenenter"",""5"",""19161""
","
",943.6950000235811,NA,49,NA,NA,3000,1,NA,NA,images/tutgreenplanet.jpg,images/tutalien2,images/tutalien1,images/tutrocket1,images/tutalien1,images/t.png,2,practice,false,1,rare,1,2020-06-11T19:57:20Z,sub43
two-step-fixation,75,438269,0.0-61.0-2.4,FALSE,FALSE,FALSE,FALSE,"""event"",""trial"",""time""
""fullscreenenter"",""5"",""19161""
","
","
","""event"",""trial"",""time""
""fullscreenenter"",""5"",""19161""
","
",NA,images/earth.jpg,NA,NA,NA,NA,NA,NA,NA,NA,NA,NA,NA,NA,NA,fixation,NA,NA,NA,NA,NA,NA,sub43
d3-animate-choice,76,441209,0.0-61.0-0.5,FALSE,FALSE,FALSE,FALSE,"""event"",""trial"",""time""
""fullscreenenter"",""5"",""19161""
","
","
","""event"",""trial"",""time""
""fullscreenenter"",""5"",""19161""
","
",933.0399999744259,NA,49,NA,NA,3000,1,NA,NA,images/earth.jpg,images/tutrocket2,images/tutrocket1,null,images/tutrocket1,NA,1,practice,null,1,NA,NA,NA,sub43
d3-animate-choice,77,443650,0.0-61.0-1.5,FALSE,FALSE,FALSE,FALSE,"""event"",""trial"",""time""
""fullscreenenter"",""5"",""19161""
","
","
","""event"",""trial"",""time""
""fullscreenenter"",""5"",""19161""
","
",434.62000001454726,NA,48,NA,NA,3000,1,NA,NA,images/tutyellowplanet.jpg,images/tutalien4,images/tutalien3,images/tutrocket1,images/tutalien4,images/nothing.png,2,practice,true,2,common,0,2020-06-11T19:57:26Z,sub43
two-step-fixation,78,444653,0.0-61.0-2.5,FALSE,FALSE,FALSE,FALSE,"""event"",""trial"",""time""
""fullscreenenter"",""5"",""19161""
","
","
","""event"",""trial"",""time""
""fullscreenenter"",""5"",""19161""
","
",NA,images/earth.jpg,NA,NA,NA,NA,NA,NA,NA,NA,NA,NA,NA,NA,NA,fixation,NA,NA,NA,NA,NA,NA,sub43
d3-animate-choice,79,446992,0.0-61.0-0.6,FALSE,FALSE,FALSE,FALSE,"""event"",""trial"",""time""
""fullscreenenter"",""5"",""19161""
","
","
","""event"",""trial"",""time""
""fullscreenenter"",""5"",""19161""
","
",332.24000001791865,NA,48,NA,NA,3000,1,NA,NA,images/earth.jpg,images/tutrocket2,images/tutrocket1,null,images/tutrocket2,NA,1,practice,null,2,NA,NA,NA,sub43
d3-animate-choice,80,449991,0.0-61.0-1.6,FALSE,FALSE,FALSE,FALSE,"""event"",""trial"",""time""
""fullscreenenter"",""5"",""19161""
","
","
","""event"",""trial"",""time""
""fullscreenenter"",""5"",""19161""
","
",993.1199999991804,NA,48,NA,NA,3000,1,NA,NA,images/tutyellowplanet.jpg,images/tutalien4,images/tutalien3,images/tutrocket2,images/tutalien4,images/t.png,2,practice,false,2,rare,1,2020-06-11T19:57:33Z,sub43
two-step-fixation,81,450993,0.0-61.0-2.6,FALSE,FALSE,FALSE,FALSE,"""event"",""trial"",""time""
""fullscreenenter"",""5"",""19161""
","
","
","""event"",""trial"",""time""
""fullscreenenter"",""5"",""19161""
","
",NA,images/earth.jpg,NA,NA,NA,NA,NA,NA,NA,NA,NA,NA,NA,NA,NA,fixation,NA,NA,NA,NA,NA,NA,sub43
d3-animate-choice,82,453415,0.0-61.0-0.7,FALSE,FALSE,FALSE,FALSE,"""event"",""trial"",""time""
""fullscreenenter"",""5"",""19161""
","
","
","""event"",""trial"",""time""
""fullscreenenter"",""5"",""19161""
","
",414.9450000259094,NA,49,NA,NA,3000,1,NA,NA,images/earth.jpg,images/tutrocket2,images/tutrocket1,null,images/tutrocket1,NA,1,practice,null,1,NA,NA,NA,sub43
d3-animate-choice,83,456255,0.0-61.0-1.7,FALSE,FALSE,FALSE,FALSE,"""event"",""trial"",""time""
""fullscreenenter"",""5"",""19161""
","
","
","""event"",""trial"",""time""
""fullscreenenter"",""5"",""19161""
","
",834.2450000345707,NA,48,NA,NA,3000,1,NA,NA,images/tutgreenplanet.jpg,images/tutalien2,images/tutalien1,images/tutrocket1,images/tutalien2,images/t.png,2,practice,false,2,rare,1,2020-06-11T19:57:39Z,sub43
two-step-fixation,84,457258,0.0-61.0-2.7,FALSE,FALSE,FALSE,FALSE,"""event"",""trial"",""time""
""fullscreenenter"",""5"",""19161""
","
","
","""event"",""trial"",""time""
""fullscreenenter"",""5"",""19161""
","
",NA,images/earth.jpg,NA,NA,NA,NA,NA,NA,NA,NA,NA,NA,NA,NA,NA,fixation,NA,NA,NA,NA,NA,NA,sub43
d3-animate-choice,85,460113,0.0-61.0-0.8,FALSE,FALSE,FALSE,FALSE,"""event"",""trial"",""time""
""fullscreenenter"",""5"",""19161""
","
","
","""event"",""trial"",""time""
""fullscreenenter"",""5"",""19161""
","
",847.5949999992736,NA,48,NA,NA,3000,1,NA,NA,images/earth.jpg,images/tutrocket2,images/tutrocket1,null,images/tutrocket2,NA,1,practice,null,2,NA,NA,NA,sub43
d3-animate-choice,86,462615,0.0-61.0-1.8,FALSE,FALSE,FALSE,FALSE,"""event"",""trial"",""time""
""fullscreenenter"",""5"",""19161""
","
","
","""event"",""trial"",""time""
""fullscreenenter"",""5"",""19161""
","
",496.47499999264255,NA,48,NA,NA,3000,1,NA,NA,images/tutgreenplanet.jpg,images/tutalien2,images/tutalien1,images/tutrocket2,images/tutalien2,images/t.png,2,practice,true,2,common,1,2020-06-11T19:57:45Z,sub43
two-step-fixation,87,463617,0.0-61.0-2.8,FALSE,FALSE,FALSE,FALSE,"""event"",""trial"",""time""
""fullscreenenter"",""5"",""19161""
","
","
","""event"",""trial"",""time""
""fullscreenenter"",""5"",""19161""
","
",NA,images/earth.jpg,NA,NA,NA,NA,NA,NA,NA,NA,NA,NA,NA,NA,NA,fixation,NA,NA,NA,NA,NA,NA,sub43
d3-animate-choice,88,465904,0.0-61.0-0.9,FALSE,FALSE,FALSE,FALSE,"""event"",""trial"",""time""
""fullscreenenter"",""5"",""19161""
","
","
","""event"",""trial"",""time""
""fullscreenenter"",""5"",""19161""
","
",279.9900000100024,NA,49,NA,NA,3000,1,NA,NA,images/earth.jpg,images/tutrocket2,images/tutrocket1,null,images/tutrocket1,NA,1,practice,null,1,NA,NA,NA,sub43
d3-animate-choice,89,468624,0.0-61.0-1.9,FALSE,FALSE,FALSE,FALSE,"""event"",""trial"",""time""
""fullscreenenter"",""5"",""19161""
","
","
","""event"",""trial"",""time""
""fullscreenenter"",""5"",""19161""
","
",711.3900000113063,NA,48,NA,NA,3000,1,NA,NA,images/tutyellowplanet.jpg,images/tutalien4,images/tutalien3,images/tutrocket1,images/tutalien4,images/t.png,2,practice,true,2,common,1,2020-06-11T19:57:51Z,sub43
two-step-fixation,90,469630,0.0-61.0-2.9,FALSE,FALSE,FALSE,FALSE,"""event"",""trial"",""time""
""fullscreenenter"",""5"",""19161""
","
","
","""event"",""trial"",""time""
""fullscreenenter"",""5"",""19161""
","
",NA,images/earth.jpg,NA,NA,NA,NA,NA,NA,NA,NA,NA,NA,NA,NA,NA,fixation,NA,NA,NA,NA,NA,NA,sub43
d3-animate-choice,91,472063,0.0-61.0-0.10,FALSE,FALSE,FALSE,FALSE,"""event"",""trial"",""time""
""fullscreenenter"",""5"",""19161""
","
","
","""event"",""trial"",""time""
""fullscreenenter"",""5"",""19161""
","
",427.03000002074987,NA,49,NA,NA,3000,1,NA,NA,images/earth.jpg,images/tutrocket2,images/tutrocket1,null,images/tutrocket1,NA,1,practice,null,1,NA,NA,NA,sub43
d3-animate-choice,92,474445,0.0-61.0-1.10,FALSE,FALSE,FALSE,FALSE,"""event"",""trial"",""time""
""fullscreenenter"",""5"",""19161""
","
","
","""event"",""trial"",""time""
""fullscreenenter"",""5"",""19161""
","
",376.4300000038929,NA,49,NA,NA,3000,1,NA,NA,images/tutyellowplanet.jpg,images/tutalien4,images/tutalien3,images/tutrocket1,images/tutalien3,images/t.png,2,practice,true,1,common,1,2020-06-11T19:57:57Z,sub43
two-step-fixation,93,475449,0.0-61.0-2.10,FALSE,FALSE,FALSE,FALSE,"""event"",""trial"",""time""
""fullscreenenter"",""5"",""19161""
","
","
","""event"",""trial"",""time""
""fullscreenenter"",""5"",""19161""
","
",NA,images/earth.jpg,NA,NA,NA,NA,NA,NA,NA,NA,NA,NA,NA,NA,NA,fixation,NA,NA,NA,NA,NA,NA,sub43
d3-animate-choice,94,478001,0.0-61.0-0.11,FALSE,FALSE,FALSE,FALSE,"""event"",""trial"",""time""
""fullscreenenter"",""5"",""19161""
","
","
","""event"",""trial"",""time""
""fullscreenenter"",""5"",""19161""
","
",544.0150000504218,NA,48,NA,NA,3000,1,NA,NA,images/earth.jpg,images/tutrocket2,images/tutrocket1,null,images/tutrocket2,NA,1,practice,null,2,NA,NA,NA,sub43
d3-animate-choice,95,480624,0.0-61.0-1.11,FALSE,FALSE,FALSE,FALSE,"""event"",""trial"",""time""
""fullscreenenter"",""5"",""19161""
","
","
","""event"",""trial"",""time""
""fullscreenenter"",""5"",""19161""
","
",616.8300000135787,NA,49,NA,NA,3000,1,NA,NA,images/tutyellowplanet.jpg,images/tutalien4,images/tutalien3,images/tutrocket2,images/tutalien3,images/nothing.png,2,practice,false,1,rare,0,2020-06-11T19:58:03Z,sub43
two-step-fixation,96,481627,0.0-61.0-2.11,FALSE,FALSE,FALSE,FALSE,"""event"",""trial"",""time""
""fullscreenenter"",""5"",""19161""
","
","
","""event"",""trial"",""time""
""fullscreenenter"",""5"",""19161""
","
",NA,images/earth.jpg,NA,NA,NA,NA,NA,NA,NA,NA,NA,NA,NA,NA,NA,fixation,NA,NA,NA,NA,NA,NA,sub43
d3-animate-choice,97,484497,0.0-61.0-0.12,FALSE,FALSE,FALSE,FALSE,"""event"",""trial"",""time""
""fullscreenenter"",""5"",""19161""
","
","
","""event"",""trial"",""time""
""fullscreenenter"",""5"",""19161""
","
",863.5749999666587,NA,48,NA,NA,3000,1,NA,NA,images/earth.jpg,images/tutrocket2,images/tutrocket1,null,images/tutrocket2,NA,1,practice,null,2,NA,NA,NA,sub43
d3-animate-choice,98,487207,0.0-61.0-1.12,FALSE,FALSE,FALSE,FALSE,"""event"",""trial"",""time""
""fullscreenenter"",""5"",""19161""
","
","
","""event"",""trial"",""time""
""fullscreenenter"",""5"",""19161""
","
",703.2999999937601,NA,49,NA,NA,3000,1,NA,NA,images/tutyellowplanet.jpg,images/tutalien4,images/tutalien3,images/tutrocket2,images/tutalien3,images/t.png,2,practice,false,1,rare,1,2020-06-11T19:58:10Z,sub43
two-step-fixation,99,488209,0.0-61.0-2.12,FALSE,FALSE,FALSE,FALSE,"""event"",""trial"",""time""
""fullscreenenter"",""5"",""19161""
","
","
","""event"",""trial"",""time""
""fullscreenenter"",""5"",""19161""
","
",NA,images/earth.jpg,NA,NA,NA,NA,NA,NA,NA,NA,NA,NA,NA,NA,NA,fixation,NA,NA,NA,NA,NA,NA,sub43
d3-animate-choice,100,491106,0.0-61.0-0.13,FALSE,FALSE,FALSE,FALSE,"""event"",""trial"",""time""
""fullscreenenter"",""5"",""19161""
","
","
","""event"",""trial"",""time""
""fullscreenenter"",""5"",""19161""
","
",888.9999999664724,NA,49,NA,NA,3000,1,NA,NA,images/earth.jpg,images/tutrocket2,images/tutrocket1,null,images/tutrocket1,NA,1,practice,null,1,NA,NA,NA,sub43
d3-animate-choice,101,493550,0.0-61.0-1.13,FALSE,FALSE,FALSE,FALSE,"""event"",""trial"",""time""
""fullscreenenter"",""5"",""19161""
","
","
","""event"",""trial"",""time""
""fullscreenenter"",""5"",""19161""
","
",436.2599999876693,NA,48,NA,NA,3000,1,NA,NA,images/tutgreenplanet.jpg,images/tutalien2,images/tutalien1,images/tutrocket1,images/tutalien2,images/t.png,2,practice,false,2,rare,1,2020-06-11T19:58:16Z,sub43
two-step-fixation,102,494553,0.0-61.0-2.13,FALSE,FALSE,FALSE,FALSE,"""event"",""trial"",""time""
""fullscreenenter"",""5"",""19161""
","
","
","""event"",""trial"",""time""
""fullscreenenter"",""5"",""19161""
","
",NA,images/earth.jpg,NA,NA,NA,NA,NA,NA,NA,NA,NA,NA,NA,NA,NA,fixation,NA,NA,NA,NA,NA,NA,sub43
d3-animate-choice,103,496860,0.0-61.0-0.14,FALSE,FALSE,FALSE,FALSE,"""event"",""trial"",""time""
""fullscreenenter"",""5"",""19161""
","
","
","""event"",""trial"",""time""
""fullscreenenter"",""5"",""19161""
","
",299.34000002685934,NA,49,NA,NA,3000,1,NA,NA,images/earth.jpg,images/tutrocket2,images/tutrocket1,null,images/tutrocket1,NA,1,practice,null,1,NA,NA,NA,sub43
d3-animate-choice,104,499255,0.0-61.0-1.14,FALSE,FALSE,FALSE,FALSE,"""event"",""trial"",""time""
""fullscreenenter"",""5"",""19161""
","
","
","""event"",""trial"",""time""
""fullscreenenter"",""5"",""19161""
","
",388.8600000063889,NA,49,NA,NA,3000,1,NA,NA,images/tutyellowplanet.jpg,images/tutalien4,images/tutalien3,images/tutrocket1,images/tutalien3,images/nothing.png,2,practice,true,1,common,0,2020-06-11T19:58:22Z,sub43
two-step-fixation,105,500258,0.0-61.0-2.14,FALSE,FALSE,FALSE,FALSE,"""event"",""trial"",""time""
""fullscreenenter"",""5"",""19161""
","
","
","""event"",""trial"",""time""
""fullscreenenter"",""5"",""19161""
","
",NA,images/earth.jpg,NA,NA,NA,NA,NA,NA,NA,NA,NA,NA,NA,NA,NA,fixation,NA,NA,NA,NA,NA,NA,sub43
d3-animate-choice,106,502644,0.0-61.0-0.15,FALSE,FALSE,FALSE,FALSE,"""event"",""trial"",""time""
""fullscreenenter"",""5"",""19161""
","
","
","""event"",""trial"",""time""
""fullscreenenter"",""5"",""19161""
","
",380.69499999983236,NA,48,NA,NA,3000,1,NA,NA,images/earth.jpg,images/tutrocket2,images/tutrocket1,null,images/tutrocket2,NA,1,practice,null,2,NA,NA,NA,sub43
d3-animate-choice,107,505137,0.0-61.0-1.15,FALSE,FALSE,FALSE,FALSE,"""event"",""trial"",""time""
""fullscreenenter"",""5"",""19161""
","
","
","""event"",""trial"",""time""
""fullscreenenter"",""5"",""19161""
","
",486.58500000601634,NA,48,NA,NA,3000,1,NA,NA,images/tutgreenplanet.jpg,images/tutalien2,images/tutalien1,images/tutrocket2,images/tutalien2,images/nothing.png,2,practice,true,2,common,0,2020-06-11T19:58:28Z,sub43
two-step-fixation,108,506140,0.0-61.0-2.15,FALSE,FALSE,FALSE,FALSE,"""event"",""trial"",""time""
""fullscreenenter"",""5"",""19161""
","
","
","""event"",""trial"",""time""
""fullscreenenter"",""5"",""19161""
","
",NA,images/earth.jpg,NA,NA,NA,NA,NA,NA,NA,NA,NA,NA,NA,NA,NA,fixation,NA,NA,NA,NA,NA,NA,sub43
d3-animate-choice,109,508630,0.0-61.0-0.16,FALSE,FALSE,FALSE,FALSE,"""event"",""trial"",""time""
""fullscreenenter"",""5"",""19161""
","
","
","""event"",""trial"",""time""
""fullscreenenter"",""5"",""19161""
","
",483.73500001616776,NA,49,NA,NA,3000,1,NA,NA,images/earth.jpg,images/tutrocket2,images/tutrocket1,null,images/tutrocket1,NA,1,practice,null,1,NA,NA,NA,sub43
d3-animate-choice,110,511141,0.0-61.0-1.16,FALSE,FALSE,FALSE,FALSE,"""event"",""trial"",""time""
""fullscreenenter"",""5"",""19161""
","
","
","""event"",""trial"",""time""
""fullscreenenter"",""5"",""19161""
","
",504.39499999629334,NA,48,NA,NA,3000,1,NA,NA,images/tutgreenplanet.jpg,images/tutalien2,images/tutalien1,images/tutrocket1,images/tutalien2,images/nothing.png,2,practice,false,2,rare,0,2020-06-11T19:58:34Z,sub43
two-step-fixation,111,512144,0.0-61.0-2.16,FALSE,FALSE,FALSE,FALSE,"""event"",""trial"",""time""
""fullscreenenter"",""5"",""19161""
","
","
","""event"",""trial"",""time""
""fullscreenenter"",""5"",""19161""
","
",NA,images/earth.jpg,NA,NA,NA,NA,NA,NA,NA,NA,NA,NA,NA,NA,NA,fixation,NA,NA,NA,NA,NA,NA,sub43
d3-animate-choice,112,514444,0.0-61.0-0.17,FALSE,FALSE,FALSE,FALSE,"""event"",""trial"",""time""
""fullscreenenter"",""5"",""19161""
","
","
","""event"",""trial"",""time""
""fullscreenenter"",""5"",""19161""
","
",293.6300000292249,NA,49,NA,NA,3000,1,NA,NA,images/earth.jpg,images/tutrocket2,images/tutrocket1,null,images/tutrocket1,NA,1,practice,null,1,NA,NA,NA,sub43
d3-animate-choice,113,517524,0.0-61.0-1.17,FALSE,FALSE,FALSE,FALSE,"""event"",""trial"",""time""
""fullscreenenter"",""5"",""19161""
","
","
","""event"",""trial"",""time""
""fullscreenenter"",""5"",""19161""
","
",1071.1650000303052,NA,48,NA,NA,3000,1,NA,NA,images/tutyellowplanet.jpg,images/tutalien4,images/tutalien3,images/tutrocket1,images/tutalien4,images/nothing.png,2,practice,true,2,common,0,2020-06-11T19:58:40Z,sub43
two-step-fixation,114,518526,0.0-61.0-2.17,FALSE,FALSE,FALSE,FALSE,"""event"",""trial"",""time""
""fullscreenenter"",""5"",""19161""
","
","
","""event"",""trial"",""time""
""fullscreenenter"",""5"",""19161""
","
",NA,images/earth.jpg,NA,NA,NA,NA,NA,NA,NA,NA,NA,NA,NA,NA,NA,fixation,NA,NA,NA,NA,NA,NA,sub43
d3-animate-choice,115,520610,0.0-61.0-0.18,FALSE,FALSE,FALSE,FALSE,"""event"",""trial"",""time""
""fullscreenenter"",""5"",""19161""
","
","
","""event"",""trial"",""time""
""fullscreenenter"",""5"",""19161""
","
",76.60499995108694,NA,48,NA,NA,3000,1,NA,NA,images/earth.jpg,images/tutrocket2,images/tutrocket1,null,images/tutrocket2,NA,1,practice,null,2,NA,NA,NA,sub43
d3-animate-choice,116,523040,0.0-61.0-1.18,FALSE,FALSE,FALSE,FALSE,"""event"",""trial"",""time""
""fullscreenenter"",""5"",""19161""
","
","
","""event"",""trial"",""time""
""fullscreenenter"",""5"",""19161""
","
",423.95000002579764,NA,49,NA,NA,3000,1,NA,NA,images/tutgreenplanet.jpg,images/tutalien2,images/tutalien1,images/tutrocket2,images/tutalien1,images/nothing.png,2,practice,true,1,common,0,2020-06-11T19:58:46Z,sub43
two-step-fixation,117,524043,0.0-61.0-2.18,FALSE,FALSE,FALSE,FALSE,"""event"",""trial"",""time""
""fullscreenenter"",""5"",""19161""
","
","
","""event"",""trial"",""time""
""fullscreenenter"",""5"",""19161""
","
",NA,images/earth.jpg,NA,NA,NA,NA,NA,NA,NA,NA,NA,NA,NA,NA,NA,fixation,NA,NA,NA,NA,NA,NA,sub43
d3-animate-choice,118,526259,0.0-61.0-0.19,FALSE,FALSE,FALSE,FALSE,"""event"",""trial"",""time""
""fullscreenenter"",""5"",""19161""
","
","
","""event"",""trial"",""time""
""fullscreenenter"",""5"",""19161""
","
",210.07500000996515,NA,49,NA,NA,3000,1,NA,NA,images/earth.jpg,images/tutrocket2,images/tutrocket1,null,images/tutrocket1,NA,1,practice,null,1,NA,NA,NA,sub43
d3-animate-choice,119,528505,0.0-61.0-1.19,FALSE,FALSE,FALSE,FALSE,"""event"",""trial"",""time""
""fullscreenenter"",""5"",""19161""
","
","
","""event"",""trial"",""time""
""fullscreenenter"",""5"",""19161""
","
",240.28000002726912,NA,48,NA,NA,3000,1,NA,NA,images/tutgreenplanet.jpg,images/tutalien2,images/tutalien1,images/tutrocket1,images/tutalien2,images/t.png,2,practice,false,2,rare,1,2020-06-11T19:58:51Z,sub43
two-step-fixation,120,529507,0.0-61.0-2.19,FALSE,FALSE,FALSE,FALSE,"""event"",""trial"",""time""
""fullscreenenter"",""5"",""19161""
","
","
","""event"",""trial"",""time""
""fullscreenenter"",""5"",""19161""
","
",NA,images/earth.jpg,NA,NA,NA,NA,NA,NA,NA,NA,NA,NA,NA,NA,NA,fixation,NA,NA,NA,NA,NA,NA,sub43
d3-instructions,121,534158,0.0-62.0,FALSE,FALSE,FALSE,FALSE,"""event"",""trial"",""time""
""fullscreenenter"",""5"",""19161""
","
","
","""event"",""trial"",""time""
""fullscreenenter"",""5"",""19161""
","
",NA,NA,NA,NA,NA,NA,NA,NA,NA,NA,NA,NA,NA,NA,NA,NA,NA,NA,NA,NA,NA,NA,sub43
audio-keyboard-response,122,538108,0.0-63.0,FALSE,FALSE,FALSE,FALSE,"""event"",""trial"",""time""
""fullscreenenter"",""5"",""19161""
","
","
","""event"",""trial"",""time""
""fullscreenenter"",""5"",""19161""
","
",3947,audio/instructions/treasure_feedback.wav,32,NA,NA,NA,NA,NA,NA,NA,NA,NA,NA,NA,NA,NA,NA,NA,NA,NA,NA,NA,sub43
d3-instructions,123,552695,0.0-64.0,FALSE,FALSE,FALSE,FALSE,"""event"",""trial"",""time""
""fullscreenenter"",""5"",""19161""
","
","
","""event"",""trial"",""time""
""fullscreenenter"",""5"",""19161""
","
",NA,NA,NA,NA,NA,NA,NA,NA,NA,NA,NA,NA,NA,NA,NA,NA,NA,NA,NA,NA,NA,NA,sub43
d3-instructions,124,568982,0.0-65.0,FALSE,FALSE,FALSE,FALSE,"""event"",""trial"",""time""
""fullscreenenter"",""5"",""19161""
","
","
","""event"",""trial"",""time""
""fullscreenenter"",""5"",""19161""
","
",NA,NA,NA,NA,NA,NA,NA,NA,NA,NA,NA,NA,NA,NA,NA,NA,NA,NA,NA,NA,NA,NA,sub43
d3-instructions,125,592945,0.0-66.0,FALSE,FALSE,FALSE,FALSE,"""event"",""trial"",""time""
""fullscreenenter"",""5"",""19161""
","
","
","""event"",""trial"",""time""
""fullscreenenter"",""5"",""19161""
","
",NA,NA,NA,NA,NA,NA,NA,NA,NA,NA,NA,NA,NA,NA,NA,NA,NA,NA,NA,NA,NA,NA,sub43
d3-instructions,126,607861,0.0-67.0,FALSE,FALSE,FALSE,FALSE,"""event"",""trial"",""time""
""fullscreenenter"",""5"",""19161""
","
","
","""event"",""trial"",""time""
""fullscreenenter"",""5"",""19161""
","
",NA,NA,NA,NA,NA,NA,NA,NA,NA,NA,NA,NA,NA,NA,NA,NA,NA,NA,NA,NA,NA,NA,sub43
d3-instructions,127,612460,0.0-68.0,FALSE,FALSE,FALSE,FALSE,"""event"",""trial"",""time""
""fullscreenenter"",""5"",""19161""
","
","
","""event"",""trial"",""time""
""fullscreenenter"",""5"",""19161""
","
",NA,NA,NA,NA,NA,NA,NA,NA,NA,NA,NA,NA,NA,NA,NA,NA,NA,NA,NA,NA,NA,NA,sub43
instructions-quiz,128,615817,0.0-69.0,FALSE,FALSE,FALSE,FALSE,"""event"",""trial"",""time""
""fullscreenenter"",""5"",""19161""
","
","
","""event"",""trial"",""time""
""fullscreenenter"",""5"",""19161""
","
",3353.5050000064075,audio/quiz/Q1_Prompt.wav,NA,1,NA,NA,NA,NA,NA,NA,NA,NA,NA,NA,NA,NA,NA,NA,NA,NA,NA,NA,sub43
audio-keyboard-response,129,624989,0.0-70.0,FALSE,FALSE,FALSE,FALSE,"""event"",""trial"",""time""
""fullscreenenter"",""5"",""19161""
","
","
","""event"",""trial"",""time""
""fullscreenenter"",""5"",""19161""
","
",null,audio/quiz/Q1_Correct.wav,null,NA,NA,NA,NA,NA,NA,NA,NA,NA,NA,NA,NA,NA,NA,NA,NA,NA,NA,NA,sub43
instructions-quiz,130,633443,0.0-71.0,FALSE,FALSE,FALSE,FALSE,"""event"",""trial"",""time""
""fullscreenenter"",""5"",""19161""
","
","
","""event"",""trial"",""time""
""fullscreenenter"",""5"",""19161""
","
",8451.520000002347,audio/quiz/Q2_Prompt.wav,NA,0,NA,NA,NA,NA,NA,NA,NA,NA,NA,NA,NA,NA,NA,NA,NA,NA,NA,NA,sub43
audio-keyboard-response,131,646313,0.0-72.0,FALSE,FALSE,FALSE,FALSE,"""event"",""trial"",""time""
""fullscreenenter"",""5"",""19161""
","
","
","""event"",""trial"",""time""
""fullscreenenter"",""5"",""19161""
","
",null,audio/quiz/Q2_Correct.wav,null,NA,NA,NA,NA,NA,NA,NA,NA,NA,NA,NA,NA,NA,NA,NA,NA,NA,NA,NA,sub43
instructions-quiz,132,650192,0.0-73.0,FALSE,FALSE,FALSE,FALSE,"""event"",""trial"",""time""
""fullscreenenter"",""5"",""19161""
","
","
","""event"",""trial"",""time""
""fullscreenenter"",""5"",""19161""
","
",3875.2049999893643,audio/quiz/Q3_Prompt.wav,NA,1,NA,NA,NA,NA,NA,NA,NA,NA,NA,NA,NA,NA,NA,NA,NA,NA,NA,NA,sub43
audio-keyboard-response,133,655997,0.0-74.0,FALSE,FALSE,FALSE,FALSE,"""event"",""trial"",""time""
""fullscreenenter"",""5"",""19161""
","
","
","""event"",""trial"",""time""
""fullscreenenter"",""5"",""19161""
","
",null,audio/quiz/Q3_Correct.wav,null,NA,NA,NA,NA,NA,NA,NA,NA,NA,NA,NA,NA,NA,NA,NA,NA,NA,NA,NA,sub43
d3-instructions,134,666813,0.0-75.0,FALSE,FALSE,FALSE,FALSE,"""event"",""trial"",""time""
""fullscreenenter"",""5"",""19161""
","
","
","""event"",""trial"",""time""
""fullscreenenter"",""5"",""19161""
","
",NA,NA,NA,NA,NA,NA,NA,NA,NA,NA,NA,NA,NA,NA,NA,NA,NA,NA,NA,NA,NA,NA,sub43
d3-animate-choice,135,670822,0.0-76.0-0.0,FALSE,FALSE,FALSE,FALSE,"""event"",""trial"",""time""
""fullscreenenter"",""5"",""19161""
","
","
","""event"",""trial"",""time""
""fullscreenenter"",""5"",""19161""
","
",2057.9949999810196,NA,48,NA,NA,3000,1,NA,NA,images/earth.jpg,images/rocket1,images/rocket2,null,images/rocket1,NA,1,real,null,2,NA,NA,NA,sub43
d3-animate-choice,136,673525,0.0-76.0-1.0,FALSE,FALSE,FALSE,FALSE,"""event"",""trial"",""time""
""fullscreenenter"",""5"",""19161""
","
","
","""event"",""trial"",""time""
""fullscreenenter"",""5"",""19161""
","
",694.8049999773502,NA,49,NA,NA,3000,1,NA,NA,images/purpleplanet.jpg,images/alien4,images/alien3,images/rocket1,images/alien3,images/nothing.png,2,real,true,1,common,0,2020-06-11T20:01:16Z,sub43
two-step-fixation,137,674528,0.0-76.0-2.0,FALSE,FALSE,FALSE,FALSE,"""event"",""trial"",""time""
""fullscreenenter"",""5"",""19161""
","
","
","""event"",""trial"",""time""
""fullscreenenter"",""5"",""19161""
","
",NA,images/earth.jpg,NA,NA,NA,NA,NA,NA,NA,NA,NA,NA,NA,NA,NA,fixation,NA,NA,NA,NA,NA,NA,sub43
d3-animate-choice,138,676819,0.0-76.0-0.1,FALSE,FALSE,FALSE,FALSE,"""event"",""trial"",""time""
""fullscreenenter"",""5"",""19161""
","
","
","""event"",""trial"",""time""
""fullscreenenter"",""5"",""19161""
","
",284.64000002713874,NA,49,NA,NA,3000,1,NA,NA,images/earth.jpg,images/rocket1,images/rocket2,null,images/rocket2,NA,1,real,null,1,NA,NA,NA,sub43
d3-animate-choice,139,679258,0.0-76.0-1.1,FALSE,FALSE,FALSE,FALSE,"""event"",""trial"",""time""
""fullscreenenter"",""5"",""19161""
","
","
","""event"",""trial"",""time""
""fullscreenenter"",""5"",""19161""
","
",432.9550000256859,NA,49,NA,NA,3000,1,NA,NA,images/redplanet1.jpg,images/alien2,images/alien1,images/rocket2,images/alien1,images/t.png,2,real,true,1,common,1,2020-06-11T20:01:22Z,sub43
two-step-fixation,140,680261,0.0-76.0-2.1,FALSE,FALSE,FALSE,FALSE,"""event"",""trial"",""time""
""fullscreenenter"",""5"",""19161""
","
","
","""event"",""trial"",""time""
""fullscreenenter"",""5"",""19161""
","
",NA,images/earth.jpg,NA,NA,NA,NA,NA,NA,NA,NA,NA,NA,NA,NA,NA,fixation,NA,NA,NA,NA,NA,NA,sub43
d3-animate-choice,141,682758,0.0-76.0-0.2,FALSE,FALSE,FALSE,FALSE,"""event"",""trial"",""time""
""fullscreenenter"",""5"",""19161""
","
","
","""event"",""trial"",""time""
""fullscreenenter"",""5"",""19161""
","
",490.4699999606237,NA,48,NA,NA,3000,1,NA,NA,images/earth.jpg,images/rocket1,images/rocket2,null,images/rocket1,NA,1,real,null,2,NA,NA,NA,sub43
d3-animate-choice,142,685970,0.0-76.0-1.2,FALSE,FALSE,FALSE,FALSE,"""event"",""trial"",""time""
""fullscreenenter"",""5"",""19161""
","
","
","""event"",""trial"",""time""
""fullscreenenter"",""5"",""19161""
","
",1204.3249999987893,NA,49,NA,NA,3000,1,NA,NA,images/purpleplanet.jpg,images/alien4,images/alien3,images/rocket1,images/alien3,images/t.png,2,real,true,1,common,1,2020-06-11T20:01:29Z,sub43
two-step-fixation,143,686973,0.0-76.0-2.2,FALSE,FALSE,FALSE,FALSE,"""event"",""trial"",""time""
""fullscreenenter"",""5"",""19161""
","
","
","""event"",""trial"",""time""
""fullscreenenter"",""5"",""19161""
","
",NA,images/earth.jpg,NA,NA,NA,NA,NA,NA,NA,NA,NA,NA,NA,NA,NA,fixation,NA,NA,NA,NA,NA,NA,sub43
d3-animate-choice,144,689449,0.0-76.0-0.3,FALSE,FALSE,FALSE,FALSE,"""event"",""trial"",""time""
""fullscreenenter"",""5"",""19161""
","
","
","""event"",""trial"",""time""
""fullscreenenter"",""5"",""19161""
","
",468.0800000205636,NA,48,NA,NA,3000,1,NA,NA,images/earth.jpg,images/rocket1,images/rocket2,null,images/rocket1,NA,1,real,null,2,NA,NA,NA,sub43
d3-animate-choice,145,691951,0.0-76.0-1.3,FALSE,FALSE,FALSE,FALSE,"""event"",""trial"",""time""
""fullscreenenter"",""5"",""19161""
","
","
","""event"",""trial"",""time""
""fullscreenenter"",""5"",""19161""
","
",494.0550000173971,NA,49,NA,NA,3000,1,NA,NA,images/purpleplanet.jpg,images/alien4,images/alien3,images/rocket1,images/alien3,images/nothing.png,2,real,true,1,common,0,2020-06-11T20:01:35Z,sub43
two-step-fixation,146,692953,0.0-76.0-2.3,FALSE,FALSE,FALSE,FALSE,"""event"",""trial"",""time""
""fullscreenenter"",""5"",""19161""
","
","
","""event"",""trial"",""time""
""fullscreenenter"",""5"",""19161""
","
",NA,images/earth.jpg,NA,NA,NA,NA,NA,NA,NA,NA,NA,NA,NA,NA,NA,fixation,NA,NA,NA,NA,NA,NA,sub43
d3-animate-choice,147,695633,0.0-76.0-0.4,FALSE,FALSE,FALSE,FALSE,"""event"",""trial"",""time""
""fullscreenenter"",""5"",""19161""
","
","
","""event"",""trial"",""time""
""fullscreenenter"",""5"",""19161""
","
",672.1449999604374,NA,49,NA,NA,3000,1,NA,NA,images/earth.jpg,images/rocket1,images/rocket2,null,images/rocket2,NA,1,real,null,1,NA,NA,NA,sub43
d3-animate-choice,148,698431,0.0-76.0-1.4,FALSE,FALSE,FALSE,FALSE,"""event"",""trial"",""time""
""fullscreenenter"",""5"",""19161""
","
","
","""event"",""trial"",""time""
""fullscreenenter"",""5"",""19161""
","
",790.6550000188872,NA,49,NA,NA,3000,1,NA,NA,images/redplanet1.jpg,images/alien2,images/alien1,images/rocket2,images/alien1,images/nothing.png,2,real,true,1,common,0,2020-06-11T20:01:41Z,sub43
two-step-fixation,149,699434,0.0-76.0-2.4,FALSE,FALSE,FALSE,FALSE,"""event"",""trial"",""time""
""fullscreenenter"",""5"",""19161""
","
","
","""event"",""trial"",""time""
""fullscreenenter"",""5"",""19161""
","
",NA,images/earth.jpg,NA,NA,NA,NA,NA,NA,NA,NA,NA,NA,NA,NA,NA,fixation,NA,NA,NA,NA,NA,NA,sub43
d3-animate-choice,150,701707,0.0-76.0-0.5,FALSE,FALSE,FALSE,FALSE,"""event"",""trial"",""time""
""fullscreenenter"",""5"",""19161""
","
","
","""event"",""trial"",""time""
""fullscreenenter"",""5"",""19161""
","
",265.67499997327104,NA,48,NA,NA,3000,1,NA,NA,images/earth.jpg,images/rocket1,images/rocket2,null,images/rocket1,NA,1,real,null,2,NA,NA,NA,sub43
d3-animate-choice,151,703994,0.0-76.0-1.5,FALSE,FALSE,FALSE,FALSE,"""event"",""trial"",""time""
""fullscreenenter"",""5"",""19161""
","
","
","""event"",""trial"",""time""
""fullscreenenter"",""5"",""19161""
","
",281.09000000404194,NA,48,NA,NA,3000,1,NA,NA,images/purpleplanet.jpg,images/alien4,images/alien3,images/rocket1,images/alien4,images/t.png,2,real,true,2,common,1,2020-06-11T20:01:47Z,sub43
two-step-fixation,152,704997,0.0-76.0-2.5,FALSE,FALSE,FALSE,FALSE,"""event"",""trial"",""time""
""fullscreenenter"",""5"",""19161""
","
","
","""event"",""trial"",""time""
""fullscreenenter"",""5"",""19161""
","
",NA,images/earth.jpg,NA,NA,NA,NA,NA,NA,NA,NA,NA,NA,NA,NA,NA,fixation,NA,NA,NA,NA,NA,NA,sub43
d3-animate-choice,153,707325,0.0-76.0-0.6,FALSE,FALSE,FALSE,FALSE,"""event"",""trial"",""time""
""fullscreenenter"",""5"",""19161""
","
","
","""event"",""trial"",""time""
""fullscreenenter"",""5"",""19161""
","
",320.97000000067055,NA,48,NA,NA,3000,1,NA,NA,images/earth.jpg,images/rocket1,images/rocket2,null,images/rocket1,NA,1,real,null,2,NA,NA,NA,sub43
d3-animate-choice,154,709666,0.0-76.0-1.6,FALSE,FALSE,FALSE,FALSE,"""event"",""trial"",""time""
""fullscreenenter"",""5"",""19161""
","
","
","""event"",""trial"",""time""
""fullscreenenter"",""5"",""19161""
","
",334.1449999716133,NA,48,NA,NA,3000,1,NA,NA,images/purpleplanet.jpg,images/alien4,images/alien3,images/rocket1,images/alien4,images/t.png,2,real,true,2,common,1,2020-06-11T20:01:52Z,sub43
two-step-fixation,155,710671,0.0-76.0-2.6,FALSE,FALSE,FALSE,FALSE,"""event"",""trial"",""time""
""fullscreenenter"",""5"",""19161""
","
","
","""event"",""trial"",""time""
""fullscreenenter"",""5"",""19161""
","
",NA,images/earth.jpg,NA,NA,NA,NA,NA,NA,NA,NA,NA,NA,NA,NA,NA,fixation,NA,NA,NA,NA,NA,NA,sub43
d3-animate-choice,156,712904,0.0-76.0-0.7,FALSE,FALSE,FALSE,FALSE,"""event"",""trial"",""time""
""fullscreenenter"",""5"",""19161""
","
","
","""event"",""trial"",""time""
""fullscreenenter"",""5"",""19161""
","
",225.81999999238178,NA,49,NA,NA,3000,1,NA,NA,images/earth.jpg,images/rocket1,images/rocket2,null,images/rocket2,NA,1,real,null,1,NA,NA,NA,sub43
d3-animate-choice,157,715131,0.0-76.0-1.7,FALSE,FALSE,FALSE,FALSE,"""event"",""trial"",""time""
""fullscreenenter"",""5"",""19161""
","
","
","""event"",""trial"",""time""
""fullscreenenter"",""5"",""19161""
","
",220.2099999994971,NA,48,NA,NA,3000,1,NA,NA,images/purpleplanet.jpg,images/alien4,images/alien3,images/rocket2,images/alien4,images/t.png,2,real,false,2,rare,1,2020-06-11T20:01:58Z,sub43
two-step-fixation,158,716134,0.0-76.0-2.7,FALSE,FALSE,FALSE,FALSE,"""event"",""trial"",""time""
""fullscreenenter"",""5"",""19161""
","
","
","""event"",""trial"",""time""
""fullscreenenter"",""5"",""19161""
","
",NA,images/earth.jpg,NA,NA,NA,NA,NA,NA,NA,NA,NA,NA,NA,NA,NA,fixation,NA,NA,NA,NA,NA,NA,sub43
d3-animate-choice,159,719881,0.0-76.0-0.8,FALSE,FALSE,FALSE,FALSE,"""event"",""trial"",""time""
""fullscreenenter"",""5"",""19161""
","
","
","""event"",""trial"",""time""
""fullscreenenter"",""5"",""19161""
","
",1740.010000008624,NA,48,NA,NA,3000,1,NA,NA,images/earth.jpg,images/rocket1,images/rocket2,null,images/rocket1,NA,1,real,null,2,NA,NA,NA,sub43
d3-animate-choice,160,722240,0.0-76.0-1.8,FALSE,FALSE,FALSE,FALSE,"""event"",""trial"",""time""
""fullscreenenter"",""5"",""19161""
","
","
","""event"",""trial"",""time""
""fullscreenenter"",""5"",""19161""
","
",352.40000003250316,NA,49,NA,NA,3000,1,NA,NA,images/purpleplanet.jpg,images/alien4,images/alien3,images/rocket1,images/alien3,images/nothing.png,2,real,true,1,common,0,2020-06-11T20:02:05Z,sub43
two-step-fixation,161,723243,0.0-76.0-2.8,FALSE,FALSE,FALSE,FALSE,"""event"",""trial"",""time""
""fullscreenenter"",""5"",""19161""
","
","
","""event"",""trial"",""time""
""fullscreenenter"",""5"",""19161""
","
",NA,images/earth.jpg,NA,NA,NA,NA,NA,NA,NA,NA,NA,NA,NA,NA,NA,fixation,NA,NA,NA,NA,NA,NA,sub43
d3-animate-choice,162,725530,0.0-76.0-0.9,FALSE,FALSE,FALSE,FALSE,"""event"",""trial"",""time""
""fullscreenenter"",""5"",""19161""
","
","
","""event"",""trial"",""time""
""fullscreenenter"",""5"",""19161""
","
",280.67500004544854,NA,49,NA,NA,3000,1,NA,NA,images/earth.jpg,images/rocket1,images/rocket2,null,images/rocket2,NA,1,real,null,1,NA,NA,NA,sub43
d3-animate-choice,163,728060,0.0-76.0-1.9,FALSE,FALSE,FALSE,FALSE,"""event"",""trial"",""time""
""fullscreenenter"",""5"",""19161""
","
","
","""event"",""trial"",""time""
""fullscreenenter"",""5"",""19161""
","
",523.174999980256,NA,48,NA,NA,3000,1,NA,NA,images/purpleplanet.jpg,images/alien4,images/alien3,images/rocket2,images/alien4,images/t.png,2,real,false,2,rare,1,2020-06-11T20:02:11Z,sub43
two-step-fixation,164,729063,0.0-76.0-2.9,FALSE,FALSE,FALSE,FALSE,"""event"",""trial"",""time""
""fullscreenenter"",""5"",""19161""
","
","
","""event"",""trial"",""time""
""fullscreenenter"",""5"",""19161""
","
",NA,images/earth.jpg,NA,NA,NA,NA,NA,NA,NA,NA,NA,NA,NA,NA,NA,fixation,NA,NA,NA,NA,NA,NA,sub43
d3-animate-choice,165,731408,0.0-76.0-0.10,FALSE,FALSE,FALSE,FALSE,"""event"",""trial"",""time""
""fullscreenenter"",""5"",""19161""
","
","
","""event"",""trial"",""time""
""fullscreenenter"",""5"",""19161""
","
",337.3450000071898,NA,49,NA,NA,3000,1,NA,NA,images/earth.jpg,images/rocket1,images/rocket2,null,images/rocket2,NA,1,real,null,1,NA,NA,NA,sub43
d3-animate-choice,166,733939,0.0-76.0-1.10,FALSE,FALSE,FALSE,FALSE,"""event"",""trial"",""time""
""fullscreenenter"",""5"",""19161""
","
","
","""event"",""trial"",""time""
""fullscreenenter"",""5"",""19161""
","
",523.8900000113063,NA,48,NA,NA,3000,1,NA,NA,images/purpleplanet.jpg,images/alien4,images/alien3,images/rocket2,images/alien4,images/t.png,2,real,false,2,rare,1,2020-06-11T20:02:17Z,sub43
two-step-fixation,167,734942,0.0-76.0-2.10,FALSE,FALSE,FALSE,FALSE,"""event"",""trial"",""time""
""fullscreenenter"",""5"",""19161""
","
","
","""event"",""trial"",""time""
""fullscreenenter"",""5"",""19161""
","
",NA,images/earth.jpg,NA,NA,NA,NA,NA,NA,NA,NA,NA,NA,NA,NA,NA,fixation,NA,NA,NA,NA,NA,NA,sub43
d3-animate-choice,168,737429,0.0-76.0-0.11,FALSE,FALSE,FALSE,FALSE,"""event"",""trial"",""time""
""fullscreenenter"",""5"",""19161""
","
","
","""event"",""trial"",""time""
""fullscreenenter"",""5"",""19161""
","
",480.51000002305955,NA,49,NA,NA,3000,1,NA,NA,images/earth.jpg,images/rocket1,images/rocket2,null,images/rocket2,NA,1,real,null,1,NA,NA,NA,sub43
d3-animate-choice,169,740241,0.0-76.0-1.11,FALSE,FALSE,FALSE,FALSE,"""event"",""trial"",""time""
""fullscreenenter"",""5"",""19161""
","
","
","""event"",""trial"",""time""
""fullscreenenter"",""5"",""19161""
","
",806.1000000452623,NA,49,NA,NA,3000,1,NA,NA,images/redplanet1.jpg,images/alien2,images/alien1,images/rocket2,images/alien1,images/t.png,2,real,true,1,common,1,2020-06-11T20:02:23Z,sub43
two-step-fixation,170,741244,0.0-76.0-2.11,FALSE,FALSE,FALSE,FALSE,"""event"",""trial"",""time""
""fullscreenenter"",""5"",""19161""
","
","
","""event"",""trial"",""time""
""fullscreenenter"",""5"",""19161""
","
",NA,images/earth.jpg,NA,NA,NA,NA,NA,NA,NA,NA,NA,NA,NA,NA,NA,fixation,NA,NA,NA,NA,NA,NA,sub43
d3-animate-choice,171,744174,0.0-76.0-0.12,FALSE,FALSE,FALSE,FALSE,"""event"",""trial"",""time""
""fullscreenenter"",""5"",""19161""
","
","
","""event"",""trial"",""time""
""fullscreenenter"",""5"",""19161""
","
",923.5500000067987,NA,48,NA,NA,3000,1,NA,NA,images/earth.jpg,images/rocket1,images/rocket2,null,images/rocket1,NA,1,real,null,2,NA,NA,NA,sub43
d3-animate-choice,172,746820,0.0-76.0-1.12,FALSE,FALSE,FALSE,FALSE,"""event"",""trial"",""time""
""fullscreenenter"",""5"",""19161""
","
","
","""event"",""trial"",""time""
""fullscreenenter"",""5"",""19161""
","
",638.4499999694526,NA,48,NA,NA,3000,1,NA,NA,images/purpleplanet.jpg,images/alien4,images/alien3,images/rocket1,images/alien4,images/t.png,2,real,true,2,common,1,2020-06-11T20:02:30Z,sub43
two-step-fixation,173,747822,0.0-76.0-2.12,FALSE,FALSE,FALSE,FALSE,"""event"",""trial"",""time""
""fullscreenenter"",""5"",""19161""
","
","
","""event"",""trial"",""time""
""fullscreenenter"",""5"",""19161""
","
",NA,images/earth.jpg,NA,NA,NA,NA,NA,NA,NA,NA,NA,NA,NA,NA,NA,fixation,NA,NA,NA,NA,NA,NA,sub43
d3-animate-choice,174,750118,0.0-76.0-0.13,FALSE,FALSE,FALSE,FALSE,"""event"",""trial"",""time""
""fullscreenenter"",""5"",""19161""
","
","
","""event"",""trial"",""time""
""fullscreenenter"",""5"",""19161""
","
",289.4349999842234,NA,49,NA,NA,3000,1,NA,NA,images/earth.jpg,images/rocket1,images/rocket2,null,images/rocket2,NA,1,real,null,1,NA,NA,NA,sub43
d3-animate-choice,175,753273,0.0-76.0-1.13,FALSE,FALSE,FALSE,FALSE,"""event"",""trial"",""time""
""fullscreenenter"",""5"",""19161""
","
","
","""event"",""trial"",""time""
""fullscreenenter"",""5"",""19161""
","
",1147.9050000198185,NA,49,NA,NA,3000,1,NA,NA,images/redplanet1.jpg,images/alien2,images/alien1,images/rocket2,images/alien1,images/t.png,2,real,true,1,common,1,2020-06-11T20:02:36Z,sub43
two-step-fixation,176,754276,0.0-76.0-2.13,FALSE,FALSE,FALSE,FALSE,"""event"",""trial"",""time""
""fullscreenenter"",""5"",""19161""
","
","
","""event"",""trial"",""time""
""fullscreenenter"",""5"",""19161""
","
",NA,images/earth.jpg,NA,NA,NA,NA,NA,NA,NA,NA,NA,NA,NA,NA,NA,fixation,NA,NA,NA,NA,NA,NA,sub43
d3-animate-choice,177,756487,0.0-76.0-0.14,FALSE,FALSE,FALSE,FALSE,"""event"",""trial"",""time""
""fullscreenenter"",""5"",""19161""
","
","
","""event"",""trial"",""time""
""fullscreenenter"",""5"",""19161""
","
",204.91500000935048,NA,48,NA,NA,3000,1,NA,NA,images/earth.jpg,images/rocket1,images/rocket2,null,images/rocket1,NA,1,real,null,2,NA,NA,NA,sub43
d3-animate-choice,178,759016,0.0-76.0-1.14,FALSE,FALSE,FALSE,FALSE,"""event"",""trial"",""time""
""fullscreenenter"",""5"",""19161""
","
","
","""event"",""trial"",""time""
""fullscreenenter"",""5"",""19161""
","
",523.7300000153482,NA,48,NA,NA,3000,1,NA,NA,images/purpleplanet.jpg,images/alien4,images/alien3,images/rocket1,images/alien4,images/t.png,2,real,true,2,common,1,2020-06-11T20:02:42Z,sub43
two-step-fixation,179,760019,0.0-76.0-2.14,FALSE,FALSE,FALSE,FALSE,"""event"",""trial"",""time""
""fullscreenenter"",""5"",""19161""
","
","
","""event"",""trial"",""time""
""fullscreenenter"",""5"",""19161""
","
",NA,images/earth.jpg,NA,NA,NA,NA,NA,NA,NA,NA,NA,NA,NA,NA,NA,fixation,NA,NA,NA,NA,NA,NA,sub43
d3-animate-choice,180,762333,0.0-76.0-0.15,FALSE,FALSE,FALSE,FALSE,"""event"",""trial"",""time""
""fullscreenenter"",""5"",""19161""
","
","
","""event"",""trial"",""time""
""fullscreenenter"",""5"",""19161""
","
",306.79499998223037,NA,48,NA,NA,3000,1,NA,NA,images/earth.jpg,images/rocket1,images/rocket2,null,images/rocket1,NA,1,real,null,2,NA,NA,NA,sub43
d3-animate-choice,181,765104,0.0-76.0-1.15,FALSE,FALSE,FALSE,FALSE,"""event"",""trial"",""time""
""fullscreenenter"",""5"",""19161""
","
","
","""event"",""trial"",""time""
""fullscreenenter"",""5"",""19161""
","
",763.3100000093691,NA,49,NA,NA,3000,1,NA,NA,images/redplanet1.jpg,images/alien2,images/alien1,images/rocket1,images/alien1,images/nothing.png,2,real,false,1,rare,0,2020-06-11T20:02:48Z,sub43
two-step-fixation,182,766107,0.0-76.0-2.15,FALSE,FALSE,FALSE,FALSE,"""event"",""trial"",""time""
""fullscreenenter"",""5"",""19161""
","
","
","""event"",""trial"",""time""
""fullscreenenter"",""5"",""19161""
","
",NA,images/earth.jpg,NA,NA,NA,NA,NA,NA,NA,NA,NA,NA,NA,NA,NA,fixation,NA,NA,NA,NA,NA,NA,sub43
d3-animate-choice,183,768698,0.0-76.0-0.16,FALSE,FALSE,FALSE,FALSE,"""event"",""trial"",""time""
""fullscreenenter"",""5"",""19161""
","
","
","""event"",""trial"",""time""
""fullscreenenter"",""5"",""19161""
","
",583.6049999925308,NA,49,NA,NA,3000,1,NA,NA,images/earth.jpg,images/rocket1,images/rocket2,null,images/rocket2,NA,1,real,null,1,NA,NA,NA,sub43
d3-animate-choice,184,771393,0.0-76.0-1.16,FALSE,FALSE,FALSE,FALSE,"""event"",""trial"",""time""
""fullscreenenter"",""5"",""19161""
","
","
","""event"",""trial"",""time""
""fullscreenenter"",""5"",""19161""
","
",688.5800000163727,NA,49,NA,NA,3000,1,NA,NA,images/purpleplanet.jpg,images/alien4,images/alien3,images/rocket2,images/alien3,images/nothing.png,2,real,false,1,rare,0,2020-06-11T20:02:54Z,sub43
two-step-fixation,185,772396,0.0-76.0-2.16,FALSE,FALSE,FALSE,FALSE,"""event"",""trial"",""time""
""fullscreenenter"",""5"",""19161""
","
","
","""event"",""trial"",""time""
""fullscreenenter"",""5"",""19161""
","
",NA,images/earth.jpg,NA,NA,NA,NA,NA,NA,NA,NA,NA,NA,NA,NA,NA,fixation,NA,NA,NA,NA,NA,NA,sub43
d3-animate-choice,186,774780,0.0-76.0-0.17,FALSE,FALSE,FALSE,FALSE,"""event"",""trial"",""time""
""fullscreenenter"",""5"",""19161""
","
","
","""event"",""trial"",""time""
""fullscreenenter"",""5"",""19161""
","
",377.3550000041723,NA,49,NA,NA,3000,1,NA,NA,images/earth.jpg,images/rocket1,images/rocket2,null,images/rocket2,NA,1,real,null,1,NA,NA,NA,sub43
d3-animate-choice,187,777418,0.0-76.0-1.17,FALSE,FALSE,FALSE,FALSE,"""event"",""trial"",""time""
""fullscreenenter"",""5"",""19161""
","
","
","""event"",""trial"",""time""
""fullscreenenter"",""5"",""19161""
","
",631.4199999906123,NA,49,NA,NA,3000,1,NA,NA,images/redplanet1.jpg,images/alien2,images/alien1,images/rocket2,images/alien1,images/t.png,2,real,true,1,common,1,2020-06-11T20:03:00Z,sub43
two-step-fixation,188,778420,0.0-76.0-2.17,FALSE,FALSE,FALSE,FALSE,"""event"",""trial"",""time""
""fullscreenenter"",""5"",""19161""
","
","
","""event"",""trial"",""time""
""fullscreenenter"",""5"",""19161""
","
",NA,images/earth.jpg,NA,NA,NA,NA,NA,NA,NA,NA,NA,NA,NA,NA,NA,fixation,NA,NA,NA,NA,NA,NA,sub43
d3-animate-choice,189,780826,0.0-76.0-0.18,FALSE,FALSE,FALSE,FALSE,"""event"",""trial"",""time""
""fullscreenenter"",""5"",""19161""
","
","
","""event"",""trial"",""time""
""fullscreenenter"",""5"",""19161""
","
",398.64500000840053,NA,48,NA,NA,3000,1,NA,NA,images/earth.jpg,images/rocket1,images/rocket2,null,images/rocket1,NA,1,real,null,2,NA,NA,NA,sub43
d3-animate-choice,190,783476,0.0-76.0-1.18,FALSE,FALSE,FALSE,FALSE,"""event"",""trial"",""time""
""fullscreenenter"",""5"",""19161""
","
","
","""event"",""trial"",""time""
""fullscreenenter"",""5"",""19161""
","
",643.6049999902025,NA,49,NA,NA,3000,1,NA,NA,images/redplanet1.jpg,images/alien2,images/alien1,images/rocket1,images/alien1,images/t.png,2,real,false,1,rare,1,2020-06-11T20:03:06Z,sub43
two-step-fixation,191,784478,0.0-76.0-2.18,FALSE,FALSE,FALSE,FALSE,"""event"",""trial"",""time""
""fullscreenenter"",""5"",""19161""
","
","
","""event"",""trial"",""time""
""fullscreenenter"",""5"",""19161""
","
",NA,images/earth.jpg,NA,NA,NA,NA,NA,NA,NA,NA,NA,NA,NA,NA,NA,fixation,NA,NA,NA,NA,NA,NA,sub43
d3-animate-choice,192,786758,0.0-76.0-0.19,FALSE,FALSE,FALSE,FALSE,"""event"",""trial"",""time""
""fullscreenenter"",""5"",""19161""
","
","
","""event"",""trial"",""time""
""fullscreenenter"",""5"",""19161""
","
",274.83000000938773,NA,49,NA,NA,3000,1,NA,NA,images/earth.jpg,images/rocket1,images/rocket2,null,images/rocket2,NA,1,real,null,1,NA,NA,NA,sub43
d3-animate-choice,193,789392,0.0-76.0-1.19,FALSE,FALSE,FALSE,FALSE,"""event"",""trial"",""time""
""fullscreenenter"",""5"",""19161""
","
","
","""event"",""trial"",""time""
""fullscreenenter"",""5"",""19161""
","
",624.9449999886565,NA,49,NA,NA,3000,1,NA,NA,images/redplanet1.jpg,images/alien2,images/alien1,images/rocket2,images/alien1,images/nothing.png,2,real,true,1,common,0,2020-06-11T20:03:12Z,sub43
two-step-fixation,194,790395,0.0-76.0-2.19,FALSE,FALSE,FALSE,FALSE,"""event"",""trial"",""time""
""fullscreenenter"",""5"",""19161""
","
","
","""event"",""trial"",""time""
""fullscreenenter"",""5"",""19161""
","
",NA,images/earth.jpg,NA,NA,NA,NA,NA,NA,NA,NA,NA,NA,NA,NA,NA,fixation,NA,NA,NA,NA,NA,NA,sub43
d3-animate-choice,195,792688,0.0-76.0-0.20,FALSE,FALSE,FALSE,FALSE,"""event"",""trial"",""time""
""fullscreenenter"",""5"",""19161""
","
","
","""event"",""trial"",""time""
""fullscreenenter"",""5"",""19161""
","
",286.48499998962507,NA,49,NA,NA,3000,1,NA,NA,images/earth.jpg,images/rocket1,images/rocket2,null,images/rocket2,NA,1,real,null,1,NA,NA,NA,sub43
d3-animate-choice,196,795010,0.0-76.0-1.20,FALSE,FALSE,FALSE,FALSE,"""event"",""trial"",""time""
""fullscreenenter"",""5"",""19161""
","
","
","""event"",""trial"",""time""
""fullscreenenter"",""5"",""19161""
","
",308.2600000197999,NA,49,NA,NA,3000,1,NA,NA,images/redplanet1.jpg,images/alien2,images/alien1,images/rocket2,images/alien1,images/t.png,2,real,true,1,common,1,2020-06-11T20:03:18Z,sub43
two-step-fixation,197,796012,0.0-76.0-2.20,FALSE,FALSE,FALSE,FALSE,"""event"",""trial"",""time""
""fullscreenenter"",""5"",""19161""
","
","
","""event"",""trial"",""time""
""fullscreenenter"",""5"",""19161""
","
",NA,images/earth.jpg,NA,NA,NA,NA,NA,NA,NA,NA,NA,NA,NA,NA,NA,fixation,NA,NA,NA,NA,NA,NA,sub43
d3-animate-choice,198,798280,0.0-76.0-0.21,FALSE,FALSE,FALSE,FALSE,"""event"",""trial"",""time""
""fullscreenenter"",""5"",""19161""
","
","
","""event"",""trial"",""time""
""fullscreenenter"",""5"",""19161""
","
",260.16500004334375,NA,48,NA,NA,3000,1,NA,NA,images/earth.jpg,images/rocket1,images/rocket2,null,images/rocket1,NA,1,real,null,2,NA,NA,NA,sub43
d3-animate-choice,199,800808,0.0-76.0-1.21,FALSE,FALSE,FALSE,FALSE,"""event"",""trial"",""time""
""fullscreenenter"",""5"",""19161""
","
","
","""event"",""trial"",""time""
""fullscreenenter"",""5"",""19161""
","
",520.9499999764375,NA,48,NA,NA,3000,1,NA,NA,images/purpleplanet.jpg,images/alien4,images/alien3,images/rocket1,images/alien4,images/t.png,2,real,true,2,common,1,2020-06-11T20:03:24Z,sub43
two-step-fixation,200,801813,0.0-76.0-2.21,FALSE,FALSE,FALSE,FALSE,"""event"",""trial"",""time""
""fullscreenenter"",""5"",""19161""
","
","
","""event"",""trial"",""time""
""fullscreenenter"",""5"",""19161""
","
",NA,images/earth.jpg,NA,NA,NA,NA,NA,NA,NA,NA,NA,NA,NA,NA,NA,fixation,NA,NA,NA,NA,NA,NA,sub43
d3-animate-choice,201,804042,0.0-76.0-0.22,FALSE,FALSE,FALSE,FALSE,"""event"",""trial"",""time""
""fullscreenenter"",""5"",""19161""
","
","
","""event"",""trial"",""time""
""fullscreenenter"",""5"",""19161""
","
",223.21500000543892,NA,49,NA,NA,3000,1,NA,NA,images/earth.jpg,images/rocket1,images/rocket2,null,images/rocket2,NA,1,real,null,1,NA,NA,NA,sub43
d3-animate-choice,202,806291,0.0-76.0-1.22,FALSE,FALSE,FALSE,FALSE,"""event"",""trial"",""time""
""fullscreenenter"",""5"",""19161""
","
","
","""event"",""trial"",""time""
""fullscreenenter"",""5"",""19161""
","
",242.33499995898455,NA,49,NA,NA,3000,1,NA,NA,images/purpleplanet.jpg,images/alien4,images/alien3,images/rocket2,images/alien3,images/nothing.png,2,real,false,1,rare,0,2020-06-11T20:03:29Z,sub43
two-step-fixation,203,807294,0.0-76.0-2.22,FALSE,FALSE,FALSE,FALSE,"""event"",""trial"",""time""
""fullscreenenter"",""5"",""19161""
","
","
","""event"",""trial"",""time""
""fullscreenenter"",""5"",""19161""
","
",NA,images/earth.jpg,NA,NA,NA,NA,NA,NA,NA,NA,NA,NA,NA,NA,NA,fixation,NA,NA,NA,NA,NA,NA,sub43
d3-animate-choice,204,809584,0.0-76.0-0.23,FALSE,FALSE,FALSE,FALSE,"""event"",""trial"",""time""
""fullscreenenter"",""5"",""19161""
","
","
","""event"",""trial"",""time""
""fullscreenenter"",""5"",""19161""
","
",283.6200000019744,NA,48,NA,NA,3000,1,NA,NA,images/earth.jpg,images/rocket1,images/rocket2,null,images/rocket1,NA,1,real,null,2,NA,NA,NA,sub43
d3-animate-choice,205,812028,0.0-76.0-1.23,FALSE,FALSE,FALSE,FALSE,"""event"",""trial"",""time""
""fullscreenenter"",""5"",""19161""
","
","
","""event"",""trial"",""time""
""fullscreenenter"",""5"",""19161""
","
",437.4400000087917,NA,48,NA,NA,3000,1,NA,NA,images/purpleplanet.jpg,images/alien4,images/alien3,images/rocket1,images/alien4,images/nothing.png,2,real,true,2,common,0,2020-06-11T20:03:35Z,sub43
two-step-fixation,206,813031,0.0-76.0-2.23,FALSE,FALSE,FALSE,FALSE,"""event"",""trial"",""time""
""fullscreenenter"",""5"",""19161""
","
","
","""event"",""trial"",""time""
""fullscreenenter"",""5"",""19161""
","
",NA,images/earth.jpg,NA,NA,NA,NA,NA,NA,NA,NA,NA,NA,NA,NA,NA,fixation,NA,NA,NA,NA,NA,NA,sub43
d3-animate-choice,207,815242,0.0-76.0-0.24,FALSE,FALSE,FALSE,FALSE,"""event"",""trial"",""time""
""fullscreenenter"",""5"",""19161""
","
","
","""event"",""trial"",""time""
""fullscreenenter"",""5"",""19161""
","
",203.5399999585934,NA,48,NA,NA,3000,1,NA,NA,images/earth.jpg,images/rocket1,images/rocket2,null,images/rocket1,NA,1,real,null,2,NA,NA,NA,sub43
d3-animate-choice,208,817563,0.0-76.0-1.24,FALSE,FALSE,FALSE,FALSE,"""event"",""trial"",""time""
""fullscreenenter"",""5"",""19161""
","
","
","""event"",""trial"",""time""
""fullscreenenter"",""5"",""19161""
","
",312.32500000623986,NA,48,NA,NA,3000,1,NA,NA,images/redplanet1.jpg,images/alien2,images/alien1,images/rocket1,images/alien2,images/t.png,2,real,false,2,rare,1,2020-06-11T20:03:40Z,sub43
two-step-fixation,209,818566,0.0-76.0-2.24,FALSE,FALSE,FALSE,FALSE,"""event"",""trial"",""time""
""fullscreenenter"",""5"",""19161""
","
","
","""event"",""trial"",""time""
""fullscreenenter"",""5"",""19161""
","
",NA,images/earth.jpg,NA,NA,NA,NA,NA,NA,NA,NA,NA,NA,NA,NA,NA,fixation,NA,NA,NA,NA,NA,NA,sub43
d3-animate-choice,210,820773,0.0-76.0-0.25,FALSE,FALSE,FALSE,FALSE,"""event"",""trial"",""time""
""fullscreenenter"",""5"",""19161""
","
","
","""event"",""trial"",""time""
""fullscreenenter"",""5"",""19161""
","
",199.9599999981001,NA,48,NA,NA,3000,1,NA,NA,images/earth.jpg,images/rocket1,images/rocket2,null,images/rocket1,NA,1,real,null,2,NA,NA,NA,sub43
d3-animate-choice,211,823090,0.0-76.0-1.25,FALSE,FALSE,FALSE,FALSE,"""event"",""trial"",""time""
""fullscreenenter"",""5"",""19161""
","
","
","""event"",""trial"",""time""
""fullscreenenter"",""5"",""19161""
","
",310.9299999778159,NA,48,NA,NA,3000,1,NA,NA,images/redplanet1.jpg,images/alien2,images/alien1,images/rocket1,images/alien2,images/t.png,2,real,false,2,rare,1,2020-06-11T20:03:46Z,sub43
two-step-fixation,212,824093,0.0-76.0-2.25,FALSE,FALSE,FALSE,FALSE,"""event"",""trial"",""time""
""fullscreenenter"",""5"",""19161""
","
","
","""event"",""trial"",""time""
""fullscreenenter"",""5"",""19161""
","
",NA,images/earth.jpg,NA,NA,NA,NA,NA,NA,NA,NA,NA,NA,NA,NA,NA,fixation,NA,NA,NA,NA,NA,NA,sub43
d3-animate-choice,213,826395,0.0-76.0-0.26,FALSE,FALSE,FALSE,FALSE,"""event"",""trial"",""time""
""fullscreenenter"",""5"",""19161""
","
","
","""event"",""trial"",""time""
""fullscreenenter"",""5"",""19161""
","
",294.7600000188686,NA,48,NA,NA,3000,1,NA,NA,images/earth.jpg,images/rocket1,images/rocket2,null,images/rocket1,NA,1,real,null,2,NA,NA,NA,sub43
d3-animate-choice,214,829101,0.0-76.0-1.26,FALSE,FALSE,FALSE,FALSE,"""event"",""trial"",""time""
""fullscreenenter"",""5"",""19161""
","
","
","""event"",""trial"",""time""
""fullscreenenter"",""5"",""19161""
","
",699.0399999776855,NA,49,NA,NA,3000,1,NA,NA,images/purpleplanet.jpg,images/alien4,images/alien3,images/rocket1,images/alien3,images/nothing.png,2,real,true,1,common,0,2020-06-11T20:03:52Z,sub43
two-step-fixation,215,830104,0.0-76.0-2.26,FALSE,FALSE,FALSE,FALSE,"""event"",""trial"",""time""
""fullscreenenter"",""5"",""19161""
","
","
","""event"",""trial"",""time""
""fullscreenenter"",""5"",""19161""
","
",NA,images/earth.jpg,NA,NA,NA,NA,NA,NA,NA,NA,NA,NA,NA,NA,NA,fixation,NA,NA,NA,NA,NA,NA,sub43
d3-animate-choice,216,832389,0.0-76.0-0.27,FALSE,FALSE,FALSE,FALSE,"""event"",""trial"",""time""
""fullscreenenter"",""5"",""19161""
","
","
","""event"",""trial"",""time""
""fullscreenenter"",""5"",""19161""
","
",278.4300000057556,NA,48,NA,NA,3000,1,NA,NA,images/earth.jpg,images/rocket1,images/rocket2,null,images/rocket1,NA,1,real,null,2,NA,NA,NA,sub43
d3-animate-choice,217,834782,0.0-76.0-1.27,FALSE,FALSE,FALSE,FALSE,"""event"",""trial"",""time""
""fullscreenenter"",""5"",""19161""
","
","
","""event"",""trial"",""time""
""fullscreenenter"",""5"",""19161""
","
",386.65000000037253,NA,48,NA,NA,3000,1,NA,NA,images/purpleplanet.jpg,images/alien4,images/alien3,images/rocket1,images/alien4,images/nothing.png,2,real,true,2,common,0,2020-06-11T20:03:57Z,sub43
two-step-fixation,218,835785,0.0-76.0-2.27,FALSE,FALSE,FALSE,FALSE,"""event"",""trial"",""time""
""fullscreenenter"",""5"",""19161""
","
","
","""event"",""trial"",""time""
""fullscreenenter"",""5"",""19161""
","
",NA,images/earth.jpg,NA,NA,NA,NA,NA,NA,NA,NA,NA,NA,NA,NA,NA,fixation,NA,NA,NA,NA,NA,NA,sub43
d3-animate-choice,219,838160,0.0-76.0-0.28,FALSE,FALSE,FALSE,FALSE,"""event"",""trial"",""time""
""fullscreenenter"",""5"",""19161""
","
","
","""event"",""trial"",""time""
""fullscreenenter"",""5"",""19161""
","
",367.93999996734783,NA,49,NA,NA,3000,1,NA,NA,images/earth.jpg,images/rocket1,images/rocket2,null,images/rocket2,NA,1,real,null,1,NA,NA,NA,sub43
d3-animate-choice,220,840846,0.0-76.0-1.28,FALSE,FALSE,FALSE,FALSE,"""event"",""trial"",""time""
""fullscreenenter"",""5"",""19161""
","
","
","""event"",""trial"",""time""
""fullscreenenter"",""5"",""19161""
","
",678.6300000385381,NA,49,NA,NA,3000,1,NA,NA,images/purpleplanet.jpg,images/alien4,images/alien3,images/rocket2,images/alien3,images/nothing.png,2,real,false,1,rare,0,2020-06-11T20:04:04Z,sub43
two-step-fixation,221,841849,0.0-76.0-2.28,FALSE,FALSE,FALSE,FALSE,"""event"",""trial"",""time""
""fullscreenenter"",""5"",""19161""
","
","
","""event"",""trial"",""time""
""fullscreenenter"",""5"",""19161""
","
",NA,images/earth.jpg,NA,NA,NA,NA,NA,NA,NA,NA,NA,NA,NA,NA,NA,fixation,NA,NA,NA,NA,NA,NA,sub43
d3-animate-choice,222,844186,0.0-76.0-0.29,FALSE,FALSE,FALSE,FALSE,"""event"",""trial"",""time""
""fullscreenenter"",""5"",""19161""
","
","
","""event"",""trial"",""time""
""fullscreenenter"",""5"",""19161""
","
",330.3600000217557,NA,48,NA,NA,3000,1,NA,NA,images/earth.jpg,images/rocket1,images/rocket2,null,images/rocket1,NA,1,real,null,2,NA,NA,NA,sub43
d3-animate-choice,223,846634,0.0-76.0-1.29,FALSE,FALSE,FALSE,FALSE,"""event"",""trial"",""time""
""fullscreenenter"",""5"",""19161""
","
","
","""event"",""trial"",""time""
""fullscreenenter"",""5"",""19161""
","
",441.04999996488914,NA,48,NA,NA,3000,1,NA,NA,images/redplanet1.jpg,images/alien2,images/alien1,images/rocket1,images/alien2,images/t.png,2,real,false,2,rare,1,2020-06-11T20:04:09Z,sub43
two-step-fixation,224,847637,0.0-76.0-2.29,FALSE,FALSE,FALSE,FALSE,"""event"",""trial"",""time""
""fullscreenenter"",""5"",""19161""
","
","
","""event"",""trial"",""time""
""fullscreenenter"",""5"",""19161""
","
",NA,images/earth.jpg,NA,NA,NA,NA,NA,NA,NA,NA,NA,NA,NA,NA,NA,fixation,NA,NA,NA,NA,NA,NA,sub43
d3-animate-choice,225,849912,0.0-76.0-0.30,FALSE,FALSE,FALSE,FALSE,"""event"",""trial"",""time""
""fullscreenenter"",""5"",""19161""
","
","
","""event"",""trial"",""time""
""fullscreenenter"",""5"",""19161""
","
",268.7750000040978,NA,48,NA,NA,3000,1,NA,NA,images/earth.jpg,images/rocket1,images/rocket2,null,images/rocket1,NA,1,real,null,2,NA,NA,NA,sub43
d3-animate-choice,226,852641,0.0-76.0-1.30,FALSE,FALSE,FALSE,FALSE,"""event"",""trial"",""time""
""fullscreenenter"",""5"",""19161""
","
","
","""event"",""trial"",""time""
""fullscreenenter"",""5"",""19161""
","
",721.5999999898486,NA,49,NA,NA,3000,1,NA,NA,images/purpleplanet.jpg,images/alien4,images/alien3,images/rocket1,images/alien3,images/t.png,2,real,true,1,common,1,2020-06-11T20:04:15Z,sub43
two-step-fixation,227,853644,0.0-76.0-2.30,FALSE,FALSE,FALSE,FALSE,"""event"",""trial"",""time""
""fullscreenenter"",""5"",""19161""
","
","
","""event"",""trial"",""time""
""fullscreenenter"",""5"",""19161""
","
",NA,images/earth.jpg,NA,NA,NA,NA,NA,NA,NA,NA,NA,NA,NA,NA,NA,fixation,NA,NA,NA,NA,NA,NA,sub43
d3-animate-choice,228,856236,0.0-76.0-0.31,FALSE,FALSE,FALSE,FALSE,"""event"",""trial"",""time""
""fullscreenenter"",""5"",""19161""
","
","
","""event"",""trial"",""time""
""fullscreenenter"",""5"",""19161""
","
",585.674999980256,NA,48,NA,NA,3000,1,NA,NA,images/earth.jpg,images/rocket1,images/rocket2,null,images/rocket1,NA,1,real,null,2,NA,NA,NA,sub43
d3-animate-choice,229,858569,0.0-76.0-1.31,FALSE,FALSE,FALSE,FALSE,"""event"",""trial"",""time""
""fullscreenenter"",""5"",""19161""
","
","
","""event"",""trial"",""time""
""fullscreenenter"",""5"",""19161""
","
",324.9700000160374,NA,48,NA,NA,3000,1,NA,NA,images/redplanet1.jpg,images/alien2,images/alien1,images/rocket1,images/alien2,images/t.png,2,real,false,2,rare,1,2020-06-11T20:04:21Z,sub43
two-step-fixation,230,859573,0.0-76.0-2.31,FALSE,FALSE,FALSE,FALSE,"""event"",""trial"",""time""
""fullscreenenter"",""5"",""19161""
","
","
","""event"",""trial"",""time""
""fullscreenenter"",""5"",""19161""
","
",NA,images/earth.jpg,NA,NA,NA,NA,NA,NA,NA,NA,NA,NA,NA,NA,NA,fixation,NA,NA,NA,NA,NA,NA,sub43
d3-animate-choice,231,861846,0.0-76.0-0.32,FALSE,FALSE,FALSE,FALSE,"""event"",""trial"",""time""
""fullscreenenter"",""5"",""19161""
","
","
","""event"",""trial"",""time""
""fullscreenenter"",""5"",""19161""
","
",264.87000001361594,NA,48,NA,NA,3000,1,NA,NA,images/earth.jpg,images/rocket1,images/rocket2,null,images/rocket1,NA,1,real,null,2,NA,NA,NA,sub43
d3-animate-choice,232,864370,0.0-76.0-1.32,FALSE,FALSE,FALSE,FALSE,"""event"",""trial"",""time""
""fullscreenenter"",""5"",""19161""
","
","
","""event"",""trial"",""time""
""fullscreenenter"",""5"",""19161""
","
",516.6650000028312,NA,48,NA,NA,3000,1,NA,NA,images/redplanet1.jpg,images/alien2,images/alien1,images/rocket1,images/alien2,images/nothing.png,2,real,false,2,rare,0,2020-06-11T20:04:27Z,sub43
two-step-fixation,233,865373,0.0-76.0-2.32,FALSE,FALSE,FALSE,FALSE,"""event"",""trial"",""time""
""fullscreenenter"",""5"",""19161""
","
","
","""event"",""trial"",""time""
""fullscreenenter"",""5"",""19161""
","
",NA,images/earth.jpg,NA,NA,NA,NA,NA,NA,NA,NA,NA,NA,NA,NA,NA,fixation,NA,NA,NA,NA,NA,NA,sub43
d3-animate-choice,234,867637,0.0-76.0-0.33,FALSE,FALSE,FALSE,FALSE,"""event"",""trial"",""time""
""fullscreenenter"",""5"",""19161""
","
","
","""event"",""trial"",""time""
""fullscreenenter"",""5"",""19161""
","
",257.0350000169128,NA,48,NA,NA,3000,1,NA,NA,images/earth.jpg,images/rocket1,images/rocket2,null,images/rocket1,NA,1,real,null,2,NA,NA,NA,sub43
d3-animate-choice,235,870747,0.0-76.0-1.33,FALSE,FALSE,FALSE,FALSE,"""event"",""trial"",""time""
""fullscreenenter"",""5"",""19161""
","
","
","""event"",""trial"",""time""
""fullscreenenter"",""5"",""19161""
","
",1101.9049999886192,NA,48,NA,NA,3000,1,NA,NA,images/purpleplanet.jpg,images/alien4,images/alien3,images/rocket1,images/alien4,images/t.png,2,real,true,2,common,1,2020-06-11T20:04:33Z,sub43
two-step-fixation,236,871750,0.0-76.0-2.33,FALSE,FALSE,FALSE,FALSE,"""event"",""trial"",""time""
""fullscreenenter"",""5"",""19161""
","
","
","""event"",""trial"",""time""
""fullscreenenter"",""5"",""19161""
","
",NA,images/earth.jpg,NA,NA,NA,NA,NA,NA,NA,NA,NA,NA,NA,NA,NA,fixation,NA,NA,NA,NA,NA,NA,sub43
d3-animate-choice,237,874261,0.0-76.0-0.34,FALSE,FALSE,FALSE,FALSE,"""event"",""trial"",""time""
""fullscreenenter"",""5"",""19161""
","
","
","""event"",""trial"",""time""
""fullscreenenter"",""5"",""19161""
","
",503.65999998757616,NA,49,NA,NA,3000,1,NA,NA,images/earth.jpg,images/rocket1,images/rocket2,null,images/rocket2,NA,1,real,null,1,NA,NA,NA,sub43
d3-animate-choice,238,877191,0.0-76.0-1.34,FALSE,FALSE,FALSE,FALSE,"""event"",""trial"",""time""
""fullscreenenter"",""5"",""19161""
","
","
","""event"",""trial"",""time""
""fullscreenenter"",""5"",""19161""
","
",923.5849999822676,NA,48,NA,NA,3000,1,NA,NA,images/purpleplanet.jpg,images/alien4,images/alien3,images/rocket2,images/alien4,images/t.png,2,real,false,2,rare,1,2020-06-11T20:04:40Z,sub43
two-step-fixation,239,878194,0.0-76.0-2.34,FALSE,FALSE,FALSE,FALSE,"""event"",""trial"",""time""
""fullscreenenter"",""5"",""19161""
","
","
","""event"",""trial"",""time""
""fullscreenenter"",""5"",""19161""
","
",NA,images/earth.jpg,NA,NA,NA,NA,NA,NA,NA,NA,NA,NA,NA,NA,NA,fixation,NA,NA,NA,NA,NA,NA,sub43
d3-animate-choice,240,880697,0.0-76.0-0.35,FALSE,FALSE,FALSE,FALSE,"""event"",""trial"",""time""
""fullscreenenter"",""5"",""19161""
","
","
","""event"",""trial"",""time""
""fullscreenenter"",""5"",""19161""
","
",496.47000001277775,NA,48,NA,NA,3000,1,NA,NA,images/earth.jpg,images/rocket1,images/rocket2,null,images/rocket1,NA,1,real,null,2,NA,NA,NA,sub43
d3-animate-choice,241,883349,0.0-76.0-1.35,FALSE,FALSE,FALSE,FALSE,"""event"",""trial"",""time""
""fullscreenenter"",""5"",""19161""
","
","
","""event"",""trial"",""time""
""fullscreenenter"",""5"",""19161""
","
",645.284999976866,NA,48,NA,NA,3000,1,NA,NA,images/purpleplanet.jpg,images/alien4,images/alien3,images/rocket1,images/alien4,images/nothing.png,2,real,true,2,common,0,2020-06-11T20:04:46Z,sub43
two-step-fixation,242,884352,0.0-76.0-2.35,FALSE,FALSE,FALSE,FALSE,"""event"",""trial"",""time""
""fullscreenenter"",""5"",""19161""
","
","
","""event"",""trial"",""time""
""fullscreenenter"",""5"",""19161""
","
",NA,images/earth.jpg,NA,NA,NA,NA,NA,NA,NA,NA,NA,NA,NA,NA,NA,fixation,NA,NA,NA,NA,NA,NA,sub43
d3-animate-choice,243,886622,0.0-76.0-0.36,FALSE,FALSE,FALSE,FALSE,"""event"",""trial"",""time""
""fullscreenenter"",""5"",""19161""
","
","
","""event"",""trial"",""time""
""fullscreenenter"",""5"",""19161""
","
",263.1099999998696,NA,49,NA,NA,3000,1,NA,NA,images/earth.jpg,images/rocket1,images/rocket2,null,images/rocket2,NA,1,real,null,1,NA,NA,NA,sub43
d3-animate-choice,244,888948,0.0-76.0-1.36,FALSE,FALSE,FALSE,FALSE,"""event"",""trial"",""time""
""fullscreenenter"",""5"",""19161""
","
","
","""event"",""trial"",""time""
""fullscreenenter"",""5"",""19161""
","
",319.39499999862164,NA,49,NA,NA,3000,1,NA,NA,images/redplanet1.jpg,images/alien2,images/alien1,images/rocket2,images/alien1,images/nothing.png,2,real,true,1,common,0,2020-06-11T20:04:52Z,sub43
two-step-fixation,245,889950,0.0-76.0-2.36,FALSE,FALSE,FALSE,FALSE,"""event"",""trial"",""time""
""fullscreenenter"",""5"",""19161""
","
","
","""event"",""trial"",""time""
""fullscreenenter"",""5"",""19161""
","
",NA,images/earth.jpg,NA,NA,NA,NA,NA,NA,NA,NA,NA,NA,NA,NA,NA,fixation,NA,NA,NA,NA,NA,NA,sub43
d3-animate-choice,246,892188,0.0-76.0-0.37,FALSE,FALSE,FALSE,FALSE,"""event"",""trial"",""time""
""fullscreenenter"",""5"",""19161""
","
","
","""event"",""trial"",""time""
""fullscreenenter"",""5"",""19161""
","
",231.22000001603737,NA,49,NA,NA,3000,1,NA,NA,images/earth.jpg,images/rocket1,images/rocket2,null,images/rocket2,NA,1,real,null,1,NA,NA,NA,sub43
d3-animate-choice,247,894536,0.0-76.0-1.37,FALSE,FALSE,FALSE,FALSE,"""event"",""trial"",""time""
""fullscreenenter"",""5"",""19161""
","
","
","""event"",""trial"",""time""
""fullscreenenter"",""5"",""19161""
","
",339.77500000037253,NA,48,NA,NA,3000,1,NA,NA,images/redplanet1.jpg,images/alien2,images/alien1,images/rocket2,images/alien2,images/nothing.png,2,real,true,2,common,0,2020-06-11T20:04:57Z,sub43
two-step-fixation,248,895539,0.0-76.0-2.37,FALSE,FALSE,FALSE,FALSE,"""event"",""trial"",""time""
""fullscreenenter"",""5"",""19161""
","
","
","""event"",""trial"",""time""
""fullscreenenter"",""5"",""19161""
","
",NA,images/earth.jpg,NA,NA,NA,NA,NA,NA,NA,NA,NA,NA,NA,NA,NA,fixation,NA,NA,NA,NA,NA,NA,sub43
d3-animate-choice,249,897852,0.0-76.0-0.38,FALSE,FALSE,FALSE,FALSE,"""event"",""trial"",""time""
""fullscreenenter"",""5"",""19161""
","
","
","""event"",""trial"",""time""
""fullscreenenter"",""5"",""19161""
","
",306.12500000279397,NA,49,NA,NA,3000,1,NA,NA,images/earth.jpg,images/rocket1,images/rocket2,null,images/rocket2,NA,1,real,null,1,NA,NA,NA,sub43
d3-animate-choice,250,900178,0.0-76.0-1.38,FALSE,FALSE,FALSE,FALSE,"""event"",""trial"",""time""
""fullscreenenter"",""5"",""19161""
","
","
","""event"",""trial"",""time""
""fullscreenenter"",""5"",""19161""
","
",319.2050000070594,NA,49,NA,NA,3000,1,NA,NA,images/redplanet1.jpg,images/alien2,images/alien1,images/rocket2,images/alien1,images/nothing.png,2,real,true,1,common,0,2020-06-11T20:05:03Z,sub43
two-step-fixation,251,901181,0.0-76.0-2.38,FALSE,FALSE,FALSE,FALSE,"""event"",""trial"",""time""
""fullscreenenter"",""5"",""19161""
","
","
","""event"",""trial"",""time""
""fullscreenenter"",""5"",""19161""
","
",NA,images/earth.jpg,NA,NA,NA,NA,NA,NA,NA,NA,NA,NA,NA,NA,NA,fixation,NA,NA,NA,NA,NA,NA,sub43
d3-animate-choice,252,903425,0.0-76.0-0.39,FALSE,FALSE,FALSE,FALSE,"""event"",""trial"",""time""
""fullscreenenter"",""5"",""19161""
","
","
","""event"",""trial"",""time""
""fullscreenenter"",""5"",""19161""
","
",236.49500001920387,NA,49,NA,NA,3000,1,NA,NA,images/earth.jpg,images/rocket1,images/rocket2,null,images/rocket2,NA,1,real,null,1,NA,NA,NA,sub43
d3-animate-choice,253,905803,0.0-76.0-1.39,FALSE,FALSE,FALSE,FALSE,"""event"",""trial"",""time""
""fullscreenenter"",""5"",""19161""
","
","
","""event"",""trial"",""time""
""fullscreenenter"",""5"",""19161""
","
",370.80999999307096,NA,48,NA,NA,3000,1,NA,NA,images/purpleplanet.jpg,images/alien4,images/alien3,images/rocket2,images/alien4,images/nothing.png,2,real,false,2,rare,0,2020-06-11T20:05:08Z,sub43
two-step-fixation,254,906806,0.0-76.0-2.39,FALSE,FALSE,FALSE,FALSE,"""event"",""trial"",""time""
""fullscreenenter"",""5"",""19161""
","
","
","""event"",""trial"",""time""
""fullscreenenter"",""5"",""19161""
","
",NA,images/earth.jpg,NA,NA,NA,NA,NA,NA,NA,NA,NA,NA,NA,NA,NA,fixation,NA,NA,NA,NA,NA,NA,sub43
d3-animate-choice,255,909420,0.0-76.0-0.40,FALSE,FALSE,FALSE,FALSE,"""event"",""trial"",""time""
""fullscreenenter"",""5"",""19161""
","
","
","""event"",""trial"",""time""
""fullscreenenter"",""5"",""19161""
","
",606.389999971725,NA,48,NA,NA,3000,1,NA,NA,images/earth.jpg,images/rocket1,images/rocket2,null,images/rocket1,NA,1,real,null,2,NA,NA,NA,sub43
d3-animate-choice,256,911825,0.0-76.0-1.40,FALSE,FALSE,FALSE,FALSE,"""event"",""trial"",""time""
""fullscreenenter"",""5"",""19161""
","
","
","""event"",""trial"",""time""
""fullscreenenter"",""5"",""19161""
","
",397.38999999826774,NA,49,NA,NA,3000,1,NA,NA,images/purpleplanet.jpg,images/alien4,images/alien3,images/rocket1,images/alien3,images/nothing.png,2,real,true,1,common,0,2020-06-11T20:05:15Z,sub43
two-step-fixation,257,912829,0.0-76.0-2.40,FALSE,FALSE,FALSE,FALSE,"""event"",""trial"",""time""
""fullscreenenter"",""5"",""19161""
","
","
","""event"",""trial"",""time""
""fullscreenenter"",""5"",""19161""
","
",NA,images/earth.jpg,NA,NA,NA,NA,NA,NA,NA,NA,NA,NA,NA,NA,NA,fixation,NA,NA,NA,NA,NA,NA,sub43
d3-animate-choice,258,915138,0.0-76.0-0.41,FALSE,FALSE,FALSE,FALSE,"""event"",""trial"",""time""
""fullscreenenter"",""5"",""19161""
","
","
","""event"",""trial"",""time""
""fullscreenenter"",""5"",""19161""
","
",303.37999999755993,NA,48,NA,NA,3000,1,NA,NA,images/earth.jpg,images/rocket1,images/rocket2,null,images/rocket1,NA,1,real,null,2,NA,NA,NA,sub43
d3-animate-choice,259,918061,0.0-76.0-1.41,FALSE,FALSE,FALSE,FALSE,"""event"",""trial"",""time""
""fullscreenenter"",""5"",""19161""
","
","
","""event"",""trial"",""time""
""fullscreenenter"",""5"",""19161""
","
",916.5849999990314,NA,49,NA,NA,3000,1,NA,NA,images/redplanet1.jpg,images/alien2,images/alien1,images/rocket1,images/alien1,images/t.png,2,real,false,1,rare,1,2020-06-11T20:05:21Z,sub43
two-step-fixation,260,919064,0.0-76.0-2.41,FALSE,FALSE,FALSE,FALSE,"""event"",""trial"",""time""
""fullscreenenter"",""5"",""19161""
","
","
","""event"",""trial"",""time""
""fullscreenenter"",""5"",""19161""
","
",NA,images/earth.jpg,NA,NA,NA,NA,NA,NA,NA,NA,NA,NA,NA,NA,NA,fixation,NA,NA,NA,NA,NA,NA,sub43
d3-animate-choice,261,921462,0.0-76.0-0.42,FALSE,FALSE,FALSE,FALSE,"""event"",""trial"",""time""
""fullscreenenter"",""5"",""19161""
","
","
","""event"",""trial"",""time""
""fullscreenenter"",""5"",""19161""
","
",391.92999998340383,NA,48,NA,NA,3000,1,NA,NA,images/earth.jpg,images/rocket1,images/rocket2,null,images/rocket1,NA,1,real,null,2,NA,NA,NA,sub43
d3-animate-choice,262,924496,0.0-76.0-1.42,FALSE,FALSE,FALSE,FALSE,"""event"",""trial"",""time""
""fullscreenenter"",""5"",""19161""
","
","
","""event"",""trial"",""time""
""fullscreenenter"",""5"",""19161""
","
",1028.0599999823608,NA,48,NA,NA,3000,1,NA,NA,images/purpleplanet.jpg,images/alien4,images/alien3,images/rocket1,images/alien4,images/t.png,2,real,true,2,common,1,2020-06-11T20:05:27Z,sub43
two-step-fixation,263,925499,0.0-76.0-2.42,FALSE,FALSE,FALSE,FALSE,"""event"",""trial"",""time""
""fullscreenenter"",""5"",""19161""
","
","
","""event"",""trial"",""time""
""fullscreenenter"",""5"",""19161""
","
",NA,images/earth.jpg,NA,NA,NA,NA,NA,NA,NA,NA,NA,NA,NA,NA,NA,fixation,NA,NA,NA,NA,NA,NA,sub43
d3-animate-choice,264,928080,0.0-76.0-0.43,FALSE,FALSE,FALSE,FALSE,"""event"",""trial"",""time""
""fullscreenenter"",""5"",""19161""
","
","
","""event"",""trial"",""time""
""fullscreenenter"",""5"",""19161""
","
",573.7250000238419,NA,49,NA,NA,3000,1,NA,NA,images/earth.jpg,images/rocket1,images/rocket2,null,images/rocket2,NA,1,real,null,1,NA,NA,NA,sub43
d3-animate-choice,265,930374,0.0-76.0-1.43,FALSE,FALSE,FALSE,FALSE,"""event"",""trial"",""time""
""fullscreenenter"",""5"",""19161""
","
","
","""event"",""trial"",""time""
""fullscreenenter"",""5"",""19161""
","
",286.88999998848885,NA,49,NA,NA,3000,1,NA,NA,images/redplanet1.jpg,images/alien2,images/alien1,images/rocket2,images/alien1,images/nothing.png,2,real,true,1,common,0,2020-06-11T20:05:33Z,sub43
two-step-fixation,266,931376,0.0-76.0-2.43,FALSE,FALSE,FALSE,FALSE,"""event"",""trial"",""time""
""fullscreenenter"",""5"",""19161""
","
","
","""event"",""trial"",""time""
""fullscreenenter"",""5"",""19161""
","
",NA,images/earth.jpg,NA,NA,NA,NA,NA,NA,NA,NA,NA,NA,NA,NA,NA,fixation,NA,NA,NA,NA,NA,NA,sub43
d3-animate-choice,267,933567,0.0-76.0-0.44,FALSE,FALSE,FALSE,FALSE,"""event"",""trial"",""time""
""fullscreenenter"",""5"",""19161""
","
","
","""event"",""trial"",""time""
""fullscreenenter"",""5"",""19161""
","
",186.9550000410527,NA,48,NA,NA,3000,1,NA,NA,images/earth.jpg,images/rocket1,images/rocket2,null,images/rocket1,NA,1,real,null,2,NA,NA,NA,sub43
d3-animate-choice,268,936112,0.0-76.0-1.44,FALSE,FALSE,FALSE,FALSE,"""event"",""trial"",""time""
""fullscreenenter"",""5"",""19161""
","
","
","""event"",""trial"",""time""
""fullscreenenter"",""5"",""19161""
","
",531.1000000219792,NA,48,NA,NA,3000,1,NA,NA,images/purpleplanet.jpg,images/alien4,images/alien3,images/rocket1,images/alien4,images/nothing.png,2,real,true,2,common,0,2020-06-11T20:05:39Z,sub43
two-step-fixation,269,937116,0.0-76.0-2.44,FALSE,FALSE,FALSE,FALSE,"""event"",""trial"",""time""
""fullscreenenter"",""5"",""19161""
","
","
","""event"",""trial"",""time""
""fullscreenenter"",""5"",""19161""
","
",NA,images/earth.jpg,NA,NA,NA,NA,NA,NA,NA,NA,NA,NA,NA,NA,NA,fixation,NA,NA,NA,NA,NA,NA,sub43
d3-animate-choice,270,939486,0.0-76.0-0.45,FALSE,FALSE,FALSE,FALSE,"""event"",""trial"",""time""
""fullscreenenter"",""5"",""19161""
","
","
","""event"",""trial"",""time""
""fullscreenenter"",""5"",""19161""
","
",363.3350000018254,NA,48,NA,NA,3000,1,NA,NA,images/earth.jpg,images/rocket1,images/rocket2,null,images/rocket1,NA,1,real,null,2,NA,NA,NA,sub43
d3-animate-choice,271,942195,0.0-76.0-1.45,FALSE,FALSE,FALSE,FALSE,"""event"",""trial"",""time""
""fullscreenenter"",""5"",""19161""
","
","
","""event"",""trial"",""time""
""fullscreenenter"",""5"",""19161""
","
",704.2299999739043,NA,49,NA,NA,3000,1,NA,NA,images/redplanet1.jpg,images/alien2,images/alien1,images/rocket1,images/alien1,images/t.png,2,real,false,1,rare,1,2020-06-11T20:05:45Z,sub43
two-step-fixation,272,943198,0.0-76.0-2.45,FALSE,FALSE,FALSE,FALSE,"""event"",""trial"",""time""
""fullscreenenter"",""5"",""19161""
","
","
","""event"",""trial"",""time""
""fullscreenenter"",""5"",""19161""
","
",NA,images/earth.jpg,NA,NA,NA,NA,NA,NA,NA,NA,NA,NA,NA,NA,NA,fixation,NA,NA,NA,NA,NA,NA,sub43
d3-animate-choice,273,945476,0.0-76.0-0.46,FALSE,FALSE,FALSE,FALSE,"""event"",""trial"",""time""
""fullscreenenter"",""5"",""19161""
","
","
","""event"",""trial"",""time""
""fullscreenenter"",""5"",""19161""
","
",272.4249999737367,NA,48,NA,NA,3000,1,NA,NA,images/earth.jpg,images/rocket1,images/rocket2,null,images/rocket1,NA,1,real,null,2,NA,NA,NA,sub43
d3-animate-choice,274,947755,0.0-76.0-1.46,FALSE,FALSE,FALSE,FALSE,"""event"",""trial"",""time""
""fullscreenenter"",""5"",""19161""
","
","
","""event"",""trial"",""time""
""fullscreenenter"",""5"",""19161""
","
",273.2199999736622,NA,49,NA,NA,3000,1,NA,NA,images/purpleplanet.jpg,images/alien4,images/alien3,images/rocket1,images/alien3,images/nothing.png,2,real,true,1,common,0,2020-06-11T20:05:50Z,sub43
two-step-fixation,275,948758,0.0-76.0-2.46,FALSE,FALSE,FALSE,FALSE,"""event"",""trial"",""time""
""fullscreenenter"",""5"",""19161""
","
","
","""event"",""trial"",""time""
""fullscreenenter"",""5"",""19161""
","
",NA,images/earth.jpg,NA,NA,NA,NA,NA,NA,NA,NA,NA,NA,NA,NA,NA,fixation,NA,NA,NA,NA,NA,NA,sub43
d3-animate-choice,276,950818,0.0-76.0-0.47,FALSE,FALSE,FALSE,FALSE,"""event"",""trial"",""time""
""fullscreenenter"",""5"",""19161""
","
","
","""event"",""trial"",""time""
""fullscreenenter"",""5"",""19161""
","
",53.98500000592321,NA,49,NA,NA,3000,1,NA,NA,images/earth.jpg,images/rocket1,images/rocket2,null,images/rocket2,NA,1,real,null,1,NA,NA,NA,sub43
d3-animate-choice,277,953264,0.0-76.0-1.47,FALSE,FALSE,FALSE,FALSE,"""event"",""trial"",""time""
""fullscreenenter"",""5"",""19161""
","
","
","""event"",""trial"",""time""
""fullscreenenter"",""5"",""19161""
","
",439.84000000637025,NA,49,NA,NA,3000,1,NA,NA,images/redplanet1.jpg,images/alien2,images/alien1,images/rocket2,images/alien1,images/t.png,2,real,true,1,common,1,2020-06-11T20:05:56Z,sub43
two-step-fixation,278,954267,0.0-76.0-2.47,FALSE,FALSE,FALSE,FALSE,"""event"",""trial"",""time""
""fullscreenenter"",""5"",""19161""
","
","
","""event"",""trial"",""time""
""fullscreenenter"",""5"",""19161""
","
",NA,images/earth.jpg,NA,NA,NA,NA,NA,NA,NA,NA,NA,NA,NA,NA,NA,fixation,NA,NA,NA,NA,NA,NA,sub43
d3-animate-choice,279,956630,0.0-76.0-0.48,FALSE,FALSE,FALSE,FALSE,"""event"",""trial"",""time""
""fullscreenenter"",""5"",""19161""
","
","
","""event"",""trial"",""time""
""fullscreenenter"",""5"",""19161""
","
",356.7349999793805,NA,48,NA,NA,3000,1,NA,NA,images/earth.jpg,images/rocket1,images/rocket2,null,images/rocket1,NA,1,real,null,2,NA,NA,NA,sub43
d3-animate-choice,280,958977,0.0-76.0-1.48,FALSE,FALSE,FALSE,FALSE,"""event"",""trial"",""time""
""fullscreenenter"",""5"",""19161""
","
","
","""event"",""trial"",""time""
""fullscreenenter"",""5"",""19161""
","
",342.28499996243045,NA,48,NA,NA,3000,1,NA,NA,images/purpleplanet.jpg,images/alien4,images/alien3,images/rocket1,images/alien4,images/t.png,2,real,true,2,common,1,2020-06-11T20:06:02Z,sub43
two-step-fixation,281,959980,0.0-76.0-2.48,FALSE,FALSE,FALSE,FALSE,"""event"",""trial"",""time""
""fullscreenenter"",""5"",""19161""
","
","
","""event"",""trial"",""time""
""fullscreenenter"",""5"",""19161""
","
",NA,images/earth.jpg,NA,NA,NA,NA,NA,NA,NA,NA,NA,NA,NA,NA,NA,fixation,NA,NA,NA,NA,NA,NA,sub43
