trial_type,trial_index,time_elapsed,internal_node_id,rocket_sides,red_planet_first_rocket,red_display_order,purple_display_order,interactions,blur_events,focus_events,fullscreenenter_events,fullscreenexit_events,rt,stimulus,key_press,button_pressed,success,duration,valid_pressed,rts,keys,planet_text,right_text,left_text,center_text,chosen_text,reward_text,trial_stage,practice_trial,transition_type,choice,transition,reward,timestamp,subject_id
pavlovia,0,5,0.0-0.0,FALSE,TRUE,TRUE,FALSE,"
","
","
","
","
",NA,NA,NA,NA,NA,NA,NA,NA,NA,NA,NA,NA,NA,NA,NA,NA,NA,NA,NA,NA,NA,NA,sub119
html-keyboard-response,1,996,0.0-1.0,FALSE,TRUE,TRUE,FALSE,"
","
","
","
","
",990.0500000221655,Welcome! Press the space bar to begin.,32,NA,NA,NA,NA,NA,NA,NA,NA,NA,NA,NA,NA,NA,NA,NA,NA,NA,NA,NA,sub119
audio-keyboard-response,2,3505,0.0-2.0,FALSE,TRUE,TRUE,FALSE,"
","
","
","
","
",1811,audio/beep_loop.wav,32,NA,NA,NA,NA,NA,NA,NA,NA,NA,NA,NA,NA,NA,NA,NA,NA,NA,NA,NA,sub119
audio-button-response,3,5114,0.0-3.0,FALSE,TRUE,TRUE,FALSE,"
","
","
","
","
",NaN,audio/fish.mp3,NA,1,NA,NA,NA,NA,NA,NA,NA,NA,NA,NA,NA,NA,NA,NA,NA,NA,NA,NA,sub119
audio-button-response,4,7630,0.0-4.0,FALSE,TRUE,TRUE,FALSE,"""event"",""trial"",""time""
""fullscreenenter"",""5"",""10451""
","
","
","""event"",""trial"",""time""
""fullscreenenter"",""5"",""10451""
","
",NaN,audio/tiger.mp3,NA,4,NA,NA,NA,NA,NA,NA,NA,NA,NA,NA,NA,NA,NA,NA,NA,NA,NA,NA,sub119
fullscreen,5,11443,0.0-5.0,FALSE,TRUE,TRUE,FALSE,"""event"",""trial"",""time""
""fullscreenenter"",""5"",""10451""
","
","
","""event"",""trial"",""time""
""fullscreenenter"",""5"",""10451""
","
",NA,NA,NA,NA,TRUE,NA,NA,NA,NA,NA,NA,NA,NA,NA,NA,NA,NA,NA,NA,NA,NA,NA,sub119
d3-instructions,6,23628,0.0-6.0,FALSE,TRUE,TRUE,FALSE,"""event"",""trial"",""time""
""fullscreenenter"",""5"",""10451""
","
","
","""event"",""trial"",""time""
""fullscreenenter"",""5"",""10451""
","
",NA,NA,NA,NA,NA,NA,NA,NA,NA,NA,NA,NA,NA,NA,NA,NA,NA,NA,NA,NA,NA,NA,sub119
d3-instructions,7,30603,0.0-7.0,FALSE,TRUE,TRUE,FALSE,"""event"",""trial"",""time""
""fullscreenenter"",""5"",""10451""
","
","
","""event"",""trial"",""time""
""fullscreenenter"",""5"",""10451""
","
",NA,NA,NA,NA,NA,NA,NA,NA,NA,NA,NA,NA,NA,NA,NA,NA,NA,NA,NA,NA,NA,NA,sub119
d3-instructions,8,37114,0.0-8.0,FALSE,TRUE,TRUE,FALSE,"""event"",""trial"",""time""
""fullscreenenter"",""5"",""10451""
","
","
","""event"",""trial"",""time""
""fullscreenenter"",""5"",""10451""
","
",NA,NA,NA,NA,NA,NA,NA,NA,NA,NA,NA,NA,NA,NA,NA,NA,NA,NA,NA,NA,NA,NA,sub119
d3-instructions,9,47957,0.0-9.0,FALSE,TRUE,TRUE,FALSE,"""event"",""trial"",""time""
""fullscreenenter"",""5"",""10451""
","
","
","""event"",""trial"",""time""
""fullscreenenter"",""5"",""10451""
","
",NA,NA,NA,NA,NA,NA,NA,NA,NA,NA,NA,NA,NA,NA,NA,NA,NA,NA,NA,NA,NA,NA,sub119
d3-instructions,10,63089,0.0-10.0,FALSE,TRUE,TRUE,FALSE,"""event"",""trial"",""time""
""fullscreenenter"",""5"",""10451""
","
","
","""event"",""trial"",""time""
""fullscreenenter"",""5"",""10451""
","
",NA,NA,NA,NA,NA,NA,NA,NA,NA,NA,NA,NA,NA,NA,NA,NA,NA,NA,NA,NA,NA,NA,sub119
d3-animate-choice,11,67034,0.0-11.0,FALSE,TRUE,TRUE,FALSE,"""event"",""trial"",""time""
""fullscreenenter"",""5"",""10451""
","
","
","""event"",""trial"",""time""
""fullscreenenter"",""5"",""10451""
","
",1931.815000018105,NA,49,NA,NA,3000,1,"2862.699999997858,3737.390000023879",4849,images/tutgreenplanet.jpg,images/tutalien1,images/tutalien2,null,images/tutalien2,NA,NA,practice,null,NA,NA,NA,NA,sub119
d3-animate-choice,12,69493,0.0-12.0,FALSE,TRUE,TRUE,FALSE,"""event"",""trial"",""time""
""fullscreenenter"",""5"",""10451""
","
","
","""event"",""trial"",""time""
""fullscreenenter"",""5"",""10451""
","
",445.9350000252016,NA,48,NA,NA,3000,1,NA,NA,images/tutgreenplanet.jpg,images/tutalien1,images/tutalien2,null,images/tutalien1,NA,NA,practice,null,NA,NA,NA,NA,sub119
d3-animate-choice,13,72253,0.0-13.0,FALSE,TRUE,TRUE,FALSE,"""event"",""trial"",""time""
""fullscreenenter"",""5"",""10451""
","
","
","""event"",""trial"",""time""
""fullscreenenter"",""5"",""10451""
","
",756.7949999938719,NA,49,NA,NA,3000,1,2359.0599999879487,48,images/tutgreenplanet.jpg,images/tutalien1,images/tutalien2,null,images/tutalien2,NA,NA,practice,null,NA,NA,NA,NA,sub119
d3-animate-choice,14,74533,0.0-14.0,FALSE,TRUE,TRUE,FALSE,"""event"",""trial"",""time""
""fullscreenenter"",""5"",""10451""
","
","
","""event"",""trial"",""time""
""fullscreenenter"",""5"",""10451""
","
",267.8500000038184,NA,48,NA,NA,3000,1,NA,NA,images/tutgreenplanet.jpg,images/tutalien1,images/tutalien2,null,images/tutalien1,NA,NA,practice,null,NA,NA,NA,NA,sub119
d3-instructions,15,83434,0.0-15.0,FALSE,TRUE,TRUE,FALSE,"""event"",""trial"",""time""
""fullscreenenter"",""5"",""10451""
","
","
","""event"",""trial"",""time""
""fullscreenenter"",""5"",""10451""
","
",NA,NA,NA,NA,NA,NA,NA,NA,NA,NA,NA,NA,NA,NA,NA,NA,NA,NA,NA,NA,NA,NA,sub119
d3-instructions,16,88251,0.0-16.0,FALSE,TRUE,TRUE,FALSE,"""event"",""trial"",""time""
""fullscreenenter"",""5"",""10451""
","
","
","""event"",""trial"",""time""
""fullscreenenter"",""5"",""10451""
","
",NA,NA,NA,NA,NA,NA,NA,NA,NA,NA,NA,NA,NA,NA,NA,NA,NA,NA,NA,NA,NA,NA,sub119
d3-instructions,17,94364,0.0-17.0,FALSE,TRUE,TRUE,FALSE,"""event"",""trial"",""time""
""fullscreenenter"",""5"",""10451""
","
","
","""event"",""trial"",""time""
""fullscreenenter"",""5"",""10451""
","
",NA,NA,NA,NA,NA,NA,NA,NA,NA,NA,NA,NA,NA,NA,NA,NA,NA,NA,NA,NA,NA,NA,sub119
d3-instructions,18,105935,0.0-18.0,FALSE,TRUE,TRUE,FALSE,"""event"",""trial"",""time""
""fullscreenenter"",""5"",""10451""
","
","
","""event"",""trial"",""time""
""fullscreenenter"",""5"",""10451""
","
",NA,NA,NA,NA,NA,NA,NA,NA,NA,NA,NA,NA,NA,NA,NA,NA,NA,NA,NA,NA,NA,NA,sub119
d3-instructions,19,114925,0.0-19.0,FALSE,TRUE,TRUE,FALSE,"""event"",""trial"",""time""
""fullscreenenter"",""5"",""10451""
","
","
","""event"",""trial"",""time""
""fullscreenenter"",""5"",""10451""
","
",NA,NA,NA,NA,NA,NA,NA,NA,NA,NA,NA,NA,NA,NA,NA,NA,NA,NA,NA,NA,NA,NA,sub119
d3-animate-choice,20,117593,0.0-20.0,FALSE,TRUE,TRUE,FALSE,"""event"",""trial"",""time""
""fullscreenenter"",""5"",""10451""
","
","
","""event"",""trial"",""time""
""fullscreenenter"",""5"",""10451""
","
",645.5100000021048,NA,49,NA,NA,3000,1,NA,NA,images/tutyellowplanet.jpg,null,images/tutalien3,null,images/tutalien3,images/t.png,NA,practice,null,NA,NA,NA,NA,sub119
d3-animate-choice,21,119844,0.0-21.0,FALSE,TRUE,TRUE,FALSE,"""event"",""trial"",""time""
""fullscreenenter"",""5"",""10451""
","
","
","""event"",""trial"",""time""
""fullscreenenter"",""5"",""10451""
","
",233.75000001396984,NA,49,NA,NA,3000,1,1582.0400000084192,49,images/tutyellowplanet.jpg,null,images/tutalien3,null,images/tutalien3,images/t.png,NA,practice,null,NA,NA,NA,NA,sub119
d3-animate-choice,22,122053,0.0-22.0,FALSE,TRUE,TRUE,FALSE,"""event"",""trial"",""time""
""fullscreenenter"",""5"",""10451""
","
","
","""event"",""trial"",""time""
""fullscreenenter"",""5"",""10451""
","
",186.76500004949048,NA,49,NA,NA,3000,1,NA,NA,images/tutyellowplanet.jpg,null,images/tutalien3,null,images/tutalien3,images/t.png,NA,practice,null,NA,NA,NA,NA,sub119
d3-animate-choice,23,124203,0.0-23.0,FALSE,TRUE,TRUE,FALSE,"""event"",""trial"",""time""
""fullscreenenter"",""5"",""10451""
","
","
","""event"",""trial"",""time""
""fullscreenenter"",""5"",""10451""
","
",146.6150000342168,NA,49,NA,NA,3000,1,1855.2299999864772,49,images/tutyellowplanet.jpg,null,images/tutalien3,null,images/tutalien3,images/t.png,NA,practice,null,NA,NA,NA,NA,sub119
d3-animate-choice,24,126464,0.0-24.0,FALSE,TRUE,TRUE,FALSE,"""event"",""trial"",""time""
""fullscreenenter"",""5"",""10451""
","
","
","""event"",""trial"",""time""
""fullscreenenter"",""5"",""10451""
","
",249.2750000092201,NA,49,NA,NA,3000,1,NA,NA,images/tutyellowplanet.jpg,null,images/tutalien3,null,images/tutalien3,images/nothing.png,NA,practice,null,NA,NA,NA,NA,sub119
d3-animate-choice,25,128583,0.0-25.0,FALSE,TRUE,TRUE,FALSE,"""event"",""trial"",""time""
""fullscreenenter"",""5"",""10451""
","
","
","""event"",""trial"",""time""
""fullscreenenter"",""5"",""10451""
","
",105.09500000625849,NA,49,NA,NA,3000,1,NA,NA,images/tutyellowplanet.jpg,null,images/tutalien3,null,images/tutalien3,images/nothing.png,NA,practice,null,NA,NA,NA,NA,sub119
d3-animate-choice,26,130613,0.0-26.0,FALSE,TRUE,TRUE,FALSE,"""event"",""trial"",""time""
""fullscreenenter"",""5"",""10451""
","
","
","""event"",""trial"",""time""
""fullscreenenter"",""5"",""10451""
","
",16.390000004321337,NA,49,NA,NA,3000,1,"1490.1800000225194,1949.4399999966845",4949,images/tutyellowplanet.jpg,null,images/tutalien3,null,images/tutalien3,images/t.png,NA,practice,null,NA,NA,NA,NA,sub119
d3-animate-choice,27,133299,0.0-27.0,FALSE,TRUE,TRUE,FALSE,"""event"",""trial"",""time""
""fullscreenenter"",""5"",""10451""
","
","
","""event"",""trial"",""time""
""fullscreenenter"",""5"",""10451""
","
",673.804999969434,NA,49,NA,NA,3000,1,NA,NA,images/tutyellowplanet.jpg,null,images/tutalien3,null,images/tutalien3,images/t.png,NA,practice,null,NA,NA,NA,NA,sub119
d3-animate-choice,28,135570,0.0-28.0,FALSE,TRUE,TRUE,FALSE,"""event"",""trial"",""time""
""fullscreenenter"",""5"",""10451""
","
","
","""event"",""trial"",""time""
""fullscreenenter"",""5"",""10451""
","
",268.87999998871237,NA,49,NA,NA,3000,1,NA,NA,images/tutyellowplanet.jpg,null,images/tutalien3,null,images/tutalien3,images/nothing.png,NA,practice,null,NA,NA,NA,NA,sub119
d3-animate-choice,29,137984,0.0-29.0,FALSE,TRUE,TRUE,FALSE,"""event"",""trial"",""time""
""fullscreenenter"",""5"",""10451""
","
","
","""event"",""trial"",""time""
""fullscreenenter"",""5"",""10451""
","
",395.61499998671934,NA,49,NA,NA,3000,1,NA,NA,images/tutyellowplanet.jpg,null,images/tutalien3,null,images/tutalien3,images/nothing.png,NA,practice,null,NA,NA,NA,NA,sub119
d3-instructions,30,143585,0.0-30.0,FALSE,TRUE,TRUE,FALSE,"""event"",""trial"",""time""
""fullscreenenter"",""5"",""10451""
","
","
","""event"",""trial"",""time""
""fullscreenenter"",""5"",""10451""
","
",NA,NA,NA,NA,NA,NA,NA,NA,NA,NA,NA,NA,NA,NA,NA,NA,NA,NA,NA,NA,NA,NA,sub119
d3-instructions,31,147574,0.0-31.0,FALSE,TRUE,TRUE,FALSE,"""event"",""trial"",""time""
""fullscreenenter"",""5"",""10451""
","
","
","""event"",""trial"",""time""
""fullscreenenter"",""5"",""10451""
","
",NA,NA,NA,NA,NA,NA,NA,NA,NA,NA,NA,NA,NA,NA,NA,NA,NA,NA,NA,NA,NA,NA,sub119
d3-instructions,32,150777,0.0-32.0,FALSE,TRUE,TRUE,FALSE,"""event"",""trial"",""time""
""fullscreenenter"",""5"",""10451""
","
","
","""event"",""trial"",""time""
""fullscreenenter"",""5"",""10451""
","
",NA,NA,NA,NA,NA,NA,NA,NA,NA,NA,NA,NA,NA,NA,NA,NA,NA,NA,NA,NA,NA,NA,sub119
d3-instructions,33,172995,0.0-33.0,FALSE,TRUE,TRUE,FALSE,"""event"",""trial"",""time""
""fullscreenenter"",""5"",""10451""
","
","
","""event"",""trial"",""time""
""fullscreenenter"",""5"",""10451""
","
",NA,NA,NA,NA,NA,NA,NA,NA,NA,NA,NA,NA,NA,NA,NA,NA,NA,NA,NA,NA,NA,NA,sub119
d3-animate-choice,34,176534,0.0-34.0,FALSE,TRUE,TRUE,FALSE,"""event"",""trial"",""time""
""fullscreenenter"",""5"",""10451""
","
","
","""event"",""trial"",""time""
""fullscreenenter"",""5"",""10451""
","
",1526.9550000084564,NA,49,NA,NA,3000,1,NA,NA,images/tutgreenplanet.jpg,images/tutalien1,images/tutalien2,null,images/tutalien2,images/t.png,NA,practice,null,NA,NA,NA,NA,sub119
d3-animate-choice,35,178763,0.0-35.0,FALSE,TRUE,TRUE,FALSE,"""event"",""trial"",""time""
""fullscreenenter"",""5"",""10451""
","
","
","""event"",""trial"",""time""
""fullscreenenter"",""5"",""10451""
","
",209.7399999620393,NA,49,NA,NA,3000,1,NA,NA,images/tutgreenplanet.jpg,images/tutalien1,images/tutalien2,null,images/tutalien2,images/t.png,NA,practice,null,NA,NA,NA,NA,sub119
d3-animate-choice,36,181023,0.0-36.0,FALSE,TRUE,TRUE,FALSE,"""event"",""trial"",""time""
""fullscreenenter"",""5"",""10451""
","
","
","""event"",""trial"",""time""
""fullscreenenter"",""5"",""10451""
","
",244.47500001406297,NA,49,NA,NA,3000,1,NA,NA,images/tutgreenplanet.jpg,images/tutalien1,images/tutalien2,null,images/tutalien2,images/nothing.png,NA,practice,null,NA,NA,NA,NA,sub119
d3-animate-choice,37,183254,0.0-37.0,FALSE,TRUE,TRUE,FALSE,"""event"",""trial"",""time""
""fullscreenenter"",""5"",""10451""
","
","
","""event"",""trial"",""time""
""fullscreenenter"",""5"",""10451""
","
",225.76500003924593,NA,49,NA,NA,3000,1,NA,NA,images/tutgreenplanet.jpg,images/tutalien1,images/tutalien2,null,images/tutalien2,images/t.png,NA,practice,null,NA,NA,NA,NA,sub119
d3-animate-choice,38,185493,0.0-38.0,FALSE,TRUE,TRUE,FALSE,"""event"",""trial"",""time""
""fullscreenenter"",""5"",""10451""
","
","
","""event"",""trial"",""time""
""fullscreenenter"",""5"",""10451""
","
",229.96500000590459,NA,49,NA,NA,3000,1,1651.56000002753,49,images/tutgreenplanet.jpg,images/tutalien1,images/tutalien2,null,images/tutalien2,images/t.png,NA,practice,null,NA,NA,NA,NA,sub119
d3-animate-choice,39,187723,0.0-39.0,FALSE,TRUE,TRUE,FALSE,"""event"",""trial"",""time""
""fullscreenenter"",""5"",""10451""
","
","
","""event"",""trial"",""time""
""fullscreenenter"",""5"",""10451""
","
",216.649999958463,NA,49,NA,NA,3000,1,NA,NA,images/tutgreenplanet.jpg,images/tutalien1,images/tutalien2,null,images/tutalien2,images/t.png,NA,practice,null,NA,NA,NA,NA,sub119
d3-animate-choice,40,189913,0.0-40.0,FALSE,TRUE,TRUE,FALSE,"""event"",""trial"",""time""
""fullscreenenter"",""5"",""10451""
","
","
","""event"",""trial"",""time""
""fullscreenenter"",""5"",""10451""
","
",181.31000001449138,NA,49,NA,NA,3000,1,NA,NA,images/tutgreenplanet.jpg,images/tutalien1,images/tutalien2,null,images/tutalien2,images/t.png,NA,practice,null,NA,NA,NA,NA,sub119
d3-animate-choice,41,192132,0.0-41.0,FALSE,TRUE,TRUE,FALSE,"""event"",""trial"",""time""
""fullscreenenter"",""5"",""10451""
","
","
","""event"",""trial"",""time""
""fullscreenenter"",""5"",""10451""
","
",215.01500002341345,NA,49,NA,NA,3000,1,NA,NA,images/tutgreenplanet.jpg,images/tutalien1,images/tutalien2,null,images/tutalien2,images/t.png,NA,practice,null,NA,NA,NA,NA,sub119
d3-animate-choice,42,194358,0.0-42.0,FALSE,TRUE,TRUE,FALSE,"""event"",""trial"",""time""
""fullscreenenter"",""5"",""10451""
","
","
","""event"",""trial"",""time""
""fullscreenenter"",""5"",""10451""
","
",223.73999998671934,NA,49,NA,NA,3000,1,NA,NA,images/tutgreenplanet.jpg,images/tutalien1,images/tutalien2,null,images/tutalien2,images/t.png,NA,practice,null,NA,NA,NA,NA,sub119
d3-animate-choice,43,196509,0.0-43.0,FALSE,TRUE,TRUE,FALSE,"""event"",""trial"",""time""
""fullscreenenter"",""5"",""10451""
","
","
","""event"",""trial"",""time""
""fullscreenenter"",""5"",""10451""
","
",147.97499997075647,NA,49,NA,NA,3000,1,NA,NA,images/tutgreenplanet.jpg,images/tutalien1,images/tutalien2,null,images/tutalien2,images/nothing.png,NA,practice,null,NA,NA,NA,NA,sub119
d3-instructions,44,210795,0.0-44.0,FALSE,TRUE,TRUE,FALSE,"""event"",""trial"",""time""
""fullscreenenter"",""5"",""10451""
","
","
","""event"",""trial"",""time""
""fullscreenenter"",""5"",""10451""
","
",NA,NA,NA,NA,NA,NA,NA,NA,NA,NA,NA,NA,NA,NA,NA,NA,NA,NA,NA,NA,NA,NA,sub119
d3-instructions,45,235369,0.0-45.0,FALSE,TRUE,TRUE,FALSE,"""event"",""trial"",""time""
""fullscreenenter"",""5"",""10451""
","
","
","""event"",""trial"",""time""
""fullscreenenter"",""5"",""10451""
","
",NA,NA,NA,NA,NA,NA,NA,NA,NA,NA,NA,NA,NA,NA,NA,NA,NA,NA,NA,NA,NA,NA,sub119
d3-instructions,46,238073,0.0-46.0,FALSE,TRUE,TRUE,FALSE,"""event"",""trial"",""time""
""fullscreenenter"",""5"",""10451""
","
","
","""event"",""trial"",""time""
""fullscreenenter"",""5"",""10451""
","
",NA,NA,NA,NA,NA,NA,NA,NA,NA,NA,NA,NA,NA,NA,NA,NA,NA,NA,NA,NA,NA,NA,sub119
d3-instructions,47,251409,0.0-47.0,FALSE,TRUE,TRUE,FALSE,"""event"",""trial"",""time""
""fullscreenenter"",""5"",""10451""
","
","
","""event"",""trial"",""time""
""fullscreenenter"",""5"",""10451""
","
",NA,NA,NA,NA,NA,NA,NA,NA,NA,NA,NA,NA,NA,NA,NA,NA,NA,NA,NA,NA,NA,NA,sub119
d3-instructions,48,254323,0.0-48.0,FALSE,TRUE,TRUE,FALSE,"""event"",""trial"",""time""
""fullscreenenter"",""5"",""10451""
","
","
","""event"",""trial"",""time""
""fullscreenenter"",""5"",""10451""
","
",NA,NA,NA,NA,NA,NA,NA,NA,NA,NA,NA,NA,NA,NA,NA,NA,NA,NA,NA,NA,NA,NA,sub119
d3-instructions,49,258946,0.0-49.0,FALSE,TRUE,TRUE,FALSE,"""event"",""trial"",""time""
""fullscreenenter"",""5"",""10451""
","
","
","""event"",""trial"",""time""
""fullscreenenter"",""5"",""10451""
","
",NA,NA,NA,NA,NA,NA,NA,NA,NA,NA,NA,NA,NA,NA,NA,NA,NA,NA,NA,NA,NA,NA,sub119
d3-instructions,50,264055,0.0-50.0,FALSE,TRUE,TRUE,FALSE,"""event"",""trial"",""time""
""fullscreenenter"",""5"",""10451""
","
","
","""event"",""trial"",""time""
""fullscreenenter"",""5"",""10451""
","
",NA,NA,NA,NA,NA,NA,NA,NA,NA,NA,NA,NA,NA,NA,NA,NA,NA,NA,NA,NA,NA,NA,sub119
d3-instructions,51,266944,0.0-51.0,FALSE,TRUE,TRUE,FALSE,"""event"",""trial"",""time""
""fullscreenenter"",""5"",""10451""
","
","
","""event"",""trial"",""time""
""fullscreenenter"",""5"",""10451""
","
",NA,NA,NA,NA,NA,NA,NA,NA,NA,NA,NA,NA,NA,NA,NA,NA,NA,NA,NA,NA,NA,NA,sub119
d3-instructions,52,269541,0.0-52.0,FALSE,TRUE,TRUE,FALSE,"""event"",""trial"",""time""
""fullscreenenter"",""5"",""10451""
","
","
","""event"",""trial"",""time""
""fullscreenenter"",""5"",""10451""
","
",NA,NA,NA,NA,NA,NA,NA,NA,NA,NA,NA,NA,NA,NA,NA,NA,NA,NA,NA,NA,NA,NA,sub119
d3-instructions,53,275953,0.0-53.0,FALSE,TRUE,TRUE,FALSE,"""event"",""trial"",""time""
""fullscreenenter"",""5"",""10451""
","
","
","""event"",""trial"",""time""
""fullscreenenter"",""5"",""10451""
","
",NA,NA,NA,NA,NA,NA,NA,NA,NA,NA,NA,NA,NA,NA,NA,NA,NA,NA,NA,NA,NA,NA,sub119
d3-instructions,54,285528,0.0-54.0,FALSE,TRUE,TRUE,FALSE,"""event"",""trial"",""time""
""fullscreenenter"",""5"",""10451""
","
","
","""event"",""trial"",""time""
""fullscreenenter"",""5"",""10451""
","
",NA,NA,NA,NA,NA,NA,NA,NA,NA,NA,NA,NA,NA,NA,NA,NA,NA,NA,NA,NA,NA,NA,sub119
d3-instructions,55,289868,0.0-55.0,FALSE,TRUE,TRUE,FALSE,"""event"",""trial"",""time""
""fullscreenenter"",""5"",""10451""
","
","
","""event"",""trial"",""time""
""fullscreenenter"",""5"",""10451""
","
",NA,NA,NA,NA,NA,NA,NA,NA,NA,NA,NA,NA,NA,NA,NA,NA,NA,NA,NA,NA,NA,NA,sub119
d3-instructions,56,293016,0.0-56.0,FALSE,TRUE,TRUE,FALSE,"""event"",""trial"",""time""
""fullscreenenter"",""5"",""10451""
","
","
","""event"",""trial"",""time""
""fullscreenenter"",""5"",""10451""
","
",NA,NA,NA,NA,NA,NA,NA,NA,NA,NA,NA,NA,NA,NA,NA,NA,NA,NA,NA,NA,NA,NA,sub119
d3-instructions,57,301686,0.0-57.0,FALSE,TRUE,TRUE,FALSE,"""event"",""trial"",""time""
""fullscreenenter"",""5"",""10451""
","
","
","""event"",""trial"",""time""
""fullscreenenter"",""5"",""10451""
","
",NA,NA,NA,NA,NA,NA,NA,NA,NA,NA,NA,NA,NA,NA,NA,NA,NA,NA,NA,NA,NA,NA,sub119
d3-instructions,58,306501,0.0-58.0,FALSE,TRUE,TRUE,FALSE,"""event"",""trial"",""time""
""fullscreenenter"",""5"",""10451""
","
","
","""event"",""trial"",""time""
""fullscreenenter"",""5"",""10451""
","
",NA,NA,NA,NA,NA,NA,NA,NA,NA,NA,NA,NA,NA,NA,NA,NA,NA,NA,NA,NA,NA,NA,sub119
d3-instructions,59,309019,0.0-59.0,FALSE,TRUE,TRUE,FALSE,"""event"",""trial"",""time""
""fullscreenenter"",""5"",""10451""
","
","
","""event"",""trial"",""time""
""fullscreenenter"",""5"",""10451""
","
",NA,NA,NA,NA,NA,NA,NA,NA,NA,NA,NA,NA,NA,NA,NA,NA,NA,NA,NA,NA,NA,NA,sub119
d3-instructions,60,312331,0.0-60.0,FALSE,TRUE,TRUE,FALSE,"""event"",""trial"",""time""
""fullscreenenter"",""5"",""10451""
","
","
","""event"",""trial"",""time""
""fullscreenenter"",""5"",""10451""
","
",NA,NA,NA,NA,NA,NA,NA,NA,NA,NA,NA,NA,NA,NA,NA,NA,NA,NA,NA,NA,NA,NA,sub119
d3-animate-choice,61,315237,0.0-61.0-0.0,FALSE,TRUE,TRUE,FALSE,"""event"",""trial"",""time""
""fullscreenenter"",""5"",""10451""
","
","
","""event"",""trial"",""time""
""fullscreenenter"",""5"",""10451""
","
",893.3299999916926,NA,49,NA,NA,3000,1,NA,NA,images/earth.jpg,images/tutrocket2,images/tutrocket1,null,images/tutrocket1,NA,1,practice,null,1,NA,NA,NA,sub119
d3-animate-choice,62,318662,0.0-61.0-1.0,FALSE,TRUE,TRUE,FALSE,"""event"",""trial"",""time""
""fullscreenenter"",""5"",""10451""
","
","
","""event"",""trial"",""time""
""fullscreenenter"",""5"",""10451""
","
",1419.2849999526516,NA,49,NA,NA,3000,1,NA,NA,images/tutgreenplanet.jpg,images/tutalien2,images/tutalien1,images/tutrocket1,images/tutalien1,images/nothing.png,2,practice,true,1,common,0,2020-06-20T13:03:22Z,sub119
two-step-fixation,63,319666,0.0-61.0-2.0,FALSE,TRUE,TRUE,FALSE,"""event"",""trial"",""time""
""fullscreenenter"",""5"",""10451""
","
","
","""event"",""trial"",""time""
""fullscreenenter"",""5"",""10451""
","
",NA,images/earth.jpg,NA,NA,NA,NA,NA,NA,NA,NA,NA,NA,NA,NA,NA,fixation,NA,NA,NA,NA,NA,NA,sub119
d3-animate-choice,64,322504,0.0-61.0-0.1,FALSE,TRUE,TRUE,FALSE,"""event"",""trial"",""time""
""fullscreenenter"",""5"",""10451""
","
","
","""event"",""trial"",""time""
""fullscreenenter"",""5"",""10451""
","
",829.7299999976531,NA,49,NA,NA,3000,1,NA,NA,images/earth.jpg,images/tutrocket2,images/tutrocket1,null,images/tutrocket1,NA,1,practice,null,1,NA,NA,NA,sub119
d3-animate-choice,65,325917,0.0-61.0-1.1,FALSE,TRUE,TRUE,FALSE,"""event"",""trial"",""time""
""fullscreenenter"",""5"",""10451""
","
","
","""event"",""trial"",""time""
""fullscreenenter"",""5"",""10451""
","
",1392.714999965392,NA,48,NA,NA,3000,1,NA,NA,images/tutgreenplanet.jpg,images/tutalien2,images/tutalien1,images/tutrocket1,images/tutalien2,images/nothing.png,2,practice,true,2,common,0,2020-06-20T13:03:30Z,sub119
two-step-fixation,66,326937,0.0-61.0-2.1,FALSE,TRUE,TRUE,FALSE,"""event"",""trial"",""time""
""fullscreenenter"",""5"",""10451""
","
","
","""event"",""trial"",""time""
""fullscreenenter"",""5"",""10451""
","
",NA,images/earth.jpg,NA,NA,NA,NA,NA,NA,NA,NA,NA,NA,NA,NA,NA,fixation,NA,NA,NA,NA,NA,NA,sub119
d3-animate-choice,67,329917,0.0-61.0-0.2,FALSE,TRUE,TRUE,FALSE,"""event"",""trial"",""time""
""fullscreenenter"",""5"",""10451""
","
","
","""event"",""trial"",""time""
""fullscreenenter"",""5"",""10451""
","
",957.3800000362098,NA,48,NA,NA,3000,1,NA,NA,images/earth.jpg,images/tutrocket2,images/tutrocket1,null,images/tutrocket2,NA,1,practice,null,2,NA,NA,NA,sub119
d3-animate-choice,68,332248,0.0-61.0-1.2,FALSE,TRUE,TRUE,FALSE,"""event"",""trial"",""time""
""fullscreenenter"",""5"",""10451""
","
","
","""event"",""trial"",""time""
""fullscreenenter"",""5"",""10451""
","
",316.07500003883615,NA,49,NA,NA,3000,1,NA,NA,images/tutgreenplanet.jpg,images/tutalien2,images/tutalien1,images/tutrocket2,images/tutalien1,images/nothing.png,2,practice,false,1,rare,0,2020-06-20T13:03:36Z,sub119
two-step-fixation,69,333250,0.0-61.0-2.2,FALSE,TRUE,TRUE,FALSE,"""event"",""trial"",""time""
""fullscreenenter"",""5"",""10451""
","
","
","""event"",""trial"",""time""
""fullscreenenter"",""5"",""10451""
","
",NA,images/earth.jpg,NA,NA,NA,NA,NA,NA,NA,NA,NA,NA,NA,NA,NA,fixation,NA,NA,NA,NA,NA,NA,sub119
d3-animate-choice,70,335488,0.0-61.0-0.3,FALSE,TRUE,TRUE,FALSE,"""event"",""trial"",""time""
""fullscreenenter"",""5"",""10451""
","
","
","""event"",""trial"",""time""
""fullscreenenter"",""5"",""10451""
","
",223.9500000141561,NA,48,NA,NA,3000,1,NA,NA,images/earth.jpg,images/tutrocket2,images/tutrocket1,null,images/tutrocket2,NA,1,practice,null,2,NA,NA,NA,sub119
d3-animate-choice,71,337679,0.0-61.0-1.3,FALSE,TRUE,TRUE,FALSE,"""event"",""trial"",""time""
""fullscreenenter"",""5"",""10451""
","
","
","""event"",""trial"",""time""
""fullscreenenter"",""5"",""10451""
","
",178.05499996757135,NA,48,NA,NA,3000,1,NA,NA,images/tutgreenplanet.jpg,images/tutalien2,images/tutalien1,images/tutrocket2,images/tutalien2,images/nothing.png,2,practice,false,2,rare,0,2020-06-20T13:03:41Z,sub119
two-step-fixation,72,338682,0.0-61.0-2.3,FALSE,TRUE,TRUE,FALSE,"""event"",""trial"",""time""
""fullscreenenter"",""5"",""10451""
","
","
","""event"",""trial"",""time""
""fullscreenenter"",""5"",""10451""
","
",NA,images/earth.jpg,NA,NA,NA,NA,NA,NA,NA,NA,NA,NA,NA,NA,NA,fixation,NA,NA,NA,NA,NA,NA,sub119
d3-animate-choice,73,340975,0.0-61.0-0.4,FALSE,TRUE,TRUE,FALSE,"""event"",""trial"",""time""
""fullscreenenter"",""5"",""10451""
","
","
","""event"",""trial"",""time""
""fullscreenenter"",""5"",""10451""
","
",288.9650000142865,NA,49,NA,NA,3000,1,NA,NA,images/earth.jpg,images/tutrocket2,images/tutrocket1,null,images/tutrocket1,NA,1,practice,null,1,NA,NA,NA,sub119
d3-animate-choice,74,343415,0.0-61.0-1.4,FALSE,TRUE,TRUE,FALSE,"""event"",""trial"",""time""
""fullscreenenter"",""5"",""10451""
","
","
","""event"",""trial"",""time""
""fullscreenenter"",""5"",""10451""
","
",437.46000004466623,NA,49,NA,NA,3000,1,NA,NA,images/tutyellowplanet.jpg,images/tutalien4,images/tutalien3,images/tutrocket1,images/tutalien3,images/nothing.png,2,practice,false,1,rare,0,2020-06-20T13:03:47Z,sub119
two-step-fixation,75,344418,0.0-61.0-2.4,FALSE,TRUE,TRUE,FALSE,"""event"",""trial"",""time""
""fullscreenenter"",""5"",""10451""
","
","
","""event"",""trial"",""time""
""fullscreenenter"",""5"",""10451""
","
",NA,images/earth.jpg,NA,NA,NA,NA,NA,NA,NA,NA,NA,NA,NA,NA,NA,fixation,NA,NA,NA,NA,NA,NA,sub119
d3-animate-choice,76,346918,0.0-61.0-0.5,FALSE,TRUE,TRUE,FALSE,"""event"",""trial"",""time""
""fullscreenenter"",""5"",""10451""
","
","
","""event"",""trial"",""time""
""fullscreenenter"",""5"",""10451""
","
",497.52500001341105,NA,49,NA,NA,3000,1,NA,NA,images/earth.jpg,images/tutrocket2,images/tutrocket1,null,images/tutrocket1,NA,1,practice,null,1,NA,NA,NA,sub119
d3-animate-choice,77,349649,0.0-61.0-1.5,FALSE,TRUE,TRUE,FALSE,"""event"",""trial"",""time""
""fullscreenenter"",""5"",""10451""
","
","
","""event"",""trial"",""time""
""fullscreenenter"",""5"",""10451""
","
",726.9399999640882,NA,49,NA,NA,3000,1,NA,NA,images/tutyellowplanet.jpg,images/tutalien4,images/tutalien3,images/tutrocket1,images/tutalien3,images/nothing.png,2,practice,false,1,rare,0,2020-06-20T13:03:53Z,sub119
two-step-fixation,78,350652,0.0-61.0-2.5,FALSE,TRUE,TRUE,FALSE,"""event"",""trial"",""time""
""fullscreenenter"",""5"",""10451""
","
","
","""event"",""trial"",""time""
""fullscreenenter"",""5"",""10451""
","
",NA,images/earth.jpg,NA,NA,NA,NA,NA,NA,NA,NA,NA,NA,NA,NA,NA,fixation,NA,NA,NA,NA,NA,NA,sub119
d3-animate-choice,79,352936,0.0-61.0-0.6,FALSE,TRUE,TRUE,FALSE,"""event"",""trial"",""time""
""fullscreenenter"",""5"",""10451""
","
","
","""event"",""trial"",""time""
""fullscreenenter"",""5"",""10451""
","
",279.7599999466911,NA,49,NA,NA,3000,1,NA,NA,images/earth.jpg,images/tutrocket2,images/tutrocket1,null,images/tutrocket1,NA,1,practice,null,1,NA,NA,NA,sub119
d3-animate-choice,80,355325,0.0-61.0-1.6,FALSE,TRUE,TRUE,FALSE,"""event"",""trial"",""time""
""fullscreenenter"",""5"",""10451""
","
","
","""event"",""trial"",""time""
""fullscreenenter"",""5"",""10451""
","
",386.1299999989569,NA,48,NA,NA,3000,1,NA,NA,images/tutgreenplanet.jpg,images/tutalien2,images/tutalien1,images/tutrocket1,images/tutalien2,images/nothing.png,2,practice,true,2,common,0,2020-06-20T13:03:59Z,sub119
two-step-fixation,81,356328,0.0-61.0-2.6,FALSE,TRUE,TRUE,FALSE,"""event"",""trial"",""time""
""fullscreenenter"",""5"",""10451""
","
","
","""event"",""trial"",""time""
""fullscreenenter"",""5"",""10451""
","
",NA,images/earth.jpg,NA,NA,NA,NA,NA,NA,NA,NA,NA,NA,NA,NA,NA,fixation,NA,NA,NA,NA,NA,NA,sub119
d3-animate-choice,82,358389,0.0-61.0-0.7,FALSE,TRUE,TRUE,FALSE,"""event"",""trial"",""time""
""fullscreenenter"",""5"",""10451""
","
","
","""event"",""trial"",""time""
""fullscreenenter"",""5"",""10451""
","
",57.05499998293817,NA,49,NA,NA,3000,1,NA,NA,images/earth.jpg,images/tutrocket2,images/tutrocket1,null,images/tutrocket1,NA,1,practice,null,1,NA,NA,NA,sub119
d3-animate-choice,83,360753,0.0-61.0-1.7,FALSE,TRUE,TRUE,FALSE,"""event"",""trial"",""time""
""fullscreenenter"",""5"",""10451""
","
","
","""event"",""trial"",""time""
""fullscreenenter"",""5"",""10451""
","
",360.1050000288524,NA,48,NA,NA,3000,1,NA,NA,images/tutgreenplanet.jpg,images/tutalien2,images/tutalien1,images/tutrocket1,images/tutalien2,images/nothing.png,2,practice,true,2,common,0,2020-06-20T13:04:04Z,sub119
two-step-fixation,84,361756,0.0-61.0-2.7,FALSE,TRUE,TRUE,FALSE,"""event"",""trial"",""time""
""fullscreenenter"",""5"",""10451""
","
","
","""event"",""trial"",""time""
""fullscreenenter"",""5"",""10451""
","
",NA,images/earth.jpg,NA,NA,NA,NA,NA,NA,NA,NA,NA,NA,NA,NA,NA,fixation,NA,NA,NA,NA,NA,NA,sub119
d3-animate-choice,85,364166,0.0-61.0-0.8,FALSE,TRUE,TRUE,FALSE,"""event"",""trial"",""time""
""fullscreenenter"",""5"",""10451""
","
","
","""event"",""trial"",""time""
""fullscreenenter"",""5"",""10451""
","
",406.3849999802187,NA,49,NA,NA,3000,1,NA,NA,images/earth.jpg,images/tutrocket2,images/tutrocket1,null,images/tutrocket1,NA,1,practice,null,1,NA,NA,NA,sub119
d3-animate-choice,86,367224,0.0-61.0-1.8,FALSE,TRUE,TRUE,FALSE,"""event"",""trial"",""time""
""fullscreenenter"",""5"",""10451""
","
","
","""event"",""trial"",""time""
""fullscreenenter"",""5"",""10451""
","
",1054.7699999879114,NA,49,NA,NA,3000,1,NA,NA,images/tutgreenplanet.jpg,images/tutalien2,images/tutalien1,images/tutrocket1,images/tutalien1,images/nothing.png,2,practice,true,1,common,0,2020-06-20T13:04:11Z,sub119
two-step-fixation,87,368227,0.0-61.0-2.8,FALSE,TRUE,TRUE,FALSE,"""event"",""trial"",""time""
""fullscreenenter"",""5"",""10451""
","
","
","""event"",""trial"",""time""
""fullscreenenter"",""5"",""10451""
","
",NA,images/earth.jpg,NA,NA,NA,NA,NA,NA,NA,NA,NA,NA,NA,NA,NA,fixation,NA,NA,NA,NA,NA,NA,sub119
d3-animate-choice,88,370474,0.0-61.0-0.9,FALSE,TRUE,TRUE,FALSE,"""event"",""trial"",""time""
""fullscreenenter"",""5"",""10451""
","
","
","""event"",""trial"",""time""
""fullscreenenter"",""5"",""10451""
","
",243.7449999852106,NA,48,NA,NA,3000,1,NA,NA,images/earth.jpg,images/tutrocket2,images/tutrocket1,null,images/tutrocket2,NA,1,practice,null,2,NA,NA,NA,sub119
d3-animate-choice,89,373041,0.0-61.0-1.9,FALSE,TRUE,TRUE,FALSE,"""event"",""trial"",""time""
""fullscreenenter"",""5"",""10451""
","
","
","""event"",""trial"",""time""
""fullscreenenter"",""5"",""10451""
","
",563.3549999911338,NA,48,NA,NA,3000,1,NA,NA,images/tutyellowplanet.jpg,images/tutalien4,images/tutalien3,images/tutrocket2,images/tutalien4,images/t.png,2,practice,true,2,common,1,2020-06-20T13:04:17Z,sub119
two-step-fixation,90,374044,0.0-61.0-2.9,FALSE,TRUE,TRUE,FALSE,"""event"",""trial"",""time""
""fullscreenenter"",""5"",""10451""
","
","
","""event"",""trial"",""time""
""fullscreenenter"",""5"",""10451""
","
",NA,images/earth.jpg,NA,NA,NA,NA,NA,NA,NA,NA,NA,NA,NA,NA,NA,fixation,NA,NA,NA,NA,NA,NA,sub119
d3-animate-choice,91,376119,0.0-61.0-0.10,FALSE,TRUE,TRUE,FALSE,"""event"",""trial"",""time""
""fullscreenenter"",""5"",""10451""
","
","
","""event"",""trial"",""time""
""fullscreenenter"",""5"",""10451""
","
",72.29500001994893,NA,48,NA,NA,3000,1,NA,NA,images/earth.jpg,images/tutrocket2,images/tutrocket1,null,images/tutrocket2,NA,1,practice,null,2,NA,NA,NA,sub119
d3-animate-choice,92,378350,0.0-61.0-1.10,FALSE,TRUE,TRUE,FALSE,"""event"",""trial"",""time""
""fullscreenenter"",""5"",""10451""
","
","
","""event"",""trial"",""time""
""fullscreenenter"",""5"",""10451""
","
",226.9150000065565,NA,48,NA,NA,3000,1,634.8649999708869,48,images/tutyellowplanet.jpg,images/tutalien4,images/tutalien3,images/tutrocket2,images/tutalien4,images/t.png,2,practice,true,2,common,1,2020-06-20T13:04:22Z,sub119
two-step-fixation,93,379353,0.0-61.0-2.10,FALSE,TRUE,TRUE,FALSE,"""event"",""trial"",""time""
""fullscreenenter"",""5"",""10451""
","
","
","""event"",""trial"",""time""
""fullscreenenter"",""5"",""10451""
","
",NA,images/earth.jpg,NA,NA,NA,NA,NA,NA,NA,NA,NA,NA,NA,NA,NA,fixation,NA,NA,NA,NA,NA,NA,sub119
d3-animate-choice,94,381666,0.0-61.0-0.11,FALSE,TRUE,TRUE,FALSE,"""event"",""trial"",""time""
""fullscreenenter"",""5"",""10451""
","
","
","""event"",""trial"",""time""
""fullscreenenter"",""5"",""10451""
","
",310.47500000568107,NA,48,NA,NA,3000,1,NA,NA,images/earth.jpg,images/tutrocket2,images/tutrocket1,null,images/tutrocket2,NA,1,practice,null,2,NA,NA,NA,sub119
d3-animate-choice,95,383910,0.0-61.0-1.11,FALSE,TRUE,TRUE,FALSE,"""event"",""trial"",""time""
""fullscreenenter"",""5"",""10451""
","
","
","""event"",""trial"",""time""
""fullscreenenter"",""5"",""10451""
","
",239.55499997828156,NA,48,NA,NA,3000,1,NA,NA,images/tutyellowplanet.jpg,images/tutalien4,images/tutalien3,images/tutrocket2,images/tutalien4,images/t.png,2,practice,true,2,common,1,2020-06-20T13:04:28Z,sub119
two-step-fixation,96,384912,0.0-61.0-2.11,FALSE,TRUE,TRUE,FALSE,"""event"",""trial"",""time""
""fullscreenenter"",""5"",""10451""
","
","
","""event"",""trial"",""time""
""fullscreenenter"",""5"",""10451""
","
",NA,images/earth.jpg,NA,NA,NA,NA,NA,NA,NA,NA,NA,NA,NA,NA,NA,fixation,NA,NA,NA,NA,NA,NA,sub119
d3-animate-choice,97,387078,0.0-61.0-0.12,FALSE,TRUE,TRUE,FALSE,"""event"",""trial"",""time""
""fullscreenenter"",""5"",""10451""
","
","
","""event"",""trial"",""time""
""fullscreenenter"",""5"",""10451""
","
",162.73500001989305,NA,48,NA,NA,3000,1,NA,NA,images/earth.jpg,images/tutrocket2,images/tutrocket1,null,images/tutrocket2,NA,1,practice,null,2,NA,NA,NA,sub119
d3-animate-choice,98,389326,0.0-61.0-1.12,FALSE,TRUE,TRUE,FALSE,"""event"",""trial"",""time""
""fullscreenenter"",""5"",""10451""
","
","
","""event"",""trial"",""time""
""fullscreenenter"",""5"",""10451""
","
",243.4699999867007,NA,48,NA,NA,3000,1,NA,NA,images/tutyellowplanet.jpg,images/tutalien4,images/tutalien3,images/tutrocket2,images/tutalien4,images/nothing.png,2,practice,true,2,common,0,2020-06-20T13:04:33Z,sub119
two-step-fixation,99,390332,0.0-61.0-2.12,FALSE,TRUE,TRUE,FALSE,"""event"",""trial"",""time""
""fullscreenenter"",""5"",""10451""
","
","
","""event"",""trial"",""time""
""fullscreenenter"",""5"",""10451""
","
",NA,images/earth.jpg,NA,NA,NA,NA,NA,NA,NA,NA,NA,NA,NA,NA,NA,fixation,NA,NA,NA,NA,NA,NA,sub119
d3-animate-choice,100,392411,0.0-61.0-0.13,FALSE,TRUE,TRUE,FALSE,"""event"",""trial"",""time""
""fullscreenenter"",""5"",""10451""
","
","
","""event"",""trial"",""time""
""fullscreenenter"",""5"",""10451""
","
",76.19499997235835,NA,48,NA,NA,3000,1,NA,NA,images/earth.jpg,images/tutrocket2,images/tutrocket1,null,images/tutrocket2,NA,1,practice,null,2,NA,NA,NA,sub119
d3-animate-choice,101,394681,0.0-61.0-1.13,FALSE,TRUE,TRUE,FALSE,"""event"",""trial"",""time""
""fullscreenenter"",""5"",""10451""
","
","
","""event"",""trial"",""time""
""fullscreenenter"",""5"",""10451""
","
",266.13999996334314,NA,48,NA,NA,3000,1,NA,NA,images/tutyellowplanet.jpg,images/tutalien4,images/tutalien3,images/tutrocket2,images/tutalien4,images/nothing.png,2,practice,true,2,common,0,2020-06-20T13:04:38Z,sub119
two-step-fixation,102,395684,0.0-61.0-2.13,FALSE,TRUE,TRUE,FALSE,"""event"",""trial"",""time""
""fullscreenenter"",""5"",""10451""
","
","
","""event"",""trial"",""time""
""fullscreenenter"",""5"",""10451""
","
",NA,images/earth.jpg,NA,NA,NA,NA,NA,NA,NA,NA,NA,NA,NA,NA,NA,fixation,NA,NA,NA,NA,NA,NA,sub119
d3-animate-choice,103,398056,0.0-61.0-0.14,FALSE,TRUE,TRUE,FALSE,"""event"",""trial"",""time""
""fullscreenenter"",""5"",""10451""
","
","
","""event"",""trial"",""time""
""fullscreenenter"",""5"",""10451""
","
",368.3949999976903,NA,48,NA,NA,3000,1,NA,NA,images/earth.jpg,images/tutrocket2,images/tutrocket1,null,images/tutrocket2,NA,1,practice,null,2,NA,NA,NA,sub119
d3-animate-choice,104,400320,0.0-61.0-1.14,FALSE,TRUE,TRUE,FALSE,"""event"",""trial"",""time""
""fullscreenenter"",""5"",""10451""
","
","
","""event"",""trial"",""time""
""fullscreenenter"",""5"",""10451""
","
",259.67499997932464,NA,49,NA,NA,3000,1,NA,NA,images/tutyellowplanet.jpg,images/tutalien4,images/tutalien3,images/tutrocket2,images/tutalien3,images/t.png,2,practice,true,1,common,1,2020-06-20T13:04:44Z,sub119
two-step-fixation,105,401323,0.0-61.0-2.14,FALSE,TRUE,TRUE,FALSE,"""event"",""trial"",""time""
""fullscreenenter"",""5"",""10451""
","
","
","""event"",""trial"",""time""
""fullscreenenter"",""5"",""10451""
","
",NA,images/earth.jpg,NA,NA,NA,NA,NA,NA,NA,NA,NA,NA,NA,NA,NA,fixation,NA,NA,NA,NA,NA,NA,sub119
d3-animate-choice,106,403472,0.0-61.0-0.15,FALSE,TRUE,TRUE,FALSE,"""event"",""trial"",""time""
""fullscreenenter"",""5"",""10451""
","
","
","""event"",""trial"",""time""
""fullscreenenter"",""5"",""10451""
","
",145.42999997502193,NA,48,NA,NA,3000,1,NA,NA,images/earth.jpg,images/tutrocket2,images/tutrocket1,null,images/tutrocket2,NA,1,practice,null,2,NA,NA,NA,sub119
d3-animate-choice,107,406021,0.0-61.0-1.15,FALSE,TRUE,TRUE,FALSE,"""event"",""trial"",""time""
""fullscreenenter"",""5"",""10451""
","
","
","""event"",""trial"",""time""
""fullscreenenter"",""5"",""10451""
","
",545.734999992419,NA,49,NA,NA,3000,1,NA,NA,images/tutgreenplanet.jpg,images/tutalien2,images/tutalien1,images/tutrocket2,images/tutalien1,images/nothing.png,2,practice,false,1,rare,0,2020-06-20T13:04:50Z,sub119
two-step-fixation,108,407024,0.0-61.0-2.15,FALSE,TRUE,TRUE,FALSE,"""event"",""trial"",""time""
""fullscreenenter"",""5"",""10451""
","
","
","""event"",""trial"",""time""
""fullscreenenter"",""5"",""10451""
","
",NA,images/earth.jpg,NA,NA,NA,NA,NA,NA,NA,NA,NA,NA,NA,NA,NA,fixation,NA,NA,NA,NA,NA,NA,sub119
d3-animate-choice,109,409780,0.0-61.0-0.16,FALSE,TRUE,TRUE,FALSE,"""event"",""trial"",""time""
""fullscreenenter"",""5"",""10451""
","
","
","""event"",""trial"",""time""
""fullscreenenter"",""5"",""10451""
","
",753.1249999883585,NA,48,NA,NA,3000,1,NA,NA,images/earth.jpg,images/tutrocket2,images/tutrocket1,null,images/tutrocket2,NA,1,practice,null,2,NA,NA,NA,sub119
d3-animate-choice,110,412003,0.0-61.0-1.16,FALSE,TRUE,TRUE,FALSE,"""event"",""trial"",""time""
""fullscreenenter"",""5"",""10451""
","
","
","""event"",""trial"",""time""
""fullscreenenter"",""5"",""10451""
","
",219.4749999907799,NA,49,NA,NA,3000,1,NA,NA,images/tutyellowplanet.jpg,images/tutalien4,images/tutalien3,images/tutrocket2,images/tutalien3,images/nothing.png,2,practice,true,1,common,0,2020-06-20T13:04:56Z,sub119
two-step-fixation,111,413007,0.0-61.0-2.16,FALSE,TRUE,TRUE,FALSE,"""event"",""trial"",""time""
""fullscreenenter"",""5"",""10451""
","
","
","""event"",""trial"",""time""
""fullscreenenter"",""5"",""10451""
","
",NA,images/earth.jpg,NA,NA,NA,NA,NA,NA,NA,NA,NA,NA,NA,NA,NA,fixation,NA,NA,NA,NA,NA,NA,sub119
d3-animate-choice,112,415142,0.0-61.0-0.17,FALSE,TRUE,TRUE,FALSE,"""event"",""trial"",""time""
""fullscreenenter"",""5"",""10451""
","
","
","""event"",""trial"",""time""
""fullscreenenter"",""5"",""10451""
","
",132.87500001024455,NA,49,NA,NA,3000,1,NA,NA,images/earth.jpg,images/tutrocket2,images/tutrocket1,null,images/tutrocket1,NA,1,practice,null,1,NA,NA,NA,sub119
d3-animate-choice,113,417351,0.0-61.0-1.17,FALSE,TRUE,TRUE,FALSE,"""event"",""trial"",""time""
""fullscreenenter"",""5"",""10451""
","
","
","""event"",""trial"",""time""
""fullscreenenter"",""5"",""10451""
","
",205.4900000221096,NA,48,NA,NA,3000,1,NA,NA,images/tutyellowplanet.jpg,images/tutalien4,images/tutalien3,images/tutrocket1,images/tutalien4,images/nothing.png,2,practice,false,2,rare,0,2020-06-20T13:05:01Z,sub119
two-step-fixation,114,418355,0.0-61.0-2.17,FALSE,TRUE,TRUE,FALSE,"""event"",""trial"",""time""
""fullscreenenter"",""5"",""10451""
","
","
","""event"",""trial"",""time""
""fullscreenenter"",""5"",""10451""
","
",NA,images/earth.jpg,NA,NA,NA,NA,NA,NA,NA,NA,NA,NA,NA,NA,NA,fixation,NA,NA,NA,NA,NA,NA,sub119
d3-animate-choice,115,421378,0.0-61.0-0.18,FALSE,TRUE,TRUE,FALSE,"""event"",""trial"",""time""
""fullscreenenter"",""5"",""10451""
","
","
","""event"",""trial"",""time""
""fullscreenenter"",""5"",""10451""
","
",1019.9400000274181,NA,49,NA,NA,3000,1,NA,NA,images/earth.jpg,images/tutrocket2,images/tutrocket1,null,images/tutrocket1,NA,1,practice,null,1,NA,NA,NA,sub119
d3-animate-choice,116,423627,0.0-61.0-1.18,FALSE,TRUE,TRUE,FALSE,"""event"",""trial"",""time""
""fullscreenenter"",""5"",""10451""
","
","
","""event"",""trial"",""time""
""fullscreenenter"",""5"",""10451""
","
",245.7799999974668,NA,48,NA,NA,3000,1,NA,NA,images/tutgreenplanet.jpg,images/tutalien2,images/tutalien1,images/tutrocket1,images/tutalien2,images/nothing.png,2,practice,true,2,common,0,2020-06-20T13:05:07Z,sub119
two-step-fixation,117,424630,0.0-61.0-2.18,FALSE,TRUE,TRUE,FALSE,"""event"",""trial"",""time""
""fullscreenenter"",""5"",""10451""
","
","
","""event"",""trial"",""time""
""fullscreenenter"",""5"",""10451""
","
",NA,images/earth.jpg,NA,NA,NA,NA,NA,NA,NA,NA,NA,NA,NA,NA,NA,fixation,NA,NA,NA,NA,NA,NA,sub119
d3-animate-choice,118,426743,0.0-61.0-0.19,FALSE,TRUE,TRUE,FALSE,"""event"",""trial"",""time""
""fullscreenenter"",""5"",""10451""
","
","
","""event"",""trial"",""time""
""fullscreenenter"",""5"",""10451""
","
",110.27999996440485,NA,48,NA,NA,3000,1,NA,NA,images/earth.jpg,images/tutrocket2,images/tutrocket1,null,images/tutrocket2,NA,1,practice,null,2,NA,NA,NA,sub119
d3-animate-choice,119,428968,0.0-61.0-1.19,FALSE,TRUE,TRUE,FALSE,"""event"",""trial"",""time""
""fullscreenenter"",""5"",""10451""
","
","
","""event"",""trial"",""time""
""fullscreenenter"",""5"",""10451""
","
",221.82999999495223,NA,49,NA,NA,3000,1,NA,NA,images/tutyellowplanet.jpg,images/tutalien4,images/tutalien3,images/tutrocket2,images/tutalien3,images/t.png,2,practice,true,1,common,1,2020-06-20T13:05:13Z,sub119
two-step-fixation,120,429970,0.0-61.0-2.19,FALSE,TRUE,TRUE,FALSE,"""event"",""trial"",""time""
""fullscreenenter"",""5"",""10451""
","
","
","""event"",""trial"",""time""
""fullscreenenter"",""5"",""10451""
","
",NA,images/earth.jpg,NA,NA,NA,NA,NA,NA,NA,NA,NA,NA,NA,NA,NA,fixation,NA,NA,NA,NA,NA,NA,sub119
d3-instructions,121,433675,0.0-62.0,FALSE,TRUE,TRUE,FALSE,"""event"",""trial"",""time""
""fullscreenenter"",""5"",""10451""
","
","
","""event"",""trial"",""time""
""fullscreenenter"",""5"",""10451""
","
",NA,NA,NA,NA,NA,NA,NA,NA,NA,NA,NA,NA,NA,NA,NA,NA,NA,NA,NA,NA,NA,NA,sub119
audio-keyboard-response,122,439062,0.0-63.0,FALSE,TRUE,TRUE,FALSE,"""event"",""trial"",""time""
""fullscreenenter"",""5"",""10451""
","
","
","""event"",""trial"",""time""
""fullscreenenter"",""5"",""10451""
","
",5379,audio/instructions/treasure_feedback.wav,32,NA,NA,NA,NA,NA,NA,NA,NA,NA,NA,NA,NA,NA,NA,NA,NA,NA,NA,NA,sub119
d3-instructions,123,447876,0.0-64.0,FALSE,TRUE,TRUE,FALSE,"""event"",""trial"",""time""
""fullscreenenter"",""5"",""10451""
","
","
","""event"",""trial"",""time""
""fullscreenenter"",""5"",""10451""
","
",NA,NA,NA,NA,NA,NA,NA,NA,NA,NA,NA,NA,NA,NA,NA,NA,NA,NA,NA,NA,NA,NA,sub119
d3-instructions,124,454905,0.0-65.0,FALSE,TRUE,TRUE,FALSE,"""event"",""trial"",""time""
""fullscreenenter"",""5"",""10451""
","
","
","""event"",""trial"",""time""
""fullscreenenter"",""5"",""10451""
","
",NA,NA,NA,NA,NA,NA,NA,NA,NA,NA,NA,NA,NA,NA,NA,NA,NA,NA,NA,NA,NA,NA,sub119
d3-instructions,125,478631,0.0-66.0,FALSE,TRUE,TRUE,FALSE,"""event"",""trial"",""time""
""fullscreenenter"",""5"",""10451""
","
","
","""event"",""trial"",""time""
""fullscreenenter"",""5"",""10451""
","
",NA,NA,NA,NA,NA,NA,NA,NA,NA,NA,NA,NA,NA,NA,NA,NA,NA,NA,NA,NA,NA,NA,sub119
d3-instructions,126,486892,0.0-67.0,FALSE,TRUE,TRUE,FALSE,"""event"",""trial"",""time""
""fullscreenenter"",""5"",""10451""
","
","
","""event"",""trial"",""time""
""fullscreenenter"",""5"",""10451""
","
",NA,NA,NA,NA,NA,NA,NA,NA,NA,NA,NA,NA,NA,NA,NA,NA,NA,NA,NA,NA,NA,NA,sub119
d3-instructions,127,489513,0.0-68.0,FALSE,TRUE,TRUE,FALSE,"""event"",""trial"",""time""
""fullscreenenter"",""5"",""10451""
","
","
","""event"",""trial"",""time""
""fullscreenenter"",""5"",""10451""
","
",NA,NA,NA,NA,NA,NA,NA,NA,NA,NA,NA,NA,NA,NA,NA,NA,NA,NA,NA,NA,NA,NA,sub119
instructions-quiz,128,491878,0.0-69.0,FALSE,TRUE,TRUE,FALSE,"""event"",""trial"",""time""
""fullscreenenter"",""5"",""10451""
","
","
","""event"",""trial"",""time""
""fullscreenenter"",""5"",""10451""
","
",2363.309999986086,audio/quiz/Q1_Prompt.wav,NA,1,NA,NA,NA,NA,NA,NA,NA,NA,NA,NA,NA,NA,NA,NA,NA,NA,NA,NA,sub119
audio-keyboard-response,129,494004,0.0-70.0,FALSE,TRUE,TRUE,FALSE,"""event"",""trial"",""time""
""fullscreenenter"",""5"",""10451""
","
","
","""event"",""trial"",""time""
""fullscreenenter"",""5"",""10451""
","
",2120,audio/quiz/Q1_Correct.wav,32,NA,NA,NA,NA,NA,NA,NA,NA,NA,NA,NA,NA,NA,NA,NA,NA,NA,NA,NA,sub119
instructions-quiz,130,497252,0.0-71.0,FALSE,TRUE,TRUE,FALSE,"""event"",""trial"",""time""
""fullscreenenter"",""5"",""10451""
","
","
","""event"",""trial"",""time""
""fullscreenenter"",""5"",""10451""
","
",3246.0699999937788,audio/quiz/Q2_Prompt.wav,NA,0,NA,NA,NA,NA,NA,NA,NA,NA,NA,NA,NA,NA,NA,NA,NA,NA,NA,NA,sub119
audio-keyboard-response,131,498045,0.0-72.0,FALSE,TRUE,TRUE,FALSE,"""event"",""trial"",""time""
""fullscreenenter"",""5"",""10451""
","
","
","""event"",""trial"",""time""
""fullscreenenter"",""5"",""10451""
","
",792,audio/quiz/Q2_Correct.wav,32,NA,NA,NA,NA,NA,NA,NA,NA,NA,NA,NA,NA,NA,NA,NA,NA,NA,NA,NA,sub119
instructions-quiz,132,499804,0.0-73.0,FALSE,TRUE,TRUE,FALSE,"""event"",""trial"",""time""
""fullscreenenter"",""5"",""10451""
","
","
","""event"",""trial"",""time""
""fullscreenenter"",""5"",""10451""
","
",1757.4850000091828,audio/quiz/Q3_Prompt.wav,NA,1,NA,NA,NA,NA,NA,NA,NA,NA,NA,NA,NA,NA,NA,NA,NA,NA,NA,NA,sub119
audio-keyboard-response,133,500395,0.0-74.0,FALSE,TRUE,TRUE,FALSE,"""event"",""trial"",""time""
""fullscreenenter"",""5"",""10451""
","
","
","""event"",""trial"",""time""
""fullscreenenter"",""5"",""10451""
","
",589,audio/quiz/Q3_Correct.wav,32,NA,NA,NA,NA,NA,NA,NA,NA,NA,NA,NA,NA,NA,NA,NA,NA,NA,NA,NA,sub119
d3-instructions,134,502793,0.0-75.0,FALSE,TRUE,TRUE,FALSE,"""event"",""trial"",""time""
""fullscreenenter"",""5"",""10451""
","
","
","""event"",""trial"",""time""
""fullscreenenter"",""5"",""10451""
","
",NA,NA,NA,NA,NA,NA,NA,NA,NA,NA,NA,NA,NA,NA,NA,NA,NA,NA,NA,NA,NA,NA,sub119
d3-animate-choice,135,505875,0.0-76.0-0.0,FALSE,TRUE,TRUE,FALSE,"""event"",""trial"",""time""
""fullscreenenter"",""5"",""10451""
","
","
","""event"",""trial"",""time""
""fullscreenenter"",""5"",""10451""
","
",1070.5200000084005,NA,49,NA,NA,3000,1,NA,NA,images/earth.jpg,images/rocket1,images/rocket2,null,images/rocket2,NA,1,real,null,1,NA,NA,NA,sub119
d3-animate-choice,136,508387,0.0-76.0-1.0,FALSE,TRUE,TRUE,FALSE,"""event"",""trial"",""time""
""fullscreenenter"",""5"",""10451""
","
","
","""event"",""trial"",""time""
""fullscreenenter"",""5"",""10451""
","
",508.5850000032224,NA,49,NA,NA,3000,1,NA,NA,images/purpleplanet.jpg,images/alien4,images/alien3,images/rocket2,images/alien3,images/t.png,2,real,true,1,common,1,2020-06-20T13:06:32Z,sub119
two-step-fixation,137,509389,0.0-76.0-2.0,FALSE,TRUE,TRUE,FALSE,"""event"",""trial"",""time""
""fullscreenenter"",""5"",""10451""
","
","
","""event"",""trial"",""time""
""fullscreenenter"",""5"",""10451""
","
",NA,images/earth.jpg,NA,NA,NA,NA,NA,NA,NA,NA,NA,NA,NA,NA,NA,fixation,NA,NA,NA,NA,NA,NA,sub119
d3-animate-choice,138,511796,0.0-76.0-0.1,FALSE,TRUE,TRUE,FALSE,"""event"",""trial"",""time""
""fullscreenenter"",""5"",""10451""
","
","
","""event"",""trial"",""time""
""fullscreenenter"",""5"",""10451""
","
",403.6650000489317,NA,49,NA,NA,3000,1,NA,NA,images/earth.jpg,images/rocket1,images/rocket2,null,images/rocket2,NA,1,real,null,1,NA,NA,NA,sub119
d3-animate-choice,139,514042,0.0-76.0-1.1,FALSE,TRUE,TRUE,FALSE,"""event"",""trial"",""time""
""fullscreenenter"",""5"",""10451""
","
","
","""event"",""trial"",""time""
""fullscreenenter"",""5"",""10451""
","
",243.08500002371147,NA,49,NA,NA,3000,1,NA,NA,images/redplanet1.jpg,images/alien2,images/alien1,images/rocket2,images/alien1,images/nothing.png,2,real,false,1,rare,0,2020-06-20T13:06:38Z,sub119
two-step-fixation,140,515045,0.0-76.0-2.1,FALSE,TRUE,TRUE,FALSE,"""event"",""trial"",""time""
""fullscreenenter"",""5"",""10451""
","
","
","""event"",""trial"",""time""
""fullscreenenter"",""5"",""10451""
","
",NA,images/earth.jpg,NA,NA,NA,NA,NA,NA,NA,NA,NA,NA,NA,NA,NA,fixation,NA,NA,NA,NA,NA,NA,sub119
d3-animate-choice,141,517555,0.0-76.0-0.2,FALSE,TRUE,TRUE,FALSE,"""event"",""trial"",""time""
""fullscreenenter"",""5"",""10451""
","
","
","""event"",""trial"",""time""
""fullscreenenter"",""5"",""10451""
","
",498.7950000213459,NA,49,NA,NA,3000,1,NA,NA,images/earth.jpg,images/rocket1,images/rocket2,null,images/rocket2,NA,1,real,null,1,NA,NA,NA,sub119
d3-animate-choice,142,520259,0.0-76.0-1.2,FALSE,TRUE,TRUE,FALSE,"""event"",""trial"",""time""
""fullscreenenter"",""5"",""10451""
","
","
","""event"",""trial"",""time""
""fullscreenenter"",""5"",""10451""
","
",700.5800000042655,NA,49,NA,NA,3000,1,NA,NA,images/purpleplanet.jpg,images/alien4,images/alien3,images/rocket2,images/alien3,images/nothing.png,2,real,true,1,common,0,2020-06-20T13:06:44Z,sub119
two-step-fixation,143,521265,0.0-76.0-2.2,FALSE,TRUE,TRUE,FALSE,"""event"",""trial"",""time""
""fullscreenenter"",""5"",""10451""
","
","
","""event"",""trial"",""time""
""fullscreenenter"",""5"",""10451""
","
",NA,images/earth.jpg,NA,NA,NA,NA,NA,NA,NA,NA,NA,NA,NA,NA,NA,fixation,NA,NA,NA,NA,NA,NA,sub119
d3-animate-choice,144,523525,0.0-76.0-0.3,FALSE,TRUE,TRUE,FALSE,"""event"",""trial"",""time""
""fullscreenenter"",""5"",""10451""
","
","
","""event"",""trial"",""time""
""fullscreenenter"",""5"",""10451""
","
",244.99499995727092,NA,49,NA,NA,3000,1,NA,NA,images/earth.jpg,images/rocket1,images/rocket2,null,images/rocket2,NA,1,real,null,1,NA,NA,NA,sub119
d3-animate-choice,145,525845,0.0-76.0-1.3,FALSE,TRUE,TRUE,FALSE,"""event"",""trial"",""time""
""fullscreenenter"",""5"",""10451""
","
","
","""event"",""trial"",""time""
""fullscreenenter"",""5"",""10451""
","
",306.40999996103346,NA,48,NA,NA,3000,1,NA,NA,images/purpleplanet.jpg,images/alien4,images/alien3,images/rocket2,images/alien4,images/t.png,2,real,true,2,common,1,2020-06-20T13:06:50Z,sub119
two-step-fixation,146,526848,0.0-76.0-2.3,FALSE,TRUE,TRUE,FALSE,"""event"",""trial"",""time""
""fullscreenenter"",""5"",""10451""
","
","
","""event"",""trial"",""time""
""fullscreenenter"",""5"",""10451""
","
",NA,images/earth.jpg,NA,NA,NA,NA,NA,NA,NA,NA,NA,NA,NA,NA,NA,fixation,NA,NA,NA,NA,NA,NA,sub119
d3-animate-choice,147,529159,0.0-76.0-0.4,FALSE,TRUE,TRUE,FALSE,"""event"",""trial"",""time""
""fullscreenenter"",""5"",""10451""
","
","
","""event"",""trial"",""time""
""fullscreenenter"",""5"",""10451""
","
",307.8000000095926,NA,49,NA,NA,3000,1,NA,NA,images/earth.jpg,images/rocket1,images/rocket2,null,images/rocket2,NA,1,real,null,1,NA,NA,NA,sub119
d3-animate-choice,148,531495,0.0-76.0-1.4,FALSE,TRUE,TRUE,FALSE,"""event"",""trial"",""time""
""fullscreenenter"",""5"",""10451""
","
","
","""event"",""trial"",""time""
""fullscreenenter"",""5"",""10451""
","
",316.6099999798462,NA,48,NA,NA,3000,1,NA,NA,images/redplanet1.jpg,images/alien2,images/alien1,images/rocket2,images/alien2,images/t.png,2,real,false,2,rare,1,2020-06-20T13:06:55Z,sub119
two-step-fixation,149,532505,0.0-76.0-2.4,FALSE,TRUE,TRUE,FALSE,"""event"",""trial"",""time""
""fullscreenenter"",""5"",""10451""
","
","
","""event"",""trial"",""time""
""fullscreenenter"",""5"",""10451""
","
",NA,images/earth.jpg,NA,NA,NA,NA,NA,NA,NA,NA,NA,NA,NA,NA,NA,fixation,NA,NA,NA,NA,NA,NA,sub119
d3-animate-choice,150,534853,0.0-76.0-0.5,FALSE,TRUE,TRUE,FALSE,"""event"",""trial"",""time""
""fullscreenenter"",""5"",""10451""
","
","
","""event"",""trial"",""time""
""fullscreenenter"",""5"",""10451""
","
",345.450000022538,NA,49,NA,NA,3000,1,NA,NA,images/earth.jpg,images/rocket1,images/rocket2,null,images/rocket2,NA,1,real,null,1,NA,NA,NA,sub119
d3-animate-choice,151,537269,0.0-76.0-1.5,FALSE,TRUE,TRUE,FALSE,"""event"",""trial"",""time""
""fullscreenenter"",""5"",""10451""
","
","
","""event"",""trial"",""time""
""fullscreenenter"",""5"",""10451""
","
",412.6649999525398,NA,48,NA,NA,3000,1,NA,NA,images/purpleplanet.jpg,images/alien4,images/alien3,images/rocket2,images/alien4,images/t.png,2,real,true,2,common,1,2020-06-20T13:07:01Z,sub119
two-step-fixation,152,538272,0.0-76.0-2.5,FALSE,TRUE,TRUE,FALSE,"""event"",""trial"",""time""
""fullscreenenter"",""5"",""10451""
","
","
","""event"",""trial"",""time""
""fullscreenenter"",""5"",""10451""
","
",NA,images/earth.jpg,NA,NA,NA,NA,NA,NA,NA,NA,NA,NA,NA,NA,NA,fixation,NA,NA,NA,NA,NA,NA,sub119
d3-animate-choice,153,540351,0.0-76.0-0.6,FALSE,TRUE,TRUE,FALSE,"""event"",""trial"",""time""
""fullscreenenter"",""5"",""10451""
","
","
","""event"",""trial"",""time""
""fullscreenenter"",""5"",""10451""
","
",77.34999997774139,NA,49,NA,NA,3000,1,NA,NA,images/earth.jpg,images/rocket1,images/rocket2,null,images/rocket2,NA,1,real,null,1,NA,NA,NA,sub119
d3-animate-choice,154,542736,0.0-76.0-1.6,FALSE,TRUE,TRUE,FALSE,"""event"",""trial"",""time""
""fullscreenenter"",""5"",""10451""
","
","
","""event"",""trial"",""time""
""fullscreenenter"",""5"",""10451""
","
",382.744999951683,NA,48,NA,NA,3000,1,NA,NA,images/purpleplanet.jpg,images/alien4,images/alien3,images/rocket2,images/alien4,images/t.png,2,real,true,2,common,1,2020-06-20T13:07:06Z,sub119
two-step-fixation,155,543738,0.0-76.0-2.6,FALSE,TRUE,TRUE,FALSE,"""event"",""trial"",""time""
""fullscreenenter"",""5"",""10451""
","
","
","""event"",""trial"",""time""
""fullscreenenter"",""5"",""10451""
","
",NA,images/earth.jpg,NA,NA,NA,NA,NA,NA,NA,NA,NA,NA,NA,NA,NA,fixation,NA,NA,NA,NA,NA,NA,sub119
d3-animate-choice,156,546015,0.0-76.0-0.7,FALSE,TRUE,TRUE,FALSE,"""event"",""trial"",""time""
""fullscreenenter"",""5"",""10451""
","
","
","""event"",""trial"",""time""
""fullscreenenter"",""5"",""10451""
","
",274.89499998046085,NA,49,NA,NA,3000,1,NA,NA,images/earth.jpg,images/rocket1,images/rocket2,null,images/rocket2,NA,1,real,null,1,NA,NA,NA,sub119
d3-animate-choice,157,548749,0.0-76.0-1.7,FALSE,TRUE,TRUE,FALSE,"""event"",""trial"",""time""
""fullscreenenter"",""5"",""10451""
","
","
","""event"",""trial"",""time""
""fullscreenenter"",""5"",""10451""
","
",730.260000040289,NA,48,NA,NA,3000,1,NA,NA,images/redplanet1.jpg,images/alien2,images/alien1,images/rocket2,images/alien2,images/t.png,2,real,false,2,rare,1,2020-06-20T13:07:12Z,sub119
two-step-fixation,158,549752,0.0-76.0-2.7,FALSE,TRUE,TRUE,FALSE,"""event"",""trial"",""time""
""fullscreenenter"",""5"",""10451""
","
","
","""event"",""trial"",""time""
""fullscreenenter"",""5"",""10451""
","
",NA,images/earth.jpg,NA,NA,NA,NA,NA,NA,NA,NA,NA,NA,NA,NA,NA,fixation,NA,NA,NA,NA,NA,NA,sub119
d3-animate-choice,159,552018,0.0-76.0-0.8,FALSE,TRUE,TRUE,FALSE,"""event"",""trial"",""time""
""fullscreenenter"",""5"",""10451""
","
","
","""event"",""trial"",""time""
""fullscreenenter"",""5"",""10451""
","
",262.41000002482906,NA,49,NA,NA,3000,1,NA,NA,images/earth.jpg,images/rocket1,images/rocket2,null,images/rocket2,NA,1,real,null,1,NA,NA,NA,sub119
d3-animate-choice,160,554354,0.0-76.0-1.8,FALSE,TRUE,TRUE,FALSE,"""event"",""trial"",""time""
""fullscreenenter"",""5"",""10451""
","
","
","""event"",""trial"",""time""
""fullscreenenter"",""5"",""10451""
","
",333.5850000148639,NA,48,NA,NA,3000,1,NA,NA,images/purpleplanet.jpg,images/alien4,images/alien3,images/rocket2,images/alien4,images/t.png,2,real,true,2,common,1,2020-06-20T13:07:18Z,sub119
two-step-fixation,161,555357,0.0-76.0-2.8,FALSE,TRUE,TRUE,FALSE,"""event"",""trial"",""time""
""fullscreenenter"",""5"",""10451""
","
","
","""event"",""trial"",""time""
""fullscreenenter"",""5"",""10451""
","
",NA,images/earth.jpg,NA,NA,NA,NA,NA,NA,NA,NA,NA,NA,NA,NA,NA,fixation,NA,NA,NA,NA,NA,NA,sub119
d3-animate-choice,162,557680,0.0-76.0-0.9,FALSE,TRUE,TRUE,FALSE,"""event"",""trial"",""time""
""fullscreenenter"",""5"",""10451""
","
","
","""event"",""trial"",""time""
""fullscreenenter"",""5"",""10451""
","
",319.6200000238605,NA,49,NA,NA,3000,1,NA,NA,images/earth.jpg,images/rocket1,images/rocket2,null,images/rocket2,NA,1,real,null,1,NA,NA,NA,sub119
d3-animate-choice,163,559971,0.0-76.0-1.9,FALSE,TRUE,TRUE,FALSE,"""event"",""trial"",""time""
""fullscreenenter"",""5"",""10451""
","
","
","""event"",""trial"",""time""
""fullscreenenter"",""5"",""10451""
","
",287.6900000264868,NA,48,NA,NA,3000,1,NA,NA,images/purpleplanet.jpg,images/alien4,images/alien3,images/rocket2,images/alien4,images/t.png,2,real,true,2,common,1,2020-06-20T13:07:24Z,sub119
two-step-fixation,164,560973,0.0-76.0-2.9,FALSE,TRUE,TRUE,FALSE,"""event"",""trial"",""time""
""fullscreenenter"",""5"",""10451""
","
","
","""event"",""trial"",""time""
""fullscreenenter"",""5"",""10451""
","
",NA,images/earth.jpg,NA,NA,NA,NA,NA,NA,NA,NA,NA,NA,NA,NA,NA,fixation,NA,NA,NA,NA,NA,NA,sub119
d3-animate-choice,165,563025,0.0-76.0-0.10,FALSE,TRUE,TRUE,FALSE,"""event"",""trial"",""time""
""fullscreenenter"",""5"",""10451""
","
","
","""event"",""trial"",""time""
""fullscreenenter"",""5"",""10451""
","
",47.63499996624887,NA,49,NA,NA,3000,1,NA,NA,images/earth.jpg,images/rocket1,images/rocket2,null,images/rocket2,NA,1,real,null,1,NA,NA,NA,sub119
d3-animate-choice,166,565273,0.0-76.0-1.10,FALSE,TRUE,TRUE,FALSE,"""event"",""trial"",""time""
""fullscreenenter"",""5"",""10451""
","
","
","""event"",""trial"",""time""
""fullscreenenter"",""5"",""10451""
","
",245.71999994805083,NA,48,NA,NA,3000,1,NA,NA,images/purpleplanet.jpg,images/alien4,images/alien3,images/rocket2,images/alien4,images/t.png,2,real,true,2,common,1,2020-06-20T13:07:29Z,sub119
two-step-fixation,167,566277,0.0-76.0-2.10,FALSE,TRUE,TRUE,FALSE,"""event"",""trial"",""time""
""fullscreenenter"",""5"",""10451""
","
","
","""event"",""trial"",""time""
""fullscreenenter"",""5"",""10451""
","
",NA,images/earth.jpg,NA,NA,NA,NA,NA,NA,NA,NA,NA,NA,NA,NA,NA,fixation,NA,NA,NA,NA,NA,NA,sub119
d3-animate-choice,168,568728,0.0-76.0-0.11,FALSE,TRUE,TRUE,FALSE,"""event"",""trial"",""time""
""fullscreenenter"",""5"",""10451""
","
","
","""event"",""trial"",""time""
""fullscreenenter"",""5"",""10451""
","
",448.0549999861978,NA,49,NA,NA,3000,1,NA,NA,images/earth.jpg,images/rocket1,images/rocket2,null,images/rocket2,NA,1,real,null,1,NA,NA,NA,sub119
d3-animate-choice,169,570782,0.0-76.0-1.11,FALSE,TRUE,TRUE,FALSE,"""event"",""trial"",""time""
""fullscreenenter"",""5"",""10451""
","
","
","""event"",""trial"",""time""
""fullscreenenter"",""5"",""10451""
","
",51.34499998530373,NA,48,NA,NA,3000,1,NA,NA,images/purpleplanet.jpg,images/alien4,images/alien3,images/rocket2,images/alien4,images/t.png,2,real,true,2,common,1,2020-06-20T13:07:35Z,sub119
two-step-fixation,170,571785,0.0-76.0-2.11,FALSE,TRUE,TRUE,FALSE,"""event"",""trial"",""time""
""fullscreenenter"",""5"",""10451""
","
","
","""event"",""trial"",""time""
""fullscreenenter"",""5"",""10451""
","
",NA,images/earth.jpg,NA,NA,NA,NA,NA,NA,NA,NA,NA,NA,NA,NA,NA,fixation,NA,NA,NA,NA,NA,NA,sub119
d3-animate-choice,171,574180,0.0-76.0-0.12,FALSE,TRUE,TRUE,FALSE,"""event"",""trial"",""time""
""fullscreenenter"",""5"",""10451""
","
","
","""event"",""trial"",""time""
""fullscreenenter"",""5"",""10451""
","
",391.92999998340383,NA,49,NA,NA,3000,1,NA,NA,images/earth.jpg,images/rocket1,images/rocket2,null,images/rocket2,NA,1,real,null,1,NA,NA,NA,sub119
d3-animate-choice,172,576483,0.0-76.0-1.12,FALSE,TRUE,TRUE,FALSE,"""event"",""trial"",""time""
""fullscreenenter"",""5"",""10451""
","
","
","""event"",""trial"",""time""
""fullscreenenter"",""5"",""10451""
","
",300.2400000113994,NA,48,NA,NA,3000,1,NA,NA,images/purpleplanet.jpg,images/alien4,images/alien3,images/rocket2,images/alien4,images/t.png,2,real,true,2,common,1,2020-06-20T13:07:40Z,sub119
two-step-fixation,173,577486,0.0-76.0-2.12,FALSE,TRUE,TRUE,FALSE,"""event"",""trial"",""time""
""fullscreenenter"",""5"",""10451""
","
","
","""event"",""trial"",""time""
""fullscreenenter"",""5"",""10451""
","
",NA,images/earth.jpg,NA,NA,NA,NA,NA,NA,NA,NA,NA,NA,NA,NA,NA,fixation,NA,NA,NA,NA,NA,NA,sub119
d3-animate-choice,174,579846,0.0-76.0-0.13,FALSE,TRUE,TRUE,FALSE,"""event"",""trial"",""time""
""fullscreenenter"",""5"",""10451""
","
","
","""event"",""trial"",""time""
""fullscreenenter"",""5"",""10451""
","
",355.73999996995553,NA,49,NA,NA,3000,1,NA,NA,images/earth.jpg,images/rocket1,images/rocket2,null,images/rocket2,NA,1,real,null,1,NA,NA,NA,sub119
d3-animate-choice,175,582069,0.0-76.0-1.13,FALSE,TRUE,TRUE,FALSE,"""event"",""trial"",""time""
""fullscreenenter"",""5"",""10451""
","
","
","""event"",""trial"",""time""
""fullscreenenter"",""5"",""10451""
","
",220.18999996362254,NA,48,NA,NA,3000,1,NA,NA,images/redplanet1.jpg,images/alien2,images/alien1,images/rocket2,images/alien2,images/t.png,2,real,false,2,rare,1,2020-06-20T13:07:46Z,sub119
two-step-fixation,176,583072,0.0-76.0-2.13,FALSE,TRUE,TRUE,FALSE,"""event"",""trial"",""time""
""fullscreenenter"",""5"",""10451""
","
","
","""event"",""trial"",""time""
""fullscreenenter"",""5"",""10451""
","
",NA,images/earth.jpg,NA,NA,NA,NA,NA,NA,NA,NA,NA,NA,NA,NA,NA,fixation,NA,NA,NA,NA,NA,NA,sub119
d3-animate-choice,177,585895,0.0-76.0-0.14,FALSE,TRUE,TRUE,FALSE,"""event"",""trial"",""time""
""fullscreenenter"",""5"",""10451""
","
","
","""event"",""trial"",""time""
""fullscreenenter"",""5"",""10451""
","
",819.6050000260584,NA,49,NA,NA,3000,1,NA,NA,images/earth.jpg,images/rocket1,images/rocket2,null,images/rocket2,NA,1,real,null,1,NA,NA,NA,sub119
d3-animate-choice,178,588108,0.0-76.0-1.14,FALSE,TRUE,TRUE,FALSE,"""event"",""trial"",""time""
""fullscreenenter"",""5"",""10451""
","
","
","""event"",""trial"",""time""
""fullscreenenter"",""5"",""10451""
","
",209.789999993518,NA,48,NA,NA,3000,1,NA,NA,images/redplanet1.jpg,images/alien2,images/alien1,images/rocket2,images/alien2,images/t.png,2,real,false,2,rare,1,2020-06-20T13:07:52Z,sub119
two-step-fixation,179,589110,0.0-76.0-2.14,FALSE,TRUE,TRUE,FALSE,"""event"",""trial"",""time""
""fullscreenenter"",""5"",""10451""
","
","
","""event"",""trial"",""time""
""fullscreenenter"",""5"",""10451""
","
",NA,images/earth.jpg,NA,NA,NA,NA,NA,NA,NA,NA,NA,NA,NA,NA,NA,fixation,NA,NA,NA,NA,NA,NA,sub119
d3-animate-choice,180,591463,0.0-76.0-0.15,FALSE,TRUE,TRUE,FALSE,"""event"",""trial"",""time""
""fullscreenenter"",""5"",""10451""
","
","
","""event"",""trial"",""time""
""fullscreenenter"",""5"",""10451""
","
",349.0499999606982,NA,49,NA,NA,3000,1,NA,NA,images/earth.jpg,images/rocket1,images/rocket2,null,images/rocket2,NA,1,real,null,1,NA,NA,NA,sub119
d3-animate-choice,181,593894,0.0-76.0-1.15,FALSE,TRUE,TRUE,FALSE,"""event"",""trial"",""time""
""fullscreenenter"",""5"",""10451""
","
","
","""event"",""trial"",""time""
""fullscreenenter"",""5"",""10451""
","
",427.91500000748783,NA,48,NA,NA,3000,1,NA,NA,images/redplanet1.jpg,images/alien2,images/alien1,images/rocket2,images/alien2,images/t.png,2,real,false,2,rare,1,2020-06-20T13:07:58Z,sub119
two-step-fixation,182,594897,0.0-76.0-2.15,FALSE,TRUE,TRUE,FALSE,"""event"",""trial"",""time""
""fullscreenenter"",""5"",""10451""
","
","
","""event"",""trial"",""time""
""fullscreenenter"",""5"",""10451""
","
",NA,images/earth.jpg,NA,NA,NA,NA,NA,NA,NA,NA,NA,NA,NA,NA,NA,fixation,NA,NA,NA,NA,NA,NA,sub119
d3-animate-choice,183,597458,0.0-76.0-0.16,FALSE,TRUE,TRUE,FALSE,"""event"",""trial"",""time""
""fullscreenenter"",""5"",""10451""
","
","
","""event"",""trial"",""time""
""fullscreenenter"",""5"",""10451""
","
",558.2900000154041,NA,48,NA,NA,3000,1,NA,NA,images/earth.jpg,images/rocket1,images/rocket2,null,images/rocket1,NA,1,real,null,2,NA,NA,NA,sub119
d3-animate-choice,184,599851,0.0-76.0-1.16,FALSE,TRUE,TRUE,FALSE,"""event"",""trial"",""time""
""fullscreenenter"",""5"",""10451""
","
","
","""event"",""trial"",""time""
""fullscreenenter"",""5"",""10451""
","
",390.20500000333413,NA,48,NA,NA,3000,1,NA,NA,images/redplanet1.jpg,images/alien2,images/alien1,images/rocket1,images/alien2,images/t.png,2,real,true,2,common,1,2020-06-20T13:08:04Z,sub119
two-step-fixation,185,600853,0.0-76.0-2.16,FALSE,TRUE,TRUE,FALSE,"""event"",""trial"",""time""
""fullscreenenter"",""5"",""10451""
","
","
","""event"",""trial"",""time""
""fullscreenenter"",""5"",""10451""
","
",NA,images/earth.jpg,NA,NA,NA,NA,NA,NA,NA,NA,NA,NA,NA,NA,NA,fixation,NA,NA,NA,NA,NA,NA,sub119
d3-animate-choice,186,602918,0.0-76.0-0.17,FALSE,TRUE,TRUE,FALSE,"""event"",""trial"",""time""
""fullscreenenter"",""5"",""10451""
","
","
","""event"",""trial"",""time""
""fullscreenenter"",""5"",""10451""
","
",61.944999964907765,NA,49,NA,NA,3000,1,NA,NA,images/earth.jpg,images/rocket1,images/rocket2,null,images/rocket2,NA,1,real,null,1,NA,NA,NA,sub119
d3-animate-choice,187,605214,0.0-76.0-1.17,FALSE,TRUE,TRUE,FALSE,"""event"",""trial"",""time""
""fullscreenenter"",""5"",""10451""
","
","
","""event"",""trial"",""time""
""fullscreenenter"",""5"",""10451""
","
",291.3750000298023,NA,48,NA,NA,3000,1,NA,NA,images/purpleplanet.jpg,images/alien4,images/alien3,images/rocket2,images/alien4,images/nothing.png,2,real,true,2,common,0,2020-06-20T13:08:09Z,sub119
two-step-fixation,188,606216,0.0-76.0-2.17,FALSE,TRUE,TRUE,FALSE,"""event"",""trial"",""time""
""fullscreenenter"",""5"",""10451""
","
","
","""event"",""trial"",""time""
""fullscreenenter"",""5"",""10451""
","
",NA,images/earth.jpg,NA,NA,NA,NA,NA,NA,NA,NA,NA,NA,NA,NA,NA,fixation,NA,NA,NA,NA,NA,NA,sub119
d3-animate-choice,189,608786,0.0-76.0-0.18,FALSE,TRUE,TRUE,FALSE,"""event"",""trial"",""time""
""fullscreenenter"",""5"",""10451""
","
","
","""event"",""trial"",""time""
""fullscreenenter"",""5"",""10451""
","
",567.1849999926053,NA,48,NA,NA,3000,1,NA,NA,images/earth.jpg,images/rocket1,images/rocket2,null,images/rocket1,NA,1,real,null,2,NA,NA,NA,sub119
d3-animate-choice,190,611064,0.0-76.0-1.18,FALSE,TRUE,TRUE,FALSE,"""event"",""trial"",""time""
""fullscreenenter"",""5"",""10451""
","
","
","""event"",""trial"",""time""
""fullscreenenter"",""5"",""10451""
","
",276.1150000151247,NA,48,NA,NA,3000,1,NA,NA,images/redplanet1.jpg,images/alien2,images/alien1,images/rocket1,images/alien2,images/t.png,2,real,true,2,common,1,2020-06-20T13:08:15Z,sub119
two-step-fixation,191,612067,0.0-76.0-2.18,FALSE,TRUE,TRUE,FALSE,"""event"",""trial"",""time""
""fullscreenenter"",""5"",""10451""
","
","
","""event"",""trial"",""time""
""fullscreenenter"",""5"",""10451""
","
",NA,images/earth.jpg,NA,NA,NA,NA,NA,NA,NA,NA,NA,NA,NA,NA,NA,fixation,NA,NA,NA,NA,NA,NA,sub119
d3-animate-choice,192,614467,0.0-76.0-0.19,FALSE,TRUE,TRUE,FALSE,"""event"",""trial"",""time""
""fullscreenenter"",""5"",""10451""
","
","
","""event"",""trial"",""time""
""fullscreenenter"",""5"",""10451""
","
",397.11999997962266,NA,48,NA,NA,3000,1,NA,NA,images/earth.jpg,images/rocket1,images/rocket2,null,images/rocket1,NA,1,real,null,2,NA,NA,NA,sub119
d3-animate-choice,193,616859,0.0-76.0-1.19,FALSE,TRUE,TRUE,FALSE,"""event"",""trial"",""time""
""fullscreenenter"",""5"",""10451""
","
","
","""event"",""trial"",""time""
""fullscreenenter"",""5"",""10451""
","
",389.3500000122003,NA,48,NA,NA,3000,1,NA,NA,images/purpleplanet.jpg,images/alien4,images/alien3,images/rocket1,images/alien4,images/t.png,2,real,false,2,rare,1,2020-06-20T13:08:21Z,sub119
two-step-fixation,194,617862,0.0-76.0-2.19,FALSE,TRUE,TRUE,FALSE,"""event"",""trial"",""time""
""fullscreenenter"",""5"",""10451""
","
","
","""event"",""trial"",""time""
""fullscreenenter"",""5"",""10451""
","
",NA,images/earth.jpg,NA,NA,NA,NA,NA,NA,NA,NA,NA,NA,NA,NA,NA,fixation,NA,NA,NA,NA,NA,NA,sub119
d3-animate-choice,195,620319,0.0-76.0-0.20,FALSE,TRUE,TRUE,FALSE,"""event"",""trial"",""time""
""fullscreenenter"",""5"",""10451""
","
","
","""event"",""trial"",""time""
""fullscreenenter"",""5"",""10451""
","
",454.0900000138208,NA,49,NA,NA,3000,1,NA,NA,images/earth.jpg,images/rocket1,images/rocket2,null,images/rocket2,NA,1,real,null,1,NA,NA,NA,sub119
d3-animate-choice,196,622537,0.0-76.0-1.20,FALSE,TRUE,TRUE,FALSE,"""event"",""trial"",""time""
""fullscreenenter"",""5"",""10451""
","
","
","""event"",""trial"",""time""
""fullscreenenter"",""5"",""10451""
","
",215.00999998534098,NA,48,NA,NA,3000,1,NA,NA,images/purpleplanet.jpg,images/alien4,images/alien3,images/rocket2,images/alien4,images/t.png,2,real,true,2,common,1,2020-06-20T13:08:26Z,sub119
two-step-fixation,197,623540,0.0-76.0-2.20,FALSE,TRUE,TRUE,FALSE,"""event"",""trial"",""time""
""fullscreenenter"",""5"",""10451""
","
","
","""event"",""trial"",""time""
""fullscreenenter"",""5"",""10451""
","
",NA,images/earth.jpg,NA,NA,NA,NA,NA,NA,NA,NA,NA,NA,NA,NA,NA,fixation,NA,NA,NA,NA,NA,NA,sub119
d3-animate-choice,198,626167,0.0-76.0-0.21,FALSE,TRUE,TRUE,FALSE,"""event"",""trial"",""time""
""fullscreenenter"",""5"",""10451""
","
","
","""event"",""trial"",""time""
""fullscreenenter"",""5"",""10451""
","
",622.7949999738485,NA,49,NA,NA,3000,1,NA,NA,images/earth.jpg,images/rocket1,images/rocket2,null,images/rocket2,NA,1,real,null,1,NA,NA,NA,sub119
d3-animate-choice,199,628458,0.0-76.0-1.21,FALSE,TRUE,TRUE,FALSE,"""event"",""trial"",""time""
""fullscreenenter"",""5"",""10451""
","
","
","""event"",""trial"",""time""
""fullscreenenter"",""5"",""10451""
","
",288.2499999832362,NA,48,NA,NA,3000,1,NA,NA,images/purpleplanet.jpg,images/alien4,images/alien3,images/rocket2,images/alien4,images/t.png,2,real,true,2,common,1,2020-06-20T13:08:32Z,sub119
two-step-fixation,200,629461,0.0-76.0-2.21,FALSE,TRUE,TRUE,FALSE,"""event"",""trial"",""time""
""fullscreenenter"",""5"",""10451""
","
","
","""event"",""trial"",""time""
""fullscreenenter"",""5"",""10451""
","
",NA,images/earth.jpg,NA,NA,NA,NA,NA,NA,NA,NA,NA,NA,NA,NA,NA,fixation,NA,NA,NA,NA,NA,NA,sub119
d3-animate-choice,201,631771,0.0-76.0-0.22,FALSE,TRUE,TRUE,FALSE,"""event"",""trial"",""time""
""fullscreenenter"",""5"",""10451""
","
","
","""event"",""trial"",""time""
""fullscreenenter"",""5"",""10451""
","
",307.6250000158325,NA,49,NA,NA,3000,1,NA,NA,images/earth.jpg,images/rocket1,images/rocket2,null,images/rocket2,NA,1,real,null,1,NA,NA,NA,sub119
d3-animate-choice,202,634039,0.0-76.0-1.22,FALSE,TRUE,TRUE,FALSE,"""event"",""trial"",""time""
""fullscreenenter"",""5"",""10451""
","
","
","""event"",""trial"",""time""
""fullscreenenter"",""5"",""10451""
","
",265.27999999234453,NA,48,NA,NA,3000,1,NA,NA,images/purpleplanet.jpg,images/alien4,images/alien3,images/rocket2,images/alien4,images/t.png,2,real,true,2,common,1,2020-06-20T13:08:38Z,sub119
two-step-fixation,203,635042,0.0-76.0-2.22,FALSE,TRUE,TRUE,FALSE,"""event"",""trial"",""time""
""fullscreenenter"",""5"",""10451""
","
","
","""event"",""trial"",""time""
""fullscreenenter"",""5"",""10451""
","
",NA,images/earth.jpg,NA,NA,NA,NA,NA,NA,NA,NA,NA,NA,NA,NA,NA,fixation,NA,NA,NA,NA,NA,NA,sub119
d3-animate-choice,204,637518,0.0-76.0-0.23,FALSE,TRUE,TRUE,FALSE,"""event"",""trial"",""time""
""fullscreenenter"",""5"",""10451""
","
","
","""event"",""trial"",""time""
""fullscreenenter"",""5"",""10451""
","
",472.64500003075227,NA,49,NA,NA,3000,1,NA,NA,images/earth.jpg,images/rocket1,images/rocket2,null,images/rocket2,NA,1,real,null,1,NA,NA,NA,sub119
d3-animate-choice,205,639727,0.0-76.0-1.23,FALSE,TRUE,TRUE,FALSE,"""event"",""trial"",""time""
""fullscreenenter"",""5"",""10451""
","
","
","""event"",""trial"",""time""
""fullscreenenter"",""5"",""10451""
","
",205.01500001410022,NA,48,NA,NA,3000,1,NA,NA,images/redplanet1.jpg,images/alien2,images/alien1,images/rocket2,images/alien2,images/t.png,2,real,false,2,rare,1,2020-06-20T13:08:43Z,sub119
two-step-fixation,206,640729,0.0-76.0-2.23,FALSE,TRUE,TRUE,FALSE,"""event"",""trial"",""time""
""fullscreenenter"",""5"",""10451""
","
","
","""event"",""trial"",""time""
""fullscreenenter"",""5"",""10451""
","
",NA,images/earth.jpg,NA,NA,NA,NA,NA,NA,NA,NA,NA,NA,NA,NA,NA,fixation,NA,NA,NA,NA,NA,NA,sub119
d3-animate-choice,207,643019,0.0-76.0-0.24,FALSE,TRUE,TRUE,FALSE,"""event"",""trial"",""time""
""fullscreenenter"",""5"",""10451""
","
","
","""event"",""trial"",""time""
""fullscreenenter"",""5"",""10451""
","
",286.01999999955297,NA,49,NA,NA,3000,1,NA,NA,images/earth.jpg,images/rocket1,images/rocket2,null,images/rocket2,NA,1,real,null,1,NA,NA,NA,sub119
d3-animate-choice,208,645180,0.0-76.0-1.24,FALSE,TRUE,TRUE,FALSE,"""event"",""trial"",""time""
""fullscreenenter"",""5"",""10451""
","
","
","""event"",""trial"",""time""
""fullscreenenter"",""5"",""10451""
","
",158.43500004848465,NA,48,NA,NA,3000,1,NA,NA,images/purpleplanet.jpg,images/alien4,images/alien3,images/rocket2,images/alien4,images/nothing.png,2,real,true,2,common,0,2020-06-20T13:08:49Z,sub119
two-step-fixation,209,646183,0.0-76.0-2.24,FALSE,TRUE,TRUE,FALSE,"""event"",""trial"",""time""
""fullscreenenter"",""5"",""10451""
","
","
","""event"",""trial"",""time""
""fullscreenenter"",""5"",""10451""
","
",NA,images/earth.jpg,NA,NA,NA,NA,NA,NA,NA,NA,NA,NA,NA,NA,NA,fixation,NA,NA,NA,NA,NA,NA,sub119
d3-animate-choice,210,648468,0.0-76.0-0.25,FALSE,TRUE,TRUE,FALSE,"""event"",""trial"",""time""
""fullscreenenter"",""5"",""10451""
","
","
","""event"",""trial"",""time""
""fullscreenenter"",""5"",""10451""
","
",281.1600000131875,NA,48,NA,NA,3000,1,NA,NA,images/earth.jpg,images/rocket1,images/rocket2,null,images/rocket1,NA,1,real,null,2,NA,NA,NA,sub119
d3-animate-choice,211,650635,0.0-76.0-1.25,FALSE,TRUE,TRUE,FALSE,"""event"",""trial"",""time""
""fullscreenenter"",""5"",""10451""
","
","
","""event"",""trial"",""time""
""fullscreenenter"",""5"",""10451""
","
",164.8249999852851,NA,48,NA,NA,3000,1,NA,NA,images/redplanet1.jpg,images/alien2,images/alien1,images/rocket1,images/alien2,images/t.png,2,real,true,2,common,1,2020-06-20T13:08:54Z,sub119
two-step-fixation,212,651638,0.0-76.0-2.25,FALSE,TRUE,TRUE,FALSE,"""event"",""trial"",""time""
""fullscreenenter"",""5"",""10451""
","
","
","""event"",""trial"",""time""
""fullscreenenter"",""5"",""10451""
","
",NA,images/earth.jpg,NA,NA,NA,NA,NA,NA,NA,NA,NA,NA,NA,NA,NA,fixation,NA,NA,NA,NA,NA,NA,sub119
d3-animate-choice,213,653941,0.0-76.0-0.26,FALSE,TRUE,TRUE,FALSE,"""event"",""trial"",""time""
""fullscreenenter"",""5"",""10451""
","
","
","""event"",""trial"",""time""
""fullscreenenter"",""5"",""10451""
","
",299.94499997701496,NA,48,NA,NA,3000,1,NA,NA,images/earth.jpg,images/rocket1,images/rocket2,null,images/rocket1,NA,1,real,null,2,NA,NA,NA,sub119
d3-animate-choice,214,656223,0.0-76.0-1.26,FALSE,TRUE,TRUE,FALSE,"""event"",""trial"",""time""
""fullscreenenter"",""5"",""10451""
","
","
","""event"",""trial"",""time""
""fullscreenenter"",""5"",""10451""
","
",279.2849999968894,NA,48,NA,NA,3000,1,NA,NA,images/redplanet1.jpg,images/alien2,images/alien1,images/rocket1,images/alien2,images/t.png,2,real,true,2,common,1,2020-06-20T13:09:00Z,sub119
two-step-fixation,215,657226,0.0-76.0-2.26,FALSE,TRUE,TRUE,FALSE,"""event"",""trial"",""time""
""fullscreenenter"",""5"",""10451""
","
","
","""event"",""trial"",""time""
""fullscreenenter"",""5"",""10451""
","
",NA,images/earth.jpg,NA,NA,NA,NA,NA,NA,NA,NA,NA,NA,NA,NA,NA,fixation,NA,NA,NA,NA,NA,NA,sub119
d3-animate-choice,216,659461,0.0-76.0-0.27,FALSE,TRUE,TRUE,FALSE,"""event"",""trial"",""time""
""fullscreenenter"",""5"",""10451""
","
","
","""event"",""trial"",""time""
""fullscreenenter"",""5"",""10451""
","
",232.36999998334795,NA,48,NA,NA,3000,1,NA,NA,images/earth.jpg,images/rocket1,images/rocket2,null,images/rocket1,NA,1,real,null,2,NA,NA,NA,sub119
d3-animate-choice,217,661974,0.0-76.0-1.27,FALSE,TRUE,TRUE,FALSE,"""event"",""trial"",""time""
""fullscreenenter"",""5"",""10451""
","
","
","""event"",""trial"",""time""
""fullscreenenter"",""5"",""10451""
","
",509.5949999522418,NA,48,NA,NA,3000,1,NA,NA,images/purpleplanet.jpg,images/alien4,images/alien3,images/rocket1,images/alien4,images/t.png,2,real,false,2,rare,1,2020-06-20T13:09:06Z,sub119
two-step-fixation,218,662977,0.0-76.0-2.27,FALSE,TRUE,TRUE,FALSE,"""event"",""trial"",""time""
""fullscreenenter"",""5"",""10451""
","
","
","""event"",""trial"",""time""
""fullscreenenter"",""5"",""10451""
","
",NA,images/earth.jpg,NA,NA,NA,NA,NA,NA,NA,NA,NA,NA,NA,NA,NA,fixation,NA,NA,NA,NA,NA,NA,sub119
d3-animate-choice,219,665319,0.0-76.0-0.28,FALSE,TRUE,TRUE,FALSE,"""event"",""trial"",""time""
""fullscreenenter"",""5"",""10451""
","
","
","""event"",""trial"",""time""
""fullscreenenter"",""5"",""10451""
","
",338.46499997889623,NA,48,NA,NA,3000,1,NA,NA,images/earth.jpg,images/rocket1,images/rocket2,null,images/rocket1,NA,1,real,null,2,NA,NA,NA,sub119
d3-animate-choice,220,667600,0.0-76.0-1.28,FALSE,TRUE,TRUE,FALSE,"""event"",""trial"",""time""
""fullscreenenter"",""5"",""10451""
","
","
","""event"",""trial"",""time""
""fullscreenenter"",""5"",""10451""
","
",277.85499999299645,NA,48,NA,NA,3000,1,NA,NA,images/redplanet1.jpg,images/alien2,images/alien1,images/rocket1,images/alien2,images/nothing.png,2,real,true,2,common,0,2020-06-20T13:09:11Z,sub119
two-step-fixation,221,668603,0.0-76.0-2.28,FALSE,TRUE,TRUE,FALSE,"""event"",""trial"",""time""
""fullscreenenter"",""5"",""10451""
","
","
","""event"",""trial"",""time""
""fullscreenenter"",""5"",""10451""
","
",NA,images/earth.jpg,NA,NA,NA,NA,NA,NA,NA,NA,NA,NA,NA,NA,NA,fixation,NA,NA,NA,NA,NA,NA,sub119
d3-animate-choice,222,671411,0.0-76.0-0.29,FALSE,TRUE,TRUE,FALSE,"""event"",""trial"",""time""
""fullscreenenter"",""5"",""10451""
","
","
","""event"",""trial"",""time""
""fullscreenenter"",""5"",""10451""
","
",804.4649999937974,NA,49,NA,NA,3000,1,NA,NA,images/earth.jpg,images/rocket1,images/rocket2,null,images/rocket2,NA,1,real,null,1,NA,NA,NA,sub119
d3-animate-choice,223,673641,0.0-76.0-1.29,FALSE,TRUE,TRUE,FALSE,"""event"",""trial"",""time""
""fullscreenenter"",""5"",""10451""
","
","
","""event"",""trial"",""time""
""fullscreenenter"",""5"",""10451""
","
",226.42000002088025,NA,48,NA,NA,3000,1,NA,NA,images/redplanet1.jpg,images/alien2,images/alien1,images/rocket2,images/alien2,images/t.png,2,real,false,2,rare,1,2020-06-20T13:09:17Z,sub119
two-step-fixation,224,674643,0.0-76.0-2.29,FALSE,TRUE,TRUE,FALSE,"""event"",""trial"",""time""
""fullscreenenter"",""5"",""10451""
","
","
","""event"",""trial"",""time""
""fullscreenenter"",""5"",""10451""
","
",NA,images/earth.jpg,NA,NA,NA,NA,NA,NA,NA,NA,NA,NA,NA,NA,NA,fixation,NA,NA,NA,NA,NA,NA,sub119
d3-animate-choice,225,676788,0.0-76.0-0.30,FALSE,TRUE,TRUE,FALSE,"""event"",""trial"",""time""
""fullscreenenter"",""5"",""10451""
","
","
","""event"",""trial"",""time""
""fullscreenenter"",""5"",""10451""
","
",142.51500001410022,NA,48,NA,NA,3000,1,NA,NA,images/earth.jpg,images/rocket1,images/rocket2,null,images/rocket1,NA,1,real,null,2,NA,NA,NA,sub119
d3-animate-choice,226,679011,0.0-76.0-1.30,FALSE,TRUE,TRUE,FALSE,"""event"",""trial"",""time""
""fullscreenenter"",""5"",""10451""
","
","
","""event"",""trial"",""time""
""fullscreenenter"",""5"",""10451""
","
",220.6500000320375,NA,48,NA,NA,3000,1,NA,NA,images/redplanet1.jpg,images/alien2,images/alien1,images/rocket1,images/alien2,images/nothing.png,2,real,true,2,common,0,2020-06-20T13:09:23Z,sub119
two-step-fixation,227,680013,0.0-76.0-2.30,FALSE,TRUE,TRUE,FALSE,"""event"",""trial"",""time""
""fullscreenenter"",""5"",""10451""
","
","
","""event"",""trial"",""time""
""fullscreenenter"",""5"",""10451""
","
",NA,images/earth.jpg,NA,NA,NA,NA,NA,NA,NA,NA,NA,NA,NA,NA,NA,fixation,NA,NA,NA,NA,NA,NA,sub119
d3-animate-choice,228,682335,0.0-76.0-0.31,FALSE,TRUE,TRUE,FALSE,"""event"",""trial"",""time""
""fullscreenenter"",""5"",""10451""
","
","
","""event"",""trial"",""time""
""fullscreenenter"",""5"",""10451""
","
",319.33999998727813,NA,49,NA,NA,3000,1,NA,NA,images/earth.jpg,images/rocket1,images/rocket2,null,images/rocket2,NA,1,real,null,1,NA,NA,NA,sub119
d3-animate-choice,229,684840,0.0-76.0-1.31,FALSE,TRUE,TRUE,FALSE,"""event"",""trial"",""time""
""fullscreenenter"",""5"",""10451""
","
","
","""event"",""trial"",""time""
""fullscreenenter"",""5"",""10451""
","
",502.26500001735985,NA,48,NA,NA,3000,1,NA,NA,images/redplanet1.jpg,images/alien2,images/alien1,images/rocket2,images/alien2,images/t.png,2,real,false,2,rare,1,2020-06-20T13:09:29Z,sub119
two-step-fixation,230,685843,0.0-76.0-2.31,FALSE,TRUE,TRUE,FALSE,"""event"",""trial"",""time""
""fullscreenenter"",""5"",""10451""
","
","
","""event"",""trial"",""time""
""fullscreenenter"",""5"",""10451""
","
",NA,images/earth.jpg,NA,NA,NA,NA,NA,NA,NA,NA,NA,NA,NA,NA,NA,fixation,NA,NA,NA,NA,NA,NA,sub119
d3-animate-choice,231,688229,0.0-76.0-0.32,FALSE,TRUE,TRUE,FALSE,"""event"",""trial"",""time""
""fullscreenenter"",""5"",""10451""
","
","
","""event"",""trial"",""time""
""fullscreenenter"",""5"",""10451""
","
",383.66500003030524,NA,49,NA,NA,3000,1,NA,NA,images/earth.jpg,images/rocket1,images/rocket2,null,images/rocket2,NA,1,real,null,1,NA,NA,NA,sub119
d3-animate-choice,232,690500,0.0-76.0-1.32,FALSE,TRUE,TRUE,FALSE,"""event"",""trial"",""time""
""fullscreenenter"",""5"",""10451""
","
","
","""event"",""trial"",""time""
""fullscreenenter"",""5"",""10451""
","
",267.4049999914132,NA,48,NA,NA,3000,1,NA,NA,images/purpleplanet.jpg,images/alien4,images/alien3,images/rocket2,images/alien4,images/t.png,2,real,true,2,common,1,2020-06-20T13:09:34Z,sub119
two-step-fixation,233,691503,0.0-76.0-2.32,FALSE,TRUE,TRUE,FALSE,"""event"",""trial"",""time""
""fullscreenenter"",""5"",""10451""
","
","
","""event"",""trial"",""time""
""fullscreenenter"",""5"",""10451""
","
",NA,images/earth.jpg,NA,NA,NA,NA,NA,NA,NA,NA,NA,NA,NA,NA,NA,fixation,NA,NA,NA,NA,NA,NA,sub119
d3-animate-choice,234,693890,0.0-76.0-0.33,FALSE,TRUE,TRUE,FALSE,"""event"",""trial"",""time""
""fullscreenenter"",""5"",""10451""
","
","
","""event"",""trial"",""time""
""fullscreenenter"",""5"",""10451""
","
",383.87000001966953,NA,49,NA,NA,3000,1,NA,NA,images/earth.jpg,images/rocket1,images/rocket2,null,images/rocket2,NA,1,real,null,1,NA,NA,NA,sub119
d3-animate-choice,235,696084,0.0-76.0-1.33,FALSE,TRUE,TRUE,FALSE,"""event"",""trial"",""time""
""fullscreenenter"",""5"",""10451""
","
","
","""event"",""trial"",""time""
""fullscreenenter"",""5"",""10451""
","
",190.21500000962988,NA,48,NA,NA,3000,1,NA,NA,images/purpleplanet.jpg,images/alien4,images/alien3,images/rocket2,images/alien4,images/t.png,2,real,true,2,common,1,2020-06-20T13:09:40Z,sub119
two-step-fixation,236,697088,0.0-76.0-2.33,FALSE,TRUE,TRUE,FALSE,"""event"",""trial"",""time""
""fullscreenenter"",""5"",""10451""
","
","
","""event"",""trial"",""time""
""fullscreenenter"",""5"",""10451""
","
",NA,images/earth.jpg,NA,NA,NA,NA,NA,NA,NA,NA,NA,NA,NA,NA,NA,fixation,NA,NA,NA,NA,NA,NA,sub119
d3-animate-choice,237,699481,0.0-76.0-0.34,FALSE,TRUE,TRUE,FALSE,"""event"",""trial"",""time""
""fullscreenenter"",""5"",""10451""
","
","
","""event"",""trial"",""time""
""fullscreenenter"",""5"",""10451""
","
",387.9350000061095,NA,49,NA,NA,3000,1,NA,NA,images/earth.jpg,images/rocket1,images/rocket2,null,images/rocket2,NA,1,real,null,1,NA,NA,NA,sub119
d3-animate-choice,238,701723,0.0-76.0-1.34,FALSE,TRUE,TRUE,FALSE,"""event"",""trial"",""time""
""fullscreenenter"",""5"",""10451""
","
","
","""event"",""trial"",""time""
""fullscreenenter"",""5"",""10451""
","
",239.28000003797933,NA,48,NA,NA,3000,1,NA,NA,images/redplanet1.jpg,images/alien2,images/alien1,images/rocket2,images/alien2,images/nothing.png,2,real,false,2,rare,0,2020-06-20T13:09:45Z,sub119
two-step-fixation,239,702726,0.0-76.0-2.34,FALSE,TRUE,TRUE,FALSE,"""event"",""trial"",""time""
""fullscreenenter"",""5"",""10451""
","
","
","""event"",""trial"",""time""
""fullscreenenter"",""5"",""10451""
","
",NA,images/earth.jpg,NA,NA,NA,NA,NA,NA,NA,NA,NA,NA,NA,NA,NA,fixation,NA,NA,NA,NA,NA,NA,sub119
d3-animate-choice,240,705047,0.0-76.0-0.35,FALSE,TRUE,TRUE,FALSE,"""event"",""trial"",""time""
""fullscreenenter"",""5"",""10451""
","
","
","""event"",""trial"",""time""
""fullscreenenter"",""5"",""10451""
","
",318.3599999756552,NA,49,NA,NA,3000,1,NA,NA,images/earth.jpg,images/rocket1,images/rocket2,null,images/rocket2,NA,1,real,null,1,NA,NA,NA,sub119
d3-animate-choice,241,707362,0.0-76.0-1.35,FALSE,TRUE,TRUE,FALSE,"""event"",""trial"",""time""
""fullscreenenter"",""5"",""10451""
","
","
","""event"",""trial"",""time""
""fullscreenenter"",""5"",""10451""
","
",312.45999998645857,NA,48,NA,NA,3000,1,NA,NA,images/purpleplanet.jpg,images/alien4,images/alien3,images/rocket2,images/alien4,images/t.png,2,real,true,2,common,1,2020-06-20T13:09:51Z,sub119
two-step-fixation,242,708365,0.0-76.0-2.35,FALSE,TRUE,TRUE,FALSE,"""event"",""trial"",""time""
""fullscreenenter"",""5"",""10451""
","
","
","""event"",""trial"",""time""
""fullscreenenter"",""5"",""10451""
","
",NA,images/earth.jpg,NA,NA,NA,NA,NA,NA,NA,NA,NA,NA,NA,NA,NA,fixation,NA,NA,NA,NA,NA,NA,sub119
d3-animate-choice,243,710627,0.0-76.0-0.36,FALSE,TRUE,TRUE,FALSE,"""event"",""trial"",""time""
""fullscreenenter"",""5"",""10451""
","
","
","""event"",""trial"",""time""
""fullscreenenter"",""5"",""10451""
","
",258.67000001017004,NA,49,NA,NA,3000,1,2143.9099999843165,48,images/earth.jpg,images/rocket1,images/rocket2,null,images/rocket2,NA,1,real,null,1,NA,NA,NA,sub119
d3-animate-choice,244,713025,0.0-76.0-1.36,FALSE,TRUE,TRUE,FALSE,"""event"",""trial"",""time""
""fullscreenenter"",""5"",""10451""
","
","
","""event"",""trial"",""time""
""fullscreenenter"",""5"",""10451""
","
",394.81500000692904,NA,48,NA,NA,3000,1,NA,NA,images/purpleplanet.jpg,images/alien4,images/alien3,images/rocket2,images/alien4,images/t.png,2,real,true,2,common,1,2020-06-20T13:09:57Z,sub119
two-step-fixation,245,714028,0.0-76.0-2.36,FALSE,TRUE,TRUE,FALSE,"""event"",""trial"",""time""
""fullscreenenter"",""5"",""10451""
","
","
","""event"",""trial"",""time""
""fullscreenenter"",""5"",""10451""
","
",NA,images/earth.jpg,NA,NA,NA,NA,NA,NA,NA,NA,NA,NA,NA,NA,NA,fixation,NA,NA,NA,NA,NA,NA,sub119
d3-animate-choice,246,716743,0.0-76.0-0.37,FALSE,TRUE,TRUE,FALSE,"""event"",""trial"",""time""
""fullscreenenter"",""5"",""10451""
","
","
","""event"",""trial"",""time""
""fullscreenenter"",""5"",""10451""
","
",711.925000010524,NA,49,NA,NA,3000,1,NA,NA,images/earth.jpg,images/rocket1,images/rocket2,null,images/rocket2,NA,1,real,null,1,NA,NA,NA,sub119
d3-animate-choice,247,719070,0.0-76.0-1.37,FALSE,TRUE,TRUE,FALSE,"""event"",""trial"",""time""
""fullscreenenter"",""5"",""10451""
","
","
","""event"",""trial"",""time""
""fullscreenenter"",""5"",""10451""
","
",322.74000003235415,NA,48,NA,NA,3000,1,NA,NA,images/purpleplanet.jpg,images/alien4,images/alien3,images/rocket2,images/alien4,images/t.png,2,real,true,2,common,1,2020-06-20T13:10:03Z,sub119
two-step-fixation,248,720072,0.0-76.0-2.37,FALSE,TRUE,TRUE,FALSE,"""event"",""trial"",""time""
""fullscreenenter"",""5"",""10451""
","
","
","""event"",""trial"",""time""
""fullscreenenter"",""5"",""10451""
","
",NA,images/earth.jpg,NA,NA,NA,NA,NA,NA,NA,NA,NA,NA,NA,NA,NA,fixation,NA,NA,NA,NA,NA,NA,sub119
d3-animate-choice,249,722216,0.0-76.0-0.38,FALSE,TRUE,TRUE,FALSE,"""event"",""trial"",""time""
""fullscreenenter"",""5"",""10451""
","
","
","""event"",""trial"",""time""
""fullscreenenter"",""5"",""10451""
","
",140.13999997405335,NA,49,NA,NA,3000,1,NA,NA,images/earth.jpg,images/rocket1,images/rocket2,null,images/rocket2,NA,1,real,null,1,NA,NA,NA,sub119
d3-animate-choice,250,724395,0.0-76.0-1.38,FALSE,TRUE,TRUE,FALSE,"""event"",""trial"",""time""
""fullscreenenter"",""5"",""10451""
","
","
","""event"",""trial"",""time""
""fullscreenenter"",""5"",""10451""
","
",176.0449999710545,NA,48,NA,NA,3000,1,NA,NA,images/purpleplanet.jpg,images/alien4,images/alien3,images/rocket2,images/alien4,images/t.png,2,real,true,2,common,1,2020-06-20T13:10:08Z,sub119
two-step-fixation,251,725397,0.0-76.0-2.38,FALSE,TRUE,TRUE,FALSE,"""event"",""trial"",""time""
""fullscreenenter"",""5"",""10451""
","
","
","""event"",""trial"",""time""
""fullscreenenter"",""5"",""10451""
","
",NA,images/earth.jpg,NA,NA,NA,NA,NA,NA,NA,NA,NA,NA,NA,NA,NA,fixation,NA,NA,NA,NA,NA,NA,sub119
d3-animate-choice,252,728419,0.0-76.0-0.39,FALSE,TRUE,TRUE,FALSE,"""event"",""trial"",""time""
""fullscreenenter"",""5"",""10451""
","
","
","""event"",""trial"",""time""
""fullscreenenter"",""5"",""10451""
","
",1017.4349999870174,NA,49,NA,NA,3000,1,NA,NA,images/earth.jpg,images/rocket1,images/rocket2,null,images/rocket2,NA,1,real,null,1,NA,NA,NA,sub119
d3-animate-choice,253,730757,0.0-76.0-1.39,FALSE,TRUE,TRUE,FALSE,"""event"",""trial"",""time""
""fullscreenenter"",""5"",""10451""
","
","
","""event"",""trial"",""time""
""fullscreenenter"",""5"",""10451""
","
",335.4350000154227,NA,48,NA,NA,3000,1,NA,NA,images/purpleplanet.jpg,images/alien4,images/alien3,images/rocket2,images/alien4,images/t.png,2,real,true,2,common,1,2020-06-20T13:10:14Z,sub119
two-step-fixation,254,731760,0.0-76.0-2.39,FALSE,TRUE,TRUE,FALSE,"""event"",""trial"",""time""
""fullscreenenter"",""5"",""10451""
","
","
","""event"",""trial"",""time""
""fullscreenenter"",""5"",""10451""
","
",NA,images/earth.jpg,NA,NA,NA,NA,NA,NA,NA,NA,NA,NA,NA,NA,NA,fixation,NA,NA,NA,NA,NA,NA,sub119
d3-animate-choice,255,733797,0.0-76.0-0.40,FALSE,TRUE,TRUE,FALSE,"""event"",""trial"",""time""
""fullscreenenter"",""5"",""10451""
","
","
","""event"",""trial"",""time""
""fullscreenenter"",""5"",""10451""
","
",33.564999990630895,NA,49,NA,NA,3000,1,NA,NA,images/earth.jpg,images/rocket1,images/rocket2,null,images/rocket2,NA,1,real,null,1,NA,NA,NA,sub119
d3-animate-choice,256,736143,0.0-76.0-1.40,FALSE,TRUE,TRUE,FALSE,"""event"",""trial"",""time""
""fullscreenenter"",""5"",""10451""
","
","
","""event"",""trial"",""time""
""fullscreenenter"",""5"",""10451""
","
",342.9599999799393,NA,48,NA,NA,3000,1,NA,NA,images/redplanet1.jpg,images/alien2,images/alien1,images/rocket2,images/alien2,images/t.png,2,real,false,2,rare,1,2020-06-20T13:10:20Z,sub119
two-step-fixation,257,737145,0.0-76.0-2.40,FALSE,TRUE,TRUE,FALSE,"""event"",""trial"",""time""
""fullscreenenter"",""5"",""10451""
","
","
","""event"",""trial"",""time""
""fullscreenenter"",""5"",""10451""
","
",NA,images/earth.jpg,NA,NA,NA,NA,NA,NA,NA,NA,NA,NA,NA,NA,NA,fixation,NA,NA,NA,NA,NA,NA,sub119
d3-animate-choice,258,740987,0.0-76.0-0.41,FALSE,TRUE,TRUE,FALSE,"""event"",""trial"",""time""
""fullscreenenter"",""5"",""10451""
","
","
","""event"",""trial"",""time""
""fullscreenenter"",""5"",""10451""
","
",1839.68500001356,NA,49,NA,NA,3000,1,NA,NA,images/earth.jpg,images/rocket1,images/rocket2,null,images/rocket2,NA,1,real,null,1,NA,NA,NA,sub119
d3-animate-choice,259,743274,0.0-76.0-1.41,FALSE,TRUE,TRUE,FALSE,"""event"",""trial"",""time""
""fullscreenenter"",""5"",""10451""
","
","
","""event"",""trial"",""time""
""fullscreenenter"",""5"",""10451""
","
",284.31000001728535,NA,48,NA,NA,3000,1,NA,NA,images/redplanet1.jpg,images/alien2,images/alien1,images/rocket2,images/alien2,images/nothing.png,2,real,false,2,rare,0,2020-06-20T13:10:27Z,sub119
two-step-fixation,260,744277,0.0-76.0-2.41,FALSE,TRUE,TRUE,FALSE,"""event"",""trial"",""time""
""fullscreenenter"",""5"",""10451""
","
","
","""event"",""trial"",""time""
""fullscreenenter"",""5"",""10451""
","
",NA,images/earth.jpg,NA,NA,NA,NA,NA,NA,NA,NA,NA,NA,NA,NA,NA,fixation,NA,NA,NA,NA,NA,NA,sub119
d3-animate-choice,261,746622,0.0-76.0-0.42,FALSE,TRUE,TRUE,FALSE,"""event"",""trial"",""time""
""fullscreenenter"",""5"",""10451""
","
","
","""event"",""trial"",""time""
""fullscreenenter"",""5"",""10451""
","
",341.0450000083074,NA,49,NA,NA,3000,1,NA,NA,images/earth.jpg,images/rocket1,images/rocket2,null,images/rocket2,NA,1,real,null,1,NA,NA,NA,sub119
d3-animate-choice,262,748835,0.0-76.0-1.42,FALSE,TRUE,TRUE,FALSE,"""event"",""trial"",""time""
""fullscreenenter"",""5"",""10451""
","
","
","""event"",""trial"",""time""
""fullscreenenter"",""5"",""10451""
","
",209.07500002067536,NA,48,NA,NA,3000,1,NA,NA,images/redplanet1.jpg,images/alien2,images/alien1,images/rocket2,images/alien2,images/nothing.png,2,real,false,2,rare,0,2020-06-20T13:10:33Z,sub119
two-step-fixation,263,749838,0.0-76.0-2.42,FALSE,TRUE,TRUE,FALSE,"""event"",""trial"",""time""
""fullscreenenter"",""5"",""10451""
","
","
","""event"",""trial"",""time""
""fullscreenenter"",""5"",""10451""
","
",NA,images/earth.jpg,NA,NA,NA,NA,NA,NA,NA,NA,NA,NA,NA,NA,NA,fixation,NA,NA,NA,NA,NA,NA,sub119
d3-animate-choice,264,751923,0.0-76.0-0.43,FALSE,TRUE,TRUE,FALSE,"""event"",""trial"",""time""
""fullscreenenter"",""5"",""10451""
","
","
","""event"",""trial"",""time""
""fullscreenenter"",""5"",""10451""
","
",81.35499997297302,NA,49,NA,NA,3000,1,NA,NA,images/earth.jpg,images/rocket1,images/rocket2,null,images/rocket2,NA,1,real,null,1,NA,NA,NA,sub119
d3-animate-choice,265,754261,0.0-76.0-1.43,FALSE,TRUE,TRUE,FALSE,"""event"",""trial"",""time""
""fullscreenenter"",""5"",""10451""
","
","
","""event"",""trial"",""time""
""fullscreenenter"",""5"",""10451""
","
",334.33500002138317,NA,48,NA,NA,3000,1,NA,NA,images/purpleplanet.jpg,images/alien4,images/alien3,images/rocket2,images/alien4,images/t.png,2,real,true,2,common,1,2020-06-20T13:10:38Z,sub119
two-step-fixation,266,755264,0.0-76.0-2.43,FALSE,TRUE,TRUE,FALSE,"""event"",""trial"",""time""
""fullscreenenter"",""5"",""10451""
","
","
","""event"",""trial"",""time""
""fullscreenenter"",""5"",""10451""
","
",NA,images/earth.jpg,NA,NA,NA,NA,NA,NA,NA,NA,NA,NA,NA,NA,NA,fixation,NA,NA,NA,NA,NA,NA,sub119
d3-animate-choice,267,757901,0.0-76.0-0.44,FALSE,TRUE,TRUE,FALSE,"""event"",""trial"",""time""
""fullscreenenter"",""5"",""10451""
","
","
","""event"",""trial"",""time""
""fullscreenenter"",""5"",""10451""
","
",634.0649999910966,NA,49,NA,NA,3000,1,NA,NA,images/earth.jpg,images/rocket1,images/rocket2,null,images/rocket2,NA,1,real,null,1,NA,NA,NA,sub119
d3-animate-choice,268,760366,0.0-76.0-1.44,FALSE,TRUE,TRUE,FALSE,"""event"",""trial"",""time""
""fullscreenenter"",""5"",""10451""
","
","
","""event"",""trial"",""time""
""fullscreenenter"",""5"",""10451""
","
",460.6499999645166,NA,48,NA,NA,3000,1,NA,NA,images/redplanet1.jpg,images/alien2,images/alien1,images/rocket2,images/alien2,images/t.png,2,real,false,2,rare,1,2020-06-20T13:10:44Z,sub119
two-step-fixation,269,761369,0.0-76.0-2.44,FALSE,TRUE,TRUE,FALSE,"""event"",""trial"",""time""
""fullscreenenter"",""5"",""10451""
","
","
","""event"",""trial"",""time""
""fullscreenenter"",""5"",""10451""
","
",NA,images/earth.jpg,NA,NA,NA,NA,NA,NA,NA,NA,NA,NA,NA,NA,NA,fixation,NA,NA,NA,NA,NA,NA,sub119
d3-animate-choice,270,763586,0.0-76.0-0.45,FALSE,TRUE,TRUE,FALSE,"""event"",""trial"",""time""
""fullscreenenter"",""5"",""10451""
","
","
","""event"",""trial"",""time""
""fullscreenenter"",""5"",""10451""
","
",213.54000002611428,NA,49,NA,NA,3000,1,NA,NA,images/earth.jpg,images/rocket1,images/rocket2,null,images/rocket2,NA,1,real,null,1,NA,NA,NA,sub119
d3-animate-choice,271,765888,0.0-76.0-1.45,FALSE,TRUE,TRUE,FALSE,"""event"",""trial"",""time""
""fullscreenenter"",""5"",""10451""
","
","
","""event"",""trial"",""time""
""fullscreenenter"",""5"",""10451""
","
",298.7600000342354,NA,48,NA,NA,3000,1,NA,NA,images/purpleplanet.jpg,images/alien4,images/alien3,images/rocket2,images/alien4,images/t.png,2,real,true,2,common,1,2020-06-20T13:10:50Z,sub119
two-step-fixation,272,766891,0.0-76.0-2.45,FALSE,TRUE,TRUE,FALSE,"""event"",""trial"",""time""
""fullscreenenter"",""5"",""10451""
","
","
","""event"",""trial"",""time""
""fullscreenenter"",""5"",""10451""
","
",NA,images/earth.jpg,NA,NA,NA,NA,NA,NA,NA,NA,NA,NA,NA,NA,NA,fixation,NA,NA,NA,NA,NA,NA,sub119
d3-animate-choice,273,769045,0.0-76.0-0.46,FALSE,TRUE,TRUE,FALSE,"""event"",""trial"",""time""
""fullscreenenter"",""5"",""10451""
","
","
","""event"",""trial"",""time""
""fullscreenenter"",""5"",""10451""
","
",151.1000000173226,NA,49,NA,NA,3000,1,NA,NA,images/earth.jpg,images/rocket1,images/rocket2,null,images/rocket2,NA,1,real,null,1,NA,NA,NA,sub119
d3-animate-choice,274,771215,0.0-76.0-1.46,FALSE,TRUE,TRUE,FALSE,"""event"",""trial"",""time""
""fullscreenenter"",""5"",""10451""
","
","
","""event"",""trial"",""time""
""fullscreenenter"",""5"",""10451""
","
",167.14999999385327,NA,48,NA,NA,3000,1,NA,NA,images/purpleplanet.jpg,images/alien4,images/alien3,images/rocket2,images/alien4,images/nothing.png,2,real,true,2,common,0,2020-06-20T13:10:55Z,sub119
two-step-fixation,275,772218,0.0-76.0-2.46,FALSE,TRUE,TRUE,FALSE,"""event"",""trial"",""time""
""fullscreenenter"",""5"",""10451""
","
","
","""event"",""trial"",""time""
""fullscreenenter"",""5"",""10451""
","
",NA,images/earth.jpg,NA,NA,NA,NA,NA,NA,NA,NA,NA,NA,NA,NA,NA,fixation,NA,NA,NA,NA,NA,NA,sub119
d3-animate-choice,276,774793,0.0-76.0-0.47,FALSE,TRUE,TRUE,FALSE,"""event"",""trial"",""time""
""fullscreenenter"",""5"",""10451""
","
","
","""event"",""trial"",""time""
""fullscreenenter"",""5"",""10451""
","
",571.4500000467524,NA,49,NA,NA,3000,1,NA,NA,images/earth.jpg,images/rocket1,images/rocket2,null,images/rocket2,NA,1,real,null,1,NA,NA,NA,sub119
d3-animate-choice,277,777194,0.0-76.0-1.47,FALSE,TRUE,TRUE,FALSE,"""event"",""trial"",""time""
""fullscreenenter"",""5"",""10451""
","
","
","""event"",""trial"",""time""
""fullscreenenter"",""5"",""10451""
","
",397.545000014361,NA,49,NA,NA,3000,1,NA,NA,images/purpleplanet.jpg,images/alien4,images/alien3,images/rocket2,images/alien3,images/nothing.png,2,real,true,1,common,0,2020-06-20T13:11:01Z,sub119
two-step-fixation,278,778197,0.0-76.0-2.47,FALSE,TRUE,TRUE,FALSE,"""event"",""trial"",""time""
""fullscreenenter"",""5"",""10451""
","
","
","""event"",""trial"",""time""
""fullscreenenter"",""5"",""10451""
","
",NA,images/earth.jpg,NA,NA,NA,NA,NA,NA,NA,NA,NA,NA,NA,NA,NA,fixation,NA,NA,NA,NA,NA,NA,sub119
d3-animate-choice,279,780269,0.0-76.0-0.48,FALSE,TRUE,TRUE,FALSE,"""event"",""trial"",""time""
""fullscreenenter"",""5"",""10451""
","
","
","""event"",""trial"",""time""
""fullscreenenter"",""5"",""10451""
","
",69.2200000048615,NA,49,NA,NA,3000,1,NA,NA,images/earth.jpg,images/rocket1,images/rocket2,null,images/rocket2,NA,1,real,null,1,NA,NA,NA,sub119
d3-animate-choice,280,782571,0.0-76.0-1.48,FALSE,TRUE,TRUE,FALSE,"""event"",""trial"",""time""
""fullscreenenter"",""5"",""10451""
","
","
","""event"",""trial"",""time""
""fullscreenenter"",""5"",""10451""
","
",298.9749999833293,NA,48,NA,NA,3000,1,NA,NA,images/purpleplanet.jpg,images/alien4,images/alien3,images/rocket2,images/alien4,images/t.png,2,real,true,2,common,1,2020-06-20T13:11:06Z,sub119
two-step-fixation,281,783574,0.0-76.0-2.48,FALSE,TRUE,TRUE,FALSE,"""event"",""trial"",""time""
""fullscreenenter"",""5"",""10451""
","
","
","""event"",""trial"",""time""
""fullscreenenter"",""5"",""10451""
","
",NA,images/earth.jpg,NA,NA,NA,NA,NA,NA,NA,NA,NA,NA,NA,NA,NA,fixation,NA,NA,NA,NA,NA,NA,sub119
d3-animate-choice,282,785816,0.0-76.0-0.49,FALSE,TRUE,TRUE,FALSE,"""event"",""trial"",""time""
""fullscreenenter"",""5"",""10451""
","
","
","""event"",""trial"",""time""
""fullscreenenter"",""5"",""10451""
","
