trial_type,trial_index,time_elapsed,internal_node_id,rocket_sides,red_planet_first_rocket,red_display_order,purple_display_order,interactions,blur_events,focus_events,fullscreenenter_events,fullscreenexit_events,rt,stimulus,key_press,button_pressed,success,duration,valid_pressed,rts,keys,planet_text,right_text,left_text,center_text,chosen_text,reward_text,trial_stage,practice_trial,transition_type,choice,transition,reward,timestamp,subject_id
pavlovia,0,3,0.0-0.0,FALSE,FALSE,TRUE,TRUE,"
","
","
","
","
",NA,NA,NA,NA,NA,NA,NA,NA,NA,NA,NA,NA,NA,NA,NA,NA,NA,NA,NA,NA,NA,NA,sub94
html-keyboard-response,1,1993,0.0-1.0,FALSE,FALSE,TRUE,TRUE,"
","
","
","
","
",1987.6850000000559,Welcome! Press the space bar to begin.,32,NA,NA,NA,NA,NA,NA,NA,NA,NA,NA,NA,NA,NA,NA,NA,NA,NA,NA,NA,sub94
audio-keyboard-response,2,9115,0.0-2.0,FALSE,FALSE,TRUE,TRUE,"
","
","
","
","
",6211,audio/beep_loop.wav,32,NA,NA,NA,NA,NA,NA,NA,NA,NA,NA,NA,NA,NA,NA,NA,NA,NA,NA,NA,sub94
audio-button-response,3,18909,0.0-3.0,FALSE,FALSE,TRUE,TRUE,"
","
","
","
","
",NaN,audio/fish.mp3,NA,1,NA,NA,NA,NA,NA,NA,NA,NA,NA,NA,NA,NA,NA,NA,NA,NA,NA,NA,sub94
audio-button-response,4,22643,0.0-4.0,FALSE,FALSE,TRUE,TRUE,"""event"",""trial"",""time""
""fullscreenenter"",""5"",""27391""
","
","
","""event"",""trial"",""time""
""fullscreenenter"",""5"",""27391""
","
",NaN,audio/tiger.mp3,NA,4,NA,NA,NA,NA,NA,NA,NA,NA,NA,NA,NA,NA,NA,NA,NA,NA,NA,NA,sub94
fullscreen,5,28383,0.0-5.0,FALSE,FALSE,TRUE,TRUE,"""event"",""trial"",""time""
""fullscreenenter"",""5"",""27391""
","
","
","""event"",""trial"",""time""
""fullscreenenter"",""5"",""27391""
","
",NA,NA,NA,NA,TRUE,NA,NA,NA,NA,NA,NA,NA,NA,NA,NA,NA,NA,NA,NA,NA,NA,NA,sub94
d3-instructions,6,42669,0.0-6.0,FALSE,FALSE,TRUE,TRUE,"""event"",""trial"",""time""
""fullscreenenter"",""5"",""27391""
","
","
","""event"",""trial"",""time""
""fullscreenenter"",""5"",""27391""
","
",NA,NA,NA,NA,NA,NA,NA,NA,NA,NA,NA,NA,NA,NA,NA,NA,NA,NA,NA,NA,NA,NA,sub94
d3-instructions,7,55446,0.0-7.0,FALSE,FALSE,TRUE,TRUE,"""event"",""trial"",""time""
""fullscreenenter"",""5"",""27391""
","
","
","""event"",""trial"",""time""
""fullscreenenter"",""5"",""27391""
","
",NA,NA,NA,NA,NA,NA,NA,NA,NA,NA,NA,NA,NA,NA,NA,NA,NA,NA,NA,NA,NA,NA,sub94
d3-instructions,8,62084,0.0-8.0,FALSE,FALSE,TRUE,TRUE,"""event"",""trial"",""time""
""fullscreenenter"",""5"",""27391""
","
","
","""event"",""trial"",""time""
""fullscreenenter"",""5"",""27391""
","
",NA,NA,NA,NA,NA,NA,NA,NA,NA,NA,NA,NA,NA,NA,NA,NA,NA,NA,NA,NA,NA,NA,sub94
d3-instructions,9,73309,0.0-9.0,FALSE,FALSE,TRUE,TRUE,"""event"",""trial"",""time""
""fullscreenenter"",""5"",""27391""
","
","
","""event"",""trial"",""time""
""fullscreenenter"",""5"",""27391""
","
",NA,NA,NA,NA,NA,NA,NA,NA,NA,NA,NA,NA,NA,NA,NA,NA,NA,NA,NA,NA,NA,NA,sub94
d3-instructions,10,106418,0.0-10.0,FALSE,FALSE,TRUE,TRUE,"""event"",""trial"",""time""
""fullscreenenter"",""5"",""27391""
","
","
","""event"",""trial"",""time""
""fullscreenenter"",""5"",""27391""
","
",NA,NA,NA,NA,NA,NA,NA,NA,NA,NA,NA,NA,NA,NA,NA,NA,NA,NA,NA,NA,NA,NA,sub94
d3-animate-choice,11,112133,0.0-11.0,FALSE,FALSE,TRUE,TRUE,"""event"",""trial"",""time""
""fullscreenenter"",""5"",""27391""
","
","
","""event"",""trial"",""time""
""fullscreenenter"",""5"",""27391""
","
",3702.6699999987613,NA,49,NA,NA,3000,1,NA,NA,images/tutgreenplanet.jpg,images/tutalien1,images/tutalien2,null,images/tutalien2,NA,NA,practice,null,NA,NA,NA,NA,sub94
d3-animate-choice,12,115197,0.0-12.0,FALSE,FALSE,TRUE,TRUE,"""event"",""trial"",""time""
""fullscreenenter"",""5"",""27391""
","
","
","""event"",""trial"",""time""
""fullscreenenter"",""5"",""27391""
","
",1059.255000000121,NA,48,NA,NA,3000,1,NA,NA,images/tutgreenplanet.jpg,images/tutalien1,images/tutalien2,null,images/tutalien1,NA,NA,practice,null,NA,NA,NA,NA,sub94
d3-animate-choice,13,118242,0.0-13.0,FALSE,FALSE,TRUE,TRUE,"""event"",""trial"",""time""
""fullscreenenter"",""5"",""27391""
","
","
","""event"",""trial"",""time""
""fullscreenenter"",""5"",""27391""
","
",1040.8099999767728,NA,49,NA,NA,3000,1,2230.699999985518,48,images/tutgreenplanet.jpg,images/tutalien1,images/tutalien2,null,images/tutalien2,NA,NA,practice,null,NA,NA,NA,NA,sub94
d3-animate-choice,14,120997,0.0-14.0,FALSE,FALSE,TRUE,TRUE,"""event"",""trial"",""time""
""fullscreenenter"",""5"",""27391""
","
","
","""event"",""trial"",""time""
""fullscreenenter"",""5"",""27391""
","
",749.5749999943655,NA,48,NA,NA,3000,1,NA,NA,images/tutgreenplanet.jpg,images/tutalien1,images/tutalien2,null,images/tutalien1,NA,NA,practice,null,NA,NA,NA,NA,sub94
d3-instructions,15,127563,0.0-15.0,FALSE,FALSE,TRUE,TRUE,"""event"",""trial"",""time""
""fullscreenenter"",""5"",""27391""
","
","
","""event"",""trial"",""time""
""fullscreenenter"",""5"",""27391""
","
",NA,NA,NA,NA,NA,NA,NA,NA,NA,NA,NA,NA,NA,NA,NA,NA,NA,NA,NA,NA,NA,NA,sub94
d3-instructions,16,134176,0.0-16.0,FALSE,FALSE,TRUE,TRUE,"""event"",""trial"",""time""
""fullscreenenter"",""5"",""27391""
","
","
","""event"",""trial"",""time""
""fullscreenenter"",""5"",""27391""
","
",NA,NA,NA,NA,NA,NA,NA,NA,NA,NA,NA,NA,NA,NA,NA,NA,NA,NA,NA,NA,NA,NA,sub94
d3-instructions,17,143675,0.0-17.0,FALSE,FALSE,TRUE,TRUE,"""event"",""trial"",""time""
""fullscreenenter"",""5"",""27391""
","
","
","""event"",""trial"",""time""
""fullscreenenter"",""5"",""27391""
","
",NA,NA,NA,NA,NA,NA,NA,NA,NA,NA,NA,NA,NA,NA,NA,NA,NA,NA,NA,NA,NA,NA,sub94
d3-instructions,18,157188,0.0-18.0,FALSE,FALSE,TRUE,TRUE,"""event"",""trial"",""time""
""fullscreenenter"",""5"",""27391""
","
","
","""event"",""trial"",""time""
""fullscreenenter"",""5"",""27391""
","
",NA,NA,NA,NA,NA,NA,NA,NA,NA,NA,NA,NA,NA,NA,NA,NA,NA,NA,NA,NA,NA,NA,sub94
d3-instructions,19,170796,0.0-19.0,FALSE,FALSE,TRUE,TRUE,"""event"",""trial"",""time""
""fullscreenenter"",""5"",""27391""
","
","
","""event"",""trial"",""time""
""fullscreenenter"",""5"",""27391""
","
",NA,NA,NA,NA,NA,NA,NA,NA,NA,NA,NA,NA,NA,NA,NA,NA,NA,NA,NA,NA,NA,NA,sub94
d3-animate-choice,20,174312,0.0-20.0,FALSE,FALSE,TRUE,TRUE,"""event"",""trial"",""time""
""fullscreenenter"",""5"",""27391""
","
","
","""event"",""trial"",""time""
""fullscreenenter"",""5"",""27391""
","
",1510.5749999929685,NA,49,NA,NA,3000,1,"2083.5800000058953,2711.494999995921,3266.3849999953527",494949,images/tutyellowplanet.jpg,null,images/tutalien3,null,images/tutalien3,images/t.png,NA,practice,null,NA,NA,NA,NA,sub94
d3-animate-choice,21,176648,0.0-21.0,FALSE,FALSE,TRUE,TRUE,"""event"",""trial"",""time""
""fullscreenenter"",""5"",""27391""
","
","
","""event"",""trial"",""time""
""fullscreenenter"",""5"",""27391""
","
",330.389999988256,NA,49,NA,NA,3000,1,NA,NA,images/tutyellowplanet.jpg,null,images/tutalien3,null,images/tutalien3,images/t.png,NA,practice,null,NA,NA,NA,NA,sub94
d3-animate-choice,22,179416,0.0-22.0,FALSE,FALSE,TRUE,TRUE,"""event"",""trial"",""time""
""fullscreenenter"",""5"",""27391""
","
","
","""event"",""trial"",""time""
""fullscreenenter"",""5"",""27391""
","
",762.4800000048708,NA,49,NA,NA,3000,1,NA,NA,images/tutyellowplanet.jpg,null,images/tutalien3,null,images/tutalien3,images/t.png,NA,practice,null,NA,NA,NA,NA,sub94
d3-animate-choice,23,182025,0.0-23.0,FALSE,FALSE,TRUE,TRUE,"""event"",""trial"",""time""
""fullscreenenter"",""5"",""27391""
","
","
","""event"",""trial"",""time""
""fullscreenenter"",""5"",""27391""
","
",604.6349999960512,NA,49,NA,NA,3000,1,NA,NA,images/tutyellowplanet.jpg,null,images/tutalien3,null,images/tutalien3,images/t.png,NA,practice,null,NA,NA,NA,NA,sub94
d3-animate-choice,24,185039,0.0-24.0,FALSE,FALSE,TRUE,TRUE,"""event"",""trial"",""time""
""fullscreenenter"",""5"",""27391""
","
","
","""event"",""trial"",""time""
""fullscreenenter"",""5"",""27391""
","
",1009.7999999998137,NA,49,NA,NA,3000,1,NA,NA,images/tutyellowplanet.jpg,null,images/tutalien3,null,images/tutalien3,images/t.png,NA,practice,null,NA,NA,NA,NA,sub94
d3-animate-choice,25,187547,0.0-25.0,FALSE,FALSE,TRUE,TRUE,"""event"",""trial"",""time""
""fullscreenenter"",""5"",""27391""
","
","
","""event"",""trial"",""time""
""fullscreenenter"",""5"",""27391""
","
",503.4600000071805,NA,49,NA,NA,3000,1,NA,NA,images/tutyellowplanet.jpg,null,images/tutalien3,null,images/tutalien3,images/t.png,NA,practice,null,NA,NA,NA,NA,sub94
d3-animate-choice,26,190123,0.0-26.0,FALSE,FALSE,TRUE,TRUE,"""event"",""trial"",""time""
""fullscreenenter"",""5"",""27391""
","
","
","""event"",""trial"",""time""
""fullscreenenter"",""5"",""27391""
","
",570.4550000082236,NA,49,NA,NA,3000,1,NA,NA,images/tutyellowplanet.jpg,null,images/tutalien3,null,images/tutalien3,images/t.png,NA,practice,null,NA,NA,NA,NA,sub94
d3-animate-choice,27,192412,0.0-27.0,FALSE,FALSE,TRUE,TRUE,"""event"",""trial"",""time""
""fullscreenenter"",""5"",""27391""
","
","
","""event"",""trial"",""time""
""fullscreenenter"",""5"",""27391""
","
",285.4599999845959,NA,49,NA,NA,3000,1,NA,NA,images/tutyellowplanet.jpg,null,images/tutalien3,null,images/tutalien3,images/t.png,NA,practice,null,NA,NA,NA,NA,sub94
d3-animate-choice,28,194984,0.0-28.0,FALSE,FALSE,TRUE,TRUE,"""event"",""trial"",""time""
""fullscreenenter"",""5"",""27391""
","
","
","""event"",""trial"",""time""
""fullscreenenter"",""5"",""27391""
","
",566.7099999845959,NA,49,NA,NA,3000,1,2267.9749999952037,49,images/tutyellowplanet.jpg,null,images/tutalien3,null,images/tutalien3,images/t.png,NA,practice,null,NA,NA,NA,NA,sub94
d3-animate-choice,29,198133,0.0-29.0,FALSE,FALSE,TRUE,TRUE,"""event"",""trial"",""time""
""fullscreenenter"",""5"",""27391""
","
","
","""event"",""trial"",""time""
""fullscreenenter"",""5"",""27391""
","
",1144.3699999945238,NA,49,NA,NA,3000,1,NA,NA,images/tutyellowplanet.jpg,null,images/tutalien3,null,images/tutalien3,images/nothing.png,NA,practice,null,NA,NA,NA,NA,sub94
d3-instructions,30,205679,0.0-30.0,FALSE,FALSE,TRUE,TRUE,"""event"",""trial"",""time""
""fullscreenenter"",""5"",""27391""
","
","
","""event"",""trial"",""time""
""fullscreenenter"",""5"",""27391""
","
",NA,NA,NA,NA,NA,NA,NA,NA,NA,NA,NA,NA,NA,NA,NA,NA,NA,NA,NA,NA,NA,NA,sub94
d3-instructions,31,216516,0.0-31.0,FALSE,FALSE,TRUE,TRUE,"""event"",""trial"",""time""
""fullscreenenter"",""5"",""27391""
","
","
","""event"",""trial"",""time""
""fullscreenenter"",""5"",""27391""
","
",NA,NA,NA,NA,NA,NA,NA,NA,NA,NA,NA,NA,NA,NA,NA,NA,NA,NA,NA,NA,NA,NA,sub94
d3-instructions,32,227262,0.0-32.0,FALSE,FALSE,TRUE,TRUE,"""event"",""trial"",""time""
""fullscreenenter"",""5"",""27391""
","
","
","""event"",""trial"",""time""
""fullscreenenter"",""5"",""27391""
","
",NA,NA,NA,NA,NA,NA,NA,NA,NA,NA,NA,NA,NA,NA,NA,NA,NA,NA,NA,NA,NA,NA,sub94
d3-instructions,33,238569,0.0-33.0,FALSE,FALSE,TRUE,TRUE,"""event"",""trial"",""time""
""fullscreenenter"",""5"",""27391""
","
","
","""event"",""trial"",""time""
""fullscreenenter"",""5"",""27391""
","
",NA,NA,NA,NA,NA,NA,NA,NA,NA,NA,NA,NA,NA,NA,NA,NA,NA,NA,NA,NA,NA,NA,sub94
d3-animate-choice,34,244370,0.0-34.0,FALSE,FALSE,TRUE,TRUE,"""event"",""trial"",""time""
""fullscreenenter"",""5"",""27391""
","
","
","""event"",""trial"",""time""
""fullscreenenter"",""5"",""27391""
","
",3160.4600000136998,NA,32,NA,NA,3000,1,3795.7750000059605,49,images/tutgreenplanet.jpg,images/tutalien1,images/tutalien2,null,images/tutalien2,images/t.png,NA,practice,null,NA,NA,NA,NA,sub94
d3-animate-choice,35,247312,0.0-35.0,FALSE,FALSE,TRUE,TRUE,"""event"",""trial"",""time""
""fullscreenenter"",""5"",""27391""
","
","
","""event"",""trial"",""time""
""fullscreenenter"",""5"",""27391""
","
",938.319999986561,NA,49,NA,NA,3000,1,NA,NA,images/tutgreenplanet.jpg,images/tutalien1,images/tutalien2,null,images/tutalien2,images/t.png,NA,practice,null,NA,NA,NA,NA,sub94
d3-animate-choice,36,249894,0.0-36.0,FALSE,FALSE,TRUE,TRUE,"""event"",""trial"",""time""
""fullscreenenter"",""5"",""27391""
","
","
","""event"",""trial"",""time""
""fullscreenenter"",""5"",""27391""
","
",576.5900000114925,NA,49,NA,NA,3000,1,NA,NA,images/tutgreenplanet.jpg,images/tutalien1,images/tutalien2,null,images/tutalien2,images/t.png,NA,practice,null,NA,NA,NA,NA,sub94
d3-animate-choice,37,252275,0.0-37.0,FALSE,FALSE,TRUE,TRUE,"""event"",""trial"",""time""
""fullscreenenter"",""5"",""27391""
","
","
","""event"",""trial"",""time""
""fullscreenenter"",""5"",""27391""
","
",377.45499997981824,NA,49,NA,NA,3000,1,2057.5149999931455,49,images/tutgreenplanet.jpg,images/tutalien1,images/tutalien2,null,images/tutalien2,images/t.png,NA,practice,null,NA,NA,NA,NA,sub94
d3-animate-choice,38,254744,0.0-38.0,FALSE,FALSE,TRUE,TRUE,"""event"",""trial"",""time""
""fullscreenenter"",""5"",""27391""
","
","
","""event"",""trial"",""time""
""fullscreenenter"",""5"",""27391""
","
",463.5149999812711,NA,49,NA,NA,3000,1,NA,NA,images/tutgreenplanet.jpg,images/tutalien1,images/tutalien2,null,images/tutalien2,images/t.png,NA,practice,null,NA,NA,NA,NA,sub94
d3-animate-choice,39,258872,0.0-39.0,FALSE,FALSE,TRUE,TRUE,"""event"",""trial"",""time""
""fullscreenenter"",""5"",""27391""
","
","
","""event"",""trial"",""time""
""fullscreenenter"",""5"",""27391""
","
",2121.9399999827147,NA,49,NA,NA,3000,1,NA,NA,images/tutgreenplanet.jpg,images/tutalien1,images/tutalien2,null,images/tutalien2,images/t.png,NA,practice,null,NA,NA,NA,NA,sub94
d3-animate-choice,40,261905,0.0-40.0,FALSE,FALSE,TRUE,TRUE,"""event"",""trial"",""time""
""fullscreenenter"",""5"",""27391""
","
","
","""event"",""trial"",""time""
""fullscreenenter"",""5"",""27391""
","
",1027.8249999973923,NA,49,NA,NA,3000,1,2939.029999979539,49,images/tutgreenplanet.jpg,images/tutalien1,images/tutalien2,null,images/tutalien2,images/t.png,NA,practice,null,NA,NA,NA,NA,sub94
d3-animate-choice,41,264402,0.0-41.0,FALSE,FALSE,TRUE,TRUE,"""event"",""trial"",""time""
""fullscreenenter"",""5"",""27391""
","
","
","""event"",""trial"",""time""
""fullscreenenter"",""5"",""27391""
","
",491.97499998263083,NA,49,NA,NA,3000,1,2255.494999990333,49,images/tutgreenplanet.jpg,images/tutalien1,images/tutalien2,null,images/tutalien2,images/t.png,NA,practice,null,NA,NA,NA,NA,sub94
d3-animate-choice,42,267578,0.0-42.0,FALSE,FALSE,TRUE,TRUE,"""event"",""trial"",""time""
""fullscreenenter"",""5"",""27391""
","
","
","""event"",""trial"",""time""
""fullscreenenter"",""5"",""27391""
","
",1170.7200000237208,NA,49,NA,NA,3000,1,NA,NA,images/tutgreenplanet.jpg,images/tutalien1,images/tutalien2,null,images/tutalien2,images/t.png,NA,practice,null,NA,NA,NA,NA,sub94
d3-animate-choice,43,270291,0.0-43.0,FALSE,FALSE,TRUE,TRUE,"""event"",""trial"",""time""
""fullscreenenter"",""5"",""27391""
","
","
","""event"",""trial"",""time""
""fullscreenenter"",""5"",""27391""
","
",708.7900000042282,NA,49,NA,NA,3000,1,NA,NA,images/tutgreenplanet.jpg,images/tutalien1,images/tutalien2,null,images/tutalien2,images/t.png,NA,practice,null,NA,NA,NA,NA,sub94
d3-instructions,44,284305,0.0-44.0,FALSE,FALSE,TRUE,TRUE,"""event"",""trial"",""time""
""fullscreenenter"",""5"",""27391""
","
","
","""event"",""trial"",""time""
""fullscreenenter"",""5"",""27391""
","
",NA,NA,NA,NA,NA,NA,NA,NA,NA,NA,NA,NA,NA,NA,NA,NA,NA,NA,NA,NA,NA,NA,sub94
d3-instructions,45,291189,0.0-45.0,FALSE,FALSE,TRUE,TRUE,"""event"",""trial"",""time""
""fullscreenenter"",""5"",""27391""
","
","
","""event"",""trial"",""time""
""fullscreenenter"",""5"",""27391""
","
",NA,NA,NA,NA,NA,NA,NA,NA,NA,NA,NA,NA,NA,NA,NA,NA,NA,NA,NA,NA,NA,NA,sub94
d3-instructions,46,296342,0.0-46.0,FALSE,FALSE,TRUE,TRUE,"""event"",""trial"",""time""
""fullscreenenter"",""5"",""27391""
","
","
","""event"",""trial"",""time""
""fullscreenenter"",""5"",""27391""
","
",NA,NA,NA,NA,NA,NA,NA,NA,NA,NA,NA,NA,NA,NA,NA,NA,NA,NA,NA,NA,NA,NA,sub94
d3-instructions,47,313174,0.0-47.0,FALSE,FALSE,TRUE,TRUE,"""event"",""trial"",""time""
""fullscreenenter"",""5"",""27391""
","
","
","""event"",""trial"",""time""
""fullscreenenter"",""5"",""27391""
","
",NA,NA,NA,NA,NA,NA,NA,NA,NA,NA,NA,NA,NA,NA,NA,NA,NA,NA,NA,NA,NA,NA,sub94
d3-instructions,48,320422,0.0-48.0,FALSE,FALSE,TRUE,TRUE,"""event"",""trial"",""time""
""fullscreenenter"",""5"",""27391""
","
","
","""event"",""trial"",""time""
""fullscreenenter"",""5"",""27391""
","
",NA,NA,NA,NA,NA,NA,NA,NA,NA,NA,NA,NA,NA,NA,NA,NA,NA,NA,NA,NA,NA,NA,sub94
d3-instructions,49,332052,0.0-49.0,FALSE,FALSE,TRUE,TRUE,"""event"",""trial"",""time""
""fullscreenenter"",""5"",""27391""
","
","
","""event"",""trial"",""time""
""fullscreenenter"",""5"",""27391""
","
",NA,NA,NA,NA,NA,NA,NA,NA,NA,NA,NA,NA,NA,NA,NA,NA,NA,NA,NA,NA,NA,NA,sub94
d3-instructions,50,341492,0.0-50.0,FALSE,FALSE,TRUE,TRUE,"""event"",""trial"",""time""
""fullscreenenter"",""5"",""27391""
","
","
","""event"",""trial"",""time""
""fullscreenenter"",""5"",""27391""
","
",NA,NA,NA,NA,NA,NA,NA,NA,NA,NA,NA,NA,NA,NA,NA,NA,NA,NA,NA,NA,NA,NA,sub94
d3-instructions,51,344300,0.0-51.0,FALSE,FALSE,TRUE,TRUE,"""event"",""trial"",""time""
""fullscreenenter"",""5"",""27391""
","
","
","""event"",""trial"",""time""
""fullscreenenter"",""5"",""27391""
","
",NA,NA,NA,NA,NA,NA,NA,NA,NA,NA,NA,NA,NA,NA,NA,NA,NA,NA,NA,NA,NA,NA,sub94
d3-instructions,52,347627,0.0-52.0,FALSE,FALSE,TRUE,TRUE,"""event"",""trial"",""time""
""fullscreenenter"",""5"",""27391""
","
","
","""event"",""trial"",""time""
""fullscreenenter"",""5"",""27391""
","
",NA,NA,NA,NA,NA,NA,NA,NA,NA,NA,NA,NA,NA,NA,NA,NA,NA,NA,NA,NA,NA,NA,sub94
d3-instructions,53,364702,0.0-53.0,FALSE,FALSE,TRUE,TRUE,"""event"",""trial"",""time""
""fullscreenenter"",""5"",""27391""
","
","
","""event"",""trial"",""time""
""fullscreenenter"",""5"",""27391""
","
",NA,NA,NA,NA,NA,NA,NA,NA,NA,NA,NA,NA,NA,NA,NA,NA,NA,NA,NA,NA,NA,NA,sub94
d3-instructions,54,377267,0.0-54.0,FALSE,FALSE,TRUE,TRUE,"""event"",""trial"",""time""
""fullscreenenter"",""5"",""27391""
","
","
","""event"",""trial"",""time""
""fullscreenenter"",""5"",""27391""
","
",NA,NA,NA,NA,NA,NA,NA,NA,NA,NA,NA,NA,NA,NA,NA,NA,NA,NA,NA,NA,NA,NA,sub94
d3-instructions,55,387468,0.0-55.0,FALSE,FALSE,TRUE,TRUE,"""event"",""trial"",""time""
""fullscreenenter"",""5"",""27391""
","
","
","""event"",""trial"",""time""
""fullscreenenter"",""5"",""27391""
","
",NA,NA,NA,NA,NA,NA,NA,NA,NA,NA,NA,NA,NA,NA,NA,NA,NA,NA,NA,NA,NA,NA,sub94
d3-instructions,56,395536,0.0-56.0,FALSE,FALSE,TRUE,TRUE,"""event"",""trial"",""time""
""fullscreenenter"",""5"",""27391""
","
","
","""event"",""trial"",""time""
""fullscreenenter"",""5"",""27391""
","
",NA,NA,NA,NA,NA,NA,NA,NA,NA,NA,NA,NA,NA,NA,NA,NA,NA,NA,NA,NA,NA,NA,sub94
d3-instructions,57,405545,0.0-57.0,FALSE,FALSE,TRUE,TRUE,"""event"",""trial"",""time""
""fullscreenenter"",""5"",""27391""
","
","
","""event"",""trial"",""time""
""fullscreenenter"",""5"",""27391""
","
",NA,NA,NA,NA,NA,NA,NA,NA,NA,NA,NA,NA,NA,NA,NA,NA,NA,NA,NA,NA,NA,NA,sub94
d3-instructions,58,416766,0.0-58.0,FALSE,FALSE,TRUE,TRUE,"""event"",""trial"",""time""
""fullscreenenter"",""5"",""27391""
","
","
","""event"",""trial"",""time""
""fullscreenenter"",""5"",""27391""
","
",NA,NA,NA,NA,NA,NA,NA,NA,NA,NA,NA,NA,NA,NA,NA,NA,NA,NA,NA,NA,NA,NA,sub94
d3-instructions,59,422090,0.0-59.0,FALSE,FALSE,TRUE,TRUE,"""event"",""trial"",""time""
""fullscreenenter"",""5"",""27391""
","
","
","""event"",""trial"",""time""
""fullscreenenter"",""5"",""27391""
","
",NA,NA,NA,NA,NA,NA,NA,NA,NA,NA,NA,NA,NA,NA,NA,NA,NA,NA,NA,NA,NA,NA,sub94
d3-instructions,60,430675,0.0-60.0,FALSE,FALSE,TRUE,TRUE,"""event"",""trial"",""time""
""fullscreenenter"",""5"",""27391""
","
","
","""event"",""trial"",""time""
""fullscreenenter"",""5"",""27391""
","
",NA,NA,NA,NA,NA,NA,NA,NA,NA,NA,NA,NA,NA,NA,NA,NA,NA,NA,NA,NA,NA,NA,sub94
d3-animate-choice,61,433943,0.0-61.0-0.0,FALSE,FALSE,TRUE,TRUE,"""event"",""trial"",""time""
""fullscreenenter"",""5"",""27391""
","
","
","""event"",""trial"",""time""
""fullscreenenter"",""5"",""27391""
","
",1260.6500000110827,NA,49,NA,NA,3000,1,NA,NA,images/earth.jpg,images/tutrocket2,images/tutrocket1,null,images/tutrocket1,NA,1,practice,null,1,NA,NA,NA,sub94
d3-animate-choice,62,437954,0.0-61.0-1.0,FALSE,FALSE,TRUE,TRUE,"""event"",""trial"",""time""
""fullscreenenter"",""5"",""27391""
","
","
","""event"",""trial"",""time""
""fullscreenenter"",""5"",""27391""
","
",null,NA,null,NA,NA,3000,0,NA,NA,images/tutyellowplanet.jpg,images/tutalien4,images/tutalien3,images/tutrocket1,NA,NA,2,practice,true,NA,common,0,2020-07-06T18:53:18Z,sub94
two-step-fixation,63,438963,0.0-61.0-2.0,FALSE,FALSE,TRUE,TRUE,"""event"",""trial"",""time""
""fullscreenenter"",""5"",""27391""
","
","
","""event"",""trial"",""time""
""fullscreenenter"",""5"",""27391""
","
",NA,images/earth.jpg,NA,NA,NA,NA,NA,NA,NA,NA,NA,NA,NA,NA,NA,fixation,NA,NA,NA,NA,NA,NA,sub94
d3-animate-choice,64,442693,0.0-61.0-0.1,FALSE,FALSE,TRUE,TRUE,"""event"",""trial"",""time""
""fullscreenenter"",""5"",""27391""
","
","
","""event"",""trial"",""time""
""fullscreenenter"",""5"",""27391""
","
",1724.5049999910407,NA,48,NA,NA,3000,1,NA,NA,images/earth.jpg,images/tutrocket2,images/tutrocket1,null,images/tutrocket2,NA,1,practice,null,2,NA,NA,NA,sub94
d3-animate-choice,65,445624,0.0-61.0-1.1,FALSE,FALSE,TRUE,TRUE,"""event"",""trial"",""time""
""fullscreenenter"",""5"",""27391""
","
","
","""event"",""trial"",""time""
""fullscreenenter"",""5"",""27391""
","
",923.1849999923725,NA,49,NA,NA,3000,1,NA,NA,images/tutgreenplanet.jpg,images/tutalien2,images/tutalien1,images/tutrocket2,images/tutalien1,images/nothing.png,2,practice,true,1,common,0,2020-07-06T18:53:25Z,sub94
two-step-fixation,66,446627,0.0-61.0-2.1,FALSE,FALSE,TRUE,TRUE,"""event"",""trial"",""time""
""fullscreenenter"",""5"",""27391""
","
","
","""event"",""trial"",""time""
""fullscreenenter"",""5"",""27391""
","
",NA,images/earth.jpg,NA,NA,NA,NA,NA,NA,NA,NA,NA,NA,NA,NA,NA,fixation,NA,NA,NA,NA,NA,NA,sub94
d3-animate-choice,67,449378,0.0-61.0-0.2,FALSE,FALSE,TRUE,TRUE,"""event"",""trial"",""time""
""fullscreenenter"",""5"",""27391""
","
","
","""event"",""trial"",""time""
""fullscreenenter"",""5"",""27391""
","
",744.5650000008754,NA,49,NA,NA,3000,1,960.8200000075158,49,images/earth.jpg,images/tutrocket2,images/tutrocket1,null,images/tutrocket1,NA,1,practice,null,1,NA,NA,NA,sub94
d3-animate-choice,68,451828,0.0-61.0-1.2,FALSE,FALSE,TRUE,TRUE,"""event"",""trial"",""time""
""fullscreenenter"",""5"",""27391""
","
","
","""event"",""trial"",""time""
""fullscreenenter"",""5"",""27391""
","
",445.26999999652617,NA,48,NA,NA,3000,1,NA,NA,images/tutgreenplanet.jpg,images/tutalien2,images/tutalien1,images/tutrocket1,images/tutalien2,images/nothing.png,2,practice,false,2,rare,0,2020-07-06T18:53:31Z,sub94
two-step-fixation,69,452830,0.0-61.0-2.2,FALSE,FALSE,TRUE,TRUE,"""event"",""trial"",""time""
""fullscreenenter"",""5"",""27391""
","
","
","""event"",""trial"",""time""
""fullscreenenter"",""5"",""27391""
","
",NA,images/earth.jpg,NA,NA,NA,NA,NA,NA,NA,NA,NA,NA,NA,NA,NA,fixation,NA,NA,NA,NA,NA,NA,sub94
d3-animate-choice,70,455670,0.0-61.0-0.3,FALSE,FALSE,TRUE,TRUE,"""event"",""trial"",""time""
""fullscreenenter"",""5"",""27391""
","
","
","""event"",""trial"",""time""
""fullscreenenter"",""5"",""27391""
","
",836.8800000171177,NA,49,NA,NA,3000,1,NA,NA,images/earth.jpg,images/tutrocket2,images/tutrocket1,null,images/tutrocket1,NA,1,practice,null,1,NA,NA,NA,sub94
d3-animate-choice,71,458324,0.0-61.0-1.3,FALSE,FALSE,TRUE,TRUE,"""event"",""trial"",""time""
""fullscreenenter"",""5"",""27391""
","
","
","""event"",""trial"",""time""
""fullscreenenter"",""5"",""27391""
","
",648.8249999820255,NA,48,NA,NA,3000,1,NA,NA,images/tutyellowplanet.jpg,images/tutalien4,images/tutalien3,images/tutrocket1,images/tutalien4,images/t.png,2,practice,true,2,common,1,2020-07-06T18:53:38Z,sub94
two-step-fixation,72,459330,0.0-61.0-2.3,FALSE,FALSE,TRUE,TRUE,"""event"",""trial"",""time""
""fullscreenenter"",""5"",""27391""
","
","
","""event"",""trial"",""time""
""fullscreenenter"",""5"",""27391""
","
",NA,images/earth.jpg,NA,NA,NA,NA,NA,NA,NA,NA,NA,NA,NA,NA,NA,fixation,NA,NA,NA,NA,NA,NA,sub94
d3-animate-choice,73,462709,0.0-61.0-0.4,FALSE,FALSE,TRUE,TRUE,"""event"",""trial"",""time""
""fullscreenenter"",""5"",""27391""
","
","
","""event"",""trial"",""time""
""fullscreenenter"",""5"",""27391""
","
",1372.4849999998696,NA,48,NA,NA,3000,1,NA,NA,images/earth.jpg,images/tutrocket2,images/tutrocket1,null,images/tutrocket2,NA,1,practice,null,2,NA,NA,NA,sub94
d3-animate-choice,74,465670,0.0-61.0-1.4,FALSE,FALSE,TRUE,TRUE,"""event"",""trial"",""time""
""fullscreenenter"",""5"",""27391""
","
","
","""event"",""trial"",""time""
""fullscreenenter"",""5"",""27391""
","
",955.9949999966193,NA,48,NA,NA,3000,1,NA,NA,images/tutyellowplanet.jpg,images/tutalien4,images/tutalien3,images/tutrocket2,images/tutalien4,images/t.png,2,practice,false,2,rare,1,2020-07-06T18:53:45Z,sub94
two-step-fixation,75,466677,0.0-61.0-2.4,FALSE,FALSE,TRUE,TRUE,"""event"",""trial"",""time""
""fullscreenenter"",""5"",""27391""
","
","
","""event"",""trial"",""time""
""fullscreenenter"",""5"",""27391""
","
",NA,images/earth.jpg,NA,NA,NA,NA,NA,NA,NA,NA,NA,NA,NA,NA,NA,fixation,NA,NA,NA,NA,NA,NA,sub94
d3-animate-choice,76,469787,0.0-61.0-0.5,FALSE,FALSE,TRUE,TRUE,"""event"",""trial"",""time""
""fullscreenenter"",""5"",""27391""
","
","
","""event"",""trial"",""time""
""fullscreenenter"",""5"",""27391""
","
",1103.9999999920838,NA,48,NA,NA,3000,1,3026.2449999863748,48,images/earth.jpg,images/tutrocket2,images/tutrocket1,null,images/tutrocket2,NA,1,practice,null,2,NA,NA,NA,sub94
d3-animate-choice,77,472542,0.0-61.0-1.5,FALSE,FALSE,TRUE,TRUE,"""event"",""trial"",""time""
""fullscreenenter"",""5"",""27391""
","
","
","""event"",""trial"",""time""
""fullscreenenter"",""5"",""27391""
","
",748.6950000165962,NA,48,NA,NA,3000,1,NA,NA,images/tutgreenplanet.jpg,images/tutalien2,images/tutalien1,images/tutrocket2,images/tutalien2,images/nothing.png,2,practice,true,2,common,0,2020-07-06T18:53:52Z,sub94
two-step-fixation,78,473547,0.0-61.0-2.5,FALSE,FALSE,TRUE,TRUE,"""event"",""trial"",""time""
""fullscreenenter"",""5"",""27391""
","
","
","""event"",""trial"",""time""
""fullscreenenter"",""5"",""27391""
","
",NA,images/earth.jpg,NA,NA,NA,NA,NA,NA,NA,NA,NA,NA,NA,NA,NA,fixation,NA,NA,NA,NA,NA,NA,sub94
d3-animate-choice,79,476191,0.0-61.0-0.6,FALSE,FALSE,TRUE,TRUE,"""event"",""trial"",""time""
""fullscreenenter"",""5"",""27391""
","
","
","""event"",""trial"",""time""
""fullscreenenter"",""5"",""27391""
","
",638.5249999875668,NA,48,NA,NA,3000,1,NA,NA,images/earth.jpg,images/tutrocket2,images/tutrocket1,null,images/tutrocket2,NA,1,practice,null,2,NA,NA,NA,sub94
d3-animate-choice,80,478892,0.0-61.0-1.6,FALSE,FALSE,TRUE,TRUE,"""event"",""trial"",""time""
""fullscreenenter"",""5"",""27391""
","
","
","""event"",""trial"",""time""
""fullscreenenter"",""5"",""27391""
","
",696.1799999990035,NA,48,NA,NA,3000,1,NA,NA,images/tutgreenplanet.jpg,images/tutalien2,images/tutalien1,images/tutrocket2,images/tutalien2,images/nothing.png,2,practice,true,2,common,0,2020-07-06T18:53:59Z,sub94
two-step-fixation,81,479896,0.0-61.0-2.6,FALSE,FALSE,TRUE,TRUE,"""event"",""trial"",""time""
""fullscreenenter"",""5"",""27391""
","
","
","""event"",""trial"",""time""
""fullscreenenter"",""5"",""27391""
","
",NA,images/earth.jpg,NA,NA,NA,NA,NA,NA,NA,NA,NA,NA,NA,NA,NA,fixation,NA,NA,NA,NA,NA,NA,sub94
d3-animate-choice,82,482928,0.0-61.0-0.7,FALSE,FALSE,TRUE,TRUE,"""event"",""trial"",""time""
""fullscreenenter"",""5"",""27391""
","
","
","""event"",""trial"",""time""
""fullscreenenter"",""5"",""27391""
","
",1026.8750000104774,NA,48,NA,NA,3000,1,NA,NA,images/earth.jpg,images/tutrocket2,images/tutrocket1,null,images/tutrocket2,NA,1,practice,null,2,NA,NA,NA,sub94
d3-animate-choice,83,485381,0.0-61.0-1.7,FALSE,FALSE,TRUE,TRUE,"""event"",""trial"",""time""
""fullscreenenter"",""5"",""27391""
","
","
","""event"",""trial"",""time""
""fullscreenenter"",""5"",""27391""
","
",447.9049999790732,NA,49,NA,NA,3000,1,NA,NA,images/tutgreenplanet.jpg,images/tutalien2,images/tutalien1,images/tutrocket2,images/tutalien1,images/nothing.png,2,practice,true,1,common,0,2020-07-06T18:54:05Z,sub94
two-step-fixation,84,486387,0.0-61.0-2.7,FALSE,FALSE,TRUE,TRUE,"""event"",""trial"",""time""
""fullscreenenter"",""5"",""27391""
","
","
","""event"",""trial"",""time""
""fullscreenenter"",""5"",""27391""
","
",NA,images/earth.jpg,NA,NA,NA,NA,NA,NA,NA,NA,NA,NA,NA,NA,NA,fixation,NA,NA,NA,NA,NA,NA,sub94
d3-animate-choice,85,488867,0.0-61.0-0.8,FALSE,FALSE,TRUE,TRUE,"""event"",""trial"",""time""
""fullscreenenter"",""5"",""27391""
","
","
","""event"",""trial"",""time""
""fullscreenenter"",""5"",""27391""
","
",473.73500000685453,NA,49,NA,NA,3000,1,NA,NA,images/earth.jpg,images/tutrocket2,images/tutrocket1,null,images/tutrocket1,NA,1,practice,null,1,NA,NA,NA,sub94
d3-animate-choice,86,491683,0.0-61.0-1.8,FALSE,FALSE,TRUE,TRUE,"""event"",""trial"",""time""
""fullscreenenter"",""5"",""27391""
","
","
","""event"",""trial"",""time""
""fullscreenenter"",""5"",""27391""
","
",813.2000000041444,NA,48,NA,NA,3000,1,NA,NA,images/tutgreenplanet.jpg,images/tutalien2,images/tutalien1,images/tutrocket1,images/tutalien2,images/nothing.png,2,practice,false,2,rare,0,2020-07-06T18:54:11Z,sub94
two-step-fixation,87,492684,0.0-61.0-2.8,FALSE,FALSE,TRUE,TRUE,"""event"",""trial"",""time""
""fullscreenenter"",""5"",""27391""
","
","
","""event"",""trial"",""time""
""fullscreenenter"",""5"",""27391""
","
",NA,images/earth.jpg,NA,NA,NA,NA,NA,NA,NA,NA,NA,NA,NA,NA,NA,fixation,NA,NA,NA,NA,NA,NA,sub94
d3-animate-choice,88,495712,0.0-61.0-0.9,FALSE,FALSE,TRUE,TRUE,"""event"",""trial"",""time""
""fullscreenenter"",""5"",""27391""
","
","
","""event"",""trial"",""time""
""fullscreenenter"",""5"",""27391""
","
",1025.1849999767728,NA,49,NA,NA,3000,1,NA,NA,images/earth.jpg,images/tutrocket2,images/tutrocket1,null,images/tutrocket1,NA,1,practice,null,1,NA,NA,NA,sub94
d3-animate-choice,89,498163,0.0-61.0-1.9,FALSE,FALSE,TRUE,TRUE,"""event"",""trial"",""time""
""fullscreenenter"",""5"",""27391""
","
","
","""event"",""trial"",""time""
""fullscreenenter"",""5"",""27391""
","
",444.78499999968335,NA,49,NA,NA,3000,1,NA,NA,images/tutyellowplanet.jpg,images/tutalien4,images/tutalien3,images/tutrocket1,images/tutalien3,images/t.png,2,practice,true,1,common,1,2020-07-06T18:54:18Z,sub94
two-step-fixation,90,499168,0.0-61.0-2.9,FALSE,FALSE,TRUE,TRUE,"""event"",""trial"",""time""
""fullscreenenter"",""5"",""27391""
","
","
","""event"",""trial"",""time""
""fullscreenenter"",""5"",""27391""
","
",NA,images/earth.jpg,NA,NA,NA,NA,NA,NA,NA,NA,NA,NA,NA,NA,NA,fixation,NA,NA,NA,NA,NA,NA,sub94
d3-animate-choice,91,501640,0.0-61.0-0.10,FALSE,FALSE,TRUE,TRUE,"""event"",""trial"",""time""
""fullscreenenter"",""5"",""27391""
","
","
","""event"",""trial"",""time""
""fullscreenenter"",""5"",""27391""
","
",466.6199999919627,NA,49,NA,NA,3000,1,NA,NA,images/earth.jpg,images/tutrocket2,images/tutrocket1,null,images/tutrocket1,NA,1,practice,null,1,NA,NA,NA,sub94
d3-animate-choice,92,503940,0.0-61.0-1.10,FALSE,FALSE,TRUE,TRUE,"""event"",""trial"",""time""
""fullscreenenter"",""5"",""27391""
","
","
","""event"",""trial"",""time""
""fullscreenenter"",""5"",""27391""
","
",294.465000013588,NA,49,NA,NA,3000,1,NA,NA,images/tutyellowplanet.jpg,images/tutalien4,images/tutalien3,images/tutrocket1,images/tutalien3,images/nothing.png,2,practice,true,1,common,0,2020-07-06T18:54:24Z,sub94
two-step-fixation,93,504945,0.0-61.0-2.10,FALSE,FALSE,TRUE,TRUE,"""event"",""trial"",""time""
""fullscreenenter"",""5"",""27391""
","
","
","""event"",""trial"",""time""
""fullscreenenter"",""5"",""27391""
","
",NA,images/earth.jpg,NA,NA,NA,NA,NA,NA,NA,NA,NA,NA,NA,NA,NA,fixation,NA,NA,NA,NA,NA,NA,sub94
d3-animate-choice,94,507305,0.0-61.0-0.11,FALSE,FALSE,TRUE,TRUE,"""event"",""trial"",""time""
""fullscreenenter"",""5"",""27391""
","
","
","""event"",""trial"",""time""
""fullscreenenter"",""5"",""27391""
","
",353.14500000094995,NA,49,NA,NA,3000,1,NA,NA,images/earth.jpg,images/tutrocket2,images/tutrocket1,null,images/tutrocket1,NA,1,practice,null,1,NA,NA,NA,sub94
d3-animate-choice,95,509591,0.0-61.0-1.11,FALSE,FALSE,TRUE,TRUE,"""event"",""trial"",""time""
""fullscreenenter"",""5"",""27391""
","
","
","""event"",""trial"",""time""
""fullscreenenter"",""5"",""27391""
","
",279.949999996461,NA,49,NA,NA,3000,1,NA,NA,images/tutyellowplanet.jpg,images/tutalien4,images/tutalien3,images/tutrocket1,images/tutalien3,images/t.png,2,practice,true,1,common,1,2020-07-06T18:54:29Z,sub94
two-step-fixation,96,510596,0.0-61.0-2.11,FALSE,FALSE,TRUE,TRUE,"""event"",""trial"",""time""
""fullscreenenter"",""5"",""27391""
","
","
","""event"",""trial"",""time""
""fullscreenenter"",""5"",""27391""
","
",NA,images/earth.jpg,NA,NA,NA,NA,NA,NA,NA,NA,NA,NA,NA,NA,NA,fixation,NA,NA,NA,NA,NA,NA,sub94
d3-animate-choice,97,512899,0.0-61.0-0.12,FALSE,FALSE,TRUE,TRUE,"""event"",""trial"",""time""
""fullscreenenter"",""5"",""27391""
","
","
","""event"",""trial"",""time""
""fullscreenenter"",""5"",""27391""
","
",298.8049999985378,NA,49,NA,NA,3000,1,NA,NA,images/earth.jpg,images/tutrocket2,images/tutrocket1,null,images/tutrocket1,NA,1,practice,null,1,NA,NA,NA,sub94
d3-animate-choice,98,515340,0.0-61.0-1.12,FALSE,FALSE,TRUE,TRUE,"""event"",""trial"",""time""
""fullscreenenter"",""5"",""27391""
","
","
","""event"",""trial"",""time""
""fullscreenenter"",""5"",""27391""
","
",435.3549999941606,NA,49,NA,NA,3000,1,NA,NA,images/tutyellowplanet.jpg,images/tutalien4,images/tutalien3,images/tutrocket1,images/tutalien3,images/t.png,2,practice,true,1,common,1,2020-07-06T18:54:35Z,sub94
two-step-fixation,99,516345,0.0-61.0-2.12,FALSE,FALSE,TRUE,TRUE,"""event"",""trial"",""time""
""fullscreenenter"",""5"",""27391""
","
","
","""event"",""trial"",""time""
""fullscreenenter"",""5"",""27391""
","
",NA,images/earth.jpg,NA,NA,NA,NA,NA,NA,NA,NA,NA,NA,NA,NA,NA,fixation,NA,NA,NA,NA,NA,NA,sub94
d3-animate-choice,100,518742,0.0-61.0-0.13,FALSE,FALSE,TRUE,TRUE,"""event"",""trial"",""time""
""fullscreenenter"",""5"",""27391""
","
","
","""event"",""trial"",""time""
""fullscreenenter"",""5"",""27391""
","
",391.364999988582,NA,49,NA,NA,3000,1,NA,NA,images/earth.jpg,images/tutrocket2,images/tutrocket1,null,images/tutrocket1,NA,1,practice,null,1,NA,NA,NA,sub94
d3-animate-choice,101,521109,0.0-61.0-1.13,FALSE,FALSE,TRUE,TRUE,"""event"",""trial"",""time""
""fullscreenenter"",""5"",""27391""
","
","
","""event"",""trial"",""time""
""fullscreenenter"",""5"",""27391""
","
",359.96000000159256,NA,49,NA,NA,3000,1,NA,NA,images/tutgreenplanet.jpg,images/tutalien2,images/tutalien1,images/tutrocket1,images/tutalien1,images/t.png,2,practice,false,1,rare,1,2020-07-06T18:54:41Z,sub94
two-step-fixation,102,522114,0.0-61.0-2.13,FALSE,FALSE,TRUE,TRUE,"""event"",""trial"",""time""
""fullscreenenter"",""5"",""27391""
","
","
","""event"",""trial"",""time""
""fullscreenenter"",""5"",""27391""
","
",NA,images/earth.jpg,NA,NA,NA,NA,NA,NA,NA,NA,NA,NA,NA,NA,NA,fixation,NA,NA,NA,NA,NA,NA,sub94
d3-animate-choice,103,524390,0.0-61.0-0.14,FALSE,FALSE,TRUE,TRUE,"""event"",""trial"",""time""
""fullscreenenter"",""5"",""27391""
","
","
","""event"",""trial"",""time""
""fullscreenenter"",""5"",""27391""
","
",270.4200000152923,NA,49,NA,NA,3000,1,NA,NA,images/earth.jpg,images/tutrocket2,images/tutrocket1,null,images/tutrocket1,NA,1,practice,null,1,NA,NA,NA,sub94
d3-animate-choice,104,526749,0.0-61.0-1.14,FALSE,FALSE,TRUE,TRUE,"""event"",""trial"",""time""
""fullscreenenter"",""5"",""27391""
","
","
","""event"",""trial"",""time""
""fullscreenenter"",""5"",""27391""
","
",354.1399999812711,NA,49,NA,NA,3000,1,NA,NA,images/tutyellowplanet.jpg,images/tutalien4,images/tutalien3,images/tutrocket1,images/tutalien3,images/t.png,2,practice,true,1,common,1,2020-07-06T18:54:46Z,sub94
two-step-fixation,105,527754,0.0-61.0-2.14,FALSE,FALSE,TRUE,TRUE,"""event"",""trial"",""time""
""fullscreenenter"",""5"",""27391""
","
","
","""event"",""trial"",""time""
""fullscreenenter"",""5"",""27391""
","
",NA,images/earth.jpg,NA,NA,NA,NA,NA,NA,NA,NA,NA,NA,NA,NA,NA,fixation,NA,NA,NA,NA,NA,NA,sub94
d3-animate-choice,106,530113,0.0-61.0-0.15,FALSE,FALSE,TRUE,TRUE,"""event"",""trial"",""time""
""fullscreenenter"",""5"",""27391""
","
","
","""event"",""trial"",""time""
""fullscreenenter"",""5"",""27391""
","
",353.20499999215826,NA,49,NA,NA,3000,1,NA,NA,images/earth.jpg,images/tutrocket2,images/tutrocket1,null,images/tutrocket1,NA,1,practice,null,1,NA,NA,NA,sub94
d3-animate-choice,107,532671,0.0-61.0-1.15,FALSE,FALSE,TRUE,TRUE,"""event"",""trial"",""time""
""fullscreenenter"",""5"",""27391""
","
","
","""event"",""trial"",""time""
""fullscreenenter"",""5"",""27391""
","
",552.5499999930616,NA,49,NA,NA,3000,1,NA,NA,images/tutyellowplanet.jpg,images/tutalien4,images/tutalien3,images/tutrocket1,images/tutalien3,images/t.png,2,practice,true,1,common,1,2020-07-06T18:54:52Z,sub94
two-step-fixation,108,533676,0.0-61.0-2.15,FALSE,FALSE,TRUE,TRUE,"""event"",""trial"",""time""
""fullscreenenter"",""5"",""27391""
","
","
","""event"",""trial"",""time""
""fullscreenenter"",""5"",""27391""
","
",NA,images/earth.jpg,NA,NA,NA,NA,NA,NA,NA,NA,NA,NA,NA,NA,NA,fixation,NA,NA,NA,NA,NA,NA,sub94
d3-animate-choice,109,535997,0.0-61.0-0.16,FALSE,FALSE,TRUE,TRUE,"""event"",""trial"",""time""
""fullscreenenter"",""5"",""27391""
","
","
","""event"",""trial"",""time""
""fullscreenenter"",""5"",""27391""
","
",314.4800000009127,NA,49,NA,NA,3000,1,NA,NA,images/earth.jpg,images/tutrocket2,images/tutrocket1,null,images/tutrocket1,NA,1,practice,null,1,NA,NA,NA,sub94
d3-animate-choice,110,538427,0.0-61.0-1.16,FALSE,FALSE,TRUE,TRUE,"""event"",""trial"",""time""
""fullscreenenter"",""5"",""27391""
","
","
","""event"",""trial"",""time""
""fullscreenenter"",""5"",""27391""
","
",424.9249999993481,NA,49,NA,NA,3000,1,NA,NA,images/tutyellowplanet.jpg,images/tutalien4,images/tutalien3,images/tutrocket1,images/tutalien3,images/nothing.png,2,practice,true,1,common,0,2020-07-06T18:54:58Z,sub94
two-step-fixation,111,539434,0.0-61.0-2.16,FALSE,FALSE,TRUE,TRUE,"""event"",""trial"",""time""
""fullscreenenter"",""5"",""27391""
","
","
","""event"",""trial"",""time""
""fullscreenenter"",""5"",""27391""
","
",NA,images/earth.jpg,NA,NA,NA,NA,NA,NA,NA,NA,NA,NA,NA,NA,NA,fixation,NA,NA,NA,NA,NA,NA,sub94
d3-animate-choice,112,541722,0.0-61.0-0.17,FALSE,FALSE,TRUE,TRUE,"""event"",""trial"",""time""
""fullscreenenter"",""5"",""27391""
","
","
","""event"",""trial"",""time""
""fullscreenenter"",""5"",""27391""
","
",281.83500000159256,NA,49,NA,NA,3000,1,NA,NA,images/earth.jpg,images/tutrocket2,images/tutrocket1,null,images/tutrocket1,NA,1,practice,null,1,NA,NA,NA,sub94
d3-animate-choice,113,544346,0.0-61.0-1.17,FALSE,FALSE,TRUE,TRUE,"""event"",""trial"",""time""
""fullscreenenter"",""5"",""27391""
","
","
","""event"",""trial"",""time""
""fullscreenenter"",""5"",""27391""
","
",620.5150000168942,NA,49,NA,NA,3000,1,NA,NA,images/tutyellowplanet.jpg,images/tutalien4,images/tutalien3,images/tutrocket1,images/tutalien3,images/nothing.png,2,practice,true,1,common,0,2020-07-06T18:55:04Z,sub94
two-step-fixation,114,545352,0.0-61.0-2.17,FALSE,FALSE,TRUE,TRUE,"""event"",""trial"",""time""
""fullscreenenter"",""5"",""27391""
","
","
","""event"",""trial"",""time""
""fullscreenenter"",""5"",""27391""
","
",NA,images/earth.jpg,NA,NA,NA,NA,NA,NA,NA,NA,NA,NA,NA,NA,NA,fixation,NA,NA,NA,NA,NA,NA,sub94
d3-animate-choice,115,547681,0.0-61.0-0.18,FALSE,FALSE,TRUE,TRUE,"""event"",""trial"",""time""
""fullscreenenter"",""5"",""27391""
","
","
","""event"",""trial"",""time""
""fullscreenenter"",""5"",""27391""
","
",323.869999992894,NA,49,NA,NA,3000,1,NA,NA,images/earth.jpg,images/tutrocket2,images/tutrocket1,null,images/tutrocket1,NA,1,practice,null,1,NA,NA,NA,sub94
d3-animate-choice,116,550010,0.0-61.0-1.18,FALSE,FALSE,TRUE,TRUE,"""event"",""trial"",""time""
""fullscreenenter"",""5"",""27391""
","
","
","""event"",""trial"",""time""
""fullscreenenter"",""5"",""27391""
","
",324.61999999941327,NA,49,NA,NA,3000,1,NA,NA,images/tutgreenplanet.jpg,images/tutalien2,images/tutalien1,images/tutrocket1,images/tutalien1,images/nothing.png,2,practice,false,1,rare,0,2020-07-06T18:55:10Z,sub94
two-step-fixation,117,551013,0.0-61.0-2.18,FALSE,FALSE,TRUE,TRUE,"""event"",""trial"",""time""
""fullscreenenter"",""5"",""27391""
","
","
","""event"",""trial"",""time""
""fullscreenenter"",""5"",""27391""
","
",NA,images/earth.jpg,NA,NA,NA,NA,NA,NA,NA,NA,NA,NA,NA,NA,NA,fixation,NA,NA,NA,NA,NA,NA,sub94
d3-animate-choice,118,553365,0.0-61.0-0.19,FALSE,FALSE,TRUE,TRUE,"""event"",""trial"",""time""
""fullscreenenter"",""5"",""27391""
","
","
","""event"",""trial"",""time""
""fullscreenenter"",""5"",""27391""
","
",346.42499999608845,NA,49,NA,NA,3000,1,NA,NA,images/earth.jpg,images/tutrocket2,images/tutrocket1,null,images/tutrocket1,NA,1,practice,null,1,NA,NA,NA,sub94
d3-animate-choice,119,555784,0.0-61.0-1.19,FALSE,FALSE,TRUE,TRUE,"""event"",""trial"",""time""
""fullscreenenter"",""5"",""27391""
","
","
","""event"",""trial"",""time""
""fullscreenenter"",""5"",""27391""
","
",412.7250000019558,NA,49,NA,NA,3000,1,NA,NA,images/tutyellowplanet.jpg,images/tutalien4,images/tutalien3,images/tutrocket1,images/tutalien3,images/t.png,2,practice,true,1,common,1,2020-07-06T18:55:15Z,sub94
two-step-fixation,120,556791,0.0-61.0-2.19,FALSE,FALSE,TRUE,TRUE,"""event"",""trial"",""time""
""fullscreenenter"",""5"",""27391""
","
","
","""event"",""trial"",""time""
""fullscreenenter"",""5"",""27391""
","
",NA,images/earth.jpg,NA,NA,NA,NA,NA,NA,NA,NA,NA,NA,NA,NA,NA,fixation,NA,NA,NA,NA,NA,NA,sub94
d3-instructions,121,565095,0.0-62.0,FALSE,FALSE,TRUE,TRUE,"""event"",""trial"",""time""
""fullscreenenter"",""5"",""27391""
","
","
","""event"",""trial"",""time""
""fullscreenenter"",""5"",""27391""
","
",NA,NA,NA,NA,NA,NA,NA,NA,NA,NA,NA,NA,NA,NA,NA,NA,NA,NA,NA,NA,NA,NA,sub94
audio-keyboard-response,122,570824,0.0-63.0,FALSE,FALSE,TRUE,TRUE,"""event"",""trial"",""time""
""fullscreenenter"",""5"",""27391""
","
","
","""event"",""trial"",""time""
""fullscreenenter"",""5"",""27391""
","
",5731,audio/instructions/treasure_feedback.wav,32,NA,NA,NA,NA,NA,NA,NA,NA,NA,NA,NA,NA,NA,NA,NA,NA,NA,NA,NA,sub94
d3-instructions,123,591318,0.0-64.0,FALSE,FALSE,TRUE,TRUE,"""event"",""trial"",""time""
""fullscreenenter"",""5"",""27391""
","
","
","""event"",""trial"",""time""
""fullscreenenter"",""5"",""27391""
","
",NA,NA,NA,NA,NA,NA,NA,NA,NA,NA,NA,NA,NA,NA,NA,NA,NA,NA,NA,NA,NA,NA,sub94
d3-instructions,124,605264,0.0-65.0,FALSE,FALSE,TRUE,TRUE,"""event"",""trial"",""time""
""fullscreenenter"",""5"",""27391""
","
","
","""event"",""trial"",""time""
""fullscreenenter"",""5"",""27391""
","
",NA,NA,NA,NA,NA,NA,NA,NA,NA,NA,NA,NA,NA,NA,NA,NA,NA,NA,NA,NA,NA,NA,sub94
d3-instructions,125,629853,0.0-66.0,FALSE,FALSE,TRUE,TRUE,"""event"",""trial"",""time""
""fullscreenenter"",""5"",""27391""
","
","
","""event"",""trial"",""time""
""fullscreenenter"",""5"",""27391""
","
",NA,NA,NA,NA,NA,NA,NA,NA,NA,NA,NA,NA,NA,NA,NA,NA,NA,NA,NA,NA,NA,NA,sub94
d3-instructions,126,645428,0.0-67.0,FALSE,FALSE,TRUE,TRUE,"""event"",""trial"",""time""
""fullscreenenter"",""5"",""27391""
","
","
","""event"",""trial"",""time""
""fullscreenenter"",""5"",""27391""
","
",NA,NA,NA,NA,NA,NA,NA,NA,NA,NA,NA,NA,NA,NA,NA,NA,NA,NA,NA,NA,NA,NA,sub94
d3-instructions,127,654179,0.0-68.0,FALSE,FALSE,TRUE,TRUE,"""event"",""trial"",""time""
""fullscreenenter"",""5"",""27391""
","
","
","""event"",""trial"",""time""
""fullscreenenter"",""5"",""27391""
","
",NA,NA,NA,NA,NA,NA,NA,NA,NA,NA,NA,NA,NA,NA,NA,NA,NA,NA,NA,NA,NA,NA,sub94
instructions-quiz,128,659275,0.0-69.0,FALSE,FALSE,TRUE,TRUE,"""event"",""trial"",""time""
""fullscreenenter"",""5"",""27391""
","
","
","""event"",""trial"",""time""
""fullscreenenter"",""5"",""27391""
","
",5091.244999988703,audio/quiz/Q1_Prompt.wav,NA,1,NA,NA,NA,NA,NA,NA,NA,NA,NA,NA,NA,NA,NA,NA,NA,NA,NA,NA,sub94
audio-keyboard-response,129,668448,0.0-70.0,FALSE,FALSE,TRUE,TRUE,"""event"",""trial"",""time""
""fullscreenenter"",""5"",""27391""
","
","
","""event"",""trial"",""time""
""fullscreenenter"",""5"",""27391""
","
",null,audio/quiz/Q1_Correct.wav,null,NA,NA,NA,NA,NA,NA,NA,NA,NA,NA,NA,NA,NA,NA,NA,NA,NA,NA,NA,sub94
instructions-quiz,130,677851,0.0-71.0,FALSE,FALSE,TRUE,TRUE,"""event"",""trial"",""time""
""fullscreenenter"",""5"",""27391""
","
","
","""event"",""trial"",""time""
""fullscreenenter"",""5"",""27391""
","
",9400.610000011511,audio/quiz/Q2_Prompt.wav,NA,0,NA,NA,NA,NA,NA,NA,NA,NA,NA,NA,NA,NA,NA,NA,NA,NA,NA,NA,sub94
audio-keyboard-response,131,690569,0.0-72.0,FALSE,FALSE,TRUE,TRUE,"""event"",""trial"",""time""
""fullscreenenter"",""5"",""27391""
","
","
","""event"",""trial"",""time""
""fullscreenenter"",""5"",""27391""
","
",12720,audio/quiz/Q2_Correct.wav,32,NA,NA,NA,NA,NA,NA,NA,NA,NA,NA,NA,NA,NA,NA,NA,NA,NA,NA,NA,sub94
instructions-quiz,132,695814,0.0-73.0,FALSE,FALSE,TRUE,TRUE,"""event"",""trial"",""time""
""fullscreenenter"",""5"",""27391""
","
","
","""event"",""trial"",""time""
""fullscreenenter"",""5"",""27391""
","
",5241.520000010496,audio/quiz/Q3_Prompt.wav,NA,1,NA,NA,NA,NA,NA,NA,NA,NA,NA,NA,NA,NA,NA,NA,NA,NA,NA,NA,sub94
audio-keyboard-response,133,701609,0.0-74.0,FALSE,FALSE,TRUE,TRUE,"""event"",""trial"",""time""
""fullscreenenter"",""5"",""27391""
","
","
","""event"",""trial"",""time""
""fullscreenenter"",""5"",""27391""
","
",null,audio/quiz/Q3_Correct.wav,null,NA,NA,NA,NA,NA,NA,NA,NA,NA,NA,NA,NA,NA,NA,NA,NA,NA,NA,NA,sub94
d3-instructions,134,715363,0.0-75.0,FALSE,FALSE,TRUE,TRUE,"""event"",""trial"",""time""
""fullscreenenter"",""5"",""27391""
","
","
","""event"",""trial"",""time""
""fullscreenenter"",""5"",""27391""
","
",NA,NA,NA,NA,NA,NA,NA,NA,NA,NA,NA,NA,NA,NA,NA,NA,NA,NA,NA,NA,NA,NA,sub94
d3-animate-choice,135,718533,0.0-76.0-0.0,FALSE,FALSE,TRUE,TRUE,"""event"",""trial"",""time""
""fullscreenenter"",""5"",""27391""
","
","
","""event"",""trial"",""time""
""fullscreenenter"",""5"",""27391""
","
",1162.1450000093319,NA,49,NA,NA,3000,1,NA,NA,images/earth.jpg,images/rocket1,images/rocket2,null,images/rocket2,NA,1,real,null,1,NA,NA,NA,sub94
d3-animate-choice,136,720830,0.0-76.0-1.0,FALSE,FALSE,TRUE,TRUE,"""event"",""trial"",""time""
""fullscreenenter"",""5"",""27391""
","
","
","""event"",""trial"",""time""
""fullscreenenter"",""5"",""27391""
","
",291.55500000342727,NA,49,NA,NA,3000,1,NA,NA,images/purpleplanet.jpg,images/alien4,images/alien3,images/rocket2,images/alien3,images/t.png,2,real,false,1,rare,1,2020-07-06T18:58:01Z,sub94
two-step-fixation,137,721836,0.0-76.0-2.0,FALSE,FALSE,TRUE,TRUE,"""event"",""trial"",""time""
""fullscreenenter"",""5"",""27391""
","
","
","""event"",""trial"",""time""
""fullscreenenter"",""5"",""27391""
","
",NA,images/earth.jpg,NA,NA,NA,NA,NA,NA,NA,NA,NA,NA,NA,NA,NA,fixation,NA,NA,NA,NA,NA,NA,sub94
d3-animate-choice,138,724274,0.0-76.0-0.1,FALSE,FALSE,TRUE,TRUE,"""event"",""trial"",""time""
""fullscreenenter"",""5"",""27391""
","
","
","""event"",""trial"",""time""
""fullscreenenter"",""5"",""27391""
","
",431.53000000165775,NA,49,NA,NA,3000,1,NA,NA,images/earth.jpg,images/rocket1,images/rocket2,null,images/rocket2,NA,1,real,null,1,NA,NA,NA,sub94
d3-animate-choice,139,726555,0.0-76.0-1.1,FALSE,FALSE,TRUE,TRUE,"""event"",""trial"",""time""
""fullscreenenter"",""5"",""27391""
","
","
","""event"",""trial"",""time""
""fullscreenenter"",""5"",""27391""
","
",274.7549999912735,NA,48,NA,NA,3000,1,NA,NA,images/redplanet1.jpg,images/alien2,images/alien1,images/rocket2,images/alien2,images/nothing.png,2,real,true,2,common,0,2020-07-06T18:58:06Z,sub94
two-step-fixation,140,727561,0.0-76.0-2.1,FALSE,FALSE,TRUE,TRUE,"""event"",""trial"",""time""
""fullscreenenter"",""5"",""27391""
","
","
","""event"",""trial"",""time""
""fullscreenenter"",""5"",""27391""
","
",NA,images/earth.jpg,NA,NA,NA,NA,NA,NA,NA,NA,NA,NA,NA,NA,NA,fixation,NA,NA,NA,NA,NA,NA,sub94
d3-animate-choice,141,730396,0.0-76.0-0.2,FALSE,FALSE,TRUE,TRUE,"""event"",""trial"",""time""
""fullscreenenter"",""5"",""27391""
","
","
","""event"",""trial"",""time""
""fullscreenenter"",""5"",""27391""
","
",829.8799999756739,NA,49,NA,NA,3000,1,NA,NA,images/earth.jpg,images/rocket1,images/rocket2,null,images/rocket2,NA,1,real,null,1,NA,NA,NA,sub94
d3-animate-choice,142,732695,0.0-76.0-1.2,FALSE,FALSE,TRUE,TRUE,"""event"",""trial"",""time""
""fullscreenenter"",""5"",""27391""
","
","
","""event"",""trial"",""time""
""fullscreenenter"",""5"",""27391""
","
",292.05999997793697,NA,48,NA,NA,3000,1,NA,NA,images/purpleplanet.jpg,images/alien4,images/alien3,images/rocket2,images/alien4,images/t.png,2,real,false,2,rare,1,2020-07-06T18:58:12Z,sub94
two-step-fixation,143,733699,0.0-76.0-2.2,FALSE,FALSE,TRUE,TRUE,"""event"",""trial"",""time""
""fullscreenenter"",""5"",""27391""
","
","
","""event"",""trial"",""time""
""fullscreenenter"",""5"",""27391""
","
",NA,images/earth.jpg,NA,NA,NA,NA,NA,NA,NA,NA,NA,NA,NA,NA,NA,fixation,NA,NA,NA,NA,NA,NA,sub94
d3-animate-choice,144,736526,0.0-76.0-0.3,FALSE,FALSE,TRUE,TRUE,"""event"",""trial"",""time""
""fullscreenenter"",""5"",""27391""
","
","
","""event"",""trial"",""time""
""fullscreenenter"",""5"",""27391""
","
",820.2450000098906,NA,48,NA,NA,3000,1,NA,NA,images/earth.jpg,images/rocket1,images/rocket2,null,images/rocket1,NA,1,real,null,2,NA,NA,NA,sub94
d3-animate-choice,145,738769,0.0-76.0-1.3,FALSE,FALSE,TRUE,TRUE,"""event"",""trial"",""time""
""fullscreenenter"",""5"",""27391""
","
","
","""event"",""trial"",""time""
""fullscreenenter"",""5"",""27391""
","
",236.96499998914078,NA,48,NA,NA,3000,1,NA,NA,images/purpleplanet.jpg,images/alien4,images/alien3,images/rocket1,images/alien4,images/nothing.png,2,real,true,2,common,0,2020-07-06T18:58:18Z,sub94
two-step-fixation,146,739775,0.0-76.0-2.3,FALSE,FALSE,TRUE,TRUE,"""event"",""trial"",""time""
""fullscreenenter"",""5"",""27391""
","
","
","""event"",""trial"",""time""
""fullscreenenter"",""5"",""27391""
","
",NA,images/earth.jpg,NA,NA,NA,NA,NA,NA,NA,NA,NA,NA,NA,NA,NA,fixation,NA,NA,NA,NA,NA,NA,sub94
d3-animate-choice,147,742053,0.0-76.0-0.4,FALSE,FALSE,TRUE,TRUE,"""event"",""trial"",""time""
""fullscreenenter"",""5"",""27391""
","
","
","""event"",""trial"",""time""
""fullscreenenter"",""5"",""27391""
","
",271.4200000045821,NA,48,NA,NA,3000,1,NA,NA,images/earth.jpg,images/rocket1,images/rocket2,null,images/rocket1,NA,1,real,null,2,NA,NA,NA,sub94
d3-animate-choice,148,744462,0.0-76.0-1.4,FALSE,FALSE,TRUE,TRUE,"""event"",""trial"",""time""
""fullscreenenter"",""5"",""27391""
","
","
","""event"",""trial"",""time""
""fullscreenenter"",""5"",""27391""
","
",403.70999998413026,NA,49,NA,NA,3000,1,NA,NA,images/purpleplanet.jpg,images/alien4,images/alien3,images/rocket1,images/alien3,images/nothing.png,2,real,true,1,common,0,2020-07-06T18:58:24Z,sub94
two-step-fixation,149,745467,0.0-76.0-2.4,FALSE,FALSE,TRUE,TRUE,"""event"",""trial"",""time""
""fullscreenenter"",""5"",""27391""
","
","
","""event"",""trial"",""time""
""fullscreenenter"",""5"",""27391""
","
",NA,images/earth.jpg,NA,NA,NA,NA,NA,NA,NA,NA,NA,NA,NA,NA,NA,fixation,NA,NA,NA,NA,NA,NA,sub94
d3-animate-choice,150,747772,0.0-76.0-0.5,FALSE,FALSE,TRUE,TRUE,"""event"",""trial"",""time""
""fullscreenenter"",""5"",""27391""
","
","
","""event"",""trial"",""time""
""fullscreenenter"",""5"",""27391""
","
",298.71500001172535,NA,49,NA,NA,3000,1,NA,NA,images/earth.jpg,images/rocket1,images/rocket2,null,images/rocket2,NA,1,real,null,1,NA,NA,NA,sub94
d3-animate-choice,151,750099,0.0-76.0-1.5,FALSE,FALSE,TRUE,TRUE,"""event"",""trial"",""time""
""fullscreenenter"",""5"",""27391""
","
","
","""event"",""trial"",""time""
""fullscreenenter"",""5"",""27391""
","
",321.1650000012014,NA,48,NA,NA,3000,1,NA,NA,images/redplanet1.jpg,images/alien2,images/alien1,images/rocket2,images/alien2,images/t.png,2,real,true,2,common,1,2020-07-06T18:58:30Z,sub94
two-step-fixation,152,751104,0.0-76.0-2.5,FALSE,FALSE,TRUE,TRUE,"""event"",""trial"",""time""
""fullscreenenter"",""5"",""27391""
","
","
","""event"",""trial"",""time""
""fullscreenenter"",""5"",""27391""
","
",NA,images/earth.jpg,NA,NA,NA,NA,NA,NA,NA,NA,NA,NA,NA,NA,NA,fixation,NA,NA,NA,NA,NA,NA,sub94
d3-animate-choice,153,753361,0.0-76.0-0.6,FALSE,FALSE,TRUE,TRUE,"""event"",""trial"",""time""
""fullscreenenter"",""5"",""27391""
","
","
","""event"",""trial"",""time""
""fullscreenenter"",""5"",""27391""
","
",250.97500000265427,NA,49,NA,NA,3000,1,NA,NA,images/earth.jpg,images/rocket1,images/rocket2,null,images/rocket2,NA,1,real,null,1,NA,NA,NA,sub94
d3-animate-choice,154,755611,0.0-76.0-1.6,FALSE,FALSE,TRUE,TRUE,"""event"",""trial"",""time""
""fullscreenenter"",""5"",""27391""
","
","
","""event"",""trial"",""time""
""fullscreenenter"",""5"",""27391""
","
",243.54999998467974,NA,48,NA,NA,3000,1,NA,NA,images/purpleplanet.jpg,images/alien4,images/alien3,images/rocket2,images/alien4,images/t.png,2,real,false,2,rare,1,2020-07-06T18:58:35Z,sub94
two-step-fixation,155,756617,0.0-76.0-2.6,FALSE,FALSE,TRUE,TRUE,"""event"",""trial"",""time""
""fullscreenenter"",""5"",""27391""
","
","
","""event"",""trial"",""time""
""fullscreenenter"",""5"",""27391""
","
",NA,images/earth.jpg,NA,NA,NA,NA,NA,NA,NA,NA,NA,NA,NA,NA,NA,fixation,NA,NA,NA,NA,NA,NA,sub94
d3-animate-choice,156,759033,0.0-76.0-0.7,FALSE,FALSE,TRUE,TRUE,"""event"",""trial"",""time""
""fullscreenenter"",""5"",""27391""
","
","
","""event"",""trial"",""time""
""fullscreenenter"",""5"",""27391""
","
",409.99999997438863,NA,49,NA,NA,3000,1,NA,NA,images/earth.jpg,images/rocket1,images/rocket2,null,images/rocket2,NA,1,real,null,1,NA,NA,NA,sub94
d3-animate-choice,157,761318,0.0-76.0-1.7,FALSE,FALSE,TRUE,TRUE,"""event"",""trial"",""time""
""fullscreenenter"",""5"",""27391""
","
","
","""event"",""trial"",""time""
""fullscreenenter"",""5"",""27391""
","
",277.61499999905936,NA,48,NA,NA,3000,1,NA,NA,images/redplanet1.jpg,images/alien2,images/alien1,images/rocket2,images/alien2,images/t.png,2,real,true,2,common,1,2020-07-06T18:58:41Z,sub94
two-step-fixation,158,762322,0.0-76.0-2.7,FALSE,FALSE,TRUE,TRUE,"""event"",""trial"",""time""
""fullscreenenter"",""5"",""27391""
","
","
","""event"",""trial"",""time""
""fullscreenenter"",""5"",""27391""
","
",NA,images/earth.jpg,NA,NA,NA,NA,NA,NA,NA,NA,NA,NA,NA,NA,NA,fixation,NA,NA,NA,NA,NA,NA,sub94
d3-animate-choice,159,764917,0.0-76.0-0.8,FALSE,FALSE,TRUE,TRUE,"""event"",""trial"",""time""
""fullscreenenter"",""5"",""27391""
","
","
","""event"",""trial"",""time""
""fullscreenenter"",""5"",""27391""
","
",588.1599999847822,NA,49,NA,NA,3000,1,NA,NA,images/earth.jpg,images/rocket1,images/rocket2,null,images/rocket2,NA,1,real,null,1,NA,NA,NA,sub94
d3-animate-choice,160,767051,0.0-76.0-1.8,FALSE,FALSE,TRUE,TRUE,"""event"",""trial"",""time""
""fullscreenenter"",""5"",""27391""
","
","
","""event"",""trial"",""time""
""fullscreenenter"",""5"",""27391""
","
",130.19999998505227,NA,48,NA,NA,3000,1,NA,NA,images/redplanet1.jpg,images/alien2,images/alien1,images/rocket2,images/alien2,images/nothing.png,2,real,true,2,common,0,2020-07-06T18:58:47Z,sub94
two-step-fixation,161,768057,0.0-76.0-2.8,FALSE,FALSE,TRUE,TRUE,"""event"",""trial"",""time""
""fullscreenenter"",""5"",""27391""
","
","
","""event"",""trial"",""time""
""fullscreenenter"",""5"",""27391""
","
",NA,images/earth.jpg,NA,NA,NA,NA,NA,NA,NA,NA,NA,NA,NA,NA,NA,fixation,NA,NA,NA,NA,NA,NA,sub94
d3-animate-choice,162,770810,0.0-76.0-0.9,FALSE,FALSE,TRUE,TRUE,"""event"",""trial"",""time""
""fullscreenenter"",""5"",""27391""
","
","
","""event"",""trial"",""time""
""fullscreenenter"",""5"",""27391""
","
",750.6699999794364,NA,49,NA,NA,3000,1,NA,NA,images/earth.jpg,images/rocket1,images/rocket2,null,images/rocket2,NA,1,real,null,1,NA,NA,NA,sub94
d3-animate-choice,163,773151,0.0-76.0-1.9,FALSE,FALSE,TRUE,TRUE,"""event"",""trial"",""time""
""fullscreenenter"",""5"",""27391""
","
","
","""event"",""trial"",""time""
""fullscreenenter"",""5"",""27391""
","
",334.5350000017788,NA,49,NA,NA,3000,1,NA,NA,images/redplanet1.jpg,images/alien2,images/alien1,images/rocket2,images/alien1,images/t.png,2,real,true,1,common,1,2020-07-06T18:58:53Z,sub94
two-step-fixation,164,774157,0.0-76.0-2.9,FALSE,FALSE,TRUE,TRUE,"""event"",""trial"",""time""
""fullscreenenter"",""5"",""27391""
","
","
","""event"",""trial"",""time""
""fullscreenenter"",""5"",""27391""
","
",NA,images/earth.jpg,NA,NA,NA,NA,NA,NA,NA,NA,NA,NA,NA,NA,NA,fixation,NA,NA,NA,NA,NA,NA,sub94
d3-animate-choice,165,776701,0.0-76.0-0.10,FALSE,FALSE,TRUE,TRUE,"""event"",""trial"",""time""
""fullscreenenter"",""5"",""27391""
","
","
","""event"",""trial"",""time""
""fullscreenenter"",""5"",""27391""
","
",537.9050000046846,NA,49,NA,NA,3000,1,NA,NA,images/earth.jpg,images/rocket1,images/rocket2,null,images/rocket2,NA,1,real,null,1,NA,NA,NA,sub94
d3-animate-choice,166,779097,0.0-76.0-1.10,FALSE,FALSE,TRUE,TRUE,"""event"",""trial"",""time""
""fullscreenenter"",""5"",""27391""
","
","
","""event"",""trial"",""time""
""fullscreenenter"",""5"",""27391""
","
",389.0550000069197,NA,49,NA,NA,3000,1,NA,NA,images/purpleplanet.jpg,images/alien4,images/alien3,images/rocket2,images/alien3,images/nothing.png,2,real,false,1,rare,0,2020-07-06T18:58:59Z,sub94
two-step-fixation,167,780101,0.0-76.0-2.10,FALSE,FALSE,TRUE,TRUE,"""event"",""trial"",""time""
""fullscreenenter"",""5"",""27391""
","
","
","""event"",""trial"",""time""
""fullscreenenter"",""5"",""27391""
","
",NA,images/earth.jpg,NA,NA,NA,NA,NA,NA,NA,NA,NA,NA,NA,NA,NA,fixation,NA,NA,NA,NA,NA,NA,sub94
d3-animate-choice,168,782370,0.0-76.0-0.11,FALSE,FALSE,TRUE,TRUE,"""event"",""trial"",""time""
""fullscreenenter"",""5"",""27391""
","
","
","""event"",""trial"",""time""
""fullscreenenter"",""5"",""27391""
","
",264.61000001290813,NA,49,NA,NA,3000,1,NA,NA,images/earth.jpg,images/rocket1,images/rocket2,null,images/rocket2,NA,1,real,null,1,NA,NA,NA,sub94
d3-animate-choice,169,784623,0.0-76.0-1.11,FALSE,FALSE,TRUE,TRUE,"""event"",""trial"",""time""
""fullscreenenter"",""5"",""27391""
","
","
","""event"",""trial"",""time""
""fullscreenenter"",""5"",""27391""
","
",247.3900000040885,NA,49,NA,NA,3000,1,NA,NA,images/purpleplanet.jpg,images/alien4,images/alien3,images/rocket2,images/alien3,images/nothing.png,2,real,false,1,rare,0,2020-07-06T18:59:04Z,sub94
two-step-fixation,170,785630,0.0-76.0-2.11,FALSE,FALSE,TRUE,TRUE,"""event"",""trial"",""time""
""fullscreenenter"",""5"",""27391""
","
","
","""event"",""trial"",""time""
""fullscreenenter"",""5"",""27391""
","
",NA,images/earth.jpg,NA,NA,NA,NA,NA,NA,NA,NA,NA,NA,NA,NA,NA,fixation,NA,NA,NA,NA,NA,NA,sub94
d3-animate-choice,171,788080,0.0-76.0-0.12,FALSE,FALSE,TRUE,TRUE,"""event"",""trial"",""time""
""fullscreenenter"",""5"",""27391""
","
","
","""event"",""trial"",""time""
""fullscreenenter"",""5"",""27391""
","
",444.28500000503846,NA,49,NA,NA,3000,1,NA,NA,images/earth.jpg,images/rocket1,images/rocket2,null,images/rocket2,NA,1,real,null,1,NA,NA,NA,sub94
d3-animate-choice,172,790450,0.0-76.0-1.12,FALSE,FALSE,TRUE,TRUE,"""event"",""trial"",""time""
""fullscreenenter"",""5"",""27391""
","
","
","""event"",""trial"",""time""
""fullscreenenter"",""5"",""27391""
","
",366.2999999942258,NA,49,NA,NA,3000,1,NA,NA,images/redplanet1.jpg,images/alien2,images/alien1,images/rocket2,images/alien1,images/nothing.png,2,real,true,1,common,0,2020-07-06T18:59:10Z,sub94
two-step-fixation,173,791456,0.0-76.0-2.12,FALSE,FALSE,TRUE,TRUE,"""event"",""trial"",""time""
""fullscreenenter"",""5"",""27391""
","
","
","""event"",""trial"",""time""
""fullscreenenter"",""5"",""27391""
","
",NA,images/earth.jpg,NA,NA,NA,NA,NA,NA,NA,NA,NA,NA,NA,NA,NA,fixation,NA,NA,NA,NA,NA,NA,sub94
d3-animate-choice,174,793772,0.0-76.0-0.13,FALSE,FALSE,TRUE,TRUE,"""event"",""trial"",""time""
""fullscreenenter"",""5"",""27391""
","
","
","""event"",""trial"",""time""
""fullscreenenter"",""5"",""27391""
","
",309.60000000777654,NA,49,NA,NA,3000,1,NA,NA,images/earth.jpg,images/rocket1,images/rocket2,null,images/rocket2,NA,1,real,null,1,NA,NA,NA,sub94
d3-animate-choice,175,796189,0.0-76.0-1.13,FALSE,FALSE,TRUE,TRUE,"""event"",""trial"",""time""
""fullscreenenter"",""5"",""27391""
","
","
","""event"",""trial"",""time""
""fullscreenenter"",""5"",""27391""
","
",410.40500000235625,NA,48,NA,NA,3000,1,NA,NA,images/redplanet1.jpg,images/alien2,images/alien1,images/rocket2,images/alien2,images/nothing.png,2,real,true,2,common,0,2020-07-06T18:59:16Z,sub94
two-step-fixation,176,797194,0.0-76.0-2.13,FALSE,FALSE,TRUE,TRUE,"""event"",""trial"",""time""
""fullscreenenter"",""5"",""27391""
","
","
","""event"",""trial"",""time""
""fullscreenenter"",""5"",""27391""
","
",NA,images/earth.jpg,NA,NA,NA,NA,NA,NA,NA,NA,NA,NA,NA,NA,NA,fixation,NA,NA,NA,NA,NA,NA,sub94
d3-animate-choice,177,799546,0.0-76.0-0.14,FALSE,FALSE,TRUE,TRUE,"""event"",""trial"",""time""
""fullscreenenter"",""5"",""27391""
","
","
","""event"",""trial"",""time""
""fullscreenenter"",""5"",""27391""
","
",346.16499999538064,NA,48,NA,NA,3000,1,NA,NA,images/earth.jpg,images/rocket1,images/rocket2,null,images/rocket1,NA,1,real,null,2,NA,NA,NA,sub94
d3-animate-choice,178,801805,0.0-76.0-1.14,FALSE,FALSE,TRUE,TRUE,"""event"",""trial"",""time""
""fullscreenenter"",""5"",""27391""
","
","
","""event"",""trial"",""time""
""fullscreenenter"",""5"",""27391""
","
",253.45499999821186,NA,48,NA,NA,3000,1,NA,NA,images/purpleplanet.jpg,images/alien4,images/alien3,images/rocket1,images/alien4,images/nothing.png,2,real,true,2,common,0,2020-07-06T18:59:21Z,sub94
two-step-fixation,179,802811,0.0-76.0-2.14,FALSE,FALSE,TRUE,TRUE,"""event"",""trial"",""time""
""fullscreenenter"",""5"",""27391""
","
","
","""event"",""trial"",""time""
""fullscreenenter"",""5"",""27391""
","
",NA,images/earth.jpg,NA,NA,NA,NA,NA,NA,NA,NA,NA,NA,NA,NA,NA,fixation,NA,NA,NA,NA,NA,NA,sub94
d3-animate-choice,180,805153,0.0-76.0-0.15,FALSE,FALSE,TRUE,TRUE,"""event"",""trial"",""time""
""fullscreenenter"",""5"",""27391""
","
","
","""event"",""trial"",""time""
""fullscreenenter"",""5"",""27391""
","
",335.3099999949336,NA,48,NA,NA,3000,1,NA,NA,images/earth.jpg,images/rocket1,images/rocket2,null,images/rocket1,NA,1,real,null,2,NA,NA,NA,sub94
d3-animate-choice,181,807443,0.0-76.0-1.15,FALSE,FALSE,TRUE,TRUE,"""event"",""trial"",""time""
""fullscreenenter"",""5"",""27391""
","
","
","""event"",""trial"",""time""
""fullscreenenter"",""5"",""27391""
","
",284.6399999980349,NA,49,NA,NA,3000,1,NA,NA,images/redplanet1.jpg,images/alien2,images/alien1,images/rocket1,images/alien1,images/t.png,2,real,false,1,rare,1,2020-07-06T18:59:27Z,sub94
two-step-fixation,182,808450,0.0-76.0-2.15,FALSE,FALSE,TRUE,TRUE,"""event"",""trial"",""time""
""fullscreenenter"",""5"",""27391""
","
","
","""event"",""trial"",""time""
""fullscreenenter"",""5"",""27391""
","
",NA,images/earth.jpg,NA,NA,NA,NA,NA,NA,NA,NA,NA,NA,NA,NA,NA,fixation,NA,NA,NA,NA,NA,NA,sub94
d3-animate-choice,183,810743,0.0-76.0-0.16,FALSE,FALSE,TRUE,TRUE,"""event"",""trial"",""time""
""fullscreenenter"",""5"",""27391""
","
","
","""event"",""trial"",""time""
""fullscreenenter"",""5"",""27391""
","
",287.2650000208523,NA,48,NA,NA,3000,1,NA,NA,images/earth.jpg,images/rocket1,images/rocket2,null,images/rocket1,NA,1,real,null,2,NA,NA,NA,sub94
d3-animate-choice,184,813201,0.0-76.0-1.16,FALSE,FALSE,TRUE,TRUE,"""event"",""trial"",""time""
""fullscreenenter"",""5"",""27391""
","
","
","""event"",""trial"",""time""
""fullscreenenter"",""5"",""27391""
","
",450.940000009723,NA,49,NA,NA,3000,1,NA,NA,images/redplanet1.jpg,images/alien2,images/alien1,images/rocket1,images/alien1,images/t.png,2,real,false,1,rare,1,2020-07-06T18:59:33Z,sub94
two-step-fixation,185,814206,0.0-76.0-2.16,FALSE,FALSE,TRUE,TRUE,"""event"",""trial"",""time""
""fullscreenenter"",""5"",""27391""
","
","
","""event"",""trial"",""time""
""fullscreenenter"",""5"",""27391""
","
",NA,images/earth.jpg,NA,NA,NA,NA,NA,NA,NA,NA,NA,NA,NA,NA,NA,fixation,NA,NA,NA,NA,NA,NA,sub94
d3-animate-choice,186,816538,0.0-76.0-0.17,FALSE,FALSE,TRUE,TRUE,"""event"",""trial"",""time""
""fullscreenenter"",""5"",""27391""
","
","
","""event"",""trial"",""time""
""fullscreenenter"",""5"",""27391""
","
",325.22500000777654,NA,48,NA,NA,3000,1,NA,NA,images/earth.jpg,images/rocket1,images/rocket2,null,images/rocket1,NA,1,real,null,2,NA,NA,NA,sub94
d3-animate-choice,187,818879,0.0-76.0-1.17,FALSE,FALSE,TRUE,TRUE,"""event"",""trial"",""time""
""fullscreenenter"",""5"",""27391""
","
","
","""event"",""trial"",""time""
""fullscreenenter"",""5"",""27391""
","
",335.85000000311993,NA,49,NA,NA,3000,1,NA,NA,images/redplanet1.jpg,images/alien2,images/alien1,images/rocket1,images/alien1,images/t.png,2,real,false,1,rare,1,2020-07-06T18:59:39Z,sub94
two-step-fixation,188,819886,0.0-76.0-2.17,FALSE,FALSE,TRUE,TRUE,"""event"",""trial"",""time""
""fullscreenenter"",""5"",""27391""
","
","
","""event"",""trial"",""time""
""fullscreenenter"",""5"",""27391""
","
",NA,images/earth.jpg,NA,NA,NA,NA,NA,NA,NA,NA,NA,NA,NA,NA,NA,fixation,NA,NA,NA,NA,NA,NA,sub94
d3-animate-choice,189,822188,0.0-76.0-0.18,FALSE,FALSE,TRUE,TRUE,"""event"",""trial"",""time""
""fullscreenenter"",""5"",""27391""
","
","
","""event"",""trial"",""time""
""fullscreenenter"",""5"",""27391""
","
",296.03500000666827,NA,48,NA,NA,3000,1,NA,NA,images/earth.jpg,images/rocket1,images/rocket2,null,images/rocket1,NA,1,real,null,2,NA,NA,NA,sub94
d3-animate-choice,190,824624,0.0-76.0-1.18,FALSE,FALSE,TRUE,TRUE,"""event"",""trial"",""time""
""fullscreenenter"",""5"",""27391""
","
","
","""event"",""trial"",""time""
""fullscreenenter"",""5"",""27391""
","
",430.1350000023376,NA,49,NA,NA,3000,1,NA,NA,images/purpleplanet.jpg,images/alien4,images/alien3,images/rocket1,images/alien3,images/nothing.png,2,real,true,1,common,0,2020-07-06T18:59:44Z,sub94
two-step-fixation,191,825631,0.0-76.0-2.18,FALSE,FALSE,TRUE,TRUE,"""event"",""trial"",""time""
""fullscreenenter"",""5"",""27391""
","
","
","""event"",""trial"",""time""
""fullscreenenter"",""5"",""27391""
","
",NA,images/earth.jpg,NA,NA,NA,NA,NA,NA,NA,NA,NA,NA,NA,NA,NA,fixation,NA,NA,NA,NA,NA,NA,sub94
d3-animate-choice,192,828299,0.0-76.0-0.19,FALSE,FALSE,TRUE,TRUE,"""event"",""trial"",""time""
""fullscreenenter"",""5"",""27391""
","
","
","""event"",""trial"",""time""
""fullscreenenter"",""5"",""27391""
","
",661.7799999949057,NA,48,NA,NA,3000,1,NA,NA,images/earth.jpg,images/rocket1,images/rocket2,null,images/rocket1,NA,1,real,null,2,NA,NA,NA,sub94
d3-animate-choice,193,830986,0.0-76.0-1.19,FALSE,FALSE,TRUE,TRUE,"""event"",""trial"",""time""
""fullscreenenter"",""5"",""27391""
","
","
","""event"",""trial"",""time""
""fullscreenenter"",""5"",""27391""
","
",680.900000006659,NA,48,NA,NA,3000,1,NA,NA,images/purpleplanet.jpg,images/alien4,images/alien3,images/rocket1,images/alien4,images/nothing.png,2,real,true,2,common,0,2020-07-06T18:59:51Z,sub94
two-step-fixation,194,831993,0.0-76.0-2.19,FALSE,FALSE,TRUE,TRUE,"""event"",""trial"",""time""
""fullscreenenter"",""5"",""27391""
","
","
","""event"",""trial"",""time""
""fullscreenenter"",""5"",""27391""
","
",NA,images/earth.jpg,NA,NA,NA,NA,NA,NA,NA,NA,NA,NA,NA,NA,NA,fixation,NA,NA,NA,NA,NA,NA,sub94
d3-animate-choice,195,834391,0.0-76.0-0.20,FALSE,FALSE,TRUE,TRUE,"""event"",""trial"",""time""
""fullscreenenter"",""5"",""27391""
","
","
","""event"",""trial"",""time""
""fullscreenenter"",""5"",""27391""
","
",393.9050000044517,NA,49,NA,NA,3000,1,NA,NA,images/earth.jpg,images/rocket1,images/rocket2,null,images/rocket2,NA,1,real,null,1,NA,NA,NA,sub94
d3-animate-choice,196,837038,0.0-76.0-1.20,FALSE,FALSE,TRUE,TRUE,"""event"",""trial"",""time""
""fullscreenenter"",""5"",""27391""
","
","
","""event"",""trial"",""time""
""fullscreenenter"",""5"",""27391""
","
",640.7600000093225,NA,49,NA,NA,3000,1,NA,NA,images/redplanet1.jpg,images/alien2,images/alien1,images/rocket2,images/alien1,images/nothing.png,2,real,true,1,common,0,2020-07-06T18:59:57Z,sub94
two-step-fixation,197,838042,0.0-76.0-2.20,FALSE,FALSE,TRUE,TRUE,"""event"",""trial"",""time""
""fullscreenenter"",""5"",""27391""
","
","
","""event"",""trial"",""time""
""fullscreenenter"",""5"",""27391""
","
",NA,images/earth.jpg,NA,NA,NA,NA,NA,NA,NA,NA,NA,NA,NA,NA,NA,fixation,NA,NA,NA,NA,NA,NA,sub94
d3-animate-choice,198,840371,0.0-76.0-0.21,FALSE,FALSE,TRUE,TRUE,"""event"",""trial"",""time""
""fullscreenenter"",""5"",""27391""
","
","
","""event"",""trial"",""time""
""fullscreenenter"",""5"",""27391""
","
",321.9649999809917,NA,48,NA,NA,3000,1,NA,NA,images/earth.jpg,images/rocket1,images/rocket2,null,images/rocket1,NA,1,real,null,2,NA,NA,NA,sub94
d3-animate-choice,199,842673,0.0-76.0-1.21,FALSE,FALSE,TRUE,TRUE,"""event"",""trial"",""time""
""fullscreenenter"",""5"",""27391""
","
","
","""event"",""trial"",""time""
""fullscreenenter"",""5"",""27391""
","
",296.2600000028033,NA,49,NA,NA,3000,1,NA,NA,images/purpleplanet.jpg,images/alien4,images/alien3,images/rocket1,images/alien3,images/nothing.png,2,real,true,1,common,0,2020-07-06T19:00:02Z,sub94
two-step-fixation,200,843679,0.0-76.0-2.21,FALSE,FALSE,TRUE,TRUE,"""event"",""trial"",""time""
""fullscreenenter"",""5"",""27391""
","
","
","""event"",""trial"",""time""
""fullscreenenter"",""5"",""27391""
","
",NA,images/earth.jpg,NA,NA,NA,NA,NA,NA,NA,NA,NA,NA,NA,NA,NA,fixation,NA,NA,NA,NA,NA,NA,sub94
d3-animate-choice,201,846487,0.0-76.0-0.22,FALSE,FALSE,TRUE,TRUE,"""event"",""trial"",""time""
""fullscreenenter"",""5"",""27391""
","
","
","""event"",""trial"",""time""
""fullscreenenter"",""5"",""27391""
","
",801.9900000072084,NA,48,NA,NA,3000,1,NA,NA,images/earth.jpg,images/rocket1,images/rocket2,null,images/rocket1,NA,1,real,null,2,NA,NA,NA,sub94
d3-animate-choice,202,848903,0.0-76.0-1.22,FALSE,FALSE,TRUE,TRUE,"""event"",""trial"",""time""
""fullscreenenter"",""5"",""27391""
","
","
","""event"",""trial"",""time""
""fullscreenenter"",""5"",""27391""
","
",409.6900000004098,NA,48,NA,NA,3000,1,NA,NA,images/purpleplanet.jpg,images/alien4,images/alien3,images/rocket1,images/alien4,images/t.png,2,real,true,2,common,1,2020-07-06T19:00:09Z,sub94
two-step-fixation,203,849906,0.0-76.0-2.22,FALSE,FALSE,TRUE,TRUE,"""event"",""trial"",""time""
""fullscreenenter"",""5"",""27391""
","
","
","""event"",""trial"",""time""
""fullscreenenter"",""5"",""27391""
","
",NA,images/earth.jpg,NA,NA,NA,NA,NA,NA,NA,NA,NA,NA,NA,NA,NA,fixation,NA,NA,NA,NA,NA,NA,sub94
d3-animate-choice,204,852274,0.0-76.0-0.23,FALSE,FALSE,TRUE,TRUE,"""event"",""trial"",""time""
""fullscreenenter"",""5"",""27391""
","
","
","""event"",""trial"",""time""
""fullscreenenter"",""5"",""27391""
","
",365.20499998005107,NA,48,NA,NA,3000,1,NA,NA,images/earth.jpg,images/rocket1,images/rocket2,null,images/rocket1,NA,1,real,null,2,NA,NA,NA,sub94
d3-animate-choice,205,854734,0.0-76.0-1.23,FALSE,FALSE,TRUE,TRUE,"""event"",""trial"",""time""
""fullscreenenter"",""5"",""27391""
","
","
","""event"",""trial"",""time""
""fullscreenenter"",""5"",""27391""
","
",455.0349999917671,NA,48,NA,NA,3000,1,NA,NA,images/purpleplanet.jpg,images/alien4,images/alien3,images/rocket1,images/alien4,images/nothing.png,2,real,true,2,common,0,2020-07-06T19:00:14Z,sub94
two-step-fixation,206,855740,0.0-76.0-2.23,FALSE,FALSE,TRUE,TRUE,"""event"",""trial"",""time""
""fullscreenenter"",""5"",""27391""
","
","
","""event"",""trial"",""time""
""fullscreenenter"",""5"",""27391""
","
",NA,images/earth.jpg,NA,NA,NA,NA,NA,NA,NA,NA,NA,NA,NA,NA,NA,fixation,NA,NA,NA,NA,NA,NA,sub94
d3-animate-choice,207,858069,0.0-76.0-0.24,FALSE,FALSE,TRUE,TRUE,"""event"",""trial"",""time""
""fullscreenenter"",""5"",""27391""
","
","
","""event"",""trial"",""time""
""fullscreenenter"",""5"",""27391""
","
",321.9600000011269,NA,49,NA,NA,3000,1,NA,NA,images/earth.jpg,images/rocket1,images/rocket2,null,images/rocket2,NA,1,real,null,1,NA,NA,NA,sub94
d3-animate-choice,208,860440,0.0-76.0-1.24,FALSE,FALSE,TRUE,TRUE,"""event"",""trial"",""time""
""fullscreenenter"",""5"",""27391""
","
","
","""event"",""trial"",""time""
""fullscreenenter"",""5"",""27391""
","
",365.4099999985192,NA,49,NA,NA,3000,1,NA,NA,images/redplanet1.jpg,images/alien2,images/alien1,images/rocket2,images/alien1,images/t.png,2,real,true,1,common,1,2020-07-06T19:00:20Z,sub94
two-step-fixation,209,861448,0.0-76.0-2.24,FALSE,FALSE,TRUE,TRUE,"""event"",""trial"",""time""
""fullscreenenter"",""5"",""27391""
","
","
","""event"",""trial"",""time""
""fullscreenenter"",""5"",""27391""
","
",NA,images/earth.jpg,NA,NA,NA,NA,NA,NA,NA,NA,NA,NA,NA,NA,NA,fixation,NA,NA,NA,NA,NA,NA,sub94
d3-animate-choice,210,863752,0.0-76.0-0.25,FALSE,FALSE,TRUE,TRUE,"""event"",""trial"",""time""
""fullscreenenter"",""5"",""27391""
","
","
","""event"",""trial"",""time""
""fullscreenenter"",""5"",""27391""
","
",297.019999998156,NA,49,NA,NA,3000,1,NA,NA,images/earth.jpg,images/rocket1,images/rocket2,null,images/rocket2,NA,1,real,null,1,NA,NA,NA,sub94
d3-animate-choice,211,867172,0.0-76.0-1.25,FALSE,FALSE,TRUE,TRUE,"""event"",""trial"",""time""
""fullscreenenter"",""5"",""27391""
","
","
","""event"",""trial"",""time""
""fullscreenenter"",""5"",""27391""
","
",1416.0300000221469,NA,48,NA,NA,3000,1,NA,NA,images/purpleplanet.jpg,images/alien4,images/alien3,images/rocket2,images/alien4,images/t.png,2,real,false,2,rare,1,2020-07-06T19:00:27Z,sub94
two-step-fixation,212,868178,0.0-76.0-2.25,FALSE,FALSE,TRUE,TRUE,"""event"",""trial"",""time""
""fullscreenenter"",""5"",""27391""
","
","
","""event"",""trial"",""time""
""fullscreenenter"",""5"",""27391""
","
",NA,images/earth.jpg,NA,NA,NA,NA,NA,NA,NA,NA,NA,NA,NA,NA,NA,fixation,NA,NA,NA,NA,NA,NA,sub94
d3-animate-choice,213,870432,0.0-76.0-0.26,FALSE,FALSE,TRUE,TRUE,"""event"",""trial"",""time""
""fullscreenenter"",""5"",""27391""
","
","
","""event"",""trial"",""time""
""fullscreenenter"",""5"",""27391""
","
",249.0000000107102,NA,49,NA,NA,3000,1,NA,NA,images/earth.jpg,images/rocket1,images/rocket2,null,images/rocket2,NA,1,real,null,1,NA,NA,NA,sub94
d3-animate-choice,214,872845,0.0-76.0-1.26,FALSE,FALSE,TRUE,TRUE,"""event"",""trial"",""time""
""fullscreenenter"",""5"",""27391""
","
","
","""event"",""trial"",""time""
""fullscreenenter"",""5"",""27391""
","
",406.3200000091456,NA,49,NA,NA,3000,1,NA,NA,images/redplanet1.jpg,images/alien2,images/alien1,images/rocket2,images/alien1,images/t.png,2,real,true,1,common,1,2020-07-06T19:00:33Z,sub94
two-step-fixation,215,873852,0.0-76.0-2.26,FALSE,FALSE,TRUE,TRUE,"""event"",""trial"",""time""
""fullscreenenter"",""5"",""27391""
","
","
","""event"",""trial"",""time""
""fullscreenenter"",""5"",""27391""
","
",NA,images/earth.jpg,NA,NA,NA,NA,NA,NA,NA,NA,NA,NA,NA,NA,NA,fixation,NA,NA,NA,NA,NA,NA,sub94
d3-animate-choice,216,876270,0.0-76.0-0.27,FALSE,FALSE,TRUE,TRUE,"""event"",""trial"",""time""
""fullscreenenter"",""5"",""27391""
","
","
","""event"",""trial"",""time""
""fullscreenenter"",""5"",""27391""
","
",411.7099999857601,NA,49,NA,NA,3000,1,NA,NA,images/earth.jpg,images/rocket1,images/rocket2,null,images/rocket2,NA,1,real,null,1,NA,NA,NA,sub94
d3-animate-choice,217,878698,0.0-76.0-1.27,FALSE,FALSE,TRUE,TRUE,"""event"",""trial"",""time""
""fullscreenenter"",""5"",""27391""
","
","
","""event"",""trial"",""time""
""fullscreenenter"",""5"",""27391""
","
",421.07000001124106,NA,48,NA,NA,3000,1,NA,NA,images/purpleplanet.jpg,images/alien4,images/alien3,images/rocket2,images/alien4,images/t.png,2,real,false,2,rare,1,2020-07-06T19:00:38Z,sub94
two-step-fixation,218,879702,0.0-76.0-2.27,FALSE,FALSE,TRUE,TRUE,"""event"",""trial"",""time""
""fullscreenenter"",""5"",""27391""
","
","
","""event"",""trial"",""time""
""fullscreenenter"",""5"",""27391""
","
",NA,images/earth.jpg,NA,NA,NA,NA,NA,NA,NA,NA,NA,NA,NA,NA,NA,fixation,NA,NA,NA,NA,NA,NA,sub94
d3-animate-choice,219,882220,0.0-76.0-0.28,FALSE,FALSE,TRUE,TRUE,"""event"",""trial"",""time""
""fullscreenenter"",""5"",""27391""
","
","
","""event"",""trial"",""time""
""fullscreenenter"",""5"",""27391""
","
",511.9050000212155,NA,49,NA,NA,3000,1,NA,NA,images/earth.jpg,images/rocket1,images/rocket2,null,images/rocket2,NA,1,real,null,1,NA,NA,NA,sub94
d3-animate-choice,220,884455,0.0-76.0-1.28,FALSE,FALSE,TRUE,TRUE,"""event"",""trial"",""time""
""fullscreenenter"",""5"",""27391""
","
","
","""event"",""trial"",""time""
""fullscreenenter"",""5"",""27391""
","
",230.11499998392537,NA,49,NA,NA,3000,1,NA,NA,images/purpleplanet.jpg,images/alien4,images/alien3,images/rocket2,images/alien3,images/nothing.png,2,real,false,1,rare,0,2020-07-06T19:00:44Z,sub94
two-step-fixation,221,885460,0.0-76.0-2.28,FALSE,FALSE,TRUE,TRUE,"""event"",""trial"",""time""
""fullscreenenter"",""5"",""27391""
","
","
","""event"",""trial"",""time""
""fullscreenenter"",""5"",""27391""
","
",NA,images/earth.jpg,NA,NA,NA,NA,NA,NA,NA,NA,NA,NA,NA,NA,NA,fixation,NA,NA,NA,NA,NA,NA,sub94
d3-animate-choice,222,887829,0.0-76.0-0.29,FALSE,FALSE,TRUE,TRUE,"""event"",""trial"",""time""
""fullscreenenter"",""5"",""27391""
","
","
","""event"",""trial"",""time""
""fullscreenenter"",""5"",""27391""
","
",363.9499999990221,NA,49,NA,NA,3000,1,NA,NA,images/earth.jpg,images/rocket1,images/rocket2,null,images/rocket2,NA,1,real,null,1,NA,NA,NA,sub94
d3-animate-choice,223,890219,0.0-76.0-1.29,FALSE,FALSE,TRUE,TRUE,"""event"",""trial"",""time""
""fullscreenenter"",""5"",""27391""
","
","
","""event"",""trial"",""time""
""fullscreenenter"",""5"",""27391""
","
",385.65499999094754,NA,49,NA,NA,3000,1,NA,NA,images/redplanet1.jpg,images/alien2,images/alien1,images/rocket2,images/alien1,images/t.png,2,real,true,1,common,1,2020-07-06T19:00:50Z,sub94
two-step-fixation,224,891224,0.0-76.0-2.29,FALSE,FALSE,TRUE,TRUE,"""event"",""trial"",""time""
""fullscreenenter"",""5"",""27391""
","
","
","""event"",""trial"",""time""
""fullscreenenter"",""5"",""27391""
","
",NA,images/earth.jpg,NA,NA,NA,NA,NA,NA,NA,NA,NA,NA,NA,NA,NA,fixation,NA,NA,NA,NA,NA,NA,sub94
d3-animate-choice,225,893778,0.0-76.0-0.30,FALSE,FALSE,TRUE,TRUE,"""event"",""trial"",""time""
""fullscreenenter"",""5"",""27391""
","
","
","""event"",""trial"",""time""
""fullscreenenter"",""5"",""27391""
","
",547.5849999929778,NA,49,NA,NA,3000,1,NA,NA,images/earth.jpg,images/rocket1,images/rocket2,null,images/rocket2,NA,1,real,null,1,NA,NA,NA,sub94
d3-animate-choice,226,896424,0.0-76.0-1.30,FALSE,FALSE,TRUE,TRUE,"""event"",""trial"",""time""
""fullscreenenter"",""5"",""27391""
","
","
","""event"",""trial"",""time""
""fullscreenenter"",""5"",""27391""
","
",640.0050000229385,NA,49,NA,NA,3000,1,NA,NA,images/redplanet1.jpg,images/alien2,images/alien1,images/rocket2,images/alien1,images/t.png,2,real,true,1,common,1,2020-07-06T19:00:56Z,sub94
two-step-fixation,227,897429,0.0-76.0-2.30,FALSE,FALSE,TRUE,TRUE,"""event"",""trial"",""time""
""fullscreenenter"",""5"",""27391""
","
","
","""event"",""trial"",""time""
""fullscreenenter"",""5"",""27391""
","
",NA,images/earth.jpg,NA,NA,NA,NA,NA,NA,NA,NA,NA,NA,NA,NA,NA,fixation,NA,NA,NA,NA,NA,NA,sub94
d3-animate-choice,228,899802,0.0-76.0-0.31,FALSE,FALSE,TRUE,TRUE,"""event"",""trial"",""time""
""fullscreenenter"",""5"",""27391""
","
","
","""event"",""trial"",""time""
""fullscreenenter"",""5"",""27391""
","
",366.17500000284053,NA,49,NA,NA,3000,1,NA,NA,images/earth.jpg,images/rocket1,images/rocket2,null,images/rocket2,NA,1,real,null,1,NA,NA,NA,sub94
d3-animate-choice,229,902242,0.0-76.0-1.31,FALSE,FALSE,TRUE,TRUE,"""event"",""trial"",""time""
""fullscreenenter"",""5"",""27391""
","
","
","""event"",""trial"",""time""
""fullscreenenter"",""5"",""27391""
","
",432.9649999854155,NA,48,NA,NA,3000,1,NA,NA,images/purpleplanet.jpg,images/alien4,images/alien3,images/rocket2,images/alien4,images/nothing.png,2,real,false,2,rare,0,2020-07-06T19:01:02Z,sub94
two-step-fixation,230,903247,0.0-76.0-2.31,FALSE,FALSE,TRUE,TRUE,"""event"",""trial"",""time""
""fullscreenenter"",""5"",""27391""
","
","
","""event"",""trial"",""time""
""fullscreenenter"",""5"",""27391""
","
",NA,images/earth.jpg,NA,NA,NA,NA,NA,NA,NA,NA,NA,NA,NA,NA,NA,fixation,NA,NA,NA,NA,NA,NA,sub94
d3-animate-choice,231,905912,0.0-76.0-0.32,FALSE,FALSE,TRUE,TRUE,"""event"",""trial"",""time""
""fullscreenenter"",""5"",""27391""
","
","
","""event"",""trial"",""time""
""fullscreenenter"",""5"",""27391""
","
",658.1749999895692,NA,49,NA,NA,3000,1,692.6450000028126,50,images/earth.jpg,images/rocket1,images/rocket2,null,images/rocket2,NA,1,real,null,1,NA,NA,NA,sub94
d3-animate-choice,232,908383,0.0-76.0-1.32,FALSE,FALSE,TRUE,TRUE,"""event"",""trial"",""time""
""fullscreenenter"",""5"",""27391""
","
","
","""event"",""trial"",""time""
""fullscreenenter"",""5"",""27391""
","
",464.76000000257045,NA,48,NA,NA,3000,1,NA,NA,images/redplanet1.jpg,images/alien2,images/alien1,images/rocket2,images/alien2,images/nothing.png,2,real,true,2,common,0,2020-07-06T19:01:08Z,sub94
two-step-fixation,233,909389,0.0-76.0-2.32,FALSE,FALSE,TRUE,TRUE,"""event"",""trial"",""time""
""fullscreenenter"",""5"",""27391""
","
","
","""event"",""trial"",""time""
""fullscreenenter"",""5"",""27391""
","
",NA,images/earth.jpg,NA,NA,NA,NA,NA,NA,NA,NA,NA,NA,NA,NA,NA,fixation,NA,NA,NA,NA,NA,NA,sub94
d3-animate-choice,234,911683,0.0-76.0-0.33,FALSE,FALSE,TRUE,TRUE,"""event"",""trial"",""time""
""fullscreenenter"",""5"",""27391""
","
","
","""event"",""trial"",""time""
""fullscreenenter"",""5"",""27391""
","
",288.7449999980163,NA,49,NA,NA,3000,1,NA,NA,images/earth.jpg,images/rocket1,images/rocket2,null,images/rocket2,NA,1,real,null,1,NA,NA,NA,sub94
d3-animate-choice,235,914137,0.0-76.0-1.33,FALSE,FALSE,TRUE,TRUE,"""event"",""trial"",""time""
""fullscreenenter"",""5"",""27391""
","
","
","""event"",""trial"",""time""
""fullscreenenter"",""5"",""27391""
","
",449.13500000257045,NA,49,NA,NA,3000,1,NA,NA,images/redplanet1.jpg,images/alien2,images/alien1,images/rocket2,images/alien1,images/nothing.png,2,real,true,1,common,0,2020-07-06T19:01:14Z,sub94
two-step-fixation,236,915143,0.0-76.0-2.33,FALSE,FALSE,TRUE,TRUE,"""event"",""trial"",""time""
""fullscreenenter"",""5"",""27391""
","
","
","""event"",""trial"",""time""
""fullscreenenter"",""5"",""27391""
","
",NA,images/earth.jpg,NA,NA,NA,NA,NA,NA,NA,NA,NA,NA,NA,NA,NA,fixation,NA,NA,NA,NA,NA,NA,sub94
d3-animate-choice,237,917523,0.0-76.0-0.34,FALSE,FALSE,TRUE,TRUE,"""event"",""trial"",""time""
""fullscreenenter"",""5"",""27391""
","
","
","""event"",""trial"",""time""
""fullscreenenter"",""5"",""27391""
","
",372.56999997771345,NA,49,NA,NA,3000,1,NA,NA,images/earth.jpg,images/rocket1,images/rocket2,null,images/rocket2,NA,1,real,null,1,NA,NA,NA,sub94
d3-animate-choice,238,920045,0.0-76.0-1.34,FALSE,FALSE,TRUE,TRUE,"""event"",""trial"",""time""
""fullscreenenter"",""5"",""27391""
","
","
","""event"",""trial"",""time""
""fullscreenenter"",""5"",""27391""
","
",516.0649999743327,NA,49,NA,NA,3000,1,NA,NA,images/redplanet1.jpg,images/alien2,images/alien1,images/rocket2,images/alien1,images/t.png,2,real,true,1,common,1,2020-07-06T19:01:20Z,sub94
two-step-fixation,239,921051,0.0-76.0-2.34,FALSE,FALSE,TRUE,TRUE,"""event"",""trial"",""time""
""fullscreenenter"",""5"",""27391""
","
","
","""event"",""trial"",""time""
""fullscreenenter"",""5"",""27391""
","
",NA,images/earth.jpg,NA,NA,NA,NA,NA,NA,NA,NA,NA,NA,NA,NA,NA,fixation,NA,NA,NA,NA,NA,NA,sub94
d3-animate-choice,240,923552,0.0-76.0-0.35,FALSE,FALSE,TRUE,TRUE,"""event"",""trial"",""time""
""fullscreenenter"",""5"",""27391""
","
","
","""event"",""trial"",""time""
""fullscreenenter"",""5"",""27391""
","
",494.9849999975413,NA,49,NA,NA,3000,1,NA,NA,images/earth.jpg,images/rocket1,images/rocket2,null,images/rocket2,NA,1,real,null,1,NA,NA,NA,sub94
d3-animate-choice,241,925830,0.0-76.0-1.35,FALSE,FALSE,TRUE,TRUE,"""event"",""trial"",""time""
""fullscreenenter"",""5"",""27391""
","
","
","""event"",""trial"",""time""
""fullscreenenter"",""5"",""27391""
","
",270.844999991823,NA,49,NA,NA,3000,1,NA,NA,images/redplanet1.jpg,images/alien2,images/alien1,images/rocket2,images/alien1,images/nothing.png,2,real,true,1,common,0,2020-07-06T19:01:26Z,sub94
two-step-fixation,242,926835,0.0-76.0-2.35,FALSE,FALSE,TRUE,TRUE,"""event"",""trial"",""time""
""fullscreenenter"",""5"",""27391""
","
","
","""event"",""trial"",""time""
""fullscreenenter"",""5"",""27391""
","
",NA,images/earth.jpg,NA,NA,NA,NA,NA,NA,NA,NA,NA,NA,NA,NA,NA,fixation,NA,NA,NA,NA,NA,NA,sub94
d3-animate-choice,243,929170,0.0-76.0-0.36,FALSE,FALSE,TRUE,TRUE,"""event"",""trial"",""time""
""fullscreenenter"",""5"",""27391""
","
","
","""event"",""trial"",""time""
""fullscreenenter"",""5"",""27391""
","
",328.4400000120513,NA,49,NA,NA,3000,1,NA,NA,images/earth.jpg,images/rocket1,images/rocket2,null,images/rocket2,NA,1,real,null,1,NA,NA,NA,sub94
d3-animate-choice,244,931789,0.0-76.0-1.36,FALSE,FALSE,TRUE,TRUE,"""event"",""trial"",""time""
""fullscreenenter"",""5"",""27391""
","
","
","""event"",""trial"",""time""
""fullscreenenter"",""5"",""27391""
","
",613.679999980377,NA,49,NA,NA,3000,1,NA,NA,images/purpleplanet.jpg,images/alien4,images/alien3,images/rocket2,images/alien3,images/t.png,2,real,false,1,rare,1,2020-07-06T19:01:31Z,sub94
two-step-fixation,245,932795,0.0-76.0-2.36,FALSE,FALSE,TRUE,TRUE,"""event"",""trial"",""time""
""fullscreenenter"",""5"",""27391""
","
","
","""event"",""trial"",""time""
""fullscreenenter"",""5"",""27391""
","
",NA,images/earth.jpg,NA,NA,NA,NA,NA,NA,NA,NA,NA,NA,NA,NA,NA,fixation,NA,NA,NA,NA,NA,NA,sub94
d3-animate-choice,246,935071,0.0-76.0-0.37,FALSE,FALSE,TRUE,TRUE,"""event"",""trial"",""time""
""fullscreenenter"",""5"",""27391""
","
","
","""event"",""trial"",""time""
""fullscreenenter"",""5"",""27391""
","
",269.96999999391846,NA,49,NA,NA,3000,1,NA,NA,images/earth.jpg,images/rocket1,images/rocket2,null,images/rocket2,NA,1,real,null,1,NA,NA,NA,sub94
d3-animate-choice,247,937439,0.0-76.0-1.37,FALSE,FALSE,TRUE,TRUE,"""event"",""trial"",""time""
""fullscreenenter"",""5"",""27391""
","
","
","""event"",""trial"",""time""
""fullscreenenter"",""5"",""27391""
","
",363.23999997694045,NA,49,NA,NA,3000,1,NA,NA,images/redplanet1.jpg,images/alien2,images/alien1,images/rocket2,images/alien1,images/t.png,2,real,true,1,common,1,2020-07-06T19:01:37Z,sub94
two-step-fixation,248,938441,0.0-76.0-2.37,FALSE,FALSE,TRUE,TRUE,"""event"",""trial"",""time""
""fullscreenenter"",""5"",""27391""
","
","
","""event"",""trial"",""time""
""fullscreenenter"",""5"",""27391""
","
",NA,images/earth.jpg,NA,NA,NA,NA,NA,NA,NA,NA,NA,NA,NA,NA,NA,fixation,NA,NA,NA,NA,NA,NA,sub94
d3-animate-choice,249,940773,0.0-76.0-0.38,FALSE,FALSE,TRUE,TRUE,"""event"",""trial"",""time""
""fullscreenenter"",""5"",""27391""
","
","
","""event"",""trial"",""time""
""fullscreenenter"",""5"",""27391""
","
",325.61999998870306,NA,49,NA,NA,3000,1,NA,NA,images/earth.jpg,images/rocket1,images/rocket2,null,images/rocket2,NA,1,real,null,1,NA,NA,NA,sub94
d3-animate-choice,250,943053,0.0-76.0-1.38,FALSE,FALSE,TRUE,TRUE,"""event"",""trial"",""time""
""fullscreenenter"",""5"",""27391""
","
","
","""event"",""trial"",""time""
""fullscreenenter"",""5"",""27391""
","
",273.56000000145286,NA,49,NA,NA,3000,1,NA,NA,images/redplanet1.jpg,images/alien2,images/alien1,images/rocket2,images/alien1,images/nothing.png,2,real,true,1,common,0,2020-07-06T19:01:43Z,sub94
two-step-fixation,251,944058,0.0-76.0-2.38,FALSE,FALSE,TRUE,TRUE,"""event"",""trial"",""time""
""fullscreenenter"",""5"",""27391""
","
","
","""event"",""trial"",""time""
""fullscreenenter"",""5"",""27391""
","
",NA,images/earth.jpg,NA,NA,NA,NA,NA,NA,NA,NA,NA,NA,NA,NA,NA,fixation,NA,NA,NA,NA,NA,NA,sub94
d3-animate-choice,252,946374,0.0-76.0-0.39,FALSE,FALSE,TRUE,TRUE,"""event"",""trial"",""time""
""fullscreenenter"",""5"",""27391""
","
","
","""event"",""trial"",""time""
""fullscreenenter"",""5"",""27391""
","
",309.945000015432,NA,49,NA,NA,3000,1,NA,NA,images/earth.jpg,images/rocket1,images/rocket2,null,images/rocket2,NA,1,real,null,1,NA,NA,NA,sub94
d3-animate-choice,253,949536,0.0-76.0-1.39,FALSE,FALSE,TRUE,TRUE,"""event"",""trial"",""time""
""fullscreenenter"",""5"",""27391""
","
","
","""event"",""trial"",""time""
""fullscreenenter"",""5"",""27391""
","
",1157.7549999929033,NA,49,NA,NA,3000,1,NA,NA,images/redplanet1.jpg,images/alien2,images/alien1,images/rocket2,images/alien1,images/t.png,2,real,true,1,common,1,2020-07-06T19:01:49Z,sub94
two-step-fixation,254,950542,0.0-76.0-2.39,FALSE,FALSE,TRUE,TRUE,"""event"",""trial"",""time""
""fullscreenenter"",""5"",""27391""
","
","
","""event"",""trial"",""time""
""fullscreenenter"",""5"",""27391""
","
",NA,images/earth.jpg,NA,NA,NA,NA,NA,NA,NA,NA,NA,NA,NA,NA,NA,fixation,NA,NA,NA,NA,NA,NA,sub94
d3-animate-choice,255,952958,0.0-76.0-0.40,FALSE,FALSE,TRUE,TRUE,"""event"",""trial"",""time""
""fullscreenenter"",""5"",""27391""
","
","
","""event"",""trial"",""time""
""fullscreenenter"",""5"",""27391""
","
",409.3099999881815,NA,49,NA,NA,3000,1,NA,NA,images/earth.jpg,images/rocket1,images/rocket2,null,images/rocket2,NA,1,real,null,1,NA,NA,NA,sub94
d3-animate-choice,256,955402,0.0-76.0-1.40,FALSE,FALSE,TRUE,TRUE,"""event"",""trial"",""time""
""fullscreenenter"",""5"",""27391""
","
","
","""event"",""trial"",""time""
""fullscreenenter"",""5"",""27391""
","
",437.9449999833014,NA,49,NA,NA,3000,1,NA,NA,images/redplanet1.jpg,images/alien2,images/alien1,images/rocket2,images/alien1,images/t.png,2,real,true,1,common,1,2020-07-06T19:01:55Z,sub94
two-step-fixation,257,956407,0.0-76.0-2.40,FALSE,FALSE,TRUE,TRUE,"""event"",""trial"",""time""
""fullscreenenter"",""5"",""27391""
","
","
","""event"",""trial"",""time""
""fullscreenenter"",""5"",""27391""
","
",NA,images/earth.jpg,NA,NA,NA,NA,NA,NA,NA,NA,NA,NA,NA,NA,NA,fixation,NA,NA,NA,NA,NA,NA,sub94
d3-animate-choice,258,959041,0.0-76.0-0.41,FALSE,FALSE,TRUE,TRUE,"""event"",""trial"",""time""
""fullscreenenter"",""5"",""27391""
","
","
","""event"",""trial"",""time""
""fullscreenenter"",""5"",""27391""
","
",628.5349999961909,NA,49,NA,NA,3000,1,NA,NA,images/earth.jpg,images/rocket1,images/rocket2,null,images/rocket2,NA,1,real,null,1,NA,NA,NA,sub94
d3-animate-choice,259,961554,0.0-76.0-1.41,FALSE,FALSE,TRUE,TRUE,"""event"",""trial"",""time""
""fullscreenenter"",""5"",""27391""
","
","
","""event"",""trial"",""time""
""fullscreenenter"",""5"",""27391""
","
",506.98999999440275,NA,49,NA,NA,3000,1,NA,NA,images/redplanet1.jpg,images/alien2,images/alien1,images/rocket2,images/alien1,images/t.png,2,real,true,1,common,1,2020-07-06T19:02:01Z,sub94
two-step-fixation,260,962559,0.0-76.0-2.41,FALSE,FALSE,TRUE,TRUE,"""event"",""trial"",""time""
""fullscreenenter"",""5"",""27391""
","
","
","""event"",""trial"",""time""
""fullscreenenter"",""5"",""27391""
","
",NA,images/earth.jpg,NA,NA,NA,NA,NA,NA,NA,NA,NA,NA,NA,NA,NA,fixation,NA,NA,NA,NA,NA,NA,sub94
d3-animate-choice,261,964842,0.0-76.0-0.42,FALSE,FALSE,TRUE,TRUE,"""event"",""trial"",""time""
""fullscreenenter"",""5"",""27391""
","
","
","""event"",""trial"",""time""
""fullscreenenter"",""5"",""27391""
","
",276.2749999819789,NA,49,NA,NA,3000,1,NA,NA,images/earth.jpg,images/rocket1,images/rocket2,null,images/rocket2,NA,1,real,null,1,NA,NA,NA,sub94
d3-animate-choice,262,967392,0.0-76.0-1.42,FALSE,FALSE,TRUE,TRUE,"""event"",""trial"",""time""
""fullscreenenter"",""5"",""27391""
","
","
","""event"",""trial"",""time""
""fullscreenenter"",""5"",""27391""
","
",544.1250000149012,NA,49,NA,NA,3000,1,NA,NA,images/redplanet1.jpg,images/alien2,images/alien1,images/rocket2,images/alien1,images/t.png,2,real,true,1,common,1,2020-07-06T19:02:07Z,sub94
two-step-fixation,263,968397,0.0-76.0-2.42,FALSE,FALSE,TRUE,TRUE,"""event"",""trial"",""time""
""fullscreenenter"",""5"",""27391""
","
","
","""event"",""trial"",""time""
""fullscreenenter"",""5"",""27391""
","
",NA,images/earth.jpg,NA,NA,NA,NA,NA,NA,NA,NA,NA,NA,NA,NA,NA,fixation,NA,NA,NA,NA,NA,NA,sub94
d3-animate-choice,264,970790,0.0-76.0-0.43,FALSE,FALSE,TRUE,TRUE,"""event"",""trial"",""time""
""fullscreenenter"",""5"",""27391""
","
","
","""event"",""trial"",""time""
""fullscreenenter"",""5"",""27391""
","
",386.4649999886751,NA,49,NA,NA,3000,1,NA,NA,images/earth.jpg,images/rocket1,images/rocket2,null,images/rocket2,NA,1,real,null,1,NA,NA,NA,sub94
d3-animate-choice,265,973384,0.0-76.0-1.43,FALSE,FALSE,TRUE,TRUE,"""event"",""trial"",""time""
""fullscreenenter"",""5"",""27391""
","
","
","""event"",""trial"",""time""
""fullscreenenter"",""5"",""27391""
","
",588.129999989178,NA,49,NA,NA,3000,1,NA,NA,images/redplanet1.jpg,images/alien2,images/alien1,images/rocket2,images/alien1,images/nothing.png,2,real,true,1,common,0,2020-07-06T19:02:13Z,sub94
two-step-fixation,266,974391,0.0-76.0-2.43,FALSE,FALSE,TRUE,TRUE,"""event"",""trial"",""time""
""fullscreenenter"",""5"",""27391""
","
","
","""event"",""trial"",""time""
""fullscreenenter"",""5"",""27391""
","
",NA,images/earth.jpg,NA,NA,NA,NA,NA,NA,NA,NA,NA,NA,NA,NA,NA,fixation,NA,NA,NA,NA,NA,NA,sub94
d3-animate-choice,267,976719,0.0-76.0-0.44,FALSE,FALSE,TRUE,TRUE,"""event"",""trial"",""time""
""fullscreenenter"",""5"",""27391""
","
","
","""event"",""trial"",""time""
""fullscreenenter"",""5"",""27391""
","
",321.8449999985751,NA,49,NA,NA,3000,1,NA,NA,images/earth.jpg,images/rocket1,images/rocket2,null,images/rocket2,NA,1,real,null,1,NA,NA,NA,sub94
d3-animate-choice,268,979033,0.0-76.0-1.44,FALSE,FALSE,TRUE,TRUE,"""event"",""trial"",""time""
""fullscreenenter"",""5"",""27391""
","
","
","""event"",""trial"",""time""
""fullscreenenter"",""5"",""27391""
","
",307.19500000122935,NA,49,NA,NA,3000,1,NA,NA,images/redplanet1.jpg,images/alien2,images/alien1,images/rocket2,images/alien1,images/t.png,2,real,true,1,common,1,2020-07-06T19:02:19Z,sub94
two-step-fixation,269,980036,0.0-76.0-2.44,FALSE,FALSE,TRUE,TRUE,"""event"",""trial"",""time""
""fullscreenenter"",""5"",""27391""
","
","
","""event"",""trial"",""time""
""fullscreenenter"",""5"",""27391""
","
",NA,images/earth.jpg,NA,NA,NA,NA,NA,NA,NA,NA,NA,NA,NA,NA,NA,fixation,NA,NA,NA,NA,NA,NA,sub94
d3-animate-choice,270,982415,0.0-76.0-0.45,FALSE,FALSE,TRUE,TRUE,"""event"",""trial"",""time""
""fullscreenenter"",""5"",""27391""
","
","
","""event"",""trial"",""time""
""fullscreenenter"",""5"",""27391""
","
",373.84999997448176,NA,49,NA,NA,3000,1,NA,NA,images/earth.jpg,images/rocket1,images/rocket2,null,images/rocket2,NA,1,real,null,1,NA,NA,NA,sub94
d3-animate-choice,271,984743,0.0-76.0-1.45,FALSE,FALSE,TRUE,TRUE,"""event"",""trial"",""time""
""fullscreenenter"",""5"",""27391""
","
","
","""event"",""trial"",""time""
""fullscreenenter"",""5"",""27391""
","
",323.34000000264496,NA,49,NA,NA,3000,1,NA,NA,images/redplanet1.jpg,images/alien2,images/alien1,images/rocket2,images/alien1,images/nothing.png,2,real,true,1,common,0,2020-07-06T19:02:24Z,sub94
two-step-fixation,272,985750,0.0-76.0-2.45,FALSE,FALSE,TRUE,TRUE,"""event"",""trial"",""time""
""fullscreenenter"",""5"",""27391""
","
","
","""event"",""trial"",""time""
""fullscreenenter"",""5"",""27391""
","
",NA,images/earth.jpg,NA,NA,NA,NA,NA,NA,NA,NA,NA,NA,NA,NA,NA,fixation,NA,NA,NA,NA,NA,NA,sub94
d3-animate-choice,273,988173,0.0-76.0-0.46,FALSE,FALSE,TRUE,TRUE,"""event"",""trial"",""time""
""fullscreenenter"",""5"",""27391""
","
","
","""event"",""trial"",""time""
""fullscreenenter"",""5"",""27391""
","
",416.80999999516644,NA,49,NA,NA,3000,1,NA,NA,images/earth.jpg,images/rocket1,images/rocket2,null,images/rocket2,NA,1,real,null,1,NA,NA,NA,sub94
d3-animate-choice,274,990559,0.0-76.0-1.46,FALSE,FALSE,TRUE,TRUE,"""event"",""trial"",""time""
""fullscreenenter"",""5"",""27391""
","
","
","""event"",""trial"",""time""
""fullscreenenter"",""5"",""27391""
","
",380.94999999157153,NA,49,NA,NA,3000,1,NA,NA,images/redplanet1.jpg,images/alien2,images/alien1,images/rocket2,images/alien1,images/t.png,2,real,true,1,common,1,2020-07-06T19:02:30Z,sub94
two-step-fixation,275,991563,0.0-76.0-2.46,FALSE,FALSE,TRUE,TRUE,"""event"",""trial"",""time""
""fullscreenenter"",""5"",""27391""
","
","
","""event"",""trial"",""time""
""fullscreenenter"",""5"",""27391""
","
",NA,images/earth.jpg,NA,NA,NA,NA,NA,NA,NA,NA,NA,NA,NA,NA,NA,fixation,NA,NA,NA,NA,NA,NA,sub94
d3-animate-choice,276,994053,0.0-76.0-0.47,FALSE,FALSE,TRUE,TRUE,"""event"",""trial"",""time""
""fullscreenenter"",""5"",""27391""
","
","
","""event"",""trial"",""time""
""fullscreenenter"",""5"",""27391""
","
",483.2600000081584,NA,49,NA,NA,3000,1,NA,NA,images/earth.jpg,images/rocket1,images/rocket2,null,images/rocket2,NA,1,real,null,1,NA,NA,NA,sub94
d3-animate-choice,277,996914,0.0-76.0-1.47,FALSE,FALSE,TRUE,TRUE,"""event"",""trial"",""time""
""fullscreenenter"",""5"",""27391""
","
","
","""event"",""trial"",""time""
""fullscreenenter"",""5"",""27391""
","
",853.995000012219,NA,49,NA,NA,3000,1,NA,NA,images/purpleplanet.jpg,images/alien4,images/alien3,images/rocket2,images/alien3,images/nothing.png,2,real,false,1,rare,0,2020-07-06T19:02:37Z,sub94
two-step-fixation,278,997919,0.0-76.0-2.47,FALSE,FALSE,TRUE,TRUE,"""event"",""trial"",""time""
""fullscreenenter"",""5"",""27391""
","
","
","""event"",""trial"",""time""
""fullscreenenter"",""5"",""27391""
","
",NA,images/earth.jpg,NA,NA,NA,NA,NA,NA,NA,NA,NA,NA,NA,NA,NA,fixation,NA,NA,NA,NA,NA,NA,sub94
d3-animate-choice,279,1000284,0.0-76.0-0.48,FALSE,FALSE,TRUE,TRUE,"""event"",""trial"",""time""
""fullscreenenter"",""5"",""27391""
","
","
","""event"",""trial"",""time""
""fullscreenenter"",""5"",""27391""
","
",358.7249999982305,NA,49,NA,NA,3000,1,NA,NA,images/earth.jpg,images/rocket1,images/rocket2,null,images/rocket2,NA,1,real,null,1,NA,NA,NA,sub94
d3-animate-choice,280,1002848,0.0-76.0-1.48,FALSE,FALSE,TRUE,TRUE,"""event"",""trial"",""time""
""fullscreenenter"",""5"",""27391""
","
","
","""event"",""trial"",""time""
""fullscreenenter"",""5"",""27391""
","
",557.3250000015832,NA,49,NA,NA,3000,1,NA,NA,images/redplanet1.jpg,images/alien2,images/alien1,images/rocket2,images/alien1,images/t.png,2,real,true,1,common,1,2020-07-06T19:02:43Z,sub94
two-step-fixation,281,1003853,0.0-76.0-2.48,FALSE,FALSE,TRUE,TRUE,"""event"",""trial"",""time""
""fullscreenenter"",""5"",""27391""
","
","
","""event"",""trial"",""time""
""fullscreenenter"",""5"",""27391""
","
",NA,images/earth.jpg,NA,NA,NA,NA,NA,NA,NA,NA,NA,NA,NA,NA,NA,fixation,NA,NA,NA,NA,NA,NA,sub94
d3-animate-choice,282,1006264,0.0-76.0-0.49,FALSE,FALSE,TRUE,TRUE,"""event"",""trial"",""time""
""fullscreenenter"",""5"",""27391""
","
","
","""event"",""trial"",""time""
""fullscreenenter"",""5"",""27391""
","
",403.1900000118185,NA,49,NA,NA,3000,1,NA,NA,images/earth.jpg,images/rocket1,images/rocket2,null,images/rocket2,NA,1,real,null,1,NA,NA,NA,sub94
d3-animate-choice,283,1008680,0.0-76.0-1.49,FALSE,FALSE,TRUE,TRUE,"""event"",""trial"",""time""
""fullscreenenter"",""5"",""27391""
","
","
","""event"",""trial"",""time""
""fullscreenenter"",""5"",""27391""
","
