trial_type,trial_index,time_elapsed,internal_node_id,rocket_sides,red_planet_first_rocket,red_display_order,purple_display_order,interactions,blur_events,focus_events,fullscreenenter_events,fullscreenexit_events,rt,stimulus,key_press,button_pressed,success,duration,valid_pressed,rts,keys,planet_text,right_text,left_text,center_text,chosen_text,reward_text,trial_stage,practice_trial,transition_type,choice,transition,reward,timestamp,subject_id
pavlovia,0,6,0.0-0.0,TRUE,FALSE,TRUE,TRUE,"
","
","
","
","
",NA,NA,NA,NA,NA,NA,NA,NA,NA,NA,NA,NA,NA,NA,NA,NA,NA,NA,NA,NA,NA,NA,sub48
html-keyboard-response,1,1414,0.0-1.0,TRUE,FALSE,TRUE,TRUE,"
","
","
","
","
",1406.6999999340624,Welcome! Press the space bar to begin.,32,NA,NA,NA,NA,NA,NA,NA,NA,NA,NA,NA,NA,NA,NA,NA,NA,NA,NA,NA,sub48
audio-keyboard-response,2,5376,0.0-2.0,TRUE,FALSE,TRUE,TRUE,"
","
","
","
","
",3960,audio/beep_loop.wav,32,NA,NA,NA,NA,NA,NA,NA,NA,NA,NA,NA,NA,NA,NA,NA,NA,NA,NA,NA,sub48
audio-button-response,3,8739,0.0-3.0,TRUE,FALSE,TRUE,TRUE,"
","
","
","
","
",NaN,audio/fish.mp3,NA,1,NA,NA,NA,NA,NA,NA,NA,NA,NA,NA,NA,NA,NA,NA,NA,NA,NA,NA,sub48
audio-button-response,4,11763,0.0-4.0,TRUE,FALSE,TRUE,TRUE,"""event"",""trial"",""time""
""fullscreenenter"",""5"",""15550""
","
","
","""event"",""trial"",""time""
""fullscreenenter"",""5"",""15550""
","
",NaN,audio/tiger.mp3,NA,4,NA,NA,NA,NA,NA,NA,NA,NA,NA,NA,NA,NA,NA,NA,NA,NA,NA,NA,sub48
fullscreen,5,16536,0.0-5.0,TRUE,FALSE,TRUE,TRUE,"""event"",""trial"",""time""
""fullscreenenter"",""5"",""15550""
","
","
","""event"",""trial"",""time""
""fullscreenenter"",""5"",""15550""
","
",NA,NA,NA,NA,TRUE,NA,NA,NA,NA,NA,NA,NA,NA,NA,NA,NA,NA,NA,NA,NA,NA,NA,sub48
d3-instructions,6,35990,0.0-6.0,TRUE,FALSE,TRUE,TRUE,"""event"",""trial"",""time""
""fullscreenenter"",""5"",""15550""
","
","
","""event"",""trial"",""time""
""fullscreenenter"",""5"",""15550""
","
",NA,NA,NA,NA,NA,NA,NA,NA,NA,NA,NA,NA,NA,NA,NA,NA,NA,NA,NA,NA,NA,NA,sub48
d3-instructions,7,45149,0.0-7.0,TRUE,FALSE,TRUE,TRUE,"""event"",""trial"",""time""
""fullscreenenter"",""5"",""15550""
","
","
","""event"",""trial"",""time""
""fullscreenenter"",""5"",""15550""
","
",NA,NA,NA,NA,NA,NA,NA,NA,NA,NA,NA,NA,NA,NA,NA,NA,NA,NA,NA,NA,NA,NA,sub48
d3-instructions,8,52561,0.0-8.0,TRUE,FALSE,TRUE,TRUE,"""event"",""trial"",""time""
""fullscreenenter"",""5"",""15550""
","
","
","""event"",""trial"",""time""
""fullscreenenter"",""5"",""15550""
","
",NA,NA,NA,NA,NA,NA,NA,NA,NA,NA,NA,NA,NA,NA,NA,NA,NA,NA,NA,NA,NA,NA,sub48
d3-instructions,9,63873,0.0-9.0,TRUE,FALSE,TRUE,TRUE,"""event"",""trial"",""time""
""fullscreenenter"",""5"",""15550""
","
","
","""event"",""trial"",""time""
""fullscreenenter"",""5"",""15550""
","
",NA,NA,NA,NA,NA,NA,NA,NA,NA,NA,NA,NA,NA,NA,NA,NA,NA,NA,NA,NA,NA,NA,sub48
d3-instructions,10,81677,0.0-10.0,TRUE,FALSE,TRUE,TRUE,"""event"",""trial"",""time""
""fullscreenenter"",""5"",""15550""
","
","
","""event"",""trial"",""time""
""fullscreenenter"",""5"",""15550""
","
",NA,NA,NA,NA,NA,NA,NA,NA,NA,NA,NA,NA,NA,NA,NA,NA,NA,NA,NA,NA,NA,NA,sub48
d3-animate-choice,11,87541,0.0-11.0,TRUE,FALSE,TRUE,TRUE,"""event"",""trial"",""time""
""fullscreenenter"",""5"",""15550""
","
","
","""event"",""trial"",""time""
""fullscreenenter"",""5"",""15550""
","
",3847.6599999703467,NA,49,NA,NA,3000,1,NA,NA,images/tutgreenplanet.jpg,images/tutalien1,images/tutalien2,null,images/tutalien2,NA,NA,practice,null,NA,NA,NA,NA,sub48
d3-animate-choice,12,90543,0.0-12.0,TRUE,FALSE,TRUE,TRUE,"""event"",""trial"",""time""
""fullscreenenter"",""5"",""15550""
","
","
","""event"",""trial"",""time""
""fullscreenenter"",""5"",""15550""
","
",981.9799999240786,NA,48,NA,NA,3000,1,NA,NA,images/tutgreenplanet.jpg,images/tutalien1,images/tutalien2,null,images/tutalien1,NA,NA,practice,null,NA,NA,NA,NA,sub48
d3-animate-choice,13,93393,0.0-13.0,TRUE,FALSE,TRUE,TRUE,"""event"",""trial"",""time""
""fullscreenenter"",""5"",""15550""
","
","
","""event"",""trial"",""time""
""fullscreenenter"",""5"",""15550""
","
",840.9400000236928,NA,49,NA,NA,3000,1,NA,NA,images/tutgreenplanet.jpg,images/tutalien1,images/tutalien2,null,images/tutalien2,NA,NA,practice,null,NA,NA,NA,NA,sub48
d3-animate-choice,14,95933,0.0-14.0,TRUE,FALSE,TRUE,TRUE,"""event"",""trial"",""time""
""fullscreenenter"",""5"",""15550""
","
","
","""event"",""trial"",""time""
""fullscreenenter"",""5"",""15550""
","
",534.0899999719113,NA,48,NA,NA,3000,1,NA,NA,images/tutgreenplanet.jpg,images/tutalien1,images/tutalien2,null,images/tutalien1,NA,NA,practice,null,NA,NA,NA,NA,sub48
d3-instructions,15,103361,0.0-15.0,TRUE,FALSE,TRUE,TRUE,"""event"",""trial"",""time""
""fullscreenenter"",""5"",""15550""
","
","
","""event"",""trial"",""time""
""fullscreenenter"",""5"",""15550""
","
",NA,NA,NA,NA,NA,NA,NA,NA,NA,NA,NA,NA,NA,NA,NA,NA,NA,NA,NA,NA,NA,NA,sub48
d3-instructions,16,111545,0.0-16.0,TRUE,FALSE,TRUE,TRUE,"""event"",""trial"",""time""
""fullscreenenter"",""5"",""15550""
","
","
","""event"",""trial"",""time""
""fullscreenenter"",""5"",""15550""
","
",NA,NA,NA,NA,NA,NA,NA,NA,NA,NA,NA,NA,NA,NA,NA,NA,NA,NA,NA,NA,NA,NA,sub48
d3-instructions,17,120875,0.0-17.0,TRUE,FALSE,TRUE,TRUE,"""event"",""trial"",""time""
""fullscreenenter"",""5"",""15550""
","
","
","""event"",""trial"",""time""
""fullscreenenter"",""5"",""15550""
","
",NA,NA,NA,NA,NA,NA,NA,NA,NA,NA,NA,NA,NA,NA,NA,NA,NA,NA,NA,NA,NA,NA,sub48
d3-instructions,18,134432,0.0-18.0,TRUE,FALSE,TRUE,TRUE,"""event"",""trial"",""time""
""fullscreenenter"",""5"",""15550""
","
","
","""event"",""trial"",""time""
""fullscreenenter"",""5"",""15550""
","
",NA,NA,NA,NA,NA,NA,NA,NA,NA,NA,NA,NA,NA,NA,NA,NA,NA,NA,NA,NA,NA,NA,sub48
d3-instructions,19,147708,0.0-19.0,TRUE,FALSE,TRUE,TRUE,"""event"",""trial"",""time""
""fullscreenenter"",""5"",""15550""
","
","
","""event"",""trial"",""time""
""fullscreenenter"",""5"",""15550""
","
",NA,NA,NA,NA,NA,NA,NA,NA,NA,NA,NA,NA,NA,NA,NA,NA,NA,NA,NA,NA,NA,NA,sub48
d3-animate-choice,20,150354,0.0-20.0,TRUE,FALSE,TRUE,TRUE,"""event"",""trial"",""time""
""fullscreenenter"",""5"",""15550""
","
","
","""event"",""trial"",""time""
""fullscreenenter"",""5"",""15550""
","
",624.2599999532104,NA,49,NA,NA,3000,1,NA,NA,images/tutyellowplanet.jpg,null,images/tutalien3,null,images/tutalien3,images/t.png,NA,practice,null,NA,NA,NA,NA,sub48
d3-animate-choice,21,152764,0.0-21.0,TRUE,FALSE,TRUE,TRUE,"""event"",""trial"",""time""
""fullscreenenter"",""5"",""15550""
","
","
","""event"",""trial"",""time""
""fullscreenenter"",""5"",""15550""
","
",389.324999996461,NA,49,NA,NA,3000,1,NA,NA,images/tutyellowplanet.jpg,null,images/tutalien3,null,images/tutalien3,images/t.png,NA,practice,null,NA,NA,NA,NA,sub48
d3-animate-choice,22,155049,0.0-22.0,TRUE,FALSE,TRUE,TRUE,"""event"",""trial"",""time""
""fullscreenenter"",""5"",""15550""
","
","
","""event"",""trial"",""time""
""fullscreenenter"",""5"",""15550""
","
",282.0449999999255,NA,49,NA,NA,3000,1,NA,NA,images/tutyellowplanet.jpg,null,images/tutalien3,null,images/tutalien3,images/t.png,NA,practice,null,NA,NA,NA,NA,sub48
d3-animate-choice,23,157311,0.0-23.0,TRUE,FALSE,TRUE,TRUE,"""event"",""trial"",""time""
""fullscreenenter"",""5"",""15550""
","
","
","""event"",""trial"",""time""
""fullscreenenter"",""5"",""15550""
","
",259.70000005327165,NA,49,NA,NA,3000,1,NA,NA,images/tutyellowplanet.jpg,null,images/tutalien3,null,images/tutalien3,images/t.png,NA,practice,null,NA,NA,NA,NA,sub48
d3-animate-choice,24,159564,0.0-24.0,TRUE,FALSE,TRUE,TRUE,"""event"",""trial"",""time""
""fullscreenenter"",""5"",""15550""
","
","
","""event"",""trial"",""time""
""fullscreenenter"",""5"",""15550""
","
",234.46000006515533,NA,49,NA,NA,3000,1,NA,NA,images/tutyellowplanet.jpg,null,images/tutalien3,null,images/tutalien3,images/t.png,NA,practice,null,NA,NA,NA,NA,sub48
d3-animate-choice,25,161830,0.0-25.0,TRUE,FALSE,TRUE,TRUE,"""event"",""trial"",""time""
""fullscreenenter"",""5"",""15550""
","
","
","""event"",""trial"",""time""
""fullscreenenter"",""5"",""15550""
","
",260.1649999851361,NA,49,NA,NA,3000,1,NA,NA,images/tutyellowplanet.jpg,null,images/tutalien3,null,images/tutalien3,images/t.png,NA,practice,null,NA,NA,NA,NA,sub48
d3-animate-choice,26,164113,0.0-26.0,TRUE,FALSE,TRUE,TRUE,"""event"",""trial"",""time""
""fullscreenenter"",""5"",""15550""
","
","
","""event"",""trial"",""time""
""fullscreenenter"",""5"",""15550""
","
",279.02500005438924,NA,49,NA,NA,3000,1,NA,NA,images/tutyellowplanet.jpg,null,images/tutalien3,null,images/tutalien3,images/t.png,NA,practice,null,NA,NA,NA,NA,sub48
d3-animate-choice,27,166464,0.0-27.0,TRUE,FALSE,TRUE,TRUE,"""event"",""trial"",""time""
""fullscreenenter"",""5"",""15550""
","
","
","""event"",""trial"",""time""
""fullscreenenter"",""5"",""15550""
","
",344.52499996405095,NA,49,NA,NA,3000,1,NA,NA,images/tutyellowplanet.jpg,null,images/tutalien3,null,images/tutalien3,images/t.png,NA,practice,null,NA,NA,NA,NA,sub48
d3-animate-choice,28,168588,0.0-28.0,TRUE,FALSE,TRUE,TRUE,"""event"",""trial"",""time""
""fullscreenenter"",""5"",""15550""
","
","
","""event"",""trial"",""time""
""fullscreenenter"",""5"",""15550""
","
",121.60499999299645,NA,49,NA,NA,3000,1,NA,NA,images/tutyellowplanet.jpg,null,images/tutalien3,null,images/tutalien3,images/t.png,NA,practice,null,NA,NA,NA,NA,sub48
d3-animate-choice,29,170933,0.0-29.0,TRUE,FALSE,TRUE,TRUE,"""event"",""trial"",""time""
""fullscreenenter"",""5"",""15550""
","
","
","""event"",""trial"",""time""
""fullscreenenter"",""5"",""15550""
","
",338.20999995805323,NA,49,NA,NA,3000,1,NA,NA,images/tutyellowplanet.jpg,null,images/tutalien3,null,images/tutalien3,images/t.png,NA,practice,null,NA,NA,NA,NA,sub48
d3-instructions,30,180123,0.0-30.0,TRUE,FALSE,TRUE,TRUE,"""event"",""trial"",""time""
""fullscreenenter"",""5"",""15550""
","
","
","""event"",""trial"",""time""
""fullscreenenter"",""5"",""15550""
","
",NA,NA,NA,NA,NA,NA,NA,NA,NA,NA,NA,NA,NA,NA,NA,NA,NA,NA,NA,NA,NA,NA,sub48
d3-instructions,31,191270,0.0-31.0,TRUE,FALSE,TRUE,TRUE,"""event"",""trial"",""time""
""fullscreenenter"",""5"",""15550""
","
","
","""event"",""trial"",""time""
""fullscreenenter"",""5"",""15550""
","
",NA,NA,NA,NA,NA,NA,NA,NA,NA,NA,NA,NA,NA,NA,NA,NA,NA,NA,NA,NA,NA,NA,sub48
d3-instructions,32,200379,0.0-32.0,TRUE,FALSE,TRUE,TRUE,"""event"",""trial"",""time""
""fullscreenenter"",""5"",""15550""
","
","
","""event"",""trial"",""time""
""fullscreenenter"",""5"",""15550""
","
",NA,NA,NA,NA,NA,NA,NA,NA,NA,NA,NA,NA,NA,NA,NA,NA,NA,NA,NA,NA,NA,NA,sub48
d3-instructions,33,212820,0.0-33.0,TRUE,FALSE,TRUE,TRUE,"""event"",""trial"",""time""
""fullscreenenter"",""5"",""15550""
","
","
","""event"",""trial"",""time""
""fullscreenenter"",""5"",""15550""
","
",NA,NA,NA,NA,NA,NA,NA,NA,NA,NA,NA,NA,NA,NA,NA,NA,NA,NA,NA,NA,NA,NA,sub48
d3-animate-choice,34,217312,0.0-34.0,TRUE,FALSE,TRUE,TRUE,"""event"",""trial"",""time""
""fullscreenenter"",""5"",""15550""
","
","
","""event"",""trial"",""time""
""fullscreenenter"",""5"",""15550""
","
",2489.1800000332296,NA,49,NA,NA,3000,1,NA,NA,images/tutgreenplanet.jpg,images/tutalien1,images/tutalien2,null,images/tutalien2,images/t.png,NA,practice,null,NA,NA,NA,NA,sub48
d3-animate-choice,35,219914,0.0-35.0,TRUE,FALSE,TRUE,TRUE,"""event"",""trial"",""time""
""fullscreenenter"",""5"",""15550""
","
","
","""event"",""trial"",""time""
""fullscreenenter"",""5"",""15550""
","
",598.009999957867,NA,49,NA,NA,3000,1,NA,NA,images/tutgreenplanet.jpg,images/tutalien1,images/tutalien2,null,images/tutalien2,images/t.png,NA,practice,null,NA,NA,NA,NA,sub48
d3-animate-choice,36,222184,0.0-36.0,TRUE,FALSE,TRUE,TRUE,"""event"",""trial"",""time""
""fullscreenenter"",""5"",""15550""
","
","
","""event"",""trial"",""time""
""fullscreenenter"",""5"",""15550""
","
",254.7749999212101,NA,49,NA,NA,3000,1,NA,NA,images/tutgreenplanet.jpg,images/tutalien1,images/tutalien2,null,images/tutalien2,images/t.png,NA,practice,null,NA,NA,NA,NA,sub48
d3-animate-choice,37,224463,0.0-37.0,TRUE,FALSE,TRUE,TRUE,"""event"",""trial"",""time""
""fullscreenenter"",""5"",""15550""
","
","
","""event"",""trial"",""time""
""fullscreenenter"",""5"",""15550""
","
",272.50500000081956,NA,48,NA,NA,3000,1,NA,NA,images/tutgreenplanet.jpg,images/tutalien1,images/tutalien2,null,images/tutalien1,images/nothing.png,NA,practice,null,NA,NA,NA,NA,sub48
d3-animate-choice,38,226714,0.0-38.0,TRUE,FALSE,TRUE,TRUE,"""event"",""trial"",""time""
""fullscreenenter"",""5"",""15550""
","
","
","""event"",""trial"",""time""
""fullscreenenter"",""5"",""15550""
","
",237.92999994475394,NA,49,NA,NA,3000,1,NA,NA,images/tutgreenplanet.jpg,images/tutalien1,images/tutalien2,null,images/tutalien2,images/t.png,NA,practice,null,NA,NA,NA,NA,sub48
d3-animate-choice,39,229074,0.0-39.0,TRUE,FALSE,TRUE,TRUE,"""event"",""trial"",""time""
""fullscreenenter"",""5"",""15550""
","
","
","""event"",""trial"",""time""
""fullscreenenter"",""5"",""15550""
","
",350.1549999928102,NA,49,NA,NA,3000,1,NA,NA,images/tutgreenplanet.jpg,images/tutalien1,images/tutalien2,null,images/tutalien2,images/t.png,NA,practice,null,NA,NA,NA,NA,sub48
d3-animate-choice,40,231353,0.0-40.0,TRUE,FALSE,TRUE,TRUE,"""event"",""trial"",""time""
""fullscreenenter"",""5"",""15550""
","
","
","""event"",""trial"",""time""
""fullscreenenter"",""5"",""15550""
","
",273.3799999114126,NA,49,NA,NA,3000,1,NA,NA,images/tutgreenplanet.jpg,images/tutalien1,images/tutalien2,null,images/tutalien2,images/nothing.png,NA,practice,null,NA,NA,NA,NA,sub48
d3-animate-choice,41,233604,0.0-41.0,TRUE,FALSE,TRUE,TRUE,"""event"",""trial"",""time""
""fullscreenenter"",""5"",""15550""
","
","
","""event"",""trial"",""time""
""fullscreenenter"",""5"",""15550""
","
",243.2099999859929,NA,49,NA,NA,3000,1,NA,NA,images/tutgreenplanet.jpg,images/tutalien1,images/tutalien2,null,images/tutalien2,images/t.png,NA,practice,null,NA,NA,NA,NA,sub48
d3-animate-choice,42,235893,0.0-42.0,TRUE,FALSE,TRUE,TRUE,"""event"",""trial"",""time""
""fullscreenenter"",""5"",""15550""
","
","
","""event"",""trial"",""time""
""fullscreenenter"",""5"",""15550""
","
",279.43500003311783,NA,48,NA,NA,3000,1,NA,NA,images/tutgreenplanet.jpg,images/tutalien1,images/tutalien2,null,images/tutalien1,images/nothing.png,NA,practice,null,NA,NA,NA,NA,sub48
d3-animate-choice,43,238174,0.0-43.0,TRUE,FALSE,TRUE,TRUE,"""event"",""trial"",""time""
""fullscreenenter"",""5"",""15550""
","
","
","""event"",""trial"",""time""
""fullscreenenter"",""5"",""15550""
","
",266.2549999076873,NA,49,NA,NA,3000,1,NA,NA,images/tutgreenplanet.jpg,images/tutalien1,images/tutalien2,null,images/tutalien2,images/t.png,NA,practice,null,NA,NA,NA,NA,sub48
d3-instructions,44,253048,0.0-44.0,TRUE,FALSE,TRUE,TRUE,"""event"",""trial"",""time""
""fullscreenenter"",""5"",""15550""
","
","
","""event"",""trial"",""time""
""fullscreenenter"",""5"",""15550""
","
",NA,NA,NA,NA,NA,NA,NA,NA,NA,NA,NA,NA,NA,NA,NA,NA,NA,NA,NA,NA,NA,NA,sub48
d3-instructions,45,259759,0.0-45.0,TRUE,FALSE,TRUE,TRUE,"""event"",""trial"",""time""
""fullscreenenter"",""5"",""15550""
","
","
","""event"",""trial"",""time""
""fullscreenenter"",""5"",""15550""
","
",NA,NA,NA,NA,NA,NA,NA,NA,NA,NA,NA,NA,NA,NA,NA,NA,NA,NA,NA,NA,NA,NA,sub48
d3-instructions,46,265372,0.0-46.0,TRUE,FALSE,TRUE,TRUE,"""event"",""trial"",""time""
""fullscreenenter"",""5"",""15550""
","
","
","""event"",""trial"",""time""
""fullscreenenter"",""5"",""15550""
","
",NA,NA,NA,NA,NA,NA,NA,NA,NA,NA,NA,NA,NA,NA,NA,NA,NA,NA,NA,NA,NA,NA,sub48
d3-instructions,47,282563,0.0-47.0,TRUE,FALSE,TRUE,TRUE,"""event"",""trial"",""time""
""fullscreenenter"",""5"",""15550""
","
","
","""event"",""trial"",""time""
""fullscreenenter"",""5"",""15550""
","
",NA,NA,NA,NA,NA,NA,NA,NA,NA,NA,NA,NA,NA,NA,NA,NA,NA,NA,NA,NA,NA,NA,sub48
d3-instructions,48,289475,0.0-48.0,TRUE,FALSE,TRUE,TRUE,"""event"",""trial"",""time""
""fullscreenenter"",""5"",""15550""
","
","
","""event"",""trial"",""time""
""fullscreenenter"",""5"",""15550""
","
",NA,NA,NA,NA,NA,NA,NA,NA,NA,NA,NA,NA,NA,NA,NA,NA,NA,NA,NA,NA,NA,NA,sub48
d3-instructions,49,300908,0.0-49.0,TRUE,FALSE,TRUE,TRUE,"""event"",""trial"",""time""
""fullscreenenter"",""5"",""15550""
","
","
","""event"",""trial"",""time""
""fullscreenenter"",""5"",""15550""
","
",NA,NA,NA,NA,NA,NA,NA,NA,NA,NA,NA,NA,NA,NA,NA,NA,NA,NA,NA,NA,NA,NA,sub48
d3-instructions,50,309881,0.0-50.0,TRUE,FALSE,TRUE,TRUE,"""event"",""trial"",""time""
""fullscreenenter"",""5"",""15550""
","
","
","""event"",""trial"",""time""
""fullscreenenter"",""5"",""15550""
","
",NA,NA,NA,NA,NA,NA,NA,NA,NA,NA,NA,NA,NA,NA,NA,NA,NA,NA,NA,NA,NA,NA,sub48
d3-instructions,51,312689,0.0-51.0,TRUE,FALSE,TRUE,TRUE,"""event"",""trial"",""time""
""fullscreenenter"",""5"",""15550""
","
","
","""event"",""trial"",""time""
""fullscreenenter"",""5"",""15550""
","
",NA,NA,NA,NA,NA,NA,NA,NA,NA,NA,NA,NA,NA,NA,NA,NA,NA,NA,NA,NA,NA,NA,sub48
d3-instructions,52,315619,0.0-52.0,TRUE,FALSE,TRUE,TRUE,"""event"",""trial"",""time""
""fullscreenenter"",""5"",""15550""
","
","
","""event"",""trial"",""time""
""fullscreenenter"",""5"",""15550""
","
",NA,NA,NA,NA,NA,NA,NA,NA,NA,NA,NA,NA,NA,NA,NA,NA,NA,NA,NA,NA,NA,NA,sub48
d3-instructions,53,328831,0.0-53.0,TRUE,FALSE,TRUE,TRUE,"""event"",""trial"",""time""
""fullscreenenter"",""5"",""15550""
","
","
","""event"",""trial"",""time""
""fullscreenenter"",""5"",""15550""
","
",NA,NA,NA,NA,NA,NA,NA,NA,NA,NA,NA,NA,NA,NA,NA,NA,NA,NA,NA,NA,NA,NA,sub48
d3-instructions,54,341388,0.0-54.0,TRUE,FALSE,TRUE,TRUE,"""event"",""trial"",""time""
""fullscreenenter"",""5"",""15550""
","
","
","""event"",""trial"",""time""
""fullscreenenter"",""5"",""15550""
","
",NA,NA,NA,NA,NA,NA,NA,NA,NA,NA,NA,NA,NA,NA,NA,NA,NA,NA,NA,NA,NA,NA,sub48
d3-instructions,55,352293,0.0-55.0,TRUE,FALSE,TRUE,TRUE,"""event"",""trial"",""time""
""fullscreenenter"",""5"",""15550""
","
","
","""event"",""trial"",""time""
""fullscreenenter"",""5"",""15550""
","
",NA,NA,NA,NA,NA,NA,NA,NA,NA,NA,NA,NA,NA,NA,NA,NA,NA,NA,NA,NA,NA,NA,sub48
d3-instructions,56,360780,0.0-56.0,TRUE,FALSE,TRUE,TRUE,"""event"",""trial"",""time""
""fullscreenenter"",""5"",""15550""
","
","
","""event"",""trial"",""time""
""fullscreenenter"",""5"",""15550""
","
",NA,NA,NA,NA,NA,NA,NA,NA,NA,NA,NA,NA,NA,NA,NA,NA,NA,NA,NA,NA,NA,NA,sub48
d3-instructions,57,370789,0.0-57.0,TRUE,FALSE,TRUE,TRUE,"""event"",""trial"",""time""
""fullscreenenter"",""5"",""15550""
","
","
","""event"",""trial"",""time""
""fullscreenenter"",""5"",""15550""
","
",NA,NA,NA,NA,NA,NA,NA,NA,NA,NA,NA,NA,NA,NA,NA,NA,NA,NA,NA,NA,NA,NA,sub48
d3-instructions,58,383060,0.0-58.0,TRUE,FALSE,TRUE,TRUE,"""event"",""trial"",""time""
""fullscreenenter"",""5"",""15550""
","
","
","""event"",""trial"",""time""
""fullscreenenter"",""5"",""15550""
","
",NA,NA,NA,NA,NA,NA,NA,NA,NA,NA,NA,NA,NA,NA,NA,NA,NA,NA,NA,NA,NA,NA,sub48
d3-instructions,59,389143,0.0-59.0,TRUE,FALSE,TRUE,TRUE,"""event"",""trial"",""time""
""fullscreenenter"",""5"",""15550""
","
","
","""event"",""trial"",""time""
""fullscreenenter"",""5"",""15550""
","
",NA,NA,NA,NA,NA,NA,NA,NA,NA,NA,NA,NA,NA,NA,NA,NA,NA,NA,NA,NA,NA,NA,sub48
d3-instructions,60,396138,0.0-60.0,TRUE,FALSE,TRUE,TRUE,"""event"",""trial"",""time""
""fullscreenenter"",""5"",""15550""
","
","
","""event"",""trial"",""time""
""fullscreenenter"",""5"",""15550""
","
",NA,NA,NA,NA,NA,NA,NA,NA,NA,NA,NA,NA,NA,NA,NA,NA,NA,NA,NA,NA,NA,NA,sub48
d3-animate-choice,61,399544,0.0-61.0-0.0,TRUE,FALSE,TRUE,TRUE,"""event"",""trial"",""time""
""fullscreenenter"",""5"",""15550""
","
","
","""event"",""trial"",""time""
""fullscreenenter"",""5"",""15550""
","
",1390.4099999926984,NA,48,NA,NA,3000,1,NA,NA,images/earth.jpg,images/tutrocket2,images/tutrocket1,null,images/tutrocket2,NA,1,practice,null,2,NA,NA,NA,sub48
d3-animate-choice,62,402604,0.0-61.0-1.0,TRUE,FALSE,TRUE,TRUE,"""event"",""trial"",""time""
""fullscreenenter"",""5"",""15550""
","
","
","""event"",""trial"",""time""
""fullscreenenter"",""5"",""15550""
","
",1048.2399999164045,NA,49,NA,NA,3000,1,NA,NA,images/tutgreenplanet.jpg,images/tutalien2,images/tutalien1,images/tutrocket2,images/tutalien1,images/nothing.png,2,practice,true,1,common,0,2020-06-14T20:14:33Z,sub48
two-step-fixation,63,403614,0.0-61.0-2.0,TRUE,FALSE,TRUE,TRUE,"""event"",""trial"",""time""
""fullscreenenter"",""5"",""15550""
","
","
","""event"",""trial"",""time""
""fullscreenenter"",""5"",""15550""
","
",NA,images/earth.jpg,NA,NA,NA,NA,NA,NA,NA,NA,NA,NA,NA,NA,NA,fixation,NA,NA,NA,NA,NA,NA,sub48
d3-animate-choice,64,406172,0.0-61.0-0.1,TRUE,FALSE,TRUE,TRUE,"""event"",""trial"",""time""
""fullscreenenter"",""5"",""15550""
","
","
","""event"",""trial"",""time""
""fullscreenenter"",""5"",""15550""
","
",554.5949999941513,NA,49,NA,NA,3000,1,NA,NA,images/earth.jpg,images/tutrocket2,images/tutrocket1,null,images/tutrocket1,NA,1,practice,null,1,NA,NA,NA,sub48
d3-animate-choice,65,408925,0.0-61.0-1.1,TRUE,FALSE,TRUE,TRUE,"""event"",""trial"",""time""
""fullscreenenter"",""5"",""15550""
","
","
","""event"",""trial"",""time""
""fullscreenenter"",""5"",""15550""
","
",750.2300000051036,NA,48,NA,NA,3000,1,NA,NA,images/tutgreenplanet.jpg,images/tutalien2,images/tutalien1,images/tutrocket1,images/tutalien2,images/nothing.png,2,practice,false,2,rare,0,2020-06-14T20:14:39Z,sub48
two-step-fixation,66,409934,0.0-61.0-2.1,TRUE,FALSE,TRUE,TRUE,"""event"",""trial"",""time""
""fullscreenenter"",""5"",""15550""
","
","
","""event"",""trial"",""time""
""fullscreenenter"",""5"",""15550""
","
",NA,images/earth.jpg,NA,NA,NA,NA,NA,NA,NA,NA,NA,NA,NA,NA,NA,fixation,NA,NA,NA,NA,NA,NA,sub48
d3-animate-choice,67,412364,0.0-61.0-0.2,TRUE,FALSE,TRUE,TRUE,"""event"",""trial"",""time""
""fullscreenenter"",""5"",""15550""
","
","
","""event"",""trial"",""time""
""fullscreenenter"",""5"",""15550""
","
",406.02999995462596,NA,49,NA,NA,3000,1,NA,NA,images/earth.jpg,images/tutrocket2,images/tutrocket1,null,images/tutrocket1,NA,1,practice,null,1,NA,NA,NA,sub48
d3-animate-choice,68,415194,0.0-61.0-1.2,TRUE,FALSE,TRUE,TRUE,"""event"",""trial"",""time""
""fullscreenenter"",""5"",""15550""
","
","
","""event"",""trial"",""time""
""fullscreenenter"",""5"",""15550""
","
",812.7399999648333,NA,48,NA,NA,3000,1,NA,NA,images/tutyellowplanet.jpg,images/tutalien4,images/tutalien3,images/tutrocket1,images/tutalien4,images/nothing.png,2,practice,true,2,common,0,2020-06-14T20:14:46Z,sub48
two-step-fixation,69,416203,0.0-61.0-2.2,TRUE,FALSE,TRUE,TRUE,"""event"",""trial"",""time""
""fullscreenenter"",""5"",""15550""
","
","
","""event"",""trial"",""time""
""fullscreenenter"",""5"",""15550""
","
",NA,images/earth.jpg,NA,NA,NA,NA,NA,NA,NA,NA,NA,NA,NA,NA,NA,fixation,NA,NA,NA,NA,NA,NA,sub48
d3-animate-choice,70,418598,0.0-61.0-0.3,TRUE,FALSE,TRUE,TRUE,"""event"",""trial"",""time""
""fullscreenenter"",""5"",""15550""
","
","
","""event"",""trial"",""time""
""fullscreenenter"",""5"",""15550""
","
",390.5599999707192,NA,49,NA,NA,3000,1,NA,NA,images/earth.jpg,images/tutrocket2,images/tutrocket1,null,images/tutrocket1,NA,1,practice,null,1,NA,NA,NA,sub48
d3-animate-choice,71,420914,0.0-61.0-1.3,TRUE,FALSE,TRUE,TRUE,"""event"",""trial"",""time""
""fullscreenenter"",""5"",""15550""
","
","
","""event"",""trial"",""time""
""fullscreenenter"",""5"",""15550""
","
",294.9849999276921,NA,49,NA,NA,3000,1,NA,NA,images/tutgreenplanet.jpg,images/tutalien2,images/tutalien1,images/tutrocket1,images/tutalien1,images/nothing.png,2,practice,false,1,rare,0,2020-06-14T20:14:51Z,sub48
two-step-fixation,72,421933,0.0-61.0-2.3,TRUE,FALSE,TRUE,TRUE,"""event"",""trial"",""time""
""fullscreenenter"",""5"",""15550""
","
","
","""event"",""trial"",""time""
""fullscreenenter"",""5"",""15550""
","
",NA,images/earth.jpg,NA,NA,NA,NA,NA,NA,NA,NA,NA,NA,NA,NA,NA,fixation,NA,NA,NA,NA,NA,NA,sub48
d3-animate-choice,73,424555,0.0-61.0-0.4,TRUE,FALSE,TRUE,TRUE,"""event"",""trial"",""time""
""fullscreenenter"",""5"",""15550""
","
","
","""event"",""trial"",""time""
""fullscreenenter"",""5"",""15550""
","
",618.819999974221,NA,48,NA,NA,3000,1,NA,NA,images/earth.jpg,images/tutrocket2,images/tutrocket1,null,images/tutrocket2,NA,1,practice,null,2,NA,NA,NA,sub48
d3-animate-choice,74,427075,0.0-61.0-1.4,TRUE,FALSE,TRUE,TRUE,"""event"",""trial"",""time""
""fullscreenenter"",""5"",""15550""
","
","
","""event"",""trial"",""time""
""fullscreenenter"",""5"",""15550""
","
",517.7899999544024,NA,48,NA,NA,3000,1,NA,NA,images/tutyellowplanet.jpg,images/tutalien4,images/tutalien3,images/tutrocket2,images/tutalien4,images/t.png,2,practice,false,2,rare,1,2020-06-14T20:14:58Z,sub48
two-step-fixation,75,428079,0.0-61.0-2.4,TRUE,FALSE,TRUE,TRUE,"""event"",""trial"",""time""
""fullscreenenter"",""5"",""15550""
","
","
","""event"",""trial"",""time""
""fullscreenenter"",""5"",""15550""
","
",NA,images/earth.jpg,NA,NA,NA,NA,NA,NA,NA,NA,NA,NA,NA,NA,NA,fixation,NA,NA,NA,NA,NA,NA,sub48
d3-animate-choice,76,430465,0.0-61.0-0.5,TRUE,FALSE,TRUE,TRUE,"""event"",""trial"",""time""
""fullscreenenter"",""5"",""15550""
","
","
","""event"",""trial"",""time""
""fullscreenenter"",""5"",""15550""
","
",382.744999951683,NA,49,NA,NA,3000,1,NA,NA,images/earth.jpg,images/tutrocket2,images/tutrocket1,null,images/tutrocket1,NA,1,practice,null,1,NA,NA,NA,sub48
d3-animate-choice,77,433014,0.0-61.0-1.5,TRUE,FALSE,TRUE,TRUE,"""event"",""trial"",""time""
""fullscreenenter"",""5"",""15550""
","
","
","""event"",""trial"",""time""
""fullscreenenter"",""5"",""15550""
","
",546.5400000102818,NA,48,NA,NA,3000,1,NA,NA,images/tutyellowplanet.jpg,images/tutalien4,images/tutalien3,images/tutrocket1,images/tutalien4,images/t.png,2,practice,true,2,common,1,2020-06-14T20:15:04Z,sub48
two-step-fixation,78,434017,0.0-61.0-2.5,TRUE,FALSE,TRUE,TRUE,"""event"",""trial"",""time""
""fullscreenenter"",""5"",""15550""
","
","
","""event"",""trial"",""time""
""fullscreenenter"",""5"",""15550""
","
",NA,images/earth.jpg,NA,NA,NA,NA,NA,NA,NA,NA,NA,NA,NA,NA,NA,fixation,NA,NA,NA,NA,NA,NA,sub48
d3-animate-choice,79,436403,0.0-61.0-0.6,TRUE,FALSE,TRUE,TRUE,"""event"",""trial"",""time""
""fullscreenenter"",""5"",""15550""
","
","
","""event"",""trial"",""time""
""fullscreenenter"",""5"",""15550""
","
",383.4900000365451,NA,49,NA,NA,3000,1,NA,NA,images/earth.jpg,images/tutrocket2,images/tutrocket1,null,images/tutrocket1,NA,1,practice,null,1,NA,NA,NA,sub48
d3-animate-choice,80,439149,0.0-61.0-1.6,TRUE,FALSE,TRUE,TRUE,"""event"",""trial"",""time""
""fullscreenenter"",""5"",""15550""
","
","
","""event"",""trial"",""time""
""fullscreenenter"",""5"",""15550""
","
",743.1949999881908,NA,49,NA,NA,3000,1,NA,NA,images/tutyellowplanet.jpg,images/tutalien4,images/tutalien3,images/tutrocket1,images/tutalien3,images/t.png,2,practice,true,1,common,1,2020-06-14T20:15:10Z,sub48
two-step-fixation,81,440151,0.0-61.0-2.6,TRUE,FALSE,TRUE,TRUE,"""event"",""trial"",""time""
""fullscreenenter"",""5"",""15550""
","
","
","""event"",""trial"",""time""
""fullscreenenter"",""5"",""15550""
","
",NA,images/earth.jpg,NA,NA,NA,NA,NA,NA,NA,NA,NA,NA,NA,NA,NA,fixation,NA,NA,NA,NA,NA,NA,sub48
d3-animate-choice,82,442590,0.0-61.0-0.7,TRUE,FALSE,TRUE,TRUE,"""event"",""trial"",""time""
""fullscreenenter"",""5"",""15550""
","
","
","""event"",""trial"",""time""
""fullscreenenter"",""5"",""15550""
","
",435.1049999240786,NA,49,NA,NA,3000,1,NA,NA,images/earth.jpg,images/tutrocket2,images/tutrocket1,null,images/tutrocket1,NA,1,practice,null,1,NA,NA,NA,sub48
d3-animate-choice,83,445124,0.0-61.0-1.7,TRUE,FALSE,TRUE,TRUE,"""event"",""trial"",""time""
""fullscreenenter"",""5"",""15550""
","
","
","""event"",""trial"",""time""
""fullscreenenter"",""5"",""15550""
","
",532.0699999574572,NA,49,NA,NA,3000,1,NA,NA,images/tutyellowplanet.jpg,images/tutalien4,images/tutalien3,images/tutrocket1,images/tutalien3,images/nothing.png,2,practice,true,1,common,0,2020-06-14T20:15:16Z,sub48
two-step-fixation,84,446127,0.0-61.0-2.7,TRUE,FALSE,TRUE,TRUE,"""event"",""trial"",""time""
""fullscreenenter"",""5"",""15550""
","
","
","""event"",""trial"",""time""
""fullscreenenter"",""5"",""15550""
","
",NA,images/earth.jpg,NA,NA,NA,NA,NA,NA,NA,NA,NA,NA,NA,NA,NA,fixation,NA,NA,NA,NA,NA,NA,sub48
d3-animate-choice,85,448615,0.0-61.0-0.8,TRUE,FALSE,TRUE,TRUE,"""event"",""trial"",""time""
""fullscreenenter"",""5"",""15550""
","
","
","""event"",""trial"",""time""
""fullscreenenter"",""5"",""15550""
","
",484.3899999978021,NA,49,NA,NA,3000,1,NA,NA,images/earth.jpg,images/tutrocket2,images/tutrocket1,null,images/tutrocket1,NA,1,practice,null,1,NA,NA,NA,sub48
d3-animate-choice,86,450958,0.0-61.0-1.8,TRUE,FALSE,TRUE,TRUE,"""event"",""trial"",""time""
""fullscreenenter"",""5"",""15550""
","
","
","""event"",""trial"",""time""
""fullscreenenter"",""5"",""15550""
","
",340.6400000676513,NA,48,NA,NA,3000,1,NA,NA,images/tutyellowplanet.jpg,images/tutalien4,images/tutalien3,images/tutrocket1,images/tutalien4,images/t.png,2,practice,true,2,common,1,2020-06-14T20:15:21Z,sub48
two-step-fixation,87,451960,0.0-61.0-2.8,TRUE,FALSE,TRUE,TRUE,"""event"",""trial"",""time""
""fullscreenenter"",""5"",""15550""
","
","
","""event"",""trial"",""time""
""fullscreenenter"",""5"",""15550""
","
",NA,images/earth.jpg,NA,NA,NA,NA,NA,NA,NA,NA,NA,NA,NA,NA,NA,fixation,NA,NA,NA,NA,NA,NA,sub48
d3-animate-choice,88,454281,0.0-61.0-0.9,TRUE,FALSE,TRUE,TRUE,"""event"",""trial"",""time""
""fullscreenenter"",""5"",""15550""
","
","
","""event"",""trial"",""time""
""fullscreenenter"",""5"",""15550""
","
",318.2449999731034,NA,49,NA,NA,3000,1,NA,NA,images/earth.jpg,images/tutrocket2,images/tutrocket1,null,images/tutrocket1,NA,1,practice,null,1,NA,NA,NA,sub48
d3-animate-choice,89,456629,0.0-61.0-1.9,TRUE,FALSE,TRUE,TRUE,"""event"",""trial"",""time""
""fullscreenenter"",""5"",""15550""
","
","
","""event"",""trial"",""time""
""fullscreenenter"",""5"",""15550""
","
",344.50999996624887,NA,48,NA,NA,3000,1,NA,NA,images/tutyellowplanet.jpg,images/tutalien4,images/tutalien3,images/tutrocket1,images/tutalien4,images/t.png,2,practice,true,2,common,1,2020-06-14T20:15:27Z,sub48
two-step-fixation,90,457631,0.0-61.0-2.9,TRUE,FALSE,TRUE,TRUE,"""event"",""trial"",""time""
""fullscreenenter"",""5"",""15550""
","
","
","""event"",""trial"",""time""
""fullscreenenter"",""5"",""15550""
","
",NA,images/earth.jpg,NA,NA,NA,NA,NA,NA,NA,NA,NA,NA,NA,NA,NA,fixation,NA,NA,NA,NA,NA,NA,sub48
d3-animate-choice,91,459923,0.0-61.0-0.10,TRUE,FALSE,TRUE,TRUE,"""event"",""trial"",""time""
""fullscreenenter"",""5"",""15550""
","
","
","""event"",""trial"",""time""
""fullscreenenter"",""5"",""15550""
","
",289.06500001903623,NA,49,NA,NA,3000,1,NA,NA,images/earth.jpg,images/tutrocket2,images/tutrocket1,null,images/tutrocket1,NA,1,practice,null,1,NA,NA,NA,sub48
d3-animate-choice,92,462209,0.0-61.0-1.10,TRUE,FALSE,TRUE,TRUE,"""event"",""trial"",""time""
""fullscreenenter"",""5"",""15550""
","
","
","""event"",""trial"",""time""
""fullscreenenter"",""5"",""15550""
","
",281.84000006876886,NA,48,NA,NA,3000,1,NA,NA,images/tutyellowplanet.jpg,images/tutalien4,images/tutalien3,images/tutrocket1,images/tutalien4,images/t.png,2,practice,true,2,common,1,2020-06-14T20:15:33Z,sub48
two-step-fixation,93,463212,0.0-61.0-2.10,TRUE,FALSE,TRUE,TRUE,"""event"",""trial"",""time""
""fullscreenenter"",""5"",""15550""
","
","
","""event"",""trial"",""time""
""fullscreenenter"",""5"",""15550""
","
",NA,images/earth.jpg,NA,NA,NA,NA,NA,NA,NA,NA,NA,NA,NA,NA,NA,fixation,NA,NA,NA,NA,NA,NA,sub48
d3-animate-choice,94,465530,0.0-61.0-0.11,TRUE,FALSE,TRUE,TRUE,"""event"",""trial"",""time""
""fullscreenenter"",""5"",""15550""
","
","
","""event"",""trial"",""time""
""fullscreenenter"",""5"",""15550""
","
",314.200000022538,NA,49,NA,NA,3000,1,NA,NA,images/earth.jpg,images/tutrocket2,images/tutrocket1,null,images/tutrocket1,NA,1,practice,null,1,NA,NA,NA,sub48
d3-animate-choice,95,467875,0.0-61.0-1.11,TRUE,FALSE,TRUE,TRUE,"""event"",""trial"",""time""
""fullscreenenter"",""5"",""15550""
","
","
","""event"",""trial"",""time""
""fullscreenenter"",""5"",""15550""
","
",343.24499999638647,NA,48,NA,NA,3000,1,NA,NA,images/tutyellowplanet.jpg,images/tutalien4,images/tutalien3,images/tutrocket1,images/tutalien4,images/nothing.png,2,practice,true,2,common,0,2020-06-14T20:15:38Z,sub48
two-step-fixation,96,468877,0.0-61.0-2.11,TRUE,FALSE,TRUE,TRUE,"""event"",""trial"",""time""
""fullscreenenter"",""5"",""15550""
","
","
","""event"",""trial"",""time""
""fullscreenenter"",""5"",""15550""
","
",NA,images/earth.jpg,NA,NA,NA,NA,NA,NA,NA,NA,NA,NA,NA,NA,NA,fixation,NA,NA,NA,NA,NA,NA,sub48
d3-animate-choice,97,471271,0.0-61.0-0.12,TRUE,FALSE,TRUE,TRUE,"""event"",""trial"",""time""
""fullscreenenter"",""5"",""15550""
","
","
","""event"",""trial"",""time""
""fullscreenenter"",""5"",""15550""
","
",390.4999999795109,NA,48,NA,NA,3000,1,NA,NA,images/earth.jpg,images/tutrocket2,images/tutrocket1,null,images/tutrocket2,NA,1,practice,null,2,NA,NA,NA,sub48
d3-animate-choice,98,473976,0.0-61.0-1.12,TRUE,FALSE,TRUE,TRUE,"""event"",""trial"",""time""
""fullscreenenter"",""5"",""15550""
","
","
","""event"",""trial"",""time""
""fullscreenenter"",""5"",""15550""
","
",702.1849999437109,NA,48,NA,NA,3000,1,NA,NA,images/tutgreenplanet.jpg,images/tutalien2,images/tutalien1,images/tutrocket2,images/tutalien2,images/nothing.png,2,practice,true,2,common,0,2020-06-14T20:15:45Z,sub48
two-step-fixation,99,474978,0.0-61.0-2.12,TRUE,FALSE,TRUE,TRUE,"""event"",""trial"",""time""
""fullscreenenter"",""5"",""15550""
","
","
","""event"",""trial"",""time""
""fullscreenenter"",""5"",""15550""
","
",NA,images/earth.jpg,NA,NA,NA,NA,NA,NA,NA,NA,NA,NA,NA,NA,NA,fixation,NA,NA,NA,NA,NA,NA,sub48
d3-animate-choice,100,477477,0.0-61.0-0.13,TRUE,FALSE,TRUE,TRUE,"""event"",""trial"",""time""
""fullscreenenter"",""5"",""15550""
","
","
","""event"",""trial"",""time""
""fullscreenenter"",""5"",""15550""
","
",496.4499999769032,NA,48,NA,NA,3000,1,NA,NA,images/earth.jpg,images/tutrocket2,images/tutrocket1,null,images/tutrocket2,NA,1,practice,null,2,NA,NA,NA,sub48
d3-animate-choice,101,479915,0.0-61.0-1.13,TRUE,FALSE,TRUE,TRUE,"""event"",""trial"",""time""
""fullscreenenter"",""5"",""15550""
","
","
","""event"",""trial"",""time""
""fullscreenenter"",""5"",""15550""
","
",434.95000002440065,NA,49,NA,NA,3000,1,NA,NA,images/tutgreenplanet.jpg,images/tutalien2,images/tutalien1,images/tutrocket2,images/tutalien1,images/t.png,2,practice,true,1,common,1,2020-06-14T20:15:50Z,sub48
two-step-fixation,102,480918,0.0-61.0-2.13,TRUE,FALSE,TRUE,TRUE,"""event"",""trial"",""time""
""fullscreenenter"",""5"",""15550""
","
","
","""event"",""trial"",""time""
""fullscreenenter"",""5"",""15550""
","
",NA,images/earth.jpg,NA,NA,NA,NA,NA,NA,NA,NA,NA,NA,NA,NA,NA,fixation,NA,NA,NA,NA,NA,NA,sub48
d3-animate-choice,103,483349,0.0-61.0-0.14,TRUE,FALSE,TRUE,TRUE,"""event"",""trial"",""time""
""fullscreenenter"",""5"",""15550""
","
","
","""event"",""trial"",""time""
""fullscreenenter"",""5"",""15550""
","
",427.09500005003065,NA,49,NA,NA,3000,1,NA,NA,images/earth.jpg,images/tutrocket2,images/tutrocket1,null,images/tutrocket1,NA,1,practice,null,1,NA,NA,NA,sub48
d3-animate-choice,104,485766,0.0-61.0-1.14,TRUE,FALSE,TRUE,TRUE,"""event"",""trial"",""time""
""fullscreenenter"",""5"",""15550""
","
","
","""event"",""trial"",""time""
""fullscreenenter"",""5"",""15550""
","
",412.8499999642372,NA,48,NA,NA,3000,1,NA,NA,images/tutyellowplanet.jpg,images/tutalien4,images/tutalien3,images/tutrocket1,images/tutalien4,images/t.png,2,practice,true,2,common,1,2020-06-14T20:15:56Z,sub48
two-step-fixation,105,486769,0.0-61.0-2.14,TRUE,FALSE,TRUE,TRUE,"""event"",""trial"",""time""
""fullscreenenter"",""5"",""15550""
","
","
","""event"",""trial"",""time""
""fullscreenenter"",""5"",""15550""
","
",NA,images/earth.jpg,NA,NA,NA,NA,NA,NA,NA,NA,NA,NA,NA,NA,NA,fixation,NA,NA,NA,NA,NA,NA,sub48
d3-animate-choice,106,489083,0.0-61.0-0.15,TRUE,FALSE,TRUE,TRUE,"""event"",""trial"",""time""
""fullscreenenter"",""5"",""15550""
","
","
","""event"",""trial"",""time""
""fullscreenenter"",""5"",""15550""
","
",309.6349999541417,NA,49,NA,NA,3000,1,NA,NA,images/earth.jpg,images/tutrocket2,images/tutrocket1,null,images/tutrocket1,NA,1,practice,null,1,NA,NA,NA,sub48
d3-animate-choice,107,491974,0.0-61.0-1.15,TRUE,FALSE,TRUE,TRUE,"""event"",""trial"",""time""
""fullscreenenter"",""5"",""15550""
","
","
","""event"",""trial"",""time""
""fullscreenenter"",""5"",""15550""
","
",889.0949999913573,NA,48,NA,NA,3000,1,NA,NA,images/tutyellowplanet.jpg,images/tutalien4,images/tutalien3,images/tutrocket1,images/tutalien4,images/t.png,2,practice,true,2,common,1,2020-06-14T20:16:03Z,sub48
two-step-fixation,108,492976,0.0-61.0-2.15,TRUE,FALSE,TRUE,TRUE,"""event"",""trial"",""time""
""fullscreenenter"",""5"",""15550""
","
","
","""event"",""trial"",""time""
""fullscreenenter"",""5"",""15550""
","
",NA,images/earth.jpg,NA,NA,NA,NA,NA,NA,NA,NA,NA,NA,NA,NA,NA,fixation,NA,NA,NA,NA,NA,NA,sub48
d3-animate-choice,109,495496,0.0-61.0-0.16,TRUE,FALSE,TRUE,TRUE,"""event"",""trial"",""time""
""fullscreenenter"",""5"",""15550""
","
","
","""event"",""trial"",""time""
""fullscreenenter"",""5"",""15550""
","
",517.6000000210479,NA,49,NA,NA,3000,1,NA,NA,images/earth.jpg,images/tutrocket2,images/tutrocket1,null,images/tutrocket1,NA,1,practice,null,1,NA,NA,NA,sub48
d3-animate-choice,110,498174,0.0-61.0-1.16,TRUE,FALSE,TRUE,TRUE,"""event"",""trial"",""time""
""fullscreenenter"",""5"",""15550""
","
","
","""event"",""trial"",""time""
""fullscreenenter"",""5"",""15550""
","
",675.2949999645352,NA,48,NA,NA,3000,1,NA,NA,images/tutyellowplanet.jpg,images/tutalien4,images/tutalien3,images/tutrocket1,images/tutalien4,images/t.png,2,practice,true,2,common,1,2020-06-14T20:16:09Z,sub48
two-step-fixation,111,499176,0.0-61.0-2.16,TRUE,FALSE,TRUE,TRUE,"""event"",""trial"",""time""
""fullscreenenter"",""5"",""15550""
","
","
","""event"",""trial"",""time""
""fullscreenenter"",""5"",""15550""
","
",NA,images/earth.jpg,NA,NA,NA,NA,NA,NA,NA,NA,NA,NA,NA,NA,NA,fixation,NA,NA,NA,NA,NA,NA,sub48
d3-animate-choice,112,501580,0.0-61.0-0.17,TRUE,FALSE,TRUE,TRUE,"""event"",""trial"",""time""
""fullscreenenter"",""5"",""15550""
","
","
","""event"",""trial"",""time""
""fullscreenenter"",""5"",""15550""
","
",400.8300000568852,NA,49,NA,NA,3000,1,NA,NA,images/earth.jpg,images/tutrocket2,images/tutrocket1,null,images/tutrocket1,NA,1,practice,null,1,NA,NA,NA,sub48
d3-animate-choice,113,504117,0.0-61.0-1.17,TRUE,FALSE,TRUE,TRUE,"""event"",""trial"",""time""
""fullscreenenter"",""5"",""15550""
","
","
","""event"",""trial"",""time""
""fullscreenenter"",""5"",""15550""
","
",534.0500000165775,NA,48,NA,NA,3000,1,NA,NA,images/tutgreenplanet.jpg,images/tutalien2,images/tutalien1,images/tutrocket1,images/tutalien2,images/t.png,2,practice,false,2,rare,1,2020-06-14T20:16:15Z,sub48
two-step-fixation,114,505119,0.0-61.0-2.17,TRUE,FALSE,TRUE,TRUE,"""event"",""trial"",""time""
""fullscreenenter"",""5"",""15550""
","
","
","""event"",""trial"",""time""
""fullscreenenter"",""5"",""15550""
","
",NA,images/earth.jpg,NA,NA,NA,NA,NA,NA,NA,NA,NA,NA,NA,NA,NA,fixation,NA,NA,NA,NA,NA,NA,sub48
d3-animate-choice,115,507389,0.0-61.0-0.18,TRUE,FALSE,TRUE,TRUE,"""event"",""trial"",""time""
""fullscreenenter"",""5"",""15550""
","
","
","""event"",""trial"",""time""
""fullscreenenter"",""5"",""15550""
","
",266.18999999482185,NA,49,NA,NA,3000,1,NA,NA,images/earth.jpg,images/tutrocket2,images/tutrocket1,null,images/tutrocket1,NA,1,practice,null,1,NA,NA,NA,sub48
d3-animate-choice,116,509780,0.0-61.0-1.18,TRUE,FALSE,TRUE,TRUE,"""event"",""trial"",""time""
""fullscreenenter"",""5"",""15550""
","
","
","""event"",""trial"",""time""
""fullscreenenter"",""5"",""15550""
","
",387.445000000298,NA,48,NA,NA,3000,1,NA,NA,images/tutyellowplanet.jpg,images/tutalien4,images/tutalien3,images/tutrocket1,images/tutalien4,images/t.png,2,practice,true,2,common,1,2020-06-14T20:16:20Z,sub48
two-step-fixation,117,510782,0.0-61.0-2.18,TRUE,FALSE,TRUE,TRUE,"""event"",""trial"",""time""
""fullscreenenter"",""5"",""15550""
","
","
","""event"",""trial"",""time""
""fullscreenenter"",""5"",""15550""
","
",NA,images/earth.jpg,NA,NA,NA,NA,NA,NA,NA,NA,NA,NA,NA,NA,NA,fixation,NA,NA,NA,NA,NA,NA,sub48
d3-animate-choice,118,513077,0.0-61.0-0.19,TRUE,FALSE,TRUE,TRUE,"""event"",""trial"",""time""
""fullscreenenter"",""5"",""15550""
","
","
","""event"",""trial"",""time""
""fullscreenenter"",""5"",""15550""
","
",291.9599999440834,NA,49,NA,NA,3000,1,NA,NA,images/earth.jpg,images/tutrocket2,images/tutrocket1,null,images/tutrocket1,NA,1,practice,null,1,NA,NA,NA,sub48
d3-animate-choice,119,515553,0.0-61.0-1.19,TRUE,FALSE,TRUE,TRUE,"""event"",""trial"",""time""
""fullscreenenter"",""5"",""15550""
","
","
","""event"",""trial"",""time""
""fullscreenenter"",""5"",""15550""
","
",473.6399999819696,NA,48,NA,NA,3000,1,NA,NA,images/tutyellowplanet.jpg,images/tutalien4,images/tutalien3,images/tutrocket1,images/tutalien4,images/t.png,2,practice,true,2,common,1,2020-06-14T20:16:26Z,sub48
two-step-fixation,120,516556,0.0-61.0-2.19,TRUE,FALSE,TRUE,TRUE,"""event"",""trial"",""time""
""fullscreenenter"",""5"",""15550""
","
","
","""event"",""trial"",""time""
""fullscreenenter"",""5"",""15550""
","
",NA,images/earth.jpg,NA,NA,NA,NA,NA,NA,NA,NA,NA,NA,NA,NA,NA,fixation,NA,NA,NA,NA,NA,NA,sub48
d3-instructions,121,523145,0.0-62.0,TRUE,FALSE,TRUE,TRUE,"""event"",""trial"",""time""
""fullscreenenter"",""5"",""15550""
","
","
","""event"",""trial"",""time""
""fullscreenenter"",""5"",""15550""
","
",NA,NA,NA,NA,NA,NA,NA,NA,NA,NA,NA,NA,NA,NA,NA,NA,NA,NA,NA,NA,NA,NA,sub48
audio-keyboard-response,122,526791,0.0-63.0,TRUE,FALSE,TRUE,TRUE,"""event"",""trial"",""time""
""fullscreenenter"",""5"",""15550""
","
","
","""event"",""trial"",""time""
""fullscreenenter"",""5"",""15550""
","
",3640,audio/instructions/treasure_feedback.wav,32,NA,NA,NA,NA,NA,NA,NA,NA,NA,NA,NA,NA,NA,NA,NA,NA,NA,NA,NA,sub48
d3-instructions,123,548758,0.0-64.0,TRUE,FALSE,TRUE,TRUE,"""event"",""trial"",""time""
""fullscreenenter"",""5"",""15550""
","
","
","""event"",""trial"",""time""
""fullscreenenter"",""5"",""15550""
","
",NA,NA,NA,NA,NA,NA,NA,NA,NA,NA,NA,NA,NA,NA,NA,NA,NA,NA,NA,NA,NA,NA,sub48
d3-instructions,124,562849,0.0-65.0,TRUE,FALSE,TRUE,TRUE,"""event"",""trial"",""time""
""fullscreenenter"",""5"",""15550""
","
","
","""event"",""trial"",""time""
""fullscreenenter"",""5"",""15550""
","
",NA,NA,NA,NA,NA,NA,NA,NA,NA,NA,NA,NA,NA,NA,NA,NA,NA,NA,NA,NA,NA,NA,sub48
d3-instructions,125,586847,0.0-66.0,TRUE,FALSE,TRUE,TRUE,"""event"",""trial"",""time""
""fullscreenenter"",""5"",""15550""
","
","
","""event"",""trial"",""time""
""fullscreenenter"",""5"",""15550""
","
",NA,NA,NA,NA,NA,NA,NA,NA,NA,NA,NA,NA,NA,NA,NA,NA,NA,NA,NA,NA,NA,NA,sub48
d3-instructions,126,598168,0.0-67.0,TRUE,FALSE,TRUE,TRUE,"""event"",""trial"",""time""
""fullscreenenter"",""5"",""15550""
","
","
","""event"",""trial"",""time""
""fullscreenenter"",""5"",""15550""
","
",NA,NA,NA,NA,NA,NA,NA,NA,NA,NA,NA,NA,NA,NA,NA,NA,NA,NA,NA,NA,NA,NA,sub48
d3-instructions,127,604980,0.0-68.0,TRUE,FALSE,TRUE,TRUE,"""event"",""trial"",""time""
""fullscreenenter"",""5"",""15550""
","
","
","""event"",""trial"",""time""
""fullscreenenter"",""5"",""15550""
","
",NA,NA,NA,NA,NA,NA,NA,NA,NA,NA,NA,NA,NA,NA,NA,NA,NA,NA,NA,NA,NA,NA,sub48
instructions-quiz,128,610414,0.0-69.0,TRUE,FALSE,TRUE,TRUE,"""event"",""trial"",""time""
""fullscreenenter"",""5"",""15550""
","
","
","""event"",""trial"",""time""
""fullscreenenter"",""5"",""15550""
","
",5432.075000018813,audio/quiz/Q1_Prompt.wav,NA,1,NA,NA,NA,NA,NA,NA,NA,NA,NA,NA,NA,NA,NA,NA,NA,NA,NA,NA,sub48
audio-keyboard-response,129,614807,0.0-70.0,TRUE,FALSE,TRUE,TRUE,"""event"",""trial"",""time""
""fullscreenenter"",""5"",""15550""
","
","
","""event"",""trial"",""time""
""fullscreenenter"",""5"",""15550""
","
",4389,audio/quiz/Q1_Correct.wav,32,NA,NA,NA,NA,NA,NA,NA,NA,NA,NA,NA,NA,NA,NA,NA,NA,NA,NA,NA,sub48
instructions-quiz,130,621291,0.0-71.0,TRUE,FALSE,TRUE,TRUE,"""event"",""trial"",""time""
""fullscreenenter"",""5"",""15550""
","
","
","""event"",""trial"",""time""
""fullscreenenter"",""5"",""15550""
","
",6483.6050000740215,audio/quiz/Q2_Prompt.wav,NA,0,NA,NA,NA,NA,NA,NA,NA,NA,NA,NA,NA,NA,NA,NA,NA,NA,NA,NA,sub48
audio-keyboard-response,131,622619,0.0-72.0,TRUE,FALSE,TRUE,TRUE,"""event"",""trial"",""time""
""fullscreenenter"",""5"",""15550""
","
","
","""event"",""trial"",""time""
""fullscreenenter"",""5"",""15550""
","
",1331,audio/quiz/Q2_Correct.wav,32,NA,NA,NA,NA,NA,NA,NA,NA,NA,NA,NA,NA,NA,NA,NA,NA,NA,NA,NA,sub48
instructions-quiz,132,627943,0.0-73.0,TRUE,FALSE,TRUE,TRUE,"""event"",""trial"",""time""
""fullscreenenter"",""5"",""15550""
","
","
","""event"",""trial"",""time""
""fullscreenenter"",""5"",""15550""
","
",5323.115000035614,audio/quiz/Q3_Prompt.wav,NA,1,NA,NA,NA,NA,NA,NA,NA,NA,NA,NA,NA,NA,NA,NA,NA,NA,NA,NA,sub48
audio-keyboard-response,133,630304,0.0-74.0,TRUE,FALSE,TRUE,TRUE,"""event"",""trial"",""time""
""fullscreenenter"",""5"",""15550""
","
","
","""event"",""trial"",""time""
""fullscreenenter"",""5"",""15550""
","
",2360,audio/quiz/Q3_Correct.wav,32,NA,NA,NA,NA,NA,NA,NA,NA,NA,NA,NA,NA,NA,NA,NA,NA,NA,NA,NA,sub48
d3-instructions,134,636829,0.0-75.0,TRUE,FALSE,TRUE,TRUE,"""event"",""trial"",""time""
""fullscreenenter"",""5"",""15550""
","
","
","""event"",""trial"",""time""
""fullscreenenter"",""5"",""15550""
","
",NA,NA,NA,NA,NA,NA,NA,NA,NA,NA,NA,NA,NA,NA,NA,NA,NA,NA,NA,NA,NA,NA,sub48
d3-animate-choice,135,639978,0.0-76.0-0.0,TRUE,FALSE,TRUE,TRUE,"""event"",""trial"",""time""
""fullscreenenter"",""5"",""15550""
","
","
","""event"",""trial"",""time""
""fullscreenenter"",""5"",""15550""
","
",1147.0549999503419,NA,49,NA,NA,3000,1,NA,NA,images/earth.jpg,images/rocket2,images/rocket1,null,images/rocket1,NA,1,real,null,1,NA,NA,NA,sub48
d3-animate-choice,136,642234,0.0-76.0-1.0,TRUE,FALSE,TRUE,TRUE,"""event"",""trial"",""time""
""fullscreenenter"",""5"",""15550""
","
","
","""event"",""trial"",""time""
""fullscreenenter"",""5"",""15550""
","
",254.0700000245124,NA,49,NA,NA,3000,1,NA,NA,images/redplanet1.jpg,images/alien2,images/alien1,images/rocket1,images/alien1,images/t.png,2,real,false,1,rare,1,2020-06-14T20:18:33Z,sub48
two-step-fixation,137,643253,0.0-76.0-2.0,TRUE,FALSE,TRUE,TRUE,"""event"",""trial"",""time""
""fullscreenenter"",""5"",""15550""
","
","
","""event"",""trial"",""time""
""fullscreenenter"",""5"",""15550""
","
",NA,images/earth.jpg,NA,NA,NA,NA,NA,NA,NA,NA,NA,NA,NA,NA,NA,fixation,NA,NA,NA,NA,NA,NA,sub48
d3-animate-choice,138,645537,0.0-76.0-0.1,TRUE,FALSE,TRUE,TRUE,"""event"",""trial"",""time""
""fullscreenenter"",""5"",""15550""
","
","
","""event"",""trial"",""time""
""fullscreenenter"",""5"",""15550""
","
",280.83499998319894,NA,49,NA,NA,3000,1,NA,NA,images/earth.jpg,images/rocket2,images/rocket1,null,images/rocket1,NA,1,real,null,1,NA,NA,NA,sub48
d3-animate-choice,139,647988,0.0-76.0-1.1,TRUE,FALSE,TRUE,TRUE,"""event"",""trial"",""time""
""fullscreenenter"",""5"",""15550""
","
","
","""event"",""trial"",""time""
""fullscreenenter"",""5"",""15550""
","
",448.68999999016523,NA,49,NA,NA,3000,1,NA,NA,images/purpleplanet.jpg,images/alien4,images/alien3,images/rocket1,images/alien3,images/t.png,2,real,true,1,common,1,2020-06-14T20:18:39Z,sub48
two-step-fixation,140,648990,0.0-76.0-2.1,TRUE,FALSE,TRUE,TRUE,"""event"",""trial"",""time""
""fullscreenenter"",""5"",""15550""
","
","
","""event"",""trial"",""time""
""fullscreenenter"",""5"",""15550""
","
",NA,images/earth.jpg,NA,NA,NA,NA,NA,NA,NA,NA,NA,NA,NA,NA,NA,fixation,NA,NA,NA,NA,NA,NA,sub48
d3-animate-choice,141,651262,0.0-76.0-0.2,TRUE,FALSE,TRUE,TRUE,"""event"",""trial"",""time""
""fullscreenenter"",""5"",""15550""
","
","
","""event"",""trial"",""time""
""fullscreenenter"",""5"",""15550""
","
",268.50999996531755,NA,49,NA,NA,3000,1,NA,NA,images/earth.jpg,images/rocket2,images/rocket1,null,images/rocket1,NA,1,real,null,1,NA,NA,NA,sub48
d3-animate-choice,142,653498,0.0-76.0-1.2,TRUE,FALSE,TRUE,TRUE,"""event"",""trial"",""time""
""fullscreenenter"",""5"",""15550""
","
","
","""event"",""trial"",""time""
""fullscreenenter"",""5"",""15550""
","
",233.04999992251396,NA,49,NA,NA,3000,1,NA,NA,images/redplanet1.jpg,images/alien2,images/alien1,images/rocket1,images/alien1,images/t.png,2,real,false,1,rare,1,2020-06-14T20:18:44Z,sub48
two-step-fixation,143,654501,0.0-76.0-2.2,TRUE,FALSE,TRUE,TRUE,"""event"",""trial"",""time""
""fullscreenenter"",""5"",""15550""
","
","
","""event"",""trial"",""time""
""fullscreenenter"",""5"",""15550""
","
",NA,images/earth.jpg,NA,NA,NA,NA,NA,NA,NA,NA,NA,NA,NA,NA,NA,fixation,NA,NA,NA,NA,NA,NA,sub48
d3-animate-choice,144,656783,0.0-76.0-0.3,TRUE,FALSE,TRUE,TRUE,"""event"",""trial"",""time""
""fullscreenenter"",""5"",""15550""
","
","
","""event"",""trial"",""time""
""fullscreenenter"",""5"",""15550""
","
",269.6299999952316,NA,49,NA,NA,3000,1,NA,NA,images/earth.jpg,images/rocket2,images/rocket1,null,images/rocket1,NA,1,real,null,1,NA,NA,NA,sub48
d3-animate-choice,145,659570,0.0-76.0-1.3,TRUE,FALSE,TRUE,TRUE,"""event"",""trial"",""time""
""fullscreenenter"",""5"",""15550""
","
","
","""event"",""trial"",""time""
""fullscreenenter"",""5"",""15550""
","
",784.0549999382347,NA,49,NA,NA,3000,1,NA,NA,images/purpleplanet.jpg,images/alien4,images/alien3,images/rocket1,images/alien3,images/nothing.png,2,real,true,1,common,0,2020-06-14T20:18:50Z,sub48
two-step-fixation,146,660572,0.0-76.0-2.3,TRUE,FALSE,TRUE,TRUE,"""event"",""trial"",""time""
""fullscreenenter"",""5"",""15550""
","
","
","""event"",""trial"",""time""
""fullscreenenter"",""5"",""15550""
","
",NA,images/earth.jpg,NA,NA,NA,NA,NA,NA,NA,NA,NA,NA,NA,NA,NA,fixation,NA,NA,NA,NA,NA,NA,sub48
d3-animate-choice,147,662853,0.0-76.0-0.4,TRUE,FALSE,TRUE,TRUE,"""event"",""trial"",""time""
""fullscreenenter"",""5"",""15550""
","
","
","""event"",""trial"",""time""
""fullscreenenter"",""5"",""15550""
","
",277.19499997328967,NA,49,NA,NA,3000,1,NA,NA,images/earth.jpg,images/rocket2,images/rocket1,null,images/rocket1,NA,1,real,null,1,NA,NA,NA,sub48
d3-animate-choice,148,665576,0.0-76.0-1.4,TRUE,FALSE,TRUE,TRUE,"""event"",""trial"",""time""
""fullscreenenter"",""5"",""15550""
","
","
","""event"",""trial"",""time""
""fullscreenenter"",""5"",""15550""
","
",721.2199999485165,NA,49,NA,NA,3000,1,NA,NA,images/redplanet1.jpg,images/alien2,images/alien1,images/rocket1,images/alien1,images/nothing.png,2,real,false,1,rare,0,2020-06-14T20:18:56Z,sub48
two-step-fixation,149,666579,0.0-76.0-2.4,TRUE,FALSE,TRUE,TRUE,"""event"",""trial"",""time""
""fullscreenenter"",""5"",""15550""
","
","
","""event"",""trial"",""time""
""fullscreenenter"",""5"",""15550""
","
",NA,images/earth.jpg,NA,NA,NA,NA,NA,NA,NA,NA,NA,NA,NA,NA,NA,fixation,NA,NA,NA,NA,NA,NA,sub48
d3-animate-choice,150,668875,0.0-76.0-0.5,TRUE,FALSE,TRUE,TRUE,"""event"",""trial"",""time""
""fullscreenenter"",""5"",""15550""
","
","
","""event"",""trial"",""time""
""fullscreenenter"",""5"",""15550""
","
",292.98500006552786,NA,48,NA,NA,3000,1,NA,NA,images/earth.jpg,images/rocket2,images/rocket1,null,images/rocket2,NA,1,real,null,2,NA,NA,NA,sub48
d3-animate-choice,151,671619,0.0-76.0-1.5,TRUE,FALSE,TRUE,TRUE,"""event"",""trial"",""time""
""fullscreenenter"",""5"",""15550""
","
","
","""event"",""trial"",""time""
""fullscreenenter"",""5"",""15550""
","
",740.6200000550598,NA,48,NA,NA,3000,1,NA,NA,images/purpleplanet.jpg,images/alien4,images/alien3,images/rocket2,images/alien4,images/t.png,2,real,false,2,rare,1,2020-06-14T20:19:02Z,sub48
two-step-fixation,152,672621,0.0-76.0-2.5,TRUE,FALSE,TRUE,TRUE,"""event"",""trial"",""time""
""fullscreenenter"",""5"",""15550""
","
","
","""event"",""trial"",""time""
""fullscreenenter"",""5"",""15550""
","
",NA,images/earth.jpg,NA,NA,NA,NA,NA,NA,NA,NA,NA,NA,NA,NA,NA,fixation,NA,NA,NA,NA,NA,NA,sub48
d3-animate-choice,153,674960,0.0-76.0-0.6,TRUE,FALSE,TRUE,TRUE,"""event"",""trial"",""time""
""fullscreenenter"",""5"",""15550""
","
","
","""event"",""trial"",""time""
""fullscreenenter"",""5"",""15550""
","
",335.63000010326505,NA,48,NA,NA,3000,1,NA,NA,images/earth.jpg,images/rocket2,images/rocket1,null,images/rocket2,NA,1,real,null,2,NA,NA,NA,sub48
d3-animate-choice,154,677735,0.0-76.0-1.6,TRUE,FALSE,TRUE,TRUE,"""event"",""trial"",""time""
""fullscreenenter"",""5"",""15550""
","
","
","""event"",""trial"",""time""
""fullscreenenter"",""5"",""15550""
","
",772.7299999678507,NA,49,NA,NA,3000,1,NA,NA,images/redplanet1.jpg,images/alien2,images/alien1,images/rocket2,images/alien1,images/nothing.png,2,real,true,1,common,0,2020-06-14T20:19:08Z,sub48
two-step-fixation,155,678737,0.0-76.0-2.6,TRUE,FALSE,TRUE,TRUE,"""event"",""trial"",""time""
""fullscreenenter"",""5"",""15550""
","
","
","""event"",""trial"",""time""
""fullscreenenter"",""5"",""15550""
","
",NA,images/earth.jpg,NA,NA,NA,NA,NA,NA,NA,NA,NA,NA,NA,NA,NA,fixation,NA,NA,NA,NA,NA,NA,sub48
d3-animate-choice,156,681335,0.0-76.0-0.7,TRUE,FALSE,TRUE,TRUE,"""event"",""trial"",""time""
""fullscreenenter"",""5"",""15550""
","
","
","""event"",""trial"",""time""
""fullscreenenter"",""5"",""15550""
","
",594.1650000168011,NA,48,NA,NA,3000,1,NA,NA,images/earth.jpg,images/rocket2,images/rocket1,null,images/rocket2,NA,1,real,null,2,NA,NA,NA,sub48
d3-animate-choice,157,683960,0.0-76.0-1.7,TRUE,FALSE,TRUE,TRUE,"""event"",""trial"",""time""
""fullscreenenter"",""5"",""15550""
","
","
","""event"",""trial"",""time""
""fullscreenenter"",""5"",""15550""
","
",622.7850000141189,NA,48,NA,NA,3000,1,NA,NA,images/purpleplanet.jpg,images/alien4,images/alien3,images/rocket2,images/alien4,images/t.png,2,real,false,2,rare,1,2020-06-14T20:19:14Z,sub48
two-step-fixation,158,684963,0.0-76.0-2.7,TRUE,FALSE,TRUE,TRUE,"""event"",""trial"",""time""
""fullscreenenter"",""5"",""15550""
","
","
","""event"",""trial"",""time""
""fullscreenenter"",""5"",""15550""
","
",NA,images/earth.jpg,NA,NA,NA,NA,NA,NA,NA,NA,NA,NA,NA,NA,NA,fixation,NA,NA,NA,NA,NA,NA,sub48
d3-animate-choice,159,687333,0.0-76.0-0.8,TRUE,FALSE,TRUE,TRUE,"""event"",""trial"",""time""
""fullscreenenter"",""5"",""15550""
","
","
","""event"",""trial"",""time""
""fullscreenenter"",""5"",""15550""
","
",367.67500010319054,NA,49,NA,NA,3000,1,NA,NA,images/earth.jpg,images/rocket2,images/rocket1,null,images/rocket1,NA,1,real,null,1,NA,NA,NA,sub48
d3-animate-choice,160,689955,0.0-76.0-1.8,TRUE,FALSE,TRUE,TRUE,"""event"",""trial"",""time""
""fullscreenenter"",""5"",""15550""
","
","
","""event"",""trial"",""time""
""fullscreenenter"",""5"",""15550""
","
",619.7500000707805,NA,49,NA,NA,3000,1,NA,NA,images/redplanet1.jpg,images/alien2,images/alien1,images/rocket1,images/alien1,images/t.png,2,real,false,1,rare,1,2020-06-14T20:19:20Z,sub48
two-step-fixation,161,690958,0.0-76.0-2.8,TRUE,FALSE,TRUE,TRUE,"""event"",""trial"",""time""
""fullscreenenter"",""5"",""15550""
","
","
","""event"",""trial"",""time""
""fullscreenenter"",""5"",""15550""
","
",NA,images/earth.jpg,NA,NA,NA,NA,NA,NA,NA,NA,NA,NA,NA,NA,NA,fixation,NA,NA,NA,NA,NA,NA,sub48
d3-animate-choice,162,693267,0.0-76.0-0.9,TRUE,FALSE,TRUE,TRUE,"""event"",""trial"",""time""
""fullscreenenter"",""5"",""15550""
","
","
","""event"",""trial"",""time""
""fullscreenenter"",""5"",""15550""
","
",306.40000000130385,NA,48,NA,NA,3000,1,NA,NA,images/earth.jpg,images/rocket2,images/rocket1,null,images/rocket2,NA,1,real,null,2,NA,NA,NA,sub48
d3-animate-choice,163,695716,0.0-76.0-1.9,TRUE,FALSE,TRUE,TRUE,"""event"",""trial"",""time""
""fullscreenenter"",""5"",""15550""
","
","
","""event"",""trial"",""time""
""fullscreenenter"",""5"",""15550""
","
",444.785000057891,NA,48,NA,NA,3000,1,NA,NA,images/redplanet1.jpg,images/alien2,images/alien1,images/rocket2,images/alien2,images/t.png,2,real,true,2,common,1,2020-06-14T20:19:26Z,sub48
two-step-fixation,164,696719,0.0-76.0-2.9,TRUE,FALSE,TRUE,TRUE,"""event"",""trial"",""time""
""fullscreenenter"",""5"",""15550""
","
","
","""event"",""trial"",""time""
""fullscreenenter"",""5"",""15550""
","
",NA,images/earth.jpg,NA,NA,NA,NA,NA,NA,NA,NA,NA,NA,NA,NA,NA,fixation,NA,NA,NA,NA,NA,NA,sub48
d3-animate-choice,165,698976,0.0-76.0-0.10,TRUE,FALSE,TRUE,TRUE,"""event"",""trial"",""time""
""fullscreenenter"",""5"",""15550""
","
","
","""event"",""trial"",""time""
""fullscreenenter"",""5"",""15550""
","
",255.0000000046566,NA,48,NA,NA,3000,1,NA,NA,images/earth.jpg,images/rocket2,images/rocket1,null,images/rocket2,NA,1,real,null,2,NA,NA,NA,sub48
d3-animate-choice,166,701998,0.0-76.0-1.10,TRUE,FALSE,TRUE,TRUE,"""event"",""trial"",""time""
""fullscreenenter"",""5"",""15550""
","
","
","""event"",""trial"",""time""
""fullscreenenter"",""5"",""15550""
","
",1018.8150000758469,NA,48,NA,NA,3000,1,NA,NA,images/redplanet1.jpg,images/alien2,images/alien1,images/rocket2,images/alien2,images/nothing.png,2,real,true,2,common,0,2020-06-14T20:19:33Z,sub48
two-step-fixation,167,703002,0.0-76.0-2.10,TRUE,FALSE,TRUE,TRUE,"""event"",""trial"",""time""
""fullscreenenter"",""5"",""15550""
","
","
","""event"",""trial"",""time""
""fullscreenenter"",""5"",""15550""
","
",NA,images/earth.jpg,NA,NA,NA,NA,NA,NA,NA,NA,NA,NA,NA,NA,NA,fixation,NA,NA,NA,NA,NA,NA,sub48
d3-animate-choice,168,705621,0.0-76.0-0.11,TRUE,FALSE,TRUE,TRUE,"""event"",""trial"",""time""
""fullscreenenter"",""5"",""15550""
","
","
","""event"",""trial"",""time""
""fullscreenenter"",""5"",""15550""
","
",615.8500000601634,NA,49,NA,NA,3000,1,NA,NA,images/earth.jpg,images/rocket2,images/rocket1,null,images/rocket1,NA,1,real,null,1,NA,NA,NA,sub48
d3-animate-choice,169,708265,0.0-76.0-1.11,TRUE,FALSE,TRUE,TRUE,"""event"",""trial"",""time""
""fullscreenenter"",""5"",""15550""
","
","
","""event"",""trial"",""time""
""fullscreenenter"",""5"",""15550""
","
",641.2499999860302,NA,48,NA,NA,3000,1,NA,NA,images/purpleplanet.jpg,images/alien4,images/alien3,images/rocket1,images/alien4,images/t.png,2,real,true,2,common,1,2020-06-14T20:19:39Z,sub48
two-step-fixation,170,709268,0.0-76.0-2.11,TRUE,FALSE,TRUE,TRUE,"""event"",""trial"",""time""
""fullscreenenter"",""5"",""15550""
","
","
","""event"",""trial"",""time""
""fullscreenenter"",""5"",""15550""
","
",NA,images/earth.jpg,NA,NA,NA,NA,NA,NA,NA,NA,NA,NA,NA,NA,NA,fixation,NA,NA,NA,NA,NA,NA,sub48
d3-animate-choice,171,711655,0.0-76.0-0.12,TRUE,FALSE,TRUE,TRUE,"""event"",""trial"",""time""
""fullscreenenter"",""5"",""15550""
","
","
","""event"",""trial"",""time""
""fullscreenenter"",""5"",""15550""
","
",384.99499997124076,NA,49,NA,NA,3000,1,NA,NA,images/earth.jpg,images/rocket2,images/rocket1,null,images/rocket1,NA,1,real,null,1,NA,NA,NA,sub48
d3-animate-choice,172,714717,0.0-76.0-1.12,TRUE,FALSE,TRUE,TRUE,"""event"",""trial"",""time""
""fullscreenenter"",""5"",""15550""
","
","
","""event"",""trial"",""time""
""fullscreenenter"",""5"",""15550""
","
",1058.3599999081343,NA,48,NA,NA,3000,1,NA,NA,images/purpleplanet.jpg,images/alien4,images/alien3,images/rocket1,images/alien4,images/t.png,2,real,true,2,common,1,2020-06-14T20:19:45Z,sub48
two-step-fixation,173,715718,0.0-76.0-2.12,TRUE,FALSE,TRUE,TRUE,"""event"",""trial"",""time""
""fullscreenenter"",""5"",""15550""
","
","
","""event"",""trial"",""time""
""fullscreenenter"",""5"",""15550""
","
",NA,images/earth.jpg,NA,NA,NA,NA,NA,NA,NA,NA,NA,NA,NA,NA,NA,fixation,NA,NA,NA,NA,NA,NA,sub48
d3-animate-choice,174,718409,0.0-76.0-0.13,TRUE,FALSE,TRUE,TRUE,"""event"",""trial"",""time""
""fullscreenenter"",""5"",""15550""
","
","
","""event"",""trial"",""time""
""fullscreenenter"",""5"",""15550""
","
",688.2700000423938,NA,49,NA,NA,3000,1,NA,NA,images/earth.jpg,images/rocket2,images/rocket1,null,images/rocket1,NA,1,real,null,1,NA,NA,NA,sub48
d3-animate-choice,175,721020,0.0-76.0-1.13,TRUE,FALSE,TRUE,TRUE,"""event"",""trial"",""time""
""fullscreenenter"",""5"",""15550""
","
","
","""event"",""trial"",""time""
""fullscreenenter"",""5"",""15550""
","
",607.9450000543147,NA,48,NA,NA,3000,1,NA,NA,images/purpleplanet.jpg,images/alien4,images/alien3,images/rocket1,images/alien4,images/nothing.png,2,real,true,2,common,0,2020-06-14T20:19:52Z,sub48
two-step-fixation,176,722023,0.0-76.0-2.13,TRUE,FALSE,TRUE,TRUE,"""event"",""trial"",""time""
""fullscreenenter"",""5"",""15550""
","
","
","""event"",""trial"",""time""
""fullscreenenter"",""5"",""15550""
","
",NA,images/earth.jpg,NA,NA,NA,NA,NA,NA,NA,NA,NA,NA,NA,NA,NA,fixation,NA,NA,NA,NA,NA,NA,sub48
d3-animate-choice,177,724355,0.0-76.0-0.14,TRUE,FALSE,TRUE,TRUE,"""event"",""trial"",""time""
""fullscreenenter"",""5"",""15550""
","
","
","""event"",""trial"",""time""
""fullscreenenter"",""5"",""15550""
","
",328.6549999611452,NA,48,NA,NA,3000,1,NA,NA,images/earth.jpg,images/rocket2,images/rocket1,null,images/rocket2,NA,1,real,null,2,NA,NA,NA,sub48
d3-animate-choice,178,726985,0.0-76.0-1.14,TRUE,FALSE,TRUE,TRUE,"""event"",""trial"",""time""
""fullscreenenter"",""5"",""15550""
","
","
","""event"",""trial"",""time""
""fullscreenenter"",""5"",""15550""
","
",627.985000028275,NA,49,NA,NA,3000,1,NA,NA,images/redplanet1.jpg,images/alien2,images/alien1,images/rocket2,images/alien1,images/t.png,2,real,true,1,common,1,2020-06-14T20:19:58Z,sub48
two-step-fixation,179,727988,0.0-76.0-2.14,TRUE,FALSE,TRUE,TRUE,"""event"",""trial"",""time""
""fullscreenenter"",""5"",""15550""
","
","
","""event"",""trial"",""time""
""fullscreenenter"",""5"",""15550""
","
",NA,images/earth.jpg,NA,NA,NA,NA,NA,NA,NA,NA,NA,NA,NA,NA,NA,fixation,NA,NA,NA,NA,NA,NA,sub48
d3-animate-choice,180,730547,0.0-76.0-0.15,TRUE,FALSE,TRUE,TRUE,"""event"",""trial"",""time""
""fullscreenenter"",""5"",""15550""
","
","
","""event"",""trial"",""time""
""fullscreenenter"",""5"",""15550""
","
",556.8249999778345,NA,49,NA,NA,3000,1,NA,NA,images/earth.jpg,images/rocket2,images/rocket1,null,images/rocket1,NA,1,real,null,1,NA,NA,NA,sub48
d3-animate-choice,181,733256,0.0-76.0-1.15,TRUE,FALSE,TRUE,TRUE,"""event"",""trial"",""time""
""fullscreenenter"",""5"",""15550""
","
","
","""event"",""trial"",""time""
""fullscreenenter"",""5"",""15550""
","
",705.3600000217557,NA,48,NA,NA,3000,1,NA,NA,images/redplanet1.jpg,images/alien2,images/alien1,images/rocket1,images/alien2,images/nothing.png,2,real,false,2,rare,0,2020-06-14T20:20:04Z,sub48
two-step-fixation,182,734258,0.0-76.0-2.15,TRUE,FALSE,TRUE,TRUE,"""event"",""trial"",""time""
""fullscreenenter"",""5"",""15550""
","
","
","""event"",""trial"",""time""
""fullscreenenter"",""5"",""15550""
","
",NA,images/earth.jpg,NA,NA,NA,NA,NA,NA,NA,NA,NA,NA,NA,NA,NA,fixation,NA,NA,NA,NA,NA,NA,sub48
d3-animate-choice,183,736521,0.0-76.0-0.16,TRUE,FALSE,TRUE,TRUE,"""event"",""trial"",""time""
""fullscreenenter"",""5"",""15550""
","
","
","""event"",""trial"",""time""
""fullscreenenter"",""5"",""15550""
","
",260.9349999111146,NA,49,NA,NA,3000,1,NA,NA,images/earth.jpg,images/rocket2,images/rocket1,null,images/rocket1,NA,1,real,null,1,NA,NA,NA,sub48
d3-animate-choice,184,738944,0.0-76.0-1.16,TRUE,FALSE,TRUE,TRUE,"""event"",""trial"",""time""
""fullscreenenter"",""5"",""15550""
","
","
","""event"",""trial"",""time""
""fullscreenenter"",""5"",""15550""
","
",419.96999992989004,NA,49,NA,NA,3000,1,NA,NA,images/purpleplanet.jpg,images/alien4,images/alien3,images/rocket1,images/alien3,images/t.png,2,real,true,1,common,1,2020-06-14T20:20:09Z,sub48
two-step-fixation,185,739946,0.0-76.0-2.16,TRUE,FALSE,TRUE,TRUE,"""event"",""trial"",""time""
""fullscreenenter"",""5"",""15550""
","
","
","""event"",""trial"",""time""
""fullscreenenter"",""5"",""15550""
","
",NA,images/earth.jpg,NA,NA,NA,NA,NA,NA,NA,NA,NA,NA,NA,NA,NA,fixation,NA,NA,NA,NA,NA,NA,sub48
d3-animate-choice,186,742279,0.0-76.0-0.17,TRUE,FALSE,TRUE,TRUE,"""event"",""trial"",""time""
""fullscreenenter"",""5"",""15550""
","
","
","""event"",""trial"",""time""
""fullscreenenter"",""5"",""15550""
","
",330.31500002834946,NA,49,NA,NA,3000,1,NA,NA,images/earth.jpg,images/rocket2,images/rocket1,null,images/rocket1,NA,1,real,null,1,NA,NA,NA,sub48
d3-animate-choice,187,744615,0.0-76.0-1.17,TRUE,FALSE,TRUE,TRUE,"""event"",""trial"",""time""
""fullscreenenter"",""5"",""15550""
","
","
","""event"",""trial"",""time""
""fullscreenenter"",""5"",""15550""
","
",333.2149999914691,NA,48,NA,NA,3000,1,NA,NA,images/purpleplanet.jpg,images/alien4,images/alien3,images/rocket1,images/alien4,images/nothing.png,2,real,true,2,common,0,2020-06-14T20:20:15Z,sub48
two-step-fixation,188,745616,0.0-76.0-2.17,TRUE,FALSE,TRUE,TRUE,"""event"",""trial"",""time""
""fullscreenenter"",""5"",""15550""
","
","
","""event"",""trial"",""time""
""fullscreenenter"",""5"",""15550""
","
",NA,images/earth.jpg,NA,NA,NA,NA,NA,NA,NA,NA,NA,NA,NA,NA,NA,fixation,NA,NA,NA,NA,NA,NA,sub48
d3-animate-choice,189,748157,0.0-76.0-0.18,TRUE,FALSE,TRUE,TRUE,"""event"",""trial"",""time""
""fullscreenenter"",""5"",""15550""
","
","
","""event"",""trial"",""time""
""fullscreenenter"",""5"",""15550""
","
",537.6199999591336,NA,48,NA,NA,3000,1,NA,NA,images/earth.jpg,images/rocket2,images/rocket1,null,images/rocket2,NA,1,real,null,2,NA,NA,NA,sub48
d3-animate-choice,190,750676,0.0-76.0-1.18,TRUE,FALSE,TRUE,TRUE,"""event"",""trial"",""time""
""fullscreenenter"",""5"",""15550""
","
","
","""event"",""trial"",""time""
""fullscreenenter"",""5"",""15550""
","
",517.2099999617785,NA,49,NA,NA,3000,1,NA,NA,images/purpleplanet.jpg,images/alien4,images/alien3,images/rocket2,images/alien3,images/nothing.png,2,real,false,1,rare,0,2020-06-14T20:20:21Z,sub48
two-step-fixation,191,751680,0.0-76.0-2.18,TRUE,FALSE,TRUE,TRUE,"""event"",""trial"",""time""
""fullscreenenter"",""5"",""15550""
","
","
","""event"",""trial"",""time""
""fullscreenenter"",""5"",""15550""
","
",NA,images/earth.jpg,NA,NA,NA,NA,NA,NA,NA,NA,NA,NA,NA,NA,NA,fixation,NA,NA,NA,NA,NA,NA,sub48
d3-animate-choice,192,754039,0.0-76.0-0.19,TRUE,FALSE,TRUE,TRUE,"""event"",""trial"",""time""
""fullscreenenter"",""5"",""15550""
","
","
","""event"",""trial"",""time""
""fullscreenenter"",""5"",""15550""
","
",356.4949999563396,NA,49,NA,NA,3000,1,NA,NA,images/earth.jpg,images/rocket2,images/rocket1,null,images/rocket1,NA,1,real,null,1,NA,NA,NA,sub48
d3-animate-choice,193,756572,0.0-76.0-1.19,TRUE,FALSE,TRUE,TRUE,"""event"",""trial"",""time""
""fullscreenenter"",""5"",""15550""
","
","
","""event"",""trial"",""time""
""fullscreenenter"",""5"",""15550""
","
",530.1050000125542,NA,49,NA,NA,3000,1,NA,NA,images/purpleplanet.jpg,images/alien4,images/alien3,images/rocket1,images/alien3,images/nothing.png,2,real,true,1,common,0,2020-06-14T20:20:27Z,sub48
two-step-fixation,194,757574,0.0-76.0-2.19,TRUE,FALSE,TRUE,TRUE,"""event"",""trial"",""time""
""fullscreenenter"",""5"",""15550""
","
","
","""event"",""trial"",""time""
""fullscreenenter"",""5"",""15550""
","
",NA,images/earth.jpg,NA,NA,NA,NA,NA,NA,NA,NA,NA,NA,NA,NA,NA,fixation,NA,NA,NA,NA,NA,NA,sub48
d3-animate-choice,195,760147,0.0-76.0-0.20,TRUE,FALSE,TRUE,TRUE,"""event"",""trial"",""time""
""fullscreenenter"",""5"",""15550""
","
","
","""event"",""trial"",""time""
""fullscreenenter"",""5"",""15550""
","
",570.5849999794737,NA,48,NA,NA,3000,1,NA,NA,images/earth.jpg,images/rocket2,images/rocket1,null,images/rocket2,NA,1,real,null,2,NA,NA,NA,sub48
d3-animate-choice,196,762620,0.0-76.0-1.20,TRUE,FALSE,TRUE,TRUE,"""event"",""trial"",""time""
""fullscreenenter"",""5"",""15550""
","
","
","""event"",""trial"",""time""
""fullscreenenter"",""5"",""15550""
","
",470.35499999765307,NA,48,NA,NA,3000,1,NA,NA,images/purpleplanet.jpg,images/alien4,images/alien3,images/rocket2,images/alien4,images/t.png,2,real,false,2,rare,1,2020-06-14T20:20:33Z,sub48
two-step-fixation,197,763624,0.0-76.0-2.20,TRUE,FALSE,TRUE,TRUE,"""event"",""trial"",""time""
""fullscreenenter"",""5"",""15550""
","
","
","""event"",""trial"",""time""
""fullscreenenter"",""5"",""15550""
","
",NA,images/earth.jpg,NA,NA,NA,NA,NA,NA,NA,NA,NA,NA,NA,NA,NA,fixation,NA,NA,NA,NA,NA,NA,sub48
d3-animate-choice,198,766145,0.0-76.0-0.21,TRUE,FALSE,TRUE,TRUE,"""event"",""trial"",""time""
""fullscreenenter"",""5"",""15550""
","
","
","""event"",""trial"",""time""
""fullscreenenter"",""5"",""15550""
","
",517.6699999719858,NA,48,NA,NA,3000,1,NA,NA,images/earth.jpg,images/rocket2,images/rocket1,null,images/rocket2,NA,1,real,null,2,NA,NA,NA,sub48
d3-animate-choice,199,768650,0.0-76.0-1.21,TRUE,FALSE,TRUE,TRUE,"""event"",""trial"",""time""
""fullscreenenter"",""5"",""15550""
","
","
","""event"",""trial"",""time""
""fullscreenenter"",""5"",""15550""
","
",502.7049999916926,NA,48,NA,NA,3000,1,NA,NA,images/purpleplanet.jpg,images/alien4,images/alien3,images/rocket2,images/alien4,images/t.png,2,real,false,2,rare,1,2020-06-14T20:20:39Z,sub48
two-step-fixation,200,769653,0.0-76.0-2.21,TRUE,FALSE,TRUE,TRUE,"""event"",""trial"",""time""
""fullscreenenter"",""5"",""15550""
","
","
","""event"",""trial"",""time""
""fullscreenenter"",""5"",""15550""
","
",NA,images/earth.jpg,NA,NA,NA,NA,NA,NA,NA,NA,NA,NA,NA,NA,NA,fixation,NA,NA,NA,NA,NA,NA,sub48
d3-animate-choice,201,772191,0.0-76.0-0.22,TRUE,FALSE,TRUE,TRUE,"""event"",""trial"",""time""
""fullscreenenter"",""5"",""15550""
","
","
","""event"",""trial"",""time""
""fullscreenenter"",""5"",""15550""
","
",536.4050000207499,NA,49,NA,NA,3000,1,NA,NA,images/earth.jpg,images/rocket2,images/rocket1,null,images/rocket1,NA,1,real,null,1,NA,NA,NA,sub48
d3-animate-choice,202,774979,0.0-76.0-1.22,TRUE,FALSE,TRUE,TRUE,"""event"",""trial"",""time""
""fullscreenenter"",""5"",""15550""
","
","
","""event"",""trial"",""time""
""fullscreenenter"",""5"",""15550""
","
",785.0900000194088,NA,49,NA,NA,3000,1,NA,NA,images/redplanet1.jpg,images/alien2,images/alien1,images/rocket1,images/alien1,images/nothing.png,2,real,false,1,rare,0,2020-06-14T20:20:46Z,sub48
two-step-fixation,203,775981,0.0-76.0-2.22,TRUE,FALSE,TRUE,TRUE,"""event"",""trial"",""time""
""fullscreenenter"",""5"",""15550""
","
","
","""event"",""trial"",""time""
""fullscreenenter"",""5"",""15550""
","
",NA,images/earth.jpg,NA,NA,NA,NA,NA,NA,NA,NA,NA,NA,NA,NA,NA,fixation,NA,NA,NA,NA,NA,NA,sub48
d3-animate-choice,204,778295,0.0-76.0-0.23,TRUE,FALSE,TRUE,TRUE,"""event"",""trial"",""time""
""fullscreenenter"",""5"",""15550""
","
","
","""event"",""trial"",""time""
""fullscreenenter"",""5"",""15550""
","
",312.02999991364777,NA,48,NA,NA,3000,1,NA,NA,images/earth.jpg,images/rocket2,images/rocket1,null,images/rocket2,NA,1,real,null,2,NA,NA,NA,sub48
d3-animate-choice,205,780945,0.0-76.0-1.23,TRUE,FALSE,TRUE,TRUE,"""event"",""trial"",""time""
""fullscreenenter"",""5"",""15550""
","
","
","""event"",""trial"",""time""
""fullscreenenter"",""5"",""15550""
","
",647.679999936372,NA,49,NA,NA,3000,1,NA,NA,images/redplanet1.jpg,images/alien2,images/alien1,images/rocket2,images/alien1,images/t.png,2,real,true,1,common,1,2020-06-14T20:20:51Z,sub48
two-step-fixation,206,781947,0.0-76.0-2.23,TRUE,FALSE,TRUE,TRUE,"""event"",""trial"",""time""
""fullscreenenter"",""5"",""15550""
","
","
","""event"",""trial"",""time""
""fullscreenenter"",""5"",""15550""
","
",NA,images/earth.jpg,NA,NA,NA,NA,NA,NA,NA,NA,NA,NA,NA,NA,NA,fixation,NA,NA,NA,NA,NA,NA,sub48
d3-animate-choice,207,784367,0.0-76.0-0.24,TRUE,FALSE,TRUE,TRUE,"""event"",""trial"",""time""
""fullscreenenter"",""5"",""15550""
","
","
","""event"",""trial"",""time""
""fullscreenenter"",""5"",""15550""
","
",417.27500001434237,NA,48,NA,NA,3000,1,NA,NA,images/earth.jpg,images/rocket2,images/rocket1,null,images/rocket2,NA,1,real,null,2,NA,NA,NA,sub48
d3-animate-choice,208,787173,0.0-76.0-1.24,TRUE,FALSE,TRUE,TRUE,"""event"",""trial"",""time""
""fullscreenenter"",""5"",""15550""
","
","
","""event"",""trial"",""time""
""fullscreenenter"",""5"",""15550""
","
",803.2200000016019,NA,49,NA,NA,3000,1,NA,NA,images/purpleplanet.jpg,images/alien4,images/alien3,images/rocket2,images/alien3,images/nothing.png,2,real,false,1,rare,0,2020-06-14T20:20:58Z,sub48
two-step-fixation,209,788177,0.0-76.0-2.24,TRUE,FALSE,TRUE,TRUE,"""event"",""trial"",""time""
""fullscreenenter"",""5"",""15550""
","
","
","""event"",""trial"",""time""
""fullscreenenter"",""5"",""15550""
","
",NA,images/earth.jpg,NA,NA,NA,NA,NA,NA,NA,NA,NA,NA,NA,NA,NA,fixation,NA,NA,NA,NA,NA,NA,sub48
d3-animate-choice,210,790552,0.0-76.0-0.25,TRUE,FALSE,TRUE,TRUE,"""event"",""trial"",""time""
""fullscreenenter"",""5"",""15550""
","
","
","""event"",""trial"",""time""
""fullscreenenter"",""5"",""15550""
","
",371.79000000469387,NA,48,NA,NA,3000,1,NA,NA,images/earth.jpg,images/rocket2,images/rocket1,null,images/rocket2,NA,1,real,null,2,NA,NA,NA,sub48
d3-animate-choice,211,793265,0.0-76.0-1.25,TRUE,FALSE,TRUE,TRUE,"""event"",""trial"",""time""
""fullscreenenter"",""5"",""15550""
","
","
","""event"",""trial"",""time""
""fullscreenenter"",""5"",""15550""
","
",710.300000035204,NA,49,NA,NA,3000,1,NA,NA,images/redplanet1.jpg,images/alien2,images/alien1,images/rocket2,images/alien1,images/nothing.png,2,real,true,1,common,0,2020-06-14T20:21:04Z,sub48
two-step-fixation,212,794267,0.0-76.0-2.25,TRUE,FALSE,TRUE,TRUE,"""event"",""trial"",""time""
""fullscreenenter"",""5"",""15550""
","
","
","""event"",""trial"",""time""
""fullscreenenter"",""5"",""15550""
","
",NA,images/earth.jpg,NA,NA,NA,NA,NA,NA,NA,NA,NA,NA,NA,NA,NA,fixation,NA,NA,NA,NA,NA,NA,sub48
d3-animate-choice,213,796676,0.0-76.0-0.26,TRUE,FALSE,TRUE,TRUE,"""event"",""trial"",""time""
""fullscreenenter"",""5"",""15550""
","
","
","""event"",""trial"",""time""
""fullscreenenter"",""5"",""15550""
","
",405.32500005792826,NA,48,NA,NA,3000,1,NA,NA,images/earth.jpg,images/rocket2,images/rocket1,null,images/rocket2,NA,1,real,null,2,NA,NA,NA,sub48
d3-animate-choice,214,799213,0.0-76.0-1.26,TRUE,FALSE,TRUE,TRUE,"""event"",""trial"",""time""
""fullscreenenter"",""5"",""15550""
","
","
","""event"",""trial"",""time""
""fullscreenenter"",""5"",""15550""
","
",533.0150000518188,NA,48,NA,NA,3000,1,NA,NA,images/redplanet1.jpg,images/alien2,images/alien1,images/rocket2,images/alien2,images/t.png,2,real,true,2,common,1,2020-06-14T20:21:10Z,sub48
two-step-fixation,215,800215,0.0-76.0-2.26,TRUE,FALSE,TRUE,TRUE,"""event"",""trial"",""time""
""fullscreenenter"",""5"",""15550""
","
","
","""event"",""trial"",""time""
""fullscreenenter"",""5"",""15550""
","
",NA,images/earth.jpg,NA,NA,NA,NA,NA,NA,NA,NA,NA,NA,NA,NA,NA,fixation,NA,NA,NA,NA,NA,NA,sub48
d3-animate-choice,216,802766,0.0-76.0-0.27,TRUE,FALSE,TRUE,TRUE,"""event"",""trial"",""time""
""fullscreenenter"",""5"",""15550""
","
","
","""event"",""trial"",""time""
""fullscreenenter"",""5"",""15550""
","
",547.9000000050291,NA,49,NA,NA,3000,1,NA,NA,images/earth.jpg,images/rocket2,images/rocket1,null,images/rocket1,NA,1,real,null,1,NA,NA,NA,sub48
d3-animate-choice,217,805087,0.0-76.0-1.27,TRUE,FALSE,TRUE,TRUE,"""event"",""trial"",""time""
""fullscreenenter"",""5"",""15550""
","
","
","""event"",""trial"",""time""
""fullscreenenter"",""5"",""15550""
","
",318.50500009022653,NA,48,NA,NA,3000,1,NA,NA,images/purpleplanet.jpg,images/alien4,images/alien3,images/rocket1,images/alien4,images/t.png,2,real,true,2,common,1,2020-06-14T20:21:16Z,sub48
two-step-fixation,218,806090,0.0-76.0-2.27,TRUE,FALSE,TRUE,TRUE,"""event"",""trial"",""time""
""fullscreenenter"",""5"",""15550""
","
","
","""event"",""trial"",""time""
""fullscreenenter"",""5"",""15550""
","
",NA,images/earth.jpg,NA,NA,NA,NA,NA,NA,NA,NA,NA,NA,NA,NA,NA,fixation,NA,NA,NA,NA,NA,NA,sub48
d3-animate-choice,219,808600,0.0-76.0-0.28,TRUE,FALSE,TRUE,TRUE,"""event"",""trial"",""time""
""fullscreenenter"",""5"",""15550""
","
","
","""event"",""trial"",""time""
""fullscreenenter"",""5"",""15550""
","
",506.82000000961125,NA,48,NA,NA,3000,1,NA,NA,images/earth.jpg,images/rocket2,images/rocket1,null,images/rocket2,NA,1,real,null,2,NA,NA,NA,sub48
d3-animate-choice,220,811448,0.0-76.0-1.28,TRUE,FALSE,TRUE,TRUE,"""event"",""trial"",""time""
""fullscreenenter"",""5"",""15550""
","
","
","""event"",""trial"",""time""
""fullscreenenter"",""5"",""15550""
","
",844.3050000350922,NA,49,NA,NA,3000,1,NA,NA,images/purpleplanet.jpg,images/alien4,images/alien3,images/rocket2,images/alien3,images/nothing.png,2,real,false,1,rare,0,2020-06-14T20:21:22Z,sub48
two-step-fixation,221,812451,0.0-76.0-2.28,TRUE,FALSE,TRUE,TRUE,"""event"",""trial"",""time""
""fullscreenenter"",""5"",""15550""
","
","
","""event"",""trial"",""time""
""fullscreenenter"",""5"",""15550""
","
",NA,images/earth.jpg,NA,NA,NA,NA,NA,NA,NA,NA,NA,NA,NA,NA,NA,fixation,NA,NA,NA,NA,NA,NA,sub48
d3-animate-choice,222,814858,0.0-76.0-0.29,TRUE,FALSE,TRUE,TRUE,"""event"",""trial"",""time""
""fullscreenenter"",""5"",""15550""
","
","
","""event"",""trial"",""time""
""fullscreenenter"",""5"",""15550""
","
",405.06499994080514,NA,48,NA,NA,3000,1,NA,NA,images/earth.jpg,images/rocket2,images/rocket1,null,images/rocket2,NA,1,real,null,2,NA,NA,NA,sub48
d3-animate-choice,223,817221,0.0-76.0-1.29,TRUE,FALSE,TRUE,TRUE,"""event"",""trial"",""time""
""fullscreenenter"",""5"",""15550""
","
","
","""event"",""trial"",""time""
""fullscreenenter"",""5"",""15550""
","
",359.4100000336766,NA,49,NA,NA,3000,1,NA,NA,images/redplanet1.jpg,images/alien2,images/alien1,images/rocket2,images/alien1,images/t.png,2,real,true,1,common,1,2020-06-14T20:21:28Z,sub48
two-step-fixation,224,818224,0.0-76.0-2.29,TRUE,FALSE,TRUE,TRUE,"""event"",""trial"",""time""
""fullscreenenter"",""5"",""15550""
","
","
","""event"",""trial"",""time""
""fullscreenenter"",""5"",""15550""
","
",NA,images/earth.jpg,NA,NA,NA,NA,NA,NA,NA,NA,NA,NA,NA,NA,NA,fixation,NA,NA,NA,NA,NA,NA,sub48
d3-animate-choice,225,820738,0.0-76.0-0.30,TRUE,FALSE,TRUE,TRUE,"""event"",""trial"",""time""
""fullscreenenter"",""5"",""15550""
","
","
","""event"",""trial"",""time""
""fullscreenenter"",""5"",""15550""
","
",511.83500001206994,NA,48,NA,NA,3000,1,NA,NA,images/earth.jpg,images/rocket2,images/rocket1,null,images/rocket2,NA,1,real,null,2,NA,NA,NA,sub48
d3-animate-choice,226,823309,0.0-76.0-1.30,TRUE,FALSE,TRUE,TRUE,"""event"",""trial"",""time""
""fullscreenenter"",""5"",""15550""
","
","
","""event"",""trial"",""time""
""fullscreenenter"",""5"",""15550""
","
",566.3999998942018,NA,49,NA,NA,3000,1,NA,NA,images/redplanet1.jpg,images/alien2,images/alien1,images/rocket2,images/alien1,images/t.png,2,real,true,1,common,1,2020-06-14T20:21:34Z,sub48
two-step-fixation,227,824311,0.0-76.0-2.30,TRUE,FALSE,TRUE,TRUE,"""event"",""trial"",""time""
""fullscreenenter"",""5"",""15550""
","
","
","""event"",""trial"",""time""
""fullscreenenter"",""5"",""15550""
","
",NA,images/earth.jpg,NA,NA,NA,NA,NA,NA,NA,NA,NA,NA,NA,NA,NA,fixation,NA,NA,NA,NA,NA,NA,sub48
d3-animate-choice,228,826639,0.0-76.0-0.31,TRUE,FALSE,TRUE,TRUE,"""event"",""trial"",""time""
""fullscreenenter"",""5"",""15550""
","
","
","""event"",""trial"",""time""
""fullscreenenter"",""5"",""15550""
","
",326.0999999474734,NA,48,NA,NA,3000,1,NA,NA,images/earth.jpg,images/rocket2,images/rocket1,null,images/rocket2,NA,1,real,null,2,NA,NA,NA,sub48
d3-animate-choice,229,828965,0.0-76.0-1.31,TRUE,FALSE,TRUE,TRUE,"""event"",""trial"",""time""
""fullscreenenter"",""5"",""15550""
","
","
","""event"",""trial"",""time""
""fullscreenenter"",""5"",""15550""
","
",321.6750000137836,NA,48,NA,NA,3000,1,NA,NA,images/purpleplanet.jpg,images/alien4,images/alien3,images/rocket2,images/alien4,images/t.png,2,real,false,2,rare,1,2020-06-14T20:21:40Z,sub48
two-step-fixation,230,829968,0.0-76.0-2.31,TRUE,FALSE,TRUE,TRUE,"""event"",""trial"",""time""
""fullscreenenter"",""5"",""15550""
","
","
","""event"",""trial"",""time""
""fullscreenenter"",""5"",""15550""
","
",NA,images/earth.jpg,NA,NA,NA,NA,NA,NA,NA,NA,NA,NA,NA,NA,NA,fixation,NA,NA,NA,NA,NA,NA,sub48
d3-animate-choice,231,832245,0.0-76.0-0.32,TRUE,FALSE,TRUE,TRUE,"""event"",""trial"",""time""
""fullscreenenter"",""5"",""15550""
","
","
","""event"",""trial"",""time""
""fullscreenenter"",""5"",""15550""
","
",273.6199999926612,NA,49,NA,NA,3000,1,NA,NA,images/earth.jpg,images/rocket2,images/rocket1,null,images/rocket1,NA,1,real,null,1,NA,NA,NA,sub48
d3-animate-choice,232,834722,0.0-76.0-1.32,TRUE,FALSE,TRUE,TRUE,"""event"",""trial"",""time""
""fullscreenenter"",""5"",""15550""
","
","
","""event"",""trial"",""time""
""fullscreenenter"",""5"",""15550""
","
",474.7800000477582,NA,49,NA,NA,3000,1,NA,NA,images/purpleplanet.jpg,images/alien4,images/alien3,images/rocket1,images/alien3,images/t.png,2,real,true,1,common,1,2020-06-14T20:21:45Z,sub48
two-step-fixation,233,835725,0.0-76.0-2.32,TRUE,FALSE,TRUE,TRUE,"""event"",""trial"",""time""
""fullscreenenter"",""5"",""15550""
","
","
","""event"",""trial"",""time""
""fullscreenenter"",""5"",""15550""
","
",NA,images/earth.jpg,NA,NA,NA,NA,NA,NA,NA,NA,NA,NA,NA,NA,NA,fixation,NA,NA,NA,NA,NA,NA,sub48
d3-animate-choice,234,838191,0.0-76.0-0.33,TRUE,FALSE,TRUE,TRUE,"""event"",""trial"",""time""
""fullscreenenter"",""5"",""15550""
","
","
","""event"",""trial"",""time""
""fullscreenenter"",""5"",""15550""
","
",463.4150000056252,NA,48,NA,NA,3000,1,NA,NA,images/earth.jpg,images/rocket2,images/rocket1,null,images/rocket2,NA,1,real,null,2,NA,NA,NA,sub48
d3-animate-choice,235,840695,0.0-76.0-1.33,TRUE,FALSE,TRUE,TRUE,"""event"",""trial"",""time""
""fullscreenenter"",""5"",""15550""
","
","
","""event"",""trial"",""time""
""fullscreenenter"",""5"",""15550""
","
",500.1749999355525,NA,48,NA,NA,3000,1,NA,NA,images/redplanet1.jpg,images/alien2,images/alien1,images/rocket2,images/alien2,images/t.png,2,real,true,2,common,1,2020-06-14T20:21:51Z,sub48
two-step-fixation,236,841699,0.0-76.0-2.33,TRUE,FALSE,TRUE,TRUE,"""event"",""trial"",""time""
""fullscreenenter"",""5"",""15550""
","
","
","""event"",""trial"",""time""
""fullscreenenter"",""5"",""15550""
","
",NA,images/earth.jpg,NA,NA,NA,NA,NA,NA,NA,NA,NA,NA,NA,NA,NA,fixation,NA,NA,NA,NA,NA,NA,sub48
d3-animate-choice,237,844068,0.0-76.0-0.34,TRUE,FALSE,TRUE,TRUE,"""event"",""trial"",""time""
""fullscreenenter"",""5"",""15550""
","
","
","""event"",""trial"",""time""
""fullscreenenter"",""5"",""15550""
","
",364.934999961406,NA,49,NA,NA,3000,1,NA,NA,images/earth.jpg,images/rocket2,images/rocket1,null,images/rocket1,NA,1,real,null,1,NA,NA,NA,sub48
d3-animate-choice,238,846760,0.0-76.0-1.34,TRUE,FALSE,TRUE,TRUE,"""event"",""trial"",""time""
""fullscreenenter"",""5"",""15550""
","
","
","""event"",""trial"",""time""
""fullscreenenter"",""5"",""15550""
","
",688.884999952279,NA,49,NA,NA,3000,1,NA,NA,images/purpleplanet.jpg,images/alien4,images/alien3,images/rocket1,images/alien3,images/t.png,2,real,true,1,common,1,2020-06-14T20:21:57Z,sub48
two-step-fixation,239,847763,0.0-76.0-2.34,TRUE,FALSE,TRUE,TRUE,"""event"",""trial"",""time""
""fullscreenenter"",""5"",""15550""
","
","
","""event"",""trial"",""time""
""fullscreenenter"",""5"",""15550""
","
",NA,images/earth.jpg,NA,NA,NA,NA,NA,NA,NA,NA,NA,NA,NA,NA,NA,fixation,NA,NA,NA,NA,NA,NA,sub48
d3-animate-choice,240,850295,0.0-76.0-0.35,TRUE,FALSE,TRUE,TRUE,"""event"",""trial"",""time""
""fullscreenenter"",""5"",""15550""
","
","
","""event"",""trial"",""time""
""fullscreenenter"",""5"",""15550""
","
",529.380000079982,NA,48,NA,NA,3000,1,NA,NA,images/earth.jpg,images/rocket2,images/rocket1,null,images/rocket2,NA,1,real,null,2,NA,NA,NA,sub48
d3-animate-choice,241,852708,0.0-76.0-1.35,TRUE,FALSE,TRUE,TRUE,"""event"",""trial"",""time""
""fullscreenenter"",""5"",""15550""
","
","
","""event"",""trial"",""time""
""fullscreenenter"",""5"",""15550""
","
",410.9150000149384,NA,49,NA,NA,3000,1,NA,NA,images/redplanet1.jpg,images/alien2,images/alien1,images/rocket2,images/alien1,images/t.png,2,real,true,1,common,1,2020-06-14T20:22:03Z,sub48
two-step-fixation,242,853710,0.0-76.0-2.35,TRUE,FALSE,TRUE,TRUE,"""event"",""trial"",""time""
""fullscreenenter"",""5"",""15550""
","
","
","""event"",""trial"",""time""
""fullscreenenter"",""5"",""15550""
","
",NA,images/earth.jpg,NA,NA,NA,NA,NA,NA,NA,NA,NA,NA,NA,NA,NA,fixation,NA,NA,NA,NA,NA,NA,sub48
d3-animate-choice,243,856263,0.0-76.0-0.36,TRUE,FALSE,TRUE,TRUE,"""event"",""trial"",""time""
""fullscreenenter"",""5"",""15550""
","
","
","""event"",""trial"",""time""
""fullscreenenter"",""5"",""15550""
","
",549.5250000385568,NA,49,NA,NA,3000,1,NA,NA,images/earth.jpg,images/rocket2,images/rocket1,null,images/rocket1,NA,1,real,null,1,NA,NA,NA,sub48
d3-animate-choice,244,859004,0.0-76.0-1.36,TRUE,FALSE,TRUE,TRUE,"""event"",""trial"",""time""
""fullscreenenter"",""5"",""15550""
","
","
","""event"",""trial"",""time""
""fullscreenenter"",""5"",""15550""
","
",738.065000041388,NA,49,NA,NA,3000,1,NA,NA,images/purpleplanet.jpg,images/alien4,images/alien3,images/rocket1,images/alien3,images/nothing.png,2,real,true,1,common,0,2020-06-14T20:22:10Z,sub48
two-step-fixation,245,860007,0.0-76.0-2.36,TRUE,FALSE,TRUE,TRUE,"""event"",""trial"",""time""
""fullscreenenter"",""5"",""15550""
","
","
","""event"",""trial"",""time""
""fullscreenenter"",""5"",""15550""
","
",NA,images/earth.jpg,NA,NA,NA,NA,NA,NA,NA,NA,NA,NA,NA,NA,NA,fixation,NA,NA,NA,NA,NA,NA,sub48
d3-animate-choice,246,862399,0.0-76.0-0.37,TRUE,FALSE,TRUE,TRUE,"""event"",""trial"",""time""
""fullscreenenter"",""5"",""15550""
","
","
","""event"",""trial"",""time""
""fullscreenenter"",""5"",""15550""
","
",389.1699999803677,NA,48,NA,NA,3000,1,NA,NA,images/earth.jpg,images/rocket2,images/rocket1,null,images/rocket2,NA,1,real,null,2,NA,NA,NA,sub48
d3-animate-choice,247,865000,0.0-76.0-1.37,TRUE,FALSE,TRUE,TRUE,"""event"",""trial"",""time""
""fullscreenenter"",""5"",""15550""
","
","
","""event"",""trial"",""time""
""fullscreenenter"",""5"",""15550""
","
",597.6999999256805,NA,49,NA,NA,3000,1,NA,NA,images/redplanet1.jpg,images/alien2,images/alien1,images/rocket2,images/alien1,images/t.png,2,real,true,1,common,1,2020-06-14T20:22:16Z,sub48
two-step-fixation,248,866003,0.0-76.0-2.37,TRUE,FALSE,TRUE,TRUE,"""event"",""trial"",""time""
""fullscreenenter"",""5"",""15550""
","
","
","""event"",""trial"",""time""
""fullscreenenter"",""5"",""15550""
","
",NA,images/earth.jpg,NA,NA,NA,NA,NA,NA,NA,NA,NA,NA,NA,NA,NA,fixation,NA,NA,NA,NA,NA,NA,sub48
d3-animate-choice,249,868595,0.0-76.0-0.38,TRUE,FALSE,TRUE,TRUE,"""event"",""trial"",""time""
""fullscreenenter"",""5"",""15550""
","
","
","""event"",""trial"",""time""
""fullscreenenter"",""5"",""15550""
","
",588.7299999594688,NA,48,NA,NA,3000,1,NA,NA,images/earth.jpg,images/rocket2,images/rocket1,null,images/rocket2,NA,1,real,null,2,NA,NA,NA,sub48
d3-animate-choice,250,871083,0.0-76.0-1.38,TRUE,FALSE,TRUE,TRUE,"""event"",""trial"",""time""
""fullscreenenter"",""5"",""15550""
","
","
","""event"",""trial"",""time""
""fullscreenenter"",""5"",""15550""
","
",486.37000005692244,NA,49,NA,NA,3000,1,NA,NA,images/redplanet1.jpg,images/alien2,images/alien1,images/rocket2,images/alien1,images/nothing.png,2,real,true,1,common,0,2020-06-14T20:22:22Z,sub48
two-step-fixation,251,872087,0.0-76.0-2.38,TRUE,FALSE,TRUE,TRUE,"""event"",""trial"",""time""
""fullscreenenter"",""5"",""15550""
","
","
","""event"",""trial"",""time""
""fullscreenenter"",""5"",""15550""
","
",NA,images/earth.jpg,NA,NA,NA,NA,NA,NA,NA,NA,NA,NA,NA,NA,NA,fixation,NA,NA,NA,NA,NA,NA,sub48
d3-animate-choice,252,874519,0.0-76.0-0.39,TRUE,FALSE,TRUE,TRUE,"""event"",""trial"",""time""
""fullscreenenter"",""5"",""15550""
","
","
","""event"",""trial"",""time""
""fullscreenenter"",""5"",""15550""
","
",428.64499997813255,NA,48,NA,NA,3000,1,NA,NA,images/earth.jpg,images/rocket2,images/rocket1,null,images/rocket2,NA,1,real,null,2,NA,NA,NA,sub48
d3-animate-choice,253,876835,0.0-76.0-1.39,TRUE,FALSE,TRUE,TRUE,"""event"",""trial"",""time""
""fullscreenenter"",""5"",""15550""
","
","
","""event"",""trial"",""time""
""fullscreenenter"",""5"",""15550""
","
",312.06000002566725,NA,48,NA,NA,3000,1,NA,NA,images/purpleplanet.jpg,images/alien4,images/alien3,images/rocket2,images/alien4,images/nothing.png,2,real,false,2,rare,0,2020-06-14T20:22:27Z,sub48
two-step-fixation,254,877837,0.0-76.0-2.39,TRUE,FALSE,TRUE,TRUE,"""event"",""trial"",""time""
""fullscreenenter"",""5"",""15550""
","
","
","""event"",""trial"",""time""
""fullscreenenter"",""5"",""15550""
","
",NA,images/earth.jpg,NA,NA,NA,NA,NA,NA,NA,NA,NA,NA,NA,NA,NA,fixation,NA,NA,NA,NA,NA,NA,sub48
d3-animate-choice,255,879901,0.0-76.0-0.40,TRUE,FALSE,TRUE,TRUE,"""event"",""trial"",""time""
""fullscreenenter"",""5"",""15550""
","
","
","""event"",""trial"",""time""
""fullscreenenter"",""5"",""15550""
","
",60.13499991968274,NA,49,NA,NA,3000,1,NA,NA,images/earth.jpg,images/rocket2,images/rocket1,null,images/rocket1,NA,1,real,null,1,NA,NA,NA,sub48
d3-animate-choice,256,882655,0.0-76.0-1.40,TRUE,FALSE,TRUE,TRUE,"""event"",""trial"",""time""
""fullscreenenter"",""5"",""15550""
","
","
","""event"",""trial"",""time""
""fullscreenenter"",""5"",""15550""
","
",751.6149999573827,NA,48,NA,NA,3000,1,NA,NA,images/redplanet1.jpg,images/alien2,images/alien1,images/rocket1,images/alien2,images/nothing.png,2,real,false,2,rare,0,2020-06-14T20:22:33Z,sub48
two-step-fixation,257,883657,0.0-76.0-2.40,TRUE,FALSE,TRUE,TRUE,"""event"",""trial"",""time""
""fullscreenenter"",""5"",""15550""
","
","
","""event"",""trial"",""time""
""fullscreenenter"",""5"",""15550""
","
",NA,images/earth.jpg,NA,NA,NA,NA,NA,NA,NA,NA,NA,NA,NA,NA,NA,fixation,NA,NA,NA,NA,NA,NA,sub48
d3-animate-choice,258,886174,0.0-76.0-0.41,TRUE,FALSE,TRUE,TRUE,"""event"",""trial"",""time""
""fullscreenenter"",""5"",""15550""
","
","
","""event"",""trial"",""time""
""fullscreenenter"",""5"",""15550""
","
",513.2699999958277,NA,49,NA,NA,3000,1,NA,NA,images/earth.jpg,images/rocket2,images/rocket1,null,images/rocket1,NA,1,real,null,1,NA,NA,NA,sub48
d3-animate-choice,259,888761,0.0-76.0-1.41,TRUE,FALSE,TRUE,TRUE,"""event"",""trial"",""time""
""fullscreenenter"",""5"",""15550""
","
","
","""event"",""trial"",""time""
""fullscreenenter"",""5"",""15550""
","
",584.525000071153,NA,49,NA,NA,3000,1,NA,NA,images/redplanet1.jpg,images/alien2,images/alien1,images/rocket1,images/alien1,images/t.png,2,real,false,1,rare,1,2020-06-14T20:22:39Z,sub48
two-step-fixation,260,889764,0.0-76.0-2.41,TRUE,FALSE,TRUE,TRUE,"""event"",""trial"",""time""
""fullscreenenter"",""5"",""15550""
","
","
","""event"",""trial"",""time""
""fullscreenenter"",""5"",""15550""
","
",NA,images/earth.jpg,NA,NA,NA,NA,NA,NA,NA,NA,NA,NA,NA,NA,NA,fixation,NA,NA,NA,NA,NA,NA,sub48
d3-animate-choice,261,892322,0.0-76.0-0.42,TRUE,FALSE,TRUE,TRUE,"""event"",""trial"",""time""
""fullscreenenter"",""5"",""15550""
","
","
","""event"",""trial"",""time""
""fullscreenenter"",""5"",""15550""
","
",556.1850001104176,NA,48,NA,NA,3000,1,NA,NA,images/earth.jpg,images/rocket2,images/rocket1,null,images/rocket2,NA,1,real,null,2,NA,NA,NA,sub48
d3-animate-choice,262,894841,0.0-76.0-1.42,TRUE,FALSE,TRUE,TRUE,"""event"",""trial"",""time""
""fullscreenenter"",""5"",""15550""
","
","
","""event"",""trial"",""time""
""fullscreenenter"",""5"",""15550""
","
",516.0650000907481,NA,49,NA,NA,3000,1,NA,NA,images/redplanet1.jpg,images/alien2,images/alien1,images/rocket2,images/alien1,images/t.png,2,real,true,1,common,1,2020-06-14T20:22:45Z,sub48
two-step-fixation,263,895844,0.0-76.0-2.42,TRUE,FALSE,TRUE,TRUE,"""event"",""trial"",""time""
""fullscreenenter"",""5"",""15550""
","
","
","""event"",""trial"",""time""
""fullscreenenter"",""5"",""15550""
","
",NA,images/earth.jpg,NA,NA,NA,NA,NA,NA,NA,NA,NA,NA,NA,NA,NA,fixation,NA,NA,NA,NA,NA,NA,sub48
d3-animate-choice,264,898469,0.0-76.0-0.43,TRUE,FALSE,TRUE,TRUE,"""event"",""trial"",""time""
""fullscreenenter"",""5"",""15550""
","
","
","""event"",""trial"",""time""
""fullscreenenter"",""5"",""15550""
","
",622.8149998933077,NA,48,NA,NA,3000,1,NA,NA,images/earth.jpg,images/rocket2,images/rocket1,null,images/rocket2,NA,1,real,null,2,NA,NA,NA,sub48
d3-animate-choice,265,900911,0.0-76.0-1.43,TRUE,FALSE,TRUE,TRUE,"""event"",""trial"",""time""
""fullscreenenter"",""5"",""15550""
","
","
","""event"",""trial"",""time""
""fullscreenenter"",""5"",""15550""
","
",438.8499999186024,NA,48,NA,NA,3000,1,NA,NA,images/redplanet1.jpg,images/alien2,images/alien1,images/rocket2,images/alien2,images/t.png,2,real,true,2,common,1,2020-06-14T20:22:51Z,sub48
two-step-fixation,266,901913,0.0-76.0-2.43,TRUE,FALSE,TRUE,TRUE,"""event"",""trial"",""time""
""fullscreenenter"",""5"",""15550""
","
","
","""event"",""trial"",""time""
""fullscreenenter"",""5"",""15550""
","
",NA,images/earth.jpg,NA,NA,NA,NA,NA,NA,NA,NA,NA,NA,NA,NA,NA,fixation,NA,NA,NA,NA,NA,NA,sub48
d3-animate-choice,267,904262,0.0-76.0-0.44,TRUE,FALSE,TRUE,TRUE,"""event"",""trial"",""time""
""fullscreenenter"",""5"",""15550""
","
","
","""event"",""trial"",""time""
""fullscreenenter"",""5"",""15550""
","
",346.8050000956282,NA,48,NA,NA,3000,1,NA,NA,images/earth.jpg,images/rocket2,images/rocket1,null,images/rocket2,NA,1,real,null,2,NA,NA,NA,sub48
d3-animate-choice,268,906701,0.0-76.0-1.44,TRUE,FALSE,TRUE,TRUE,"""event"",""trial"",""time""
""fullscreenenter"",""5"",""15550""
","
","
","""event"",""trial"",""time""
""fullscreenenter"",""5"",""15550""
","
",435.3200000477955,NA,49,NA,NA,3000,1,NA,NA,images/purpleplanet.jpg,images/alien4,images/alien3,images/rocket2,images/alien3,images/nothing.png,2,real,false,1,rare,0,2020-06-14T20:22:57Z,sub48
two-step-fixation,269,907704,0.0-76.0-2.44,TRUE,FALSE,TRUE,TRUE,"""event"",""trial"",""time""
""fullscreenenter"",""5"",""15550""
","
","
","""event"",""trial"",""time""
""fullscreenenter"",""5"",""15550""
","
",NA,images/earth.jpg,NA,NA,NA,NA,NA,NA,NA,NA,NA,NA,NA,NA,NA,fixation,NA,NA,NA,NA,NA,NA,sub48
d3-animate-choice,270,910276,0.0-76.0-0.45,TRUE,FALSE,TRUE,TRUE,"""event"",""trial"",""time""
""fullscreenenter"",""5"",""15550""
","
","
","""event"",""trial"",""time""
""fullscreenenter"",""5"",""15550""
","
",569.4949999451637,NA,48,NA,NA,3000,1,NA,NA,images/earth.jpg,images/rocket2,images/rocket1,null,images/rocket2,NA,1,real,null,2,NA,NA,NA,sub48
d3-animate-choice,271,912920,0.0-76.0-1.45,TRUE,FALSE,TRUE,TRUE,"""event"",""trial"",""time""
""fullscreenenter"",""5"",""15550""
","
","
","""event"",""trial"",""time""
""fullscreenenter"",""5"",""15550""
","
",641.2099999142811,NA,48,NA,NA,3000,1,NA,NA,images/redplanet1.jpg,images/alien2,images/alien1,images/rocket2,images/alien2,images/t.png,2,real,true,2,common,1,2020-06-14T20:23:03Z,sub48
two-step-fixation,272,913923,0.0-76.0-2.45,TRUE,FALSE,TRUE,TRUE,"""event"",""trial"",""time""
""fullscreenenter"",""5"",""15550""
","
","
","""event"",""trial"",""time""
""fullscreenenter"",""5"",""15550""
","
",NA,images/earth.jpg,NA,NA,NA,NA,NA,NA,NA,NA,NA,NA,NA,NA,NA,fixation,NA,NA,NA,NA,NA,NA,sub48
d3-animate-choice,273,916429,0.0-76.0-0.46,TRUE,FALSE,TRUE,TRUE,"""event"",""trial"",""time""
""fullscreenenter"",""5"",""15550""
","
","
","""event"",""trial"",""time""
""fullscreenenter"",""5"",""15550""
","
",503.80499998573214,NA,48,NA,NA,3000,1,NA,NA,images/earth.jpg,images/rocket2,images/rocket1,null,images/rocket2,NA,1,real,null,2,NA,NA,NA,sub48
d3-animate-choice,274,918869,0.0-76.0-1.46,TRUE,FALSE,TRUE,TRUE,"""event"",""trial"",""time""
""fullscreenenter"",""5"",""15550""
","
","
","""event"",""trial"",""time""
""fullscreenenter"",""5"",""15550""
","
",436.8450000183657,NA,48,NA,NA,3000,1,NA,NA,images/redplanet1.jpg,images/alien2,images/alien1,images/rocket2,images/alien2,images/nothing.png,2,real,true,2,common,0,2020-06-14T20:23:09Z,sub48
two-step-fixation,275,919871,0.0-76.0-2.46,TRUE,FALSE,TRUE,TRUE,"""event"",""trial"",""time""
""fullscreenenter"",""5"",""15550""
","
","
","""event"",""trial"",""time""
""fullscreenenter"",""5"",""15550""
","
",NA,images/earth.jpg,NA,NA,NA,NA,NA,NA,NA,NA,NA,NA,NA,NA,NA,fixation,NA,NA,NA,NA,NA,NA,sub48
d3-animate-choice,276,922185,0.0-76.0-0.47,TRUE,FALSE,TRUE,TRUE,"""event"",""trial"",""time""
""fullscreenenter"",""5"",""15550""
","
","
","""event"",""trial"",""time""
""fullscreenenter"",""5"",""15550""
","
",311.7149999598041,NA,48,NA,NA,3000,1,NA,NA,images/earth.jpg,images/rocket2,images/rocket1,null,images/rocket2,NA,1,real,null,2,NA,NA,NA,sub48
d3-animate-choice,277,924572,0.0-76.0-1.47,TRUE,FALSE,TRUE,TRUE,"""event"",""trial"",""time""
""fullscreenenter"",""5"",""15550""
","
","
","""event"",""trial"",""time""
""fullscreenenter"",""5"",""15550""
","
",384.7350000869483,NA,48,NA,NA,3000,1,NA,NA,images/redplanet1.jpg,images/alien2,images/alien1,images/rocket2,images/alien2,images/nothing.png,2,real,true,2,common,0,2020-06-14T20:23:15Z,sub48
two-step-fixation,278,925574,0.0-76.0-2.47,TRUE,FALSE,TRUE,TRUE,"""event"",""trial"",""time""
""fullscreenenter"",""5"",""15550""
","
","
","""event"",""trial"",""time""
""fullscreenenter"",""5"",""15550""
","
",NA,images/earth.jpg,NA,NA,NA,NA,NA,NA,NA,NA,NA,NA,NA,NA,NA,fixation,NA,NA,NA,NA,NA,NA,sub48
d3-animate-choice,279,927970,0.0-76.0-0.48,TRUE,FALSE,TRUE,TRUE,"""event"",""trial"",""time""
""fullscreenenter"",""5"",""15550""
","
","
","""event"",""trial"",""time""
""fullscreenenter"",""5"",""15550""
","
",392.56499998737127,NA,49,NA,NA,3000,1,NA,NA,images/earth.jpg,images/rocket2,images/rocket1,null,images/rocket1,NA,1,real,null,1,NA,NA,NA,sub48
d3-animate-choice,280,930497,0.0-76.0-1.48,TRUE,FALSE,TRUE,TRUE,"""event"",""trial"",""time""
""fullscreenenter"",""5"",""15550""
","
","
","""event"",""trial"",""time""
""fullscreenenter"",""5"",""15550""
","
",523.8599999574944,NA,49,NA,NA,3000,1,NA,NA,images/purpleplanet.jpg,images/alien4,images/alien3,images/rocket1,images/alien3,images/t.png,2,real,true,1,common,1,2020-06-14T20:23:21Z,sub48
two-step-fixation,281,931499,0.0-76.0-2.48,TRUE,FALSE,TRUE,TRUE,"""event"",""trial"",""time""
""fullscreenenter"",""5"",""15550""
","
","
","""event"",""trial"",""time""
""fullscreenenter"",""5"",""15550""
","
",NA,images/earth.jpg,NA,NA,NA,NA,NA,NA,NA,NA,NA,NA,NA,NA,NA,fixation,NA,NA,NA,NA,NA,NA,sub48
d3-animate-choice,282,933898,0.0-76.0-0.49,TRUE,FALSE,TRUE,TRUE,"""event"",""trial"",""time""
""fullscreenenter"",""5"",""15550""
","
","
","""event"",""trial"",""time""
""fullscreenenter"",""5"",""15550""
","
",395.18500003032386,NA,49,NA,NA,3000,1,NA,NA,images/earth.jpg,images/rocket2,images/rocket1,null,images/rocket1,NA,1,real,null,1,NA,NA,NA,sub48
d3-animate-choice,283,936501,0.0-76.0-1.49,TRUE,FALSE,TRUE,TRUE,"""event"",""trial"",""time""
""fullscreenenter"",""5"",""15550""
","
","
","""event"",""trial"",""time""
""fullscreenenter"",""5"",""15550""
","
",600.840000086464,NA,49,NA,NA,3000,1,NA,NA,images/purpleplanet.jpg,images/alien4,images/alien3,images/rocket1,images/alien3,images/nothing.png,2,real,true,1,common,0,2020-06-14T20:23:27Z,sub48
two-step-fixation,284,937504,0.0-76.0-2.49,TRUE,FALSE,TRUE,TRUE,"""event"",""trial"",""time""
""fullscreenenter"",""5"",""15550""
","
","
","""event"",""trial"",""time""
""fullscreenenter"",""5"",""15550""
","
",NA,images/earth.jpg,NA,NA,NA,NA,NA,NA,NA,NA,NA,NA,NA,NA,NA,fixation,NA,NA,NA,NA,NA,NA,sub48
