trial_type,trial_index,time_elapsed,internal_node_id,rocket_sides,red_planet_first_rocket,red_display_order,purple_display_order,interactions,blur_events,focus_events,fullscreenenter_events,fullscreenexit_events,rt,stimulus,key_press,button_pressed,success,duration,valid_pressed,rts,keys,planet_text,right_text,left_text,center_text,chosen_text,reward_text,trial_stage,practice_trial,transition_type,choice,transition,reward,timestamp,subject_id
pavlovia,0,5,0.0-0.0,TRUE,TRUE,TRUE,FALSE,"
","
","
","
","
",NA,NA,NA,NA,NA,NA,NA,NA,NA,NA,NA,NA,NA,NA,NA,NA,NA,NA,NA,NA,NA,NA,sub101
html-keyboard-response,1,3027,0.0-1.0,TRUE,TRUE,TRUE,FALSE,"
","
","
","
","
",3019.87000007648,Welcome! Press the space bar to begin.,32,NA,NA,NA,NA,NA,NA,NA,NA,NA,NA,NA,NA,NA,NA,NA,NA,NA,NA,NA,sub101
audio-keyboard-response,2,5908,0.0-2.0,TRUE,TRUE,TRUE,FALSE,"
","
","
","
","
",2429,audio/beep_loop.wav,32,NA,NA,NA,NA,NA,NA,NA,NA,NA,NA,NA,NA,NA,NA,NA,NA,NA,NA,NA,sub101
audio-button-response,3,8061,0.0-3.0,TRUE,TRUE,TRUE,FALSE,"
","
","
","
","
",NaN,audio/fish.mp3,NA,1,NA,NA,NA,NA,NA,NA,NA,NA,NA,NA,NA,NA,NA,NA,NA,NA,NA,NA,sub101
audio-button-response,4,11123,0.0-4.0,TRUE,TRUE,TRUE,FALSE,"""event"",""trial"",""time""
""fullscreenenter"",""5"",""14874""
","
","
","""event"",""trial"",""time""
""fullscreenenter"",""5"",""14874""
","
",NaN,audio/tiger.mp3,NA,4,NA,NA,NA,NA,NA,NA,NA,NA,NA,NA,NA,NA,NA,NA,NA,NA,NA,NA,sub101
fullscreen,5,15769,0.0-5.0,TRUE,TRUE,TRUE,FALSE,"""event"",""trial"",""time""
""fullscreenenter"",""5"",""14874""
","
","
","""event"",""trial"",""time""
""fullscreenenter"",""5"",""14874""
","
",NA,NA,NA,NA,TRUE,NA,NA,NA,NA,NA,NA,NA,NA,NA,NA,NA,NA,NA,NA,NA,NA,NA,sub101
d3-instructions,6,30805,0.0-6.0,TRUE,TRUE,TRUE,FALSE,"""event"",""trial"",""time""
""fullscreenenter"",""5"",""14874""
","
","
","""event"",""trial"",""time""
""fullscreenenter"",""5"",""14874""
","
",NA,NA,NA,NA,NA,NA,NA,NA,NA,NA,NA,NA,NA,NA,NA,NA,NA,NA,NA,NA,NA,NA,sub101
d3-instructions,7,40890,0.0-7.0,TRUE,TRUE,TRUE,FALSE,"""event"",""trial"",""time""
""fullscreenenter"",""5"",""14874""
","
","
","""event"",""trial"",""time""
""fullscreenenter"",""5"",""14874""
","
",NA,NA,NA,NA,NA,NA,NA,NA,NA,NA,NA,NA,NA,NA,NA,NA,NA,NA,NA,NA,NA,NA,sub101
d3-instructions,8,48402,0.0-8.0,TRUE,TRUE,TRUE,FALSE,"""event"",""trial"",""time""
""fullscreenenter"",""5"",""14874""
","
","
","""event"",""trial"",""time""
""fullscreenenter"",""5"",""14874""
","
",NA,NA,NA,NA,NA,NA,NA,NA,NA,NA,NA,NA,NA,NA,NA,NA,NA,NA,NA,NA,NA,NA,sub101
d3-instructions,9,60135,0.0-9.0,TRUE,TRUE,TRUE,FALSE,"""event"",""trial"",""time""
""fullscreenenter"",""5"",""14874""
","
","
","""event"",""trial"",""time""
""fullscreenenter"",""5"",""14874""
","
",NA,NA,NA,NA,NA,NA,NA,NA,NA,NA,NA,NA,NA,NA,NA,NA,NA,NA,NA,NA,NA,NA,sub101
d3-instructions,10,81090,0.0-10.0,TRUE,TRUE,TRUE,FALSE,"""event"",""trial"",""time""
""fullscreenenter"",""5"",""14874""
","
","
","""event"",""trial"",""time""
""fullscreenenter"",""5"",""14874""
","
",NA,NA,NA,NA,NA,NA,NA,NA,NA,NA,NA,NA,NA,NA,NA,NA,NA,NA,NA,NA,NA,NA,sub101
d3-animate-choice,11,86670,0.0-11.0,TRUE,TRUE,TRUE,FALSE,"""event"",""trial"",""time""
""fullscreenenter"",""5"",""14874""
","
","
","""event"",""trial"",""time""
""fullscreenenter"",""5"",""14874""
","
",661.8449999950826,NA,97,NA,NA,3000,1,"3568.6599999899045,4919.579999987036",4948,images/tutgreenplanet.jpg,images/tutalien1,images/tutalien2,null,images/tutalien2,NA,NA,practice,null,NA,NA,NA,NA,sub101
d3-animate-choice,12,90343,0.0-12.0,TRUE,TRUE,TRUE,FALSE,"""event"",""trial"",""time""
""fullscreenenter"",""5"",""14874""
","
","
","""event"",""trial"",""time""
""fullscreenenter"",""5"",""14874""
","
",1665.6900000525638,NA,48,NA,NA,3000,1,NA,NA,images/tutgreenplanet.jpg,images/tutalien1,images/tutalien2,null,images/tutalien1,NA,NA,practice,null,NA,NA,NA,NA,sub101
d3-animate-choice,13,95675,0.0-13.0,TRUE,TRUE,TRUE,FALSE,"""event"",""trial"",""time""
""fullscreenenter"",""5"",""14874""
","
","
","""event"",""trial"",""time""
""fullscreenenter"",""5"",""14874""
","
",3325.899999937974,NA,49,NA,NA,3000,1,NA,NA,images/tutgreenplanet.jpg,images/tutalien1,images/tutalien2,null,images/tutalien2,NA,NA,practice,null,NA,NA,NA,NA,sub101
d3-animate-choice,14,97780,0.0-14.0,TRUE,TRUE,TRUE,FALSE,"""event"",""trial"",""time""
""fullscreenenter"",""5"",""14874""
","
","
","""event"",""trial"",""time""
""fullscreenenter"",""5"",""14874""
","
",99.6549999108538,NA,48,NA,NA,3000,1,NA,NA,images/tutgreenplanet.jpg,images/tutalien1,images/tutalien2,null,images/tutalien1,NA,NA,practice,null,NA,NA,NA,NA,sub101
d3-instructions,15,104926,0.0-15.0,TRUE,TRUE,TRUE,FALSE,"""event"",""trial"",""time""
""fullscreenenter"",""5"",""14874""
","
","
","""event"",""trial"",""time""
""fullscreenenter"",""5"",""14874""
","
",NA,NA,NA,NA,NA,NA,NA,NA,NA,NA,NA,NA,NA,NA,NA,NA,NA,NA,NA,NA,NA,NA,sub101
d3-instructions,16,111822,0.0-16.0,TRUE,TRUE,TRUE,FALSE,"""event"",""trial"",""time""
""fullscreenenter"",""5"",""14874""
","
","
","""event"",""trial"",""time""
""fullscreenenter"",""5"",""14874""
","
",NA,NA,NA,NA,NA,NA,NA,NA,NA,NA,NA,NA,NA,NA,NA,NA,NA,NA,NA,NA,NA,NA,sub101
d3-instructions,17,120663,0.0-17.0,TRUE,TRUE,TRUE,FALSE,"""event"",""trial"",""time""
""fullscreenenter"",""5"",""14874""
","
","
","""event"",""trial"",""time""
""fullscreenenter"",""5"",""14874""
","
",NA,NA,NA,NA,NA,NA,NA,NA,NA,NA,NA,NA,NA,NA,NA,NA,NA,NA,NA,NA,NA,NA,sub101
d3-instructions,18,133257,0.0-18.0,TRUE,TRUE,TRUE,FALSE,"""event"",""trial"",""time""
""fullscreenenter"",""5"",""14874""
","
","
","""event"",""trial"",""time""
""fullscreenenter"",""5"",""14874""
","
",NA,NA,NA,NA,NA,NA,NA,NA,NA,NA,NA,NA,NA,NA,NA,NA,NA,NA,NA,NA,NA,NA,sub101
d3-instructions,19,147572,0.0-19.0,TRUE,TRUE,TRUE,FALSE,"""event"",""trial"",""time""
""fullscreenenter"",""5"",""14874""
","
","
","""event"",""trial"",""time""
""fullscreenenter"",""5"",""14874""
","
",NA,NA,NA,NA,NA,NA,NA,NA,NA,NA,NA,NA,NA,NA,NA,NA,NA,NA,NA,NA,NA,NA,sub101
d3-animate-choice,20,150360,0.0-20.0,TRUE,TRUE,TRUE,FALSE,"""event"",""trial"",""time""
""fullscreenenter"",""5"",""14874""
","
","
","""event"",""trial"",""time""
""fullscreenenter"",""5"",""14874""
","
",781.2949999934062,NA,49,NA,NA,3000,1,1542.490000021644,49,images/tutyellowplanet.jpg,null,images/tutalien3,null,images/tutalien3,images/t.png,NA,practice,null,NA,NA,NA,NA,sub101
d3-animate-choice,21,152765,0.0-21.0,TRUE,TRUE,TRUE,FALSE,"""event"",""trial"",""time""
""fullscreenenter"",""5"",""14874""
","
","
","""event"",""trial"",""time""
""fullscreenenter"",""5"",""14874""
","
",400.8149999426678,NA,49,NA,NA,3000,1,NA,NA,images/tutyellowplanet.jpg,null,images/tutalien3,null,images/tutalien3,images/t.png,NA,practice,null,NA,NA,NA,NA,sub101
d3-animate-choice,22,155078,0.0-22.0,TRUE,TRUE,TRUE,FALSE,"""event"",""trial"",""time""
""fullscreenenter"",""5"",""14874""
","
","
","""event"",""trial"",""time""
""fullscreenenter"",""5"",""14874""
","
",307.52999999094754,NA,49,NA,NA,3000,1,NA,NA,images/tutyellowplanet.jpg,null,images/tutalien3,null,images/tutalien3,images/t.png,NA,practice,null,NA,NA,NA,NA,sub101
d3-animate-choice,23,157411,0.0-23.0,TRUE,TRUE,TRUE,FALSE,"""event"",""trial"",""time""
""fullscreenenter"",""5"",""14874""
","
","
","""event"",""trial"",""time""
""fullscreenenter"",""5"",""14874""
","
",328.32999993115664,NA,49,NA,NA,3000,1,NA,NA,images/tutyellowplanet.jpg,null,images/tutalien3,null,images/tutalien3,images/t.png,NA,practice,null,NA,NA,NA,NA,sub101
d3-animate-choice,24,159691,0.0-24.0,TRUE,TRUE,TRUE,FALSE,"""event"",""trial"",""time""
""fullscreenenter"",""5"",""14874""
","
","
","""event"",""trial"",""time""
""fullscreenenter"",""5"",""14874""
","
",274.3999999947846,NA,49,NA,NA,3000,1,NA,NA,images/tutyellowplanet.jpg,null,images/tutalien3,null,images/tutalien3,images/t.png,NA,practice,null,NA,NA,NA,NA,sub101
d3-animate-choice,25,161947,0.0-25.0,TRUE,TRUE,TRUE,FALSE,"""event"",""trial"",""time""
""fullscreenenter"",""5"",""14874""
","
","
","""event"",""trial"",""time""
""fullscreenenter"",""5"",""14874""
","
",251.4749999390915,NA,49,NA,NA,3000,1,NA,NA,images/tutyellowplanet.jpg,null,images/tutalien3,null,images/tutalien3,images/t.png,NA,practice,null,NA,NA,NA,NA,sub101
d3-animate-choice,26,164221,0.0-26.0,TRUE,TRUE,TRUE,FALSE,"""event"",""trial"",""time""
""fullscreenenter"",""5"",""14874""
","
","
","""event"",""trial"",""time""
""fullscreenenter"",""5"",""14874""
","
",267.91499997489154,NA,49,NA,NA,3000,1,NA,NA,images/tutyellowplanet.jpg,null,images/tutalien3,null,images/tutalien3,images/t.png,NA,practice,null,NA,NA,NA,NA,sub101
d3-animate-choice,27,167401,0.0-27.0,TRUE,TRUE,TRUE,FALSE,"""event"",""trial"",""time""
""fullscreenenter"",""5"",""14874""
","
","
","""event"",""trial"",""time""
""fullscreenenter"",""5"",""14874""
","
",64.7350000217557,NA,144,NA,NA,3000,1,"643.3149999938905,1173.3600000152364",3549,images/tutyellowplanet.jpg,null,images/tutalien3,null,images/tutalien3,images/nothing.png,NA,practice,null,NA,NA,NA,NA,sub101
d3-animate-choice,28,169879,0.0-28.0,TRUE,TRUE,TRUE,FALSE,"""event"",""trial"",""time""
""fullscreenenter"",""5"",""14874""
","
","
","""event"",""trial"",""time""
""fullscreenenter"",""5"",""14874""
","
",473.2800000347197,NA,49,NA,NA,3000,1,NA,NA,images/tutyellowplanet.jpg,null,images/tutalien3,null,images/tutalien3,images/t.png,NA,practice,null,NA,NA,NA,NA,sub101
d3-animate-choice,29,172405,0.0-29.0,TRUE,TRUE,TRUE,FALSE,"""event"",""trial"",""time""
""fullscreenenter"",""5"",""14874""
","
","
","""event"",""trial"",""time""
""fullscreenenter"",""5"",""14874""
","
",520.6100000068545,NA,49,NA,NA,3000,1,NA,NA,images/tutyellowplanet.jpg,null,images/tutalien3,null,images/tutalien3,images/t.png,NA,practice,null,NA,NA,NA,NA,sub101
d3-instructions,30,180168,0.0-30.0,TRUE,TRUE,TRUE,FALSE,"""event"",""trial"",""time""
""fullscreenenter"",""5"",""14874""
","
","
","""event"",""trial"",""time""
""fullscreenenter"",""5"",""14874""
","
",NA,NA,NA,NA,NA,NA,NA,NA,NA,NA,NA,NA,NA,NA,NA,NA,NA,NA,NA,NA,NA,NA,sub101
d3-instructions,31,190706,0.0-31.0,TRUE,TRUE,TRUE,FALSE,"""event"",""trial"",""time""
""fullscreenenter"",""5"",""14874""
","
","
","""event"",""trial"",""time""
""fullscreenenter"",""5"",""14874""
","
",NA,NA,NA,NA,NA,NA,NA,NA,NA,NA,NA,NA,NA,NA,NA,NA,NA,NA,NA,NA,NA,NA,sub101
d3-instructions,32,202776,0.0-32.0,TRUE,TRUE,TRUE,FALSE,"""event"",""trial"",""time""
""fullscreenenter"",""5"",""14874""
","
","
","""event"",""trial"",""time""
""fullscreenenter"",""5"",""14874""
","
",NA,NA,NA,NA,NA,NA,NA,NA,NA,NA,NA,NA,NA,NA,NA,NA,NA,NA,NA,NA,NA,NA,sub101
d3-instructions,33,213765,0.0-33.0,TRUE,TRUE,TRUE,FALSE,"""event"",""trial"",""time""
""fullscreenenter"",""5"",""14874""
","
","
","""event"",""trial"",""time""
""fullscreenenter"",""5"",""14874""
","
",NA,NA,NA,NA,NA,NA,NA,NA,NA,NA,NA,NA,NA,NA,NA,NA,NA,NA,NA,NA,NA,NA,sub101
d3-animate-choice,34,217694,0.0-34.0,TRUE,TRUE,TRUE,FALSE,"""event"",""trial"",""time""
""fullscreenenter"",""5"",""14874""
","
","
","""event"",""trial"",""time""
""fullscreenenter"",""5"",""14874""
","
",1923.6549999332055,NA,48,NA,NA,3000,1,NA,NA,images/tutgreenplanet.jpg,images/tutalien1,images/tutalien2,null,images/tutalien1,images/nothing.png,NA,practice,null,NA,NA,NA,NA,sub101
d3-animate-choice,35,220734,0.0-35.0,TRUE,TRUE,TRUE,FALSE,"""event"",""trial"",""time""
""fullscreenenter"",""5"",""14874""
","
","
","""event"",""trial"",""time""
""fullscreenenter"",""5"",""14874""
","
",1033.3100000862032,NA,48,NA,NA,3000,1,NA,NA,images/tutgreenplanet.jpg,images/tutalien1,images/tutalien2,null,images/tutalien1,images/nothing.png,NA,practice,null,NA,NA,NA,NA,sub101
d3-animate-choice,36,224246,0.0-36.0,TRUE,TRUE,TRUE,FALSE,"""event"",""trial"",""time""
""fullscreenenter"",""5"",""14874""
","
","
","""event"",""trial"",""time""
""fullscreenenter"",""5"",""14874""
","
",1505.6099999928847,NA,48,NA,NA,3000,1,NA,NA,images/tutgreenplanet.jpg,images/tutalien1,images/tutalien2,null,images/tutalien1,images/nothing.png,NA,practice,null,NA,NA,NA,NA,sub101
d3-animate-choice,37,226508,0.0-37.0,TRUE,TRUE,TRUE,FALSE,"""event"",""trial"",""time""
""fullscreenenter"",""5"",""14874""
","
","
","""event"",""trial"",""time""
""fullscreenenter"",""5"",""14874""
","
",258.0699999816716,NA,48,NA,NA,3000,1,NA,NA,images/tutgreenplanet.jpg,images/tutalien1,images/tutalien2,null,images/tutalien1,images/nothing.png,NA,practice,null,NA,NA,NA,NA,sub101
d3-animate-choice,38,228749,0.0-38.0,TRUE,TRUE,TRUE,FALSE,"""event"",""trial"",""time""
""fullscreenenter"",""5"",""14874""
","
","
","""event"",""trial"",""time""
""fullscreenenter"",""5"",""14874""
","
",235.21499999333173,NA,48,NA,NA,3000,1,NA,NA,images/tutgreenplanet.jpg,images/tutalien1,images/tutalien2,null,images/tutalien1,images/nothing.png,NA,practice,null,NA,NA,NA,NA,sub101
d3-animate-choice,39,231043,0.0-39.0,TRUE,TRUE,TRUE,FALSE,"""event"",""trial"",""time""
""fullscreenenter"",""5"",""14874""
","
","
","""event"",""trial"",""time""
""fullscreenenter"",""5"",""14874""
","
",286.2899999599904,NA,49,NA,NA,3000,1,NA,NA,images/tutgreenplanet.jpg,images/tutalien1,images/tutalien2,null,images/tutalien2,images/t.png,NA,practice,null,NA,NA,NA,NA,sub101
d3-animate-choice,40,233348,0.0-40.0,TRUE,TRUE,TRUE,FALSE,"""event"",""trial"",""time""
""fullscreenenter"",""5"",""14874""
","
","
","""event"",""trial"",""time""
""fullscreenenter"",""5"",""14874""
","
",299.4450000114739,NA,49,NA,NA,3000,1,NA,NA,images/tutgreenplanet.jpg,images/tutalien1,images/tutalien2,null,images/tutalien2,images/t.png,NA,practice,null,NA,NA,NA,NA,sub101
d3-animate-choice,41,235679,0.0-41.0,TRUE,TRUE,TRUE,FALSE,"""event"",""trial"",""time""
""fullscreenenter"",""5"",""14874""
","
","
","""event"",""trial"",""time""
""fullscreenenter"",""5"",""14874""
","
",325.85999998264015,NA,49,NA,NA,3000,1,NA,NA,images/tutgreenplanet.jpg,images/tutalien1,images/tutalien2,null,images/tutalien2,images/t.png,NA,practice,null,NA,NA,NA,NA,sub101
d3-animate-choice,42,237907,0.0-42.0,TRUE,TRUE,TRUE,FALSE,"""event"",""trial"",""time""
""fullscreenenter"",""5"",""14874""
","
","
","""event"",""trial"",""time""
""fullscreenenter"",""5"",""14874""
","
",222.11999993305653,NA,49,NA,NA,3000,1,NA,NA,images/tutgreenplanet.jpg,images/tutalien1,images/tutalien2,null,images/tutalien2,images/t.png,NA,practice,null,NA,NA,NA,NA,sub101
d3-animate-choice,43,240173,0.0-43.0,TRUE,TRUE,TRUE,FALSE,"""event"",""trial"",""time""
""fullscreenenter"",""5"",""14874""
","
","
","""event"",""trial"",""time""
""fullscreenenter"",""5"",""14874""
","
",261.3549999659881,NA,49,NA,NA,3000,1,NA,NA,images/tutgreenplanet.jpg,images/tutalien1,images/tutalien2,null,images/tutalien2,images/t.png,NA,practice,null,NA,NA,NA,NA,sub101
d3-instructions,44,253098,0.0-44.0,TRUE,TRUE,TRUE,FALSE,"""event"",""trial"",""time""
""fullscreenenter"",""5"",""14874""
","
","
","""event"",""trial"",""time""
""fullscreenenter"",""5"",""14874""
","
",NA,NA,NA,NA,NA,NA,NA,NA,NA,NA,NA,NA,NA,NA,NA,NA,NA,NA,NA,NA,NA,NA,sub101
d3-instructions,45,259293,0.0-45.0,TRUE,TRUE,TRUE,FALSE,"""event"",""trial"",""time""
""fullscreenenter"",""5"",""14874""
","
","
","""event"",""trial"",""time""
""fullscreenenter"",""5"",""14874""
","
",NA,NA,NA,NA,NA,NA,NA,NA,NA,NA,NA,NA,NA,NA,NA,NA,NA,NA,NA,NA,NA,NA,sub101
d3-instructions,46,264973,0.0-46.0,TRUE,TRUE,TRUE,FALSE,"""event"",""trial"",""time""
""fullscreenenter"",""5"",""14874""
","
","
","""event"",""trial"",""time""
""fullscreenenter"",""5"",""14874""
","
",NA,NA,NA,NA,NA,NA,NA,NA,NA,NA,NA,NA,NA,NA,NA,NA,NA,NA,NA,NA,NA,NA,sub101
d3-instructions,47,284194,0.0-47.0,TRUE,TRUE,TRUE,FALSE,"""event"",""trial"",""time""
""fullscreenenter"",""5"",""14874""
","
","
","""event"",""trial"",""time""
""fullscreenenter"",""5"",""14874""
","
",NA,NA,NA,NA,NA,NA,NA,NA,NA,NA,NA,NA,NA,NA,NA,NA,NA,NA,NA,NA,NA,NA,sub101
d3-instructions,48,290842,0.0-48.0,TRUE,TRUE,TRUE,FALSE,"""event"",""trial"",""time""
""fullscreenenter"",""5"",""14874""
","
","
","""event"",""trial"",""time""
""fullscreenenter"",""5"",""14874""
","
",NA,NA,NA,NA,NA,NA,NA,NA,NA,NA,NA,NA,NA,NA,NA,NA,NA,NA,NA,NA,NA,NA,sub101
d3-instructions,49,302617,0.0-49.0,TRUE,TRUE,TRUE,FALSE,"""event"",""trial"",""time""
""fullscreenenter"",""5"",""14874""
","
","
","""event"",""trial"",""time""
""fullscreenenter"",""5"",""14874""
","
",NA,NA,NA,NA,NA,NA,NA,NA,NA,NA,NA,NA,NA,NA,NA,NA,NA,NA,NA,NA,NA,NA,sub101
d3-instructions,50,311663,0.0-50.0,TRUE,TRUE,TRUE,FALSE,"""event"",""trial"",""time""
""fullscreenenter"",""5"",""14874""
","
","
","""event"",""trial"",""time""
""fullscreenenter"",""5"",""14874""
","
",NA,NA,NA,NA,NA,NA,NA,NA,NA,NA,NA,NA,NA,NA,NA,NA,NA,NA,NA,NA,NA,NA,sub101
d3-instructions,51,314478,0.0-51.0,TRUE,TRUE,TRUE,FALSE,"""event"",""trial"",""time""
""fullscreenenter"",""5"",""14874""
","
","
","""event"",""trial"",""time""
""fullscreenenter"",""5"",""14874""
","
",NA,NA,NA,NA,NA,NA,NA,NA,NA,NA,NA,NA,NA,NA,NA,NA,NA,NA,NA,NA,NA,NA,sub101
d3-instructions,52,317812,0.0-52.0,TRUE,TRUE,TRUE,FALSE,"""event"",""trial"",""time""
""fullscreenenter"",""5"",""14874""
","
","
","""event"",""trial"",""time""
""fullscreenenter"",""5"",""14874""
","
",NA,NA,NA,NA,NA,NA,NA,NA,NA,NA,NA,NA,NA,NA,NA,NA,NA,NA,NA,NA,NA,NA,sub101
d3-instructions,53,329387,0.0-53.0,TRUE,TRUE,TRUE,FALSE,"""event"",""trial"",""time""
""fullscreenenter"",""5"",""14874""
","
","
","""event"",""trial"",""time""
""fullscreenenter"",""5"",""14874""
","
",NA,NA,NA,NA,NA,NA,NA,NA,NA,NA,NA,NA,NA,NA,NA,NA,NA,NA,NA,NA,NA,NA,sub101
d3-instructions,54,342242,0.0-54.0,TRUE,TRUE,TRUE,FALSE,"""event"",""trial"",""time""
""fullscreenenter"",""5"",""14874""
","
","
","""event"",""trial"",""time""
""fullscreenenter"",""5"",""14874""
","
",NA,NA,NA,NA,NA,NA,NA,NA,NA,NA,NA,NA,NA,NA,NA,NA,NA,NA,NA,NA,NA,NA,sub101
d3-instructions,55,352187,0.0-55.0,TRUE,TRUE,TRUE,FALSE,"""event"",""trial"",""time""
""fullscreenenter"",""5"",""14874""
","
","
","""event"",""trial"",""time""
""fullscreenenter"",""5"",""14874""
","
",NA,NA,NA,NA,NA,NA,NA,NA,NA,NA,NA,NA,NA,NA,NA,NA,NA,NA,NA,NA,NA,NA,sub101
d3-instructions,56,360070,0.0-56.0,TRUE,TRUE,TRUE,FALSE,"""event"",""trial"",""time""
""fullscreenenter"",""5"",""14874""
","
","
","""event"",""trial"",""time""
""fullscreenenter"",""5"",""14874""
","
",NA,NA,NA,NA,NA,NA,NA,NA,NA,NA,NA,NA,NA,NA,NA,NA,NA,NA,NA,NA,NA,NA,sub101
d3-instructions,57,371629,0.0-57.0,TRUE,TRUE,TRUE,FALSE,"""event"",""trial"",""time""
""fullscreenenter"",""5"",""14874""
","
","
","""event"",""trial"",""time""
""fullscreenenter"",""5"",""14874""
","
",NA,NA,NA,NA,NA,NA,NA,NA,NA,NA,NA,NA,NA,NA,NA,NA,NA,NA,NA,NA,NA,NA,sub101
d3-instructions,58,382527,0.0-58.0,TRUE,TRUE,TRUE,FALSE,"""event"",""trial"",""time""
""fullscreenenter"",""5"",""14874""
","
","
","""event"",""trial"",""time""
""fullscreenenter"",""5"",""14874""
","
",NA,NA,NA,NA,NA,NA,NA,NA,NA,NA,NA,NA,NA,NA,NA,NA,NA,NA,NA,NA,NA,NA,sub101
d3-instructions,59,386950,0.0-59.0,TRUE,TRUE,TRUE,FALSE,"""event"",""trial"",""time""
""fullscreenenter"",""5"",""14874""
","
","
","""event"",""trial"",""time""
""fullscreenenter"",""5"",""14874""
","
",NA,NA,NA,NA,NA,NA,NA,NA,NA,NA,NA,NA,NA,NA,NA,NA,NA,NA,NA,NA,NA,NA,sub101
d3-instructions,60,393725,0.0-60.0,TRUE,TRUE,TRUE,FALSE,"""event"",""trial"",""time""
""fullscreenenter"",""5"",""14874""
","
","
","""event"",""trial"",""time""
""fullscreenenter"",""5"",""14874""
","
",NA,NA,NA,NA,NA,NA,NA,NA,NA,NA,NA,NA,NA,NA,NA,NA,NA,NA,NA,NA,NA,NA,sub101
d3-animate-choice,61,397034,0.0-61.0-0.0,TRUE,TRUE,TRUE,FALSE,"""event"",""trial"",""time""
""fullscreenenter"",""5"",""14874""
","
","
","""event"",""trial"",""time""
""fullscreenenter"",""5"",""14874""
","
",1300.9349999483675,NA,48,NA,NA,3000,1,NA,NA,images/earth.jpg,images/tutrocket1,images/tutrocket2,null,images/tutrocket1,NA,1,practice,null,2,NA,NA,NA,sub101
d3-animate-choice,62,401043,0.0-61.0-1.0,TRUE,TRUE,TRUE,FALSE,"""event"",""trial"",""time""
""fullscreenenter"",""5"",""14874""
","
","
","""event"",""trial"",""time""
""fullscreenenter"",""5"",""14874""
","
",2926.699999952689,NA,48,NA,NA,3000,1,NA,NA,images/tutgreenplanet.jpg,images/tutalien2,images/tutalien1,images/tutrocket1,images/tutalien2,NA,2,practice,true,2,common,0,2020-06-20T23:39:51Z,sub101
two-step-fixation,63,402054,0.0-61.0-2.0,TRUE,TRUE,TRUE,FALSE,"""event"",""trial"",""time""
""fullscreenenter"",""5"",""14874""
","
","
","""event"",""trial"",""time""
""fullscreenenter"",""5"",""14874""
","
",NA,images/earth.jpg,NA,NA,NA,NA,NA,NA,NA,NA,NA,NA,NA,NA,NA,fixation,NA,NA,NA,NA,NA,NA,sub101
d3-animate-choice,64,406063,0.0-61.0-0.1,TRUE,TRUE,TRUE,FALSE,"""event"",""trial"",""time""
""fullscreenenter"",""5"",""14874""
","
","
","""event"",""trial"",""time""
""fullscreenenter"",""5"",""14874""
","
",null,NA,null,NA,NA,3000,0,NA,NA,images/earth.jpg,images/tutrocket1,images/tutrocket2,null,NA,NA,1,practice,null,NA,NA,NA,NA,sub101
d3-animate-choice,65,407076,0.0-61.0-1.1,TRUE,TRUE,TRUE,FALSE,"""event"",""trial"",""time""
""fullscreenenter"",""5"",""14874""
","
","
","""event"",""trial"",""time""
""fullscreenenter"",""5"",""14874""
","
",null,NA,null,NA,NA,0,0,NA,NA,images/earth.jpg,images/tutrocket1,images/tutrocket2,null,NA,NA,2,practice,null,NA,NA,0,2020-06-20T23:39:57Z,sub101
two-step-fixation,66,408083,0.0-61.0-2.1,TRUE,TRUE,TRUE,FALSE,"""event"",""trial"",""time""
""fullscreenenter"",""5"",""14874""
","
","
","""event"",""trial"",""time""
""fullscreenenter"",""5"",""14874""
","
",NA,images/earth.jpg,NA,NA,NA,NA,NA,NA,NA,NA,NA,NA,NA,NA,NA,fixation,NA,NA,NA,NA,NA,NA,sub101
d3-animate-choice,67,410668,0.0-61.0-0.2,TRUE,TRUE,TRUE,FALSE,"""event"",""trial"",""time""
""fullscreenenter"",""5"",""14874""
","
","
","""event"",""trial"",""time""
""fullscreenenter"",""5"",""14874""
","
",578.3700000029057,NA,48,NA,NA,3000,1,NA,NA,images/earth.jpg,images/tutrocket1,images/tutrocket2,null,images/tutrocket1,NA,1,practice,null,2,NA,NA,NA,sub101
d3-animate-choice,68,413579,0.0-61.0-1.2,TRUE,TRUE,TRUE,FALSE,"""event"",""trial"",""time""
""fullscreenenter"",""5"",""14874""
","
","
","""event"",""trial"",""time""
""fullscreenenter"",""5"",""14874""
","
",901.0150000685826,NA,48,NA,NA,3000,1,NA,NA,images/tutgreenplanet.jpg,images/tutalien2,images/tutalien1,images/tutrocket1,images/tutalien2,images/nothing.png,2,practice,true,2,common,0,2020-06-20T23:40:04Z,sub101
two-step-fixation,69,414585,0.0-61.0-2.2,TRUE,TRUE,TRUE,FALSE,"""event"",""trial"",""time""
""fullscreenenter"",""5"",""14874""
","
","
","""event"",""trial"",""time""
""fullscreenenter"",""5"",""14874""
","
",NA,images/earth.jpg,NA,NA,NA,NA,NA,NA,NA,NA,NA,NA,NA,NA,NA,fixation,NA,NA,NA,NA,NA,NA,sub101
d3-animate-choice,70,417494,0.0-61.0-0.3,TRUE,TRUE,TRUE,FALSE,"""event"",""trial"",""time""
""fullscreenenter"",""5"",""14874""
","
","
","""event"",""trial"",""time""
""fullscreenenter"",""5"",""14874""
","
",900.5200000246987,NA,49,NA,NA,3000,1,NA,NA,images/earth.jpg,images/tutrocket1,images/tutrocket2,null,images/tutrocket2,NA,1,practice,null,1,NA,NA,NA,sub101
d3-animate-choice,71,419798,0.0-61.0-1.3,TRUE,TRUE,TRUE,FALSE,"""event"",""trial"",""time""
""fullscreenenter"",""5"",""14874""
","
","
","""event"",""trial"",""time""
""fullscreenenter"",""5"",""14874""
","
",296.3149999268353,NA,49,NA,NA,3000,1,NA,NA,images/tutyellowplanet.jpg,images/tutalien4,images/tutalien3,images/tutrocket2,images/tutalien3,images/nothing.png,2,practice,true,1,common,0,2020-06-20T23:40:10Z,sub101
two-step-fixation,72,420805,0.0-61.0-2.3,TRUE,TRUE,TRUE,FALSE,"""event"",""trial"",""time""
""fullscreenenter"",""5"",""14874""
","
","
","""event"",""trial"",""time""
""fullscreenenter"",""5"",""14874""
","
",NA,images/earth.jpg,NA,NA,NA,NA,NA,NA,NA,NA,NA,NA,NA,NA,NA,fixation,NA,NA,NA,NA,NA,NA,sub101
d3-animate-choice,73,423226,0.0-61.0-0.4,TRUE,TRUE,TRUE,FALSE,"""event"",""trial"",""time""
""fullscreenenter"",""5"",""14874""
","
","
","""event"",""trial"",""time""
""fullscreenenter"",""5"",""14874""
","
",412.8649999620393,NA,49,NA,NA,3000,1,NA,NA,images/earth.jpg,images/tutrocket1,images/tutrocket2,null,images/tutrocket2,NA,1,practice,null,1,NA,NA,NA,sub101
d3-animate-choice,74,425551,0.0-61.0-1.4,TRUE,TRUE,TRUE,FALSE,"""event"",""trial"",""time""
""fullscreenenter"",""5"",""14874""
","
","
","""event"",""trial"",""time""
""fullscreenenter"",""5"",""14874""
","
",320.78499998897314,NA,48,NA,NA,3000,1,NA,NA,images/tutyellowplanet.jpg,images/tutalien4,images/tutalien3,images/tutrocket2,images/tutalien4,images/t.png,2,practice,true,2,common,1,2020-06-20T23:40:16Z,sub101
two-step-fixation,75,426554,0.0-61.0-2.4,TRUE,TRUE,TRUE,FALSE,"""event"",""trial"",""time""
""fullscreenenter"",""5"",""14874""
","
","
","""event"",""trial"",""time""
""fullscreenenter"",""5"",""14874""
","
",NA,images/earth.jpg,NA,NA,NA,NA,NA,NA,NA,NA,NA,NA,NA,NA,NA,fixation,NA,NA,NA,NA,NA,NA,sub101
d3-animate-choice,76,428901,0.0-61.0-0.5,TRUE,TRUE,TRUE,FALSE,"""event"",""trial"",""time""
""fullscreenenter"",""5"",""14874""
","
","
","""event"",""trial"",""time""
""fullscreenenter"",""5"",""14874""
","
",340.1900000171736,NA,49,NA,NA,3000,1,NA,NA,images/earth.jpg,images/tutrocket1,images/tutrocket2,null,images/tutrocket2,NA,1,practice,null,1,NA,NA,NA,sub101
d3-animate-choice,77,431198,0.0-61.0-1.5,TRUE,TRUE,TRUE,FALSE,"""event"",""trial"",""time""
""fullscreenenter"",""5"",""14874""
","
","
","""event"",""trial"",""time""
""fullscreenenter"",""5"",""14874""
","
",291.73000005539507,NA,48,NA,NA,3000,1,NA,NA,images/tutgreenplanet.jpg,images/tutalien2,images/tutalien1,images/tutrocket2,images/tutalien2,images/nothing.png,2,practice,false,2,rare,0,2020-06-20T23:40:21Z,sub101
two-step-fixation,78,432204,0.0-61.0-2.5,TRUE,TRUE,TRUE,FALSE,"""event"",""trial"",""time""
""fullscreenenter"",""5"",""14874""
","
","
","""event"",""trial"",""time""
""fullscreenenter"",""5"",""14874""
","
",NA,images/earth.jpg,NA,NA,NA,NA,NA,NA,NA,NA,NA,NA,NA,NA,NA,fixation,NA,NA,NA,NA,NA,NA,sub101
d3-animate-choice,79,434597,0.0-61.0-0.6,TRUE,TRUE,TRUE,FALSE,"""event"",""trial"",""time""
""fullscreenenter"",""5"",""14874""
","
","
","""event"",""trial"",""time""
""fullscreenenter"",""5"",""14874""
","
",385.634999955073,NA,48,NA,NA,3000,1,NA,NA,images/earth.jpg,images/tutrocket1,images/tutrocket2,null,images/tutrocket1,NA,1,practice,null,2,NA,NA,NA,sub101
d3-animate-choice,80,437462,0.0-61.0-1.6,TRUE,TRUE,TRUE,FALSE,"""event"",""trial"",""time""
""fullscreenenter"",""5"",""14874""
","
","
","""event"",""trial"",""time""
""fullscreenenter"",""5"",""14874""
","
",859.0450000483543,NA,48,NA,NA,3000,1,NA,NA,images/tutyellowplanet.jpg,images/tutalien4,images/tutalien3,images/tutrocket1,images/tutalien4,images/t.png,2,practice,false,2,rare,1,2020-06-20T23:40:27Z,sub101
two-step-fixation,81,438467,0.0-61.0-2.6,TRUE,TRUE,TRUE,FALSE,"""event"",""trial"",""time""
""fullscreenenter"",""5"",""14874""
","
","
","""event"",""trial"",""time""
""fullscreenenter"",""5"",""14874""
","
",NA,images/earth.jpg,NA,NA,NA,NA,NA,NA,NA,NA,NA,NA,NA,NA,NA,fixation,NA,NA,NA,NA,NA,NA,sub101
d3-animate-choice,82,441587,0.0-61.0-0.7,TRUE,TRUE,TRUE,FALSE,"""event"",""trial"",""time""
""fullscreenenter"",""5"",""14874""
","
","
","""event"",""trial"",""time""
""fullscreenenter"",""5"",""14874""
","
",1113.2799999322742,NA,49,NA,NA,3000,1,NA,NA,images/earth.jpg,images/tutrocket1,images/tutrocket2,null,images/tutrocket2,NA,1,practice,null,1,NA,NA,NA,sub101
d3-animate-choice,83,444332,0.0-61.0-1.7,TRUE,TRUE,TRUE,FALSE,"""event"",""trial"",""time""
""fullscreenenter"",""5"",""14874""
","
","
","""event"",""trial"",""time""
""fullscreenenter"",""5"",""14874""
","
",738.5850000428036,NA,49,NA,NA,3000,1,NA,NA,images/tutgreenplanet.jpg,images/tutalien2,images/tutalien1,images/tutrocket2,images/tutalien1,images/nothing.png,2,practice,false,1,rare,0,2020-06-20T23:40:34Z,sub101
two-step-fixation,84,445337,0.0-61.0-2.7,TRUE,TRUE,TRUE,FALSE,"""event"",""trial"",""time""
""fullscreenenter"",""5"",""14874""
","
","
","""event"",""trial"",""time""
""fullscreenenter"",""5"",""14874""
","
",NA,images/earth.jpg,NA,NA,NA,NA,NA,NA,NA,NA,NA,NA,NA,NA,NA,fixation,NA,NA,NA,NA,NA,NA,sub101
d3-animate-choice,85,447918,0.0-61.0-0.8,TRUE,TRUE,TRUE,FALSE,"""event"",""trial"",""time""
""fullscreenenter"",""5"",""14874""
","
","
","""event"",""trial"",""time""
""fullscreenenter"",""5"",""14874""
","
",573.934999993071,NA,49,NA,NA,3000,1,NA,NA,images/earth.jpg,images/tutrocket1,images/tutrocket2,null,images/tutrocket2,NA,1,practice,null,1,NA,NA,NA,sub101
d3-animate-choice,86,450233,0.0-61.0-1.8,TRUE,TRUE,TRUE,FALSE,"""event"",""trial"",""time""
""fullscreenenter"",""5"",""14874""
","
","
","""event"",""trial"",""time""
""fullscreenenter"",""5"",""14874""
","
",311.28999998327345,NA,48,NA,NA,3000,1,NA,NA,images/tutyellowplanet.jpg,images/tutalien4,images/tutalien3,images/tutrocket2,images/tutalien4,images/t.png,2,practice,true,2,common,1,2020-06-20T23:40:40Z,sub101
two-step-fixation,87,451239,0.0-61.0-2.8,TRUE,TRUE,TRUE,FALSE,"""event"",""trial"",""time""
""fullscreenenter"",""5"",""14874""
","
","
","""event"",""trial"",""time""
""fullscreenenter"",""5"",""14874""
","
",NA,images/earth.jpg,NA,NA,NA,NA,NA,NA,NA,NA,NA,NA,NA,NA,NA,fixation,NA,NA,NA,NA,NA,NA,sub101
d3-animate-choice,88,453721,0.0-61.0-0.9,TRUE,TRUE,TRUE,FALSE,"""event"",""trial"",""time""
""fullscreenenter"",""5"",""14874""
","
","
","""event"",""trial"",""time""
""fullscreenenter"",""5"",""14874""
","
",475.0049998983741,NA,49,NA,NA,3000,1,NA,NA,images/earth.jpg,images/tutrocket1,images/tutrocket2,null,images/tutrocket2,NA,1,practice,null,1,NA,NA,NA,sub101
d3-animate-choice,89,456185,0.0-61.0-1.9,TRUE,TRUE,TRUE,FALSE,"""event"",""trial"",""time""
""fullscreenenter"",""5"",""14874""
","
","
","""event"",""trial"",""time""
""fullscreenenter"",""5"",""14874""
","
",457.0700000040233,NA,48,NA,NA,3000,1,NA,NA,images/tutyellowplanet.jpg,images/tutalien4,images/tutalien3,images/tutrocket2,images/tutalien4,images/t.png,2,practice,true,2,common,1,2020-06-20T23:40:46Z,sub101
two-step-fixation,90,457192,0.0-61.0-2.9,TRUE,TRUE,TRUE,FALSE,"""event"",""trial"",""time""
""fullscreenenter"",""5"",""14874""
","
","
","""event"",""trial"",""time""
""fullscreenenter"",""5"",""14874""
","
",NA,images/earth.jpg,NA,NA,NA,NA,NA,NA,NA,NA,NA,NA,NA,NA,NA,fixation,NA,NA,NA,NA,NA,NA,sub101
d3-animate-choice,91,459682,0.0-61.0-0.10,TRUE,TRUE,TRUE,FALSE,"""event"",""trial"",""time""
""fullscreenenter"",""5"",""14874""
","
","
","""event"",""trial"",""time""
""fullscreenenter"",""5"",""14874""
","
",483.4450000198558,NA,49,NA,NA,3000,1,NA,NA,images/earth.jpg,images/tutrocket1,images/tutrocket2,null,images/tutrocket2,NA,1,practice,null,1,NA,NA,NA,sub101
d3-animate-choice,92,462086,0.0-61.0-1.10,TRUE,TRUE,TRUE,FALSE,"""event"",""trial"",""time""
""fullscreenenter"",""5"",""14874""
","
","
","""event"",""trial"",""time""
""fullscreenenter"",""5"",""14874""
","
",397.3099999129772,NA,48,NA,NA,3000,1,NA,NA,images/tutyellowplanet.jpg,images/tutalien4,images/tutalien3,images/tutrocket2,images/tutalien4,images/t.png,2,practice,true,2,common,1,2020-06-20T23:40:52Z,sub101
two-step-fixation,93,463092,0.0-61.0-2.10,TRUE,TRUE,TRUE,FALSE,"""event"",""trial"",""time""
""fullscreenenter"",""5"",""14874""
","
","
","""event"",""trial"",""time""
""fullscreenenter"",""5"",""14874""
","
",NA,images/earth.jpg,NA,NA,NA,NA,NA,NA,NA,NA,NA,NA,NA,NA,NA,fixation,NA,NA,NA,NA,NA,NA,sub101
d3-animate-choice,94,465606,0.0-61.0-0.11,TRUE,TRUE,TRUE,FALSE,"""event"",""trial"",""time""
""fullscreenenter"",""5"",""14874""
","
","
","""event"",""trial"",""time""
""fullscreenenter"",""5"",""14874""
","
",508.6400000145659,NA,49,NA,NA,3000,1,NA,NA,images/earth.jpg,images/tutrocket1,images/tutrocket2,null,images/tutrocket2,NA,1,practice,null,1,NA,NA,NA,sub101
d3-animate-choice,95,468866,0.0-61.0-1.11,TRUE,TRUE,TRUE,FALSE,"""event"",""trial"",""time""
""fullscreenenter"",""5"",""14874""
","
","
","""event"",""trial"",""time""
""fullscreenenter"",""5"",""14874""
","
",1253.8199999835342,NA,49,NA,NA,3000,1,NA,NA,images/tutgreenplanet.jpg,images/tutalien2,images/tutalien1,images/tutrocket2,images/tutalien1,images/nothing.png,2,practice,false,1,rare,0,2020-06-20T23:40:59Z,sub101
two-step-fixation,96,469871,0.0-61.0-2.11,TRUE,TRUE,TRUE,FALSE,"""event"",""trial"",""time""
""fullscreenenter"",""5"",""14874""
","
","
","""event"",""trial"",""time""
""fullscreenenter"",""5"",""14874""
","
",NA,images/earth.jpg,NA,NA,NA,NA,NA,NA,NA,NA,NA,NA,NA,NA,NA,fixation,NA,NA,NA,NA,NA,NA,sub101
d3-animate-choice,97,472132,0.0-61.0-0.12,TRUE,TRUE,TRUE,FALSE,"""event"",""trial"",""time""
""fullscreenenter"",""5"",""14874""
","
","
","""event"",""trial"",""time""
""fullscreenenter"",""5"",""14874""
","
",255.13000006321818,NA,49,NA,NA,3000,1,NA,NA,images/earth.jpg,images/tutrocket1,images/tutrocket2,null,images/tutrocket2,NA,1,practice,null,1,NA,NA,NA,sub101
d3-animate-choice,98,474530,0.0-61.0-1.12,TRUE,TRUE,TRUE,FALSE,"""event"",""trial"",""time""
""fullscreenenter"",""5"",""14874""
","
","
","""event"",""trial"",""time""
""fullscreenenter"",""5"",""14874""
","
",391.7150000343099,NA,48,NA,NA,3000,1,NA,NA,images/tutyellowplanet.jpg,images/tutalien4,images/tutalien3,images/tutrocket2,images/tutalien4,images/nothing.png,2,practice,true,2,common,0,2020-06-20T23:41:05Z,sub101
two-step-fixation,99,475536,0.0-61.0-2.12,TRUE,TRUE,TRUE,FALSE,"""event"",""trial"",""time""
""fullscreenenter"",""5"",""14874""
","
","
","""event"",""trial"",""time""
""fullscreenenter"",""5"",""14874""
","
",NA,images/earth.jpg,NA,NA,NA,NA,NA,NA,NA,NA,NA,NA,NA,NA,NA,fixation,NA,NA,NA,NA,NA,NA,sub101
d3-animate-choice,100,477803,0.0-61.0-0.13,TRUE,TRUE,TRUE,FALSE,"""event"",""trial"",""time""
""fullscreenenter"",""5"",""14874""
","
","
","""event"",""trial"",""time""
""fullscreenenter"",""5"",""14874""
","
",261.1200000392273,NA,48,NA,NA,3000,1,NA,NA,images/earth.jpg,images/tutrocket1,images/tutrocket2,null,images/tutrocket1,NA,1,practice,null,2,NA,NA,NA,sub101
d3-animate-choice,101,480185,0.0-61.0-1.13,TRUE,TRUE,TRUE,FALSE,"""event"",""trial"",""time""
""fullscreenenter"",""5"",""14874""
","
","
","""event"",""trial"",""time""
""fullscreenenter"",""5"",""14874""
","
",376.74500001594424,NA,49,NA,NA,3000,1,NA,NA,images/tutgreenplanet.jpg,images/tutalien2,images/tutalien1,images/tutrocket1,images/tutalien1,images/nothing.png,2,practice,true,1,common,0,2020-06-20T23:41:10Z,sub101
two-step-fixation,102,481191,0.0-61.0-2.13,TRUE,TRUE,TRUE,FALSE,"""event"",""trial"",""time""
""fullscreenenter"",""5"",""14874""
","
","
","""event"",""trial"",""time""
""fullscreenenter"",""5"",""14874""
","
",NA,images/earth.jpg,NA,NA,NA,NA,NA,NA,NA,NA,NA,NA,NA,NA,NA,fixation,NA,NA,NA,NA,NA,NA,sub101
d3-animate-choice,103,483486,0.0-61.0-0.14,TRUE,TRUE,TRUE,FALSE,"""event"",""trial"",""time""
""fullscreenenter"",""5"",""14874""
","
","
","""event"",""trial"",""time""
""fullscreenenter"",""5"",""14874""
","
",289.79500010609627,NA,48,NA,NA,3000,1,NA,NA,images/earth.jpg,images/tutrocket1,images/tutrocket2,null,images/tutrocket1,NA,1,practice,null,2,NA,NA,NA,sub101
d3-animate-choice,104,485892,0.0-61.0-1.14,TRUE,TRUE,TRUE,FALSE,"""event"",""trial"",""time""
""fullscreenenter"",""5"",""14874""
","
","
","""event"",""trial"",""time""
""fullscreenenter"",""5"",""14874""
","
",399.3749999208376,NA,48,NA,NA,3000,1,NA,NA,images/tutyellowplanet.jpg,images/tutalien4,images/tutalien3,images/tutrocket1,images/tutalien4,images/nothing.png,2,practice,false,2,rare,0,2020-06-20T23:41:16Z,sub101
two-step-fixation,105,486898,0.0-61.0-2.14,TRUE,TRUE,TRUE,FALSE,"""event"",""trial"",""time""
""fullscreenenter"",""5"",""14874""
","
","
","""event"",""trial"",""time""
""fullscreenenter"",""5"",""14874""
","
",NA,images/earth.jpg,NA,NA,NA,NA,NA,NA,NA,NA,NA,NA,NA,NA,NA,fixation,NA,NA,NA,NA,NA,NA,sub101
d3-animate-choice,106,489234,0.0-61.0-0.15,TRUE,TRUE,TRUE,FALSE,"""event"",""trial"",""time""
""fullscreenenter"",""5"",""14874""
","
","
","""event"",""trial"",""time""
""fullscreenenter"",""5"",""14874""
","
",329.52000002842396,NA,48,NA,NA,3000,1,NA,NA,images/earth.jpg,images/tutrocket1,images/tutrocket2,null,images/tutrocket1,NA,1,practice,null,2,NA,NA,NA,sub101
d3-animate-choice,107,491550,0.0-61.0-1.15,TRUE,TRUE,TRUE,FALSE,"""event"",""trial"",""time""
""fullscreenenter"",""5"",""14874""
","
","
","""event"",""trial"",""time""
""fullscreenenter"",""5"",""14874""
","
",309.7549999365583,NA,48,NA,NA,3000,1,NA,NA,images/tutgreenplanet.jpg,images/tutalien2,images/tutalien1,images/tutrocket1,images/tutalien2,images/nothing.png,2,practice,true,2,common,0,2020-06-20T23:41:22Z,sub101
two-step-fixation,108,492556,0.0-61.0-2.15,TRUE,TRUE,TRUE,FALSE,"""event"",""trial"",""time""
""fullscreenenter"",""5"",""14874""
","
","
","""event"",""trial"",""time""
""fullscreenenter"",""5"",""14874""
","
",NA,images/earth.jpg,NA,NA,NA,NA,NA,NA,NA,NA,NA,NA,NA,NA,NA,fixation,NA,NA,NA,NA,NA,NA,sub101
d3-animate-choice,109,494832,0.0-61.0-0.16,TRUE,TRUE,TRUE,FALSE,"""event"",""trial"",""time""
""fullscreenenter"",""5"",""14874""
","
","
","""event"",""trial"",""time""
""fullscreenenter"",""5"",""14874""
","
",270.2549999812618,NA,49,NA,NA,3000,1,NA,NA,images/earth.jpg,images/tutrocket1,images/tutrocket2,null,images/tutrocket2,NA,1,practice,null,1,NA,NA,NA,sub101
d3-animate-choice,110,497390,0.0-61.0-1.16,TRUE,TRUE,TRUE,FALSE,"""event"",""trial"",""time""
""fullscreenenter"",""5"",""14874""
","
","
","""event"",""trial"",""time""
""fullscreenenter"",""5"",""14874""
","
",553.0599999474362,NA,49,NA,NA,3000,1,NA,NA,images/tutgreenplanet.jpg,images/tutalien2,images/tutalien1,images/tutrocket2,images/tutalien1,images/t.png,2,practice,false,1,rare,1,2020-06-20T23:41:27Z,sub101
two-step-fixation,111,498396,0.0-61.0-2.16,TRUE,TRUE,TRUE,FALSE,"""event"",""trial"",""time""
""fullscreenenter"",""5"",""14874""
","
","
","""event"",""trial"",""time""
""fullscreenenter"",""5"",""14874""
","
",NA,images/earth.jpg,NA,NA,NA,NA,NA,NA,NA,NA,NA,NA,NA,NA,NA,fixation,NA,NA,NA,NA,NA,NA,sub101
d3-animate-choice,112,500792,0.0-61.0-0.17,TRUE,TRUE,TRUE,FALSE,"""event"",""trial"",""time""
""fullscreenenter"",""5"",""14874""
","
","
","""event"",""trial"",""time""
""fullscreenenter"",""5"",""14874""
","
",388.5550000704825,NA,49,NA,NA,3000,1,465.52000008523464,87,images/earth.jpg,images/tutrocket1,images/tutrocket2,null,images/tutrocket2,NA,1,practice,null,1,NA,NA,NA,sub101
d3-animate-choice,113,503181,0.0-61.0-1.17,TRUE,TRUE,TRUE,FALSE,"""event"",""trial"",""time""
""fullscreenenter"",""5"",""14874""
","
","
","""event"",""trial"",""time""
""fullscreenenter"",""5"",""14874""
","
",383.5899999830872,NA,48,NA,NA,3000,1,NA,NA,images/tutyellowplanet.jpg,images/tutalien4,images/tutalien3,images/tutrocket2,images/tutalien4,images/t.png,2,practice,true,2,common,1,2020-06-20T23:41:33Z,sub101
two-step-fixation,114,504187,0.0-61.0-2.17,TRUE,TRUE,TRUE,FALSE,"""event"",""trial"",""time""
""fullscreenenter"",""5"",""14874""
","
","
","""event"",""trial"",""time""
""fullscreenenter"",""5"",""14874""
","
",NA,images/earth.jpg,NA,NA,NA,NA,NA,NA,NA,NA,NA,NA,NA,NA,NA,fixation,NA,NA,NA,NA,NA,NA,sub101
d3-animate-choice,115,506774,0.0-61.0-0.18,TRUE,TRUE,TRUE,FALSE,"""event"",""trial"",""time""
""fullscreenenter"",""5"",""14874""
","
","
","""event"",""trial"",""time""
""fullscreenenter"",""5"",""14874""
","
",580.8750001015142,NA,49,NA,NA,3000,1,NA,NA,images/earth.jpg,images/tutrocket1,images/tutrocket2,null,images/tutrocket2,NA,1,practice,null,1,NA,NA,NA,sub101
d3-animate-choice,116,509572,0.0-61.0-1.18,TRUE,TRUE,TRUE,FALSE,"""event"",""trial"",""time""
""fullscreenenter"",""5"",""14874""
","
","
","""event"",""trial"",""time""
""fullscreenenter"",""5"",""14874""
","
",791.774999932386,NA,49,NA,NA,3000,1,NA,NA,images/tutgreenplanet.jpg,images/tutalien2,images/tutalien1,images/tutrocket2,images/tutalien1,images/t.png,2,practice,false,1,rare,1,2020-06-20T23:41:40Z,sub101
two-step-fixation,117,510578,0.0-61.0-2.18,TRUE,TRUE,TRUE,FALSE,"""event"",""trial"",""time""
""fullscreenenter"",""5"",""14874""
","
","
","""event"",""trial"",""time""
""fullscreenenter"",""5"",""14874""
","
",NA,images/earth.jpg,NA,NA,NA,NA,NA,NA,NA,NA,NA,NA,NA,NA,NA,fixation,NA,NA,NA,NA,NA,NA,sub101
d3-animate-choice,118,512968,0.0-61.0-0.19,TRUE,TRUE,TRUE,FALSE,"""event"",""trial"",""time""
""fullscreenenter"",""5"",""14874""
","
","
","""event"",""trial"",""time""
""fullscreenenter"",""5"",""14874""
","
",384.4800000078976,NA,49,NA,NA,3000,1,NA,NA,images/earth.jpg,images/tutrocket1,images/tutrocket2,null,images/tutrocket2,NA,1,practice,null,1,NA,NA,NA,sub101
d3-animate-choice,119,515576,0.0-61.0-1.19,TRUE,TRUE,TRUE,FALSE,"""event"",""trial"",""time""
""fullscreenenter"",""5"",""14874""
","
","
","""event"",""trial"",""time""
""fullscreenenter"",""5"",""14874""
","
",601.340000052005,NA,49,NA,NA,3000,1,NA,NA,images/tutgreenplanet.jpg,images/tutalien2,images/tutalien1,images/tutrocket2,images/tutalien1,images/nothing.png,2,practice,false,1,rare,0,2020-06-20T23:41:46Z,sub101
two-step-fixation,120,516581,0.0-61.0-2.19,TRUE,TRUE,TRUE,FALSE,"""event"",""trial"",""time""
""fullscreenenter"",""5"",""14874""
","
","
","""event"",""trial"",""time""
""fullscreenenter"",""5"",""14874""
","
",NA,images/earth.jpg,NA,NA,NA,NA,NA,NA,NA,NA,NA,NA,NA,NA,NA,fixation,NA,NA,NA,NA,NA,NA,sub101
d3-instructions,121,523865,0.0-62.0,TRUE,TRUE,TRUE,FALSE,"""event"",""trial"",""time""
""fullscreenenter"",""5"",""14874""
","
","
","""event"",""trial"",""time""
""fullscreenenter"",""5"",""14874""
","
",NA,NA,NA,NA,NA,NA,NA,NA,NA,NA,NA,NA,NA,NA,NA,NA,NA,NA,NA,NA,NA,NA,sub101
audio-keyboard-response,122,528487,0.0-63.0,TRUE,TRUE,TRUE,FALSE,"""event"",""trial"",""time""
""fullscreenenter"",""5"",""14874""
","
","
","""event"",""trial"",""time""
""fullscreenenter"",""5"",""14874""
","
",4621,audio/instructions/treasure_feedback.wav,32,NA,NA,NA,NA,NA,NA,NA,NA,NA,NA,NA,NA,NA,NA,NA,NA,NA,NA,NA,sub101
d3-instructions,123,549981,0.0-64.0,TRUE,TRUE,TRUE,FALSE,"""event"",""trial"",""time""
""fullscreenenter"",""5"",""14874""
","
","
","""event"",""trial"",""time""
""fullscreenenter"",""5"",""14874""
","
",NA,NA,NA,NA,NA,NA,NA,NA,NA,NA,NA,NA,NA,NA,NA,NA,NA,NA,NA,NA,NA,NA,sub101
d3-instructions,124,564414,0.0-65.0,TRUE,TRUE,TRUE,FALSE,"""event"",""trial"",""time""
""fullscreenenter"",""5"",""14874""
","
","
","""event"",""trial"",""time""
""fullscreenenter"",""5"",""14874""
","
",NA,NA,NA,NA,NA,NA,NA,NA,NA,NA,NA,NA,NA,NA,NA,NA,NA,NA,NA,NA,NA,NA,sub101
d3-instructions,125,588871,0.0-66.0,TRUE,TRUE,TRUE,FALSE,"""event"",""trial"",""time""
""fullscreenenter"",""5"",""14874""
","
","
","""event"",""trial"",""time""
""fullscreenenter"",""5"",""14874""
","
",NA,NA,NA,NA,NA,NA,NA,NA,NA,NA,NA,NA,NA,NA,NA,NA,NA,NA,NA,NA,NA,NA,sub101
d3-instructions,126,604855,0.0-67.0,TRUE,TRUE,TRUE,FALSE,"""event"",""trial"",""time""
""fullscreenenter"",""5"",""14874""
","
","
","""event"",""trial"",""time""
""fullscreenenter"",""5"",""14874""
","
",NA,NA,NA,NA,NA,NA,NA,NA,NA,NA,NA,NA,NA,NA,NA,NA,NA,NA,NA,NA,NA,NA,sub101
d3-instructions,127,613822,0.0-68.0,TRUE,TRUE,TRUE,FALSE,"""event"",""trial"",""time""
""fullscreenenter"",""5"",""14874""
","
","
","""event"",""trial"",""time""
""fullscreenenter"",""5"",""14874""
","
",NA,NA,NA,NA,NA,NA,NA,NA,NA,NA,NA,NA,NA,NA,NA,NA,NA,NA,NA,NA,NA,NA,sub101
instructions-quiz,128,617040,0.0-69.0,TRUE,TRUE,TRUE,FALSE,"""event"",""trial"",""time""
""fullscreenenter"",""5"",""14874""
","
","
","""event"",""trial"",""time""
""fullscreenenter"",""5"",""14874""
","
",3214.094999944791,audio/quiz/Q1_Prompt.wav,NA,1,NA,NA,NA,NA,NA,NA,NA,NA,NA,NA,NA,NA,NA,NA,NA,NA,NA,NA,sub101
audio-keyboard-response,129,626208,0.0-70.0,TRUE,TRUE,TRUE,FALSE,"""event"",""trial"",""time""
""fullscreenenter"",""5"",""14874""
","
","
","""event"",""trial"",""time""
""fullscreenenter"",""5"",""14874""
","
",null,audio/quiz/Q1_Correct.wav,null,NA,NA,NA,NA,NA,NA,NA,NA,NA,NA,NA,NA,NA,NA,NA,NA,NA,NA,NA,sub101
instructions-quiz,130,630117,0.0-71.0,TRUE,TRUE,TRUE,FALSE,"""event"",""trial"",""time""
""fullscreenenter"",""5"",""14874""
","
","
","""event"",""trial"",""time""
""fullscreenenter"",""5"",""14874""
","
",3906.7700000014156,audio/quiz/Q2_Prompt.wav,NA,0,NA,NA,NA,NA,NA,NA,NA,NA,NA,NA,NA,NA,NA,NA,NA,NA,NA,NA,sub101
audio-keyboard-response,131,632522,0.0-72.0,TRUE,TRUE,TRUE,FALSE,"""event"",""trial"",""time""
""fullscreenenter"",""5"",""14874""
","
","
","""event"",""trial"",""time""
""fullscreenenter"",""5"",""14874""
","
",2400,audio/quiz/Q2_Correct.wav,32,NA,NA,NA,NA,NA,NA,NA,NA,NA,NA,NA,NA,NA,NA,NA,NA,NA,NA,NA,sub101
instructions-quiz,132,635218,0.0-73.0,TRUE,TRUE,TRUE,FALSE,"""event"",""trial"",""time""
""fullscreenenter"",""5"",""14874""
","
","
","""event"",""trial"",""time""
""fullscreenenter"",""5"",""14874""
","
",2693.459999980405,audio/quiz/Q3_Prompt.wav,NA,1,NA,NA,NA,NA,NA,NA,NA,NA,NA,NA,NA,NA,NA,NA,NA,NA,NA,NA,sub101
audio-keyboard-response,133,635995,0.0-74.0,TRUE,TRUE,TRUE,FALSE,"""event"",""trial"",""time""
""fullscreenenter"",""5"",""14874""
","
","
","""event"",""trial"",""time""
""fullscreenenter"",""5"",""14874""
","
",771,audio/quiz/Q3_Correct.wav,32,NA,NA,NA,NA,NA,NA,NA,NA,NA,NA,NA,NA,NA,NA,NA,NA,NA,NA,NA,sub101
d3-instructions,134,643022,0.0-75.0,TRUE,TRUE,TRUE,FALSE,"""event"",""trial"",""time""
""fullscreenenter"",""5"",""14874""
","
","
","""event"",""trial"",""time""
""fullscreenenter"",""5"",""14874""
","
",NA,NA,NA,NA,NA,NA,NA,NA,NA,NA,NA,NA,NA,NA,NA,NA,NA,NA,NA,NA,NA,NA,sub101
d3-animate-choice,135,647029,0.0-76.0-0.0,TRUE,TRUE,TRUE,FALSE,"""event"",""trial"",""time""
""fullscreenenter"",""5"",""14874""
","
","
","""event"",""trial"",""time""
""fullscreenenter"",""5"",""14874""
","
",1885.260000010021,NA,50,NA,NA,3000,1,2215.23500001058,49,images/earth.jpg,images/rocket2,images/rocket1,null,images/rocket1,NA,1,real,null,NA,NA,NA,NA,sub101
d3-animate-choice,136,649879,0.0-76.0-1.0,TRUE,TRUE,TRUE,FALSE,"""event"",""trial"",""time""
""fullscreenenter"",""5"",""14874""
","
","
","""event"",""trial"",""time""
""fullscreenenter"",""5"",""14874""
","
",843.9100000541657,NA,48,NA,NA,3000,1,NA,NA,images/redplanet1.jpg,images/alien2,images/alien1,images/rocket1,images/alien2,images/nothing.png,2,real,true,2,common,0,2020-06-20T23:44:00Z,sub101
two-step-fixation,137,650902,0.0-76.0-2.0,TRUE,TRUE,TRUE,FALSE,"""event"",""trial"",""time""
""fullscreenenter"",""5"",""14874""
","
","
","""event"",""trial"",""time""
""fullscreenenter"",""5"",""14874""
","
",NA,images/earth.jpg,NA,NA,NA,NA,NA,NA,NA,NA,NA,NA,NA,NA,NA,fixation,NA,NA,NA,NA,NA,NA,sub101
d3-animate-choice,138,653416,0.0-76.0-0.1,TRUE,TRUE,TRUE,FALSE,"""event"",""trial"",""time""
""fullscreenenter"",""5"",""14874""
","
","
","""event"",""trial"",""time""
""fullscreenenter"",""5"",""14874""
","
",506.0600000433624,NA,49,NA,NA,3000,1,NA,NA,images/earth.jpg,images/rocket2,images/rocket1,null,images/rocket1,NA,1,real,null,1,NA,NA,NA,sub101
d3-animate-choice,139,656231,0.0-76.0-1.1,TRUE,TRUE,TRUE,FALSE,"""event"",""trial"",""time""
""fullscreenenter"",""5"",""14874""
","
","
","""event"",""trial"",""time""
""fullscreenenter"",""5"",""14874""
","
",808.2100000465289,NA,49,NA,NA,3000,1,NA,NA,images/redplanet1.jpg,images/alien2,images/alien1,images/rocket1,images/alien1,images/nothing.png,2,real,true,1,common,0,2020-06-20T23:44:06Z,sub101
two-step-fixation,140,657237,0.0-76.0-2.1,TRUE,TRUE,TRUE,FALSE,"""event"",""trial"",""time""
""fullscreenenter"",""5"",""14874""
","
","
","""event"",""trial"",""time""
""fullscreenenter"",""5"",""14874""
","
",NA,images/earth.jpg,NA,NA,NA,NA,NA,NA,NA,NA,NA,NA,NA,NA,NA,fixation,NA,NA,NA,NA,NA,NA,sub101
d3-animate-choice,141,659815,0.0-76.0-0.2,TRUE,TRUE,TRUE,FALSE,"""event"",""trial"",""time""
""fullscreenenter"",""5"",""14874""
","
","
","""event"",""trial"",""time""
""fullscreenenter"",""5"",""14874""
","
",571.5649999910966,NA,48,NA,NA,3000,1,NA,NA,images/earth.jpg,images/rocket2,images/rocket1,null,images/rocket2,NA,1,real,null,2,NA,NA,NA,sub101
d3-animate-choice,142,662400,0.0-76.0-1.2,TRUE,TRUE,TRUE,FALSE,"""event"",""trial"",""time""
""fullscreenenter"",""5"",""14874""
","
","
","""event"",""trial"",""time""
""fullscreenenter"",""5"",""14874""
","
",578.9550000336021,NA,48,NA,NA,3000,1,NA,NA,images/redplanet1.jpg,images/alien2,images/alien1,images/rocket2,images/alien2,images/t.png,2,real,false,2,rare,1,2020-06-20T23:44:12Z,sub101
two-step-fixation,143,663406,0.0-76.0-2.2,TRUE,TRUE,TRUE,FALSE,"""event"",""trial"",""time""
""fullscreenenter"",""5"",""14874""
","
","
","""event"",""trial"",""time""
""fullscreenenter"",""5"",""14874""
","
",NA,images/earth.jpg,NA,NA,NA,NA,NA,NA,NA,NA,NA,NA,NA,NA,NA,fixation,NA,NA,NA,NA,NA,NA,sub101
d3-animate-choice,144,665730,0.0-76.0-0.3,TRUE,TRUE,TRUE,FALSE,"""event"",""trial"",""time""
""fullscreenenter"",""5"",""14874""
","
","
","""event"",""trial"",""time""
""fullscreenenter"",""5"",""14874""
","
",317.64499994460493,NA,48,NA,NA,3000,1,NA,NA,images/earth.jpg,images/rocket2,images/rocket1,null,images/rocket2,NA,1,real,null,2,NA,NA,NA,sub101
d3-animate-choice,145,668692,0.0-76.0-1.3,TRUE,TRUE,TRUE,FALSE,"""event"",""trial"",""time""
""fullscreenenter"",""5"",""14874""
","
","
","""event"",""trial"",""time""
""fullscreenenter"",""5"",""14874""
","
",954.4800000730902,NA,49,NA,NA,3000,1,NA,NA,images/purpleplanet.jpg,images/alien4,images/alien3,images/rocket2,images/alien3,images/t.png,2,real,true,1,common,1,2020-06-20T23:44:19Z,sub101
two-step-fixation,146,669699,0.0-76.0-2.3,TRUE,TRUE,TRUE,FALSE,"""event"",""trial"",""time""
""fullscreenenter"",""5"",""14874""
","
","
","""event"",""trial"",""time""
""fullscreenenter"",""5"",""14874""
","
",NA,images/earth.jpg,NA,NA,NA,NA,NA,NA,NA,NA,NA,NA,NA,NA,NA,fixation,NA,NA,NA,NA,NA,NA,sub101
d3-animate-choice,147,672687,0.0-76.0-0.4,TRUE,TRUE,TRUE,FALSE,"""event"",""trial"",""time""
""fullscreenenter"",""5"",""14874""
","
","
","""event"",""trial"",""time""
""fullscreenenter"",""5"",""14874""
","
",980.8699999703094,NA,48,NA,NA,3000,1,NA,NA,images/earth.jpg,images/rocket2,images/rocket1,null,images/rocket2,NA,1,real,null,2,NA,NA,NA,sub101
d3-animate-choice,148,675183,0.0-76.0-1.4,TRUE,TRUE,TRUE,FALSE,"""event"",""trial"",""time""
""fullscreenenter"",""5"",""14874""
","
","
","""event"",""trial"",""time""
""fullscreenenter"",""5"",""14874""
","
",489.824999938719,NA,48,NA,NA,3000,1,NA,NA,images/redplanet1.jpg,images/alien2,images/alien1,images/rocket2,images/alien2,images/t.png,2,real,false,2,rare,1,2020-06-20T23:44:25Z,sub101
two-step-fixation,149,676189,0.0-76.0-2.4,TRUE,TRUE,TRUE,FALSE,"""event"",""trial"",""time""
""fullscreenenter"",""5"",""14874""
","
","
","""event"",""trial"",""time""
""fullscreenenter"",""5"",""14874""
","
",NA,images/earth.jpg,NA,NA,NA,NA,NA,NA,NA,NA,NA,NA,NA,NA,NA,fixation,NA,NA,NA,NA,NA,NA,sub101
d3-animate-choice,150,678597,0.0-76.0-0.5,TRUE,TRUE,TRUE,FALSE,"""event"",""trial"",""time""
""fullscreenenter"",""5"",""14874""
","
","
","""event"",""trial"",""time""
""fullscreenenter"",""5"",""14874""
","
",401.6100000590086,NA,48,NA,NA,3000,1,NA,NA,images/earth.jpg,images/rocket2,images/rocket1,null,images/rocket2,NA,1,real,null,2,NA,NA,NA,sub101
d3-animate-choice,151,681021,0.0-76.0-1.5,TRUE,TRUE,TRUE,FALSE,"""event"",""trial"",""time""
""fullscreenenter"",""5"",""14874""
","
","
","""event"",""trial"",""time""
""fullscreenenter"",""5"",""14874""
","
",417.6900000311434,NA,48,NA,NA,3000,1,NA,NA,images/redplanet1.jpg,images/alien2,images/alien1,images/rocket2,images/alien2,images/t.png,2,real,false,2,rare,1,2020-06-20T23:44:31Z,sub101
two-step-fixation,152,682027,0.0-76.0-2.5,TRUE,TRUE,TRUE,FALSE,"""event"",""trial"",""time""
""fullscreenenter"",""5"",""14874""
","
","
","""event"",""trial"",""time""
""fullscreenenter"",""5"",""14874""
","
",NA,images/earth.jpg,NA,NA,NA,NA,NA,NA,NA,NA,NA,NA,NA,NA,NA,fixation,NA,NA,NA,NA,NA,NA,sub101
d3-animate-choice,153,684425,0.0-76.0-0.6,TRUE,TRUE,TRUE,FALSE,"""event"",""trial"",""time""
""fullscreenenter"",""5"",""14874""
","
","
","""event"",""trial"",""time""
""fullscreenenter"",""5"",""14874""
","
",391.72499999403954,NA,48,NA,NA,3000,1,NA,NA,images/earth.jpg,images/rocket2,images/rocket1,null,images/rocket2,NA,1,real,null,2,NA,NA,NA,sub101
d3-animate-choice,154,687000,0.0-76.0-1.6,TRUE,TRUE,TRUE,FALSE,"""event"",""trial"",""time""
""fullscreenenter"",""5"",""14874""
","
","
","""event"",""trial"",""time""
""fullscreenenter"",""5"",""14874""
","
",569.1150000784546,NA,48,NA,NA,3000,1,NA,NA,images/redplanet1.jpg,images/alien2,images/alien1,images/rocket2,images/alien2,images/nothing.png,2,real,false,2,rare,0,2020-06-20T23:44:37Z,sub101
two-step-fixation,155,688007,0.0-76.0-2.6,TRUE,TRUE,TRUE,FALSE,"""event"",""trial"",""time""
""fullscreenenter"",""5"",""14874""
","
","
","""event"",""trial"",""time""
""fullscreenenter"",""5"",""14874""
","
",NA,images/earth.jpg,NA,NA,NA,NA,NA,NA,NA,NA,NA,NA,NA,NA,NA,fixation,NA,NA,NA,NA,NA,NA,sub101
d3-animate-choice,156,690386,0.0-76.0-0.7,TRUE,TRUE,TRUE,FALSE,"""event"",""trial"",""time""
""fullscreenenter"",""5"",""14874""
","
","
","""event"",""trial"",""time""
""fullscreenenter"",""5"",""14874""
","
",373.19499999284744,NA,48,NA,NA,3000,1,NA,NA,images/earth.jpg,images/rocket2,images/rocket1,null,images/rocket2,NA,1,real,null,2,NA,NA,NA,sub101
d3-animate-choice,157,692790,0.0-76.0-1.7,TRUE,TRUE,TRUE,FALSE,"""event"",""trial"",""time""
""fullscreenenter"",""5"",""14874""
","
","
","""event"",""trial"",""time""
""fullscreenenter"",""5"",""14874""
","
",397.45499996934086,NA,48,NA,NA,3000,1,NA,NA,images/redplanet1.jpg,images/alien2,images/alien1,images/rocket2,images/alien2,images/t.png,2,real,false,2,rare,1,2020-06-20T23:44:43Z,sub101
two-step-fixation,158,693795,0.0-76.0-2.7,TRUE,TRUE,TRUE,FALSE,"""event"",""trial"",""time""
""fullscreenenter"",""5"",""14874""
","
","
","""event"",""trial"",""time""
""fullscreenenter"",""5"",""14874""
","
",NA,images/earth.jpg,NA,NA,NA,NA,NA,NA,NA,NA,NA,NA,NA,NA,NA,fixation,NA,NA,NA,NA,NA,NA,sub101
d3-animate-choice,159,696068,0.0-76.0-0.8,TRUE,TRUE,TRUE,FALSE,"""event"",""trial"",""time""
""fullscreenenter"",""5"",""14874""
","
","
","""event"",""trial"",""time""
""fullscreenenter"",""5"",""14874""
","
",267.2550000716001,NA,48,NA,NA,3000,1,NA,NA,images/earth.jpg,images/rocket2,images/rocket1,null,images/rocket2,NA,1,real,null,2,NA,NA,NA,sub101
d3-animate-choice,160,698650,0.0-76.0-1.8,TRUE,TRUE,TRUE,FALSE,"""event"",""trial"",""time""
""fullscreenenter"",""5"",""14874""
","
","
","""event"",""trial"",""time""
""fullscreenenter"",""5"",""14874""
","
",574.7800000244752,NA,49,NA,NA,3000,1,NA,NA,images/purpleplanet.jpg,images/alien4,images/alien3,images/rocket2,images/alien3,images/nothing.png,2,real,true,1,common,0,2020-06-20T23:44:49Z,sub101
two-step-fixation,161,699655,0.0-76.0-2.8,TRUE,TRUE,TRUE,FALSE,"""event"",""trial"",""time""
""fullscreenenter"",""5"",""14874""
","
","
","""event"",""trial"",""time""
""fullscreenenter"",""5"",""14874""
","
",NA,images/earth.jpg,NA,NA,NA,NA,NA,NA,NA,NA,NA,NA,NA,NA,NA,fixation,NA,NA,NA,NA,NA,NA,sub101
d3-animate-choice,162,701917,0.0-76.0-0.9,TRUE,TRUE,TRUE,FALSE,"""event"",""trial"",""time""
""fullscreenenter"",""5"",""14874""
","
","
","""event"",""trial"",""time""
""fullscreenenter"",""5"",""14874""
","
",254.97999996878207,NA,48,NA,NA,3000,1,NA,NA,images/earth.jpg,images/rocket2,images/rocket1,null,images/rocket2,NA,1,real,null,2,NA,NA,NA,sub101
d3-animate-choice,163,704414,0.0-76.0-1.9,TRUE,TRUE,TRUE,FALSE,"""event"",""trial"",""time""
""fullscreenenter"",""5"",""14874""
","
","
","""event"",""trial"",""time""
""fullscreenenter"",""5"",""14874""
","
",491.1250000586733,NA,49,NA,NA,3000,1,NA,NA,images/purpleplanet.jpg,images/alien4,images/alien3,images/rocket2,images/alien3,images/t.png,2,real,true,1,common,1,2020-06-20T23:44:54Z,sub101
two-step-fixation,164,705420,0.0-76.0-2.9,TRUE,TRUE,TRUE,FALSE,"""event"",""trial"",""time""
""fullscreenenter"",""5"",""14874""
","
","
","""event"",""trial"",""time""
""fullscreenenter"",""5"",""14874""
","
",NA,images/earth.jpg,NA,NA,NA,NA,NA,NA,NA,NA,NA,NA,NA,NA,NA,fixation,NA,NA,NA,NA,NA,NA,sub101
d3-animate-choice,165,707800,0.0-76.0-0.10,TRUE,TRUE,TRUE,FALSE,"""event"",""trial"",""time""
""fullscreenenter"",""5"",""14874""
","
","
","""event"",""trial"",""time""
""fullscreenenter"",""5"",""14874""
","
",374.4650000007823,NA,48,NA,NA,3000,1,NA,NA,images/earth.jpg,images/rocket2,images/rocket1,null,images/rocket2,NA,1,real,null,2,NA,NA,NA,sub101
d3-animate-choice,166,710338,0.0-76.0-1.10,TRUE,TRUE,TRUE,FALSE,"""event"",""trial"",""time""
""fullscreenenter"",""5"",""14874""
","
","
","""event"",""trial"",""time""
""fullscreenenter"",""5"",""14874""
","
",531.1649999348447,NA,49,NA,NA,3000,1,NA,NA,images/purpleplanet.jpg,images/alien4,images/alien3,images/rocket2,images/alien3,images/nothing.png,2,real,true,1,common,0,2020-06-20T23:45:00Z,sub101
two-step-fixation,167,711344,0.0-76.0-2.10,TRUE,TRUE,TRUE,FALSE,"""event"",""trial"",""time""
""fullscreenenter"",""5"",""14874""
","
","
","""event"",""trial"",""time""
""fullscreenenter"",""5"",""14874""
","
",NA,images/earth.jpg,NA,NA,NA,NA,NA,NA,NA,NA,NA,NA,NA,NA,NA,fixation,NA,NA,NA,NA,NA,NA,sub101
d3-animate-choice,168,713661,0.0-76.0-0.11,TRUE,TRUE,TRUE,FALSE,"""event"",""trial"",""time""
""fullscreenenter"",""5"",""14874""
","
","
","""event"",""trial"",""time""
""fullscreenenter"",""5"",""14874""
","
",310.4900000616908,NA,48,NA,NA,3000,1,NA,NA,images/earth.jpg,images/rocket2,images/rocket1,null,images/rocket2,NA,1,real,null,2,NA,NA,NA,sub101
d3-animate-choice,169,716201,0.0-76.0-1.11,TRUE,TRUE,TRUE,FALSE,"""event"",""trial"",""time""
""fullscreenenter"",""5"",""14874""
","
","
","""event"",""trial"",""time""
""fullscreenenter"",""5"",""14874""
","
",532.245000009425,NA,49,NA,NA,3000,1,NA,NA,images/purpleplanet.jpg,images/alien4,images/alien3,images/rocket2,images/alien3,images/t.png,2,real,true,1,common,1,2020-06-20T23:45:06Z,sub101
two-step-fixation,170,717206,0.0-76.0-2.11,TRUE,TRUE,TRUE,FALSE,"""event"",""trial"",""time""
""fullscreenenter"",""5"",""14874""
","
","
","""event"",""trial"",""time""
""fullscreenenter"",""5"",""14874""
","
",NA,images/earth.jpg,NA,NA,NA,NA,NA,NA,NA,NA,NA,NA,NA,NA,NA,fixation,NA,NA,NA,NA,NA,NA,sub101
d3-animate-choice,171,719488,0.0-76.0-0.12,TRUE,TRUE,TRUE,FALSE,"""event"",""trial"",""time""
""fullscreenenter"",""5"",""14874""
","
","
","""event"",""trial"",""time""
""fullscreenenter"",""5"",""14874""
","
",276.3099999865517,NA,48,NA,NA,3000,1,NA,NA,images/earth.jpg,images/rocket2,images/rocket1,null,images/rocket2,NA,1,real,null,2,NA,NA,NA,sub101
d3-animate-choice,172,722195,0.0-76.0-1.12,TRUE,TRUE,TRUE,FALSE,"""event"",""trial"",""time""
""fullscreenenter"",""5"",""14874""
","
","
","""event"",""trial"",""time""
""fullscreenenter"",""5"",""14874""
","
",699.724999954924,NA,49,NA,NA,3000,1,NA,NA,images/purpleplanet.jpg,images/alien4,images/alien3,images/rocket2,images/alien3,images/nothing.png,2,real,true,1,common,0,2020-06-20T23:45:12Z,sub101
two-step-fixation,173,723202,0.0-76.0-2.12,TRUE,TRUE,TRUE,FALSE,"""event"",""trial"",""time""
""fullscreenenter"",""5"",""14874""
","
","
","""event"",""trial"",""time""
""fullscreenenter"",""5"",""14874""
","
",NA,images/earth.jpg,NA,NA,NA,NA,NA,NA,NA,NA,NA,NA,NA,NA,NA,fixation,NA,NA,NA,NA,NA,NA,sub101
d3-animate-choice,174,725525,0.0-76.0-0.13,TRUE,TRUE,TRUE,FALSE,"""event"",""trial"",""time""
""fullscreenenter"",""5"",""14874""
","
","
","""event"",""trial"",""time""
""fullscreenenter"",""5"",""14874""
","
",317.2150000464171,NA,48,NA,NA,3000,1,NA,NA,images/earth.jpg,images/rocket2,images/rocket1,null,images/rocket2,NA,1,real,null,2,NA,NA,NA,sub101
d3-animate-choice,175,728527,0.0-76.0-1.13,TRUE,TRUE,TRUE,FALSE,"""event"",""trial"",""time""
""fullscreenenter"",""5"",""14874""
","
","
","""event"",""trial"",""time""
""fullscreenenter"",""5"",""14874""
","
",995.4600000055507,NA,48,NA,NA,3000,1,NA,NA,images/purpleplanet.jpg,images/alien4,images/alien3,images/rocket2,images/alien4,images/t.png,2,real,true,2,common,1,2020-06-20T23:45:19Z,sub101
two-step-fixation,176,729532,0.0-76.0-2.13,TRUE,TRUE,TRUE,FALSE,"""event"",""trial"",""time""
""fullscreenenter"",""5"",""14874""
","
","
","""event"",""trial"",""time""
""fullscreenenter"",""5"",""14874""
","
",NA,images/earth.jpg,NA,NA,NA,NA,NA,NA,NA,NA,NA,NA,NA,NA,NA,fixation,NA,NA,NA,NA,NA,NA,sub101
d3-animate-choice,177,731968,0.0-76.0-0.14,TRUE,TRUE,TRUE,FALSE,"""event"",""trial"",""time""
""fullscreenenter"",""5"",""14874""
","
","
","""event"",""trial"",""time""
""fullscreenenter"",""5"",""14874""
","
",429.134999983944,NA,48,NA,NA,3000,1,NA,NA,images/earth.jpg,images/rocket2,images/rocket1,null,images/rocket2,NA,1,real,null,2,NA,NA,NA,sub101
d3-animate-choice,178,734502,0.0-76.0-1.14,TRUE,TRUE,TRUE,FALSE,"""event"",""trial"",""time""
""fullscreenenter"",""5"",""14874""
","
","
","""event"",""trial"",""time""
""fullscreenenter"",""5"",""14874""
","
",529.7049999935552,NA,48,NA,NA,3000,1,NA,NA,images/purpleplanet.jpg,images/alien4,images/alien3,images/rocket2,images/alien4,images/t.png,2,real,true,2,common,1,2020-06-20T23:45:25Z,sub101
two-step-fixation,179,735509,0.0-76.0-2.14,TRUE,TRUE,TRUE,FALSE,"""event"",""trial"",""time""
""fullscreenenter"",""5"",""14874""
","
","
","""event"",""trial"",""time""
""fullscreenenter"",""5"",""14874""
","
",NA,images/earth.jpg,NA,NA,NA,NA,NA,NA,NA,NA,NA,NA,NA,NA,NA,fixation,NA,NA,NA,NA,NA,NA,sub101
d3-animate-choice,180,737783,0.0-76.0-0.15,TRUE,TRUE,TRUE,FALSE,"""event"",""trial"",""time""
""fullscreenenter"",""5"",""14874""
","
","
","""event"",""trial"",""time""
""fullscreenenter"",""5"",""14874""
","
",267.8600000217557,NA,48,NA,NA,3000,1,NA,NA,images/earth.jpg,images/rocket2,images/rocket1,null,images/rocket2,NA,1,real,null,2,NA,NA,NA,sub101
d3-animate-choice,181,740192,0.0-76.0-1.15,TRUE,TRUE,TRUE,FALSE,"""event"",""trial"",""time""
""fullscreenenter"",""5"",""14874""
","
","
","""event"",""trial"",""time""
""fullscreenenter"",""5"",""14874""
","
",402.1550000179559,NA,48,NA,NA,3000,1,NA,NA,images/redplanet1.jpg,images/alien2,images/alien1,images/rocket2,images/alien2,images/t.png,2,real,false,2,rare,1,2020-06-20T23:45:30Z,sub101
two-step-fixation,182,741198,0.0-76.0-2.15,TRUE,TRUE,TRUE,FALSE,"""event"",""trial"",""time""
""fullscreenenter"",""5"",""14874""
","
","
","""event"",""trial"",""time""
""fullscreenenter"",""5"",""14874""
","
",NA,images/earth.jpg,NA,NA,NA,NA,NA,NA,NA,NA,NA,NA,NA,NA,NA,fixation,NA,NA,NA,NA,NA,NA,sub101
d3-animate-choice,183,743487,0.0-76.0-0.16,TRUE,TRUE,TRUE,FALSE,"""event"",""trial"",""time""
""fullscreenenter"",""5"",""14874""
","
","
","""event"",""trial"",""time""
""fullscreenenter"",""5"",""14874""
","
",281.734999967739,NA,48,NA,NA,3000,1,NA,NA,images/earth.jpg,images/rocket2,images/rocket1,null,images/rocket2,NA,1,real,null,2,NA,NA,NA,sub101
d3-animate-choice,184,745988,0.0-76.0-1.16,TRUE,TRUE,TRUE,FALSE,"""event"",""trial"",""time""
""fullscreenenter"",""5"",""14874""
","
","
","""event"",""trial"",""time""
""fullscreenenter"",""5"",""14874""
","
",496.309999958612,NA,48,NA,NA,3000,1,NA,NA,images/purpleplanet.jpg,images/alien4,images/alien3,images/rocket2,images/alien4,images/nothing.png,2,real,true,2,common,0,2020-06-20T23:45:36Z,sub101
two-step-fixation,185,746995,0.0-76.0-2.16,TRUE,TRUE,TRUE,FALSE,"""event"",""trial"",""time""
""fullscreenenter"",""5"",""14874""
","
","
","""event"",""trial"",""time""
""fullscreenenter"",""5"",""14874""
","
",NA,images/earth.jpg,NA,NA,NA,NA,NA,NA,NA,NA,NA,NA,NA,NA,NA,fixation,NA,NA,NA,NA,NA,NA,sub101
d3-animate-choice,186,749382,0.0-76.0-0.17,TRUE,TRUE,TRUE,FALSE,"""event"",""trial"",""time""
""fullscreenenter"",""5"",""14874""
","
","
","""event"",""trial"",""time""
""fullscreenenter"",""5"",""14874""
","
",382.24999990779907,NA,48,NA,NA,3000,1,NA,NA,images/earth.jpg,images/rocket2,images/rocket1,null,images/rocket2,NA,1,real,null,2,NA,NA,NA,sub101
d3-animate-choice,187,751925,0.0-76.0-1.17,TRUE,TRUE,TRUE,FALSE,"""event"",""trial"",""time""
""fullscreenenter"",""5"",""14874""
","
","
","""event"",""trial"",""time""
""fullscreenenter"",""5"",""14874""
","
",537.209999980405,NA,49,NA,NA,3000,1,NA,NA,images/purpleplanet.jpg,images/alien4,images/alien3,images/rocket2,images/alien3,images/nothing.png,2,real,true,1,common,0,2020-06-20T23:45:42Z,sub101
two-step-fixation,188,752932,0.0-76.0-2.17,TRUE,TRUE,TRUE,FALSE,"""event"",""trial"",""time""
""fullscreenenter"",""5"",""14874""
","
","
","""event"",""trial"",""time""
""fullscreenenter"",""5"",""14874""
","
",NA,images/earth.jpg,NA,NA,NA,NA,NA,NA,NA,NA,NA,NA,NA,NA,NA,fixation,NA,NA,NA,NA,NA,NA,sub101
d3-animate-choice,189,755209,0.0-76.0-0.18,TRUE,TRUE,TRUE,FALSE,"""event"",""trial"",""time""
""fullscreenenter"",""5"",""14874""
","
","
","""event"",""trial"",""time""
""fullscreenenter"",""5"",""14874""
","
",271.3350000558421,NA,48,NA,NA,3000,1,NA,NA,images/earth.jpg,images/rocket2,images/rocket1,null,images/rocket2,NA,1,real,null,2,NA,NA,NA,sub101
d3-animate-choice,190,757566,0.0-76.0-1.18,TRUE,TRUE,TRUE,FALSE,"""event"",""trial"",""time""
""fullscreenenter"",""5"",""14874""
","
","
","""event"",""trial"",""time""
""fullscreenenter"",""5"",""14874""
","
",350.75500002130866,NA,48,NA,NA,3000,1,NA,NA,images/redplanet1.jpg,images/alien2,images/alien1,images/rocket2,images/alien2,images/t.png,2,real,false,2,rare,1,2020-06-20T23:45:48Z,sub101
two-step-fixation,191,758572,0.0-76.0-2.18,TRUE,TRUE,TRUE,FALSE,"""event"",""trial"",""time""
""fullscreenenter"",""5"",""14874""
","
","
","""event"",""trial"",""time""
""fullscreenenter"",""5"",""14874""
","
",NA,images/earth.jpg,NA,NA,NA,NA,NA,NA,NA,NA,NA,NA,NA,NA,NA,fixation,NA,NA,NA,NA,NA,NA,sub101
d3-animate-choice,192,760995,0.0-76.0-0.19,TRUE,TRUE,TRUE,FALSE,"""event"",""trial"",""time""
""fullscreenenter"",""5"",""14874""
","
","
","""event"",""trial"",""time""
""fullscreenenter"",""5"",""14874""
","
",417.47499990742654,NA,48,NA,NA,3000,1,NA,NA,images/earth.jpg,images/rocket2,images/rocket1,null,images/rocket2,NA,1,real,null,2,NA,NA,NA,sub101
d3-animate-choice,193,763539,0.0-76.0-1.19,TRUE,TRUE,TRUE,FALSE,"""event"",""trial"",""time""
""fullscreenenter"",""5"",""14874""
","
","
","""event"",""trial"",""time""
""fullscreenenter"",""5"",""14874""
","
",537.1450000675395,NA,48,NA,NA,3000,1,NA,NA,images/redplanet1.jpg,images/alien2,images/alien1,images/rocket2,images/alien2,images/t.png,2,real,false,2,rare,1,2020-06-20T23:45:54Z,sub101
two-step-fixation,194,764546,0.0-76.0-2.19,TRUE,TRUE,TRUE,FALSE,"""event"",""trial"",""time""
""fullscreenenter"",""5"",""14874""
","
","
","""event"",""trial"",""time""
""fullscreenenter"",""5"",""14874""
","
",NA,images/earth.jpg,NA,NA,NA,NA,NA,NA,NA,NA,NA,NA,NA,NA,NA,fixation,NA,NA,NA,NA,NA,NA,sub101
d3-animate-choice,195,767024,0.0-76.0-0.20,TRUE,TRUE,TRUE,FALSE,"""event"",""trial"",""time""
""fullscreenenter"",""5"",""14874""
","
","
","""event"",""trial"",""time""
""fullscreenenter"",""5"",""14874""
","
",472.7699999930337,NA,48,NA,NA,3000,1,NA,NA,images/earth.jpg,images/rocket2,images/rocket1,null,images/rocket2,NA,1,real,null,2,NA,NA,NA,sub101
d3-animate-choice,196,769663,0.0-76.0-1.20,TRUE,TRUE,TRUE,FALSE,"""event"",""trial"",""time""
""fullscreenenter"",""5"",""14874""
","
","
","""event"",""trial"",""time""
""fullscreenenter"",""5"",""14874""
","
",632.5400000205263,NA,48,NA,NA,3000,1,NA,NA,images/redplanet1.jpg,images/alien2,images/alien1,images/rocket2,images/alien2,images/nothing.png,2,real,false,2,rare,0,2020-06-20T23:46:00Z,sub101
two-step-fixation,197,770667,0.0-76.0-2.20,TRUE,TRUE,TRUE,FALSE,"""event"",""trial"",""time""
""fullscreenenter"",""5"",""14874""
","
","
","""event"",""trial"",""time""
""fullscreenenter"",""5"",""14874""
","
",NA,images/earth.jpg,NA,NA,NA,NA,NA,NA,NA,NA,NA,NA,NA,NA,NA,fixation,NA,NA,NA,NA,NA,NA,sub101
d3-animate-choice,198,772928,0.0-76.0-0.21,TRUE,TRUE,TRUE,FALSE,"""event"",""trial"",""time""
""fullscreenenter"",""5"",""14874""
","
","
","""event"",""trial"",""time""
""fullscreenenter"",""5"",""14874""
","
",255.18500001635402,NA,48,NA,NA,3000,1,NA,NA,images/earth.jpg,images/rocket2,images/rocket1,null,images/rocket2,NA,1,real,null,2,NA,NA,NA,sub101
d3-animate-choice,199,775333,0.0-76.0-1.21,TRUE,TRUE,TRUE,FALSE,"""event"",""trial"",""time""
""fullscreenenter"",""5"",""14874""
","
","
","""event"",""trial"",""time""
""fullscreenenter"",""5"",""14874""
","
",395.4399999929592,NA,48,NA,NA,3000,1,NA,NA,images/redplanet1.jpg,images/alien2,images/alien1,images/rocket2,images/alien2,images/t.png,2,real,false,2,rare,1,2020-06-20T23:46:05Z,sub101
two-step-fixation,200,776338,0.0-76.0-2.21,TRUE,TRUE,TRUE,FALSE,"""event"",""trial"",""time""
""fullscreenenter"",""5"",""14874""
","
","
","""event"",""trial"",""time""
""fullscreenenter"",""5"",""14874""
","
",NA,images/earth.jpg,NA,NA,NA,NA,NA,NA,NA,NA,NA,NA,NA,NA,NA,fixation,NA,NA,NA,NA,NA,NA,sub101
d3-animate-choice,201,778690,0.0-76.0-0.22,TRUE,TRUE,TRUE,FALSE,"""event"",""trial"",""time""
""fullscreenenter"",""5"",""14874""
","
","
","""event"",""trial"",""time""
""fullscreenenter"",""5"",""14874""
","
",344.2199999699369,NA,48,NA,NA,3000,1,NA,NA,images/earth.jpg,images/rocket2,images/rocket1,null,images/rocket2,NA,1,real,null,2,NA,NA,NA,sub101
d3-animate-choice,202,781267,0.0-76.0-1.22,TRUE,TRUE,TRUE,FALSE,"""event"",""trial"",""time""
""fullscreenenter"",""5"",""14874""
","
","
","""event"",""trial"",""time""
""fullscreenenter"",""5"",""14874""
","
",572.2449999302626,NA,48,NA,NA,3000,1,NA,NA,images/purpleplanet.jpg,images/alien4,images/alien3,images/rocket2,images/alien4,images/t.png,2,real,true,2,common,1,2020-06-20T23:46:11Z,sub101
two-step-fixation,203,782273,0.0-76.0-2.22,TRUE,TRUE,TRUE,FALSE,"""event"",""trial"",""time""
""fullscreenenter"",""5"",""14874""
","
","
","""event"",""trial"",""time""
""fullscreenenter"",""5"",""14874""
","
",NA,images/earth.jpg,NA,NA,NA,NA,NA,NA,NA,NA,NA,NA,NA,NA,NA,fixation,NA,NA,NA,NA,NA,NA,sub101
d3-animate-choice,204,784603,0.0-76.0-0.23,TRUE,TRUE,TRUE,FALSE,"""event"",""trial"",""time""
""fullscreenenter"",""5"",""14874""
","
","
","""event"",""trial"",""time""
""fullscreenenter"",""5"",""14874""
","
",323.7799999769777,NA,48,NA,NA,3000,1,NA,NA,images/earth.jpg,images/rocket2,images/rocket1,null,images/rocket2,NA,1,real,null,2,NA,NA,NA,sub101
d3-animate-choice,205,787153,0.0-76.0-1.23,TRUE,TRUE,TRUE,FALSE,"""event"",""trial"",""time""
""fullscreenenter"",""5"",""14874""
","
","
","""event"",""trial"",""time""
""fullscreenenter"",""5"",""14874""
","
",543.125000083819,NA,48,NA,NA,3000,1,NA,NA,images/purpleplanet.jpg,images/alien4,images/alien3,images/rocket2,images/alien4,images/t.png,2,real,true,2,common,1,2020-06-20T23:46:17Z,sub101
two-step-fixation,206,788159,0.0-76.0-2.23,TRUE,TRUE,TRUE,FALSE,"""event"",""trial"",""time""
""fullscreenenter"",""5"",""14874""
","
","
","""event"",""trial"",""time""
""fullscreenenter"",""5"",""14874""
","
",NA,images/earth.jpg,NA,NA,NA,NA,NA,NA,NA,NA,NA,NA,NA,NA,NA,fixation,NA,NA,NA,NA,NA,NA,sub101
d3-animate-choice,207,790503,0.0-76.0-0.24,TRUE,TRUE,TRUE,FALSE,"""event"",""trial"",""time""
""fullscreenenter"",""5"",""14874""
","
","
","""event"",""trial"",""time""
""fullscreenenter"",""5"",""14874""
","
",337.13999995961785,NA,48,NA,NA,3000,1,NA,NA,images/earth.jpg,images/rocket2,images/rocket1,null,images/rocket2,NA,1,real,null,2,NA,NA,NA,sub101
d3-animate-choice,208,793292,0.0-76.0-1.24,TRUE,TRUE,TRUE,FALSE,"""event"",""trial"",""time""
""fullscreenenter"",""5"",""14874""
","
","
","""event"",""trial"",""time""
""fullscreenenter"",""5"",""14874""
","
",781.7950000753626,NA,48,NA,NA,3000,1,NA,NA,images/purpleplanet.jpg,images/alien4,images/alien3,images/rocket2,images/alien4,images/t.png,2,real,true,2,common,1,2020-06-20T23:46:23Z,sub101
two-step-fixation,209,794297,0.0-76.0-2.24,TRUE,TRUE,TRUE,FALSE,"""event"",""trial"",""time""
""fullscreenenter"",""5"",""14874""
","
","
","""event"",""trial"",""time""
""fullscreenenter"",""5"",""14874""
","
",NA,images/earth.jpg,NA,NA,NA,NA,NA,NA,NA,NA,NA,NA,NA,NA,NA,fixation,NA,NA,NA,NA,NA,NA,sub101
d3-animate-choice,210,796513,0.0-76.0-0.25,TRUE,TRUE,TRUE,FALSE,"""event"",""trial"",""time""
""fullscreenenter"",""5"",""14874""
","
","
","""event"",""trial"",""time""
""fullscreenenter"",""5"",""14874""
","
",208.91500008292496,NA,48,NA,NA,3000,1,NA,NA,images/earth.jpg,images/rocket2,images/rocket1,null,images/rocket2,NA,1,real,null,2,NA,NA,NA,sub101
d3-animate-choice,211,799085,0.0-76.0-1.25,TRUE,TRUE,TRUE,FALSE,"""event"",""trial"",""time""
""fullscreenenter"",""5"",""14874""
","
","
","""event"",""trial"",""time""
""fullscreenenter"",""5"",""14874""
","
",565.1799999177456,NA,48,NA,NA,3000,1,NA,NA,images/purpleplanet.jpg,images/alien4,images/alien3,images/rocket2,images/alien4,images/t.png,2,real,true,2,common,1,2020-06-20T23:46:29Z,sub101
two-step-fixation,212,800091,0.0-76.0-2.25,TRUE,TRUE,TRUE,FALSE,"""event"",""trial"",""time""
""fullscreenenter"",""5"",""14874""
","
","
","""event"",""trial"",""time""
""fullscreenenter"",""5"",""14874""
","
",NA,images/earth.jpg,NA,NA,NA,NA,NA,NA,NA,NA,NA,NA,NA,NA,NA,fixation,NA,NA,NA,NA,NA,NA,sub101
d3-animate-choice,213,802597,0.0-76.0-0.26,TRUE,TRUE,TRUE,FALSE,"""event"",""trial"",""time""
""fullscreenenter"",""5"",""14874""
","
","
","""event"",""trial"",""time""
""fullscreenenter"",""5"",""14874""
","
",498.24500002432615,NA,48,NA,NA,3000,1,NA,NA,images/earth.jpg,images/rocket2,images/rocket1,null,images/rocket2,NA,1,real,null,2,NA,NA,NA,sub101
d3-animate-choice,214,805039,0.0-76.0-1.26,TRUE,TRUE,TRUE,FALSE,"""event"",""trial"",""time""
""fullscreenenter"",""5"",""14874""
","
","
","""event"",""trial"",""time""
""fullscreenenter"",""5"",""14874""
","
",435.31999993138015,NA,48,NA,NA,3000,1,NA,NA,images/redplanet1.jpg,images/alien2,images/alien1,images/rocket2,images/alien2,images/nothing.png,2,real,false,2,rare,0,2020-06-20T23:46:35Z,sub101
two-step-fixation,215,806045,0.0-76.0-2.26,TRUE,TRUE,TRUE,FALSE,"""event"",""trial"",""time""
""fullscreenenter"",""5"",""14874""
","
","
","""event"",""trial"",""time""
""fullscreenenter"",""5"",""14874""
","
",NA,images/earth.jpg,NA,NA,NA,NA,NA,NA,NA,NA,NA,NA,NA,NA,NA,fixation,NA,NA,NA,NA,NA,NA,sub101
d3-animate-choice,216,808371,0.0-76.0-0.27,TRUE,TRUE,TRUE,FALSE,"""event"",""trial"",""time""
""fullscreenenter"",""5"",""14874""
","
","
","""event"",""trial"",""time""
""fullscreenenter"",""5"",""14874""
","
",318.70000006165355,NA,48,NA,NA,3000,1,NA,NA,images/earth.jpg,images/rocket2,images/rocket1,null,images/rocket2,NA,1,real,null,2,NA,NA,NA,sub101
d3-animate-choice,217,810771,0.0-76.0-1.27,TRUE,TRUE,TRUE,FALSE,"""event"",""trial"",""time""
""fullscreenenter"",""5"",""14874""
","
","
","""event"",""trial"",""time""
""fullscreenenter"",""5"",""14874""
","
",394.5449999300763,NA,48,NA,NA,3000,1,NA,NA,images/purpleplanet.jpg,images/alien4,images/alien3,images/rocket2,images/alien4,images/nothing.png,2,real,true,2,common,0,2020-06-20T23:46:41Z,sub101
two-step-fixation,218,811777,0.0-76.0-2.27,TRUE,TRUE,TRUE,FALSE,"""event"",""trial"",""time""
""fullscreenenter"",""5"",""14874""
","
","
","""event"",""trial"",""time""
""fullscreenenter"",""5"",""14874""
","
",NA,images/earth.jpg,NA,NA,NA,NA,NA,NA,NA,NA,NA,NA,NA,NA,NA,fixation,NA,NA,NA,NA,NA,NA,sub101
d3-animate-choice,219,814030,0.0-76.0-0.28,TRUE,TRUE,TRUE,FALSE,"""event"",""trial"",""time""
""fullscreenenter"",""5"",""14874""
","
","
","""event"",""trial"",""time""
""fullscreenenter"",""5"",""14874""
","
",245.99500000476837,NA,48,NA,NA,3000,1,NA,NA,images/earth.jpg,images/rocket2,images/rocket1,null,images/rocket2,NA,1,real,null,2,NA,NA,NA,sub101
d3-animate-choice,220,816581,0.0-76.0-1.28,TRUE,TRUE,TRUE,FALSE,"""event"",""trial"",""time""
""fullscreenenter"",""5"",""14874""
","
","
","""event"",""trial"",""time""
""fullscreenenter"",""5"",""14874""
","
",544.4050000514835,NA,49,NA,NA,3000,1,NA,NA,images/purpleplanet.jpg,images/alien4,images/alien3,images/rocket2,images/alien3,images/nothing.png,2,real,true,1,common,0,2020-06-20T23:46:47Z,sub101
two-step-fixation,221,817587,0.0-76.0-2.28,TRUE,TRUE,TRUE,FALSE,"""event"",""trial"",""time""
""fullscreenenter"",""5"",""14874""
","
","
","""event"",""trial"",""time""
""fullscreenenter"",""5"",""14874""
","
",NA,images/earth.jpg,NA,NA,NA,NA,NA,NA,NA,NA,NA,NA,NA,NA,NA,fixation,NA,NA,NA,NA,NA,NA,sub101
d3-animate-choice,222,819937,0.0-76.0-0.29,TRUE,TRUE,TRUE,FALSE,"""event"",""trial"",""time""
""fullscreenenter"",""5"",""14874""
","
","
","""event"",""trial"",""time""
""fullscreenenter"",""5"",""14874""
","
",343.4000000124797,NA,48,NA,NA,3000,1,NA,NA,images/earth.jpg,images/rocket2,images/rocket1,null,images/rocket2,NA,1,real,null,2,NA,NA,NA,sub101
d3-animate-choice,223,822866,0.0-76.0-1.29,TRUE,TRUE,TRUE,FALSE,"""event"",""trial"",""time""
""fullscreenenter"",""5"",""14874""
","
","
","""event"",""trial"",""time""
""fullscreenenter"",""5"",""14874""
","
",923.0949999764562,NA,48,NA,NA,3000,1,NA,NA,images/purpleplanet.jpg,images/alien4,images/alien3,images/rocket2,images/alien4,images/nothing.png,2,real,true,2,common,0,2020-06-20T23:46:53Z,sub101
two-step-fixation,224,823871,0.0-76.0-2.29,TRUE,TRUE,TRUE,FALSE,"""event"",""trial"",""time""
""fullscreenenter"",""5"",""14874""
","
","
","""event"",""trial"",""time""
""fullscreenenter"",""5"",""14874""
","
",NA,images/earth.jpg,NA,NA,NA,NA,NA,NA,NA,NA,NA,NA,NA,NA,NA,fixation,NA,NA,NA,NA,NA,NA,sub101
d3-animate-choice,225,826163,0.0-76.0-0.30,TRUE,TRUE,TRUE,FALSE,"""event"",""trial"",""time""
""fullscreenenter"",""5"",""14874""
","
","
","""event"",""trial"",""time""
""fullscreenenter"",""5"",""14874""
","
",284.3400000128895,NA,48,NA,NA,3000,1,NA,NA,images/earth.jpg,images/rocket2,images/rocket1,null,images/rocket2,NA,1,real,null,2,NA,NA,NA,sub101
d3-animate-choice,226,829051,0.0-76.0-1.30,TRUE,TRUE,TRUE,FALSE,"""event"",""trial"",""time""
""fullscreenenter"",""5"",""14874""
","
","
","""event"",""trial"",""time""
""fullscreenenter"",""5"",""14874""
","
",882.9000000841916,NA,49,NA,NA,3000,1,NA,NA,images/redplanet1.jpg,images/alien2,images/alien1,images/rocket2,images/alien1,images/t.png,2,real,false,1,rare,1,2020-06-20T23:46:59Z,sub101
two-step-fixation,227,830057,0.0-76.0-2.30,TRUE,TRUE,TRUE,FALSE,"""event"",""trial"",""time""
""fullscreenenter"",""5"",""14874""
","
","
","""event"",""trial"",""time""
""fullscreenenter"",""5"",""14874""
","
",NA,images/earth.jpg,NA,NA,NA,NA,NA,NA,NA,NA,NA,NA,NA,NA,NA,fixation,NA,NA,NA,NA,NA,NA,sub101
d3-animate-choice,228,832433,0.0-76.0-0.31,TRUE,TRUE,TRUE,FALSE,"""event"",""trial"",""time""
""fullscreenenter"",""5"",""14874""
","
","
","""event"",""trial"",""time""
""fullscreenenter"",""5"",""14874""
","
",367.9250000277534,NA,48,NA,NA,3000,1,NA,NA,images/earth.jpg,images/rocket2,images/rocket1,null,images/rocket2,NA,1,real,null,2,NA,NA,NA,sub101
d3-animate-choice,229,835042,0.0-76.0-1.31,TRUE,TRUE,TRUE,FALSE,"""event"",""trial"",""time""
""fullscreenenter"",""5"",""14874""
","
","
","""event"",""trial"",""time""
""fullscreenenter"",""5"",""14874""
","
",602.8850000584498,NA,49,NA,NA,3000,1,NA,NA,images/redplanet1.jpg,images/alien2,images/alien1,images/rocket2,images/alien1,images/t.png,2,real,false,1,rare,1,2020-06-20T23:47:05Z,sub101
two-step-fixation,230,836048,0.0-76.0-2.31,TRUE,TRUE,TRUE,FALSE,"""event"",""trial"",""time""
""fullscreenenter"",""5"",""14874""
","
","
","""event"",""trial"",""time""
""fullscreenenter"",""5"",""14874""
","
",NA,images/earth.jpg,NA,NA,NA,NA,NA,NA,NA,NA,NA,NA,NA,NA,NA,fixation,NA,NA,NA,NA,NA,NA,sub101
d3-animate-choice,231,838496,0.0-76.0-0.32,TRUE,TRUE,TRUE,FALSE,"""event"",""trial"",""time""
""fullscreenenter"",""5"",""14874""
","
","
","""event"",""trial"",""time""
""fullscreenenter"",""5"",""14874""
","
",441.03999994695187,NA,48,NA,NA,3000,1,NA,NA,images/earth.jpg,images/rocket2,images/rocket1,null,images/rocket2,NA,1,real,null,2,NA,NA,NA,sub101
d3-animate-choice,232,840942,0.0-76.0-1.32,TRUE,TRUE,TRUE,FALSE,"""event"",""trial"",""time""
""fullscreenenter"",""5"",""14874""
","
","
","""event"",""trial"",""time""
""fullscreenenter"",""5"",""14874""
","
",440.01500005833805,NA,49,NA,NA,3000,1,NA,NA,images/purpleplanet.jpg,images/alien4,images/alien3,images/rocket2,images/alien3,images/t.png,2,real,true,1,common,1,2020-06-20T23:47:11Z,sub101
two-step-fixation,233,841947,0.0-76.0-2.32,TRUE,TRUE,TRUE,FALSE,"""event"",""trial"",""time""
""fullscreenenter"",""5"",""14874""
","
","
","""event"",""trial"",""time""
""fullscreenenter"",""5"",""14874""
","
",NA,images/earth.jpg,NA,NA,NA,NA,NA,NA,NA,NA,NA,NA,NA,NA,NA,fixation,NA,NA,NA,NA,NA,NA,sub101
d3-animate-choice,234,844311,0.0-76.0-0.33,TRUE,TRUE,TRUE,FALSE,"""event"",""trial"",""time""
""fullscreenenter"",""5"",""14874""
","
","
","""event"",""trial"",""time""
""fullscreenenter"",""5"",""14874""
","
",359.4100000336766,NA,48,NA,NA,3000,1,NA,NA,images/earth.jpg,images/rocket2,images/rocket1,null,images/rocket2,NA,1,real,null,2,NA,NA,NA,sub101
d3-animate-choice,235,847325,0.0-76.0-1.33,TRUE,TRUE,TRUE,FALSE,"""event"",""trial"",""time""
""fullscreenenter"",""5"",""14874""
","
","
","""event"",""trial"",""time""
""fullscreenenter"",""5"",""14874""
","
",1008.8899999391288,NA,49,NA,NA,3000,1,NA,NA,images/purpleplanet.jpg,images/alien4,images/alien3,images/rocket2,images/alien3,images/t.png,2,real,true,1,common,1,2020-06-20T23:47:17Z,sub101
two-step-fixation,236,848332,0.0-76.0-2.33,TRUE,TRUE,TRUE,FALSE,"""event"",""trial"",""time""
""fullscreenenter"",""5"",""14874""
","
","
","""event"",""trial"",""time""
""fullscreenenter"",""5"",""14874""
","
",NA,images/earth.jpg,NA,NA,NA,NA,NA,NA,NA,NA,NA,NA,NA,NA,NA,fixation,NA,NA,NA,NA,NA,NA,sub101
d3-animate-choice,237,850763,0.0-76.0-0.34,TRUE,TRUE,TRUE,FALSE,"""event"",""trial"",""time""
""fullscreenenter"",""5"",""14874""
","
","
","""event"",""trial"",""time""
""fullscreenenter"",""5"",""14874""
","
",423.2149999588728,NA,48,NA,NA,3000,1,NA,NA,images/earth.jpg,images/rocket2,images/rocket1,null,images/rocket2,NA,1,real,null,2,NA,NA,NA,sub101
d3-animate-choice,238,853378,0.0-76.0-1.34,TRUE,TRUE,TRUE,FALSE,"""event"",""trial"",""time""
""fullscreenenter"",""5"",""14874""
","
","
","""event"",""trial"",""time""
""fullscreenenter"",""5"",""14874""
","
",608.6249999934807,NA,49,NA,NA,3000,1,NA,NA,images/purpleplanet.jpg,images/alien4,images/alien3,images/rocket2,images/alien3,images/nothing.png,2,real,true,1,common,0,2020-06-20T23:47:23Z,sub101
two-step-fixation,239,854384,0.0-76.0-2.34,TRUE,TRUE,TRUE,FALSE,"""event"",""trial"",""time""
""fullscreenenter"",""5"",""14874""
","
","
","""event"",""trial"",""time""
""fullscreenenter"",""5"",""14874""
","
",NA,images/earth.jpg,NA,NA,NA,NA,NA,NA,NA,NA,NA,NA,NA,NA,NA,fixation,NA,NA,NA,NA,NA,NA,sub101
d3-animate-choice,240,856785,0.0-76.0-0.35,TRUE,TRUE,TRUE,FALSE,"""event"",""trial"",""time""
""fullscreenenter"",""5"",""14874""
","
","
","""event"",""trial"",""time""
""fullscreenenter"",""5"",""14874""
","
",394.71500006038696,NA,48,NA,NA,3000,1,NA,NA,images/earth.jpg,images/rocket2,images/rocket1,null,images/rocket2,NA,1,real,null,2,NA,NA,NA,sub101
d3-animate-choice,241,859355,0.0-76.0-1.35,TRUE,TRUE,TRUE,FALSE,"""event"",""trial"",""time""
""fullscreenenter"",""5"",""14874""
","
","
","""event"",""trial"",""time""
""fullscreenenter"",""5"",""14874""
","
",564.2549999756739,NA,48,NA,NA,3000,1,NA,NA,images/purpleplanet.jpg,images/alien4,images/alien3,images/rocket2,images/alien4,images/nothing.png,2,real,true,2,common,0,2020-06-20T23:47:29Z,sub101
two-step-fixation,242,860360,0.0-76.0-2.35,TRUE,TRUE,TRUE,FALSE,"""event"",""trial"",""time""
""fullscreenenter"",""5"",""14874""
","
","
","""event"",""trial"",""time""
""fullscreenenter"",""5"",""14874""
","
",NA,images/earth.jpg,NA,NA,NA,NA,NA,NA,NA,NA,NA,NA,NA,NA,NA,fixation,NA,NA,NA,NA,NA,NA,sub101
d3-animate-choice,243,862765,0.0-76.0-0.36,TRUE,TRUE,TRUE,FALSE,"""event"",""trial"",""time""
""fullscreenenter"",""5"",""14874""
","
","
","""event"",""trial"",""time""
""fullscreenenter"",""5"",""14874""
","
",398.04000000003725,NA,48,NA,NA,3000,1,NA,NA,images/earth.jpg,images/rocket2,images/rocket1,null,images/rocket2,NA,1,real,null,2,NA,NA,NA,sub101
d3-animate-choice,244,865406,0.0-76.0-1.36,TRUE,TRUE,TRUE,FALSE,"""event"",""trial"",""time""
""fullscreenenter"",""5"",""14874""
","
","
","""event"",""trial"",""time""
""fullscreenenter"",""5"",""14874""
","
",635.7950000092387,NA,49,NA,NA,3000,1,NA,NA,images/purpleplanet.jpg,images/alien4,images/alien3,images/rocket2,images/alien3,images/nothing.png,2,real,true,1,common,0,2020-06-20T23:47:35Z,sub101
two-step-fixation,245,866412,0.0-76.0-2.36,TRUE,TRUE,TRUE,FALSE,"""event"",""trial"",""time""
""fullscreenenter"",""5"",""14874""
","
","
","""event"",""trial"",""time""
""fullscreenenter"",""5"",""14874""
","
",NA,images/earth.jpg,NA,NA,NA,NA,NA,NA,NA,NA,NA,NA,NA,NA,NA,fixation,NA,NA,NA,NA,NA,NA,sub101
d3-animate-choice,246,868731,0.0-76.0-0.37,TRUE,TRUE,TRUE,FALSE,"""event"",""trial"",""time""
""fullscreenenter"",""5"",""14874""
","
","
","""event"",""trial"",""time""
""fullscreenenter"",""5"",""14874""
","
",313.89500002842396,NA,48,NA,NA,3000,1,NA,NA,images/earth.jpg,images/rocket2,images/rocket1,null,images/rocket2,NA,1,real,null,2,NA,NA,NA,sub101
d3-animate-choice,247,871272,0.0-76.0-1.37,TRUE,TRUE,TRUE,FALSE,"""event"",""trial"",""time""
""fullscreenenter"",""5"",""14874""
","
","
","""event"",""trial"",""time""
""fullscreenenter"",""5"",""14874""
","
",535.1100000552833,NA,49,NA,NA,3000,1,NA,NA,images/redplanet1.jpg,images/alien2,images/alien1,images/rocket2,images/alien1,images/t.png,2,real,false,1,rare,1,2020-06-20T23:47:41Z,sub101
two-step-fixation,248,872278,0.0-76.0-2.37,TRUE,TRUE,TRUE,FALSE,"""event"",""trial"",""time""
""fullscreenenter"",""5"",""14874""
","
","
","""event"",""trial"",""time""
""fullscreenenter"",""5"",""14874""
","
",NA,images/earth.jpg,NA,NA,NA,NA,NA,NA,NA,NA,NA,NA,NA,NA,NA,fixation,NA,NA,NA,NA,NA,NA,sub101
d3-animate-choice,249,874695,0.0-76.0-0.38,TRUE,TRUE,TRUE,FALSE,"""event"",""trial"",""time""
""fullscreenenter"",""5"",""14874""
","
","
","""event"",""trial"",""time""
""fullscreenenter"",""5"",""14874""
","
",411.0499999951571,NA,48,NA,NA,3000,1,NA,NA,images/earth.jpg,images/rocket2,images/rocket1,null,images/rocket2,NA,1,real,null,2,NA,NA,NA,sub101
d3-animate-choice,250,877040,0.0-76.0-1.38,TRUE,TRUE,TRUE,FALSE,"""event"",""trial"",""time""
""fullscreenenter"",""5"",""14874""
","
","
","""event"",""trial"",""time""
""fullscreenenter"",""5"",""14874""
","
",339.464999968186,NA,48,NA,NA,3000,1,NA,NA,images/purpleplanet.jpg,images/alien4,images/alien3,images/rocket2,images/alien4,images/nothing.png,2,real,true,2,common,0,2020-06-20T23:47:47Z,sub101
two-step-fixation,251,878046,0.0-76.0-2.38,TRUE,TRUE,TRUE,FALSE,"""event"",""trial"",""time""
""fullscreenenter"",""5"",""14874""
","
","
","""event"",""trial"",""time""
""fullscreenenter"",""5"",""14874""
","
",NA,images/earth.jpg,NA,NA,NA,NA,NA,NA,NA,NA,NA,NA,NA,NA,NA,fixation,NA,NA,NA,NA,NA,NA,sub101
d3-animate-choice,252,880551,0.0-76.0-0.39,TRUE,TRUE,TRUE,FALSE,"""event"",""trial"",""time""
""fullscreenenter"",""5"",""14874""
","
","
","""event"",""trial"",""time""
""fullscreenenter"",""5"",""14874""
","
",498.5500000184402,NA,48,NA,NA,3000,1,NA,NA,images/earth.jpg,images/rocket2,images/rocket1,null,images/rocket2,NA,1,real,null,2,NA,NA,NA,sub101
d3-animate-choice,253,883523,0.0-76.0-1.39,TRUE,TRUE,TRUE,FALSE,"""event"",""trial"",""time""
""fullscreenenter"",""5"",""14874""
","
","
","""event"",""trial"",""time""
""fullscreenenter"",""5"",""14874""
","
",968.0599999846891,NA,49,NA,NA,3000,1,NA,NA,images/purpleplanet.jpg,images/alien4,images/alien3,images/rocket2,images/alien3,images/t.png,2,real,true,1,common,1,2020-06-20T23:47:54Z,sub101
two-step-fixation,254,884529,0.0-76.0-2.39,TRUE,TRUE,TRUE,FALSE,"""event"",""trial"",""time""
""fullscreenenter"",""5"",""14874""
","
","
","""event"",""trial"",""time""
""fullscreenenter"",""5"",""14874""
","
",NA,images/earth.jpg,NA,NA,NA,NA,NA,NA,NA,NA,NA,NA,NA,NA,NA,fixation,NA,NA,NA,NA,NA,NA,sub101
d3-animate-choice,255,887009,0.0-76.0-0.40,TRUE,TRUE,TRUE,FALSE,"""event"",""trial"",""time""
""fullscreenenter"",""5"",""14874""
","
","
","""event"",""trial"",""time""
""fullscreenenter"",""5"",""14874""
","
",473.7399999285117,NA,48,NA,NA,3000,1,NA,NA,images/earth.jpg,images/rocket2,images/rocket1,null,images/rocket2,NA,1,real,null,2,NA,NA,NA,sub101
d3-animate-choice,256,889814,0.0-76.0-1.40,TRUE,TRUE,TRUE,FALSE,"""event"",""trial"",""time""
""fullscreenenter"",""5"",""14874""
","
","
","""event"",""trial"",""time""
""fullscreenenter"",""5"",""14874""
","
",798.8649999024346,NA,49,NA,NA,3000,1,NA,NA,images/purpleplanet.jpg,images/alien4,images/alien3,images/rocket2,images/alien3,images/nothing.png,2,real,true,1,common,0,2020-06-20T23:48:00Z,sub101
two-step-fixation,257,890821,0.0-76.0-2.40,TRUE,TRUE,TRUE,FALSE,"""event"",""trial"",""time""
""fullscreenenter"",""5"",""14874""
","
","
","""event"",""trial"",""time""
""fullscreenenter"",""5"",""14874""
","
",NA,images/earth.jpg,NA,NA,NA,NA,NA,NA,NA,NA,NA,NA,NA,NA,NA,fixation,NA,NA,NA,NA,NA,NA,sub101
d3-animate-choice,258,893106,0.0-76.0-0.41,TRUE,TRUE,TRUE,FALSE,"""event"",""trial"",""time""
""fullscreenenter"",""5"",""14874""
","
","
","""event"",""trial"",""time""
""fullscreenenter"",""5"",""14874""
","
",280.19000007770956,NA,48,NA,NA,3000,1,NA,NA,images/earth.jpg,images/rocket2,images/rocket1,null,images/rocket2,NA,1,real,null,2,NA,NA,NA,sub101
d3-animate-choice,259,895712,0.0-76.0-1.41,TRUE,TRUE,TRUE,FALSE,"""event"",""trial"",""time""
""fullscreenenter"",""5"",""14874""
","
","
","""event"",""trial"",""time""
""fullscreenenter"",""5"",""14874""
","
",597.9649999644607,NA,48,NA,NA,3000,1,NA,NA,images/redplanet1.jpg,images/alien2,images/alien1,images/rocket2,images/alien2,images/t.png,2,real,false,2,rare,1,2020-06-20T23:48:06Z,sub101
two-step-fixation,260,896718,0.0-76.0-2.41,TRUE,TRUE,TRUE,FALSE,"""event"",""trial"",""time""
""fullscreenenter"",""5"",""14874""
","
","
","""event"",""trial"",""time""
""fullscreenenter"",""5"",""14874""
","
",NA,images/earth.jpg,NA,NA,NA,NA,NA,NA,NA,NA,NA,NA,NA,NA,NA,fixation,NA,NA,NA,NA,NA,NA,sub101
d3-animate-choice,261,899034,0.0-76.0-0.42,TRUE,TRUE,TRUE,FALSE,"""event"",""trial"",""time""
""fullscreenenter"",""5"",""14874""
","
","
","""event"",""trial"",""time""
""fullscreenenter"",""5"",""14874""
","
",310.38500007707626,NA,48,NA,NA,3000,1,NA,NA,images/earth.jpg,images/rocket2,images/rocket1,null,images/rocket2,NA,1,real,null,2,NA,NA,NA,sub101
d3-animate-choice,262,901399,0.0-76.0-1.42,TRUE,TRUE,TRUE,FALSE,"""event"",""trial"",""time""
""fullscreenenter"",""5"",""14874""
","
","
","""event"",""trial"",""time""
""fullscreenenter"",""5"",""14874""
","
",358.85999992024153,NA,48,NA,NA,3000,1,NA,NA,images/redplanet1.jpg,images/alien2,images/alien1,images/rocket2,images/alien2,images/t.png,2,real,false,2,rare,1,2020-06-20T23:48:11Z,sub101
two-step-fixation,263,902405,0.0-76.0-2.42,TRUE,TRUE,TRUE,FALSE,"""event"",""trial"",""time""
""fullscreenenter"",""5"",""14874""
","
","
","""event"",""trial"",""time""
""fullscreenenter"",""5"",""14874""
","
",NA,images/earth.jpg,NA,NA,NA,NA,NA,NA,NA,NA,NA,NA,NA,NA,NA,fixation,NA,NA,NA,NA,NA,NA,sub101
d3-animate-choice,264,904787,0.0-76.0-0.43,TRUE,TRUE,TRUE,FALSE,"""event"",""trial"",""time""
""fullscreenenter"",""5"",""14874""
","
","
","""event"",""trial"",""time""
""fullscreenenter"",""5"",""14874""
","
",375.194999971427,NA,48,NA,NA,3000,1,NA,NA,images/earth.jpg,images/rocket2,images/rocket1,null,images/rocket2,NA,1,real,null,2,NA,NA,NA,sub101
d3-animate-choice,265,907390,0.0-76.0-1.43,TRUE,TRUE,TRUE,FALSE,"""event"",""trial"",""time""
""fullscreenenter"",""5"",""14874""
","
","
","""event"",""trial"",""time""
""fullscreenenter"",""5"",""14874""
","
",596.8350000912324,NA,48,NA,NA,3000,1,NA,NA,images/purpleplanet.jpg,images/alien4,images/alien3,images/rocket2,images/alien4,images/t.png,2,real,true,2,common,1,2020-06-20T23:48:17Z,sub101
two-step-fixation,266,908395,0.0-76.0-2.43,TRUE,TRUE,TRUE,FALSE,"""event"",""trial"",""time""
""fullscreenenter"",""5"",""14874""
","
","
","""event"",""trial"",""time""
""fullscreenenter"",""5"",""14874""
","
",NA,images/earth.jpg,NA,NA,NA,NA,NA,NA,NA,NA,NA,NA,NA,NA,NA,fixation,NA,NA,NA,NA,NA,NA,sub101
d3-animate-choice,267,910908,0.0-76.0-0.44,TRUE,TRUE,TRUE,FALSE,"""event"",""trial"",""time""
""fullscreenenter"",""5"",""14874""
","
","
","""event"",""trial"",""time""
""fullscreenenter"",""5"",""14874""
","
",506.3800000352785,NA,48,NA,NA,3000,1,NA,NA,images/earth.jpg,images/rocket2,images/rocket1,null,images/rocket2,NA,1,real,null,2,NA,NA,NA,sub101
d3-animate-choice,268,913432,0.0-76.0-1.44,TRUE,TRUE,TRUE,FALSE,"""event"",""trial"",""time""
""fullscreenenter"",""5"",""14874""
","
","
","""event"",""trial"",""time""
""fullscreenenter"",""5"",""14874""
","
",518.43000005465,NA,48,NA,NA,3000,1,NA,NA,images/redplanet1.jpg,images/alien2,images/alien1,images/rocket2,images/alien2,images/nothing.png,2,real,false,2,rare,0,2020-06-20T23:48:23Z,sub101
two-step-fixation,269,914439,0.0-76.0-2.44,TRUE,TRUE,TRUE,FALSE,"""event"",""trial"",""time""
""fullscreenenter"",""5"",""14874""
","
","
","""event"",""trial"",""time""
""fullscreenenter"",""5"",""14874""
","
",NA,images/earth.jpg,NA,NA,NA,NA,NA,NA,NA,NA,NA,NA,NA,NA,NA,fixation,NA,NA,NA,NA,NA,NA,sub101
d3-animate-choice,270,916969,0.0-76.0-0.45,TRUE,TRUE,TRUE,FALSE,"""event"",""trial"",""time""
""fullscreenenter"",""5"",""14874""
","
","
","""event"",""trial"",""time""
""fullscreenenter"",""5"",""14874""
","
",524.2700000526384,NA,48,NA,NA,3000,1,NA,NA,images/earth.jpg,images/rocket2,images/rocket1,null,images/rocket2,NA,1,real,null,2,NA,NA,NA,sub101
d3-animate-choice,271,919342,0.0-76.0-1.45,TRUE,TRUE,TRUE,FALSE,"""event"",""trial"",""time""
""fullscreenenter"",""5"",""14874""
","
","
","""event"",""trial"",""time""
""fullscreenenter"",""5"",""14874""
","
",366.3650000235066,NA,49,NA,NA,3000,1,NA,NA,images/redplanet1.jpg,images/alien2,images/alien1,images/rocket2,images/alien1,images/nothing.png,2,real,false,1,rare,0,2020-06-20T23:48:29Z,sub101
two-step-fixation,272,920347,0.0-76.0-2.45,TRUE,TRUE,TRUE,FALSE,"""event"",""trial"",""time""
""fullscreenenter"",""5"",""14874""
","
","
","""event"",""trial"",""time""
""fullscreenenter"",""5"",""14874""
","
",NA,images/earth.jpg,NA,NA,NA,NA,NA,NA,NA,NA,NA,NA,NA,NA,NA,fixation,NA,NA,NA,NA,NA,NA,sub101
d3-animate-choice,273,922726,0.0-76.0-0.46,TRUE,TRUE,TRUE,FALSE,"""event"",""trial"",""time""
""fullscreenenter"",""5"",""14874""
","
","
","""event"",""trial"",""time""
""fullscreenenter"",""5"",""14874""
","
",372.2800000105053,NA,48,NA,NA,3000,1,NA,NA,images/earth.jpg,images/rocket2,images/rocket1,null,images/rocket2,NA,1,real,null,2,NA,NA,NA,sub101
d3-animate-choice,274,925304,0.0-76.0-1.46,TRUE,TRUE,TRUE,FALSE,"""event"",""trial"",""time""
""fullscreenenter"",""5"",""14874""
","
","
","""event"",""trial"",""time""
""fullscreenenter"",""5"",""14874""
","
",572.9799999389797,NA,48,NA,NA,3000,1,NA,NA,images/redplanet1.jpg,images/alien2,images/alien1,images/rocket2,images/alien2,images/t.png,2,real,false,2,rare,1,2020-06-20T23:48:35Z,sub101
two-step-fixation,275,926310,0.0-76.0-2.46,TRUE,TRUE,TRUE,FALSE,"""event"",""trial"",""time""
""fullscreenenter"",""5"",""14874""
","
","
","""event"",""trial"",""time""
""fullscreenenter"",""5"",""14874""
","
",NA,images/earth.jpg,NA,NA,NA,NA,NA,NA,NA,NA,NA,NA,NA,NA,NA,fixation,NA,NA,NA,NA,NA,NA,sub101
d3-animate-choice,276,928832,0.0-76.0-0.47,TRUE,TRUE,TRUE,FALSE,"""event"",""trial"",""time""
""fullscreenenter"",""5"",""14874""
","
","
","""event"",""trial"",""time""
""fullscreenenter"",""5"",""14874""
","
",515.7700000563636,NA,48,NA,NA,3000,1,NA,NA,images/earth.jpg,images/rocket2,images/rocket1,null,images/rocket2,NA,1,real,null,2,NA,NA,NA,sub101
d3-animate-choice,277,931702,0.0-76.0-1.47,TRUE,TRUE,TRUE,FALSE,"""event"",""trial"",""time""
""fullscreenenter"",""5"",""14874""
","
","
","""event"",""trial"",""time""
""fullscreenenter"",""5"",""14874""
","
",863.8349999673665,NA,48,NA,NA,3000,1,NA,NA,images/redplanet1.jpg,images/alien2,images/alien1,images/rocket2,images/alien2,images/t.png,2,real,false,2,rare,1,2020-06-20T23:48:42Z,sub101
two-step-fixation,278,932708,0.0-76.0-2.47,TRUE,TRUE,TRUE,FALSE,"""event"",""trial"",""time""
""fullscreenenter"",""5"",""14874""
","
","
","""event"",""trial"",""time""
""fullscreenenter"",""5"",""14874""
","
",NA,images/earth.jpg,NA,NA,NA,NA,NA,NA,NA,NA,NA,NA,NA,NA,NA,fixation,NA,NA,NA,NA,NA,NA,sub101
d3-animate-choice,279,935071,0.0-76.0-0.48,TRUE,TRUE,TRUE,FALSE,"""event"",""trial"",""time""
""fullscreenenter"",""5"",""14874""
","
","
","""event"",""trial"",""time""
""fullscreenenter"",""5"",""14874""
","
",355.4149999981746,NA,48,NA,NA,3000,1,NA,NA,images/earth.jpg,images/rocket2,images/rocket1,null,images/rocket2,NA,1,real,null,2,NA,NA,NA,sub101
d3-animate-choice,280,938037,0.0-76.0-1.48,TRUE,TRUE,TRUE,FALSE,"""event"",""trial"",""time""
""fullscreenenter"",""5"",""14874""
","
","
","""event"",""trial"",""time""
""fullscreenenter"",""5"",""14874""
","
",958.3049999782816,NA,48,NA,NA,3000,1,NA,NA,images/purpleplanet.jpg,images/alien4,images/alien3,images/rocket2,images/alien4,images/t.png,2,real,true,2,common,1,2020-06-20T23:48:48Z,sub101
two-step-fixation,281,939043,0.0-76.0-2.48,TRUE,TRUE,TRUE,FALSE,"""event"",""trial"",""time""
""fullscreenenter"",""5"",""14874""
","
","
","""event"",""trial"",""time""
""fullscreenenter"",""5"",""14874""
","
",NA,images/earth.jpg,NA,NA,NA,NA,NA,NA,NA,NA,NA,NA,NA,NA,NA,fixation,NA,NA,NA,NA,NA,NA,sub101
d3-animate-choice,282,942130,0.0-76.0-0.49,TRUE,TRUE,TRUE,FALSE,"""event"",""trial"",""time""
""fullscreenenter"",""5"",""14874""
","
","
","""event"",""trial"",""time""
""fullscreenenter"",""5"",""14874""
","
",1081.0200000414625,NA,48,NA,NA,3000,1,NA,NA,images/earth.jpg,images/rocket2,images/rocket1,null,images/rocket2,NA,1,real,null,2,NA,NA,NA,sub101
d3-animate-choice,283,944587,0.0-76.0-1.49,TRUE,TRUE,TRUE,FALSE,"""event"",""trial"",""time""
""fullscreenenter"",""5"",""14874""
","
","
","""event"",""trial"",""time""
""fullscreenenter"",""5"",""14874""
","
",451.45499997306615,NA,48,NA,NA,3000,1,NA,NA,images/redplanet1.jpg,images/alien2,images/alien1,images/rocket2,images/alien2,images/t.png,2,real,false,2,rare,1,2020-06-20T23:48:55Z,sub101
