trial_type,trial_index,time_elapsed,internal_node_id,rocket_sides,red_planet_first_rocket,red_display_order,purple_display_order,interactions,blur_events,focus_events,fullscreenenter_events,fullscreenexit_events,rt,stimulus,key_press,button_pressed,success,duration,valid_pressed,rts,keys,planet_text,right_text,left_text,center_text,chosen_text,reward_text,trial_stage,practice_trial,transition_type,choice,transition,reward,timestamp,subject_id
pavlovia,0,4,0.0-0.0,FALSE,FALSE,FALSE,TRUE,"
","
","
","
","
",NA,NA,NA,NA,NA,NA,NA,NA,NA,NA,NA,NA,NA,NA,NA,NA,NA,NA,NA,NA,NA,NA,sub107
html-keyboard-response,1,1737,0.0-1.0,FALSE,FALSE,FALSE,TRUE,"
","
","
","
","
",1731.7999999999647,Welcome! Press the space bar to begin.,32,NA,NA,NA,NA,NA,NA,NA,NA,NA,NA,NA,NA,NA,NA,NA,NA,NA,NA,NA,sub107
audio-keyboard-response,2,4638,0.0-2.0,FALSE,FALSE,FALSE,TRUE,"
","
","
","
","
",2840,audio/beep_loop.wav,32,NA,NA,NA,NA,NA,NA,NA,NA,NA,NA,NA,NA,NA,NA,NA,NA,NA,NA,NA,sub107
audio-button-response,3,7609,0.0-3.0,FALSE,FALSE,FALSE,TRUE,"
","
","
","
","
",NaN,audio/fish.mp3,NA,1,NA,NA,NA,NA,NA,NA,NA,NA,NA,NA,NA,NA,NA,NA,NA,NA,NA,NA,sub107
audio-button-response,4,10813,0.0-4.0,FALSE,FALSE,FALSE,TRUE,"""event"",""trial"",""time""
""blur"",""5"",""16632""
""focus"",""5"",""20166""
""fullscreenenter"",""5"",""20268""
","""event"",""trial"",""time""
""blur"",""5"",""16632""
","""event"",""trial"",""time""
""focus"",""5"",""20166""
","""event"",""trial"",""time""
""fullscreenenter"",""5"",""20268""
","
",NaN,audio/tiger.mp3,NA,4,NA,NA,NA,NA,NA,NA,NA,NA,NA,NA,NA,NA,NA,NA,NA,NA,NA,NA,sub107
fullscreen,5,21247,0.0-5.0,FALSE,FALSE,FALSE,TRUE,"""event"",""trial"",""time""
""blur"",""5"",""16632""
""focus"",""5"",""20166""
""fullscreenenter"",""5"",""20268""
","""event"",""trial"",""time""
""blur"",""5"",""16632""
","""event"",""trial"",""time""
""focus"",""5"",""20166""
","""event"",""trial"",""time""
""fullscreenenter"",""5"",""20268""
","
",NA,NA,NA,NA,TRUE,NA,NA,NA,NA,NA,NA,NA,NA,NA,NA,NA,NA,NA,NA,NA,NA,NA,sub107
d3-instructions,6,32234,0.0-6.0,FALSE,FALSE,FALSE,TRUE,"""event"",""trial"",""time""
""blur"",""5"",""16632""
""focus"",""5"",""20166""
""fullscreenenter"",""5"",""20268""
","""event"",""trial"",""time""
""blur"",""5"",""16632""
","""event"",""trial"",""time""
""focus"",""5"",""20166""
","""event"",""trial"",""time""
""fullscreenenter"",""5"",""20268""
","
",NA,NA,NA,NA,NA,NA,NA,NA,NA,NA,NA,NA,NA,NA,NA,NA,NA,NA,NA,NA,NA,NA,sub107
d3-instructions,7,41488,0.0-7.0,FALSE,FALSE,FALSE,TRUE,"""event"",""trial"",""time""
""blur"",""5"",""16632""
""focus"",""5"",""20166""
""fullscreenenter"",""5"",""20268""
","""event"",""trial"",""time""
""blur"",""5"",""16632""
","""event"",""trial"",""time""
""focus"",""5"",""20166""
","""event"",""trial"",""time""
""fullscreenenter"",""5"",""20268""
","
",NA,NA,NA,NA,NA,NA,NA,NA,NA,NA,NA,NA,NA,NA,NA,NA,NA,NA,NA,NA,NA,NA,sub107
d3-instructions,8,50991,0.0-8.0,FALSE,FALSE,FALSE,TRUE,"""event"",""trial"",""time""
""blur"",""5"",""16632""
""focus"",""5"",""20166""
""fullscreenenter"",""5"",""20268""
","""event"",""trial"",""time""
""blur"",""5"",""16632""
","""event"",""trial"",""time""
""focus"",""5"",""20166""
","""event"",""trial"",""time""
""fullscreenenter"",""5"",""20268""
","
",NA,NA,NA,NA,NA,NA,NA,NA,NA,NA,NA,NA,NA,NA,NA,NA,NA,NA,NA,NA,NA,NA,sub107
d3-instructions,9,62756,0.0-9.0,FALSE,FALSE,FALSE,TRUE,"""event"",""trial"",""time""
""blur"",""5"",""16632""
""focus"",""5"",""20166""
""fullscreenenter"",""5"",""20268""
","""event"",""trial"",""time""
""blur"",""5"",""16632""
","""event"",""trial"",""time""
""focus"",""5"",""20166""
","""event"",""trial"",""time""
""fullscreenenter"",""5"",""20268""
","
",NA,NA,NA,NA,NA,NA,NA,NA,NA,NA,NA,NA,NA,NA,NA,NA,NA,NA,NA,NA,NA,NA,sub107
d3-instructions,10,86261,0.0-10.0,FALSE,FALSE,FALSE,TRUE,"""event"",""trial"",""time""
""blur"",""5"",""16632""
""focus"",""5"",""20166""
""fullscreenenter"",""5"",""20268""
","""event"",""trial"",""time""
""blur"",""5"",""16632""
","""event"",""trial"",""time""
""focus"",""5"",""20166""
","""event"",""trial"",""time""
""fullscreenenter"",""5"",""20268""
","
",NA,NA,NA,NA,NA,NA,NA,NA,NA,NA,NA,NA,NA,NA,NA,NA,NA,NA,NA,NA,NA,NA,sub107
d3-animate-choice,11,89237,0.0-11.0,FALSE,FALSE,FALSE,TRUE,"""event"",""trial"",""time""
""blur"",""5"",""16632""
""focus"",""5"",""20166""
""fullscreenenter"",""5"",""20268""
","""event"",""trial"",""time""
""blur"",""5"",""16632""
","""event"",""trial"",""time""
""focus"",""5"",""20166""
","""event"",""trial"",""time""
""fullscreenenter"",""5"",""20268""
","
",962.8400000000256,NA,49,NA,NA,3000,1,2377.1600000000035,48,images/tutgreenplanet.jpg,images/tutalien1,images/tutalien2,null,images/tutalien2,NA,NA,practice,null,NA,NA,NA,NA,sub107
d3-animate-choice,12,91837,0.0-12.0,FALSE,FALSE,FALSE,TRUE,"""event"",""trial"",""time""
""blur"",""5"",""16632""
""focus"",""5"",""20166""
""fullscreenenter"",""5"",""20268""
","""event"",""trial"",""time""
""blur"",""5"",""16632""
","""event"",""trial"",""time""
""focus"",""5"",""20166""
","""event"",""trial"",""time""
""fullscreenenter"",""5"",""20268""
","
",589.315000000046,NA,48,NA,NA,3000,1,NA,NA,images/tutgreenplanet.jpg,images/tutalien1,images/tutalien2,null,images/tutalien1,NA,NA,practice,null,NA,NA,NA,NA,sub107
d3-animate-choice,13,94897,0.0-13.0,FALSE,FALSE,FALSE,TRUE,"""event"",""trial"",""time""
""blur"",""5"",""16632""
""focus"",""5"",""20166""
""fullscreenenter"",""5"",""20268""
","""event"",""trial"",""time""
""blur"",""5"",""16632""
","""event"",""trial"",""time""
""focus"",""5"",""20166""
","""event"",""trial"",""time""
""fullscreenenter"",""5"",""20268""
","
",1044.4949999999808,NA,49,NA,NA,3000,1,NA,NA,images/tutgreenplanet.jpg,images/tutalien1,images/tutalien2,null,images/tutalien2,NA,NA,practice,null,NA,NA,NA,NA,sub107
d3-animate-choice,14,98567,0.0-14.0,FALSE,FALSE,FALSE,TRUE,"""event"",""trial"",""time""
""blur"",""5"",""16632""
""focus"",""5"",""20166""
""fullscreenenter"",""5"",""20268""
","""event"",""trial"",""time""
""blur"",""5"",""16632""
","""event"",""trial"",""time""
""focus"",""5"",""20166""
","""event"",""trial"",""time""
""fullscreenenter"",""5"",""20268""
","
",1666.5949999999139,NA,48,NA,NA,3000,1,3419.1499999999505,32,images/tutgreenplanet.jpg,images/tutalien1,images/tutalien2,null,images/tutalien1,NA,NA,practice,null,NA,NA,NA,NA,sub107
d3-instructions,15,107600,0.0-15.0,FALSE,FALSE,FALSE,TRUE,"""event"",""trial"",""time""
""blur"",""5"",""16632""
""focus"",""5"",""20166""
""fullscreenenter"",""5"",""20268""
","""event"",""trial"",""time""
""blur"",""5"",""16632""
","""event"",""trial"",""time""
""focus"",""5"",""20166""
","""event"",""trial"",""time""
""fullscreenenter"",""5"",""20268""
","
",NA,NA,NA,NA,NA,NA,NA,NA,NA,NA,NA,NA,NA,NA,NA,NA,NA,NA,NA,NA,NA,NA,sub107
d3-instructions,16,115502,0.0-16.0,FALSE,FALSE,FALSE,TRUE,"""event"",""trial"",""time""
""blur"",""5"",""16632""
""focus"",""5"",""20166""
""fullscreenenter"",""5"",""20268""
","""event"",""trial"",""time""
""blur"",""5"",""16632""
","""event"",""trial"",""time""
""focus"",""5"",""20166""
","""event"",""trial"",""time""
""fullscreenenter"",""5"",""20268""
","
",NA,NA,NA,NA,NA,NA,NA,NA,NA,NA,NA,NA,NA,NA,NA,NA,NA,NA,NA,NA,NA,NA,sub107
d3-instructions,17,124894,0.0-17.0,FALSE,FALSE,FALSE,TRUE,"""event"",""trial"",""time""
""blur"",""5"",""16632""
""focus"",""5"",""20166""
""fullscreenenter"",""5"",""20268""
","""event"",""trial"",""time""
""blur"",""5"",""16632""
","""event"",""trial"",""time""
""focus"",""5"",""20166""
","""event"",""trial"",""time""
""fullscreenenter"",""5"",""20268""
","
",NA,NA,NA,NA,NA,NA,NA,NA,NA,NA,NA,NA,NA,NA,NA,NA,NA,NA,NA,NA,NA,NA,sub107
d3-instructions,18,139078,0.0-18.0,FALSE,FALSE,FALSE,TRUE,"""event"",""trial"",""time""
""blur"",""5"",""16632""
""focus"",""5"",""20166""
""fullscreenenter"",""5"",""20268""
","""event"",""trial"",""time""
""blur"",""5"",""16632""
","""event"",""trial"",""time""
""focus"",""5"",""20166""
","""event"",""trial"",""time""
""fullscreenenter"",""5"",""20268""
","
",NA,NA,NA,NA,NA,NA,NA,NA,NA,NA,NA,NA,NA,NA,NA,NA,NA,NA,NA,NA,NA,NA,sub107
d3-instructions,19,155993,0.0-19.0,FALSE,FALSE,FALSE,TRUE,"""event"",""trial"",""time""
""blur"",""5"",""16632""
""focus"",""5"",""20166""
""fullscreenenter"",""5"",""20268""
","""event"",""trial"",""time""
""blur"",""5"",""16632""
","""event"",""trial"",""time""
""focus"",""5"",""20166""
","""event"",""trial"",""time""
""fullscreenenter"",""5"",""20268""
","
",NA,NA,NA,NA,NA,NA,NA,NA,NA,NA,NA,NA,NA,NA,NA,NA,NA,NA,NA,NA,NA,NA,sub107
d3-animate-choice,20,159508,0.0-20.0,FALSE,FALSE,FALSE,TRUE,"""event"",""trial"",""time""
""blur"",""5"",""16632""
""focus"",""5"",""20166""
""fullscreenenter"",""5"",""20268""
","""event"",""trial"",""time""
""blur"",""5"",""16632""
","""event"",""trial"",""time""
""focus"",""5"",""20166""
","""event"",""trial"",""time""
""fullscreenenter"",""5"",""20268""
","
",1511.484999999986,NA,49,NA,NA,3000,1,NA,NA,images/tutyellowplanet.jpg,null,images/tutalien3,null,images/tutalien3,images/t.png,NA,practice,null,NA,NA,NA,NA,sub107
d3-animate-choice,21,163647,0.0-21.0,FALSE,FALSE,FALSE,TRUE,"""event"",""trial"",""time""
""blur"",""5"",""16632""
""focus"",""5"",""20166""
""fullscreenenter"",""5"",""20268""
","""event"",""trial"",""time""
""blur"",""5"",""16632""
","""event"",""trial"",""time""
""focus"",""5"",""20166""
","""event"",""trial"",""time""
""fullscreenenter"",""5"",""20268""
","
",2122.7899999998917,NA,49,NA,NA,3000,1,NA,NA,images/tutyellowplanet.jpg,null,images/tutalien3,null,images/tutalien3,images/t.png,NA,practice,null,NA,NA,NA,NA,sub107
d3-animate-choice,22,165997,0.0-22.0,FALSE,FALSE,FALSE,TRUE,"""event"",""trial"",""time""
""blur"",""5"",""16632""
""focus"",""5"",""20166""
""fullscreenenter"",""5"",""20268""
","""event"",""trial"",""time""
""blur"",""5"",""16632""
","""event"",""trial"",""time""
""focus"",""5"",""20166""
","""event"",""trial"",""time""
""fullscreenenter"",""5"",""20268""
","
",345.7250000000058,NA,49,NA,NA,3000,1,727.804999999993,49,images/tutyellowplanet.jpg,null,images/tutalien3,null,images/tutalien3,images/t.png,NA,practice,null,NA,NA,NA,NA,sub107
d3-animate-choice,23,168377,0.0-23.0,FALSE,FALSE,FALSE,TRUE,"""event"",""trial"",""time""
""blur"",""5"",""16632""
""focus"",""5"",""20166""
""fullscreenenter"",""5"",""20268""
","""event"",""trial"",""time""
""blur"",""5"",""16632""
","""event"",""trial"",""time""
""focus"",""5"",""20166""
","""event"",""trial"",""time""
""fullscreenenter"",""5"",""20268""
","
",361.9800000000105,NA,49,NA,NA,3000,1,NA,NA,images/tutyellowplanet.jpg,null,images/tutalien3,null,images/tutalien3,images/t.png,NA,practice,null,NA,NA,NA,NA,sub107
d3-animate-choice,24,170652,0.0-24.0,FALSE,FALSE,FALSE,TRUE,"""event"",""trial"",""time""
""blur"",""5"",""16632""
""focus"",""5"",""20166""
""fullscreenenter"",""5"",""20268""
","""event"",""trial"",""time""
""blur"",""5"",""16632""
","""event"",""trial"",""time""
""focus"",""5"",""20166""
","""event"",""trial"",""time""
""fullscreenenter"",""5"",""20268""
","
",269.1900000000023,NA,49,NA,NA,3000,1,NA,NA,images/tutyellowplanet.jpg,null,images/tutalien3,null,images/tutalien3,images/t.png,NA,practice,null,NA,NA,NA,NA,sub107
d3-animate-choice,25,172987,0.0-25.0,FALSE,FALSE,FALSE,TRUE,"""event"",""trial"",""time""
""blur"",""5"",""16632""
""focus"",""5"",""20166""
""fullscreenenter"",""5"",""20268""
","""event"",""trial"",""time""
""blur"",""5"",""16632""
","""event"",""trial"",""time""
""focus"",""5"",""20166""
","""event"",""trial"",""time""
""fullscreenenter"",""5"",""20268""
","
",319.75499999997555,NA,49,NA,NA,3000,1,NA,NA,images/tutyellowplanet.jpg,null,images/tutalien3,null,images/tutalien3,images/t.png,NA,practice,null,NA,NA,NA,NA,sub107
d3-animate-choice,26,175246,0.0-26.0,FALSE,FALSE,FALSE,TRUE,"""event"",""trial"",""time""
""blur"",""5"",""16632""
""focus"",""5"",""20166""
""fullscreenenter"",""5"",""20268""
","""event"",""trial"",""time""
""blur"",""5"",""16632""
","""event"",""trial"",""time""
""focus"",""5"",""20166""
","""event"",""trial"",""time""
""fullscreenenter"",""5"",""20268""
","
",240.68499999999767,NA,49,NA,NA,3000,1,NA,NA,images/tutyellowplanet.jpg,null,images/tutalien3,null,images/tutalien3,images/t.png,NA,practice,null,NA,NA,NA,NA,sub107
d3-animate-choice,27,177567,0.0-27.0,FALSE,FALSE,FALSE,TRUE,"""event"",""trial"",""time""
""blur"",""5"",""16632""
""focus"",""5"",""20166""
""fullscreenenter"",""5"",""20268""
","""event"",""trial"",""time""
""blur"",""5"",""16632""
","""event"",""trial"",""time""
""focus"",""5"",""20166""
","""event"",""trial"",""time""
""fullscreenenter"",""5"",""20268""
","
",302.4449999999197,NA,49,NA,NA,3000,1,NA,NA,images/tutyellowplanet.jpg,null,images/tutalien3,null,images/tutalien3,images/t.png,NA,practice,null,NA,NA,NA,NA,sub107
d3-animate-choice,28,179809,0.0-28.0,FALSE,FALSE,FALSE,TRUE,"""event"",""trial"",""time""
""blur"",""5"",""16632""
""focus"",""5"",""20166""
""fullscreenenter"",""5"",""20268""
","""event"",""trial"",""time""
""blur"",""5"",""16632""
","""event"",""trial"",""time""
""focus"",""5"",""20166""
","""event"",""trial"",""time""
""fullscreenenter"",""5"",""20268""
","
",238.79000000000815,NA,49,NA,NA,3000,1,NA,NA,images/tutyellowplanet.jpg,null,images/tutalien3,null,images/tutalien3,images/t.png,NA,practice,null,NA,NA,NA,NA,sub107
d3-animate-choice,29,182113,0.0-29.0,FALSE,FALSE,FALSE,TRUE,"""event"",""trial"",""time""
""blur"",""5"",""16632""
""focus"",""5"",""20166""
""fullscreenenter"",""5"",""20268""
","""event"",""trial"",""time""
""blur"",""5"",""16632""
","""event"",""trial"",""time""
""focus"",""5"",""20166""
","""event"",""trial"",""time""
""fullscreenenter"",""5"",""20268""
","
",300.4349999999977,NA,49,NA,NA,3000,1,2192.6500000000524,32,images/tutyellowplanet.jpg,null,images/tutalien3,null,images/tutalien3,images/t.png,NA,practice,null,NA,NA,NA,NA,sub107
d3-instructions,30,190078,0.0-30.0,FALSE,FALSE,FALSE,TRUE,"""event"",""trial"",""time""
""blur"",""5"",""16632""
""focus"",""5"",""20166""
""fullscreenenter"",""5"",""20268""
","""event"",""trial"",""time""
""blur"",""5"",""16632""
","""event"",""trial"",""time""
""focus"",""5"",""20166""
","""event"",""trial"",""time""
""fullscreenenter"",""5"",""20268""
","
",NA,NA,NA,NA,NA,NA,NA,NA,NA,NA,NA,NA,NA,NA,NA,NA,NA,NA,NA,NA,NA,NA,sub107
d3-instructions,31,203549,0.0-31.0,FALSE,FALSE,FALSE,TRUE,"""event"",""trial"",""time""
""blur"",""5"",""16632""
""focus"",""5"",""20166""
""fullscreenenter"",""5"",""20268""
","""event"",""trial"",""time""
""blur"",""5"",""16632""
","""event"",""trial"",""time""
""focus"",""5"",""20166""
","""event"",""trial"",""time""
""fullscreenenter"",""5"",""20268""
","
",NA,NA,NA,NA,NA,NA,NA,NA,NA,NA,NA,NA,NA,NA,NA,NA,NA,NA,NA,NA,NA,NA,sub107
d3-instructions,32,213997,0.0-32.0,FALSE,FALSE,FALSE,TRUE,"""event"",""trial"",""time""
""blur"",""5"",""16632""
""focus"",""5"",""20166""
""fullscreenenter"",""5"",""20268""
","""event"",""trial"",""time""
""blur"",""5"",""16632""
","""event"",""trial"",""time""
""focus"",""5"",""20166""
","""event"",""trial"",""time""
""fullscreenenter"",""5"",""20268""
","
",NA,NA,NA,NA,NA,NA,NA,NA,NA,NA,NA,NA,NA,NA,NA,NA,NA,NA,NA,NA,NA,NA,sub107
d3-instructions,33,223908,0.0-33.0,FALSE,FALSE,FALSE,TRUE,"""event"",""trial"",""time""
""blur"",""5"",""16632""
""focus"",""5"",""20166""
""fullscreenenter"",""5"",""20268""
","""event"",""trial"",""time""
""blur"",""5"",""16632""
","""event"",""trial"",""time""
""focus"",""5"",""20166""
","""event"",""trial"",""time""
""fullscreenenter"",""5"",""20268""
","
",NA,NA,NA,NA,NA,NA,NA,NA,NA,NA,NA,NA,NA,NA,NA,NA,NA,NA,NA,NA,NA,NA,sub107
d3-animate-choice,34,229787,0.0-34.0,FALSE,FALSE,FALSE,TRUE,"""event"",""trial"",""time""
""blur"",""5"",""16632""
""focus"",""5"",""20166""
""fullscreenenter"",""5"",""20268""
","""event"",""trial"",""time""
""blur"",""5"",""16632""
","""event"",""trial"",""time""
""focus"",""5"",""20166""
","""event"",""trial"",""time""
""fullscreenenter"",""5"",""20268""
","
",3854.24000000002,NA,49,NA,NA,3000,1,NA,NA,images/tutgreenplanet.jpg,images/tutalien1,images/tutalien2,null,images/tutalien2,images/t.png,NA,practice,null,NA,NA,NA,NA,sub107
d3-animate-choice,35,234217,0.0-35.0,FALSE,FALSE,FALSE,TRUE,"""event"",""trial"",""time""
""blur"",""5"",""16632""
""focus"",""5"",""20166""
""fullscreenenter"",""5"",""20268""
","""event"",""trial"",""time""
""blur"",""5"",""16632""
","""event"",""trial"",""time""
""focus"",""5"",""20166""
","""event"",""trial"",""time""
""fullscreenenter"",""5"",""20268""
","
",2421.2850000000035,NA,48,NA,NA,3000,1,NA,NA,images/tutgreenplanet.jpg,images/tutalien1,images/tutalien2,null,images/tutalien1,images/nothing.png,NA,practice,null,NA,NA,NA,NA,sub107
d3-animate-choice,36,237757,0.0-36.0,FALSE,FALSE,FALSE,TRUE,"""event"",""trial"",""time""
""blur"",""5"",""16632""
""focus"",""5"",""20166""
""fullscreenenter"",""5"",""20268""
","""event"",""trial"",""time""
""blur"",""5"",""16632""
","""event"",""trial"",""time""
""focus"",""5"",""20166""
","""event"",""trial"",""time""
""fullscreenenter"",""5"",""20268""
","
",1535.5200000000186,NA,48,NA,NA,3000,1,NA,NA,images/tutgreenplanet.jpg,images/tutalien1,images/tutalien2,null,images/tutalien1,images/nothing.png,NA,practice,null,NA,NA,NA,NA,sub107
d3-animate-choice,37,240087,0.0-37.0,FALSE,FALSE,FALSE,TRUE,"""event"",""trial"",""time""
""blur"",""5"",""16632""
""focus"",""5"",""20166""
""fullscreenenter"",""5"",""20268""
","""event"",""trial"",""time""
""blur"",""5"",""16632""
","""event"",""trial"",""time""
""focus"",""5"",""20166""
","""event"",""trial"",""time""
""fullscreenenter"",""5"",""20268""
","
",311.454999999929,NA,49,NA,NA,3000,1,NA,NA,images/tutgreenplanet.jpg,images/tutalien1,images/tutalien2,null,images/tutalien2,images/t.png,NA,practice,null,NA,NA,NA,NA,sub107
d3-animate-choice,38,242567,0.0-38.0,FALSE,FALSE,FALSE,TRUE,"""event"",""trial"",""time""
""blur"",""5"",""16632""
""focus"",""5"",""20166""
""fullscreenenter"",""5"",""20268""
","""event"",""trial"",""time""
""blur"",""5"",""16632""
","""event"",""trial"",""time""
""focus"",""5"",""20166""
","""event"",""trial"",""time""
""fullscreenenter"",""5"",""20268""
","
",474.3200000000361,NA,49,NA,NA,3000,1,NA,NA,images/tutgreenplanet.jpg,images/tutalien1,images/tutalien2,null,images/tutalien2,images/t.png,NA,practice,null,NA,NA,NA,NA,sub107
d3-animate-choice,39,244977,0.0-39.0,FALSE,FALSE,FALSE,TRUE,"""event"",""trial"",""time""
""blur"",""5"",""16632""
""focus"",""5"",""20166""
""fullscreenenter"",""5"",""20268""
","""event"",""trial"",""time""
""blur"",""5"",""16632""
","""event"",""trial"",""time""
""focus"",""5"",""20166""
","""event"",""trial"",""time""
""fullscreenenter"",""5"",""20268""
","
",387.51500000001397,NA,49,NA,NA,3000,1,NA,NA,images/tutgreenplanet.jpg,images/tutalien1,images/tutalien2,null,images/tutalien2,images/t.png,NA,practice,null,NA,NA,NA,NA,sub107
d3-animate-choice,40,247297,0.0-40.0,FALSE,FALSE,FALSE,TRUE,"""event"",""trial"",""time""
""blur"",""5"",""16632""
""focus"",""5"",""20166""
""fullscreenenter"",""5"",""20268""
","""event"",""trial"",""time""
""blur"",""5"",""16632""
","""event"",""trial"",""time""
""focus"",""5"",""20166""
","""event"",""trial"",""time""
""fullscreenenter"",""5"",""20268""
","
",316.54000000000815,NA,49,NA,NA,3000,1,NA,NA,images/tutgreenplanet.jpg,images/tutalien1,images/tutalien2,null,images/tutalien2,images/t.png,NA,practice,null,NA,NA,NA,NA,sub107
d3-animate-choice,41,249617,0.0-41.0,FALSE,FALSE,FALSE,TRUE,"""event"",""trial"",""time""
""blur"",""5"",""16632""
""focus"",""5"",""20166""
""fullscreenenter"",""5"",""20268""
","""event"",""trial"",""time""
""blur"",""5"",""16632""
","""event"",""trial"",""time""
""focus"",""5"",""20166""
","""event"",""trial"",""time""
""fullscreenenter"",""5"",""20268""
","
",309.3200000000943,NA,48,NA,NA,3000,1,NA,NA,images/tutgreenplanet.jpg,images/tutalien1,images/tutalien2,null,images/tutalien1,images/nothing.png,NA,practice,null,NA,NA,NA,NA,sub107
d3-animate-choice,42,252167,0.0-42.0,FALSE,FALSE,FALSE,TRUE,"""event"",""trial"",""time""
""blur"",""5"",""16632""
""focus"",""5"",""20166""
""fullscreenenter"",""5"",""20268""
","""event"",""trial"",""time""
""blur"",""5"",""16632""
","""event"",""trial"",""time""
""focus"",""5"",""20166""
","""event"",""trial"",""time""
""fullscreenenter"",""5"",""20268""
","
",535.6050000000396,NA,48,NA,NA,3000,1,NA,NA,images/tutgreenplanet.jpg,images/tutalien1,images/tutalien2,null,images/tutalien1,images/nothing.png,NA,practice,null,NA,NA,NA,NA,sub107
d3-animate-choice,43,258860,0.0-43.0,FALSE,FALSE,FALSE,TRUE,"""event"",""trial"",""time""
""blur"",""5"",""16632""
""focus"",""5"",""20166""
""fullscreenenter"",""5"",""20268""
","""event"",""trial"",""time""
""blur"",""5"",""16632""
","""event"",""trial"",""time""
""focus"",""5"",""20166""
","""event"",""trial"",""time""
""fullscreenenter"",""5"",""20268""
","
",1180.9550000000454,NA,32,NA,NA,3000,1,4689.835000000021,49,images/tutgreenplanet.jpg,images/tutalien1,images/tutalien2,null,images/tutalien2,images/t.png,NA,practice,null,NA,NA,NA,NA,sub107
d3-instructions,44,278216,0.0-44.0,FALSE,FALSE,FALSE,TRUE,"""event"",""trial"",""time""
""blur"",""5"",""16632""
""focus"",""5"",""20166""
""fullscreenenter"",""5"",""20268""
","""event"",""trial"",""time""
""blur"",""5"",""16632""
","""event"",""trial"",""time""
""focus"",""5"",""20166""
","""event"",""trial"",""time""
""fullscreenenter"",""5"",""20268""
","
",NA,NA,NA,NA,NA,NA,NA,NA,NA,NA,NA,NA,NA,NA,NA,NA,NA,NA,NA,NA,NA,NA,sub107
d3-instructions,45,285727,0.0-45.0,FALSE,FALSE,FALSE,TRUE,"""event"",""trial"",""time""
""blur"",""5"",""16632""
""focus"",""5"",""20166""
""fullscreenenter"",""5"",""20268""
","""event"",""trial"",""time""
""blur"",""5"",""16632""
","""event"",""trial"",""time""
""focus"",""5"",""20166""
","""event"",""trial"",""time""
""fullscreenenter"",""5"",""20268""
","
",NA,NA,NA,NA,NA,NA,NA,NA,NA,NA,NA,NA,NA,NA,NA,NA,NA,NA,NA,NA,NA,NA,sub107
d3-instructions,46,291582,0.0-46.0,FALSE,FALSE,FALSE,TRUE,"""event"",""trial"",""time""
""blur"",""5"",""16632""
""focus"",""5"",""20166""
""fullscreenenter"",""5"",""20268""
","""event"",""trial"",""time""
""blur"",""5"",""16632""
","""event"",""trial"",""time""
""focus"",""5"",""20166""
","""event"",""trial"",""time""
""fullscreenenter"",""5"",""20268""
","
",NA,NA,NA,NA,NA,NA,NA,NA,NA,NA,NA,NA,NA,NA,NA,NA,NA,NA,NA,NA,NA,NA,sub107
d3-instructions,47,309390,0.0-47.0,FALSE,FALSE,FALSE,TRUE,"""event"",""trial"",""time""
""blur"",""5"",""16632""
""focus"",""5"",""20166""
""fullscreenenter"",""5"",""20268""
","""event"",""trial"",""time""
""blur"",""5"",""16632""
","""event"",""trial"",""time""
""focus"",""5"",""20166""
","""event"",""trial"",""time""
""fullscreenenter"",""5"",""20268""
","
",NA,NA,NA,NA,NA,NA,NA,NA,NA,NA,NA,NA,NA,NA,NA,NA,NA,NA,NA,NA,NA,NA,sub107
d3-instructions,48,316609,0.0-48.0,FALSE,FALSE,FALSE,TRUE,"""event"",""trial"",""time""
""blur"",""5"",""16632""
""focus"",""5"",""20166""
""fullscreenenter"",""5"",""20268""
","""event"",""trial"",""time""
""blur"",""5"",""16632""
","""event"",""trial"",""time""
""focus"",""5"",""20166""
","""event"",""trial"",""time""
""fullscreenenter"",""5"",""20268""
","
",NA,NA,NA,NA,NA,NA,NA,NA,NA,NA,NA,NA,NA,NA,NA,NA,NA,NA,NA,NA,NA,NA,sub107
d3-instructions,49,328606,0.0-49.0,FALSE,FALSE,FALSE,TRUE,"""event"",""trial"",""time""
""blur"",""5"",""16632""
""focus"",""5"",""20166""
""fullscreenenter"",""5"",""20268""
","""event"",""trial"",""time""
""blur"",""5"",""16632""
","""event"",""trial"",""time""
""focus"",""5"",""20166""
","""event"",""trial"",""time""
""fullscreenenter"",""5"",""20268""
","
",NA,NA,NA,NA,NA,NA,NA,NA,NA,NA,NA,NA,NA,NA,NA,NA,NA,NA,NA,NA,NA,NA,sub107
d3-instructions,50,338120,0.0-50.0,FALSE,FALSE,FALSE,TRUE,"""event"",""trial"",""time""
""blur"",""5"",""16632""
""focus"",""5"",""20166""
""fullscreenenter"",""5"",""20268""
","""event"",""trial"",""time""
""blur"",""5"",""16632""
","""event"",""trial"",""time""
""focus"",""5"",""20166""
","""event"",""trial"",""time""
""fullscreenenter"",""5"",""20268""
","
",NA,NA,NA,NA,NA,NA,NA,NA,NA,NA,NA,NA,NA,NA,NA,NA,NA,NA,NA,NA,NA,NA,sub107
d3-instructions,51,342262,0.0-51.0,FALSE,FALSE,FALSE,TRUE,"""event"",""trial"",""time""
""blur"",""5"",""16632""
""focus"",""5"",""20166""
""fullscreenenter"",""5"",""20268""
","""event"",""trial"",""time""
""blur"",""5"",""16632""
","""event"",""trial"",""time""
""focus"",""5"",""20166""
","""event"",""trial"",""time""
""fullscreenenter"",""5"",""20268""
","
",NA,NA,NA,NA,NA,NA,NA,NA,NA,NA,NA,NA,NA,NA,NA,NA,NA,NA,NA,NA,NA,NA,sub107
d3-instructions,52,346100,0.0-52.0,FALSE,FALSE,FALSE,TRUE,"""event"",""trial"",""time""
""blur"",""5"",""16632""
""focus"",""5"",""20166""
""fullscreenenter"",""5"",""20268""
","""event"",""trial"",""time""
""blur"",""5"",""16632""
","""event"",""trial"",""time""
""focus"",""5"",""20166""
","""event"",""trial"",""time""
""fullscreenenter"",""5"",""20268""
","
",NA,NA,NA,NA,NA,NA,NA,NA,NA,NA,NA,NA,NA,NA,NA,NA,NA,NA,NA,NA,NA,NA,sub107
d3-instructions,53,362367,0.0-53.0,FALSE,FALSE,FALSE,TRUE,"""event"",""trial"",""time""
""blur"",""5"",""16632""
""focus"",""5"",""20166""
""fullscreenenter"",""5"",""20268""
","""event"",""trial"",""time""
""blur"",""5"",""16632""
","""event"",""trial"",""time""
""focus"",""5"",""20166""
","""event"",""trial"",""time""
""fullscreenenter"",""5"",""20268""
","
",NA,NA,NA,NA,NA,NA,NA,NA,NA,NA,NA,NA,NA,NA,NA,NA,NA,NA,NA,NA,NA,NA,sub107
d3-instructions,54,376325,0.0-54.0,FALSE,FALSE,FALSE,TRUE,"""event"",""trial"",""time""
""blur"",""5"",""16632""
""focus"",""5"",""20166""
""fullscreenenter"",""5"",""20268""
","""event"",""trial"",""time""
""blur"",""5"",""16632""
","""event"",""trial"",""time""
""focus"",""5"",""20166""
","""event"",""trial"",""time""
""fullscreenenter"",""5"",""20268""
","
",NA,NA,NA,NA,NA,NA,NA,NA,NA,NA,NA,NA,NA,NA,NA,NA,NA,NA,NA,NA,NA,NA,sub107
d3-instructions,55,387931,0.0-55.0,FALSE,FALSE,FALSE,TRUE,"""event"",""trial"",""time""
""blur"",""5"",""16632""
""focus"",""5"",""20166""
""fullscreenenter"",""5"",""20268""
","""event"",""trial"",""time""
""blur"",""5"",""16632""
","""event"",""trial"",""time""
""focus"",""5"",""20166""
","""event"",""trial"",""time""
""fullscreenenter"",""5"",""20268""
","
",NA,NA,NA,NA,NA,NA,NA,NA,NA,NA,NA,NA,NA,NA,NA,NA,NA,NA,NA,NA,NA,NA,sub107
d3-instructions,56,397468,0.0-56.0,FALSE,FALSE,FALSE,TRUE,"""event"",""trial"",""time""
""blur"",""5"",""16632""
""focus"",""5"",""20166""
""fullscreenenter"",""5"",""20268""
","""event"",""trial"",""time""
""blur"",""5"",""16632""
","""event"",""trial"",""time""
""focus"",""5"",""20166""
","""event"",""trial"",""time""
""fullscreenenter"",""5"",""20268""
","
",NA,NA,NA,NA,NA,NA,NA,NA,NA,NA,NA,NA,NA,NA,NA,NA,NA,NA,NA,NA,NA,NA,sub107
d3-instructions,57,413759,0.0-57.0,FALSE,FALSE,FALSE,TRUE,"""event"",""trial"",""time""
""blur"",""5"",""16632""
""focus"",""5"",""20166""
""fullscreenenter"",""5"",""20268""
","""event"",""trial"",""time""
""blur"",""5"",""16632""
","""event"",""trial"",""time""
""focus"",""5"",""20166""
","""event"",""trial"",""time""
""fullscreenenter"",""5"",""20268""
","
",NA,NA,NA,NA,NA,NA,NA,NA,NA,NA,NA,NA,NA,NA,NA,NA,NA,NA,NA,NA,NA,NA,sub107
d3-instructions,58,425102,0.0-58.0,FALSE,FALSE,FALSE,TRUE,"""event"",""trial"",""time""
""blur"",""5"",""16632""
""focus"",""5"",""20166""
""fullscreenenter"",""5"",""20268""
","""event"",""trial"",""time""
""blur"",""5"",""16632""
","""event"",""trial"",""time""
""focus"",""5"",""20166""
","""event"",""trial"",""time""
""fullscreenenter"",""5"",""20268""
","
",NA,NA,NA,NA,NA,NA,NA,NA,NA,NA,NA,NA,NA,NA,NA,NA,NA,NA,NA,NA,NA,NA,sub107
d3-instructions,59,430207,0.0-59.0,FALSE,FALSE,FALSE,TRUE,"""event"",""trial"",""time""
""blur"",""5"",""16632""
""focus"",""5"",""20166""
""fullscreenenter"",""5"",""20268""
","""event"",""trial"",""time""
""blur"",""5"",""16632""
","""event"",""trial"",""time""
""focus"",""5"",""20166""
","""event"",""trial"",""time""
""fullscreenenter"",""5"",""20268""
","
",NA,NA,NA,NA,NA,NA,NA,NA,NA,NA,NA,NA,NA,NA,NA,NA,NA,NA,NA,NA,NA,NA,sub107
d3-instructions,60,438249,0.0-60.0,FALSE,FALSE,FALSE,TRUE,"""event"",""trial"",""time""
""blur"",""5"",""16632""
""focus"",""5"",""20166""
""fullscreenenter"",""5"",""20268""
","""event"",""trial"",""time""
""blur"",""5"",""16632""
","""event"",""trial"",""time""
""focus"",""5"",""20166""
","""event"",""trial"",""time""
""fullscreenenter"",""5"",""20268""
","
",NA,NA,NA,NA,NA,NA,NA,NA,NA,NA,NA,NA,NA,NA,NA,NA,NA,NA,NA,NA,NA,NA,sub107
d3-animate-choice,61,441957,0.0-61.0-0.0,FALSE,FALSE,FALSE,TRUE,"""event"",""trial"",""time""
""blur"",""5"",""16632""
""focus"",""5"",""20166""
""fullscreenenter"",""5"",""20268""
","""event"",""trial"",""time""
""blur"",""5"",""16632""
","""event"",""trial"",""time""
""focus"",""5"",""20166""
","""event"",""trial"",""time""
""fullscreenenter"",""5"",""20268""
","
",1694.6450000000768,NA,48,NA,NA,3000,1,NA,NA,images/earth.jpg,images/tutrocket1,images/tutrocket2,null,images/tutrocket1,NA,1,practice,null,2,NA,NA,NA,sub107
d3-animate-choice,62,445687,0.0-61.0-1.0,FALSE,FALSE,FALSE,TRUE,"""event"",""trial"",""time""
""blur"",""5"",""16632""
""focus"",""5"",""20166""
""fullscreenenter"",""5"",""20268""
","""event"",""trial"",""time""
""blur"",""5"",""16632""
","""event"",""trial"",""time""
""focus"",""5"",""20166""
","""event"",""trial"",""time""
""fullscreenenter"",""5"",""20268""
","
",1710.6850000000559,NA,48,NA,NA,3000,1,NA,NA,images/tutgreenplanet.jpg,images/tutalien2,images/tutalien1,images/tutrocket1,images/tutalien2,images/t.png,2,practice,false,2,rare,1,2020-06-24T14:56:18Z,sub107
two-step-fixation,63,446708,0.0-61.0-2.0,FALSE,FALSE,FALSE,TRUE,"""event"",""trial"",""time""
""blur"",""5"",""16632""
""focus"",""5"",""20166""
""fullscreenenter"",""5"",""20268""
","""event"",""trial"",""time""
""blur"",""5"",""16632""
","""event"",""trial"",""time""
""focus"",""5"",""20166""
","""event"",""trial"",""time""
""fullscreenenter"",""5"",""20268""
","
",NA,images/earth.jpg,NA,NA,NA,NA,NA,NA,NA,NA,NA,NA,NA,NA,NA,fixation,NA,NA,NA,NA,NA,NA,sub107
d3-animate-choice,64,449817,0.0-61.0-0.1,FALSE,FALSE,FALSE,TRUE,"""event"",""trial"",""time""
""blur"",""5"",""16632""
""focus"",""5"",""20166""
""fullscreenenter"",""5"",""20268""
","""event"",""trial"",""time""
""blur"",""5"",""16632""
","""event"",""trial"",""time""
""focus"",""5"",""20166""
","""event"",""trial"",""time""
""fullscreenenter"",""5"",""20268""
","
",1100.6050000000978,NA,48,NA,NA,3000,1,NA,NA,images/earth.jpg,images/tutrocket1,images/tutrocket2,null,images/tutrocket1,NA,1,practice,null,2,NA,NA,NA,sub107
d3-animate-choice,65,452878,0.0-61.0-1.1,FALSE,FALSE,FALSE,TRUE,"""event"",""trial"",""time""
""blur"",""5"",""16632""
""focus"",""5"",""20166""
""fullscreenenter"",""5"",""20268""
","""event"",""trial"",""time""
""blur"",""5"",""16632""
","""event"",""trial"",""time""
""focus"",""5"",""20166""
","""event"",""trial"",""time""
""fullscreenenter"",""5"",""20268""
","
",1051.0200000000186,NA,48,NA,NA,3000,1,NA,NA,images/tutgreenplanet.jpg,images/tutalien2,images/tutalien1,images/tutrocket1,images/tutalien2,images/t.png,2,practice,false,2,rare,1,2020-06-24T14:56:25Z,sub107
two-step-fixation,66,453897,0.0-61.0-2.1,FALSE,FALSE,FALSE,TRUE,"""event"",""trial"",""time""
""blur"",""5"",""16632""
""focus"",""5"",""20166""
""fullscreenenter"",""5"",""20268""
","""event"",""trial"",""time""
""blur"",""5"",""16632""
","""event"",""trial"",""time""
""focus"",""5"",""20166""
","""event"",""trial"",""time""
""fullscreenenter"",""5"",""20268""
","
",NA,images/earth.jpg,NA,NA,NA,NA,NA,NA,NA,NA,NA,NA,NA,NA,NA,fixation,NA,NA,NA,NA,NA,NA,sub107
d3-animate-choice,67,457100,0.0-61.0-0.2,FALSE,FALSE,FALSE,TRUE,"""event"",""trial"",""time""
""blur"",""5"",""16632""
""focus"",""5"",""20166""
""fullscreenenter"",""5"",""20268""
","""event"",""trial"",""time""
""blur"",""5"",""16632""
","""event"",""trial"",""time""
""focus"",""5"",""20166""
","""event"",""trial"",""time""
""fullscreenenter"",""5"",""20268""
","
",1199.6050000000396,NA,48,NA,NA,3000,1,NA,NA,images/earth.jpg,images/tutrocket1,images/tutrocket2,null,images/tutrocket1,NA,1,practice,null,2,NA,NA,NA,sub107
d3-animate-choice,68,459547,0.0-61.0-1.2,FALSE,FALSE,FALSE,TRUE,"""event"",""trial"",""time""
""blur"",""5"",""16632""
""focus"",""5"",""20166""
""fullscreenenter"",""5"",""20268""
","""event"",""trial"",""time""
""blur"",""5"",""16632""
","""event"",""trial"",""time""
""focus"",""5"",""20166""
","""event"",""trial"",""time""
""fullscreenenter"",""5"",""20268""
","
",433.0800000000163,NA,48,NA,NA,3000,1,NA,NA,images/tutgreenplanet.jpg,images/tutalien2,images/tutalien1,images/tutrocket1,images/tutalien2,images/nothing.png,2,practice,false,2,rare,0,2020-06-24T14:56:32Z,sub107
two-step-fixation,69,460567,0.0-61.0-2.2,FALSE,FALSE,FALSE,TRUE,"""event"",""trial"",""time""
""blur"",""5"",""16632""
""focus"",""5"",""20166""
""fullscreenenter"",""5"",""20268""
","""event"",""trial"",""time""
""blur"",""5"",""16632""
","""event"",""trial"",""time""
""focus"",""5"",""20166""
","""event"",""trial"",""time""
""fullscreenenter"",""5"",""20268""
","
",NA,images/earth.jpg,NA,NA,NA,NA,NA,NA,NA,NA,NA,NA,NA,NA,NA,fixation,NA,NA,NA,NA,NA,NA,sub107
d3-animate-choice,70,462948,0.0-61.0-0.3,FALSE,FALSE,FALSE,TRUE,"""event"",""trial"",""time""
""blur"",""5"",""16632""
""focus"",""5"",""20166""
""fullscreenenter"",""5"",""20268""
","""event"",""trial"",""time""
""blur"",""5"",""16632""
","""event"",""trial"",""time""
""focus"",""5"",""20166""
","""event"",""trial"",""time""
""fullscreenenter"",""5"",""20268""
","
",371.70999999990454,NA,49,NA,NA,3000,1,NA,NA,images/earth.jpg,images/tutrocket1,images/tutrocket2,null,images/tutrocket2,NA,1,practice,null,1,NA,NA,NA,sub107
d3-animate-choice,71,466088,0.0-61.0-1.3,FALSE,FALSE,FALSE,TRUE,"""event"",""trial"",""time""
""blur"",""5"",""16632""
""focus"",""5"",""20166""
""fullscreenenter"",""5"",""20268""
","""event"",""trial"",""time""
""blur"",""5"",""16632""
","""event"",""trial"",""time""
""focus"",""5"",""20166""
","""event"",""trial"",""time""
""fullscreenenter"",""5"",""20268""
","
",1137.024999999965,NA,48,NA,NA,3000,1,NA,NA,images/tutgreenplanet.jpg,images/tutalien2,images/tutalien1,images/tutrocket2,images/tutalien2,images/nothing.png,2,practice,true,2,common,0,2020-06-24T14:56:38Z,sub107
two-step-fixation,72,467091,0.0-61.0-2.3,FALSE,FALSE,FALSE,TRUE,"""event"",""trial"",""time""
""blur"",""5"",""16632""
""focus"",""5"",""20166""
""fullscreenenter"",""5"",""20268""
","""event"",""trial"",""time""
""blur"",""5"",""16632""
","""event"",""trial"",""time""
""focus"",""5"",""20166""
","""event"",""trial"",""time""
""fullscreenenter"",""5"",""20268""
","
",NA,images/earth.jpg,NA,NA,NA,NA,NA,NA,NA,NA,NA,NA,NA,NA,NA,fixation,NA,NA,NA,NA,NA,NA,sub107
d3-animate-choice,73,469467,0.0-61.0-0.4,FALSE,FALSE,FALSE,TRUE,"""event"",""trial"",""time""
""blur"",""5"",""16632""
""focus"",""5"",""20166""
""fullscreenenter"",""5"",""20268""
","""event"",""trial"",""time""
""blur"",""5"",""16632""
","""event"",""trial"",""time""
""focus"",""5"",""20166""
","""event"",""trial"",""time""
""fullscreenenter"",""5"",""20268""
","
",371.98499999998603,NA,49,NA,NA,3000,1,NA,NA,images/earth.jpg,images/tutrocket1,images/tutrocket2,null,images/tutrocket2,NA,1,practice,null,1,NA,NA,NA,sub107
d3-animate-choice,74,472900,0.0-61.0-1.4,FALSE,FALSE,FALSE,TRUE,"""event"",""trial"",""time""
""blur"",""5"",""16632""
""focus"",""5"",""20166""
""fullscreenenter"",""5"",""20268""
","""event"",""trial"",""time""
""blur"",""5"",""16632""
","""event"",""trial"",""time""
""focus"",""5"",""20166""
","""event"",""trial"",""time""
""fullscreenenter"",""5"",""20268""
","
",1430.0149999998976,NA,49,NA,NA,3000,1,NA,NA,images/tutyellowplanet.jpg,images/tutalien4,images/tutalien3,images/tutrocket2,images/tutalien3,images/nothing.png,2,practice,false,1,rare,0,2020-06-24T14:56:45Z,sub107
two-step-fixation,75,473902,0.0-61.0-2.4,FALSE,FALSE,FALSE,TRUE,"""event"",""trial"",""time""
""blur"",""5"",""16632""
""focus"",""5"",""20166""
""fullscreenenter"",""5"",""20268""
","""event"",""trial"",""time""
""blur"",""5"",""16632""
","""event"",""trial"",""time""
""focus"",""5"",""20166""
","""event"",""trial"",""time""
""fullscreenenter"",""5"",""20268""
","
",NA,images/earth.jpg,NA,NA,NA,NA,NA,NA,NA,NA,NA,NA,NA,NA,NA,fixation,NA,NA,NA,NA,NA,NA,sub107
d3-animate-choice,76,476440,0.0-61.0-0.5,FALSE,FALSE,FALSE,TRUE,"""event"",""trial"",""time""
""blur"",""5"",""16632""
""focus"",""5"",""20166""
""fullscreenenter"",""5"",""20268""
","""event"",""trial"",""time""
""blur"",""5"",""16632""
","""event"",""trial"",""time""
""focus"",""5"",""20166""
","""event"",""trial"",""time""
""fullscreenenter"",""5"",""20268""
","
",534.2600000000093,NA,48,NA,NA,3000,1,NA,NA,images/earth.jpg,images/tutrocket1,images/tutrocket2,null,images/tutrocket1,NA,1,practice,null,2,NA,NA,NA,sub107
d3-animate-choice,77,479161,0.0-61.0-1.5,FALSE,FALSE,FALSE,TRUE,"""event"",""trial"",""time""
""blur"",""5"",""16632""
""focus"",""5"",""20166""
""fullscreenenter"",""5"",""20268""
","""event"",""trial"",""time""
""blur"",""5"",""16632""
","""event"",""trial"",""time""
""focus"",""5"",""20166""
","""event"",""trial"",""time""
""fullscreenenter"",""5"",""20268""
","
",717.2249999999767,NA,48,NA,NA,3000,1,NA,NA,images/tutyellowplanet.jpg,images/tutalien4,images/tutalien3,images/tutrocket1,images/tutalien4,images/t.png,2,practice,true,2,common,1,2020-06-24T14:56:51Z,sub107
two-step-fixation,78,480164,0.0-61.0-2.5,FALSE,FALSE,FALSE,TRUE,"""event"",""trial"",""time""
""blur"",""5"",""16632""
""focus"",""5"",""20166""
""fullscreenenter"",""5"",""20268""
","""event"",""trial"",""time""
""blur"",""5"",""16632""
","""event"",""trial"",""time""
""focus"",""5"",""20166""
","""event"",""trial"",""time""
""fullscreenenter"",""5"",""20268""
","
",NA,images/earth.jpg,NA,NA,NA,NA,NA,NA,NA,NA,NA,NA,NA,NA,NA,fixation,NA,NA,NA,NA,NA,NA,sub107
d3-animate-choice,79,482545,0.0-61.0-0.6,FALSE,FALSE,FALSE,TRUE,"""event"",""trial"",""time""
""blur"",""5"",""16632""
""focus"",""5"",""20166""
""fullscreenenter"",""5"",""20268""
","""event"",""trial"",""time""
""blur"",""5"",""16632""
","""event"",""trial"",""time""
""focus"",""5"",""20166""
","""event"",""trial"",""time""
""fullscreenenter"",""5"",""20268""
","
",377.3699999998789,NA,48,NA,NA,3000,1,NA,NA,images/earth.jpg,images/tutrocket1,images/tutrocket2,null,images/tutrocket1,NA,1,practice,null,2,NA,NA,NA,sub107
d3-animate-choice,80,485001,0.0-61.0-1.6,FALSE,FALSE,FALSE,TRUE,"""event"",""trial"",""time""
""blur"",""5"",""16632""
""focus"",""5"",""20166""
""fullscreenenter"",""5"",""20268""
","""event"",""trial"",""time""
""blur"",""5"",""16632""
","""event"",""trial"",""time""
""focus"",""5"",""20166""
","""event"",""trial"",""time""
""fullscreenenter"",""5"",""20268""
","
",453.6799999999348,NA,48,NA,NA,3000,1,NA,NA,images/tutyellowplanet.jpg,images/tutalien4,images/tutalien3,images/tutrocket1,images/tutalien4,images/t.png,2,practice,true,2,common,1,2020-06-24T14:56:57Z,sub107
two-step-fixation,81,486004,0.0-61.0-2.6,FALSE,FALSE,FALSE,TRUE,"""event"",""trial"",""time""
""blur"",""5"",""16632""
""focus"",""5"",""20166""
""fullscreenenter"",""5"",""20268""
","""event"",""trial"",""time""
""blur"",""5"",""16632""
","""event"",""trial"",""time""
""focus"",""5"",""20166""
","""event"",""trial"",""time""
""fullscreenenter"",""5"",""20268""
","
",NA,images/earth.jpg,NA,NA,NA,NA,NA,NA,NA,NA,NA,NA,NA,NA,NA,fixation,NA,NA,NA,NA,NA,NA,sub107
d3-animate-choice,82,488374,0.0-61.0-0.7,FALSE,FALSE,FALSE,TRUE,"""event"",""trial"",""time""
""blur"",""5"",""16632""
""focus"",""5"",""20166""
""fullscreenenter"",""5"",""20268""
","""event"",""trial"",""time""
""blur"",""5"",""16632""
","""event"",""trial"",""time""
""focus"",""5"",""20166""
","""event"",""trial"",""time""
""fullscreenenter"",""5"",""20268""
","
",366.52000000007683,NA,48,NA,NA,3000,1,NA,NA,images/earth.jpg,images/tutrocket1,images/tutrocket2,null,images/tutrocket1,NA,1,practice,null,2,NA,NA,NA,sub107
d3-animate-choice,83,490674,0.0-61.0-1.7,FALSE,FALSE,FALSE,TRUE,"""event"",""trial"",""time""
""blur"",""5"",""16632""
""focus"",""5"",""20166""
""fullscreenenter"",""5"",""20268""
","""event"",""trial"",""time""
""blur"",""5"",""16632""
","""event"",""trial"",""time""
""focus"",""5"",""20166""
","""event"",""trial"",""time""
""fullscreenenter"",""5"",""20268""
","
",296.61999999999534,NA,48,NA,NA,3000,1,NA,NA,images/tutyellowplanet.jpg,images/tutalien4,images/tutalien3,images/tutrocket1,images/tutalien4,images/t.png,2,practice,true,2,common,1,2020-06-24T14:57:03Z,sub107
two-step-fixation,84,491676,0.0-61.0-2.7,FALSE,FALSE,FALSE,TRUE,"""event"",""trial"",""time""
""blur"",""5"",""16632""
""focus"",""5"",""20166""
""fullscreenenter"",""5"",""20268""
","""event"",""trial"",""time""
""blur"",""5"",""16632""
","""event"",""trial"",""time""
""focus"",""5"",""20166""
","""event"",""trial"",""time""
""fullscreenenter"",""5"",""20268""
","
",NA,images/earth.jpg,NA,NA,NA,NA,NA,NA,NA,NA,NA,NA,NA,NA,NA,fixation,NA,NA,NA,NA,NA,NA,sub107
d3-animate-choice,85,493891,0.0-61.0-0.8,FALSE,FALSE,FALSE,TRUE,"""event"",""trial"",""time""
""blur"",""5"",""16632""
""focus"",""5"",""20166""
""fullscreenenter"",""5"",""20268""
","""event"",""trial"",""time""
""blur"",""5"",""16632""
","""event"",""trial"",""time""
""focus"",""5"",""20166""
","""event"",""trial"",""time""
""fullscreenenter"",""5"",""20268""
","
",212.5199999999022,NA,48,NA,NA,3000,1,NA,NA,images/earth.jpg,images/tutrocket1,images/tutrocket2,null,images/tutrocket1,NA,1,practice,null,2,NA,NA,NA,sub107
d3-animate-choice,86,496224,0.0-61.0-1.8,FALSE,FALSE,FALSE,TRUE,"""event"",""trial"",""time""
""blur"",""5"",""16632""
""focus"",""5"",""20166""
""fullscreenenter"",""5"",""20268""
","""event"",""trial"",""time""
""blur"",""5"",""16632""
","""event"",""trial"",""time""
""focus"",""5"",""20166""
","""event"",""trial"",""time""
""fullscreenenter"",""5"",""20268""
","
",330.1800000000512,NA,48,NA,NA,3000,1,NA,NA,images/tutyellowplanet.jpg,images/tutalien4,images/tutalien3,images/tutrocket1,images/tutalien4,images/t.png,2,practice,true,2,common,1,2020-06-24T14:57:09Z,sub107
two-step-fixation,87,497226,0.0-61.0-2.8,FALSE,FALSE,FALSE,TRUE,"""event"",""trial"",""time""
""blur"",""5"",""16632""
""focus"",""5"",""20166""
""fullscreenenter"",""5"",""20268""
","""event"",""trial"",""time""
""blur"",""5"",""16632""
","""event"",""trial"",""time""
""focus"",""5"",""20166""
","""event"",""trial"",""time""
""fullscreenenter"",""5"",""20268""
","
",NA,images/earth.jpg,NA,NA,NA,NA,NA,NA,NA,NA,NA,NA,NA,NA,NA,fixation,NA,NA,NA,NA,NA,NA,sub107
d3-animate-choice,88,500007,0.0-61.0-0.9,FALSE,FALSE,FALSE,TRUE,"""event"",""trial"",""time""
""blur"",""5"",""16632""
""focus"",""5"",""20166""
""fullscreenenter"",""5"",""20268""
","""event"",""trial"",""time""
""blur"",""5"",""16632""
","""event"",""trial"",""time""
""focus"",""5"",""20166""
","""event"",""trial"",""time""
""fullscreenenter"",""5"",""20268""
","
",777.3349999999627,NA,48,NA,NA,3000,1,NA,NA,images/earth.jpg,images/tutrocket1,images/tutrocket2,null,images/tutrocket1,NA,1,practice,null,2,NA,NA,NA,sub107
d3-animate-choice,89,503077,0.0-61.0-1.9,FALSE,FALSE,FALSE,TRUE,"""event"",""trial"",""time""
""blur"",""5"",""16632""
""focus"",""5"",""20166""
""fullscreenenter"",""5"",""20268""
","""event"",""trial"",""time""
""blur"",""5"",""16632""
","""event"",""trial"",""time""
""focus"",""5"",""20166""
","""event"",""trial"",""time""
""fullscreenenter"",""5"",""20268""
","
",1066.8099999998813,NA,49,NA,NA,3000,1,NA,NA,images/tutgreenplanet.jpg,images/tutalien2,images/tutalien1,images/tutrocket1,images/tutalien1,images/nothing.png,2,practice,false,1,rare,0,2020-06-24T14:57:15Z,sub107
two-step-fixation,90,504080,0.0-61.0-2.9,FALSE,FALSE,FALSE,TRUE,"""event"",""trial"",""time""
""blur"",""5"",""16632""
""focus"",""5"",""20166""
""fullscreenenter"",""5"",""20268""
","""event"",""trial"",""time""
""blur"",""5"",""16632""
","""event"",""trial"",""time""
""focus"",""5"",""20166""
","""event"",""trial"",""time""
""fullscreenenter"",""5"",""20268""
","
",NA,images/earth.jpg,NA,NA,NA,NA,NA,NA,NA,NA,NA,NA,NA,NA,NA,fixation,NA,NA,NA,NA,NA,NA,sub107
d3-animate-choice,91,506359,0.0-61.0-0.10,FALSE,FALSE,FALSE,TRUE,"""event"",""trial"",""time""
""blur"",""5"",""16632""
""focus"",""5"",""20166""
""fullscreenenter"",""5"",""20268""
","""event"",""trial"",""time""
""blur"",""5"",""16632""
","""event"",""trial"",""time""
""focus"",""5"",""20166""
","""event"",""trial"",""time""
""fullscreenenter"",""5"",""20268""
","
",274.6999999998952,NA,48,NA,NA,3000,1,NA,NA,images/earth.jpg,images/tutrocket1,images/tutrocket2,null,images/tutrocket1,NA,1,practice,null,2,NA,NA,NA,sub107
d3-animate-choice,92,508745,0.0-61.0-1.10,FALSE,FALSE,FALSE,TRUE,"""event"",""trial"",""time""
""blur"",""5"",""16632""
""focus"",""5"",""20166""
""fullscreenenter"",""5"",""20268""
","""event"",""trial"",""time""
""blur"",""5"",""16632""
","""event"",""trial"",""time""
""focus"",""5"",""20166""
","""event"",""trial"",""time""
""fullscreenenter"",""5"",""20268""
","
",381.9100000000326,NA,48,NA,NA,3000,1,NA,NA,images/tutyellowplanet.jpg,images/tutalien4,images/tutalien3,images/tutrocket1,images/tutalien4,images/nothing.png,2,practice,true,2,common,0,2020-06-24T14:57:21Z,sub107
two-step-fixation,93,509748,0.0-61.0-2.10,FALSE,FALSE,FALSE,TRUE,"""event"",""trial"",""time""
""blur"",""5"",""16632""
""focus"",""5"",""20166""
""fullscreenenter"",""5"",""20268""
","""event"",""trial"",""time""
""blur"",""5"",""16632""
","""event"",""trial"",""time""
""focus"",""5"",""20166""
","""event"",""trial"",""time""
""fullscreenenter"",""5"",""20268""
","
",NA,images/earth.jpg,NA,NA,NA,NA,NA,NA,NA,NA,NA,NA,NA,NA,NA,fixation,NA,NA,NA,NA,NA,NA,sub107
d3-animate-choice,94,512064,0.0-61.0-0.11,FALSE,FALSE,FALSE,TRUE,"""event"",""trial"",""time""
""blur"",""5"",""16632""
""focus"",""5"",""20166""
""fullscreenenter"",""5"",""20268""
","""event"",""trial"",""time""
""blur"",""5"",""16632""
","""event"",""trial"",""time""
""focus"",""5"",""20166""
","""event"",""trial"",""time""
""fullscreenenter"",""5"",""20268""
","
",313.0549999999348,NA,48,NA,NA,3000,1,NA,NA,images/earth.jpg,images/tutrocket1,images/tutrocket2,null,images/tutrocket1,NA,1,practice,null,2,NA,NA,NA,sub107
d3-animate-choice,95,514536,0.0-61.0-1.11,FALSE,FALSE,FALSE,TRUE,"""event"",""trial"",""time""
""blur"",""5"",""16632""
""focus"",""5"",""20166""
""fullscreenenter"",""5"",""20268""
","""event"",""trial"",""time""
""blur"",""5"",""16632""
","""event"",""trial"",""time""
""focus"",""5"",""20166""
","""event"",""trial"",""time""
""fullscreenenter"",""5"",""20268""
","
",469.4350000000559,NA,49,NA,NA,3000,1,NA,NA,images/tutgreenplanet.jpg,images/tutalien2,images/tutalien1,images/tutrocket1,images/tutalien1,images/nothing.png,2,practice,false,1,rare,0,2020-06-24T14:57:27Z,sub107
two-step-fixation,96,515539,0.0-61.0-2.11,FALSE,FALSE,FALSE,TRUE,"""event"",""trial"",""time""
""blur"",""5"",""16632""
""focus"",""5"",""20166""
""fullscreenenter"",""5"",""20268""
","""event"",""trial"",""time""
""blur"",""5"",""16632""
","""event"",""trial"",""time""
""focus"",""5"",""20166""
","""event"",""trial"",""time""
""fullscreenenter"",""5"",""20268""
","
",NA,images/earth.jpg,NA,NA,NA,NA,NA,NA,NA,NA,NA,NA,NA,NA,NA,fixation,NA,NA,NA,NA,NA,NA,sub107
d3-animate-choice,97,517859,0.0-61.0-0.12,FALSE,FALSE,FALSE,TRUE,"""event"",""trial"",""time""
""blur"",""5"",""16632""
""focus"",""5"",""20166""
""fullscreenenter"",""5"",""20268""
","""event"",""trial"",""time""
""blur"",""5"",""16632""
","""event"",""trial"",""time""
""focus"",""5"",""20166""
","""event"",""trial"",""time""
""fullscreenenter"",""5"",""20268""
","
",316.27499999990687,NA,48,NA,NA,3000,1,NA,NA,images/earth.jpg,images/tutrocket1,images/tutrocket2,null,images/tutrocket1,NA,1,practice,null,2,NA,NA,NA,sub107
d3-animate-choice,98,520821,0.0-61.0-1.12,FALSE,FALSE,FALSE,TRUE,"""event"",""trial"",""time""
""blur"",""5"",""16632""
""focus"",""5"",""20166""
""fullscreenenter"",""5"",""20268""
","""event"",""trial"",""time""
""blur"",""5"",""16632""
","""event"",""trial"",""time""
""focus"",""5"",""20166""
","""event"",""trial"",""time""
""fullscreenenter"",""5"",""20268""
","
",959.5950000000885,NA,48,NA,NA,3000,1,NA,NA,images/tutgreenplanet.jpg,images/tutalien2,images/tutalien1,images/tutrocket1,images/tutalien2,images/t.png,2,practice,false,2,rare,1,2020-06-24T14:57:33Z,sub107
two-step-fixation,99,521823,0.0-61.0-2.12,FALSE,FALSE,FALSE,TRUE,"""event"",""trial"",""time""
""blur"",""5"",""16632""
""focus"",""5"",""20166""
""fullscreenenter"",""5"",""20268""
","""event"",""trial"",""time""
""blur"",""5"",""16632""
","""event"",""trial"",""time""
""focus"",""5"",""20166""
","""event"",""trial"",""time""
""fullscreenenter"",""5"",""20268""
","
",NA,images/earth.jpg,NA,NA,NA,NA,NA,NA,NA,NA,NA,NA,NA,NA,NA,fixation,NA,NA,NA,NA,NA,NA,sub107
d3-animate-choice,100,525318,0.0-61.0-0.13,FALSE,FALSE,FALSE,TRUE,"""event"",""trial"",""time""
""blur"",""5"",""16632""
""focus"",""5"",""20166""
""fullscreenenter"",""5"",""20268""
","""event"",""trial"",""time""
""blur"",""5"",""16632""
","""event"",""trial"",""time""
""focus"",""5"",""20166""
","""event"",""trial"",""time""
""fullscreenenter"",""5"",""20268""
","
",1491.7849999999162,NA,48,NA,NA,3000,1,NA,NA,images/earth.jpg,images/tutrocket1,images/tutrocket2,null,images/tutrocket1,NA,1,practice,null,2,NA,NA,NA,sub107
d3-animate-choice,101,527935,0.0-61.0-1.13,FALSE,FALSE,FALSE,TRUE,"""event"",""trial"",""time""
""blur"",""5"",""16632""
""focus"",""5"",""20166""
""fullscreenenter"",""5"",""20268""
","""event"",""trial"",""time""
""blur"",""5"",""16632""
","""event"",""trial"",""time""
""focus"",""5"",""20166""
","""event"",""trial"",""time""
""fullscreenenter"",""5"",""20268""
","
",614.1199999998789,NA,49,NA,NA,3000,1,NA,NA,images/tutyellowplanet.jpg,images/tutalien4,images/tutalien3,images/tutrocket1,images/tutalien3,images/nothing.png,2,practice,true,1,common,0,2020-06-24T14:57:40Z,sub107
two-step-fixation,102,528938,0.0-61.0-2.13,FALSE,FALSE,FALSE,TRUE,"""event"",""trial"",""time""
""blur"",""5"",""16632""
""focus"",""5"",""20166""
""fullscreenenter"",""5"",""20268""
","""event"",""trial"",""time""
""blur"",""5"",""16632""
","""event"",""trial"",""time""
""focus"",""5"",""20166""
","""event"",""trial"",""time""
""fullscreenenter"",""5"",""20268""
","
",NA,images/earth.jpg,NA,NA,NA,NA,NA,NA,NA,NA,NA,NA,NA,NA,NA,fixation,NA,NA,NA,NA,NA,NA,sub107
d3-animate-choice,103,531219,0.0-61.0-0.14,FALSE,FALSE,FALSE,TRUE,"""event"",""trial"",""time""
""blur"",""5"",""16632""
""focus"",""5"",""20166""
""fullscreenenter"",""5"",""20268""
","""event"",""trial"",""time""
""blur"",""5"",""16632""
","""event"",""trial"",""time""
""focus"",""5"",""20166""
","""event"",""trial"",""time""
""fullscreenenter"",""5"",""20268""
","
",278.74499999999534,NA,49,NA,NA,3000,1,NA,NA,images/earth.jpg,images/tutrocket1,images/tutrocket2,null,images/tutrocket2,NA,1,practice,null,1,NA,NA,NA,sub107
d3-animate-choice,104,533686,0.0-61.0-1.14,FALSE,FALSE,FALSE,TRUE,"""event"",""trial"",""time""
""blur"",""5"",""16632""
""focus"",""5"",""20166""
""fullscreenenter"",""5"",""20268""
","""event"",""trial"",""time""
""blur"",""5"",""16632""
","""event"",""trial"",""time""
""focus"",""5"",""20166""
","""event"",""trial"",""time""
""fullscreenenter"",""5"",""20268""
","
",463.4299999999348,NA,49,NA,NA,3000,1,NA,NA,images/tutgreenplanet.jpg,images/tutalien2,images/tutalien1,images/tutrocket2,images/tutalien1,images/t.png,2,practice,true,1,common,1,2020-06-24T14:57:46Z,sub107
two-step-fixation,105,534688,0.0-61.0-2.14,FALSE,FALSE,FALSE,TRUE,"""event"",""trial"",""time""
""blur"",""5"",""16632""
""focus"",""5"",""20166""
""fullscreenenter"",""5"",""20268""
","""event"",""trial"",""time""
""blur"",""5"",""16632""
","""event"",""trial"",""time""
""focus"",""5"",""20166""
","""event"",""trial"",""time""
""fullscreenenter"",""5"",""20268""
","
",NA,images/earth.jpg,NA,NA,NA,NA,NA,NA,NA,NA,NA,NA,NA,NA,NA,fixation,NA,NA,NA,NA,NA,NA,sub107
d3-animate-choice,106,537509,0.0-61.0-0.15,FALSE,FALSE,FALSE,TRUE,"""event"",""trial"",""time""
""blur"",""5"",""16632""
""focus"",""5"",""20166""
""fullscreenenter"",""5"",""20268""
","""event"",""trial"",""time""
""blur"",""5"",""16632""
","""event"",""trial"",""time""
""focus"",""5"",""20166""
","""event"",""trial"",""time""
""fullscreenenter"",""5"",""20268""
","
",817.1149999999907,NA,49,NA,NA,3000,1,NA,NA,images/earth.jpg,images/tutrocket1,images/tutrocket2,null,images/tutrocket2,NA,1,practice,null,1,NA,NA,NA,sub107
d3-animate-choice,107,540180,0.0-61.0-1.15,FALSE,FALSE,FALSE,TRUE,"""event"",""trial"",""time""
""blur"",""5"",""16632""
""focus"",""5"",""20166""
""fullscreenenter"",""5"",""20268""
","""event"",""trial"",""time""
""blur"",""5"",""16632""
","""event"",""trial"",""time""
""focus"",""5"",""20166""
","""event"",""trial"",""time""
""fullscreenenter"",""5"",""20268""
","
",668.7449999999953,NA,49,NA,NA,3000,1,NA,NA,images/tutgreenplanet.jpg,images/tutalien2,images/tutalien1,images/tutrocket2,images/tutalien1,images/nothing.png,2,practice,true,1,common,0,2020-06-24T14:57:53Z,sub107
two-step-fixation,108,541183,0.0-61.0-2.15,FALSE,FALSE,FALSE,TRUE,"""event"",""trial"",""time""
""blur"",""5"",""16632""
""focus"",""5"",""20166""
""fullscreenenter"",""5"",""20268""
","""event"",""trial"",""time""
""blur"",""5"",""16632""
","""event"",""trial"",""time""
""focus"",""5"",""20166""
","""event"",""trial"",""time""
""fullscreenenter"",""5"",""20268""
","
",NA,images/earth.jpg,NA,NA,NA,NA,NA,NA,NA,NA,NA,NA,NA,NA,NA,fixation,NA,NA,NA,NA,NA,NA,sub107
d3-animate-choice,109,543481,0.0-61.0-0.16,FALSE,FALSE,FALSE,TRUE,"""event"",""trial"",""time""
""blur"",""5"",""16632""
""focus"",""5"",""20166""
""fullscreenenter"",""5"",""20268""
","""event"",""trial"",""time""
""blur"",""5"",""16632""
","""event"",""trial"",""time""
""focus"",""5"",""20166""
","""event"",""trial"",""time""
""fullscreenenter"",""5"",""20268""
","
",295.125,NA,49,NA,NA,3000,1,NA,NA,images/earth.jpg,images/tutrocket1,images/tutrocket2,null,images/tutrocket2,NA,1,practice,null,1,NA,NA,NA,sub107
d3-animate-choice,110,545887,0.0-61.0-1.16,FALSE,FALSE,FALSE,TRUE,"""event"",""trial"",""time""
""blur"",""5"",""16632""
""focus"",""5"",""20166""
""fullscreenenter"",""5"",""20268""
","""event"",""trial"",""time""
""blur"",""5"",""16632""
","""event"",""trial"",""time""
""focus"",""5"",""20166""
","""event"",""trial"",""time""
""fullscreenenter"",""5"",""20268""
","
",403.1549999999115,NA,49,NA,NA,3000,1,NA,NA,images/tutgreenplanet.jpg,images/tutalien2,images/tutalien1,images/tutrocket2,images/tutalien1,images/nothing.png,2,practice,true,1,common,0,2020-06-24T14:57:58Z,sub107
two-step-fixation,111,546890,0.0-61.0-2.16,FALSE,FALSE,FALSE,TRUE,"""event"",""trial"",""time""
""blur"",""5"",""16632""
""focus"",""5"",""20166""
""fullscreenenter"",""5"",""20268""
","""event"",""trial"",""time""
""blur"",""5"",""16632""
","""event"",""trial"",""time""
""focus"",""5"",""20166""
","""event"",""trial"",""time""
""fullscreenenter"",""5"",""20268""
","
",NA,images/earth.jpg,NA,NA,NA,NA,NA,NA,NA,NA,NA,NA,NA,NA,NA,fixation,NA,NA,NA,NA,NA,NA,sub107
d3-animate-choice,112,549155,0.0-61.0-0.17,FALSE,FALSE,FALSE,TRUE,"""event"",""trial"",""time""
""blur"",""5"",""16632""
""focus"",""5"",""20166""
""fullscreenenter"",""5"",""20268""
","""event"",""trial"",""time""
""blur"",""5"",""16632""
","""event"",""trial"",""time""
""focus"",""5"",""20166""
","""event"",""trial"",""time""
""fullscreenenter"",""5"",""20268""
","
",260.96999999997206,NA,49,NA,NA,3000,1,NA,NA,images/earth.jpg,images/tutrocket1,images/tutrocket2,null,images/tutrocket2,NA,1,practice,null,1,NA,NA,NA,sub107
d3-animate-choice,113,551463,0.0-61.0-1.17,FALSE,FALSE,FALSE,TRUE,"""event"",""trial"",""time""
""blur"",""5"",""16632""
""focus"",""5"",""20166""
""fullscreenenter"",""5"",""20268""
","""event"",""trial"",""time""
""blur"",""5"",""16632""
","""event"",""trial"",""time""
""focus"",""5"",""20166""
","""event"",""trial"",""time""
""fullscreenenter"",""5"",""20268""
","
",305.79000000003725,NA,48,NA,NA,3000,1,NA,NA,images/tutgreenplanet.jpg,images/tutalien2,images/tutalien1,images/tutrocket2,images/tutalien2,images/nothing.png,2,practice,true,2,common,0,2020-06-24T14:58:04Z,sub107
two-step-fixation,114,552466,0.0-61.0-2.17,FALSE,FALSE,FALSE,TRUE,"""event"",""trial"",""time""
""blur"",""5"",""16632""
""focus"",""5"",""20166""
""fullscreenenter"",""5"",""20268""
","""event"",""trial"",""time""
""blur"",""5"",""16632""
","""event"",""trial"",""time""
""focus"",""5"",""20166""
","""event"",""trial"",""time""
""fullscreenenter"",""5"",""20268""
","
",NA,images/earth.jpg,NA,NA,NA,NA,NA,NA,NA,NA,NA,NA,NA,NA,NA,fixation,NA,NA,NA,NA,NA,NA,sub107
d3-animate-choice,115,554824,0.0-61.0-0.18,FALSE,FALSE,FALSE,TRUE,"""event"",""trial"",""time""
""blur"",""5"",""16632""
""focus"",""5"",""20166""
""fullscreenenter"",""5"",""20268""
","""event"",""trial"",""time""
""blur"",""5"",""16632""
","""event"",""trial"",""time""
""focus"",""5"",""20166""
","""event"",""trial"",""time""
""fullscreenenter"",""5"",""20268""
","
",354.45999999996275,NA,48,NA,NA,3000,1,NA,NA,images/earth.jpg,images/tutrocket1,images/tutrocket2,null,images/tutrocket1,NA,1,practice,null,2,NA,NA,NA,sub107
d3-animate-choice,116,558101,0.0-61.0-1.18,FALSE,FALSE,FALSE,TRUE,"""event"",""trial"",""time""
""blur"",""5"",""16632""
""focus"",""5"",""20166""
""fullscreenenter"",""5"",""20268""
","""event"",""trial"",""time""
""blur"",""5"",""16632""
","""event"",""trial"",""time""
""focus"",""5"",""20166""
","""event"",""trial"",""time""
""fullscreenenter"",""5"",""20268""
","
",1274.3250000000698,NA,48,NA,NA,3000,1,NA,NA,images/tutyellowplanet.jpg,images/tutalien4,images/tutalien3,images/tutrocket1,images/tutalien4,images/nothing.png,2,practice,true,2,common,0,2020-06-24T14:58:10Z,sub107
two-step-fixation,117,559103,0.0-61.0-2.18,FALSE,FALSE,FALSE,TRUE,"""event"",""trial"",""time""
""blur"",""5"",""16632""
""focus"",""5"",""20166""
""fullscreenenter"",""5"",""20268""
","""event"",""trial"",""time""
""blur"",""5"",""16632""
","""event"",""trial"",""time""
""focus"",""5"",""20166""
","""event"",""trial"",""time""
""fullscreenenter"",""5"",""20268""
","
",NA,images/earth.jpg,NA,NA,NA,NA,NA,NA,NA,NA,NA,NA,NA,NA,NA,fixation,NA,NA,NA,NA,NA,NA,sub107
d3-animate-choice,118,561352,0.0-61.0-0.19,FALSE,FALSE,FALSE,TRUE,"""event"",""trial"",""time""
""blur"",""5"",""16632""
""focus"",""5"",""20166""
""fullscreenenter"",""5"",""20268""
","""event"",""trial"",""time""
""blur"",""5"",""16632""
","""event"",""trial"",""time""
""focus"",""5"",""20166""
","""event"",""trial"",""time""
""fullscreenenter"",""5"",""20268""
","
",246.40500000002794,NA,48,NA,NA,3000,1,NA,NA,images/earth.jpg,images/tutrocket1,images/tutrocket2,null,images/tutrocket1,NA,1,practice,null,2,NA,NA,NA,sub107
d3-animate-choice,119,563994,0.0-61.0-1.19,FALSE,FALSE,FALSE,TRUE,"""event"",""trial"",""time""
""blur"",""5"",""16632""
""focus"",""5"",""20166""
""fullscreenenter"",""5"",""20268""
","""event"",""trial"",""time""
""blur"",""5"",""16632""
","""event"",""trial"",""time""
""focus"",""5"",""20166""
","""event"",""trial"",""time""
""fullscreenenter"",""5"",""20268""
","
",639.0250000000233,NA,49,NA,NA,3000,1,NA,NA,images/tutyellowplanet.jpg,images/tutalien4,images/tutalien3,images/tutrocket1,images/tutalien3,images/t.png,2,practice,true,1,common,1,2020-06-24T14:58:16Z,sub107
two-step-fixation,120,564998,0.0-61.0-2.19,FALSE,FALSE,FALSE,TRUE,"""event"",""trial"",""time""
""blur"",""5"",""16632""
""focus"",""5"",""20166""
""fullscreenenter"",""5"",""20268""
","""event"",""trial"",""time""
""blur"",""5"",""16632""
","""event"",""trial"",""time""
""focus"",""5"",""20166""
","""event"",""trial"",""time""
""fullscreenenter"",""5"",""20268""
","
",NA,images/earth.jpg,NA,NA,NA,NA,NA,NA,NA,NA,NA,NA,NA,NA,NA,fixation,NA,NA,NA,NA,NA,NA,sub107
d3-instructions,121,571447,0.0-62.0,FALSE,FALSE,FALSE,TRUE,"""event"",""trial"",""time""
""blur"",""5"",""16632""
""focus"",""5"",""20166""
""fullscreenenter"",""5"",""20268""
","""event"",""trial"",""time""
""blur"",""5"",""16632""
","""event"",""trial"",""time""
""focus"",""5"",""20166""
","""event"",""trial"",""time""
""fullscreenenter"",""5"",""20268""
","
",NA,NA,NA,NA,NA,NA,NA,NA,NA,NA,NA,NA,NA,NA,NA,NA,NA,NA,NA,NA,NA,NA,sub107
audio-keyboard-response,122,585352,0.0-63.0,FALSE,FALSE,FALSE,TRUE,"""event"",""trial"",""time""
""blur"",""5"",""16632""
""focus"",""5"",""20166""
""fullscreenenter"",""5"",""20268""
","""event"",""trial"",""time""
""blur"",""5"",""16632""
","""event"",""trial"",""time""
""focus"",""5"",""20166""
","""event"",""trial"",""time""
""fullscreenenter"",""5"",""20268""
","
",13899,audio/instructions/treasure_feedback.wav,32,NA,NA,NA,NA,NA,NA,NA,NA,NA,NA,NA,NA,NA,NA,NA,NA,NA,NA,NA,sub107
d3-instructions,123,626618,0.0-64.0,FALSE,FALSE,FALSE,TRUE,"""event"",""trial"",""time""
""blur"",""5"",""16632""
""focus"",""5"",""20166""
""fullscreenenter"",""5"",""20268""
","""event"",""trial"",""time""
""blur"",""5"",""16632""
","""event"",""trial"",""time""
""focus"",""5"",""20166""
","""event"",""trial"",""time""
""fullscreenenter"",""5"",""20268""
","
",NA,NA,NA,NA,NA,NA,NA,NA,NA,NA,NA,NA,NA,NA,NA,NA,NA,NA,NA,NA,NA,NA,sub107
d3-instructions,124,646923,0.0-65.0,FALSE,FALSE,FALSE,TRUE,"""event"",""trial"",""time""
""blur"",""5"",""16632""
""focus"",""5"",""20166""
""fullscreenenter"",""5"",""20268""
","""event"",""trial"",""time""
""blur"",""5"",""16632""
","""event"",""trial"",""time""
""focus"",""5"",""20166""
","""event"",""trial"",""time""
""fullscreenenter"",""5"",""20268""
","
",NA,NA,NA,NA,NA,NA,NA,NA,NA,NA,NA,NA,NA,NA,NA,NA,NA,NA,NA,NA,NA,NA,sub107
d3-instructions,125,683429,0.0-66.0,FALSE,FALSE,FALSE,TRUE,"""event"",""trial"",""time""
""blur"",""5"",""16632""
""focus"",""5"",""20166""
""fullscreenenter"",""5"",""20268""
","""event"",""trial"",""time""
""blur"",""5"",""16632""
","""event"",""trial"",""time""
""focus"",""5"",""20166""
","""event"",""trial"",""time""
""fullscreenenter"",""5"",""20268""
","
",NA,NA,NA,NA,NA,NA,NA,NA,NA,NA,NA,NA,NA,NA,NA,NA,NA,NA,NA,NA,NA,NA,sub107
d3-instructions,126,701892,0.0-67.0,FALSE,FALSE,FALSE,TRUE,"""event"",""trial"",""time""
""blur"",""5"",""16632""
""focus"",""5"",""20166""
""fullscreenenter"",""5"",""20268""
","""event"",""trial"",""time""
""blur"",""5"",""16632""
","""event"",""trial"",""time""
""focus"",""5"",""20166""
","""event"",""trial"",""time""
""fullscreenenter"",""5"",""20268""
","
",NA,NA,NA,NA,NA,NA,NA,NA,NA,NA,NA,NA,NA,NA,NA,NA,NA,NA,NA,NA,NA,NA,sub107
d3-instructions,127,711277,0.0-68.0,FALSE,FALSE,FALSE,TRUE,"""event"",""trial"",""time""
""blur"",""5"",""16632""
""focus"",""5"",""20166""
""fullscreenenter"",""5"",""20268""
","""event"",""trial"",""time""
""blur"",""5"",""16632""
","""event"",""trial"",""time""
""focus"",""5"",""20166""
","""event"",""trial"",""time""
""fullscreenenter"",""5"",""20268""
","
",NA,NA,NA,NA,NA,NA,NA,NA,NA,NA,NA,NA,NA,NA,NA,NA,NA,NA,NA,NA,NA,NA,sub107
instructions-quiz,128,714047,0.0-69.0,FALSE,FALSE,FALSE,TRUE,"""event"",""trial"",""time""
""blur"",""5"",""16632""
""focus"",""5"",""20166""
""fullscreenenter"",""5"",""20268""
","""event"",""trial"",""time""
""blur"",""5"",""16632""
","""event"",""trial"",""time""
""focus"",""5"",""20166""
","""event"",""trial"",""time""
""fullscreenenter"",""5"",""20268""
","
",2768.2500000001164,audio/quiz/Q1_Prompt.wav,NA,1,NA,NA,NA,NA,NA,NA,NA,NA,NA,NA,NA,NA,NA,NA,NA,NA,NA,NA,sub107
audio-keyboard-response,129,723214,0.0-70.0,FALSE,FALSE,FALSE,TRUE,"""event"",""trial"",""time""
""blur"",""5"",""16632""
""focus"",""5"",""20166""
""fullscreenenter"",""5"",""20268""
","""event"",""trial"",""time""
""blur"",""5"",""16632""
","""event"",""trial"",""time""
""focus"",""5"",""20166""
","""event"",""trial"",""time""
""fullscreenenter"",""5"",""20268""
","
",null,audio/quiz/Q1_Correct.wav,null,NA,NA,NA,NA,NA,NA,NA,NA,NA,NA,NA,NA,NA,NA,NA,NA,NA,NA,NA,sub107
instructions-quiz,130,728096,0.0-71.0,FALSE,FALSE,FALSE,TRUE,"""event"",""trial"",""time""
""blur"",""5"",""16632""
""focus"",""5"",""20166""
""fullscreenenter"",""5"",""20268""
","""event"",""trial"",""time""
""blur"",""5"",""16632""
","""event"",""trial"",""time""
""focus"",""5"",""20166""
","""event"",""trial"",""time""
""fullscreenenter"",""5"",""20268""
","
",4881.489999999991,audio/quiz/Q2_Prompt.wav,NA,0,NA,NA,NA,NA,NA,NA,NA,NA,NA,NA,NA,NA,NA,NA,NA,NA,NA,NA,sub107
audio-keyboard-response,131,740964,0.0-72.0,FALSE,FALSE,FALSE,TRUE,"""event"",""trial"",""time""
""blur"",""5"",""16632""
""focus"",""5"",""20166""
""fullscreenenter"",""5"",""20268""
","""event"",""trial"",""time""
""blur"",""5"",""16632""
","""event"",""trial"",""time""
""focus"",""5"",""20166""
","""event"",""trial"",""time""
""fullscreenenter"",""5"",""20268""
","
",null,audio/quiz/Q2_Correct.wav,null,NA,NA,NA,NA,NA,NA,NA,NA,NA,NA,NA,NA,NA,NA,NA,NA,NA,NA,NA,sub107
instructions-quiz,132,743606,0.0-73.0,FALSE,FALSE,FALSE,TRUE,"""event"",""trial"",""time""
""blur"",""5"",""16632""
""focus"",""5"",""20166""
""fullscreenenter"",""5"",""20268""
","""event"",""trial"",""time""
""blur"",""5"",""16632""
","""event"",""trial"",""time""
""focus"",""5"",""20166""
","""event"",""trial"",""time""
""fullscreenenter"",""5"",""20268""
","
",2641.2050000000745,audio/quiz/Q3_Prompt.wav,NA,1,NA,NA,NA,NA,NA,NA,NA,NA,NA,NA,NA,NA,NA,NA,NA,NA,NA,NA,sub107
audio-keyboard-response,133,749404,0.0-74.0,FALSE,FALSE,FALSE,TRUE,"""event"",""trial"",""time""
""blur"",""5"",""16632""
""focus"",""5"",""20166""
""fullscreenenter"",""5"",""20268""
","""event"",""trial"",""time""
""blur"",""5"",""16632""
","""event"",""trial"",""time""
""focus"",""5"",""20166""
","""event"",""trial"",""time""
""fullscreenenter"",""5"",""20268""
","
",null,audio/quiz/Q3_Correct.wav,null,NA,NA,NA,NA,NA,NA,NA,NA,NA,NA,NA,NA,NA,NA,NA,NA,NA,NA,NA,sub107
d3-instructions,134,762871,0.0-75.0,FALSE,FALSE,FALSE,TRUE,"""event"",""trial"",""time""
""blur"",""5"",""16632""
""focus"",""5"",""20166""
""fullscreenenter"",""5"",""20268""
","""event"",""trial"",""time""
""blur"",""5"",""16632""
","""event"",""trial"",""time""
""focus"",""5"",""20166""
","""event"",""trial"",""time""
""fullscreenenter"",""5"",""20268""
","
",NA,NA,NA,NA,NA,NA,NA,NA,NA,NA,NA,NA,NA,NA,NA,NA,NA,NA,NA,NA,NA,NA,sub107
d3-animate-choice,135,766790,0.0-76.0-0.0,FALSE,FALSE,FALSE,TRUE,"""event"",""trial"",""time""
""blur"",""5"",""16632""
""focus"",""5"",""20166""
""fullscreenenter"",""5"",""20268""
","""event"",""trial"",""time""
""blur"",""5"",""16632""
","""event"",""trial"",""time""
""focus"",""5"",""20166""
","""event"",""trial"",""time""
""fullscreenenter"",""5"",""20268""
","
",1914.4249999999302,NA,49,NA,NA,3000,1,NA,NA,images/earth.jpg,images/rocket1,images/rocket2,null,images/rocket2,NA,1,real,null,1,NA,NA,NA,sub107
d3-animate-choice,136,769773,0.0-76.0-1.0,FALSE,FALSE,FALSE,TRUE,"""event"",""trial"",""time""
""blur"",""5"",""16632""
""focus"",""5"",""20166""
""fullscreenenter"",""5"",""20268""
","""event"",""trial"",""time""
""blur"",""5"",""16632""
","""event"",""trial"",""time""
""focus"",""5"",""20166""
","""event"",""trial"",""time""
""fullscreenenter"",""5"",""20268""
","
",964.9599999999627,NA,48,NA,NA,3000,1,NA,NA,images/purpleplanet.jpg,images/alien4,images/alien3,images/rocket2,images/alien4,images/t.png,2,real,false,2,rare,1,2020-06-24T15:01:42Z,sub107
two-step-fixation,137,770777,0.0-76.0-2.0,FALSE,FALSE,FALSE,TRUE,"""event"",""trial"",""time""
""blur"",""5"",""16632""
""focus"",""5"",""20166""
""fullscreenenter"",""5"",""20268""
","""event"",""trial"",""time""
""blur"",""5"",""16632""
","""event"",""trial"",""time""
""focus"",""5"",""20166""
","""event"",""trial"",""time""
""fullscreenenter"",""5"",""20268""
","
",NA,images/earth.jpg,NA,NA,NA,NA,NA,NA,NA,NA,NA,NA,NA,NA,NA,fixation,NA,NA,NA,NA,NA,NA,sub107
d3-animate-choice,138,773160,0.0-76.0-0.1,FALSE,FALSE,FALSE,TRUE,"""event"",""trial"",""time""
""blur"",""5"",""16632""
""focus"",""5"",""20166""
""fullscreenenter"",""5"",""20268""
","""event"",""trial"",""time""
""blur"",""5"",""16632""
","""event"",""trial"",""time""
""focus"",""5"",""20166""
","""event"",""trial"",""time""
""fullscreenenter"",""5"",""20268""
","
",381.7249999999767,NA,49,NA,NA,3000,1,NA,NA,images/earth.jpg,images/rocket1,images/rocket2,null,images/rocket2,NA,1,real,null,1,NA,NA,NA,sub107
d3-animate-choice,139,776309,0.0-76.0-1.1,FALSE,FALSE,FALSE,TRUE,"""event"",""trial"",""time""
""blur"",""5"",""16632""
""focus"",""5"",""20166""
""fullscreenenter"",""5"",""20268""
","""event"",""trial"",""time""
""blur"",""5"",""16632""
","""event"",""trial"",""time""
""focus"",""5"",""20166""
","""event"",""trial"",""time""
""fullscreenenter"",""5"",""20268""
","
",1145.7550000000047,NA,49,NA,NA,3000,1,NA,NA,images/redplanet1.jpg,images/alien2,images/alien1,images/rocket2,images/alien1,images/nothing.png,2,real,true,1,common,0,2020-06-24T15:01:49Z,sub107
two-step-fixation,140,777311,0.0-76.0-2.1,FALSE,FALSE,FALSE,TRUE,"""event"",""trial"",""time""
""blur"",""5"",""16632""
""focus"",""5"",""20166""
""fullscreenenter"",""5"",""20268""
","""event"",""trial"",""time""
""blur"",""5"",""16632""
","""event"",""trial"",""time""
""focus"",""5"",""20166""
","""event"",""trial"",""time""
""fullscreenenter"",""5"",""20268""
","
",NA,images/earth.jpg,NA,NA,NA,NA,NA,NA,NA,NA,NA,NA,NA,NA,NA,fixation,NA,NA,NA,NA,NA,NA,sub107
d3-animate-choice,141,779843,0.0-76.0-0.2,FALSE,FALSE,FALSE,TRUE,"""event"",""trial"",""time""
""blur"",""5"",""16632""
""focus"",""5"",""20166""
""fullscreenenter"",""5"",""20268""
","""event"",""trial"",""time""
""blur"",""5"",""16632""
","""event"",""trial"",""time""
""focus"",""5"",""20166""
","""event"",""trial"",""time""
""fullscreenenter"",""5"",""20268""
","
",524.9349999999395,NA,48,NA,NA,3000,1,NA,NA,images/earth.jpg,images/rocket1,images/rocket2,null,images/rocket1,NA,1,real,null,2,NA,NA,NA,sub107
d3-animate-choice,142,782550,0.0-76.0-1.2,FALSE,FALSE,FALSE,TRUE,"""event"",""trial"",""time""
""blur"",""5"",""16632""
""focus"",""5"",""20166""
""fullscreenenter"",""5"",""20268""
","""event"",""trial"",""time""
""blur"",""5"",""16632""
","""event"",""trial"",""time""
""focus"",""5"",""20166""
","""event"",""trial"",""time""
""fullscreenenter"",""5"",""20268""
","
",705.0750000000698,NA,48,NA,NA,3000,1,NA,NA,images/purpleplanet.jpg,images/alien4,images/alien3,images/rocket1,images/alien4,images/t.png,2,real,true,2,common,1,2020-06-24T15:01:55Z,sub107
two-step-fixation,143,783553,0.0-76.0-2.2,FALSE,FALSE,FALSE,TRUE,"""event"",""trial"",""time""
""blur"",""5"",""16632""
""focus"",""5"",""20166""
""fullscreenenter"",""5"",""20268""
","""event"",""trial"",""time""
""blur"",""5"",""16632""
","""event"",""trial"",""time""
""focus"",""5"",""20166""
","""event"",""trial"",""time""
""fullscreenenter"",""5"",""20268""
","
",NA,images/earth.jpg,NA,NA,NA,NA,NA,NA,NA,NA,NA,NA,NA,NA,NA,fixation,NA,NA,NA,NA,NA,NA,sub107
d3-animate-choice,144,786003,0.0-76.0-0.3,FALSE,FALSE,FALSE,TRUE,"""event"",""trial"",""time""
""blur"",""5"",""16632""
""focus"",""5"",""20166""
""fullscreenenter"",""5"",""20268""
","""event"",""trial"",""time""
""blur"",""5"",""16632""
","""event"",""trial"",""time""
""focus"",""5"",""20166""
","""event"",""trial"",""time""
""fullscreenenter"",""5"",""20268""
","
",435.61999999999534,NA,48,NA,NA,3000,1,NA,NA,images/earth.jpg,images/rocket1,images/rocket2,null,images/rocket1,NA,1,real,null,2,NA,NA,NA,sub107
d3-animate-choice,145,788719,0.0-76.0-1.3,FALSE,FALSE,FALSE,TRUE,"""event"",""trial"",""time""
""blur"",""5"",""16632""
""focus"",""5"",""20166""
""fullscreenenter"",""5"",""20268""
","""event"",""trial"",""time""
""blur"",""5"",""16632""
","""event"",""trial"",""time""
""focus"",""5"",""20166""
","""event"",""trial"",""time""
""fullscreenenter"",""5"",""20268""
","
",712.5099999997765,NA,48,NA,NA,3000,1,NA,NA,images/purpleplanet.jpg,images/alien4,images/alien3,images/rocket1,images/alien4,images/t.png,2,real,true,2,common,1,2020-06-24T15:02:01Z,sub107
two-step-fixation,146,789722,0.0-76.0-2.3,FALSE,FALSE,FALSE,TRUE,"""event"",""trial"",""time""
""blur"",""5"",""16632""
""focus"",""5"",""20166""
""fullscreenenter"",""5"",""20268""
","""event"",""trial"",""time""
""blur"",""5"",""16632""
","""event"",""trial"",""time""
""focus"",""5"",""20166""
","""event"",""trial"",""time""
""fullscreenenter"",""5"",""20268""
","
",NA,images/earth.jpg,NA,NA,NA,NA,NA,NA,NA,NA,NA,NA,NA,NA,NA,fixation,NA,NA,NA,NA,NA,NA,sub107
d3-animate-choice,147,792067,0.0-76.0-0.4,FALSE,FALSE,FALSE,TRUE,"""event"",""trial"",""time""
""blur"",""5"",""16632""
""focus"",""5"",""20166""
""fullscreenenter"",""5"",""20268""
","""event"",""trial"",""time""
""blur"",""5"",""16632""
","""event"",""trial"",""time""
""focus"",""5"",""20166""
","""event"",""trial"",""time""
""fullscreenenter"",""5"",""20268""
","
",342.86999999999534,NA,48,NA,NA,3000,1,NA,NA,images/earth.jpg,images/rocket1,images/rocket2,null,images/rocket1,NA,1,real,null,2,NA,NA,NA,sub107
d3-animate-choice,148,794394,0.0-76.0-1.4,FALSE,FALSE,FALSE,TRUE,"""event"",""trial"",""time""
""blur"",""5"",""16632""
""focus"",""5"",""20166""
""fullscreenenter"",""5"",""20268""
","""event"",""trial"",""time""
""blur"",""5"",""16632""
","""event"",""trial"",""time""
""focus"",""5"",""20166""
","""event"",""trial"",""time""
""fullscreenenter"",""5"",""20268""
","
",325.26500000001397,NA,48,NA,NA,3000,1,NA,NA,images/purpleplanet.jpg,images/alien4,images/alien3,images/rocket1,images/alien4,images/t.png,2,real,true,2,common,1,2020-06-24T15:02:07Z,sub107
two-step-fixation,149,795397,0.0-76.0-2.4,FALSE,FALSE,FALSE,TRUE,"""event"",""trial"",""time""
""blur"",""5"",""16632""
""focus"",""5"",""20166""
""fullscreenenter"",""5"",""20268""
","""event"",""trial"",""time""
""blur"",""5"",""16632""
","""event"",""trial"",""time""
""focus"",""5"",""20166""
","""event"",""trial"",""time""
""fullscreenenter"",""5"",""20268""
","
",NA,images/earth.jpg,NA,NA,NA,NA,NA,NA,NA,NA,NA,NA,NA,NA,NA,fixation,NA,NA,NA,NA,NA,NA,sub107
d3-animate-choice,150,797778,0.0-76.0-0.5,FALSE,FALSE,FALSE,TRUE,"""event"",""trial"",""time""
""blur"",""5"",""16632""
""focus"",""5"",""20166""
""fullscreenenter"",""5"",""20268""
","""event"",""trial"",""time""
""blur"",""5"",""16632""
","""event"",""trial"",""time""
""focus"",""5"",""20166""
","""event"",""trial"",""time""
""fullscreenenter"",""5"",""20268""
","
",378.4049999999115,NA,48,NA,NA,3000,1,NA,NA,images/earth.jpg,images/rocket1,images/rocket2,null,images/rocket1,NA,1,real,null,2,NA,NA,NA,sub107
d3-animate-choice,151,800697,0.0-76.0-1.5,FALSE,FALSE,FALSE,TRUE,"""event"",""trial"",""time""
""blur"",""5"",""16632""
""focus"",""5"",""20166""
""fullscreenenter"",""5"",""20268""
","""event"",""trial"",""time""
""blur"",""5"",""16632""
","""event"",""trial"",""time""
""focus"",""5"",""20166""
","""event"",""trial"",""time""
""fullscreenenter"",""5"",""20268""
","
",914.7550000000047,NA,48,NA,NA,3000,1,NA,NA,images/purpleplanet.jpg,images/alien4,images/alien3,images/rocket1,images/alien4,images/t.png,2,real,true,2,common,1,2020-06-24T15:02:13Z,sub107
two-step-fixation,152,801700,0.0-76.0-2.5,FALSE,FALSE,FALSE,TRUE,"""event"",""trial"",""time""
""blur"",""5"",""16632""
""focus"",""5"",""20166""
""fullscreenenter"",""5"",""20268""
","""event"",""trial"",""time""
""blur"",""5"",""16632""
","""event"",""trial"",""time""
""focus"",""5"",""20166""
","""event"",""trial"",""time""
""fullscreenenter"",""5"",""20268""
","
",NA,images/earth.jpg,NA,NA,NA,NA,NA,NA,NA,NA,NA,NA,NA,NA,NA,fixation,NA,NA,NA,NA,NA,NA,sub107
d3-animate-choice,153,804067,0.0-76.0-0.6,FALSE,FALSE,FALSE,TRUE,"""event"",""trial"",""time""
""blur"",""5"",""16632""
""focus"",""5"",""20166""
""fullscreenenter"",""5"",""20268""
","""event"",""trial"",""time""
""blur"",""5"",""16632""
","""event"",""trial"",""time""
""focus"",""5"",""20166""
","""event"",""trial"",""time""
""fullscreenenter"",""5"",""20268""
","
",364.2799999999115,NA,48,NA,NA,3000,1,NA,NA,images/earth.jpg,images/rocket1,images/rocket2,null,images/rocket1,NA,1,real,null,2,NA,NA,NA,sub107
d3-animate-choice,154,806807,0.0-76.0-1.6,FALSE,FALSE,FALSE,TRUE,"""event"",""trial"",""time""
""blur"",""5"",""16632""
""focus"",""5"",""20166""
""fullscreenenter"",""5"",""20268""
","""event"",""trial"",""time""
""blur"",""5"",""16632""
","""event"",""trial"",""time""
""focus"",""5"",""20166""
","""event"",""trial"",""time""
""fullscreenenter"",""5"",""20268""
","
",736.75,NA,48,NA,NA,3000,1,NA,NA,images/purpleplanet.jpg,images/alien4,images/alien3,images/rocket1,images/alien4,images/t.png,2,real,true,2,common,1,2020-06-24T15:02:19Z,sub107
two-step-fixation,155,807810,0.0-76.0-2.6,FALSE,FALSE,FALSE,TRUE,"""event"",""trial"",""time""
""blur"",""5"",""16632""
""focus"",""5"",""20166""
""fullscreenenter"",""5"",""20268""
","""event"",""trial"",""time""
""blur"",""5"",""16632""
","""event"",""trial"",""time""
""focus"",""5"",""20166""
","""event"",""trial"",""time""
""fullscreenenter"",""5"",""20268""
","
",NA,images/earth.jpg,NA,NA,NA,NA,NA,NA,NA,NA,NA,NA,NA,NA,NA,fixation,NA,NA,NA,NA,NA,NA,sub107
d3-animate-choice,156,810108,0.0-76.0-0.7,FALSE,FALSE,FALSE,TRUE,"""event"",""trial"",""time""
""blur"",""5"",""16632""
""focus"",""5"",""20166""
""fullscreenenter"",""5"",""20268""
","""event"",""trial"",""time""
""blur"",""5"",""16632""
","""event"",""trial"",""time""
""focus"",""5"",""20166""
","""event"",""trial"",""time""
""fullscreenenter"",""5"",""20268""
","
",296.0999999999767,NA,48,NA,NA,3000,1,NA,NA,images/earth.jpg,images/rocket1,images/rocket2,null,images/rocket1,NA,1,real,null,2,NA,NA,NA,sub107
d3-animate-choice,157,812538,0.0-76.0-1.7,FALSE,FALSE,FALSE,TRUE,"""event"",""trial"",""time""
""blur"",""5"",""16632""
""focus"",""5"",""20166""
""fullscreenenter"",""5"",""20268""
","""event"",""trial"",""time""
""blur"",""5"",""16632""
","""event"",""trial"",""time""
""focus"",""5"",""20166""
","""event"",""trial"",""time""
""fullscreenenter"",""5"",""20268""
","
",426.5100000000093,NA,48,NA,NA,3000,1,NA,NA,images/purpleplanet.jpg,images/alien4,images/alien3,images/rocket1,images/alien4,images/nothing.png,2,real,true,2,common,0,2020-06-24T15:02:25Z,sub107
two-step-fixation,158,813541,0.0-76.0-2.7,FALSE,FALSE,FALSE,TRUE,"""event"",""trial"",""time""
""blur"",""5"",""16632""
""focus"",""5"",""20166""
""fullscreenenter"",""5"",""20268""
","""event"",""trial"",""time""
""blur"",""5"",""16632""
","""event"",""trial"",""time""
""focus"",""5"",""20166""
","""event"",""trial"",""time""
""fullscreenenter"",""5"",""20268""
","
",NA,images/earth.jpg,NA,NA,NA,NA,NA,NA,NA,NA,NA,NA,NA,NA,NA,fixation,NA,NA,NA,NA,NA,NA,sub107
d3-animate-choice,159,815814,0.0-76.0-0.8,FALSE,FALSE,FALSE,TRUE,"""event"",""trial"",""time""
""blur"",""5"",""16632""
""focus"",""5"",""20166""
""fullscreenenter"",""5"",""20268""
","""event"",""trial"",""time""
""blur"",""5"",""16632""
","""event"",""trial"",""time""
""focus"",""5"",""20166""
","""event"",""trial"",""time""
""fullscreenenter"",""5"",""20268""
","
",269.7299999999814,NA,49,NA,NA,3000,1,NA,NA,images/earth.jpg,images/rocket1,images/rocket2,null,images/rocket2,NA,1,real,null,1,NA,NA,NA,sub107
d3-animate-choice,160,818336,0.0-76.0-1.8,FALSE,FALSE,FALSE,TRUE,"""event"",""trial"",""time""
""blur"",""5"",""16632""
""focus"",""5"",""20166""
""fullscreenenter"",""5"",""20268""
","""event"",""trial"",""time""
""blur"",""5"",""16632""
","""event"",""trial"",""time""
""focus"",""5"",""20166""
","""event"",""trial"",""time""
""fullscreenenter"",""5"",""20268""
","
",518.520000000135,NA,48,NA,NA,3000,1,NA,NA,images/redplanet1.jpg,images/alien2,images/alien1,images/rocket2,images/alien2,images/nothing.png,2,real,true,2,common,0,2020-06-24T15:02:31Z,sub107
two-step-fixation,161,819339,0.0-76.0-2.8,FALSE,FALSE,FALSE,TRUE,"""event"",""trial"",""time""
""blur"",""5"",""16632""
""focus"",""5"",""20166""
""fullscreenenter"",""5"",""20268""
","""event"",""trial"",""time""
""blur"",""5"",""16632""
","""event"",""trial"",""time""
""focus"",""5"",""20166""
","""event"",""trial"",""time""
""fullscreenenter"",""5"",""20268""
","
",NA,images/earth.jpg,NA,NA,NA,NA,NA,NA,NA,NA,NA,NA,NA,NA,NA,fixation,NA,NA,NA,NA,NA,NA,sub107
d3-animate-choice,162,821585,0.0-76.0-0.9,FALSE,FALSE,FALSE,TRUE,"""event"",""trial"",""time""
""blur"",""5"",""16632""
""focus"",""5"",""20166""
""fullscreenenter"",""5"",""20268""
","""event"",""trial"",""time""
""blur"",""5"",""16632""
","""event"",""trial"",""time""
""focus"",""5"",""20166""
","""event"",""trial"",""time""
""fullscreenenter"",""5"",""20268""
","
",244.2850000000326,NA,48,NA,NA,3000,1,NA,NA,images/earth.jpg,images/rocket1,images/rocket2,null,images/rocket1,NA,1,real,null,2,NA,NA,NA,sub107
d3-animate-choice,163,824228,0.0-76.0-1.9,FALSE,FALSE,FALSE,TRUE,"""event"",""trial"",""time""
""blur"",""5"",""16632""
""focus"",""5"",""20166""
""fullscreenenter"",""5"",""20268""
","""event"",""trial"",""time""
""blur"",""5"",""16632""
","""event"",""trial"",""time""
""focus"",""5"",""20166""
","""event"",""trial"",""time""
""fullscreenenter"",""5"",""20268""
","
",639.2550000000047,NA,49,NA,NA,3000,1,NA,NA,images/purpleplanet.jpg,images/alien4,images/alien3,images/rocket1,images/alien3,images/nothing.png,2,real,true,1,common,0,2020-06-24T15:02:37Z,sub107
two-step-fixation,164,825231,0.0-76.0-2.9,FALSE,FALSE,FALSE,TRUE,"""event"",""trial"",""time""
""blur"",""5"",""16632""
""focus"",""5"",""20166""
""fullscreenenter"",""5"",""20268""
","""event"",""trial"",""time""
""blur"",""5"",""16632""
","""event"",""trial"",""time""
""focus"",""5"",""20166""
","""event"",""trial"",""time""
""fullscreenenter"",""5"",""20268""
","
",NA,images/earth.jpg,NA,NA,NA,NA,NA,NA,NA,NA,NA,NA,NA,NA,NA,fixation,NA,NA,NA,NA,NA,NA,sub107
d3-animate-choice,165,827613,0.0-76.0-0.10,FALSE,FALSE,FALSE,TRUE,"""event"",""trial"",""time""
""blur"",""5"",""16632""
""focus"",""5"",""20166""
""fullscreenenter"",""5"",""20268""
","""event"",""trial"",""time""
""blur"",""5"",""16632""
","""event"",""trial"",""time""
""focus"",""5"",""20166""
","""event"",""trial"",""time""
""fullscreenenter"",""5"",""20268""
","
",379.0950000000885,NA,48,NA,NA,3000,1,NA,NA,images/earth.jpg,images/rocket1,images/rocket2,null,images/rocket1,NA,1,real,null,2,NA,NA,NA,sub107
d3-animate-choice,166,829975,0.0-76.0-1.10,FALSE,FALSE,FALSE,TRUE,"""event"",""trial"",""time""
""blur"",""5"",""16632""
""focus"",""5"",""20166""
""fullscreenenter"",""5"",""20268""
","""event"",""trial"",""time""
""blur"",""5"",""16632""
","""event"",""trial"",""time""
""focus"",""5"",""20166""
","""event"",""trial"",""time""
""fullscreenenter"",""5"",""20268""
","
",360.29000000003725,NA,48,NA,NA,3000,1,NA,NA,images/purpleplanet.jpg,images/alien4,images/alien3,images/rocket1,images/alien4,images/t.png,2,real,true,2,common,1,2020-06-24T15:02:42Z,sub107
two-step-fixation,167,830978,0.0-76.0-2.10,FALSE,FALSE,FALSE,TRUE,"""event"",""trial"",""time""
""blur"",""5"",""16632""
""focus"",""5"",""20166""
""fullscreenenter"",""5"",""20268""
","""event"",""trial"",""time""
""blur"",""5"",""16632""
","""event"",""trial"",""time""
""focus"",""5"",""20166""
","""event"",""trial"",""time""
""fullscreenenter"",""5"",""20268""
","
",NA,images/earth.jpg,NA,NA,NA,NA,NA,NA,NA,NA,NA,NA,NA,NA,NA,fixation,NA,NA,NA,NA,NA,NA,sub107
d3-animate-choice,168,833243,0.0-76.0-0.11,FALSE,FALSE,FALSE,TRUE,"""event"",""trial"",""time""
""blur"",""5"",""16632""
""focus"",""5"",""20166""
""fullscreenenter"",""5"",""20268""
","""event"",""trial"",""time""
""blur"",""5"",""16632""
","""event"",""trial"",""time""
""focus"",""5"",""20166""
","""event"",""trial"",""time""
""fullscreenenter"",""5"",""20268""
","
",261.535000000149,NA,48,NA,NA,3000,1,NA,NA,images/earth.jpg,images/rocket1,images/rocket2,null,images/rocket1,NA,1,real,null,2,NA,NA,NA,sub107
d3-animate-choice,169,835598,0.0-76.0-1.11,FALSE,FALSE,FALSE,TRUE,"""event"",""trial"",""time""
""blur"",""5"",""16632""
""focus"",""5"",""20166""
""fullscreenenter"",""5"",""20268""
","""event"",""trial"",""time""
""blur"",""5"",""16632""
","""event"",""trial"",""time""
""focus"",""5"",""20166""
","""event"",""trial"",""time""
""fullscreenenter"",""5"",""20268""
","
",351.73499999998603,NA,48,NA,NA,3000,1,NA,NA,images/purpleplanet.jpg,images/alien4,images/alien3,images/rocket1,images/alien4,images/t.png,2,real,true,2,common,1,2020-06-24T15:02:48Z,sub107
two-step-fixation,170,836600,0.0-76.0-2.11,FALSE,FALSE,FALSE,TRUE,"""event"",""trial"",""time""
""blur"",""5"",""16632""
""focus"",""5"",""20166""
""fullscreenenter"",""5"",""20268""
","""event"",""trial"",""time""
""blur"",""5"",""16632""
","""event"",""trial"",""time""
""focus"",""5"",""20166""
","""event"",""trial"",""time""
""fullscreenenter"",""5"",""20268""
","
",NA,images/earth.jpg,NA,NA,NA,NA,NA,NA,NA,NA,NA,NA,NA,NA,NA,fixation,NA,NA,NA,NA,NA,NA,sub107
d3-animate-choice,171,838895,0.0-76.0-0.12,FALSE,FALSE,FALSE,TRUE,"""event"",""trial"",""time""
""blur"",""5"",""16632""
""focus"",""5"",""20166""
""fullscreenenter"",""5"",""20268""
","""event"",""trial"",""time""
""blur"",""5"",""16632""
","""event"",""trial"",""time""
""focus"",""5"",""20166""
","""event"",""trial"",""time""
""fullscreenenter"",""5"",""20268""
","
",291.5200000000186,NA,48,NA,NA,3000,1,NA,NA,images/earth.jpg,images/rocket1,images/rocket2,null,images/rocket1,NA,1,real,null,2,NA,NA,NA,sub107
d3-animate-choice,172,841515,0.0-76.0-1.12,FALSE,FALSE,FALSE,TRUE,"""event"",""trial"",""time""
""blur"",""5"",""16632""
""focus"",""5"",""20166""
""fullscreenenter"",""5"",""20268""
","""event"",""trial"",""time""
""blur"",""5"",""16632""
","""event"",""trial"",""time""
""focus"",""5"",""20166""
","""event"",""trial"",""time""
""fullscreenenter"",""5"",""20268""
","
",617.839999999851,NA,48,NA,NA,3000,1,NA,NA,images/purpleplanet.jpg,images/alien4,images/alien3,images/rocket1,images/alien4,images/nothing.png,2,real,true,2,common,0,2020-06-24T15:02:54Z,sub107
two-step-fixation,173,842518,0.0-76.0-2.12,FALSE,FALSE,FALSE,TRUE,"""event"",""trial"",""time""
""blur"",""5"",""16632""
""focus"",""5"",""20166""
""fullscreenenter"",""5"",""20268""
","""event"",""trial"",""time""
""blur"",""5"",""16632""
","""event"",""trial"",""time""
""focus"",""5"",""20166""
","""event"",""trial"",""time""
""fullscreenenter"",""5"",""20268""
","
",NA,images/earth.jpg,NA,NA,NA,NA,NA,NA,NA,NA,NA,NA,NA,NA,NA,fixation,NA,NA,NA,NA,NA,NA,sub107
d3-animate-choice,174,844772,0.0-76.0-0.13,FALSE,FALSE,FALSE,TRUE,"""event"",""trial"",""time""
""blur"",""5"",""16632""
""focus"",""5"",""20166""
""fullscreenenter"",""5"",""20268""
","""event"",""trial"",""time""
""blur"",""5"",""16632""
","""event"",""trial"",""time""
""focus"",""5"",""20166""
","""event"",""trial"",""time""
""fullscreenenter"",""5"",""20268""
","
",249.88000000012107,NA,49,NA,NA,3000,1,NA,NA,images/earth.jpg,images/rocket1,images/rocket2,null,images/rocket2,NA,1,real,null,1,NA,NA,NA,sub107
d3-animate-choice,175,847103,0.0-76.0-1.13,FALSE,FALSE,FALSE,TRUE,"""event"",""trial"",""time""
""blur"",""5"",""16632""
""focus"",""5"",""20166""
""fullscreenenter"",""5"",""20268""
","""event"",""trial"",""time""
""blur"",""5"",""16632""
","""event"",""trial"",""time""
""focus"",""5"",""20166""
","""event"",""trial"",""time""
""fullscreenenter"",""5"",""20268""
","
",327.28000000002794,NA,49,NA,NA,3000,1,NA,NA,images/redplanet1.jpg,images/alien2,images/alien1,images/rocket2,images/alien1,images/t.png,2,real,true,1,common,1,2020-06-24T15:02:59Z,sub107
two-step-fixation,176,848105,0.0-76.0-2.13,FALSE,FALSE,FALSE,TRUE,"""event"",""trial"",""time""
""blur"",""5"",""16632""
""focus"",""5"",""20166""
""fullscreenenter"",""5"",""20268""
","""event"",""trial"",""time""
""blur"",""5"",""16632""
","""event"",""trial"",""time""
""focus"",""5"",""20166""
","""event"",""trial"",""time""
""fullscreenenter"",""5"",""20268""
","
",NA,images/earth.jpg,NA,NA,NA,NA,NA,NA,NA,NA,NA,NA,NA,NA,NA,fixation,NA,NA,NA,NA,NA,NA,sub107
d3-animate-choice,177,850854,0.0-76.0-0.14,FALSE,FALSE,FALSE,TRUE,"""event"",""trial"",""time""
""blur"",""5"",""16632""
""focus"",""5"",""20166""
""fullscreenenter"",""5"",""20268""
","""event"",""trial"",""time""
""blur"",""5"",""16632""
","""event"",""trial"",""time""
""focus"",""5"",""20166""
","""event"",""trial"",""time""
""fullscreenenter"",""5"",""20268""
","
",745.8100000000559,NA,49,NA,NA,3000,1,NA,NA,images/earth.jpg,images/rocket1,images/rocket2,null,images/rocket2,NA,1,real,null,1,NA,NA,NA,sub107
d3-animate-choice,178,853258,0.0-76.0-1.14,FALSE,FALSE,FALSE,TRUE,"""event"",""trial"",""time""
""blur"",""5"",""16632""
""focus"",""5"",""20166""
""fullscreenenter"",""5"",""20268""
","""event"",""trial"",""time""
""blur"",""5"",""16632""
","""event"",""trial"",""time""
""focus"",""5"",""20166""
","""event"",""trial"",""time""
""fullscreenenter"",""5"",""20268""
","
",400.16500000003725,NA,49,NA,NA,3000,1,NA,NA,images/redplanet1.jpg,images/alien2,images/alien1,images/rocket2,images/alien1,images/nothing.png,2,real,true,1,common,0,2020-06-24T15:03:06Z,sub107
two-step-fixation,179,854261,0.0-76.0-2.14,FALSE,FALSE,FALSE,TRUE,"""event"",""trial"",""time""
""blur"",""5"",""16632""
""focus"",""5"",""20166""
""fullscreenenter"",""5"",""20268""
","""event"",""trial"",""time""
""blur"",""5"",""16632""
","""event"",""trial"",""time""
""focus"",""5"",""20166""
","""event"",""trial"",""time""
""fullscreenenter"",""5"",""20268""
","
",NA,images/earth.jpg,NA,NA,NA,NA,NA,NA,NA,NA,NA,NA,NA,NA,NA,fixation,NA,NA,NA,NA,NA,NA,sub107
d3-animate-choice,180,856561,0.0-76.0-0.15,FALSE,FALSE,FALSE,TRUE,"""event"",""trial"",""time""
""blur"",""5"",""16632""
""focus"",""5"",""20166""
""fullscreenenter"",""5"",""20268""
","""event"",""trial"",""time""
""blur"",""5"",""16632""
","""event"",""trial"",""time""
""focus"",""5"",""20166""
","""event"",""trial"",""time""
""fullscreenenter"",""5"",""20268""
","
",295.62999999988824,NA,48,NA,NA,3000,1,NA,NA,images/earth.jpg,images/rocket1,images/rocket2,null,images/rocket1,NA,1,real,null,2,NA,NA,NA,sub107
d3-animate-choice,181,858873,0.0-76.0-1.15,FALSE,FALSE,FALSE,TRUE,"""event"",""trial"",""time""
""blur"",""5"",""16632""
""focus"",""5"",""20166""
""fullscreenenter"",""5"",""20268""
","""event"",""trial"",""time""
""blur"",""5"",""16632""
","""event"",""trial"",""time""
""focus"",""5"",""20166""
","""event"",""trial"",""time""
""fullscreenenter"",""5"",""20268""
","
",309.6150000001071,NA,48,NA,NA,3000,1,NA,NA,images/purpleplanet.jpg,images/alien4,images/alien3,images/rocket1,images/alien4,images/t.png,2,real,true,2,common,1,2020-06-24T15:03:11Z,sub107
two-step-fixation,182,859875,0.0-76.0-2.15,FALSE,FALSE,FALSE,TRUE,"""event"",""trial"",""time""
""blur"",""5"",""16632""
""focus"",""5"",""20166""
""fullscreenenter"",""5"",""20268""
","""event"",""trial"",""time""
""blur"",""5"",""16632""
","""event"",""trial"",""time""
""focus"",""5"",""20166""
","""event"",""trial"",""time""
""fullscreenenter"",""5"",""20268""
","
",NA,images/earth.jpg,NA,NA,NA,NA,NA,NA,NA,NA,NA,NA,NA,NA,NA,fixation,NA,NA,NA,NA,NA,NA,sub107
d3-animate-choice,183,862146,0.0-76.0-0.16,FALSE,FALSE,FALSE,TRUE,"""event"",""trial"",""time""
""blur"",""5"",""16632""
""focus"",""5"",""20166""
""fullscreenenter"",""5"",""20268""
","""event"",""trial"",""time""
""blur"",""5"",""16632""
","""event"",""trial"",""time""
""focus"",""5"",""20166""
","""event"",""trial"",""time""
""fullscreenenter"",""5"",""20268""
","
",267.1400000001304,NA,48,NA,NA,3000,1,NA,NA,images/earth.jpg,images/rocket1,images/rocket2,null,images/rocket1,NA,1,real,null,2,NA,NA,NA,sub107
d3-animate-choice,184,864614,0.0-76.0-1.16,FALSE,FALSE,FALSE,TRUE,"""event"",""trial"",""time""
""blur"",""5"",""16632""
""focus"",""5"",""20166""
""fullscreenenter"",""5"",""20268""
","""event"",""trial"",""time""
""blur"",""5"",""16632""
","""event"",""trial"",""time""
""focus"",""5"",""20166""
","""event"",""trial"",""time""
""fullscreenenter"",""5"",""20268""
","
",464.94999999995343,NA,48,NA,NA,3000,1,NA,NA,images/purpleplanet.jpg,images/alien4,images/alien3,images/rocket1,images/alien4,images/t.png,2,real,true,2,common,1,2020-06-24T15:03:17Z,sub107
two-step-fixation,185,865616,0.0-76.0-2.16,FALSE,FALSE,FALSE,TRUE,"""event"",""trial"",""time""
""blur"",""5"",""16632""
""focus"",""5"",""20166""
""fullscreenenter"",""5"",""20268""
","""event"",""trial"",""time""
""blur"",""5"",""16632""
","""event"",""trial"",""time""
""focus"",""5"",""20166""
","""event"",""trial"",""time""
""fullscreenenter"",""5"",""20268""
","
",NA,images/earth.jpg,NA,NA,NA,NA,NA,NA,NA,NA,NA,NA,NA,NA,NA,fixation,NA,NA,NA,NA,NA,NA,sub107
d3-animate-choice,186,867879,0.0-76.0-0.17,FALSE,FALSE,FALSE,TRUE,"""event"",""trial"",""time""
""blur"",""5"",""16632""
""focus"",""5"",""20166""
""fullscreenenter"",""5"",""20268""
","""event"",""trial"",""time""
""blur"",""5"",""16632""
","""event"",""trial"",""time""
""focus"",""5"",""20166""
","""event"",""trial"",""time""
""fullscreenenter"",""5"",""20268""
","
",260.875,NA,48,NA,NA,3000,1,NA,NA,images/earth.jpg,images/rocket1,images/rocket2,null,images/rocket1,NA,1,real,null,2,NA,NA,NA,sub107
d3-animate-choice,187,871177,0.0-76.0-1.17,FALSE,FALSE,FALSE,TRUE,"""event"",""trial"",""time""
""blur"",""5"",""16632""
""focus"",""5"",""20166""
""fullscreenenter"",""5"",""20268""
","""event"",""trial"",""time""
""blur"",""5"",""16632""
","""event"",""trial"",""time""
""focus"",""5"",""20166""
","""event"",""trial"",""time""
""fullscreenenter"",""5"",""20268""
","
",1294.8950000000186,NA,48,NA,NA,3000,1,NA,NA,images/redplanet1.jpg,images/alien2,images/alien1,images/rocket1,images/alien2,images/t.png,2,real,false,2,rare,1,2020-06-24T15:03:24Z,sub107
two-step-fixation,188,872179,0.0-76.0-2.17,FALSE,FALSE,FALSE,TRUE,"""event"",""trial"",""time""
""blur"",""5"",""16632""
""focus"",""5"",""20166""
""fullscreenenter"",""5"",""20268""
","""event"",""trial"",""time""
""blur"",""5"",""16632""
","""event"",""trial"",""time""
""focus"",""5"",""20166""
","""event"",""trial"",""time""
""fullscreenenter"",""5"",""20268""
","
",NA,images/earth.jpg,NA,NA,NA,NA,NA,NA,NA,NA,NA,NA,NA,NA,NA,fixation,NA,NA,NA,NA,NA,NA,sub107
d3-animate-choice,189,875070,0.0-76.0-0.18,FALSE,FALSE,FALSE,TRUE,"""event"",""trial"",""time""
""blur"",""5"",""16632""
""focus"",""5"",""20166""
""fullscreenenter"",""5"",""20268""
","""event"",""trial"",""time""
""blur"",""5"",""16632""
","""event"",""trial"",""time""
""focus"",""5"",""20166""
","""event"",""trial"",""time""
""fullscreenenter"",""5"",""20268""
","
",888.625,NA,49,NA,NA,3000,1,NA,NA,images/earth.jpg,images/rocket1,images/rocket2,null,images/rocket2,NA,1,real,null,1,NA,NA,NA,sub107
d3-animate-choice,190,877524,0.0-76.0-1.18,FALSE,FALSE,FALSE,TRUE,"""event"",""trial"",""time""
""blur"",""5"",""16632""
""focus"",""5"",""20166""
""fullscreenenter"",""5"",""20268""
","""event"",""trial"",""time""
""blur"",""5"",""16632""
","""event"",""trial"",""time""
""focus"",""5"",""20166""
","""event"",""trial"",""time""
""fullscreenenter"",""5"",""20268""
","
",449.8599999998696,NA,48,NA,NA,3000,1,NA,NA,images/redplanet1.jpg,images/alien2,images/alien1,images/rocket2,images/alien2,images/t.png,2,real,true,2,common,1,2020-06-24T15:03:30Z,sub107
two-step-fixation,191,878527,0.0-76.0-2.18,FALSE,FALSE,FALSE,TRUE,"""event"",""trial"",""time""
""blur"",""5"",""16632""
""focus"",""5"",""20166""
""fullscreenenter"",""5"",""20268""
","""event"",""trial"",""time""
""blur"",""5"",""16632""
","""event"",""trial"",""time""
""focus"",""5"",""20166""
","""event"",""trial"",""time""
""fullscreenenter"",""5"",""20268""
","
",NA,images/earth.jpg,NA,NA,NA,NA,NA,NA,NA,NA,NA,NA,NA,NA,NA,fixation,NA,NA,NA,NA,NA,NA,sub107
d3-animate-choice,192,880880,0.0-76.0-0.19,FALSE,FALSE,FALSE,TRUE,"""event"",""trial"",""time""
""blur"",""5"",""16632""
""focus"",""5"",""20166""
""fullscreenenter"",""5"",""20268""
","""event"",""trial"",""time""
""blur"",""5"",""16632""
","""event"",""trial"",""time""
""focus"",""5"",""20166""
","""event"",""trial"",""time""
""fullscreenenter"",""5"",""20268""
","
",348.88000000000466,NA,49,NA,NA,3000,1,NA,NA,images/earth.jpg,images/rocket1,images/rocket2,null,images/rocket2,NA,1,real,null,1,NA,NA,NA,sub107
d3-animate-choice,193,883479,0.0-76.0-1.19,FALSE,FALSE,FALSE,TRUE,"""event"",""trial"",""time""
""blur"",""5"",""16632""
""focus"",""5"",""20166""
""fullscreenenter"",""5"",""20268""
","""event"",""trial"",""time""
""blur"",""5"",""16632""
","""event"",""trial"",""time""
""focus"",""5"",""20166""
","""event"",""trial"",""time""
""fullscreenenter"",""5"",""20268""
","
",595.9749999998603,NA,48,NA,NA,3000,1,NA,NA,images/redplanet1.jpg,images/alien2,images/alien1,images/rocket2,images/alien2,images/t.png,2,real,true,2,common,1,2020-06-24T15:03:36Z,sub107
two-step-fixation,194,884481,0.0-76.0-2.19,FALSE,FALSE,FALSE,TRUE,"""event"",""trial"",""time""
""blur"",""5"",""16632""
""focus"",""5"",""20166""
""fullscreenenter"",""5"",""20268""
","""event"",""trial"",""time""
""blur"",""5"",""16632""
","""event"",""trial"",""time""
""focus"",""5"",""20166""
","""event"",""trial"",""time""
""fullscreenenter"",""5"",""20268""
","
",NA,images/earth.jpg,NA,NA,NA,NA,NA,NA,NA,NA,NA,NA,NA,NA,NA,fixation,NA,NA,NA,NA,NA,NA,sub107
d3-animate-choice,195,886807,0.0-76.0-0.20,FALSE,FALSE,FALSE,TRUE,"""event"",""trial"",""time""
""blur"",""5"",""16632""
""focus"",""5"",""20166""
""fullscreenenter"",""5"",""20268""
","""event"",""trial"",""time""
""blur"",""5"",""16632""
","""event"",""trial"",""time""
""focus"",""5"",""20166""
","""event"",""trial"",""time""
""fullscreenenter"",""5"",""20268""
","
",321.10000000009313,NA,49,NA,NA,3000,1,NA,NA,images/earth.jpg,images/rocket1,images/rocket2,null,images/rocket2,NA,1,real,null,1,NA,NA,NA,sub107
d3-animate-choice,196,889277,0.0-76.0-1.20,FALSE,FALSE,FALSE,TRUE,"""event"",""trial"",""time""
""blur"",""5"",""16632""
""focus"",""5"",""20166""
""fullscreenenter"",""5"",""20268""
","""event"",""trial"",""time""
""blur"",""5"",""16632""
","""event"",""trial"",""time""
