trial_type,trial_index,time_elapsed,internal_node_id,rocket_sides,red_planet_first_rocket,red_display_order,purple_display_order,interactions,blur_events,focus_events,fullscreenenter_events,fullscreenexit_events,rt,stimulus,key_press,button_pressed,success,duration,valid_pressed,rts,keys,planet_text,right_text,left_text,center_text,chosen_text,reward_text,trial_stage,practice_trial,transition_type,choice,transition,reward,timestamp,subject_id
pavlovia,0,7,0.0-0.0,FALSE,FALSE,TRUE,FALSE,"
","
","
","
","
",NA,NA,NA,NA,NA,NA,NA,NA,NA,NA,NA,NA,NA,NA,NA,NA,NA,NA,NA,NA,NA,NA,sub130
html-keyboard-response,1,1866,0.0-1.0,FALSE,FALSE,TRUE,FALSE,"
","
","
","
","
",1858.2300000052783,Welcome! Press the space bar to begin.,32,NA,NA,NA,NA,NA,NA,NA,NA,NA,NA,NA,NA,NA,NA,NA,NA,NA,NA,NA,sub130
audio-keyboard-response,2,6277,0.0-2.0,FALSE,FALSE,TRUE,FALSE,"
","
","
","
","
",4309,audio/beep_loop.wav,32,NA,NA,NA,NA,NA,NA,NA,NA,NA,NA,NA,NA,NA,NA,NA,NA,NA,NA,NA,sub130
audio-button-response,3,8063,0.0-3.0,FALSE,FALSE,TRUE,FALSE,"
","
","
","
","
",NaN,audio/fish.mp3,NA,1,NA,NA,NA,NA,NA,NA,NA,NA,NA,NA,NA,NA,NA,NA,NA,NA,NA,NA,sub130
audio-button-response,4,10712,0.0-4.0,FALSE,FALSE,TRUE,FALSE,"""event"",""trial"",""time""
""fullscreenenter"",""5"",""14892""
","
","
","""event"",""trial"",""time""
""fullscreenenter"",""5"",""14892""
","
",NaN,audio/tiger.mp3,NA,4,NA,NA,NA,NA,NA,NA,NA,NA,NA,NA,NA,NA,NA,NA,NA,NA,NA,NA,sub130
fullscreen,5,15728,0.0-5.0,FALSE,FALSE,TRUE,FALSE,"""event"",""trial"",""time""
""fullscreenenter"",""5"",""14892""
","
","
","""event"",""trial"",""time""
""fullscreenenter"",""5"",""14892""
","
",NA,NA,NA,NA,TRUE,NA,NA,NA,NA,NA,NA,NA,NA,NA,NA,NA,NA,NA,NA,NA,NA,NA,sub130
d3-instructions,6,32137,0.0-6.0,FALSE,FALSE,TRUE,FALSE,"""event"",""trial"",""time""
""fullscreenenter"",""5"",""14892""
","
","
","""event"",""trial"",""time""
""fullscreenenter"",""5"",""14892""
","
",NA,NA,NA,NA,NA,NA,NA,NA,NA,NA,NA,NA,NA,NA,NA,NA,NA,NA,NA,NA,NA,NA,sub130
d3-instructions,7,45296,0.0-7.0,FALSE,FALSE,TRUE,FALSE,"""event"",""trial"",""time""
""fullscreenenter"",""5"",""14892""
","
","
","""event"",""trial"",""time""
""fullscreenenter"",""5"",""14892""
","
",NA,NA,NA,NA,NA,NA,NA,NA,NA,NA,NA,NA,NA,NA,NA,NA,NA,NA,NA,NA,NA,NA,sub130
d3-instructions,8,53839,0.0-8.0,FALSE,FALSE,TRUE,FALSE,"""event"",""trial"",""time""
""fullscreenenter"",""5"",""14892""
","
","
","""event"",""trial"",""time""
""fullscreenenter"",""5"",""14892""
","
",NA,NA,NA,NA,NA,NA,NA,NA,NA,NA,NA,NA,NA,NA,NA,NA,NA,NA,NA,NA,NA,NA,sub130
d3-instructions,9,66528,0.0-9.0,FALSE,FALSE,TRUE,FALSE,"""event"",""trial"",""time""
""fullscreenenter"",""5"",""14892""
","
","
","""event"",""trial"",""time""
""fullscreenenter"",""5"",""14892""
","
",NA,NA,NA,NA,NA,NA,NA,NA,NA,NA,NA,NA,NA,NA,NA,NA,NA,NA,NA,NA,NA,NA,sub130
d3-instructions,10,92444,0.0-10.0,FALSE,FALSE,TRUE,FALSE,"""event"",""trial"",""time""
""fullscreenenter"",""5"",""14892""
","
","
","""event"",""trial"",""time""
""fullscreenenter"",""5"",""14892""
","
",NA,NA,NA,NA,NA,NA,NA,NA,NA,NA,NA,NA,NA,NA,NA,NA,NA,NA,NA,NA,NA,NA,sub130
d3-animate-choice,11,95770,0.0-11.0,FALSE,FALSE,TRUE,FALSE,"""event"",""trial"",""time""
""fullscreenenter"",""5"",""14892""
","
","
","""event"",""trial"",""time""
""fullscreenenter"",""5"",""14892""
","
",1315.7099999953061,NA,49,NA,NA,3000,1,"1986.9649999964167,2961.3400000016554",4849,images/tutgreenplanet.jpg,images/tutalien1,images/tutalien2,null,images/tutalien2,NA,NA,practice,null,NA,NA,NA,NA,sub130
d3-animate-choice,12,98811,0.0-12.0,FALSE,FALSE,TRUE,FALSE,"""event"",""trial"",""time""
""fullscreenenter"",""5"",""14892""
","
","
","""event"",""trial"",""time""
""fullscreenenter"",""5"",""14892""
","
",1025.3349999984493,NA,48,NA,NA,3000,1,NA,NA,images/tutgreenplanet.jpg,images/tutalien1,images/tutalien2,null,images/tutalien1,NA,NA,practice,null,NA,NA,NA,NA,sub130
d3-animate-choice,13,101191,0.0-13.0,FALSE,FALSE,TRUE,FALSE,"""event"",""trial"",""time""
""fullscreenenter"",""5"",""14892""
","
","
","""event"",""trial"",""time""
""fullscreenenter"",""5"",""14892""
","
",359.1599999999744,NA,49,NA,NA,3000,1,NA,NA,images/tutgreenplanet.jpg,images/tutalien1,images/tutalien2,null,images/tutalien2,NA,NA,practice,null,NA,NA,NA,NA,sub130
d3-animate-choice,14,103516,0.0-14.0,FALSE,FALSE,TRUE,FALSE,"""event"",""trial"",""time""
""fullscreenenter"",""5"",""14892""
","
","
","""event"",""trial"",""time""
""fullscreenenter"",""5"",""14892""
","
",321.44500000140397,NA,48,NA,NA,3000,1,NA,NA,images/tutgreenplanet.jpg,images/tutalien1,images/tutalien2,null,images/tutalien1,NA,NA,practice,null,NA,NA,NA,NA,sub130
d3-instructions,15,111005,0.0-15.0,FALSE,FALSE,TRUE,FALSE,"""event"",""trial"",""time""
""fullscreenenter"",""5"",""14892""
","
","
","""event"",""trial"",""time""
""fullscreenenter"",""5"",""14892""
","
",NA,NA,NA,NA,NA,NA,NA,NA,NA,NA,NA,NA,NA,NA,NA,NA,NA,NA,NA,NA,NA,NA,sub130
d3-instructions,16,119368,0.0-16.0,FALSE,FALSE,TRUE,FALSE,"""event"",""trial"",""time""
""fullscreenenter"",""5"",""14892""
","
","
","""event"",""trial"",""time""
""fullscreenenter"",""5"",""14892""
","
",NA,NA,NA,NA,NA,NA,NA,NA,NA,NA,NA,NA,NA,NA,NA,NA,NA,NA,NA,NA,NA,NA,sub130
d3-instructions,17,129912,0.0-17.0,FALSE,FALSE,TRUE,FALSE,"""event"",""trial"",""time""
""fullscreenenter"",""5"",""14892""
","
","
","""event"",""trial"",""time""
""fullscreenenter"",""5"",""14892""
","
",NA,NA,NA,NA,NA,NA,NA,NA,NA,NA,NA,NA,NA,NA,NA,NA,NA,NA,NA,NA,NA,NA,sub130
d3-instructions,18,145122,0.0-18.0,FALSE,FALSE,TRUE,FALSE,"""event"",""trial"",""time""
""fullscreenenter"",""5"",""14892""
","
","
","""event"",""trial"",""time""
""fullscreenenter"",""5"",""14892""
","
",NA,NA,NA,NA,NA,NA,NA,NA,NA,NA,NA,NA,NA,NA,NA,NA,NA,NA,NA,NA,NA,NA,sub130
d3-instructions,19,160113,0.0-19.0,FALSE,FALSE,TRUE,FALSE,"""event"",""trial"",""time""
""fullscreenenter"",""5"",""14892""
","
","
","""event"",""trial"",""time""
""fullscreenenter"",""5"",""14892""
","
",NA,NA,NA,NA,NA,NA,NA,NA,NA,NA,NA,NA,NA,NA,NA,NA,NA,NA,NA,NA,NA,NA,sub130
d3-animate-choice,20,162881,0.0-20.0,FALSE,FALSE,TRUE,FALSE,"""event"",""trial"",""time""
""fullscreenenter"",""5"",""14892""
","
","
","""event"",""trial"",""time""
""fullscreenenter"",""5"",""14892""
","
",754.4199999974808,NA,49,NA,NA,3000,1,NA,NA,images/tutyellowplanet.jpg,null,images/tutalien3,null,images/tutalien3,images/t.png,NA,practice,null,NA,NA,NA,NA,sub130
d3-animate-choice,21,165020,0.0-21.0,FALSE,FALSE,TRUE,FALSE,"""event"",""trial"",""time""
""fullscreenenter"",""5"",""14892""
","
","
","""event"",""trial"",""time""
""fullscreenenter"",""5"",""14892""
","
",123.37500000285218,NA,49,NA,NA,3000,1,NA,NA,images/tutyellowplanet.jpg,null,images/tutalien3,null,images/tutalien3,images/t.png,NA,practice,null,NA,NA,NA,NA,sub130
d3-animate-choice,22,167463,0.0-22.0,FALSE,FALSE,TRUE,FALSE,"""event"",""trial"",""time""
""fullscreenenter"",""5"",""14892""
","
","
","""event"",""trial"",""time""
""fullscreenenter"",""5"",""14892""
","
",438.945000001695,NA,49,NA,NA,3000,1,NA,NA,images/tutyellowplanet.jpg,null,images/tutalien3,null,images/tutalien3,images/t.png,NA,practice,null,NA,NA,NA,NA,sub130
d3-animate-choice,23,169820,0.0-23.0,FALSE,FALSE,TRUE,FALSE,"""event"",""trial"",""time""
""fullscreenenter"",""5"",""14892""
","
","
","""event"",""trial"",""time""
""fullscreenenter"",""5"",""14892""
","
",340.5899999997928,NA,49,NA,NA,3000,1,NA,NA,images/tutyellowplanet.jpg,null,images/tutalien3,null,images/tutalien3,images/t.png,NA,practice,null,NA,NA,NA,NA,sub130
d3-animate-choice,24,172240,0.0-24.0,FALSE,FALSE,TRUE,FALSE,"""event"",""trial"",""time""
""fullscreenenter"",""5"",""14892""
","
","
","""event"",""trial"",""time""
""fullscreenenter"",""5"",""14892""
","
",405.91000000131316,NA,49,NA,NA,3000,1,NA,NA,images/tutyellowplanet.jpg,null,images/tutalien3,null,images/tutalien3,images/t.png,NA,practice,null,NA,NA,NA,NA,sub130
d3-animate-choice,25,174510,0.0-25.0,FALSE,FALSE,TRUE,FALSE,"""event"",""trial"",""time""
""fullscreenenter"",""5"",""14892""
","
","
","""event"",""trial"",""time""
""fullscreenenter"",""5"",""14892""
","
",259.2850000000908,NA,49,NA,NA,3000,1,NA,NA,images/tutyellowplanet.jpg,null,images/tutalien3,null,images/tutalien3,images/nothing.png,NA,practice,null,NA,NA,NA,NA,sub130
d3-animate-choice,26,177850,0.0-26.0,FALSE,FALSE,TRUE,FALSE,"""event"",""trial"",""time""
""fullscreenenter"",""5"",""14892""
","
","
","""event"",""trial"",""time""
""fullscreenenter"",""5"",""14892""
","
",1322.939999998198,NA,49,NA,NA,3000,1,NA,NA,images/tutyellowplanet.jpg,null,images/tutalien3,null,images/tutalien3,images/nothing.png,NA,practice,null,NA,NA,NA,NA,sub130
d3-animate-choice,27,180261,0.0-27.0,FALSE,FALSE,TRUE,FALSE,"""event"",""trial"",""time""
""fullscreenenter"",""5"",""14892""
","
","
","""event"",""trial"",""time""
""fullscreenenter"",""5"",""14892""
","
",405.25500000512693,NA,49,NA,NA,3000,1,NA,NA,images/tutyellowplanet.jpg,null,images/tutalien3,null,images/tutalien3,images/t.png,NA,practice,null,NA,NA,NA,NA,sub130
d3-animate-choice,28,182604,0.0-28.0,FALSE,FALSE,TRUE,FALSE,"""event"",""trial"",""time""
""fullscreenenter"",""5"",""14892""
","
","
","""event"",""trial"",""time""
""fullscreenenter"",""5"",""14892""
","
",339.8550000056275,NA,49,NA,NA,3000,1,NA,NA,images/tutyellowplanet.jpg,null,images/tutalien3,null,images/tutalien3,images/t.png,NA,practice,null,NA,NA,NA,NA,sub130
d3-animate-choice,29,184978,0.0-29.0,FALSE,FALSE,TRUE,FALSE,"""event"",""trial"",""time""
""fullscreenenter"",""5"",""14892""
","
","
","""event"",""trial"",""time""
""fullscreenenter"",""5"",""14892""
","
",371.27999999938766,NA,49,NA,NA,3000,1,NA,NA,images/tutyellowplanet.jpg,null,images/tutalien3,null,images/tutalien3,images/t.png,NA,practice,null,NA,NA,NA,NA,sub130
d3-instructions,30,192015,0.0-30.0,FALSE,FALSE,TRUE,FALSE,"""event"",""trial"",""time""
""fullscreenenter"",""5"",""14892""
","
","
","""event"",""trial"",""time""
""fullscreenenter"",""5"",""14892""
","
",NA,NA,NA,NA,NA,NA,NA,NA,NA,NA,NA,NA,NA,NA,NA,NA,NA,NA,NA,NA,NA,NA,sub130
d3-instructions,31,205059,0.0-31.0,FALSE,FALSE,TRUE,FALSE,"""event"",""trial"",""time""
""fullscreenenter"",""5"",""14892""
","
","
","""event"",""trial"",""time""
""fullscreenenter"",""5"",""14892""
","
",NA,NA,NA,NA,NA,NA,NA,NA,NA,NA,NA,NA,NA,NA,NA,NA,NA,NA,NA,NA,NA,NA,sub130
d3-instructions,32,213449,0.0-32.0,FALSE,FALSE,TRUE,FALSE,"""event"",""trial"",""time""
""fullscreenenter"",""5"",""14892""
","
","
","""event"",""trial"",""time""
""fullscreenenter"",""5"",""14892""
","
",NA,NA,NA,NA,NA,NA,NA,NA,NA,NA,NA,NA,NA,NA,NA,NA,NA,NA,NA,NA,NA,NA,sub130
d3-instructions,33,226789,0.0-33.0,FALSE,FALSE,TRUE,FALSE,"""event"",""trial"",""time""
""fullscreenenter"",""5"",""14892""
","
","
","""event"",""trial"",""time""
""fullscreenenter"",""5"",""14892""
","
",NA,NA,NA,NA,NA,NA,NA,NA,NA,NA,NA,NA,NA,NA,NA,NA,NA,NA,NA,NA,NA,NA,sub130
d3-animate-choice,34,231300,0.0-34.0,FALSE,FALSE,TRUE,FALSE,"""event"",""trial"",""time""
""fullscreenenter"",""5"",""14892""
","
","
","""event"",""trial"",""time""
""fullscreenenter"",""5"",""14892""
","
",2508.255000000645,NA,49,NA,NA,3000,1,NA,NA,images/tutgreenplanet.jpg,images/tutalien1,images/tutalien2,null,images/tutalien2,images/t.png,NA,practice,null,NA,NA,NA,NA,sub130
d3-animate-choice,35,235913,0.0-35.0,FALSE,FALSE,TRUE,FALSE,"""event"",""trial"",""time""
""fullscreenenter"",""5"",""14892""
","
","
","""event"",""trial"",""time""
""fullscreenenter"",""5"",""14892""
","
",2609.635000000708,NA,48,NA,NA,3000,1,NA,NA,images/tutgreenplanet.jpg,images/tutalien1,images/tutalien2,null,images/tutalien1,images/nothing.png,NA,practice,null,NA,NA,NA,NA,sub130
d3-animate-choice,36,239613,0.0-36.0,FALSE,FALSE,TRUE,FALSE,"""event"",""trial"",""time""
""fullscreenenter"",""5"",""14892""
","
","
","""event"",""trial"",""time""
""fullscreenenter"",""5"",""14892""
","
",1697.4150000023656,NA,49,NA,NA,3000,1,NA,NA,images/tutgreenplanet.jpg,images/tutalien1,images/tutalien2,null,images/tutalien2,images/t.png,NA,practice,null,NA,NA,NA,NA,sub130
d3-animate-choice,37,242600,0.0-37.0,FALSE,FALSE,TRUE,FALSE,"""event"",""trial"",""time""
""fullscreenenter"",""5"",""14892""
","
","
","""event"",""trial"",""time""
""fullscreenenter"",""5"",""14892""
","
",979.5499999963795,NA,49,NA,NA,3000,1,NA,NA,images/tutgreenplanet.jpg,images/tutalien1,images/tutalien2,null,images/tutalien2,images/t.png,NA,practice,null,NA,NA,NA,NA,sub130
d3-animate-choice,38,245385,0.0-38.0,FALSE,FALSE,TRUE,FALSE,"""event"",""trial"",""time""
""fullscreenenter"",""5"",""14892""
","
","
","""event"",""trial"",""time""
""fullscreenenter"",""5"",""14892""
","
",782.0150000043213,NA,49,NA,NA,3000,1,NA,NA,images/tutgreenplanet.jpg,images/tutalien1,images/tutalien2,null,images/tutalien2,images/t.png,NA,practice,null,NA,NA,NA,NA,sub130
d3-animate-choice,39,248196,0.0-39.0,FALSE,FALSE,TRUE,FALSE,"""event"",""trial"",""time""
""fullscreenenter"",""5"",""14892""
","
","
","""event"",""trial"",""time""
""fullscreenenter"",""5"",""14892""
","
",805.8000000019092,NA,49,NA,NA,3000,1,NA,NA,images/tutgreenplanet.jpg,images/tutalien1,images/tutalien2,null,images/tutalien2,images/t.png,NA,practice,null,NA,NA,NA,NA,sub130
d3-animate-choice,40,250950,0.0-40.0,FALSE,FALSE,TRUE,FALSE,"""event"",""trial"",""time""
""fullscreenenter"",""5"",""14892""
","
","
","""event"",""trial"",""time""
""fullscreenenter"",""5"",""14892""
","
",745.3699999969103,NA,49,NA,NA,3000,1,NA,NA,images/tutgreenplanet.jpg,images/tutalien1,images/tutalien2,null,images/tutalien2,images/nothing.png,NA,practice,null,NA,NA,NA,NA,sub130
d3-animate-choice,41,253893,0.0-41.0,FALSE,FALSE,TRUE,FALSE,"""event"",""trial"",""time""
""fullscreenenter"",""5"",""14892""
","
","
","""event"",""trial"",""time""
""fullscreenenter"",""5"",""14892""
","
",937.9449999978533,NA,48,NA,NA,3000,1,NA,NA,images/tutgreenplanet.jpg,images/tutalien1,images/tutalien2,null,images/tutalien1,images/nothing.png,NA,practice,null,NA,NA,NA,NA,sub130
d3-animate-choice,42,257041,0.0-42.0,FALSE,FALSE,TRUE,FALSE,"""event"",""trial"",""time""
""fullscreenenter"",""5"",""14892""
","
","
","""event"",""trial"",""time""
""fullscreenenter"",""5"",""14892""
","
",1144.365000000107,NA,49,NA,NA,3000,1,NA,NA,images/tutgreenplanet.jpg,images/tutalien1,images/tutalien2,null,images/tutalien2,images/t.png,NA,practice,null,NA,NA,NA,NA,sub130
d3-animate-choice,43,259635,0.0-43.0,FALSE,FALSE,TRUE,FALSE,"""event"",""trial"",""time""
""fullscreenenter"",""5"",""14892""
","
","
","""event"",""trial"",""time""
""fullscreenenter"",""5"",""14892""
","
",590.7749999969383,NA,49,NA,NA,3000,1,NA,NA,images/tutgreenplanet.jpg,images/tutalien1,images/tutalien2,null,images/tutalien2,images/t.png,NA,practice,null,NA,NA,NA,NA,sub130
d3-instructions,44,274811,0.0-44.0,FALSE,FALSE,TRUE,FALSE,"""event"",""trial"",""time""
""fullscreenenter"",""5"",""14892""
","
","
","""event"",""trial"",""time""
""fullscreenenter"",""5"",""14892""
","
",NA,NA,NA,NA,NA,NA,NA,NA,NA,NA,NA,NA,NA,NA,NA,NA,NA,NA,NA,NA,NA,NA,sub130
d3-instructions,45,282456,0.0-45.0,FALSE,FALSE,TRUE,FALSE,"""event"",""trial"",""time""
""fullscreenenter"",""5"",""14892""
","
","
","""event"",""trial"",""time""
""fullscreenenter"",""5"",""14892""
","
",NA,NA,NA,NA,NA,NA,NA,NA,NA,NA,NA,NA,NA,NA,NA,NA,NA,NA,NA,NA,NA,NA,sub130
d3-instructions,46,289150,0.0-46.0,FALSE,FALSE,TRUE,FALSE,"""event"",""trial"",""time""
""fullscreenenter"",""5"",""14892""
","
","
","""event"",""trial"",""time""
""fullscreenenter"",""5"",""14892""
","
",NA,NA,NA,NA,NA,NA,NA,NA,NA,NA,NA,NA,NA,NA,NA,NA,NA,NA,NA,NA,NA,NA,sub130
d3-instructions,47,311675,0.0-47.0,FALSE,FALSE,TRUE,FALSE,"""event"",""trial"",""time""
""fullscreenenter"",""5"",""14892""
","
","
","""event"",""trial"",""time""
""fullscreenenter"",""5"",""14892""
","
",NA,NA,NA,NA,NA,NA,NA,NA,NA,NA,NA,NA,NA,NA,NA,NA,NA,NA,NA,NA,NA,NA,sub130
d3-instructions,48,320002,0.0-48.0,FALSE,FALSE,TRUE,FALSE,"""event"",""trial"",""time""
""fullscreenenter"",""5"",""14892""
","
","
","""event"",""trial"",""time""
""fullscreenenter"",""5"",""14892""
","
",NA,NA,NA,NA,NA,NA,NA,NA,NA,NA,NA,NA,NA,NA,NA,NA,NA,NA,NA,NA,NA,NA,sub130
d3-instructions,49,331385,0.0-49.0,FALSE,FALSE,TRUE,FALSE,"""event"",""trial"",""time""
""fullscreenenter"",""5"",""14892""
","
","
","""event"",""trial"",""time""
""fullscreenenter"",""5"",""14892""
","
",NA,NA,NA,NA,NA,NA,NA,NA,NA,NA,NA,NA,NA,NA,NA,NA,NA,NA,NA,NA,NA,NA,sub130
d3-instructions,50,341462,0.0-50.0,FALSE,FALSE,TRUE,FALSE,"""event"",""trial"",""time""
""fullscreenenter"",""5"",""14892""
","
","
","""event"",""trial"",""time""
""fullscreenenter"",""5"",""14892""
","
",NA,NA,NA,NA,NA,NA,NA,NA,NA,NA,NA,NA,NA,NA,NA,NA,NA,NA,NA,NA,NA,NA,sub130
d3-instructions,51,345347,0.0-51.0,FALSE,FALSE,TRUE,FALSE,"""event"",""trial"",""time""
""fullscreenenter"",""5"",""14892""
","
","
","""event"",""trial"",""time""
""fullscreenenter"",""5"",""14892""
","
",NA,NA,NA,NA,NA,NA,NA,NA,NA,NA,NA,NA,NA,NA,NA,NA,NA,NA,NA,NA,NA,NA,sub130
d3-instructions,52,347662,0.0-52.0,FALSE,FALSE,TRUE,FALSE,"""event"",""trial"",""time""
""fullscreenenter"",""5"",""14892""
","
","
","""event"",""trial"",""time""
""fullscreenenter"",""5"",""14892""
","
",NA,NA,NA,NA,NA,NA,NA,NA,NA,NA,NA,NA,NA,NA,NA,NA,NA,NA,NA,NA,NA,NA,sub130
d3-instructions,53,362331,0.0-53.0,FALSE,FALSE,TRUE,FALSE,"""event"",""trial"",""time""
""fullscreenenter"",""5"",""14892""
","
","
","""event"",""trial"",""time""
""fullscreenenter"",""5"",""14892""
","
",NA,NA,NA,NA,NA,NA,NA,NA,NA,NA,NA,NA,NA,NA,NA,NA,NA,NA,NA,NA,NA,NA,sub130
d3-instructions,54,377079,0.0-54.0,FALSE,FALSE,TRUE,FALSE,"""event"",""trial"",""time""
""fullscreenenter"",""5"",""14892""
","
","
","""event"",""trial"",""time""
""fullscreenenter"",""5"",""14892""
","
",NA,NA,NA,NA,NA,NA,NA,NA,NA,NA,NA,NA,NA,NA,NA,NA,NA,NA,NA,NA,NA,NA,sub130
d3-instructions,55,387210,0.0-55.0,FALSE,FALSE,TRUE,FALSE,"""event"",""trial"",""time""
""fullscreenenter"",""5"",""14892""
","
","
","""event"",""trial"",""time""
""fullscreenenter"",""5"",""14892""
","
",NA,NA,NA,NA,NA,NA,NA,NA,NA,NA,NA,NA,NA,NA,NA,NA,NA,NA,NA,NA,NA,NA,sub130
d3-instructions,56,397211,0.0-56.0,FALSE,FALSE,TRUE,FALSE,"""event"",""trial"",""time""
""fullscreenenter"",""5"",""14892""
","
","
","""event"",""trial"",""time""
""fullscreenenter"",""5"",""14892""
","
",NA,NA,NA,NA,NA,NA,NA,NA,NA,NA,NA,NA,NA,NA,NA,NA,NA,NA,NA,NA,NA,NA,sub130
d3-instructions,57,411654,0.0-57.0,FALSE,FALSE,TRUE,FALSE,"""event"",""trial"",""time""
""fullscreenenter"",""5"",""14892""
","
","
","""event"",""trial"",""time""
""fullscreenenter"",""5"",""14892""
","
",NA,NA,NA,NA,NA,NA,NA,NA,NA,NA,NA,NA,NA,NA,NA,NA,NA,NA,NA,NA,NA,NA,sub130
d3-instructions,58,427817,0.0-58.0,FALSE,FALSE,TRUE,FALSE,"""event"",""trial"",""time""
""fullscreenenter"",""5"",""14892""
","
","
","""event"",""trial"",""time""
""fullscreenenter"",""5"",""14892""
","
",NA,NA,NA,NA,NA,NA,NA,NA,NA,NA,NA,NA,NA,NA,NA,NA,NA,NA,NA,NA,NA,NA,sub130
d3-instructions,59,438541,0.0-59.0,FALSE,FALSE,TRUE,FALSE,"""event"",""trial"",""time""
""fullscreenenter"",""5"",""14892""
","
","
","""event"",""trial"",""time""
""fullscreenenter"",""5"",""14892""
","
",NA,NA,NA,NA,NA,NA,NA,NA,NA,NA,NA,NA,NA,NA,NA,NA,NA,NA,NA,NA,NA,NA,sub130
d3-instructions,60,449661,0.0-60.0,FALSE,FALSE,TRUE,FALSE,"""event"",""trial"",""time""
""fullscreenenter"",""5"",""14892""
","
","
","""event"",""trial"",""time""
""fullscreenenter"",""5"",""14892""
","
",NA,NA,NA,NA,NA,NA,NA,NA,NA,NA,NA,NA,NA,NA,NA,NA,NA,NA,NA,NA,NA,NA,sub130
d3-animate-choice,61,453675,0.0-61.0-0.0,FALSE,FALSE,TRUE,FALSE,"""event"",""trial"",""time""
""fullscreenenter"",""5"",""14892""
","
","
","""event"",""trial"",""time""
""fullscreenenter"",""5"",""14892""
","
",2082.4199999988195,NA,49,NA,NA,3000,1,NA,NA,images/earth.jpg,images/tutrocket1,images/tutrocket2,null,images/tutrocket2,NA,1,practice,null,1,NA,NA,NA,sub130
d3-animate-choice,62,457697,0.0-61.0-1.0,FALSE,FALSE,TRUE,FALSE,"""event"",""trial"",""time""
""fullscreenenter"",""5"",""14892""
","
","
","""event"",""trial"",""time""
""fullscreenenter"",""5"",""14892""
","
",2449.9250000008033,NA,49,NA,NA,3000,1,NA,NA,images/tutgreenplanet.jpg,images/tutalien2,images/tutalien1,images/tutrocket2,images/tutalien1,images/nothing.png,2,practice,true,1,common,0,2020-06-20T19:22:50Z,sub130
two-step-fixation,63,458703,0.0-61.0-2.0,FALSE,FALSE,TRUE,FALSE,"""event"",""trial"",""time""
""fullscreenenter"",""5"",""14892""
","
","
","""event"",""trial"",""time""
""fullscreenenter"",""5"",""14892""
","
",NA,images/earth.jpg,NA,NA,NA,NA,NA,NA,NA,NA,NA,NA,NA,NA,NA,fixation,NA,NA,NA,NA,NA,NA,sub130
d3-animate-choice,64,462706,0.0-61.0-0.1,FALSE,FALSE,TRUE,FALSE,"""event"",""trial"",""time""
""fullscreenenter"",""5"",""14892""
","
","
","""event"",""trial"",""time""
""fullscreenenter"",""5"",""14892""
","
",2319.1850000002887,NA,48,NA,NA,3000,1,NA,NA,images/earth.jpg,images/tutrocket1,images/tutrocket2,null,images/tutrocket1,NA,1,practice,null,2,NA,NA,NA,sub130
d3-animate-choice,65,466104,0.0-61.0-1.1,FALSE,FALSE,TRUE,FALSE,"""event"",""trial"",""time""
""fullscreenenter"",""5"",""14892""
","
","
","""event"",""trial"",""time""
""fullscreenenter"",""5"",""14892""
","
",1394.605000001262,NA,49,NA,NA,3000,1,NA,NA,images/tutyellowplanet.jpg,images/tutalien4,images/tutalien3,images/tutrocket1,images/tutalien3,images/nothing.png,2,practice,true,1,common,0,2020-06-20T19:22:59Z,sub130
two-step-fixation,66,467108,0.0-61.0-2.1,FALSE,FALSE,TRUE,FALSE,"""event"",""trial"",""time""
""fullscreenenter"",""5"",""14892""
","
","
","""event"",""trial"",""time""
""fullscreenenter"",""5"",""14892""
","
",NA,images/earth.jpg,NA,NA,NA,NA,NA,NA,NA,NA,NA,NA,NA,NA,NA,fixation,NA,NA,NA,NA,NA,NA,sub130
d3-animate-choice,67,470915,0.0-61.0-0.2,FALSE,FALSE,TRUE,FALSE,"""event"",""trial"",""time""
""fullscreenenter"",""5"",""14892""
","
","
","""event"",""trial"",""time""
""fullscreenenter"",""5"",""14892""
","
",1802.980000000447,NA,49,NA,NA,3000,1,NA,NA,images/earth.jpg,images/tutrocket1,images/tutrocket2,null,images/tutrocket2,NA,1,practice,null,1,NA,NA,NA,sub130
d3-animate-choice,68,473805,0.0-61.0-1.2,FALSE,FALSE,TRUE,FALSE,"""event"",""trial"",""time""
""fullscreenenter"",""5"",""14892""
","
","
","""event"",""trial"",""time""
""fullscreenenter"",""5"",""14892""
","
",885.0299999976996,NA,48,NA,NA,3000,1,NA,NA,images/tutgreenplanet.jpg,images/tutalien2,images/tutalien1,images/tutrocket2,images/tutalien2,images/nothing.png,2,practice,true,2,common,0,2020-06-20T19:23:06Z,sub130
two-step-fixation,69,474810,0.0-61.0-2.2,FALSE,FALSE,TRUE,FALSE,"""event"",""trial"",""time""
""fullscreenenter"",""5"",""14892""
","
","
","""event"",""trial"",""time""
""fullscreenenter"",""5"",""14892""
","
",NA,images/earth.jpg,NA,NA,NA,NA,NA,NA,NA,NA,NA,NA,NA,NA,NA,fixation,NA,NA,NA,NA,NA,NA,sub130
d3-animate-choice,70,478511,0.0-61.0-0.3,FALSE,FALSE,TRUE,FALSE,"""event"",""trial"",""time""
""fullscreenenter"",""5"",""14892""
","
","
","""event"",""trial"",""time""
""fullscreenenter"",""5"",""14892""
","
",1697.9849999989383,NA,48,NA,NA,3000,1,NA,NA,images/earth.jpg,images/tutrocket1,images/tutrocket2,null,images/tutrocket1,NA,1,practice,null,2,NA,NA,NA,sub130
d3-animate-choice,71,481289,0.0-61.0-1.3,FALSE,FALSE,TRUE,FALSE,"""event"",""trial"",""time""
""fullscreenenter"",""5"",""14892""
","
","
","""event"",""trial"",""time""
""fullscreenenter"",""5"",""14892""
","
",772.2800000046846,NA,48,NA,NA,3000,1,NA,NA,images/tutyellowplanet.jpg,images/tutalien4,images/tutalien3,images/tutrocket1,images/tutalien4,images/nothing.png,2,practice,true,2,common,0,2020-06-20T19:23:14Z,sub130
two-step-fixation,72,482294,0.0-61.0-2.3,FALSE,FALSE,TRUE,FALSE,"""event"",""trial"",""time""
""fullscreenenter"",""5"",""14892""
","
","
","""event"",""trial"",""time""
""fullscreenenter"",""5"",""14892""
","
",NA,images/earth.jpg,NA,NA,NA,NA,NA,NA,NA,NA,NA,NA,NA,NA,NA,fixation,NA,NA,NA,NA,NA,NA,sub130
d3-animate-choice,73,486299,0.0-61.0-0.4,FALSE,FALSE,TRUE,FALSE,"""event"",""trial"",""time""
""fullscreenenter"",""5"",""14892""
","
","
","""event"",""trial"",""time""
""fullscreenenter"",""5"",""14892""
","
",2251.1599999997998,NA,49,NA,NA,3000,1,NA,NA,images/earth.jpg,images/tutrocket1,images/tutrocket2,null,images/tutrocket2,NA,1,practice,null,1,NA,NA,NA,sub130
d3-animate-choice,74,489879,0.0-61.0-1.4,FALSE,FALSE,TRUE,FALSE,"""event"",""trial"",""time""
""fullscreenenter"",""5"",""14892""
","
","
","""event"",""trial"",""time""
""fullscreenenter"",""5"",""14892""
","
",1574.9400000059977,NA,49,NA,NA,3000,1,NA,NA,images/tutgreenplanet.jpg,images/tutalien2,images/tutalien1,images/tutrocket2,images/tutalien1,images/nothing.png,2,practice,true,1,common,0,2020-06-20T19:23:22Z,sub130
two-step-fixation,75,490883,0.0-61.0-2.4,FALSE,FALSE,TRUE,FALSE,"""event"",""trial"",""time""
""fullscreenenter"",""5"",""14892""
","
","
","""event"",""trial"",""time""
""fullscreenenter"",""5"",""14892""
","
",NA,images/earth.jpg,NA,NA,NA,NA,NA,NA,NA,NA,NA,NA,NA,NA,NA,fixation,NA,NA,NA,NA,NA,NA,sub130
d3-animate-choice,76,494452,0.0-61.0-0.5,FALSE,FALSE,TRUE,FALSE,"""event"",""trial"",""time""
""fullscreenenter"",""5"",""14892""
","
","
","""event"",""trial"",""time""
""fullscreenenter"",""5"",""14892""
","
",1564.8450000006706,NA,49,NA,NA,3000,1,NA,NA,images/earth.jpg,images/tutrocket1,images/tutrocket2,null,images/tutrocket2,NA,1,practice,null,1,NA,NA,NA,sub130
d3-animate-choice,77,498211,0.0-61.0-1.5,FALSE,FALSE,TRUE,FALSE,"""event"",""trial"",""time""
""fullscreenenter"",""5"",""14892""
","
","
","""event"",""trial"",""time""
""fullscreenenter"",""5"",""14892""
","
",1753.8999999960652,NA,48,NA,NA,3000,1,NA,NA,images/tutyellowplanet.jpg,images/tutalien4,images/tutalien3,images/tutrocket2,images/tutalien4,images/t.png,2,practice,false,2,rare,1,2020-06-20T19:23:31Z,sub130
two-step-fixation,78,499215,0.0-61.0-2.5,FALSE,FALSE,TRUE,FALSE,"""event"",""trial"",""time""
""fullscreenenter"",""5"",""14892""
","
","
","""event"",""trial"",""time""
""fullscreenenter"",""5"",""14892""
","
",NA,images/earth.jpg,NA,NA,NA,NA,NA,NA,NA,NA,NA,NA,NA,NA,NA,fixation,NA,NA,NA,NA,NA,NA,sub130
d3-animate-choice,79,503062,0.0-61.0-0.6,FALSE,FALSE,TRUE,FALSE,"""event"",""trial"",""time""
""fullscreenenter"",""5"",""14892""
","
","
","""event"",""trial"",""time""
""fullscreenenter"",""5"",""14892""
","
",1842.315000001574,NA,48,NA,NA,3000,1,NA,NA,images/earth.jpg,images/tutrocket1,images/tutrocket2,null,images/tutrocket1,NA,1,practice,null,2,NA,NA,NA,sub130
d3-animate-choice,80,506731,0.0-61.0-1.6,FALSE,FALSE,TRUE,FALSE,"""event"",""trial"",""time""
""fullscreenenter"",""5"",""14892""
","
","
","""event"",""trial"",""time""
""fullscreenenter"",""5"",""14892""
","
",1665.0100000042003,NA,48,NA,NA,3000,1,NA,NA,images/tutgreenplanet.jpg,images/tutalien2,images/tutalien1,images/tutrocket1,images/tutalien2,images/nothing.png,2,practice,false,2,rare,0,2020-06-20T19:23:39Z,sub130
two-step-fixation,81,507735,0.0-61.0-2.6,FALSE,FALSE,TRUE,FALSE,"""event"",""trial"",""time""
""fullscreenenter"",""5"",""14892""
","
","
","""event"",""trial"",""time""
""fullscreenenter"",""5"",""14892""
","
",NA,images/earth.jpg,NA,NA,NA,NA,NA,NA,NA,NA,NA,NA,NA,NA,NA,fixation,NA,NA,NA,NA,NA,NA,sub130
d3-animate-choice,82,510948,0.0-61.0-0.7,FALSE,FALSE,TRUE,FALSE,"""event"",""trial"",""time""
""fullscreenenter"",""5"",""14892""
","
","
","""event"",""trial"",""time""
""fullscreenenter"",""5"",""14892""
","
",1209.1600000058534,NA,48,NA,NA,3000,1,NA,NA,images/earth.jpg,images/tutrocket1,images/tutrocket2,null,images/tutrocket1,NA,1,practice,null,2,NA,NA,NA,sub130
d3-animate-choice,83,513831,0.0-61.0-1.7,FALSE,FALSE,TRUE,FALSE,"""event"",""trial"",""time""
""fullscreenenter"",""5"",""14892""
","
","
","""event"",""trial"",""time""
""fullscreenenter"",""5"",""14892""
","
",878.1450000023469,NA,48,NA,NA,3000,1,NA,NA,images/tutyellowplanet.jpg,images/tutalien4,images/tutalien3,images/tutrocket1,images/tutalien4,images/t.png,2,practice,true,2,common,1,2020-06-20T19:23:46Z,sub130
two-step-fixation,84,514835,0.0-61.0-2.7,FALSE,FALSE,TRUE,FALSE,"""event"",""trial"",""time""
""fullscreenenter"",""5"",""14892""
","
","
","""event"",""trial"",""time""
""fullscreenenter"",""5"",""14892""
","
",NA,images/earth.jpg,NA,NA,NA,NA,NA,NA,NA,NA,NA,NA,NA,NA,NA,fixation,NA,NA,NA,NA,NA,NA,sub130
d3-animate-choice,85,518112,0.0-61.0-0.8,FALSE,FALSE,TRUE,FALSE,"""event"",""trial"",""time""
""fullscreenenter"",""5"",""14892""
","
","
","""event"",""trial"",""time""
""fullscreenenter"",""5"",""14892""
","
",1272.1049999963725,NA,48,NA,NA,3000,1,NA,NA,images/earth.jpg,images/tutrocket1,images/tutrocket2,null,images/tutrocket1,NA,1,practice,null,2,NA,NA,NA,sub130
d3-animate-choice,86,521781,0.0-61.0-1.8,FALSE,FALSE,TRUE,FALSE,"""event"",""trial"",""time""
""fullscreenenter"",""5"",""14892""
","
","
","""event"",""trial"",""time""
""fullscreenenter"",""5"",""14892""
","
",1665.0850000005448,NA,48,NA,NA,3000,1,NA,NA,images/tutyellowplanet.jpg,images/tutalien4,images/tutalien3,images/tutrocket1,images/tutalien4,images/t.png,2,practice,true,2,common,1,2020-06-20T19:23:54Z,sub130
two-step-fixation,87,522784,0.0-61.0-2.8,FALSE,FALSE,TRUE,FALSE,"""event"",""trial"",""time""
""fullscreenenter"",""5"",""14892""
","
","
","""event"",""trial"",""time""
""fullscreenenter"",""5"",""14892""
","
",NA,images/earth.jpg,NA,NA,NA,NA,NA,NA,NA,NA,NA,NA,NA,NA,NA,fixation,NA,NA,NA,NA,NA,NA,sub130
d3-animate-choice,88,525197,0.0-61.0-0.9,FALSE,FALSE,TRUE,FALSE,"""event"",""trial"",""time""
""fullscreenenter"",""5"",""14892""
","
","
","""event"",""trial"",""time""
""fullscreenenter"",""5"",""14892""
","
",409.1599999956088,NA,48,NA,NA,3000,1,NA,NA,images/earth.jpg,images/tutrocket1,images/tutrocket2,null,images/tutrocket1,NA,1,practice,null,2,NA,NA,NA,sub130
d3-animate-choice,89,528031,0.0-61.0-1.9,FALSE,FALSE,TRUE,FALSE,"""event"",""trial"",""time""
""fullscreenenter"",""5"",""14892""
","
","
","""event"",""trial"",""time""
""fullscreenenter"",""5"",""14892""
","
",829.1749999989988,NA,48,NA,NA,3000,1,NA,NA,images/tutyellowplanet.jpg,images/tutalien4,images/tutalien3,images/tutrocket1,images/tutalien4,images/t.png,2,practice,true,2,common,1,2020-06-20T19:24:01Z,sub130
two-step-fixation,90,529034,0.0-61.0-2.9,FALSE,FALSE,TRUE,FALSE,"""event"",""trial"",""time""
""fullscreenenter"",""5"",""14892""
","
","
","""event"",""trial"",""time""
""fullscreenenter"",""5"",""14892""
","
",NA,images/earth.jpg,NA,NA,NA,NA,NA,NA,NA,NA,NA,NA,NA,NA,NA,fixation,NA,NA,NA,NA,NA,NA,sub130
d3-animate-choice,91,531375,0.0-61.0-0.10,FALSE,FALSE,TRUE,FALSE,"""event"",""trial"",""time""
""fullscreenenter"",""5"",""14892""
","
","
","""event"",""trial"",""time""
""fullscreenenter"",""5"",""14892""
","
",336.3199999949429,NA,48,NA,NA,3000,1,NA,NA,images/earth.jpg,images/tutrocket1,images/tutrocket2,null,images/tutrocket1,NA,1,practice,null,2,NA,NA,NA,sub130
d3-animate-choice,92,533864,0.0-61.0-1.10,FALSE,FALSE,TRUE,FALSE,"""event"",""trial"",""time""
""fullscreenenter"",""5"",""14892""
","
","
","""event"",""trial"",""time""
""fullscreenenter"",""5"",""14892""
","
",484.1450000022305,NA,48,NA,NA,3000,1,NA,NA,images/tutyellowplanet.jpg,images/tutalien4,images/tutalien3,images/tutrocket1,images/tutalien4,images/t.png,2,practice,true,2,common,1,2020-06-20T19:24:06Z,sub130
two-step-fixation,93,534868,0.0-61.0-2.10,FALSE,FALSE,TRUE,FALSE,"""event"",""trial"",""time""
""fullscreenenter"",""5"",""14892""
","
","
","""event"",""trial"",""time""
""fullscreenenter"",""5"",""14892""
","
",NA,images/earth.jpg,NA,NA,NA,NA,NA,NA,NA,NA,NA,NA,NA,NA,NA,fixation,NA,NA,NA,NA,NA,NA,sub130
d3-animate-choice,94,537184,0.0-61.0-0.11,FALSE,FALSE,TRUE,FALSE,"""event"",""trial"",""time""
""fullscreenenter"",""5"",""14892""
","
","
","""event"",""trial"",""time""
""fullscreenenter"",""5"",""14892""
","
",312.35000000020955,NA,48,NA,NA,3000,1,NA,NA,images/earth.jpg,images/tutrocket1,images/tutrocket2,null,images/tutrocket1,NA,1,practice,null,2,NA,NA,NA,sub130
d3-animate-choice,95,539553,0.0-61.0-1.11,FALSE,FALSE,TRUE,FALSE,"""event"",""trial"",""time""
""fullscreenenter"",""5"",""14892""
","
","
","""event"",""trial"",""time""
""fullscreenenter"",""5"",""14892""
","
",363.7250000028871,NA,48,NA,NA,3000,1,NA,NA,images/tutyellowplanet.jpg,images/tutalien4,images/tutalien3,images/tutrocket1,images/tutalien4,images/t.png,2,practice,true,2,common,1,2020-06-20T19:24:12Z,sub130
two-step-fixation,96,540557,0.0-61.0-2.11,FALSE,FALSE,TRUE,FALSE,"""event"",""trial"",""time""
""fullscreenenter"",""5"",""14892""
","
","
","""event"",""trial"",""time""
""fullscreenenter"",""5"",""14892""
","
",NA,images/earth.jpg,NA,NA,NA,NA,NA,NA,NA,NA,NA,NA,NA,NA,NA,fixation,NA,NA,NA,NA,NA,NA,sub130
d3-animate-choice,97,542901,0.0-61.0-0.12,FALSE,FALSE,TRUE,FALSE,"""event"",""trial"",""time""
""fullscreenenter"",""5"",""14892""
","
","
","""event"",""trial"",""time""
""fullscreenenter"",""5"",""14892""
","
",338.45000000298023,NA,48,NA,NA,3000,1,NA,NA,images/earth.jpg,images/tutrocket1,images/tutrocket2,null,images/tutrocket1,NA,1,practice,null,2,NA,NA,NA,sub130
d3-animate-choice,98,545233,0.0-61.0-1.12,FALSE,FALSE,TRUE,FALSE,"""event"",""trial"",""time""
""fullscreenenter"",""5"",""14892""
","
","
","""event"",""trial"",""time""
""fullscreenenter"",""5"",""14892""
","
",329.0550000020303,NA,48,NA,NA,3000,1,NA,NA,images/tutyellowplanet.jpg,images/tutalien4,images/tutalien3,images/tutrocket1,images/tutalien4,images/t.png,2,practice,true,2,common,1,2020-06-20T19:24:18Z,sub130
two-step-fixation,99,546237,0.0-61.0-2.12,FALSE,FALSE,TRUE,FALSE,"""event"",""trial"",""time""
""fullscreenenter"",""5"",""14892""
","
","
","""event"",""trial"",""time""
""fullscreenenter"",""5"",""14892""
","
",NA,images/earth.jpg,NA,NA,NA,NA,NA,NA,NA,NA,NA,NA,NA,NA,NA,fixation,NA,NA,NA,NA,NA,NA,sub130
d3-animate-choice,100,548521,0.0-61.0-0.13,FALSE,FALSE,TRUE,FALSE,"""event"",""trial"",""time""
""fullscreenenter"",""5"",""14892""
","
","
","""event"",""trial"",""time""
""fullscreenenter"",""5"",""14892""
","
",281.06499999563675,NA,48,NA,NA,3000,1,NA,NA,images/earth.jpg,images/tutrocket1,images/tutrocket2,null,images/tutrocket1,NA,1,practice,null,2,NA,NA,NA,sub130
d3-animate-choice,101,550794,0.0-61.0-1.13,FALSE,FALSE,TRUE,FALSE,"""event"",""trial"",""time""
""fullscreenenter"",""5"",""14892""
","
","
","""event"",""trial"",""time""
""fullscreenenter"",""5"",""14892""
","
",268.5549999951618,NA,48,NA,NA,3000,1,NA,NA,images/tutgreenplanet.jpg,images/tutalien2,images/tutalien1,images/tutrocket1,images/tutalien2,images/nothing.png,2,practice,false,2,rare,0,2020-06-20T19:24:23Z,sub130
two-step-fixation,102,551798,0.0-61.0-2.13,FALSE,FALSE,TRUE,FALSE,"""event"",""trial"",""time""
""fullscreenenter"",""5"",""14892""
","
","
","""event"",""trial"",""time""
""fullscreenenter"",""5"",""14892""
","
",NA,images/earth.jpg,NA,NA,NA,NA,NA,NA,NA,NA,NA,NA,NA,NA,NA,fixation,NA,NA,NA,NA,NA,NA,sub130
d3-animate-choice,103,554370,0.0-61.0-0.14,FALSE,FALSE,TRUE,FALSE,"""event"",""trial"",""time""
""fullscreenenter"",""5"",""14892""
","
","
","""event"",""trial"",""time""
""fullscreenenter"",""5"",""14892""
","
",567.4900000011548,NA,48,NA,NA,3000,1,NA,NA,images/earth.jpg,images/tutrocket1,images/tutrocket2,null,images/tutrocket1,NA,1,practice,null,2,NA,NA,NA,sub130
d3-animate-choice,104,556914,0.0-61.0-1.14,FALSE,FALSE,TRUE,FALSE,"""event"",""trial"",""time""
""fullscreenenter"",""5"",""14892""
","
","
","""event"",""trial"",""time""
""fullscreenenter"",""5"",""14892""
","
",540.5849999951897,NA,48,NA,NA,3000,1,NA,NA,images/tutyellowplanet.jpg,images/tutalien4,images/tutalien3,images/tutrocket1,images/tutalien4,images/t.png,2,practice,true,2,common,1,2020-06-20T19:24:30Z,sub130
two-step-fixation,105,557918,0.0-61.0-2.14,FALSE,FALSE,TRUE,FALSE,"""event"",""trial"",""time""
""fullscreenenter"",""5"",""14892""
","
","
","""event"",""trial"",""time""
""fullscreenenter"",""5"",""14892""
","
",NA,images/earth.jpg,NA,NA,NA,NA,NA,NA,NA,NA,NA,NA,NA,NA,NA,fixation,NA,NA,NA,NA,NA,NA,sub130
d3-animate-choice,106,560377,0.0-61.0-0.15,FALSE,FALSE,TRUE,FALSE,"""event"",""trial"",""time""
""fullscreenenter"",""5"",""14892""
","
","
","""event"",""trial"",""time""
""fullscreenenter"",""5"",""14892""
","
",454.8849999993108,NA,48,NA,NA,3000,1,NA,NA,images/earth.jpg,images/tutrocket1,images/tutrocket2,null,images/tutrocket1,NA,1,practice,null,2,NA,NA,NA,sub130
d3-animate-choice,107,563473,0.0-61.0-1.15,FALSE,FALSE,TRUE,FALSE,"""event"",""trial"",""time""
""fullscreenenter"",""5"",""14892""
","
","
","""event"",""trial"",""time""
""fullscreenenter"",""5"",""14892""
","
",1092.3299999994924,NA,49,NA,NA,3000,1,NA,NA,images/tutgreenplanet.jpg,images/tutalien2,images/tutalien1,images/tutrocket1,images/tutalien1,images/nothing.png,2,practice,false,1,rare,0,2020-06-20T19:24:36Z,sub130
two-step-fixation,108,564477,0.0-61.0-2.15,FALSE,FALSE,TRUE,FALSE,"""event"",""trial"",""time""
""fullscreenenter"",""5"",""14892""
","
","
","""event"",""trial"",""time""
""fullscreenenter"",""5"",""14892""
","
",NA,images/earth.jpg,NA,NA,NA,NA,NA,NA,NA,NA,NA,NA,NA,NA,NA,fixation,NA,NA,NA,NA,NA,NA,sub130
d3-animate-choice,109,566886,0.0-61.0-0.16,FALSE,FALSE,TRUE,FALSE,"""event"",""trial"",""time""
""fullscreenenter"",""5"",""14892""
","
","
","""event"",""trial"",""time""
""fullscreenenter"",""5"",""14892""
","
",404.3600000005681,NA,48,NA,NA,3000,1,NA,NA,images/earth.jpg,images/tutrocket1,images/tutrocket2,null,images/tutrocket1,NA,1,practice,null,2,NA,NA,NA,sub130
d3-animate-choice,110,569266,0.0-61.0-1.16,FALSE,FALSE,TRUE,FALSE,"""event"",""trial"",""time""
""fullscreenenter"",""5"",""14892""
","
","
","""event"",""trial"",""time""
""fullscreenenter"",""5"",""14892""
","
",375.23499999940395,NA,48,NA,NA,3000,1,NA,NA,images/tutyellowplanet.jpg,images/tutalien4,images/tutalien3,images/tutrocket1,images/tutalien4,images/t.png,2,practice,true,2,common,1,2020-06-20T19:24:42Z,sub130
two-step-fixation,111,570271,0.0-61.0-2.16,FALSE,FALSE,TRUE,FALSE,"""event"",""trial"",""time""
""fullscreenenter"",""5"",""14892""
","
","
","""event"",""trial"",""time""
""fullscreenenter"",""5"",""14892""
","
",NA,images/earth.jpg,NA,NA,NA,NA,NA,NA,NA,NA,NA,NA,NA,NA,NA,fixation,NA,NA,NA,NA,NA,NA,sub130
d3-animate-choice,112,572646,0.0-61.0-0.17,FALSE,FALSE,TRUE,FALSE,"""event"",""trial"",""time""
""fullscreenenter"",""5"",""14892""
","
","
","""event"",""trial"",""time""
""fullscreenenter"",""5"",""14892""
","
",370.36000000080094,NA,48,NA,NA,3000,1,NA,NA,images/earth.jpg,images/tutrocket1,images/tutrocket2,null,images/tutrocket1,NA,1,practice,null,2,NA,NA,NA,sub130
d3-animate-choice,113,575308,0.0-61.0-1.17,FALSE,FALSE,TRUE,FALSE,"""event"",""trial"",""time""
""fullscreenenter"",""5"",""14892""
","
","
","""event"",""trial"",""time""
""fullscreenenter"",""5"",""14892""
","
",659.2499999969732,NA,48,NA,NA,3000,1,NA,NA,images/tutyellowplanet.jpg,images/tutalien4,images/tutalien3,images/tutrocket1,images/tutalien4,images/t.png,2,practice,true,2,common,1,2020-06-20T19:24:48Z,sub130
two-step-fixation,114,576312,0.0-61.0-2.17,FALSE,FALSE,TRUE,FALSE,"""event"",""trial"",""time""
""fullscreenenter"",""5"",""14892""
","
","
","""event"",""trial"",""time""
""fullscreenenter"",""5"",""14892""
","
",NA,images/earth.jpg,NA,NA,NA,NA,NA,NA,NA,NA,NA,NA,NA,NA,NA,fixation,NA,NA,NA,NA,NA,NA,sub130
d3-animate-choice,115,578738,0.0-61.0-0.18,FALSE,FALSE,TRUE,FALSE,"""event"",""trial"",""time""
""fullscreenenter"",""5"",""14892""
","
","
","""event"",""trial"",""time""
""fullscreenenter"",""5"",""14892""
","
",420.6950000007637,NA,48,NA,NA,3000,1,NA,NA,images/earth.jpg,images/tutrocket1,images/tutrocket2,null,images/tutrocket1,NA,1,practice,null,2,NA,NA,NA,sub130
d3-animate-choice,116,581310,0.0-61.0-1.18,FALSE,FALSE,TRUE,FALSE,"""event"",""trial"",""time""
""fullscreenenter"",""5"",""14892""
","
","
","""event"",""trial"",""time""
""fullscreenenter"",""5"",""14892""
","
",568.690000000177,NA,48,NA,NA,3000,1,NA,NA,images/tutgreenplanet.jpg,images/tutalien2,images/tutalien1,images/tutrocket1,images/tutalien2,images/t.png,2,practice,false,2,rare,1,2020-06-20T19:24:54Z,sub130
two-step-fixation,117,582314,0.0-61.0-2.18,FALSE,FALSE,TRUE,FALSE,"""event"",""trial"",""time""
""fullscreenenter"",""5"",""14892""
","
","
","""event"",""trial"",""time""
""fullscreenenter"",""5"",""14892""
","
",NA,images/earth.jpg,NA,NA,NA,NA,NA,NA,NA,NA,NA,NA,NA,NA,NA,fixation,NA,NA,NA,NA,NA,NA,sub130
d3-animate-choice,118,584751,0.0-61.0-0.19,FALSE,FALSE,TRUE,FALSE,"""event"",""trial"",""time""
""fullscreenenter"",""5"",""14892""
","
","
","""event"",""trial"",""time""
""fullscreenenter"",""5"",""14892""
","
",432.07499999704305,NA,48,NA,NA,3000,1,NA,NA,images/earth.jpg,images/tutrocket1,images/tutrocket2,null,images/tutrocket1,NA,1,practice,null,2,NA,NA,NA,sub130
d3-animate-choice,119,587509,0.0-61.0-1.19,FALSE,FALSE,TRUE,FALSE,"""event"",""trial"",""time""
""fullscreenenter"",""5"",""14892""
","
","
","""event"",""trial"",""time""
""fullscreenenter"",""5"",""14892""
","
",754.2099999991478,NA,48,NA,NA,3000,1,NA,NA,images/tutyellowplanet.jpg,images/tutalien4,images/tutalien3,images/tutrocket1,images/tutalien4,images/nothing.png,2,practice,true,2,common,0,2020-06-20T19:25:00Z,sub130
two-step-fixation,120,588512,0.0-61.0-2.19,FALSE,FALSE,TRUE,FALSE,"""event"",""trial"",""time""
""fullscreenenter"",""5"",""14892""
","
","
","""event"",""trial"",""time""
""fullscreenenter"",""5"",""14892""
","
",NA,images/earth.jpg,NA,NA,NA,NA,NA,NA,NA,NA,NA,NA,NA,NA,NA,fixation,NA,NA,NA,NA,NA,NA,sub130
d3-instructions,121,596664,0.0-62.0,FALSE,FALSE,TRUE,FALSE,"""event"",""trial"",""time""
""fullscreenenter"",""5"",""14892""
","
","
","""event"",""trial"",""time""
""fullscreenenter"",""5"",""14892""
","
",NA,NA,NA,NA,NA,NA,NA,NA,NA,NA,NA,NA,NA,NA,NA,NA,NA,NA,NA,NA,NA,NA,sub130
audio-keyboard-response,122,602634,0.0-63.0,FALSE,FALSE,TRUE,FALSE,"""event"",""trial"",""time""
""fullscreenenter"",""5"",""14892""
","
","
","""event"",""trial"",""time""
""fullscreenenter"",""5"",""14892""
","
",5971,audio/instructions/treasure_feedback.wav,32,NA,NA,NA,NA,NA,NA,NA,NA,NA,NA,NA,NA,NA,NA,NA,NA,NA,NA,NA,sub130
d3-instructions,123,623563,0.0-64.0,FALSE,FALSE,TRUE,FALSE,"""event"",""trial"",""time""
""fullscreenenter"",""5"",""14892""
","
","
","""event"",""trial"",""time""
""fullscreenenter"",""5"",""14892""
","
",NA,NA,NA,NA,NA,NA,NA,NA,NA,NA,NA,NA,NA,NA,NA,NA,NA,NA,NA,NA,NA,NA,sub130
d3-instructions,124,642409,0.0-65.0,FALSE,FALSE,TRUE,FALSE,"""event"",""trial"",""time""
""fullscreenenter"",""5"",""14892""
","
","
","""event"",""trial"",""time""
""fullscreenenter"",""5"",""14892""
","
",NA,NA,NA,NA,NA,NA,NA,NA,NA,NA,NA,NA,NA,NA,NA,NA,NA,NA,NA,NA,NA,NA,sub130
d3-instructions,125,669319,0.0-66.0,FALSE,FALSE,TRUE,FALSE,"""event"",""trial"",""time""
""fullscreenenter"",""5"",""14892""
","
","
","""event"",""trial"",""time""
""fullscreenenter"",""5"",""14892""
","
",NA,NA,NA,NA,NA,NA,NA,NA,NA,NA,NA,NA,NA,NA,NA,NA,NA,NA,NA,NA,NA,NA,sub130
d3-instructions,126,685072,0.0-67.0,FALSE,FALSE,TRUE,FALSE,"""event"",""trial"",""time""
""fullscreenenter"",""5"",""14892""
","
","
","""event"",""trial"",""time""
""fullscreenenter"",""5"",""14892""
","
",NA,NA,NA,NA,NA,NA,NA,NA,NA,NA,NA,NA,NA,NA,NA,NA,NA,NA,NA,NA,NA,NA,sub130
d3-instructions,127,694335,0.0-68.0,FALSE,FALSE,TRUE,FALSE,"""event"",""trial"",""time""
""fullscreenenter"",""5"",""14892""
","
","
","""event"",""trial"",""time""
""fullscreenenter"",""5"",""14892""
","
",NA,NA,NA,NA,NA,NA,NA,NA,NA,NA,NA,NA,NA,NA,NA,NA,NA,NA,NA,NA,NA,NA,sub130
instructions-quiz,128,698924,0.0-69.0,FALSE,FALSE,TRUE,FALSE,"""event"",""trial"",""time""
""fullscreenenter"",""5"",""14892""
","
","
","""event"",""trial"",""time""
""fullscreenenter"",""5"",""14892""
","
",4586.900000002119,audio/quiz/Q1_Prompt.wav,NA,1,NA,NA,NA,NA,NA,NA,NA,NA,NA,NA,NA,NA,NA,NA,NA,NA,NA,NA,sub130
audio-keyboard-response,129,708093,0.0-70.0,FALSE,FALSE,TRUE,FALSE,"""event"",""trial"",""time""
""fullscreenenter"",""5"",""14892""
","
","
","""event"",""trial"",""time""
""fullscreenenter"",""5"",""14892""
","
",null,audio/quiz/Q1_Correct.wav,null,NA,NA,NA,NA,NA,NA,NA,NA,NA,NA,NA,NA,NA,NA,NA,NA,NA,NA,NA,sub130
instructions-quiz,130,716082,0.0-71.0,FALSE,FALSE,TRUE,FALSE,"""event"",""trial"",""time""
""fullscreenenter"",""5"",""14892""
","
","
","""event"",""trial"",""time""
""fullscreenenter"",""5"",""14892""
","
",7987.43500000285,audio/quiz/Q2_Prompt.wav,NA,1,NA,NA,NA,NA,NA,NA,NA,NA,NA,NA,NA,NA,NA,NA,NA,NA,NA,NA,sub130
audio-keyboard-response,131,730163,0.0-72.0,FALSE,FALSE,TRUE,FALSE,"""event"",""trial"",""time""
""fullscreenenter"",""5"",""14892""
","
","
","""event"",""trial"",""time""
""fullscreenenter"",""5"",""14892""
","
",null,audio/quiz/Q2_Incorrect.wav,null,NA,NA,NA,NA,NA,NA,NA,NA,NA,NA,NA,NA,NA,NA,NA,NA,NA,NA,NA,sub130
instructions-quiz,132,735017,0.0-73.0,FALSE,FALSE,TRUE,FALSE,"""event"",""trial"",""time""
""fullscreenenter"",""5"",""14892""
","
","
","""event"",""trial"",""time""
""fullscreenenter"",""5"",""14892""
","
",4853.4150000051595,audio/quiz/Q3_Prompt.wav,NA,1,NA,NA,NA,NA,NA,NA,NA,NA,NA,NA,NA,NA,NA,NA,NA,NA,NA,NA,sub130
audio-keyboard-response,133,740812,0.0-74.0,FALSE,FALSE,TRUE,FALSE,"""event"",""trial"",""time""
""fullscreenenter"",""5"",""14892""
","
","
","""event"",""trial"",""time""
""fullscreenenter"",""5"",""14892""
","
",null,audio/quiz/Q3_Correct.wav,null,NA,NA,NA,NA,NA,NA,NA,NA,NA,NA,NA,NA,NA,NA,NA,NA,NA,NA,NA,sub130
d3-instructions,134,755117,0.0-75.0,FALSE,FALSE,TRUE,FALSE,"""event"",""trial"",""time""
""fullscreenenter"",""5"",""14892""
","
","
","""event"",""trial"",""time""
""fullscreenenter"",""5"",""14892""
","
",NA,NA,NA,NA,NA,NA,NA,NA,NA,NA,NA,NA,NA,NA,NA,NA,NA,NA,NA,NA,NA,NA,sub130
d3-animate-choice,135,758604,0.0-76.0-0.0,FALSE,FALSE,TRUE,FALSE,"""event"",""trial"",""time""
""fullscreenenter"",""5"",""14892""
","
","
","""event"",""trial"",""time""
""fullscreenenter"",""5"",""14892""
","
",1482.625000004191,NA,48,NA,NA,3000,1,NA,NA,images/earth.jpg,images/rocket1,images/rocket2,null,images/rocket1,NA,1,real,null,2,NA,NA,NA,sub130
d3-animate-choice,136,762358,0.0-76.0-1.0,FALSE,FALSE,TRUE,FALSE,"""event"",""trial"",""time""
""fullscreenenter"",""5"",""14892""
","
","
","""event"",""trial"",""time""
""fullscreenenter"",""5"",""14892""
","
",1748.6599999974715,NA,48,NA,NA,3000,1,NA,NA,images/purpleplanet.jpg,images/alien4,images/alien3,images/rocket1,images/alien4,images/nothing.png,2,real,true,2,common,0,2020-06-20T19:27:55Z,sub130
two-step-fixation,137,763360,0.0-76.0-2.0,FALSE,FALSE,TRUE,FALSE,"""event"",""trial"",""time""
""fullscreenenter"",""5"",""14892""
","
","
","""event"",""trial"",""time""
""fullscreenenter"",""5"",""14892""
","
",NA,images/earth.jpg,NA,NA,NA,NA,NA,NA,NA,NA,NA,NA,NA,NA,NA,fixation,NA,NA,NA,NA,NA,NA,sub130
d3-animate-choice,138,766216,0.0-76.0-0.1,FALSE,FALSE,TRUE,FALSE,"""event"",""trial"",""time""
""fullscreenenter"",""5"",""14892""
","
","
","""event"",""trial"",""time""
""fullscreenenter"",""5"",""14892""
","
",851.9450000021607,NA,48,NA,NA,3000,1,NA,NA,images/earth.jpg,images/rocket1,images/rocket2,null,images/rocket1,NA,1,real,null,2,NA,NA,NA,sub130
d3-animate-choice,139,769362,0.0-76.0-1.1,FALSE,FALSE,TRUE,FALSE,"""event"",""trial"",""time""
""fullscreenenter"",""5"",""14892""
","
","
","""event"",""trial"",""time""
""fullscreenenter"",""5"",""14892""
","
",1142.2650000022259,NA,48,NA,NA,3000,1,NA,NA,images/redplanet1.jpg,images/alien2,images/alien1,images/rocket1,images/alien2,images/t.png,2,real,false,2,rare,1,2020-06-20T19:28:02Z,sub130
two-step-fixation,140,770365,0.0-76.0-2.1,FALSE,FALSE,TRUE,FALSE,"""event"",""trial"",""time""
""fullscreenenter"",""5"",""14892""
","
","
","""event"",""trial"",""time""
""fullscreenenter"",""5"",""14892""
","
",NA,images/earth.jpg,NA,NA,NA,NA,NA,NA,NA,NA,NA,NA,NA,NA,NA,fixation,NA,NA,NA,NA,NA,NA,sub130
d3-animate-choice,141,774372,0.0-76.0-0.2,FALSE,FALSE,TRUE,FALSE,"""event"",""trial"",""time""
""fullscreenenter"",""5"",""14892""
","
","
","""event"",""trial"",""time""
""fullscreenenter"",""5"",""14892""
","
",null,NA,null,NA,NA,3000,0,NA,NA,images/earth.jpg,images/rocket1,images/rocket2,null,NA,NA,1,real,null,NA,NA,NA,NA,sub130
d3-animate-choice,142,775381,0.0-76.0-1.2,FALSE,FALSE,TRUE,FALSE,"""event"",""trial"",""time""
""fullscreenenter"",""5"",""14892""
","
","
","""event"",""trial"",""time""
""fullscreenenter"",""5"",""14892""
","
",null,NA,null,NA,NA,0,0,NA,NA,images/earth.jpg,images/rocket1,images/rocket2,null,NA,NA,2,real,null,NA,NA,0,2020-06-20T19:28:08Z,sub130
two-step-fixation,143,776383,0.0-76.0-2.2,FALSE,FALSE,TRUE,FALSE,"""event"",""trial"",""time""
""fullscreenenter"",""5"",""14892""
","
","
","""event"",""trial"",""time""
""fullscreenenter"",""5"",""14892""
","
",NA,images/earth.jpg,NA,NA,NA,NA,NA,NA,NA,NA,NA,NA,NA,NA,NA,fixation,NA,NA,NA,NA,NA,NA,sub130
d3-animate-choice,144,779185,0.0-76.0-0.3,FALSE,FALSE,TRUE,FALSE,"""event"",""trial"",""time""
""fullscreenenter"",""5"",""14892""
","
","
","""event"",""trial"",""time""
""fullscreenenter"",""5"",""14892""
","
",798.0649999954039,NA,48,NA,NA,3000,1,NA,NA,images/earth.jpg,images/rocket1,images/rocket2,null,images/rocket1,NA,1,real,null,2,NA,NA,NA,sub130
d3-animate-choice,145,782251,0.0-76.0-1.3,FALSE,FALSE,TRUE,FALSE,"""event"",""trial"",""time""
""fullscreenenter"",""5"",""14892""
","
","
","""event"",""trial"",""time""
""fullscreenenter"",""5"",""14892""
","
",1062.5400000063237,NA,48,NA,NA,3000,1,NA,NA,images/redplanet1.jpg,images/alien2,images/alien1,images/rocket1,images/alien2,images/t.png,2,real,false,2,rare,1,2020-06-20T19:28:15Z,sub130
two-step-fixation,146,783255,0.0-76.0-2.3,FALSE,FALSE,TRUE,FALSE,"""event"",""trial"",""time""
""fullscreenenter"",""5"",""14892""
","
","
","""event"",""trial"",""time""
""fullscreenenter"",""5"",""14892""
","
",NA,images/earth.jpg,NA,NA,NA,NA,NA,NA,NA,NA,NA,NA,NA,NA,NA,fixation,NA,NA,NA,NA,NA,NA,sub130
d3-animate-choice,147,786150,0.0-76.0-0.4,FALSE,FALSE,TRUE,FALSE,"""event"",""trial"",""time""
""fullscreenenter"",""5"",""14892""
","
","
","""event"",""trial"",""time""
""fullscreenenter"",""5"",""14892""
","
",891.3099999990081,NA,48,NA,NA,3000,1,NA,NA,images/earth.jpg,images/rocket1,images/rocket2,null,images/rocket1,NA,1,real,null,2,NA,NA,NA,sub130
d3-animate-choice,148,789575,0.0-76.0-1.4,FALSE,FALSE,TRUE,FALSE,"""event"",""trial"",""time""
""fullscreenenter"",""5"",""14892""
","
","
","""event"",""trial"",""time""
""fullscreenenter"",""5"",""14892""
","
",1420.514999998035,NA,49,NA,NA,3000,1,NA,NA,images/purpleplanet.jpg,images/alien4,images/alien3,images/rocket1,images/alien3,images/t.png,2,real,true,1,common,1,2020-06-20T19:28:22Z,sub130
two-step-fixation,149,790578,0.0-76.0-2.4,FALSE,FALSE,TRUE,FALSE,"""event"",""trial"",""time""
""fullscreenenter"",""5"",""14892""
","
","
","""event"",""trial"",""time""
""fullscreenenter"",""5"",""14892""
","
",NA,images/earth.jpg,NA,NA,NA,NA,NA,NA,NA,NA,NA,NA,NA,NA,NA,fixation,NA,NA,NA,NA,NA,NA,sub130
d3-animate-choice,150,794084,0.0-76.0-0.5,FALSE,FALSE,TRUE,FALSE,"""event"",""trial"",""time""
""fullscreenenter"",""5"",""14892""
","
","
","""event"",""trial"",""time""
""fullscreenenter"",""5"",""14892""
","
",1502.1399999968708,NA,48,NA,NA,3000,1,NA,NA,images/earth.jpg,images/rocket1,images/rocket2,null,images/rocket1,NA,1,real,null,2,NA,NA,NA,sub130
d3-animate-choice,151,797014,0.0-76.0-1.5,FALSE,FALSE,TRUE,FALSE,"""event"",""trial"",""time""
""fullscreenenter"",""5"",""14892""
","
","
","""event"",""trial"",""time""
""fullscreenenter"",""5"",""14892""
","
",926.1400000031572,NA,48,NA,NA,3000,1,NA,NA,images/redplanet1.jpg,images/alien2,images/alien1,images/rocket1,images/alien2,images/t.png,2,real,false,2,rare,1,2020-06-20T19:28:30Z,sub130
two-step-fixation,152,798018,0.0-76.0-2.5,FALSE,FALSE,TRUE,FALSE,"""event"",""trial"",""time""
""fullscreenenter"",""5"",""14892""
","
","
","""event"",""trial"",""time""
""fullscreenenter"",""5"",""14892""
","
",NA,images/earth.jpg,NA,NA,NA,NA,NA,NA,NA,NA,NA,NA,NA,NA,NA,fixation,NA,NA,NA,NA,NA,NA,sub130
d3-animate-choice,153,801030,0.0-76.0-0.6,FALSE,FALSE,TRUE,FALSE,"""event"",""trial"",""time""
""fullscreenenter"",""5"",""14892""
","
","
","""event"",""trial"",""time""
""fullscreenenter"",""5"",""14892""
","
",1008.0999999990454,NA,48,NA,NA,3000,1,NA,NA,images/earth.jpg,images/rocket1,images/rocket2,null,images/rocket1,NA,1,real,null,2,NA,NA,NA,sub130
d3-animate-choice,154,804194,0.0-76.0-1.6,FALSE,FALSE,TRUE,FALSE,"""event"",""trial"",""time""
""fullscreenenter"",""5"",""14892""
","
","
","""event"",""trial"",""time""
""fullscreenenter"",""5"",""14892""
","
",1160.394999998971,NA,49,NA,NA,3000,1,NA,NA,images/purpleplanet.jpg,images/alien4,images/alien3,images/rocket1,images/alien3,images/t.png,2,real,true,1,common,1,2020-06-20T19:28:37Z,sub130
two-step-fixation,155,805198,0.0-76.0-2.6,FALSE,FALSE,TRUE,FALSE,"""event"",""trial"",""time""
""fullscreenenter"",""5"",""14892""
","
","
","""event"",""trial"",""time""
""fullscreenenter"",""5"",""14892""
","
",NA,images/earth.jpg,NA,NA,NA,NA,NA,NA,NA,NA,NA,NA,NA,NA,NA,fixation,NA,NA,NA,NA,NA,NA,sub130
d3-animate-choice,156,807570,0.0-76.0-0.7,FALSE,FALSE,TRUE,FALSE,"""event"",""trial"",""time""
""fullscreenenter"",""5"",""14892""
","
","
","""event"",""trial"",""time""
""fullscreenenter"",""5"",""14892""
","
",368.2000000043772,NA,48,NA,NA,3000,1,NA,NA,images/earth.jpg,images/rocket1,images/rocket2,null,images/rocket1,NA,1,real,null,2,NA,NA,NA,sub130
d3-animate-choice,157,810863,0.0-76.0-1.7,FALSE,FALSE,TRUE,FALSE,"""event"",""trial"",""time""
""fullscreenenter"",""5"",""14892""
","
","
","""event"",""trial"",""time""
""fullscreenenter"",""5"",""14892""
","
",1288.9499999945983,NA,48,NA,NA,3000,1,NA,NA,images/purpleplanet.jpg,images/alien4,images/alien3,images/rocket1,images/alien4,images/t.png,2,real,true,2,common,1,2020-06-20T19:28:43Z,sub130
two-step-fixation,158,811867,0.0-76.0-2.7,FALSE,FALSE,TRUE,FALSE,"""event"",""trial"",""time""
""fullscreenenter"",""5"",""14892""
","
","
","""event"",""trial"",""time""
""fullscreenenter"",""5"",""14892""
","
",NA,images/earth.jpg,NA,NA,NA,NA,NA,NA,NA,NA,NA,NA,NA,NA,NA,fixation,NA,NA,NA,NA,NA,NA,sub130
d3-animate-choice,159,814530,0.0-76.0-0.8,FALSE,FALSE,TRUE,FALSE,"""event"",""trial"",""time""
""fullscreenenter"",""5"",""14892""
","
","
","""event"",""trial"",""time""
""fullscreenenter"",""5"",""14892""
","
",659.6050000006799,NA,48,NA,NA,3000,1,NA,NA,images/earth.jpg,images/rocket1,images/rocket2,null,images/rocket1,NA,1,real,null,2,NA,NA,NA,sub130
d3-animate-choice,160,818059,0.0-76.0-1.8,FALSE,FALSE,TRUE,FALSE,"""event"",""trial"",""time""
""fullscreenenter"",""5"",""14892""
","
","
","""event"",""trial"",""time""
""fullscreenenter"",""5"",""14892""
","
",1524.890000000596,NA,49,NA,NA,3000,1,NA,NA,images/redplanet1.jpg,images/alien2,images/alien1,images/rocket1,images/alien1,images/nothing.png,2,real,false,1,rare,0,2020-06-20T19:28:51Z,sub130
two-step-fixation,161,819062,0.0-76.0-2.8,FALSE,FALSE,TRUE,FALSE,"""event"",""trial"",""time""
""fullscreenenter"",""5"",""14892""
","
","
","""event"",""trial"",""time""
""fullscreenenter"",""5"",""14892""
","
",NA,images/earth.jpg,NA,NA,NA,NA,NA,NA,NA,NA,NA,NA,NA,NA,NA,fixation,NA,NA,NA,NA,NA,NA,sub130
d3-animate-choice,162,822588,0.0-76.0-0.9,FALSE,FALSE,TRUE,FALSE,"""event"",""trial"",""time""
""fullscreenenter"",""5"",""14892""
","
","
","""event"",""trial"",""time""
""fullscreenenter"",""5"",""14892""
","
",1522.2149999971734,NA,48,NA,NA,3000,1,NA,NA,images/earth.jpg,images/rocket1,images/rocket2,null,images/rocket1,NA,1,real,null,2,NA,NA,NA,sub130
d3-animate-choice,163,825257,0.0-76.0-1.9,FALSE,FALSE,TRUE,FALSE,"""event"",""trial"",""time""
""fullscreenenter"",""5"",""14892""
","
","
","""event"",""trial"",""time""
""fullscreenenter"",""5"",""14892""
","
",664.6300000065239,NA,48,NA,NA,3000,1,NA,NA,images/purpleplanet.jpg,images/alien4,images/alien3,images/rocket1,images/alien4,images/t.png,2,real,true,2,common,1,2020-06-20T19:28:58Z,sub130
two-step-fixation,164,826260,0.0-76.0-2.9,FALSE,FALSE,TRUE,FALSE,"""event"",""trial"",""time""
""fullscreenenter"",""5"",""14892""
","
","
","""event"",""trial"",""time""
""fullscreenenter"",""5"",""14892""
","
",NA,images/earth.jpg,NA,NA,NA,NA,NA,NA,NA,NA,NA,NA,NA,NA,NA,fixation,NA,NA,NA,NA,NA,NA,sub130
d3-animate-choice,165,829760,0.0-76.0-0.10,FALSE,FALSE,TRUE,FALSE,"""event"",""trial"",""time""
""fullscreenenter"",""5"",""14892""
","
","
","""event"",""trial"",""time""
""fullscreenenter"",""5"",""14892""
","
",1495.7999999970198,NA,48,NA,NA,3000,1,NA,NA,images/earth.jpg,images/rocket1,images/rocket2,null,images/rocket1,NA,1,real,null,2,NA,NA,NA,sub130
d3-animate-choice,166,832385,0.0-76.0-1.10,FALSE,FALSE,TRUE,FALSE,"""event"",""trial"",""time""
""fullscreenenter"",""5"",""14892""
","
","
","""event"",""trial"",""time""
""fullscreenenter"",""5"",""14892""
","
",621.3449999996228,NA,48,NA,NA,3000,1,NA,NA,images/purpleplanet.jpg,images/alien4,images/alien3,images/rocket1,images/alien4,images/nothing.png,2,real,true,2,common,0,2020-06-20T19:29:05Z,sub130
two-step-fixation,167,833390,0.0-76.0-2.10,FALSE,FALSE,TRUE,FALSE,"""event"",""trial"",""time""
""fullscreenenter"",""5"",""14892""
","
","
","""event"",""trial"",""time""
""fullscreenenter"",""5"",""14892""
","
",NA,images/earth.jpg,NA,NA,NA,NA,NA,NA,NA,NA,NA,NA,NA,NA,NA,fixation,NA,NA,NA,NA,NA,NA,sub130
d3-animate-choice,168,837395,0.0-76.0-0.11,FALSE,FALSE,TRUE,FALSE,"""event"",""trial"",""time""
""fullscreenenter"",""5"",""14892""
","
","
","""event"",""trial"",""time""
""fullscreenenter"",""5"",""14892""
","
",2004.6650000003865,NA,48,NA,NA,3000,1,NA,NA,images/earth.jpg,images/rocket1,images/rocket2,null,images/rocket1,NA,1,real,null,2,NA,NA,NA,sub130
d3-animate-choice,169,840269,0.0-76.0-1.11,FALSE,FALSE,TRUE,FALSE,"""event"",""trial"",""time""
""fullscreenenter"",""5"",""14892""
","
","
","""event"",""trial"",""time""
""fullscreenenter"",""5"",""14892""
","
",869.5550000047078,NA,49,NA,NA,3000,1,NA,NA,images/redplanet1.jpg,images/alien2,images/alien1,images/rocket1,images/alien1,images/t.png,2,real,false,1,rare,1,2020-06-20T19:29:13Z,sub130
two-step-fixation,170,841273,0.0-76.0-2.11,FALSE,FALSE,TRUE,FALSE,"""event"",""trial"",""time""
""fullscreenenter"",""5"",""14892""
","
","
","""event"",""trial"",""time""
""fullscreenenter"",""5"",""14892""
","
",NA,images/earth.jpg,NA,NA,NA,NA,NA,NA,NA,NA,NA,NA,NA,NA,NA,fixation,NA,NA,NA,NA,NA,NA,sub130
d3-animate-choice,171,845276,0.0-76.0-0.12,FALSE,FALSE,TRUE,FALSE,"""event"",""trial"",""time""
""fullscreenenter"",""5"",""14892""
","
","
","""event"",""trial"",""time""
""fullscreenenter"",""5"",""14892""
","
",2032.5000000011642,NA,49,NA,NA,3000,1,NA,NA,images/earth.jpg,images/rocket1,images/rocket2,null,images/rocket2,NA,1,real,null,1,NA,NA,NA,sub130
d3-animate-choice,172,847684,0.0-76.0-1.12,FALSE,FALSE,TRUE,FALSE,"""event"",""trial"",""time""
""fullscreenenter"",""5"",""14892""
","
","
","""event"",""trial"",""time""
""fullscreenenter"",""5"",""14892""
","
",403.23499999789055,NA,49,NA,NA,3000,1,NA,NA,images/redplanet1.jpg,images/alien2,images/alien1,images/rocket2,images/alien1,images/t.png,2,real,true,1,common,1,2020-06-20T19:29:20Z,sub130
two-step-fixation,173,848687,0.0-76.0-2.12,FALSE,FALSE,TRUE,FALSE,"""event"",""trial"",""time""
""fullscreenenter"",""5"",""14892""
","
","
","""event"",""trial"",""time""
""fullscreenenter"",""5"",""14892""
","
",NA,images/earth.jpg,NA,NA,NA,NA,NA,NA,NA,NA,NA,NA,NA,NA,NA,fixation,NA,NA,NA,NA,NA,NA,sub130
d3-animate-choice,174,851203,0.0-76.0-0.13,FALSE,FALSE,TRUE,FALSE,"""event"",""trial"",""time""
""fullscreenenter"",""5"",""14892""
","
","
","""event"",""trial"",""time""
""fullscreenenter"",""5"",""14892""
","
",511.73500000010245,NA,49,NA,NA,3000,1,NA,NA,images/earth.jpg,images/rocket1,images/rocket2,null,images/rocket2,NA,1,real,null,1,NA,NA,NA,sub130
d3-animate-choice,175,853740,0.0-76.0-1.13,FALSE,FALSE,TRUE,FALSE,"""event"",""trial"",""time""
""fullscreenenter"",""5"",""14892""
","
","
","""event"",""trial"",""time""
""fullscreenenter"",""5"",""14892""
","
",533.5600000035483,NA,49,NA,NA,3000,1,NA,NA,images/redplanet1.jpg,images/alien2,images/alien1,images/rocket2,images/alien1,images/t.png,2,real,true,1,common,1,2020-06-20T19:29:26Z,sub130
two-step-fixation,176,854744,0.0-76.0-2.13,FALSE,FALSE,TRUE,FALSE,"""event"",""trial"",""time""
""fullscreenenter"",""5"",""14892""
","
","
","""event"",""trial"",""time""
""fullscreenenter"",""5"",""14892""
","
",NA,images/earth.jpg,NA,NA,NA,NA,NA,NA,NA,NA,NA,NA,NA,NA,NA,fixation,NA,NA,NA,NA,NA,NA,sub130
d3-animate-choice,177,857164,0.0-76.0-0.14,FALSE,FALSE,TRUE,FALSE,"""event"",""trial"",""time""
""fullscreenenter"",""5"",""14892""
","
","
","""event"",""trial"",""time""
""fullscreenenter"",""5"",""14892""
","
",415.77500000130385,NA,49,NA,NA,3000,1,NA,NA,images/earth.jpg,images/rocket1,images/rocket2,null,images/rocket2,NA,1,real,null,1,NA,NA,NA,sub130
d3-animate-choice,178,860287,0.0-76.0-1.14,FALSE,FALSE,TRUE,FALSE,"""event"",""trial"",""time""
""fullscreenenter"",""5"",""14892""
","
","
","""event"",""trial"",""time""
""fullscreenenter"",""5"",""14892""
","
",1117.8650000002235,NA,49,NA,NA,3000,1,NA,NA,images/purpleplanet.jpg,images/alien4,images/alien3,images/rocket2,images/alien3,images/nothing.png,2,real,false,1,rare,0,2020-06-20T19:29:33Z,sub130
two-step-fixation,179,861290,0.0-76.0-2.14,FALSE,FALSE,TRUE,FALSE,"""event"",""trial"",""time""
""fullscreenenter"",""5"",""14892""
","
","
","""event"",""trial"",""time""
""fullscreenenter"",""5"",""14892""
","
",NA,images/earth.jpg,NA,NA,NA,NA,NA,NA,NA,NA,NA,NA,NA,NA,NA,fixation,NA,NA,NA,NA,NA,NA,sub130
d3-animate-choice,180,864140,0.0-76.0-0.15,FALSE,FALSE,TRUE,FALSE,"""event"",""trial"",""time""
""fullscreenenter"",""5"",""14892""
","
","
","""event"",""trial"",""time""
""fullscreenenter"",""5"",""14892""
","
",846.3750000010477,NA,49,NA,NA,3000,1,NA,NA,images/earth.jpg,images/rocket1,images/rocket2,null,images/rocket2,NA,1,real,null,1,NA,NA,NA,sub130
d3-animate-choice,181,866774,0.0-76.0-1.15,FALSE,FALSE,TRUE,FALSE,"""event"",""trial"",""time""
""fullscreenenter"",""5"",""14892""
","
","
","""event"",""trial"",""time""
""fullscreenenter"",""5"",""14892""
","
",629.724999998929,NA,49,NA,NA,3000,1,NA,NA,images/redplanet1.jpg,images/alien2,images/alien1,images/rocket2,images/alien1,images/t.png,2,real,true,1,common,1,2020-06-20T19:29:39Z,sub130
two-step-fixation,182,867779,0.0-76.0-2.15,FALSE,FALSE,TRUE,FALSE,"""event"",""trial"",""time""
""fullscreenenter"",""5"",""14892""
","
","
","""event"",""trial"",""time""
""fullscreenenter"",""5"",""14892""
","
",NA,images/earth.jpg,NA,NA,NA,NA,NA,NA,NA,NA,NA,NA,NA,NA,NA,fixation,NA,NA,NA,NA,NA,NA,sub130
d3-animate-choice,183,870237,0.0-76.0-0.16,FALSE,FALSE,TRUE,FALSE,"""event"",""trial"",""time""
""fullscreenenter"",""5"",""14892""
","
","
","""event"",""trial"",""time""
""fullscreenenter"",""5"",""14892""
","
",453.33499999833293,NA,49,NA,NA,3000,1,NA,NA,images/earth.jpg,images/rocket1,images/rocket2,null,images/rocket2,NA,1,real,null,1,NA,NA,NA,sub130
d3-animate-choice,184,872740,0.0-76.0-1.16,FALSE,FALSE,TRUE,FALSE,"""event"",""trial"",""time""
""fullscreenenter"",""5"",""14892""
","
","
","""event"",""trial"",""time""
""fullscreenenter"",""5"",""14892""
","
",498.8550000053365,NA,49,NA,NA,3000,1,NA,NA,images/redplanet1.jpg,images/alien2,images/alien1,images/rocket2,images/alien1,images/t.png,2,real,true,1,common,1,2020-06-20T19:29:45Z,sub130
two-step-fixation,185,873745,0.0-76.0-2.16,FALSE,FALSE,TRUE,FALSE,"""event"",""trial"",""time""
""fullscreenenter"",""5"",""14892""
","
","
","""event"",""trial"",""time""
""fullscreenenter"",""5"",""14892""
","
",NA,images/earth.jpg,NA,NA,NA,NA,NA,NA,NA,NA,NA,NA,NA,NA,NA,fixation,NA,NA,NA,NA,NA,NA,sub130
d3-animate-choice,186,876273,0.0-76.0-0.17,FALSE,FALSE,TRUE,FALSE,"""event"",""trial"",""time""
""fullscreenenter"",""5"",""14892""
","
","
","""event"",""trial"",""time""
""fullscreenenter"",""5"",""14892""
","
",524.4899999960326,NA,49,NA,NA,3000,1,NA,NA,images/earth.jpg,images/rocket1,images/rocket2,null,images/rocket2,NA,1,real,null,1,NA,NA,NA,sub130
d3-animate-choice,187,879879,0.0-76.0-1.17,FALSE,FALSE,TRUE,FALSE,"""event"",""trial"",""time""
""fullscreenenter"",""5"",""14892""
","
","
","""event"",""trial"",""time""
""fullscreenenter"",""5"",""14892""
","
",1601.7500000016298,NA,48,NA,NA,3000,1,NA,NA,images/purpleplanet.jpg,images/alien4,images/alien3,images/rocket2,images/alien4,images/t.png,2,real,false,2,rare,1,2020-06-20T19:29:52Z,sub130
two-step-fixation,188,880883,0.0-76.0-2.17,FALSE,FALSE,TRUE,FALSE,"""event"",""trial"",""time""
""fullscreenenter"",""5"",""14892""
","
","
","""event"",""trial"",""time""
""fullscreenenter"",""5"",""14892""
","
",NA,images/earth.jpg,NA,NA,NA,NA,NA,NA,NA,NA,NA,NA,NA,NA,NA,fixation,NA,NA,NA,NA,NA,NA,sub130
d3-animate-choice,189,883612,0.0-76.0-0.18,FALSE,FALSE,TRUE,FALSE,"""event"",""trial"",""time""
""fullscreenenter"",""5"",""14892""
","
","
","""event"",""trial"",""time""
""fullscreenenter"",""5"",""14892""
","
",724.8699999982491,NA,49,NA,NA,3000,1,NA,NA,images/earth.jpg,images/rocket1,images/rocket2,null,images/rocket2,NA,1,real,null,1,NA,NA,NA,sub130
d3-animate-choice,190,886459,0.0-76.0-1.18,FALSE,FALSE,TRUE,FALSE,"""event"",""trial"",""time""
""fullscreenenter"",""5"",""14892""
","
","
","""event"",""trial"",""time""
""fullscreenenter"",""5"",""14892""
","
",842.4000000013039,NA,49,NA,NA,3000,1,NA,NA,images/purpleplanet.jpg,images/alien4,images/alien3,images/rocket2,images/alien3,images/nothing.png,2,real,false,1,rare,0,2020-06-20T19:29:59Z,sub130
two-step-fixation,191,887462,0.0-76.0-2.18,FALSE,FALSE,TRUE,FALSE,"""event"",""trial"",""time""
""fullscreenenter"",""5"",""14892""
","
","
","""event"",""trial"",""time""
""fullscreenenter"",""5"",""14892""
","
",NA,images/earth.jpg,NA,NA,NA,NA,NA,NA,NA,NA,NA,NA,NA,NA,NA,fixation,NA,NA,NA,NA,NA,NA,sub130
d3-animate-choice,192,891082,0.0-76.0-0.19,FALSE,FALSE,TRUE,FALSE,"""event"",""trial"",""time""
""fullscreenenter"",""5"",""14892""
","
","
","""event"",""trial"",""time""
""fullscreenenter"",""5"",""14892""
","
",1615.1050000044052,NA,49,NA,NA,3000,1,NA,NA,images/earth.jpg,images/rocket1,images/rocket2,null,images/rocket2,NA,1,real,null,1,NA,NA,NA,sub130
d3-animate-choice,193,893995,0.0-76.0-1.19,FALSE,FALSE,TRUE,FALSE,"""event"",""trial"",""time""
""fullscreenenter"",""5"",""14892""
","
","
","""event"",""trial"",""time""
""fullscreenenter"",""5"",""14892""
","
",908.7900000013178,NA,49,NA,NA,3000,1,NA,NA,images/redplanet1.jpg,images/alien2,images/alien1,images/rocket2,images/alien1,images/t.png,2,real,true,1,common,1,2020-06-20T19:30:07Z,sub130
two-step-fixation,194,894998,0.0-76.0-2.19,FALSE,FALSE,TRUE,FALSE,"""event"",""trial"",""time""
""fullscreenenter"",""5"",""14892""
","
","
","""event"",""trial"",""time""
""fullscreenenter"",""5"",""14892""
","
",NA,images/earth.jpg,NA,NA,NA,NA,NA,NA,NA,NA,NA,NA,NA,NA,NA,fixation,NA,NA,NA,NA,NA,NA,sub130
d3-animate-choice,195,897706,0.0-76.0-0.20,FALSE,FALSE,TRUE,FALSE,"""event"",""trial"",""time""
""fullscreenenter"",""5"",""14892""
","
","
","""event"",""trial"",""time""
""fullscreenenter"",""5"",""14892""
","
",703.6650000008522,NA,49,NA,NA,3000,1,NA,NA,images/earth.jpg,images/rocket1,images/rocket2,null,images/rocket2,NA,1,real,null,1,NA,NA,NA,sub130
d3-animate-choice,196,900271,0.0-76.0-1.20,FALSE,FALSE,TRUE,FALSE,"""event"",""trial"",""time""
""fullscreenenter"",""5"",""14892""
","
","
","""event"",""trial"",""time""
""fullscreenenter"",""5"",""14892""
","
",562.0399999971269,NA,49,NA,NA,3000,1,NA,NA,images/redplanet1.jpg,images/alien2,images/alien1,images/rocket2,images/alien1,images/t.png,2,real,true,1,common,1,2020-06-20T19:30:13Z,sub130
two-step-fixation,197,901275,0.0-76.0-2.20,FALSE,FALSE,TRUE,FALSE,"""event"",""trial"",""time""
""fullscreenenter"",""5"",""14892""
","
","
","""event"",""trial"",""time""
""fullscreenenter"",""5"",""14892""
","
",NA,images/earth.jpg,NA,NA,NA,NA,NA,NA,NA,NA,NA,NA,NA,NA,NA,fixation,NA,NA,NA,NA,NA,NA,sub130
d3-animate-choice,198,903749,0.0-76.0-0.21,FALSE,FALSE,TRUE,FALSE,"""event"",""trial"",""time""
""fullscreenenter"",""5"",""14892""
","
","
","""event"",""trial"",""time""
""fullscreenenter"",""5"",""14892""
","
",471.0350000022445,NA,49,NA,NA,3000,1,NA,NA,images/earth.jpg,images/rocket1,images/rocket2,null,images/rocket2,NA,1,real,null,1,NA,NA,NA,sub130
d3-animate-choice,199,906194,0.0-76.0-1.21,FALSE,FALSE,TRUE,FALSE,"""event"",""trial"",""time""
""fullscreenenter"",""5"",""14892""
","
","
","""event"",""trial"",""time""
""fullscreenenter"",""5"",""14892""
","
",439.5700000022771,NA,49,NA,NA,3000,1,NA,NA,images/redplanet1.jpg,images/alien2,images/alien1,images/rocket2,images/alien1,images/nothing.png,2,real,true,1,common,0,2020-06-20T19:30:19Z,sub130
two-step-fixation,200,907198,0.0-76.0-2.21,FALSE,FALSE,TRUE,FALSE,"""event"",""trial"",""time""
""fullscreenenter"",""5"",""14892""
","
","
","""event"",""trial"",""time""
""fullscreenenter"",""5"",""14892""
","
",NA,images/earth.jpg,NA,NA,NA,NA,NA,NA,NA,NA,NA,NA,NA,NA,NA,fixation,NA,NA,NA,NA,NA,NA,sub130
d3-animate-choice,201,909915,0.0-76.0-0.22,FALSE,FALSE,TRUE,FALSE,"""event"",""trial"",""time""
""fullscreenenter"",""5"",""14892""
","
","
","""event"",""trial"",""time""
""fullscreenenter"",""5"",""14892""
","
",713.0049999977928,NA,48,NA,NA,3000,1,NA,NA,images/earth.jpg,images/rocket1,images/rocket2,null,images/rocket1,NA,1,real,null,2,NA,NA,NA,sub130
d3-animate-choice,202,912525,0.0-76.0-1.22,FALSE,FALSE,TRUE,FALSE,"""event"",""trial"",""time""
""fullscreenenter"",""5"",""14892""
","
","
","""event"",""trial"",""time""
""fullscreenenter"",""5"",""14892""
","
",605.7999999974854,NA,48,NA,NA,3000,1,NA,NA,images/purpleplanet.jpg,images/alien4,images/alien3,images/rocket1,images/alien4,images/nothing.png,2,real,true,2,common,0,2020-06-20T19:30:25Z,sub130
two-step-fixation,203,913528,0.0-76.0-2.22,FALSE,FALSE,TRUE,FALSE,"""event"",""trial"",""time""
""fullscreenenter"",""5"",""14892""
","
","
","""event"",""trial"",""time""
""fullscreenenter"",""5"",""14892""
","
",NA,images/earth.jpg,NA,NA,NA,NA,NA,NA,NA,NA,NA,NA,NA,NA,NA,fixation,NA,NA,NA,NA,NA,NA,sub130
d3-animate-choice,204,917533,0.0-76.0-0.23,FALSE,FALSE,TRUE,FALSE,"""event"",""trial"",""time""
""fullscreenenter"",""5"",""14892""
","
","
","""event"",""trial"",""time""
""fullscreenenter"",""5"",""14892""
","
",2254.3549999971874,NA,48,NA,NA,3000,1,NA,NA,images/earth.jpg,images/rocket1,images/rocket2,null,images/rocket1,NA,1,real,null,2,NA,NA,NA,sub130
d3-animate-choice,205,920364,0.0-76.0-1.23,FALSE,FALSE,TRUE,FALSE,"""event"",""trial"",""time""
""fullscreenenter"",""5"",""14892""
","
","
","""event"",""trial"",""time""
""fullscreenenter"",""5"",""14892""
","
",826.6150000053458,NA,49,NA,NA,3000,1,NA,NA,images/purpleplanet.jpg,images/alien4,images/alien3,images/rocket1,images/alien3,images/t.png,2,real,true,1,common,1,2020-06-20T19:30:33Z,sub130
two-step-fixation,206,921369,0.0-76.0-2.23,FALSE,FALSE,TRUE,FALSE,"""event"",""trial"",""time""
""fullscreenenter"",""5"",""14892""
","
","
","""event"",""trial"",""time""
""fullscreenenter"",""5"",""14892""
","
",NA,images/earth.jpg,NA,NA,NA,NA,NA,NA,NA,NA,NA,NA,NA,NA,NA,fixation,NA,NA,NA,NA,NA,NA,sub130
d3-animate-choice,207,924604,0.0-76.0-0.24,FALSE,FALSE,TRUE,FALSE,"""event"",""trial"",""time""
""fullscreenenter"",""5"",""14892""
","
","
","""event"",""trial"",""time""
""fullscreenenter"",""5"",""14892""
","
",1231.8099999974947,NA,48,NA,NA,3000,1,NA,NA,images/earth.jpg,images/rocket1,images/rocket2,null,images/rocket1,NA,1,real,null,2,NA,NA,NA,sub130
d3-animate-choice,208,927147,0.0-76.0-1.24,FALSE,FALSE,TRUE,FALSE,"""event"",""trial"",""time""
""fullscreenenter"",""5"",""14892""
","
","
","""event"",""trial"",""time""
""fullscreenenter"",""5"",""14892""
","
",538.5900000036927,NA,49,NA,NA,3000,1,NA,NA,images/purpleplanet.jpg,images/alien4,images/alien3,images/rocket1,images/alien3,images/nothing.png,2,real,true,1,common,0,2020-06-20T19:30:40Z,sub130
two-step-fixation,209,928151,0.0-76.0-2.24,FALSE,FALSE,TRUE,FALSE,"""event"",""trial"",""time""
""fullscreenenter"",""5"",""14892""
","
","
","""event"",""trial"",""time""
""fullscreenenter"",""5"",""14892""
","
",NA,images/earth.jpg,NA,NA,NA,NA,NA,NA,NA,NA,NA,NA,NA,NA,NA,fixation,NA,NA,NA,NA,NA,NA,sub130
d3-animate-choice,210,931351,0.0-76.0-0.25,FALSE,FALSE,TRUE,FALSE,"""event"",""trial"",""time""
""fullscreenenter"",""5"",""14892""
","
","
","""event"",""trial"",""time""
""fullscreenenter"",""5"",""14892""
","
",1196.1450000017649,NA,49,NA,NA,3000,1,NA,NA,images/earth.jpg,images/rocket1,images/rocket2,null,images/rocket2,NA,1,real,null,1,NA,NA,NA,sub130
d3-animate-choice,211,935355,0.0-76.0-1.25,FALSE,FALSE,TRUE,FALSE,"""event"",""trial"",""time""
""fullscreenenter"",""5"",""14892""
","
","
","""event"",""trial"",""time""
""fullscreenenter"",""5"",""14892""
","
",2290.0949999967124,NA,48,NA,NA,3000,1,NA,NA,images/purpleplanet.jpg,images/alien4,images/alien3,images/rocket2,images/alien4,images/t.png,2,real,false,2,rare,1,2020-06-20T19:30:48Z,sub130
two-step-fixation,212,936359,0.0-76.0-2.25,FALSE,FALSE,TRUE,FALSE,"""event"",""trial"",""time""
""fullscreenenter"",""5"",""14892""
","
","
","""event"",""trial"",""time""
""fullscreenenter"",""5"",""14892""
","
",NA,images/earth.jpg,NA,NA,NA,NA,NA,NA,NA,NA,NA,NA,NA,NA,NA,fixation,NA,NA,NA,NA,NA,NA,sub130
d3-animate-choice,213,939453,0.0-76.0-0.26,FALSE,FALSE,TRUE,FALSE,"""event"",""trial"",""time""
""fullscreenenter"",""5"",""14892""
","
","
","""event"",""trial"",""time""
""fullscreenenter"",""5"",""14892""
","
",1088.4599999990314,NA,49,NA,NA,3000,1,NA,NA,images/earth.jpg,images/rocket1,images/rocket2,null,images/rocket2,NA,1,real,null,1,NA,NA,NA,sub130
d3-animate-choice,214,942456,0.0-76.0-1.26,FALSE,FALSE,TRUE,FALSE,"""event"",""trial"",""time""
""fullscreenenter"",""5"",""14892""
","
","
","""event"",""trial"",""time""
""fullscreenenter"",""5"",""14892""
","
",1000.3149999974994,NA,48,NA,NA,3000,1,NA,NA,images/redplanet1.jpg,images/alien2,images/alien1,images/rocket2,images/alien2,images/nothing.png,2,real,true,2,common,0,2020-06-20T19:30:55Z,sub130
two-step-fixation,215,943460,0.0-76.0-2.26,FALSE,FALSE,TRUE,FALSE,"""event"",""trial"",""time""
""fullscreenenter"",""5"",""14892""
","
","
","""event"",""trial"",""time""
""fullscreenenter"",""5"",""14892""
","
",NA,images/earth.jpg,NA,NA,NA,NA,NA,NA,NA,NA,NA,NA,NA,NA,NA,fixation,NA,NA,NA,NA,NA,NA,sub130
d3-animate-choice,216,946266,0.0-76.0-0.27,FALSE,FALSE,TRUE,FALSE,"""event"",""trial"",""time""
""fullscreenenter"",""5"",""14892""
","
","
","""event"",""trial"",""time""
""fullscreenenter"",""5"",""14892""
","
",801.6700000007404,NA,48,NA,NA,3000,1,NA,NA,images/earth.jpg,images/rocket1,images/rocket2,null,images/rocket1,NA,1,real,null,2,NA,NA,NA,sub130
d3-animate-choice,217,949403,0.0-76.0-1.27,FALSE,FALSE,TRUE,FALSE,"""event"",""trial"",""time""
""fullscreenenter"",""5"",""14892""
","
","
","""event"",""trial"",""time""
""fullscreenenter"",""5"",""14892""
","
",1133.6650000012014,NA,49,NA,NA,3000,1,NA,NA,images/purpleplanet.jpg,images/alien4,images/alien3,images/rocket1,images/alien3,images/nothing.png,2,real,true,1,common,0,2020-06-20T19:31:02Z,sub130
two-step-fixation,218,950407,0.0-76.0-2.27,FALSE,FALSE,TRUE,FALSE,"""event"",""trial"",""time""
""fullscreenenter"",""5"",""14892""
","
","
","""event"",""trial"",""time""
""fullscreenenter"",""5"",""14892""
","
",NA,images/earth.jpg,NA,NA,NA,NA,NA,NA,NA,NA,NA,NA,NA,NA,NA,fixation,NA,NA,NA,NA,NA,NA,sub130
d3-animate-choice,219,953451,0.0-76.0-0.28,FALSE,FALSE,TRUE,FALSE,"""event"",""trial"",""time""
""fullscreenenter"",""5"",""14892""
","
","
","""event"",""trial"",""time""
""fullscreenenter"",""5"",""14892""
","
",1038.5200000018813,NA,48,NA,NA,3000,1,NA,NA,images/earth.jpg,images/rocket1,images/rocket2,null,images/rocket1,NA,1,real,null,2,NA,NA,NA,sub130
d3-animate-choice,220,955889,0.0-76.0-1.28,FALSE,FALSE,TRUE,FALSE,"""event"",""trial"",""time""
""fullscreenenter"",""5"",""14892""
","
","
","""event"",""trial"",""time""
""fullscreenenter"",""5"",""14892""
","
",435.09000000637025,NA,48,NA,NA,3000,1,NA,NA,images/purpleplanet.jpg,images/alien4,images/alien3,images/rocket1,images/alien4,images/t.png,2,real,true,2,common,1,2020-06-20T19:31:08Z,sub130
two-step-fixation,221,956894,0.0-76.0-2.28,FALSE,FALSE,TRUE,FALSE,"""event"",""trial"",""time""
""fullscreenenter"",""5"",""14892""
","
","
","""event"",""trial"",""time""
""fullscreenenter"",""5"",""14892""
","
",NA,images/earth.jpg,NA,NA,NA,NA,NA,NA,NA,NA,NA,NA,NA,NA,NA,fixation,NA,NA,NA,NA,NA,NA,sub130
d3-animate-choice,222,959227,0.0-76.0-0.29,FALSE,FALSE,TRUE,FALSE,"""event"",""trial"",""time""
""fullscreenenter"",""5"",""14892""
","
","
","""event"",""trial"",""time""
""fullscreenenter"",""5"",""14892""
","
",327.3800000024494,NA,48,NA,NA,3000,1,NA,NA,images/earth.jpg,images/rocket1,images/rocket2,null,images/rocket1,NA,1,real,null,2,NA,NA,NA,sub130
d3-animate-choice,223,961557,0.0-76.0-1.29,FALSE,FALSE,TRUE,FALSE,"""event"",""trial"",""time""
""fullscreenenter"",""5"",""14892""
","
","
","""event"",""trial"",""time""
""fullscreenenter"",""5"",""14892""
","
",325.8900000001304,NA,48,NA,NA,3000,1,NA,NA,images/redplanet1.jpg,images/alien2,images/alien1,images/rocket1,images/alien2,images/nothing.png,2,real,false,2,rare,0,2020-06-20T19:31:14Z,sub130
two-step-fixation,224,962561,0.0-76.0-2.29,FALSE,FALSE,TRUE,FALSE,"""event"",""trial"",""time""
""fullscreenenter"",""5"",""14892""
","
","
","""event"",""trial"",""time""
""fullscreenenter"",""5"",""14892""
","
",NA,images/earth.jpg,NA,NA,NA,NA,NA,NA,NA,NA,NA,NA,NA,NA,NA,fixation,NA,NA,NA,NA,NA,NA,sub130
d3-animate-choice,225,965048,0.0-76.0-0.30,FALSE,FALSE,TRUE,FALSE,"""event"",""trial"",""time""
""fullscreenenter"",""5"",""14892""
","
","
","""event"",""trial"",""time""
""fullscreenenter"",""5"",""14892""
","
",483.009999996284,NA,48,NA,NA,3000,1,NA,NA,images/earth.jpg,images/rocket1,images/rocket2,null,images/rocket1,NA,1,real,null,2,NA,NA,NA,sub130
d3-animate-choice,226,967844,0.0-76.0-1.30,FALSE,FALSE,TRUE,FALSE,"""event"",""trial"",""time""
""fullscreenenter"",""5"",""14892""
","
","
","""event"",""trial"",""time""
""fullscreenenter"",""5"",""14892""
","
",792.5350000004983,NA,48,NA,NA,3000,1,NA,NA,images/purpleplanet.jpg,images/alien4,images/alien3,images/rocket1,images/alien4,images/nothing.png,2,real,true,2,common,0,2020-06-20T19:31:20Z,sub130
two-step-fixation,227,968847,0.0-76.0-2.30,FALSE,FALSE,TRUE,FALSE,"""event"",""trial"",""time""
""fullscreenenter"",""5"",""14892""
","
","
","""event"",""trial"",""time""
""fullscreenenter"",""5"",""14892""
","
",NA,images/earth.jpg,NA,NA,NA,NA,NA,NA,NA,NA,NA,NA,NA,NA,NA,fixation,NA,NA,NA,NA,NA,NA,sub130
d3-animate-choice,228,971382,0.0-76.0-0.31,FALSE,FALSE,TRUE,FALSE,"""event"",""trial"",""time""
""fullscreenenter"",""5"",""14892""
","
","
","""event"",""trial"",""time""
""fullscreenenter"",""5"",""14892""
","
",530.8799999984913,NA,49,NA,NA,3000,1,NA,NA,images/earth.jpg,images/rocket1,images/rocket2,null,images/rocket2,NA,1,real,null,1,NA,NA,NA,sub130
d3-animate-choice,229,974072,0.0-76.0-1.31,FALSE,FALSE,TRUE,FALSE,"""event"",""trial"",""time""
""fullscreenenter"",""5"",""14892""
","
","
","""event"",""trial"",""time""
""fullscreenenter"",""5"",""14892""
","
",685.6249999981374,NA,49,NA,NA,3000,1,NA,NA,images/redplanet1.jpg,images/alien2,images/alien1,images/rocket2,images/alien1,images/t.png,2,real,true,1,common,1,2020-06-20T19:31:27Z,sub130
two-step-fixation,230,975075,0.0-76.0-2.31,FALSE,FALSE,TRUE,FALSE,"""event"",""trial"",""time""
""fullscreenenter"",""5"",""14892""
","
","
","""event"",""trial"",""time""
""fullscreenenter"",""5"",""14892""
","
",NA,images/earth.jpg,NA,NA,NA,NA,NA,NA,NA,NA,NA,NA,NA,NA,NA,fixation,NA,NA,NA,NA,NA,NA,sub130
d3-animate-choice,231,978099,0.0-76.0-0.32,FALSE,FALSE,TRUE,FALSE,"""event"",""trial"",""time""
""fullscreenenter"",""5"",""14892""
","
","
","""event"",""trial"",""time""
""fullscreenenter"",""5"",""14892""
","
",1020.1600000000326,NA,49,NA,NA,3000,1,NA,NA,images/earth.jpg,images/rocket1,images/rocket2,null,images/rocket2,NA,1,real,null,1,NA,NA,NA,sub130
d3-animate-choice,232,980559,0.0-76.0-1.32,FALSE,FALSE,TRUE,FALSE,"""event"",""trial"",""time""
""fullscreenenter"",""5"",""14892""
","
","
","""event"",""trial"",""time""
""fullscreenenter"",""5"",""14892""
","
",455.4000000061933,NA,49,NA,NA,3000,1,NA,NA,images/redplanet1.jpg,images/alien2,images/alien1,images/rocket2,images/alien1,images/t.png,2,real,true,1,common,1,2020-06-20T19:31:33Z,sub130
two-step-fixation,233,981563,0.0-76.0-2.32,FALSE,FALSE,TRUE,FALSE,"""event"",""trial"",""time""
""fullscreenenter"",""5"",""14892""
","
","
","""event"",""trial"",""time""
""fullscreenenter"",""5"",""14892""
","
",NA,images/earth.jpg,NA,NA,NA,NA,NA,NA,NA,NA,NA,NA,NA,NA,NA,fixation,NA,NA,NA,NA,NA,NA,sub130
d3-animate-choice,234,984088,0.0-76.0-0.33,FALSE,FALSE,TRUE,FALSE,"""event"",""trial"",""time""
""fullscreenenter"",""5"",""14892""
","
","
","""event"",""trial"",""time""
""fullscreenenter"",""5"",""14892""
","
",521.1850000049453,NA,49,NA,NA,3000,1,NA,NA,images/earth.jpg,images/rocket1,images/rocket2,null,images/rocket2,NA,1,real,null,1,NA,NA,NA,sub130
d3-animate-choice,235,986993,0.0-76.0-1.33,FALSE,FALSE,TRUE,FALSE,"""event"",""trial"",""time""
""fullscreenenter"",""5"",""14892""
","
","
","""event"",""trial"",""time""
""fullscreenenter"",""5"",""14892""
","
",901.3750000011642,NA,48,NA,NA,3000,1,NA,NA,images/purpleplanet.jpg,images/alien4,images/alien3,images/rocket2,images/alien4,images/t.png,2,real,false,2,rare,1,2020-06-20T19:31:40Z,sub130
two-step-fixation,236,987998,0.0-76.0-2.33,FALSE,FALSE,TRUE,FALSE,"""event"",""trial"",""time""
""fullscreenenter"",""5"",""14892""
","
","
","""event"",""trial"",""time""
""fullscreenenter"",""5"",""14892""
","
",NA,images/earth.jpg,NA,NA,NA,NA,NA,NA,NA,NA,NA,NA,NA,NA,NA,fixation,NA,NA,NA,NA,NA,NA,sub130
d3-animate-choice,237,990667,0.0-76.0-0.34,FALSE,FALSE,TRUE,FALSE,"""event"",""trial"",""time""
""fullscreenenter"",""5"",""14892""
","
","
","""event"",""trial"",""time""
""fullscreenenter"",""5"",""14892""
","
",663.800000002142,NA,49,NA,NA,3000,1,NA,NA,images/earth.jpg,images/rocket1,images/rocket2,null,images/rocket2,NA,1,real,null,1,NA,NA,NA,sub130
d3-animate-choice,238,993195,0.0-76.0-1.34,FALSE,FALSE,TRUE,FALSE,"""event"",""trial"",""time""
""fullscreenenter"",""5"",""14892""
","
","
","""event"",""trial"",""time""
""fullscreenenter"",""5"",""14892""
","
",524.45000000461,NA,49,NA,NA,3000,1,NA,NA,images/redplanet1.jpg,images/alien2,images/alien1,images/rocket2,images/alien1,images/t.png,2,real,true,1,common,1,2020-06-20T19:31:46Z,sub130
two-step-fixation,239,994198,0.0-76.0-2.34,FALSE,FALSE,TRUE,FALSE,"""event"",""trial"",""time""
""fullscreenenter"",""5"",""14892""
","
","
","""event"",""trial"",""time""
""fullscreenenter"",""5"",""14892""
","
",NA,images/earth.jpg,NA,NA,NA,NA,NA,NA,NA,NA,NA,NA,NA,NA,NA,fixation,NA,NA,NA,NA,NA,NA,sub130
d3-animate-choice,240,996700,0.0-76.0-0.35,FALSE,FALSE,TRUE,FALSE,"""event"",""trial"",""time""
""fullscreenenter"",""5"",""14892""
","
","
","""event"",""trial"",""time""
""fullscreenenter"",""5"",""14892""
","
",497.35999999404885,NA,49,NA,NA,3000,1,NA,NA,images/earth.jpg,images/rocket1,images/rocket2,null,images/rocket2,NA,1,real,null,1,NA,NA,NA,sub130
d3-animate-choice,241,999383,0.0-76.0-1.35,FALSE,FALSE,TRUE,FALSE,"""event"",""trial"",""time""
""fullscreenenter"",""5"",""14892""
","
","
","""event"",""trial"",""time""
""fullscreenenter"",""5"",""14892""
","
",680.2249999963678,NA,48,NA,NA,3000,1,NA,NA,images/purpleplanet.jpg,images/alien4,images/alien3,images/rocket2,images/alien4,images/t.png,2,real,false,2,rare,1,2020-06-20T19:31:52Z,sub130
two-step-fixation,242,1000387,0.0-76.0-2.35,FALSE,FALSE,TRUE,FALSE,"""event"",""trial"",""time""
""fullscreenenter"",""5"",""14892""
","
","
","""event"",""trial"",""time""
""fullscreenenter"",""5"",""14892""
","
",NA,images/earth.jpg,NA,NA,NA,NA,NA,NA,NA,NA,NA,NA,NA,NA,NA,fixation,NA,NA,NA,NA,NA,NA,sub130
d3-animate-choice,243,1002955,0.0-76.0-0.36,FALSE,FALSE,TRUE,FALSE,"""event"",""trial"",""time""
""fullscreenenter"",""5"",""14892""
","
","
","""event"",""trial"",""time""
""fullscreenenter"",""5"",""14892""
","
",565.0800000003073,NA,49,NA,NA,3000,1,NA,NA,images/earth.jpg,images/rocket1,images/rocket2,null,images/rocket2,NA,1,real,null,1,NA,NA,NA,sub130
d3-animate-choice,244,1005995,0.0-76.0-1.36,FALSE,FALSE,TRUE,FALSE,"""event"",""trial"",""time""
""fullscreenenter"",""5"",""14892""
","
","
","""event"",""trial"",""time""
""fullscreenenter"",""5"",""14892""
","
",1035.934999999823,NA,49,NA,NA,3000,1,NA,NA,images/redplanet1.jpg,images/alien2,images/alien1,images/rocket2,images/alien1,images/t.png,2,real,true,1,common,1,2020-06-20T19:31:59Z,sub130
two-step-fixation,245,1006999,0.0-76.0-2.36,FALSE,FALSE,TRUE,FALSE,"""event"",""trial"",""time""
""fullscreenenter"",""5"",""14892""
","
","
","""event"",""trial"",""time""
""fullscreenenter"",""5"",""14892""
","
",NA,images/earth.jpg,NA,NA,NA,NA,NA,NA,NA,NA,NA,NA,NA,NA,NA,fixation,NA,NA,NA,NA,NA,NA,sub130
d3-animate-choice,246,1009360,0.0-76.0-0.37,FALSE,FALSE,TRUE,FALSE,"""event"",""trial"",""time""
""fullscreenenter"",""5"",""14892""
","
","
","""event"",""trial"",""time""
""fullscreenenter"",""5"",""14892""
","
",357.5199999976903,NA,49,NA,NA,3000,1,NA,NA,images/earth.jpg,images/rocket1,images/rocket2,null,images/rocket2,NA,1,real,null,1,NA,NA,NA,sub130
d3-animate-choice,247,1012152,0.0-76.0-1.37,FALSE,FALSE,TRUE,FALSE,"""event"",""trial"",""time""
""fullscreenenter"",""5"",""14892""
","
","
","""event"",""trial"",""time""
""fullscreenenter"",""5"",""14892""
","
",787.4350000056438,NA,48,NA,NA,3000,1,NA,NA,images/purpleplanet.jpg,images/alien4,images/alien3,images/rocket2,images/alien4,images/t.png,2,real,false,2,rare,1,2020-06-20T19:32:05Z,sub130
two-step-fixation,248,1013155,0.0-76.0-2.37,FALSE,FALSE,TRUE,FALSE,"""event"",""trial"",""time""
""fullscreenenter"",""5"",""14892""
","
","
","""event"",""trial"",""time""
""fullscreenenter"",""5"",""14892""
","
",NA,images/earth.jpg,NA,NA,NA,NA,NA,NA,NA,NA,NA,NA,NA,NA,NA,fixation,NA,NA,NA,NA,NA,NA,sub130
d3-animate-choice,249,1015531,0.0-76.0-0.38,FALSE,FALSE,TRUE,FALSE,"""event"",""trial"",""time""
""fullscreenenter"",""5"",""14892""
","
","
","""event"",""trial"",""time""
""fullscreenenter"",""5"",""14892""
","
",371.785000002943,NA,49,NA,NA,3000,1,NA,NA,images/earth.jpg,images/rocket1,images/rocket2,null,images/rocket2,NA,1,real,null,1,NA,NA,NA,sub130
d3-animate-choice,250,1018031,0.0-76.0-1.38,FALSE,FALSE,TRUE,FALSE,"""event"",""trial"",""time""
""fullscreenenter"",""5"",""14892""
","
","
","""event"",""trial"",""time""
""fullscreenenter"",""5"",""14892""
","
",495.7800000049174,NA,49,NA,NA,3000,1,NA,NA,images/redplanet1.jpg,images/alien2,images/alien1,images/rocket2,images/alien1,images/t.png,2,real,true,1,common,1,2020-06-20T19:32:11Z,sub130
two-step-fixation,251,1019035,0.0-76.0-2.38,FALSE,FALSE,TRUE,FALSE,"""event"",""trial"",""time""
""fullscreenenter"",""5"",""14892""
","
","
","""event"",""trial"",""time""
""fullscreenenter"",""5"",""14892""
","
",NA,images/earth.jpg,NA,NA,NA,NA,NA,NA,NA,NA,NA,NA,NA,NA,NA,fixation,NA,NA,NA,NA,NA,NA,sub130
d3-animate-choice,252,1021711,0.0-76.0-0.39,FALSE,FALSE,TRUE,FALSE,"""event"",""trial"",""time""
""fullscreenenter"",""5"",""14892""
","
","
","""event"",""trial"",""time""
""fullscreenenter"",""5"",""14892""
","
",671.4700000011362,NA,49,NA,NA,3000,1,NA,NA,images/earth.jpg,images/rocket1,images/rocket2,null,images/rocket2,NA,1,real,null,1,NA,NA,NA,sub130
d3-animate-choice,253,1024285,0.0-76.0-1.39,FALSE,FALSE,TRUE,FALSE,"""event"",""trial"",""time""
""fullscreenenter"",""5"",""14892""
","
","
","""event"",""trial"",""time""
""fullscreenenter"",""5"",""14892""
","
",570.0649999999441,NA,48,NA,NA,3000,1,NA,NA,images/purpleplanet.jpg,images/alien4,images/alien3,images/rocket2,images/alien4,images/t.png,2,real,false,2,rare,1,2020-06-20T19:32:17Z,sub130
two-step-fixation,254,1025288,0.0-76.0-2.39,FALSE,FALSE,TRUE,FALSE,"""event"",""trial"",""time""
""fullscreenenter"",""5"",""14892""
","
","
","""event"",""trial"",""time""
""fullscreenenter"",""5"",""14892""
","
",NA,images/earth.jpg,NA,NA,NA,NA,NA,NA,NA,NA,NA,NA,NA,NA,NA,fixation,NA,NA,NA,NA,NA,NA,sub130
d3-animate-choice,255,1027750,0.0-76.0-0.40,FALSE,FALSE,TRUE,FALSE,"""event"",""trial"",""time""
""fullscreenenter"",""5"",""14892""
","
","
","""event"",""trial"",""time""
""fullscreenenter"",""5"",""14892""
","
",457.31000000517815,NA,49,NA,NA,3000,1,NA,NA,images/earth.jpg,images/rocket1,images/rocket2,null,images/rocket2,NA,1,real,null,1,NA,NA,NA,sub130
d3-animate-choice,256,1030112,0.0-76.0-1.40,FALSE,FALSE,TRUE,FALSE,"""event"",""trial"",""time""
""fullscreenenter"",""5"",""14892""
","
","
","""event"",""trial"",""time""
""fullscreenenter"",""5"",""14892""
","
",357.739999999525,NA,49,NA,NA,3000,1,NA,NA,images/redplanet1.jpg,images/alien2,images/alien1,images/rocket2,images/alien1,images/t.png,2,real,true,1,common,1,2020-06-20T19:32:23Z,sub130
two-step-fixation,257,1031116,0.0-76.0-2.40,FALSE,FALSE,TRUE,FALSE,"""event"",""trial"",""time""
""fullscreenenter"",""5"",""14892""
","
","
","""event"",""trial"",""time""
""fullscreenenter"",""5"",""14892""
","
",NA,images/earth.jpg,NA,NA,NA,NA,NA,NA,NA,NA,NA,NA,NA,NA,NA,fixation,NA,NA,NA,NA,NA,NA,sub130
d3-animate-choice,258,1033456,0.0-76.0-0.41,FALSE,FALSE,TRUE,FALSE,"""event"",""trial"",""time""
""fullscreenenter"",""5"",""14892""
","
","
","""event"",""trial"",""time""
""fullscreenenter"",""5"",""14892""
","
",336.98500000173226,NA,49,NA,NA,3000,1,NA,NA,images/earth.jpg,images/rocket1,images/rocket2,null,images/rocket2,NA,1,real,null,1,NA,NA,NA,sub130
d3-animate-choice,259,1036140,0.0-76.0-1.41,FALSE,FALSE,TRUE,FALSE,"""event"",""trial"",""time""
""fullscreenenter"",""5"",""14892""
","
","
","""event"",""trial"",""time""
""fullscreenenter"",""5"",""14892""
","
",679.9200000022538,NA,48,NA,NA,3000,1,NA,NA,images/redplanet1.jpg,images/alien2,images/alien1,images/rocket2,images/alien2,images/t.png,2,real,true,2,common,1,2020-06-20T19:32:29Z,sub130
two-step-fixation,260,1037144,0.0-76.0-2.41,FALSE,FALSE,TRUE,FALSE,"""event"",""trial"",""time""
""fullscreenenter"",""5"",""14892""
","
","
","""event"",""trial"",""time""
""fullscreenenter"",""5"",""14892""
","
",NA,images/earth.jpg,NA,NA,NA,NA,NA,NA,NA,NA,NA,NA,NA,NA,NA,fixation,NA,NA,NA,NA,NA,NA,sub130
d3-animate-choice,261,1039845,0.0-76.0-0.42,FALSE,FALSE,TRUE,FALSE,"""event"",""trial"",""time""
""fullscreenenter"",""5"",""14892""
","
","
","""event"",""trial"",""time""
""fullscreenenter"",""5"",""14892""
","
",697.7950000001583,NA,49,NA,NA,3000,1,NA,NA,images/earth.jpg,images/rocket1,images/rocket2,null,images/rocket2,NA,1,real,null,1,NA,NA,NA,sub130
d3-animate-choice,262,1042684,0.0-76.0-1.42,FALSE,FALSE,TRUE,FALSE,"""event"",""trial"",""time""
""fullscreenenter"",""5"",""14892""
","
","
","""event"",""trial"",""time""
""fullscreenenter"",""5"",""14892""
","
",835.3249999999534,NA,49,NA,NA,3000,1,NA,NA,images/redplanet1.jpg,images/alien2,images/alien1,images/rocket2,images/alien1,images/t.png,2,real,true,1,common,1,2020-06-20T19:32:35Z,sub130
two-step-fixation,263,1043687,0.0-76.0-2.42,FALSE,FALSE,TRUE,FALSE,"""event"",""trial"",""time""
""fullscreenenter"",""5"",""14892""
","
","
","""event"",""trial"",""time""
""fullscreenenter"",""5"",""14892""
","
",NA,images/earth.jpg,NA,NA,NA,NA,NA,NA,NA,NA,NA,NA,NA,NA,NA,fixation,NA,NA,NA,NA,NA,NA,sub130
d3-animate-choice,264,1046188,0.0-76.0-0.43,FALSE,FALSE,TRUE,FALSE,"""event"",""trial"",""time""
""fullscreenenter"",""5"",""14892""
","
","
","""event"",""trial"",""time""
""fullscreenenter"",""5"",""14892""
","
",496.4599999948405,NA,49,NA,NA,3000,1,NA,NA,images/earth.jpg,images/rocket1,images/rocket2,null,images/rocket2,NA,1,real,null,1,NA,NA,NA,sub130
d3-animate-choice,265,1049750,0.0-76.0-1.43,FALSE,FALSE,TRUE,FALSE,"""event"",""trial"",""time""
""fullscreenenter"",""5"",""14892""
","
","
","""event"",""trial"",""time""
""fullscreenenter"",""5"",""14892""
","
",1558.4250000028405,NA,49,NA,NA,3000,1,NA,NA,images/redplanet1.jpg,images/alien2,images/alien1,images/rocket2,images/alien1,images/t.png,2,real,true,1,common,1,2020-06-20T19:32:42Z,sub130
two-step-fixation,266,1050753,0.0-76.0-2.43,FALSE,FALSE,TRUE,FALSE,"""event"",""trial"",""time""
""fullscreenenter"",""5"",""14892""
","
","
","""event"",""trial"",""time""
""fullscreenenter"",""5"",""14892""
","
",NA,images/earth.jpg,NA,NA,NA,NA,NA,NA,NA,NA,NA,NA,NA,NA,NA,fixation,NA,NA,NA,NA,NA,NA,sub130
d3-animate-choice,267,1053380,0.0-76.0-0.44,FALSE,FALSE,TRUE,FALSE,"""event"",""trial"",""time""
""fullscreenenter"",""5"",""14892""
","
","
","""event"",""trial"",""time""
""fullscreenenter"",""5"",""14892""
","
",621.8499999959022,NA,49,NA,NA,3000,1,NA,NA,images/earth.jpg,images/rocket1,images/rocket2,null,images/rocket2,NA,1,real,null,1,NA,NA,NA,sub130
d3-animate-choice,268,1056111,0.0-76.0-1.44,FALSE,FALSE,TRUE,FALSE,"""event"",""trial"",""time""
""fullscreenenter"",""5"",""14892""
","
","
","""event"",""trial"",""time""
""fullscreenenter"",""5"",""14892""
","
",727.3350000032224,NA,49,NA,NA,3000,1,NA,NA,images/redplanet1.jpg,images/alien2,images/alien1,images/rocket2,images/alien1,images/nothing.png,2,real,true,1,common,0,2020-06-20T19:32:49Z,sub130
two-step-fixation,269,1057114,0.0-76.0-2.44,FALSE,FALSE,TRUE,FALSE,"""event"",""trial"",""time""
""fullscreenenter"",""5"",""14892""
","
","
","""event"",""trial"",""time""
""fullscreenenter"",""5"",""14892""
","
",NA,images/earth.jpg,NA,NA,NA,NA,NA,NA,NA,NA,NA,NA,NA,NA,NA,fixation,NA,NA,NA,NA,NA,NA,sub130
d3-animate-choice,270,1059777,0.0-76.0-0.45,FALSE,FALSE,TRUE,FALSE,"""event"",""trial"",""time""
""fullscreenenter"",""5"",""14892""
","
","
","""event"",""trial"",""time""
""fullscreenenter"",""5"",""14892""
","
",659.050000002142,NA,49,NA,NA,3000,1,NA,NA,images/earth.jpg,images/rocket1,images/rocket2,null,images/rocket2,NA,1,real,null,1,NA,NA,NA,sub130
d3-animate-choice,271,1062110,0.0-76.0-1.45,FALSE,FALSE,TRUE,FALSE,"""event"",""trial"",""time""
""fullscreenenter"",""5"",""14892""
","
","
","""event"",""trial"",""time""
""fullscreenenter"",""5"",""14892""
","
",326.0399999998044,NA,48,NA,NA,3000,1,NA,NA,images/redplanet1.jpg,images/alien2,images/alien1,images/rocket2,images/alien2,images/nothing.png,2,real,true,2,common,0,2020-06-20T19:32:55Z,sub130
two-step-fixation,272,1063113,0.0-76.0-2.45,FALSE,FALSE,TRUE,FALSE,"""event"",""trial"",""time""
""fullscreenenter"",""5"",""14892""
","
","
","""event"",""trial"",""time""
""fullscreenenter"",""5"",""14892""
","
",NA,images/earth.jpg,NA,NA,NA,NA,NA,NA,NA,NA,NA,NA,NA,NA,NA,fixation,NA,NA,NA,NA,NA,NA,sub130
d3-animate-choice,273,1066096,0.0-76.0-0.46,FALSE,FALSE,TRUE,FALSE,"""event"",""trial"",""time""
""fullscreenenter"",""5"",""14892""
","
","
","""event"",""trial"",""time""
""fullscreenenter"",""5"",""14892""
","
",978.204999999376,NA,48,NA,NA,3000,1,NA,NA,images/earth.jpg,images/rocket1,images/rocket2,null,images/rocket1,NA,1,real,null,2,NA,NA,NA,sub130
d3-animate-choice,274,1069430,0.0-76.0-1.46,FALSE,FALSE,TRUE,FALSE,"""event"",""trial"",""time""
""fullscreenenter"",""5"",""14892""
","
","
","""event"",""trial"",""time""
""fullscreenenter"",""5"",""14892""
","
",1330.004999996163,NA,48,NA,NA,3000,1,NA,NA,images/redplanet1.jpg,images/alien2,images/alien1,images/rocket1,images/alien2,images/t.png,2,real,false,2,rare,1,2020-06-20T19:33:02Z,sub130
two-step-fixation,275,1070434,0.0-76.0-2.46,FALSE,FALSE,TRUE,FALSE,"""event"",""trial"",""time""
""fullscreenenter"",""5"",""14892""
","
","
","""event"",""trial"",""time""
""fullscreenenter"",""5"",""14892""
","
",NA,images/earth.jpg,NA,NA,NA,NA,NA,NA,NA,NA,NA,NA,NA,NA,NA,fixation,NA,NA,NA,NA,NA,NA,sub130
d3-animate-choice,276,1073999,0.0-76.0-0.47,FALSE,FALSE,TRUE,FALSE,"""event"",""trial"",""time""
""fullscreenenter"",""5"",""14892""
","
","
","""event"",""trial"",""time""
""fullscreenenter"",""5"",""14892""
","
",1560.3650000048801,NA,48,NA,NA,3000,1,NA,NA,images/earth.jpg,images/rocket1,images/rocket2,null,images/rocket1,NA,1,real,null,2,NA,NA,NA,sub130
d3-animate-choice,277,1076446,0.0-76.0-1.47,FALSE,FALSE,TRUE,FALSE,"""event"",""trial"",""time""
""fullscreenenter"",""5"",""14892""
","
","
","""event"",""trial"",""time""
""fullscreenenter"",""5"",""14892""
","
",442.54499999806285,NA,48,NA,NA,3000,1,NA,NA,images/purpleplanet.jpg,images/alien4,images/alien3,images/rocket1,images/alien4,images/nothing.png,2,real,true,2,common,0,2020-06-20T19:33:09Z,sub130
two-step-fixation,278,1077449,0.0-76.0-2.47,FALSE,FALSE,TRUE,FALSE,"""event"",""trial"",""time""
""fullscreenenter"",""5"",""14892""
","
","
","""event"",""trial"",""time""
""fullscreenenter"",""5"",""14892""
","
",NA,images/earth.jpg,NA,NA,NA,NA,NA,NA,NA,NA,NA,NA,NA,NA,NA,fixation,NA,NA,NA,NA,NA,NA,sub130
d3-animate-choice,279,1079892,0.0-76.0-0.48,FALSE,FALSE,TRUE,FALSE,"""event"",""trial"",""time""
""fullscreenenter"",""5"",""14892""
","
","
","""event"",""trial"",""time""
""fullscreenenter"",""5"",""14892""
","
",438.945000001695,NA,48,NA,NA,3000,1,NA,NA,images/earth.jpg,images/rocket1,images/rocket2,null,images/rocket1,NA,1,real,null,2,NA,NA,NA,sub130
d3-animate-choice,280,1083097,0.0-76.0-1.48,FALSE,FALSE,TRUE,FALSE,"""event"",""trial"",""time""
""fullscreenenter"",""5"",""14892""
","
","
","""event"",""trial"",""time""
""fullscreenenter"",""5"",""14892""
","
",1200.0199999965262,NA,48,NA,NA,3000,1,NA,NA,images/redplanet1.jpg,images/alien2,images/alien1,images/rocket1,images/alien2,images/nothing.png,2,real,false,2,rare,0,2020-06-20T19:33:16Z,sub130
two-step-fixation,281,1084101,0.0-76.0-2.48,FALSE,FALSE,TRUE,FALSE,"""event"",""trial"",""time""
""fullscreenenter"",""5"",""14892""
","
","
","""event"",""trial"",""time""
""fullscreenenter"",""5"",""14892""
","
",NA,images/earth.jpg,NA,NA,NA,NA,NA,NA,NA,NA,NA,NA,NA,NA,NA,fixation,NA,NA,NA,NA,NA,NA,sub130
d3-animate-choice,282,1086658,0.0-76.0-0.49,FALSE,FALSE,TRUE,FALSE,"""event"",""trial"",""time""
""fullscreenenter"",""5"",""14892""
","
","
","""event"",""trial"",""time""
""fullscreenenter"",""5"",""14892""
","
