trial_type,trial_index,time_elapsed,internal_node_id,rocket_sides,red_planet_first_rocket,red_display_order,purple_display_order,interactions,blur_events,focus_events,fullscreenenter_events,fullscreenexit_events,rt,stimulus,key_press,button_pressed,success,duration,valid_pressed,rts,keys,planet_text,right_text,left_text,center_text,chosen_text,reward_text,trial_stage,practice_trial,transition_type,choice,transition,reward,timestamp,subject_id
pavlovia,0,5,0.0-0.0,TRUE,FALSE,FALSE,FALSE,"
","
","
","
","
",NA,NA,NA,NA,NA,NA,NA,NA,NA,NA,NA,NA,NA,NA,NA,NA,NA,NA,NA,NA,NA,NA,sub115
html-keyboard-response,1,897,0.0-1.0,TRUE,FALSE,FALSE,FALSE,"
","
","
","
","
",890.2900000030058,Welcome! Press the space bar to begin.,32,NA,NA,NA,NA,NA,NA,NA,NA,NA,NA,NA,NA,NA,NA,NA,NA,NA,NA,NA,sub115
audio-keyboard-response,2,4084,0.0-2.0,TRUE,FALSE,FALSE,FALSE,"
","
","
","
","
",3135,audio/beep_loop.wav,32,NA,NA,NA,NA,NA,NA,NA,NA,NA,NA,NA,NA,NA,NA,NA,NA,NA,NA,NA,sub115
audio-button-response,3,11686,0.0-3.0,TRUE,FALSE,FALSE,FALSE,"
","
","
","
","
",NaN,audio/fish.mp3,NA,1,NA,NA,NA,NA,NA,NA,NA,NA,NA,NA,NA,NA,NA,NA,NA,NA,NA,NA,sub115
audio-button-response,4,14791,0.0-4.0,TRUE,FALSE,FALSE,FALSE,"""event"",""trial"",""time""
""fullscreenenter"",""5"",""19942""
","
","
","""event"",""trial"",""time""
""fullscreenenter"",""5"",""19942""
","
",NaN,audio/tiger.mp3,NA,4,NA,NA,NA,NA,NA,NA,NA,NA,NA,NA,NA,NA,NA,NA,NA,NA,NA,NA,sub115
fullscreen,5,20882,0.0-5.0,TRUE,FALSE,FALSE,FALSE,"""event"",""trial"",""time""
""fullscreenenter"",""5"",""19942""
","
","
","""event"",""trial"",""time""
""fullscreenenter"",""5"",""19942""
","
",NA,NA,NA,NA,TRUE,NA,NA,NA,NA,NA,NA,NA,NA,NA,NA,NA,NA,NA,NA,NA,NA,NA,sub115
d3-instructions,6,30818,0.0-6.0,TRUE,FALSE,FALSE,FALSE,"""event"",""trial"",""time""
""fullscreenenter"",""5"",""19942""
","
","
","""event"",""trial"",""time""
""fullscreenenter"",""5"",""19942""
","
",NA,NA,NA,NA,NA,NA,NA,NA,NA,NA,NA,NA,NA,NA,NA,NA,NA,NA,NA,NA,NA,NA,sub115
d3-instructions,7,42839,0.0-7.0,TRUE,FALSE,FALSE,FALSE,"""event"",""trial"",""time""
""fullscreenenter"",""5"",""19942""
","
","
","""event"",""trial"",""time""
""fullscreenenter"",""5"",""19942""
","
",NA,NA,NA,NA,NA,NA,NA,NA,NA,NA,NA,NA,NA,NA,NA,NA,NA,NA,NA,NA,NA,NA,sub115
d3-instructions,8,49032,0.0-8.0,TRUE,FALSE,FALSE,FALSE,"""event"",""trial"",""time""
""fullscreenenter"",""5"",""19942""
","
","
","""event"",""trial"",""time""
""fullscreenenter"",""5"",""19942""
","
",NA,NA,NA,NA,NA,NA,NA,NA,NA,NA,NA,NA,NA,NA,NA,NA,NA,NA,NA,NA,NA,NA,sub115
d3-instructions,9,59543,0.0-9.0,TRUE,FALSE,FALSE,FALSE,"""event"",""trial"",""time""
""fullscreenenter"",""5"",""19942""
","
","
","""event"",""trial"",""time""
""fullscreenenter"",""5"",""19942""
","
",NA,NA,NA,NA,NA,NA,NA,NA,NA,NA,NA,NA,NA,NA,NA,NA,NA,NA,NA,NA,NA,NA,sub115
d3-instructions,10,79901,0.0-10.0,TRUE,FALSE,FALSE,FALSE,"""event"",""trial"",""time""
""fullscreenenter"",""5"",""19942""
","
","
","""event"",""trial"",""time""
""fullscreenenter"",""5"",""19942""
","
",NA,NA,NA,NA,NA,NA,NA,NA,NA,NA,NA,NA,NA,NA,NA,NA,NA,NA,NA,NA,NA,NA,sub115
d3-animate-choice,11,82747,0.0-11.0,TRUE,FALSE,FALSE,FALSE,"""event"",""trial"",""time""
""fullscreenenter"",""5"",""19942""
","
","
","""event"",""trial"",""time""
""fullscreenenter"",""5"",""19942""
","
",838.5500000003958,NA,49,NA,NA,3000,1,2082.524999997986,48,images/tutgreenplanet.jpg,images/tutalien1,images/tutalien2,null,images/tutalien2,NA,NA,practice,null,NA,NA,NA,NA,sub115
d3-animate-choice,12,85690,0.0-12.0,TRUE,FALSE,FALSE,FALSE,"""event"",""trial"",""time""
""fullscreenenter"",""5"",""19942""
","
","
","""event"",""trial"",""time""
""fullscreenenter"",""5"",""19942""
","
",939.3800000034389,NA,48,NA,NA,3000,1,NA,NA,images/tutgreenplanet.jpg,images/tutalien1,images/tutalien2,null,images/tutalien1,NA,NA,practice,null,NA,NA,NA,NA,sub115
d3-animate-choice,13,89416,0.0-13.0,TRUE,FALSE,FALSE,FALSE,"""event"",""trial"",""time""
""fullscreenenter"",""5"",""19942""
","
","
","""event"",""trial"",""time""
""fullscreenenter"",""5"",""19942""
","
",1718.7199999971199,NA,49,NA,NA,3000,1,NA,NA,images/tutgreenplanet.jpg,images/tutalien1,images/tutalien2,null,images/tutalien2,NA,NA,practice,null,NA,NA,NA,NA,sub115
d3-animate-choice,14,91830,0.0-14.0,TRUE,FALSE,FALSE,FALSE,"""event"",""trial"",""time""
""fullscreenenter"",""5"",""19942""
","
","
","""event"",""trial"",""time""
""fullscreenenter"",""5"",""19942""
","
",406.6850000017439,NA,48,NA,NA,3000,1,NA,NA,images/tutgreenplanet.jpg,images/tutalien1,images/tutalien2,null,images/tutalien1,NA,NA,practice,null,NA,NA,NA,NA,sub115
d3-instructions,15,98111,0.0-15.0,TRUE,FALSE,FALSE,FALSE,"""event"",""trial"",""time""
""fullscreenenter"",""5"",""19942""
","
","
","""event"",""trial"",""time""
""fullscreenenter"",""5"",""19942""
","
",NA,NA,NA,NA,NA,NA,NA,NA,NA,NA,NA,NA,NA,NA,NA,NA,NA,NA,NA,NA,NA,NA,sub115
d3-instructions,16,101831,0.0-16.0,TRUE,FALSE,FALSE,FALSE,"""event"",""trial"",""time""
""fullscreenenter"",""5"",""19942""
","
","
","""event"",""trial"",""time""
""fullscreenenter"",""5"",""19942""
","
",NA,NA,NA,NA,NA,NA,NA,NA,NA,NA,NA,NA,NA,NA,NA,NA,NA,NA,NA,NA,NA,NA,sub115
d3-instructions,17,107620,0.0-17.0,TRUE,FALSE,FALSE,FALSE,"""event"",""trial"",""time""
""fullscreenenter"",""5"",""19942""
","
","
","""event"",""trial"",""time""
""fullscreenenter"",""5"",""19942""
","
",NA,NA,NA,NA,NA,NA,NA,NA,NA,NA,NA,NA,NA,NA,NA,NA,NA,NA,NA,NA,NA,NA,sub115
d3-instructions,18,116971,0.0-18.0,TRUE,FALSE,FALSE,FALSE,"""event"",""trial"",""time""
""fullscreenenter"",""5"",""19942""
","
","
","""event"",""trial"",""time""
""fullscreenenter"",""5"",""19942""
","
",NA,NA,NA,NA,NA,NA,NA,NA,NA,NA,NA,NA,NA,NA,NA,NA,NA,NA,NA,NA,NA,NA,sub115
d3-instructions,19,128328,0.0-19.0,TRUE,FALSE,FALSE,FALSE,"""event"",""trial"",""time""
""fullscreenenter"",""5"",""19942""
","
","
","""event"",""trial"",""time""
""fullscreenenter"",""5"",""19942""
","
",NA,NA,NA,NA,NA,NA,NA,NA,NA,NA,NA,NA,NA,NA,NA,NA,NA,NA,NA,NA,NA,NA,sub115
d3-animate-choice,20,130949,0.0-20.0,TRUE,FALSE,FALSE,FALSE,"""event"",""trial"",""time""
""fullscreenenter"",""5"",""19942""
","
","
","""event"",""trial"",""time""
""fullscreenenter"",""5"",""19942""
","
",612.8049999970244,NA,49,NA,NA,3000,1,NA,NA,images/tutyellowplanet.jpg,null,images/tutalien3,null,images/tutalien3,images/t.png,NA,practice,null,NA,NA,NA,NA,sub115
d3-animate-choice,21,133505,0.0-21.0,TRUE,FALSE,FALSE,FALSE,"""event"",""trial"",""time""
""fullscreenenter"",""5"",""19942""
","
","
","""event"",""trial"",""time""
""fullscreenenter"",""5"",""19942""
","
",552.4349999977858,NA,49,NA,NA,3000,1,NA,NA,images/tutyellowplanet.jpg,null,images/tutalien3,null,images/tutalien3,images/t.png,NA,practice,null,NA,NA,NA,NA,sub115
d3-animate-choice,22,135827,0.0-22.0,TRUE,FALSE,FALSE,FALSE,"""event"",""trial"",""time""
""fullscreenenter"",""5"",""19942""
","
","
","""event"",""trial"",""time""
""fullscreenenter"",""5"",""19942""
","
",315.8250000051339,NA,49,NA,NA,3000,1,NA,NA,images/tutyellowplanet.jpg,null,images/tutalien3,null,images/tutalien3,images/nothing.png,NA,practice,null,NA,NA,NA,NA,sub115
d3-animate-choice,23,138138,0.0-23.0,TRUE,FALSE,FALSE,FALSE,"""event"",""trial"",""time""
""fullscreenenter"",""5"",""19942""
","
","
","""event"",""trial"",""time""
""fullscreenenter"",""5"",""19942""
","
",303.54500000248663,NA,49,NA,NA,3000,1,NA,NA,images/tutyellowplanet.jpg,null,images/tutalien3,null,images/tutalien3,images/t.png,NA,practice,null,NA,NA,NA,NA,sub115
d3-animate-choice,24,140518,0.0-24.0,TRUE,FALSE,FALSE,FALSE,"""event"",""trial"",""time""
""fullscreenenter"",""5"",""19942""
","
","
","""event"",""trial"",""time""
""fullscreenenter"",""5"",""19942""
","
",375.7850000038161,NA,49,NA,NA,3000,1,NA,NA,images/tutyellowplanet.jpg,null,images/tutalien3,null,images/tutalien3,images/t.png,NA,practice,null,NA,NA,NA,NA,sub115
d3-animate-choice,25,142811,0.0-25.0,TRUE,FALSE,FALSE,FALSE,"""event"",""trial"",""time""
""fullscreenenter"",""5"",""19942""
","
","
","""event"",""trial"",""time""
""fullscreenenter"",""5"",""19942""
","
",290.0549999976647,NA,49,NA,NA,3000,1,NA,NA,images/tutyellowplanet.jpg,null,images/tutalien3,null,images/tutalien3,images/t.png,NA,practice,null,NA,NA,NA,NA,sub115
d3-animate-choice,26,145092,0.0-26.0,TRUE,FALSE,FALSE,FALSE,"""event"",""trial"",""time""
""fullscreenenter"",""5"",""19942""
","
","
","""event"",""trial"",""time""
""fullscreenenter"",""5"",""19942""
","
",273.525000004156,NA,49,NA,NA,3000,1,NA,NA,images/tutyellowplanet.jpg,null,images/tutalien3,null,images/tutalien3,images/t.png,NA,practice,null,NA,NA,NA,NA,sub115
d3-animate-choice,27,147432,0.0-27.0,TRUE,FALSE,FALSE,FALSE,"""event"",""trial"",""time""
""fullscreenenter"",""5"",""19942""
","
","
","""event"",""trial"",""time""
""fullscreenenter"",""5"",""19942""
","
",333.2399999999325,NA,49,NA,NA,3000,1,NA,NA,images/tutyellowplanet.jpg,null,images/tutalien3,null,images/tutalien3,images/t.png,NA,practice,null,NA,NA,NA,NA,sub115
d3-animate-choice,28,149713,0.0-28.0,TRUE,FALSE,FALSE,FALSE,"""event"",""trial"",""time""
""fullscreenenter"",""5"",""19942""
","
","
","""event"",""trial"",""time""
""fullscreenenter"",""5"",""19942""
","
",273.1599999970058,NA,49,NA,NA,3000,1,NA,NA,images/tutyellowplanet.jpg,null,images/tutalien3,null,images/tutalien3,images/t.png,NA,practice,null,NA,NA,NA,NA,sub115
d3-animate-choice,29,152006,0.0-29.0,TRUE,FALSE,FALSE,FALSE,"""event"",""trial"",""time""
""fullscreenenter"",""5"",""19942""
","
","
","""event"",""trial"",""time""
""fullscreenenter"",""5"",""19942""
","
",289.2599999977392,NA,49,NA,NA,3000,1,NA,NA,images/tutyellowplanet.jpg,null,images/tutalien3,null,images/tutalien3,images/t.png,NA,practice,null,NA,NA,NA,NA,sub115
d3-instructions,30,158875,0.0-30.0,TRUE,FALSE,FALSE,FALSE,"""event"",""trial"",""time""
""fullscreenenter"",""5"",""19942""
","
","
","""event"",""trial"",""time""
""fullscreenenter"",""5"",""19942""
","
",NA,NA,NA,NA,NA,NA,NA,NA,NA,NA,NA,NA,NA,NA,NA,NA,NA,NA,NA,NA,NA,NA,sub115
d3-instructions,31,165717,0.0-31.0,TRUE,FALSE,FALSE,FALSE,"""event"",""trial"",""time""
""fullscreenenter"",""5"",""19942""
","
","
","""event"",""trial"",""time""
""fullscreenenter"",""5"",""19942""
","
",NA,NA,NA,NA,NA,NA,NA,NA,NA,NA,NA,NA,NA,NA,NA,NA,NA,NA,NA,NA,NA,NA,sub115
d3-instructions,32,172453,0.0-32.0,TRUE,FALSE,FALSE,FALSE,"""event"",""trial"",""time""
""fullscreenenter"",""5"",""19942""
","
","
","""event"",""trial"",""time""
""fullscreenenter"",""5"",""19942""
","
",NA,NA,NA,NA,NA,NA,NA,NA,NA,NA,NA,NA,NA,NA,NA,NA,NA,NA,NA,NA,NA,NA,sub115
d3-instructions,33,176464,0.0-33.0,TRUE,FALSE,FALSE,FALSE,"""event"",""trial"",""time""
""fullscreenenter"",""5"",""19942""
","
","
","""event"",""trial"",""time""
""fullscreenenter"",""5"",""19942""
","
",NA,NA,NA,NA,NA,NA,NA,NA,NA,NA,NA,NA,NA,NA,NA,NA,NA,NA,NA,NA,NA,NA,sub115
d3-animate-choice,34,181988,0.0-34.0,TRUE,FALSE,FALSE,FALSE,"""event"",""trial"",""time""
""fullscreenenter"",""5"",""19942""
","
","
","""event"",""trial"",""time""
""fullscreenenter"",""5"",""19942""
","
",3518.015000001469,NA,48,NA,NA,3000,1,NA,NA,images/tutgreenplanet.jpg,images/tutalien1,images/tutalien2,null,images/tutalien1,images/nothing.png,NA,practice,null,NA,NA,NA,NA,sub115
d3-animate-choice,35,186307,0.0-35.0,TRUE,FALSE,FALSE,FALSE,"""event"",""trial"",""time""
""fullscreenenter"",""5"",""19942""
","
","
","""event"",""trial"",""time""
""fullscreenenter"",""5"",""19942""
","
",2313.9400000000023,NA,49,NA,NA,3000,1,NA,NA,images/tutgreenplanet.jpg,images/tutalien1,images/tutalien2,null,images/tutalien2,images/t.png,NA,practice,null,NA,NA,NA,NA,sub115
d3-animate-choice,36,189304,0.0-36.0,TRUE,FALSE,FALSE,FALSE,"""event"",""trial"",""time""
""fullscreenenter"",""5"",""19942""
","
","
","""event"",""trial"",""time""
""fullscreenenter"",""5"",""19942""
","
",991.954999997688,NA,48,NA,NA,3000,1,NA,NA,images/tutgreenplanet.jpg,images/tutalien1,images/tutalien2,null,images/tutalien1,images/nothing.png,NA,practice,null,NA,NA,NA,NA,sub115
d3-animate-choice,37,191793,0.0-37.0,TRUE,FALSE,FALSE,FALSE,"""event"",""trial"",""time""
""fullscreenenter"",""5"",""19942""
","
","
","""event"",""trial"",""time""
""fullscreenenter"",""5"",""19942""
","
",482.11499999888474,NA,49,NA,NA,3000,1,NA,NA,images/tutgreenplanet.jpg,images/tutalien1,images/tutalien2,null,images/tutalien2,images/nothing.png,NA,practice,null,NA,NA,NA,NA,sub115
d3-animate-choice,38,194799,0.0-38.0,TRUE,FALSE,FALSE,FALSE,"""event"",""trial"",""time""
""fullscreenenter"",""5"",""19942""
","
","
","""event"",""trial"",""time""
""fullscreenenter"",""5"",""19942""
","
",1002.7449999979581,NA,49,NA,NA,3000,1,NA,NA,images/tutgreenplanet.jpg,images/tutalien1,images/tutalien2,null,images/tutalien2,images/t.png,NA,practice,null,NA,NA,NA,NA,sub115
d3-animate-choice,39,197608,0.0-39.0,TRUE,FALSE,FALSE,FALSE,"""event"",""trial"",""time""
""fullscreenenter"",""5"",""19942""
","
","
","""event"",""trial"",""time""
""fullscreenenter"",""5"",""19942""
","
",804.3449999968288,NA,49,NA,NA,3000,1,NA,NA,images/tutgreenplanet.jpg,images/tutalien1,images/tutalien2,null,images/tutalien2,images/t.png,NA,practice,null,NA,NA,NA,NA,sub115
d3-animate-choice,40,200523,0.0-40.0,TRUE,FALSE,FALSE,FALSE,"""event"",""trial"",""time""
""fullscreenenter"",""5"",""19942""
","
","
","""event"",""trial"",""time""
""fullscreenenter"",""5"",""19942""
","
",907.6399999976275,NA,49,NA,NA,3000,1,NA,NA,images/tutgreenplanet.jpg,images/tutalien1,images/tutalien2,null,images/tutalien2,images/t.png,NA,practice,null,NA,NA,NA,NA,sub115
d3-animate-choice,41,203173,0.0-41.0,TRUE,FALSE,FALSE,FALSE,"""event"",""trial"",""time""
""fullscreenenter"",""5"",""19942""
","
","
","""event"",""trial"",""time""
""fullscreenenter"",""5"",""19942""
","
",647.450000004028,NA,49,NA,NA,3000,1,NA,NA,images/tutgreenplanet.jpg,images/tutalien1,images/tutalien2,null,images/tutalien2,images/t.png,NA,practice,null,NA,NA,NA,NA,sub115
d3-animate-choice,42,205579,0.0-42.0,TRUE,FALSE,FALSE,FALSE,"""event"",""trial"",""time""
""fullscreenenter"",""5"",""19942""
","
","
","""event"",""trial"",""time""
""fullscreenenter"",""5"",""19942""
","
",402.5150000015856,NA,49,NA,NA,3000,1,NA,NA,images/tutgreenplanet.jpg,images/tutalien1,images/tutalien2,null,images/tutalien2,images/nothing.png,NA,practice,null,NA,NA,NA,NA,sub115
d3-animate-choice,43,208621,0.0-43.0,TRUE,FALSE,FALSE,FALSE,"""event"",""trial"",""time""
""fullscreenenter"",""5"",""19942""
","
","
","""event"",""trial"",""time""
""fullscreenenter"",""5"",""19942""
","
",1038.9050000012503,NA,49,NA,NA,3000,1,2296.825000004901,32,images/tutgreenplanet.jpg,images/tutalien1,images/tutalien2,null,images/tutalien2,images/t.png,NA,practice,null,NA,NA,NA,NA,sub115
d3-instructions,44,219956,0.0-44.0,TRUE,FALSE,FALSE,FALSE,"""event"",""trial"",""time""
""fullscreenenter"",""5"",""19942""
","
","
","""event"",""trial"",""time""
""fullscreenenter"",""5"",""19942""
","
",NA,NA,NA,NA,NA,NA,NA,NA,NA,NA,NA,NA,NA,NA,NA,NA,NA,NA,NA,NA,NA,NA,sub115
d3-instructions,45,222494,0.0-45.0,TRUE,FALSE,FALSE,FALSE,"""event"",""trial"",""time""
""fullscreenenter"",""5"",""19942""
","
","
","""event"",""trial"",""time""
""fullscreenenter"",""5"",""19942""
","
",NA,NA,NA,NA,NA,NA,NA,NA,NA,NA,NA,NA,NA,NA,NA,NA,NA,NA,NA,NA,NA,NA,sub115
d3-instructions,46,227697,0.0-46.0,TRUE,FALSE,FALSE,FALSE,"""event"",""trial"",""time""
""fullscreenenter"",""5"",""19942""
","
","
","""event"",""trial"",""time""
""fullscreenenter"",""5"",""19942""
","
",NA,NA,NA,NA,NA,NA,NA,NA,NA,NA,NA,NA,NA,NA,NA,NA,NA,NA,NA,NA,NA,NA,sub115
d3-instructions,47,238588,0.0-47.0,TRUE,FALSE,FALSE,FALSE,"""event"",""trial"",""time""
""fullscreenenter"",""5"",""19942""
","
","
","""event"",""trial"",""time""
""fullscreenenter"",""5"",""19942""
","
",NA,NA,NA,NA,NA,NA,NA,NA,NA,NA,NA,NA,NA,NA,NA,NA,NA,NA,NA,NA,NA,NA,sub115
d3-instructions,48,244684,0.0-48.0,TRUE,FALSE,FALSE,FALSE,"""event"",""trial"",""time""
""fullscreenenter"",""5"",""19942""
","
","
","""event"",""trial"",""time""
""fullscreenenter"",""5"",""19942""
","
",NA,NA,NA,NA,NA,NA,NA,NA,NA,NA,NA,NA,NA,NA,NA,NA,NA,NA,NA,NA,NA,NA,sub115
d3-instructions,49,249390,0.0-49.0,TRUE,FALSE,FALSE,FALSE,"""event"",""trial"",""time""
""fullscreenenter"",""5"",""19942""
","
","
","""event"",""trial"",""time""
""fullscreenenter"",""5"",""19942""
","
",NA,NA,NA,NA,NA,NA,NA,NA,NA,NA,NA,NA,NA,NA,NA,NA,NA,NA,NA,NA,NA,NA,sub115
d3-instructions,50,253692,0.0-50.0,TRUE,FALSE,FALSE,FALSE,"""event"",""trial"",""time""
""fullscreenenter"",""5"",""19942""
","
","
","""event"",""trial"",""time""
""fullscreenenter"",""5"",""19942""
","
",NA,NA,NA,NA,NA,NA,NA,NA,NA,NA,NA,NA,NA,NA,NA,NA,NA,NA,NA,NA,NA,NA,sub115
d3-instructions,51,256107,0.0-51.0,TRUE,FALSE,FALSE,FALSE,"""event"",""trial"",""time""
""fullscreenenter"",""5"",""19942""
","
","
","""event"",""trial"",""time""
""fullscreenenter"",""5"",""19942""
","
",NA,NA,NA,NA,NA,NA,NA,NA,NA,NA,NA,NA,NA,NA,NA,NA,NA,NA,NA,NA,NA,NA,sub115
d3-instructions,52,257628,0.0-52.0,TRUE,FALSE,FALSE,FALSE,"""event"",""trial"",""time""
""fullscreenenter"",""5"",""19942""
","
","
","""event"",""trial"",""time""
""fullscreenenter"",""5"",""19942""
","
",NA,NA,NA,NA,NA,NA,NA,NA,NA,NA,NA,NA,NA,NA,NA,NA,NA,NA,NA,NA,NA,NA,sub115
d3-instructions,53,269810,0.0-53.0,TRUE,FALSE,FALSE,FALSE,"""event"",""trial"",""time""
""fullscreenenter"",""5"",""19942""
","
","
","""event"",""trial"",""time""
""fullscreenenter"",""5"",""19942""
","
",NA,NA,NA,NA,NA,NA,NA,NA,NA,NA,NA,NA,NA,NA,NA,NA,NA,NA,NA,NA,NA,NA,sub115
d3-instructions,54,280437,0.0-54.0,TRUE,FALSE,FALSE,FALSE,"""event"",""trial"",""time""
""fullscreenenter"",""5"",""19942""
","
","
","""event"",""trial"",""time""
""fullscreenenter"",""5"",""19942""
","
",NA,NA,NA,NA,NA,NA,NA,NA,NA,NA,NA,NA,NA,NA,NA,NA,NA,NA,NA,NA,NA,NA,sub115
d3-instructions,55,284869,0.0-55.0,TRUE,FALSE,FALSE,FALSE,"""event"",""trial"",""time""
""fullscreenenter"",""5"",""19942""
","
","
","""event"",""trial"",""time""
""fullscreenenter"",""5"",""19942""
","
",NA,NA,NA,NA,NA,NA,NA,NA,NA,NA,NA,NA,NA,NA,NA,NA,NA,NA,NA,NA,NA,NA,sub115
d3-instructions,56,290968,0.0-56.0,TRUE,FALSE,FALSE,FALSE,"""event"",""trial"",""time""
""fullscreenenter"",""5"",""19942""
","
","
","""event"",""trial"",""time""
""fullscreenenter"",""5"",""19942""
","
",NA,NA,NA,NA,NA,NA,NA,NA,NA,NA,NA,NA,NA,NA,NA,NA,NA,NA,NA,NA,NA,NA,sub115
d3-instructions,57,350123,0.0-57.0,TRUE,FALSE,FALSE,FALSE,"""event"",""trial"",""time""
""fullscreenenter"",""5"",""19942""
","
","
","""event"",""trial"",""time""
""fullscreenenter"",""5"",""19942""
","
",NA,NA,NA,NA,NA,NA,NA,NA,NA,NA,NA,NA,NA,NA,NA,NA,NA,NA,NA,NA,NA,NA,sub115
d3-instructions,58,360915,0.0-58.0,TRUE,FALSE,FALSE,FALSE,"""event"",""trial"",""time""
""fullscreenenter"",""5"",""19942""
","
","
","""event"",""trial"",""time""
""fullscreenenter"",""5"",""19942""
","
",NA,NA,NA,NA,NA,NA,NA,NA,NA,NA,NA,NA,NA,NA,NA,NA,NA,NA,NA,NA,NA,NA,sub115
d3-instructions,59,364143,0.0-59.0,TRUE,FALSE,FALSE,FALSE,"""event"",""trial"",""time""
""fullscreenenter"",""5"",""19942""
","
","
","""event"",""trial"",""time""
""fullscreenenter"",""5"",""19942""
","
",NA,NA,NA,NA,NA,NA,NA,NA,NA,NA,NA,NA,NA,NA,NA,NA,NA,NA,NA,NA,NA,NA,sub115
d3-instructions,60,367018,0.0-60.0,TRUE,FALSE,FALSE,FALSE,"""event"",""trial"",""time""
""fullscreenenter"",""5"",""19942""
","
","
","""event"",""trial"",""time""
""fullscreenenter"",""5"",""19942""
","
",NA,NA,NA,NA,NA,NA,NA,NA,NA,NA,NA,NA,NA,NA,NA,NA,NA,NA,NA,NA,NA,NA,sub115
d3-animate-choice,61,370944,0.0-61.0-0.0,TRUE,FALSE,FALSE,FALSE,"""event"",""trial"",""time""
""fullscreenenter"",""5"",""19942""
","
","
","""event"",""trial"",""time""
""fullscreenenter"",""5"",""19942""
","
",1919.5350000009057,NA,49,NA,NA,3000,1,NA,NA,images/earth.jpg,images/tutrocket2,images/tutrocket1,null,images/tutrocket1,NA,1,practice,null,1,NA,NA,NA,sub115
d3-animate-choice,62,374953,0.0-61.0-1.0,TRUE,FALSE,FALSE,FALSE,"""event"",""trial"",""time""
""fullscreenenter"",""5"",""19942""
","
","
","""event"",""trial"",""time""
""fullscreenenter"",""5"",""19942""
","
",null,NA,null,NA,NA,3000,0,NA,NA,images/tutyellowplanet.jpg,images/tutalien4,images/tutalien3,images/tutrocket1,NA,NA,2,practice,true,NA,common,0,2020-06-23T17:13:20Z,sub115
two-step-fixation,63,375959,0.0-61.0-2.0,TRUE,FALSE,FALSE,FALSE,"""event"",""trial"",""time""
""fullscreenenter"",""5"",""19942""
","
","
","""event"",""trial"",""time""
""fullscreenenter"",""5"",""19942""
","
",NA,images/earth.jpg,NA,NA,NA,NA,NA,NA,NA,NA,NA,NA,NA,NA,NA,fixation,NA,NA,NA,NA,NA,NA,sub115
d3-animate-choice,64,379140,0.0-61.0-0.1,TRUE,FALSE,FALSE,FALSE,"""event"",""trial"",""time""
""fullscreenenter"",""5"",""19942""
","
","
","""event"",""trial"",""time""
""fullscreenenter"",""5"",""19942""
","
",1175.6550000063726,NA,49,NA,NA,3000,1,NA,NA,images/earth.jpg,images/tutrocket2,images/tutrocket1,null,images/tutrocket1,NA,1,practice,null,1,NA,NA,NA,sub115
d3-animate-choice,65,382301,0.0-61.0-1.1,TRUE,FALSE,FALSE,FALSE,"""event"",""trial"",""time""
""fullscreenenter"",""5"",""19942""
","
","
","""event"",""trial"",""time""
""fullscreenenter"",""5"",""19942""
","
",1154.0800000002491,NA,49,NA,NA,3000,1,NA,NA,images/tutyellowplanet.jpg,images/tutalien4,images/tutalien3,images/tutrocket1,images/tutalien3,images/nothing.png,2,practice,true,1,common,0,2020-06-23T17:13:27Z,sub115
two-step-fixation,66,383303,0.0-61.0-2.1,TRUE,FALSE,FALSE,FALSE,"""event"",""trial"",""time""
""fullscreenenter"",""5"",""19942""
","
","
","""event"",""trial"",""time""
""fullscreenenter"",""5"",""19942""
","
",NA,images/earth.jpg,NA,NA,NA,NA,NA,NA,NA,NA,NA,NA,NA,NA,NA,fixation,NA,NA,NA,NA,NA,NA,sub115
d3-animate-choice,67,385945,0.0-61.0-0.2,TRUE,FALSE,FALSE,FALSE,"""event"",""trial"",""time""
""fullscreenenter"",""5"",""19942""
","
","
","""event"",""trial"",""time""
""fullscreenenter"",""5"",""19942""
","
",636.4850000027218,NA,49,NA,NA,3000,1,NA,NA,images/earth.jpg,images/tutrocket2,images/tutrocket1,null,images/tutrocket1,NA,1,practice,null,1,NA,NA,NA,sub115
d3-animate-choice,68,389067,0.0-61.0-1.2,TRUE,FALSE,FALSE,FALSE,"""event"",""trial"",""time""
""fullscreenenter"",""5"",""19942""
","
","
","""event"",""trial"",""time""
""fullscreenenter"",""5"",""19942""
","
",1117.2850000002654,NA,48,NA,NA,3000,1,NA,NA,images/tutyellowplanet.jpg,images/tutalien4,images/tutalien3,images/tutrocket1,images/tutalien4,images/t.png,2,practice,true,2,common,1,2020-06-23T17:13:34Z,sub115
two-step-fixation,69,390071,0.0-61.0-2.2,TRUE,FALSE,FALSE,FALSE,"""event"",""trial"",""time""
""fullscreenenter"",""5"",""19942""
","
","
","""event"",""trial"",""time""
""fullscreenenter"",""5"",""19942""
","
",NA,images/earth.jpg,NA,NA,NA,NA,NA,NA,NA,NA,NA,NA,NA,NA,NA,fixation,NA,NA,NA,NA,NA,NA,sub115
d3-animate-choice,70,393765,0.0-61.0-0.3,TRUE,FALSE,FALSE,FALSE,"""event"",""trial"",""time""
""fullscreenenter"",""5"",""19942""
","
","
","""event"",""trial"",""time""
""fullscreenenter"",""5"",""19942""
","
",1689.5300000032876,NA,49,NA,NA,3000,1,NA,NA,images/earth.jpg,images/tutrocket2,images/tutrocket1,null,images/tutrocket1,NA,1,practice,null,1,NA,NA,NA,sub115
d3-animate-choice,71,397049,0.0-61.0-1.3,TRUE,FALSE,FALSE,FALSE,"""event"",""trial"",""time""
""fullscreenenter"",""5"",""19942""
","
","
","""event"",""trial"",""time""
""fullscreenenter"",""5"",""19942""
","
",1278.375000001688,NA,49,NA,NA,3000,1,NA,NA,images/tutgreenplanet.jpg,images/tutalien2,images/tutalien1,images/tutrocket1,images/tutalien1,images/t.png,2,practice,false,1,rare,1,2020-06-23T17:13:42Z,sub115
two-step-fixation,72,398053,0.0-61.0-2.3,TRUE,FALSE,FALSE,FALSE,"""event"",""trial"",""time""
""fullscreenenter"",""5"",""19942""
","
","
","""event"",""trial"",""time""
""fullscreenenter"",""5"",""19942""
","
",NA,images/earth.jpg,NA,NA,NA,NA,NA,NA,NA,NA,NA,NA,NA,NA,NA,fixation,NA,NA,NA,NA,NA,NA,sub115
d3-animate-choice,73,400977,0.0-61.0-0.4,TRUE,FALSE,FALSE,FALSE,"""event"",""trial"",""time""
""fullscreenenter"",""5"",""19942""
","
","
","""event"",""trial"",""time""
""fullscreenenter"",""5"",""19942""
","
",919.515000001411,NA,49,NA,NA,3000,1,NA,NA,images/earth.jpg,images/tutrocket2,images/tutrocket1,null,images/tutrocket1,NA,1,practice,null,1,NA,NA,NA,sub115
d3-animate-choice,74,403882,0.0-61.0-1.4,TRUE,FALSE,FALSE,FALSE,"""event"",""trial"",""time""
""fullscreenenter"",""5"",""19942""
","
","
","""event"",""trial"",""time""
""fullscreenenter"",""5"",""19942""
","
",901.8149999974412,NA,48,NA,NA,3000,1,NA,NA,images/tutyellowplanet.jpg,images/tutalien4,images/tutalien3,images/tutrocket1,images/tutalien4,images/t.png,2,practice,true,2,common,1,2020-06-23T17:13:49Z,sub115
two-step-fixation,75,404887,0.0-61.0-2.4,TRUE,FALSE,FALSE,FALSE,"""event"",""trial"",""time""
""fullscreenenter"",""5"",""19942""
","
","
","""event"",""trial"",""time""
""fullscreenenter"",""5"",""19942""
","
",NA,images/earth.jpg,NA,NA,NA,NA,NA,NA,NA,NA,NA,NA,NA,NA,NA,fixation,NA,NA,NA,NA,NA,NA,sub115
d3-animate-choice,76,407338,0.0-61.0-0.5,TRUE,FALSE,FALSE,FALSE,"""event"",""trial"",""time""
""fullscreenenter"",""5"",""19942""
","
","
","""event"",""trial"",""time""
""fullscreenenter"",""5"",""19942""
","
",446.72500000160653,NA,49,NA,NA,3000,1,NA,NA,images/earth.jpg,images/tutrocket2,images/tutrocket1,null,images/tutrocket1,NA,1,practice,null,1,NA,NA,NA,sub115
d3-animate-choice,77,411017,0.0-61.0-1.5,TRUE,FALSE,FALSE,FALSE,"""event"",""trial"",""time""
""fullscreenenter"",""5"",""19942""
","
","
","""event"",""trial"",""time""
""fullscreenenter"",""5"",""19942""
","
",1674.4249999974272,NA,48,NA,NA,3000,1,NA,NA,images/tutyellowplanet.jpg,images/tutalien4,images/tutalien3,images/tutrocket1,images/tutalien4,images/nothing.png,2,practice,true,2,common,0,2020-06-23T17:13:56Z,sub115
two-step-fixation,78,412021,0.0-61.0-2.5,TRUE,FALSE,FALSE,FALSE,"""event"",""trial"",""time""
""fullscreenenter"",""5"",""19942""
","
","
","""event"",""trial"",""time""
""fullscreenenter"",""5"",""19942""
","
",NA,images/earth.jpg,NA,NA,NA,NA,NA,NA,NA,NA,NA,NA,NA,NA,NA,fixation,NA,NA,NA,NA,NA,NA,sub115
d3-animate-choice,79,414886,0.0-61.0-0.6,TRUE,FALSE,FALSE,FALSE,"""event"",""trial"",""time""
""fullscreenenter"",""5"",""19942""
","
","
","""event"",""trial"",""time""
""fullscreenenter"",""5"",""19942""
","
",859.8599999968428,NA,49,NA,NA,3000,1,NA,NA,images/earth.jpg,images/tutrocket2,images/tutrocket1,null,images/tutrocket1,NA,1,practice,null,1,NA,NA,NA,sub115
d3-animate-choice,80,417602,0.0-61.0-1.6,TRUE,FALSE,FALSE,FALSE,"""event"",""trial"",""time""
""fullscreenenter"",""5"",""19942""
","
","
","""event"",""trial"",""time""
""fullscreenenter"",""5"",""19942""
","
",712.4750000002678,NA,49,NA,NA,3000,1,NA,NA,images/tutyellowplanet.jpg,images/tutalien4,images/tutalien3,images/tutrocket1,images/tutalien3,images/nothing.png,2,practice,true,1,common,0,2020-06-23T17:14:03Z,sub115
two-step-fixation,81,418607,0.0-61.0-2.6,TRUE,FALSE,FALSE,FALSE,"""event"",""trial"",""time""
""fullscreenenter"",""5"",""19942""
","
","
","""event"",""trial"",""time""
""fullscreenenter"",""5"",""19942""
","
",NA,images/earth.jpg,NA,NA,NA,NA,NA,NA,NA,NA,NA,NA,NA,NA,NA,fixation,NA,NA,NA,NA,NA,NA,sub115
d3-animate-choice,82,422104,0.0-61.0-0.7,TRUE,FALSE,FALSE,FALSE,"""event"",""trial"",""time""
""fullscreenenter"",""5"",""19942""
","
","
","""event"",""trial"",""time""
""fullscreenenter"",""5"",""19942""
","
",1493.7799999970593,NA,48,NA,NA,3000,1,NA,NA,images/earth.jpg,images/tutrocket2,images/tutrocket1,null,images/tutrocket2,NA,1,practice,null,2,NA,NA,NA,sub115
d3-animate-choice,83,425296,0.0-61.0-1.7,TRUE,FALSE,FALSE,FALSE,"""event"",""trial"",""time""
""fullscreenenter"",""5"",""19942""
","
","
","""event"",""trial"",""time""
""fullscreenenter"",""5"",""19942""
","
",1187.3199999972712,NA,48,NA,NA,3000,1,NA,NA,images/tutgreenplanet.jpg,images/tutalien2,images/tutalien1,images/tutrocket2,images/tutalien2,images/t.png,2,practice,true,2,common,1,2020-06-23T17:14:10Z,sub115
two-step-fixation,84,426300,0.0-61.0-2.7,TRUE,FALSE,FALSE,FALSE,"""event"",""trial"",""time""
""fullscreenenter"",""5"",""19942""
","
","
","""event"",""trial"",""time""
""fullscreenenter"",""5"",""19942""
","
",NA,images/earth.jpg,NA,NA,NA,NA,NA,NA,NA,NA,NA,NA,NA,NA,NA,fixation,NA,NA,NA,NA,NA,NA,sub115
d3-animate-choice,85,428838,0.0-61.0-0.8,TRUE,FALSE,FALSE,FALSE,"""event"",""trial"",""time""
""fullscreenenter"",""5"",""19942""
","
","
","""event"",""trial"",""time""
""fullscreenenter"",""5"",""19942""
","
",531.7450000002282,NA,48,NA,NA,3000,1,NA,NA,images/earth.jpg,images/tutrocket2,images/tutrocket1,null,images/tutrocket2,NA,1,practice,null,2,NA,NA,NA,sub115
d3-animate-choice,86,431358,0.0-61.0-1.8,TRUE,FALSE,FALSE,FALSE,"""event"",""trial"",""time""
""fullscreenenter"",""5"",""19942""
","
","
","""event"",""trial"",""time""
""fullscreenenter"",""5"",""19942""
","
",511.835000004794,NA,48,NA,NA,3000,1,NA,NA,images/tutgreenplanet.jpg,images/tutalien2,images/tutalien1,images/tutrocket2,images/tutalien2,images/nothing.png,2,practice,true,2,common,0,2020-06-23T17:14:16Z,sub115
two-step-fixation,87,432364,0.0-61.0-2.8,TRUE,FALSE,FALSE,FALSE,"""event"",""trial"",""time""
""fullscreenenter"",""5"",""19942""
","
","
","""event"",""trial"",""time""
""fullscreenenter"",""5"",""19942""
","
",NA,images/earth.jpg,NA,NA,NA,NA,NA,NA,NA,NA,NA,NA,NA,NA,NA,fixation,NA,NA,NA,NA,NA,NA,sub115
d3-animate-choice,88,435224,0.0-61.0-0.9,TRUE,FALSE,FALSE,FALSE,"""event"",""trial"",""time""
""fullscreenenter"",""5"",""19942""
","
","
","""event"",""trial"",""time""
""fullscreenenter"",""5"",""19942""
","
",854.349999994156,NA,48,NA,NA,3000,1,NA,NA,images/earth.jpg,images/tutrocket2,images/tutrocket1,null,images/tutrocket2,NA,1,practice,null,2,NA,NA,NA,sub115
d3-animate-choice,89,438238,0.0-61.0-1.9,TRUE,FALSE,FALSE,FALSE,"""event"",""trial"",""time""
""fullscreenenter"",""5"",""19942""
","
","
","""event"",""trial"",""time""
""fullscreenenter"",""5"",""19942""
","
",1009.3650000053458,NA,49,NA,NA,3000,1,NA,NA,images/tutyellowplanet.jpg,images/tutalien4,images/tutalien3,images/tutrocket2,images/tutalien3,images/nothing.png,2,practice,false,1,rare,0,2020-06-23T17:14:23Z,sub115
two-step-fixation,90,439241,0.0-61.0-2.9,TRUE,FALSE,FALSE,FALSE,"""event"",""trial"",""time""
""fullscreenenter"",""5"",""19942""
","
","
","""event"",""trial"",""time""
""fullscreenenter"",""5"",""19942""
","
",NA,images/earth.jpg,NA,NA,NA,NA,NA,NA,NA,NA,NA,NA,NA,NA,NA,fixation,NA,NA,NA,NA,NA,NA,sub115
d3-animate-choice,91,442229,0.0-61.0-0.10,TRUE,FALSE,FALSE,FALSE,"""event"",""trial"",""time""
""fullscreenenter"",""5"",""19942""
","
","
","""event"",""trial"",""time""
""fullscreenenter"",""5"",""19942""
","
",978.8699999990058,NA,48,NA,NA,3000,1,NA,NA,images/earth.jpg,images/tutrocket2,images/tutrocket1,null,images/tutrocket2,NA,1,practice,null,2,NA,NA,NA,sub115
d3-animate-choice,92,444731,0.0-61.0-1.10,TRUE,FALSE,FALSE,FALSE,"""event"",""trial"",""time""
""fullscreenenter"",""5"",""19942""
","
","
","""event"",""trial"",""time""
""fullscreenenter"",""5"",""19942""
","
",498.16500000451924,NA,48,NA,NA,3000,1,NA,NA,images/tutgreenplanet.jpg,images/tutalien2,images/tutalien1,images/tutrocket2,images/tutalien2,images/nothing.png,2,practice,true,2,common,0,2020-06-23T17:14:30Z,sub115
two-step-fixation,93,445735,0.0-61.0-2.10,TRUE,FALSE,FALSE,FALSE,"""event"",""trial"",""time""
""fullscreenenter"",""5"",""19942""
","
","
","""event"",""trial"",""time""
""fullscreenenter"",""5"",""19942""
","
",NA,images/earth.jpg,NA,NA,NA,NA,NA,NA,NA,NA,NA,NA,NA,NA,NA,fixation,NA,NA,NA,NA,NA,NA,sub115
d3-animate-choice,94,448360,0.0-61.0-0.11,TRUE,FALSE,FALSE,FALSE,"""event"",""trial"",""time""
""fullscreenenter"",""5"",""19942""
","
","
","""event"",""trial"",""time""
""fullscreenenter"",""5"",""19942""
","
",618.6900000029709,NA,48,NA,NA,3000,1,NA,NA,images/earth.jpg,images/tutrocket2,images/tutrocket1,null,images/tutrocket2,NA,1,practice,null,2,NA,NA,NA,sub115
d3-animate-choice,95,450728,0.0-61.0-1.11,TRUE,FALSE,FALSE,FALSE,"""event"",""trial"",""time""
""fullscreenenter"",""5"",""19942""
","
","
","""event"",""trial"",""time""
""fullscreenenter"",""5"",""19942""
","
",364.4999999960419,NA,49,NA,NA,3000,1,2286.3949999955366,32,images/tutgreenplanet.jpg,images/tutalien2,images/tutalien1,images/tutrocket2,images/tutalien1,images/nothing.png,2,practice,true,1,common,0,2020-06-23T17:14:36Z,sub115
two-step-fixation,96,451731,0.0-61.0-2.11,TRUE,FALSE,FALSE,FALSE,"""event"",""trial"",""time""
""fullscreenenter"",""5"",""19942""
","
","
","""event"",""trial"",""time""
""fullscreenenter"",""5"",""19942""
","
",NA,images/earth.jpg,NA,NA,NA,NA,NA,NA,NA,NA,NA,NA,NA,NA,NA,fixation,NA,NA,NA,NA,NA,NA,sub115
d3-animate-choice,97,454444,0.0-61.0-0.12,TRUE,FALSE,FALSE,FALSE,"""event"",""trial"",""time""
""fullscreenenter"",""5"",""19942""
","
","
","""event"",""trial"",""time""
""fullscreenenter"",""5"",""19942""
","
",707.9799999992247,NA,49,NA,NA,3000,1,NA,NA,images/earth.jpg,images/tutrocket2,images/tutrocket1,null,images/tutrocket1,NA,1,practice,null,1,NA,NA,NA,sub115
d3-animate-choice,98,456904,0.0-61.0-1.12,TRUE,FALSE,FALSE,FALSE,"""event"",""trial"",""time""
""fullscreenenter"",""5"",""19942""
","
","
","""event"",""trial"",""time""
""fullscreenenter"",""5"",""19942""
","
",454.29000000149244,NA,49,NA,NA,3000,1,NA,NA,images/tutyellowplanet.jpg,images/tutalien4,images/tutalien3,images/tutrocket1,images/tutalien3,images/t.png,2,practice,true,1,common,1,2020-06-23T17:14:42Z,sub115
two-step-fixation,99,457909,0.0-61.0-2.12,TRUE,FALSE,FALSE,FALSE,"""event"",""trial"",""time""
""fullscreenenter"",""5"",""19942""
","
","
","""event"",""trial"",""time""
""fullscreenenter"",""5"",""19942""
","
",NA,images/earth.jpg,NA,NA,NA,NA,NA,NA,NA,NA,NA,NA,NA,NA,NA,fixation,NA,NA,NA,NA,NA,NA,sub115
d3-animate-choice,100,460636,0.0-61.0-0.13,TRUE,FALSE,FALSE,FALSE,"""event"",""trial"",""time""
""fullscreenenter"",""5"",""19942""
","
","
","""event"",""trial"",""time""
""fullscreenenter"",""5"",""19942""
","
",721.9200000035926,NA,49,NA,NA,3000,1,NA,NA,images/earth.jpg,images/tutrocket2,images/tutrocket1,null,images/tutrocket1,NA,1,practice,null,1,NA,NA,NA,sub115
d3-animate-choice,101,463215,0.0-61.0-1.13,TRUE,FALSE,FALSE,FALSE,"""event"",""trial"",""time""
""fullscreenenter"",""5"",""19942""
","
","
","""event"",""trial"",""time""
""fullscreenenter"",""5"",""19942""
","
",572.5349999993341,NA,49,NA,NA,3000,1,2086.9850000017323,32,images/tutyellowplanet.jpg,images/tutalien4,images/tutalien3,images/tutrocket1,images/tutalien3,images/nothing.png,2,practice,true,1,common,0,2020-06-23T17:14:48Z,sub115
two-step-fixation,102,464221,0.0-61.0-2.13,TRUE,FALSE,FALSE,FALSE,"""event"",""trial"",""time""
""fullscreenenter"",""5"",""19942""
","
","
","""event"",""trial"",""time""
""fullscreenenter"",""5"",""19942""
","
",NA,images/earth.jpg,NA,NA,NA,NA,NA,NA,NA,NA,NA,NA,NA,NA,NA,fixation,NA,NA,NA,NA,NA,NA,sub115
d3-animate-choice,103,466878,0.0-61.0-0.14,TRUE,FALSE,FALSE,FALSE,"""event"",""trial"",""time""
""fullscreenenter"",""5"",""19942""
","
","
","""event"",""trial"",""time""
""fullscreenenter"",""5"",""19942""
","
",651.7100000055507,NA,48,NA,NA,3000,1,NA,NA,images/earth.jpg,images/tutrocket2,images/tutrocket1,null,images/tutrocket2,NA,1,practice,null,2,NA,NA,NA,sub115
d3-animate-choice,104,470227,0.0-61.0-1.14,TRUE,FALSE,FALSE,FALSE,"""event"",""trial"",""time""
""fullscreenenter"",""5"",""19942""
","
","
","""event"",""trial"",""time""
""fullscreenenter"",""5"",""19942""
","
",1342.7599999995437,NA,49,NA,NA,3000,1,NA,NA,images/tutgreenplanet.jpg,images/tutalien2,images/tutalien1,images/tutrocket2,images/tutalien1,images/nothing.png,2,practice,true,1,common,0,2020-06-23T17:14:55Z,sub115
two-step-fixation,105,471231,0.0-61.0-2.14,TRUE,FALSE,FALSE,FALSE,"""event"",""trial"",""time""
""fullscreenenter"",""5"",""19942""
","
","
","""event"",""trial"",""time""
""fullscreenenter"",""5"",""19942""
","
",NA,images/earth.jpg,NA,NA,NA,NA,NA,NA,NA,NA,NA,NA,NA,NA,NA,fixation,NA,NA,NA,NA,NA,NA,sub115
d3-animate-choice,106,473651,0.0-61.0-0.15,TRUE,FALSE,FALSE,FALSE,"""event"",""trial"",""time""
""fullscreenenter"",""5"",""19942""
","
","
","""event"",""trial"",""time""
""fullscreenenter"",""5"",""19942""
","
",414.4799999994575,NA,48,NA,NA,3000,1,NA,NA,images/earth.jpg,images/tutrocket2,images/tutrocket1,null,images/tutrocket2,NA,1,practice,null,2,NA,NA,NA,sub115
d3-animate-choice,107,476154,0.0-61.0-1.15,TRUE,FALSE,FALSE,FALSE,"""event"",""trial"",""time""
""fullscreenenter"",""5"",""19942""
","
","
","""event"",""trial"",""time""
""fullscreenenter"",""5"",""19942""
","
",497.4000000001979,NA,48,NA,NA,3000,1,NA,NA,images/tutgreenplanet.jpg,images/tutalien2,images/tutalien1,images/tutrocket2,images/tutalien2,images/nothing.png,2,practice,true,2,common,0,2020-06-23T17:15:01Z,sub115
two-step-fixation,108,477157,0.0-61.0-2.15,TRUE,FALSE,FALSE,FALSE,"""event"",""trial"",""time""
""fullscreenenter"",""5"",""19942""
","
","
","""event"",""trial"",""time""
""fullscreenenter"",""5"",""19942""
","
",NA,images/earth.jpg,NA,NA,NA,NA,NA,NA,NA,NA,NA,NA,NA,NA,NA,fixation,NA,NA,NA,NA,NA,NA,sub115
d3-animate-choice,109,480008,0.0-61.0-0.16,TRUE,FALSE,FALSE,FALSE,"""event"",""trial"",""time""
""fullscreenenter"",""5"",""19942""
","
","
","""event"",""trial"",""time""
""fullscreenenter"",""5"",""19942""
","
",844.1149999998743,NA,49,NA,NA,3000,1,NA,NA,images/earth.jpg,images/tutrocket2,images/tutrocket1,null,images/tutrocket1,NA,1,practice,null,1,NA,NA,NA,sub115
d3-animate-choice,110,483913,0.0-61.0-1.16,TRUE,FALSE,FALSE,FALSE,"""event"",""trial"",""time""
""fullscreenenter"",""5"",""19942""
","
","
","""event"",""trial"",""time""
""fullscreenenter"",""5"",""19942""
","
",1898.4649999983958,NA,49,NA,NA,3000,1,NA,NA,images/tutyellowplanet.jpg,images/tutalien4,images/tutalien3,images/tutrocket1,images/tutalien3,images/nothing.png,2,practice,true,1,common,0,2020-06-23T17:15:09Z,sub115
two-step-fixation,111,484916,0.0-61.0-2.16,TRUE,FALSE,FALSE,FALSE,"""event"",""trial"",""time""
""fullscreenenter"",""5"",""19942""
","
","
","""event"",""trial"",""time""
""fullscreenenter"",""5"",""19942""
","
",NA,images/earth.jpg,NA,NA,NA,NA,NA,NA,NA,NA,NA,NA,NA,NA,NA,fixation,NA,NA,NA,NA,NA,NA,sub115
d3-animate-choice,112,487767,0.0-61.0-0.17,TRUE,FALSE,FALSE,FALSE,"""event"",""trial"",""time""
""fullscreenenter"",""5"",""19942""
","
","
","""event"",""trial"",""time""
""fullscreenenter"",""5"",""19942""
","
",841.854999998759,NA,49,NA,NA,3000,1,NA,NA,images/earth.jpg,images/tutrocket2,images/tutrocket1,null,images/tutrocket1,NA,1,practice,null,1,NA,NA,NA,sub115
d3-animate-choice,113,491250,0.0-61.0-1.17,TRUE,FALSE,FALSE,FALSE,"""event"",""trial"",""time""
""fullscreenenter"",""5"",""19942""
","
","
","""event"",""trial"",""time""
""fullscreenenter"",""5"",""19942""
","
",1478.5499999998137,NA,48,NA,NA,3000,1,NA,NA,images/tutgreenplanet.jpg,images/tutalien2,images/tutalien1,images/tutrocket1,images/tutalien2,images/nothing.png,2,practice,false,2,rare,0,2020-06-23T17:15:16Z,sub115
two-step-fixation,114,492253,0.0-61.0-2.17,TRUE,FALSE,FALSE,FALSE,"""event"",""trial"",""time""
""fullscreenenter"",""5"",""19942""
","
","
","""event"",""trial"",""time""
""fullscreenenter"",""5"",""19942""
","
",NA,images/earth.jpg,NA,NA,NA,NA,NA,NA,NA,NA,NA,NA,NA,NA,NA,fixation,NA,NA,NA,NA,NA,NA,sub115
d3-animate-choice,115,494863,0.0-61.0-0.18,TRUE,FALSE,FALSE,FALSE,"""event"",""trial"",""time""
""fullscreenenter"",""5"",""19942""
","
","
","""event"",""trial"",""time""
""fullscreenenter"",""5"",""19942""
","
",605.649999997695,NA,48,NA,NA,3000,1,NA,NA,images/earth.jpg,images/tutrocket2,images/tutrocket1,null,images/tutrocket2,NA,1,practice,null,2,NA,NA,NA,sub115
d3-animate-choice,116,497811,0.0-61.0-1.18,TRUE,FALSE,FALSE,FALSE,"""event"",""trial"",""time""
""fullscreenenter"",""5"",""19942""
","
","
","""event"",""trial"",""time""
""fullscreenenter"",""5"",""19942""
","
",943.3150000040769,NA,49,NA,NA,3000,1,NA,NA,images/tutgreenplanet.jpg,images/tutalien2,images/tutalien1,images/tutrocket2,images/tutalien1,images/nothing.png,2,practice,true,1,common,0,2020-06-23T17:15:23Z,sub115
two-step-fixation,117,498816,0.0-61.0-2.18,TRUE,FALSE,FALSE,FALSE,"""event"",""trial"",""time""
""fullscreenenter"",""5"",""19942""
","
","
","""event"",""trial"",""time""
""fullscreenenter"",""5"",""19942""
","
",NA,images/earth.jpg,NA,NA,NA,NA,NA,NA,NA,NA,NA,NA,NA,NA,NA,fixation,NA,NA,NA,NA,NA,NA,sub115
d3-animate-choice,118,501162,0.0-61.0-0.19,TRUE,FALSE,FALSE,FALSE,"""event"",""trial"",""time""
""fullscreenenter"",""5"",""19942""
","
","
","""event"",""trial"",""time""
""fullscreenenter"",""5"",""19942""
","
",340.6800000012154,NA,49,NA,NA,3000,1,NA,NA,images/earth.jpg,images/tutrocket2,images/tutrocket1,null,images/tutrocket1,NA,1,practice,null,1,NA,NA,NA,sub115
d3-animate-choice,119,504451,0.0-61.0-1.19,TRUE,FALSE,FALSE,FALSE,"""event"",""trial"",""time""
""fullscreenenter"",""5"",""19942""
","
","
","""event"",""trial"",""time""
""fullscreenenter"",""5"",""19942""
","
",1283.3150000005262,NA,48,NA,NA,3000,1,NA,NA,images/tutgreenplanet.jpg,images/tutalien2,images/tutalien1,images/tutrocket1,images/tutalien2,images/nothing.png,2,practice,false,2,rare,0,2020-06-23T17:15:30Z,sub115
two-step-fixation,120,505456,0.0-61.0-2.19,TRUE,FALSE,FALSE,FALSE,"""event"",""trial"",""time""
""fullscreenenter"",""5"",""19942""
","
","
","""event"",""trial"",""time""
""fullscreenenter"",""5"",""19942""
","
",NA,images/earth.jpg,NA,NA,NA,NA,NA,NA,NA,NA,NA,NA,NA,NA,NA,fixation,NA,NA,NA,NA,NA,NA,sub115
d3-instructions,121,510211,0.0-62.0,TRUE,FALSE,FALSE,FALSE,"""event"",""trial"",""time""
""fullscreenenter"",""5"",""19942""
","
","
","""event"",""trial"",""time""
""fullscreenenter"",""5"",""19942""
","
",NA,NA,NA,NA,NA,NA,NA,NA,NA,NA,NA,NA,NA,NA,NA,NA,NA,NA,NA,NA,NA,NA,sub115
audio-keyboard-response,122,512663,0.0-63.0,TRUE,FALSE,FALSE,FALSE,"""event"",""trial"",""time""
""fullscreenenter"",""5"",""19942""
","
","
","""event"",""trial"",""time""
""fullscreenenter"",""5"",""19942""
","
",2450,audio/instructions/treasure_feedback.wav,32,NA,NA,NA,NA,NA,NA,NA,NA,NA,NA,NA,NA,NA,NA,NA,NA,NA,NA,NA,sub115
d3-instructions,123,520322,0.0-64.0,TRUE,FALSE,FALSE,FALSE,"""event"",""trial"",""time""
""fullscreenenter"",""5"",""19942""
","
","
","""event"",""trial"",""time""
""fullscreenenter"",""5"",""19942""
","
",NA,NA,NA,NA,NA,NA,NA,NA,NA,NA,NA,NA,NA,NA,NA,NA,NA,NA,NA,NA,NA,NA,sub115
d3-instructions,124,527300,0.0-65.0,TRUE,FALSE,FALSE,FALSE,"""event"",""trial"",""time""
""fullscreenenter"",""5"",""19942""
","
","
","""event"",""trial"",""time""
""fullscreenenter"",""5"",""19942""
","
",NA,NA,NA,NA,NA,NA,NA,NA,NA,NA,NA,NA,NA,NA,NA,NA,NA,NA,NA,NA,NA,NA,sub115
d3-instructions,125,546585,0.0-66.0,TRUE,FALSE,FALSE,FALSE,"""event"",""trial"",""time""
""fullscreenenter"",""5"",""19942""
","
","
","""event"",""trial"",""time""
""fullscreenenter"",""5"",""19942""
","
",NA,NA,NA,NA,NA,NA,NA,NA,NA,NA,NA,NA,NA,NA,NA,NA,NA,NA,NA,NA,NA,NA,sub115
d3-instructions,126,557524,0.0-67.0,TRUE,FALSE,FALSE,FALSE,"""event"",""trial"",""time""
""fullscreenenter"",""5"",""19942""
","
","
","""event"",""trial"",""time""
""fullscreenenter"",""5"",""19942""
","
",NA,NA,NA,NA,NA,NA,NA,NA,NA,NA,NA,NA,NA,NA,NA,NA,NA,NA,NA,NA,NA,NA,sub115
d3-instructions,127,562128,0.0-68.0,TRUE,FALSE,FALSE,FALSE,"""event"",""trial"",""time""
""fullscreenenter"",""5"",""19942""
","
","
","""event"",""trial"",""time""
""fullscreenenter"",""5"",""19942""
","
",NA,NA,NA,NA,NA,NA,NA,NA,NA,NA,NA,NA,NA,NA,NA,NA,NA,NA,NA,NA,NA,NA,sub115
instructions-quiz,128,566854,0.0-69.0,TRUE,FALSE,FALSE,FALSE,"""event"",""trial"",""time""
""fullscreenenter"",""5"",""19942""
","
","
","""event"",""trial"",""time""
""fullscreenenter"",""5"",""19942""
","
",4724.13499999675,audio/quiz/Q1_Prompt.wav,NA,1,NA,NA,NA,NA,NA,NA,NA,NA,NA,NA,NA,NA,NA,NA,NA,NA,NA,NA,sub115
audio-keyboard-response,129,575724,0.0-70.0,TRUE,FALSE,FALSE,FALSE,"""event"",""trial"",""time""
""fullscreenenter"",""5"",""19942""
","
","
","""event"",""trial"",""time""
""fullscreenenter"",""5"",""19942""
","
",8864,audio/quiz/Q1_Correct.wav,32,NA,NA,NA,NA,NA,NA,NA,NA,NA,NA,NA,NA,NA,NA,NA,NA,NA,NA,NA,sub115
instructions-quiz,130,581438,0.0-71.0,TRUE,FALSE,FALSE,FALSE,"""event"",""trial"",""time""
""fullscreenenter"",""5"",""19942""
","
","
","""event"",""trial"",""time""
""fullscreenenter"",""5"",""19942""
","
",5712.715000001481,audio/quiz/Q2_Prompt.wav,NA,0,NA,NA,NA,NA,NA,NA,NA,NA,NA,NA,NA,NA,NA,NA,NA,NA,NA,NA,sub115
audio-keyboard-response,131,584577,0.0-72.0,TRUE,FALSE,FALSE,FALSE,"""event"",""trial"",""time""
""fullscreenenter"",""5"",""19942""
","
","
","""event"",""trial"",""time""
""fullscreenenter"",""5"",""19942""
","
",3140,audio/quiz/Q2_Correct.wav,32,NA,NA,NA,NA,NA,NA,NA,NA,NA,NA,NA,NA,NA,NA,NA,NA,NA,NA,NA,sub115
instructions-quiz,132,587175,0.0-73.0,TRUE,FALSE,FALSE,FALSE,"""event"",""trial"",""time""
""fullscreenenter"",""5"",""19942""
","
","
","""event"",""trial"",""time""
""fullscreenenter"",""5"",""19942""
","
",2596.3699999994133,audio/quiz/Q3_Prompt.wav,NA,1,NA,NA,NA,NA,NA,NA,NA,NA,NA,NA,NA,NA,NA,NA,NA,NA,NA,NA,sub115
audio-keyboard-response,133,588082,0.0-74.0,TRUE,FALSE,FALSE,FALSE,"""event"",""trial"",""time""
""fullscreenenter"",""5"",""19942""
","
","
","""event"",""trial"",""time""
""fullscreenenter"",""5"",""19942""
","
",906,audio/quiz/Q3_Correct.wav,32,NA,NA,NA,NA,NA,NA,NA,NA,NA,NA,NA,NA,NA,NA,NA,NA,NA,NA,NA,sub115
d3-instructions,134,605990,0.0-75.0,TRUE,FALSE,FALSE,FALSE,"""event"",""trial"",""time""
""fullscreenenter"",""5"",""19942""
","
","
","""event"",""trial"",""time""
""fullscreenenter"",""5"",""19942""
","
",NA,NA,NA,NA,NA,NA,NA,NA,NA,NA,NA,NA,NA,NA,NA,NA,NA,NA,NA,NA,NA,NA,sub115
d3-animate-choice,135,609997,0.0-76.0-0.0,TRUE,FALSE,FALSE,FALSE,"""event"",""trial"",""time""
""fullscreenenter"",""5"",""19942""
","
","
","""event"",""trial"",""time""
""fullscreenenter"",""5"",""19942""
","
",2256.020000000717,NA,49,NA,NA,3000,1,NA,NA,images/earth.jpg,images/rocket2,images/rocket1,null,images/rocket1,NA,1,real,null,1,NA,NA,NA,sub115
d3-animate-choice,136,613880,0.0-76.0-1.0,TRUE,FALSE,FALSE,FALSE,"""event"",""trial"",""time""
""fullscreenenter"",""5"",""19942""
","
","
","""event"",""trial"",""time""
""fullscreenenter"",""5"",""19942""
","
",1875.3399999986868,NA,49,NA,NA,3000,1,NA,NA,images/redplanet1.jpg,images/alien2,images/alien1,images/rocket1,images/alien1,images/t.png,2,real,false,1,rare,1,2020-06-23T17:17:19Z,sub115
two-step-fixation,137,614884,0.0-76.0-2.0,TRUE,FALSE,FALSE,FALSE,"""event"",""trial"",""time""
""fullscreenenter"",""5"",""19942""
","
","
","""event"",""trial"",""time""
""fullscreenenter"",""5"",""19942""
","
",NA,images/earth.jpg,NA,NA,NA,NA,NA,NA,NA,NA,NA,NA,NA,NA,NA,fixation,NA,NA,NA,NA,NA,NA,sub115
d3-animate-choice,138,618222,0.0-76.0-0.1,TRUE,FALSE,FALSE,FALSE,"""event"",""trial"",""time""
""fullscreenenter"",""5"",""19942""
","
","
","""event"",""trial"",""time""
""fullscreenenter"",""5"",""19942""
","
",1330.0349999991013,NA,49,NA,NA,3000,1,NA,NA,images/earth.jpg,images/rocket2,images/rocket1,null,images/rocket1,NA,1,real,null,1,NA,NA,NA,sub115
d3-animate-choice,139,621597,0.0-76.0-1.1,TRUE,FALSE,FALSE,FALSE,"""event"",""trial"",""time""
""fullscreenenter"",""5"",""19942""
","
","
","""event"",""trial"",""time""
""fullscreenenter"",""5"",""19942""
","
",1371.175000000163,NA,49,NA,NA,3000,1,NA,NA,images/purpleplanet.jpg,images/alien4,images/alien3,images/rocket1,images/alien3,images/t.png,2,real,true,1,common,1,2020-06-23T17:17:27Z,sub115
two-step-fixation,140,622600,0.0-76.0-2.1,TRUE,FALSE,FALSE,FALSE,"""event"",""trial"",""time""
""fullscreenenter"",""5"",""19942""
","
","
","""event"",""trial"",""time""
""fullscreenenter"",""5"",""19942""
","
",NA,images/earth.jpg,NA,NA,NA,NA,NA,NA,NA,NA,NA,NA,NA,NA,NA,fixation,NA,NA,NA,NA,NA,NA,sub115
d3-animate-choice,141,626447,0.0-76.0-0.2,TRUE,FALSE,FALSE,FALSE,"""event"",""trial"",""time""
""fullscreenenter"",""5"",""19942""
","
","
","""event"",""trial"",""time""
""fullscreenenter"",""5"",""19942""
","
",1840.8350000026403,NA,49,NA,NA,3000,1,NA,NA,images/earth.jpg,images/rocket2,images/rocket1,null,images/rocket1,NA,1,real,null,1,NA,NA,NA,sub115
d3-animate-choice,142,629546,0.0-76.0-1.2,TRUE,FALSE,FALSE,FALSE,"""event"",""trial"",""time""
""fullscreenenter"",""5"",""19942""
","
","
","""event"",""trial"",""time""
""fullscreenenter"",""5"",""19942""
","
",1093.0599999991246,NA,49,NA,NA,3000,1,NA,NA,images/redplanet1.jpg,images/alien2,images/alien1,images/rocket1,images/alien1,images/nothing.png,2,real,false,1,rare,0,2020-06-23T17:17:35Z,sub115
two-step-fixation,143,630550,0.0-76.0-2.2,TRUE,FALSE,FALSE,FALSE,"""event"",""trial"",""time""
""fullscreenenter"",""5"",""19942""
","
","
","""event"",""trial"",""time""
""fullscreenenter"",""5"",""19942""
","
",NA,images/earth.jpg,NA,NA,NA,NA,NA,NA,NA,NA,NA,NA,NA,NA,NA,fixation,NA,NA,NA,NA,NA,NA,sub115
d3-animate-choice,144,633239,0.0-76.0-0.3,TRUE,FALSE,FALSE,FALSE,"""event"",""trial"",""time""
""fullscreenenter"",""5"",""19942""
","
","
","""event"",""trial"",""time""
""fullscreenenter"",""5"",""19942""
","
",681.8199999979697,NA,49,NA,NA,3000,1,NA,NA,images/earth.jpg,images/rocket2,images/rocket1,null,images/rocket1,NA,1,real,null,1,NA,NA,NA,sub115
d3-animate-choice,145,636462,0.0-76.0-1.3,TRUE,FALSE,FALSE,FALSE,"""event"",""trial"",""time""
""fullscreenenter"",""5"",""19942""
","
","
","""event"",""trial"",""time""
""fullscreenenter"",""5"",""19942""
","
",1214.9849999987055,NA,49,NA,NA,3000,1,NA,NA,images/purpleplanet.jpg,images/alien4,images/alien3,images/rocket1,images/alien3,images/t.png,2,real,true,1,common,1,2020-06-23T17:17:42Z,sub115
two-step-fixation,146,637465,0.0-76.0-2.3,TRUE,FALSE,FALSE,FALSE,"""event"",""trial"",""time""
""fullscreenenter"",""5"",""19942""
","
","
","""event"",""trial"",""time""
""fullscreenenter"",""5"",""19942""
","
",NA,images/earth.jpg,NA,NA,NA,NA,NA,NA,NA,NA,NA,NA,NA,NA,NA,fixation,NA,NA,NA,NA,NA,NA,sub115
d3-animate-choice,147,640112,0.0-76.0-0.4,TRUE,FALSE,FALSE,FALSE,"""event"",""trial"",""time""
""fullscreenenter"",""5"",""19942""
","
","
","""event"",""trial"",""time""
""fullscreenenter"",""5"",""19942""
","
",640.4699999985751,NA,48,NA,NA,3000,1,NA,NA,images/earth.jpg,images/rocket2,images/rocket1,null,images/rocket2,NA,1,real,null,2,NA,NA,NA,sub115
d3-animate-choice,148,642958,0.0-76.0-1.4,TRUE,FALSE,FALSE,FALSE,"""event"",""trial"",""time""
""fullscreenenter"",""5"",""19942""
","
","
","""event"",""trial"",""time""
""fullscreenenter"",""5"",""19942""
","
",842.7000000011176,NA,49,NA,NA,3000,1,NA,NA,images/purpleplanet.jpg,images/alien4,images/alien3,images/rocket2,images/alien3,images/nothing.png,2,real,false,1,rare,0,2020-06-23T17:17:48Z,sub115
two-step-fixation,149,643966,0.0-76.0-2.4,TRUE,FALSE,FALSE,FALSE,"""event"",""trial"",""time""
""fullscreenenter"",""5"",""19942""
","
","
","""event"",""trial"",""time""
""fullscreenenter"",""5"",""19942""
","
",NA,images/earth.jpg,NA,NA,NA,NA,NA,NA,NA,NA,NA,NA,NA,NA,NA,fixation,NA,NA,NA,NA,NA,NA,sub115
d3-animate-choice,150,646480,0.0-76.0-0.5,TRUE,FALSE,FALSE,FALSE,"""event"",""trial"",""time""
""fullscreenenter"",""5"",""19942""
","
","
","""event"",""trial"",""time""
""fullscreenenter"",""5"",""19942""
","
",505.66000000259373,NA,48,NA,NA,3000,1,NA,NA,images/earth.jpg,images/rocket2,images/rocket1,null,images/rocket2,NA,1,real,null,2,NA,NA,NA,sub115
d3-animate-choice,151,649394,0.0-76.0-1.5,TRUE,FALSE,FALSE,FALSE,"""event"",""trial"",""time""
""fullscreenenter"",""5"",""19942""
","
","
","""event"",""trial"",""time""
""fullscreenenter"",""5"",""19942""
","
",905.0349999961909,NA,49,NA,NA,3000,1,NA,NA,images/purpleplanet.jpg,images/alien4,images/alien3,images/rocket2,images/alien3,images/nothing.png,2,real,false,1,rare,0,2020-06-23T17:17:54Z,sub115
two-step-fixation,152,650398,0.0-76.0-2.5,TRUE,FALSE,FALSE,FALSE,"""event"",""trial"",""time""
""fullscreenenter"",""5"",""19942""
","
","
","""event"",""trial"",""time""
""fullscreenenter"",""5"",""19942""
","
",NA,images/earth.jpg,NA,NA,NA,NA,NA,NA,NA,NA,NA,NA,NA,NA,NA,fixation,NA,NA,NA,NA,NA,NA,sub115
d3-animate-choice,153,652890,0.0-76.0-0.6,TRUE,FALSE,FALSE,FALSE,"""event"",""trial"",""time""
""fullscreenenter"",""5"",""19942""
","
","
","""event"",""trial"",""time""
""fullscreenenter"",""5"",""19942""
","
",487.89500000560656,NA,48,NA,NA,3000,1,NA,NA,images/earth.jpg,images/rocket2,images/rocket1,null,images/rocket2,NA,1,real,null,2,NA,NA,NA,sub115
d3-animate-choice,154,656805,0.0-76.0-1.6,TRUE,FALSE,FALSE,FALSE,"""event"",""trial"",""time""
""fullscreenenter"",""5"",""19942""
","
","
","""event"",""trial"",""time""
""fullscreenenter"",""5"",""19942""
","
",1906.6400000010617,NA,48,NA,NA,3000,1,NA,NA,images/redplanet1.jpg,images/alien2,images/alien1,images/rocket2,images/alien2,images/t.png,2,real,true,2,common,1,2020-06-23T17:18:02Z,sub115
two-step-fixation,155,657809,0.0-76.0-2.6,TRUE,FALSE,FALSE,FALSE,"""event"",""trial"",""time""
""fullscreenenter"",""5"",""19942""
","
","
","""event"",""trial"",""time""
""fullscreenenter"",""5"",""19942""
","
",NA,images/earth.jpg,NA,NA,NA,NA,NA,NA,NA,NA,NA,NA,NA,NA,NA,fixation,NA,NA,NA,NA,NA,NA,sub115
d3-animate-choice,156,660513,0.0-76.0-0.7,TRUE,FALSE,FALSE,FALSE,"""event"",""trial"",""time""
""fullscreenenter"",""5"",""19942""
","
","
","""event"",""trial"",""time""
""fullscreenenter"",""5"",""19942""
","
",698.1850000011036,NA,48,NA,NA,3000,1,NA,NA,images/earth.jpg,images/rocket2,images/rocket1,null,images/rocket2,NA,1,real,null,2,NA,NA,NA,sub115
d3-animate-choice,157,664140,0.0-76.0-1.7,TRUE,FALSE,FALSE,FALSE,"""event"",""trial"",""time""
""fullscreenenter"",""5"",""19942""
","
","
","""event"",""trial"",""time""
""fullscreenenter"",""5"",""19942""
","
",1620.950000004028,NA,48,NA,NA,3000,1,NA,NA,images/purpleplanet.jpg,images/alien4,images/alien3,images/rocket2,images/alien4,images/t.png,2,real,false,2,rare,1,2020-06-23T17:18:09Z,sub115
two-step-fixation,158,665146,0.0-76.0-2.7,TRUE,FALSE,FALSE,FALSE,"""event"",""trial"",""time""
""fullscreenenter"",""5"",""19942""
","
","
","""event"",""trial"",""time""
""fullscreenenter"",""5"",""19942""
","
",NA,images/earth.jpg,NA,NA,NA,NA,NA,NA,NA,NA,NA,NA,NA,NA,NA,fixation,NA,NA,NA,NA,NA,NA,sub115
d3-animate-choice,159,668893,0.0-76.0-0.8,TRUE,FALSE,FALSE,FALSE,"""event"",""trial"",""time""
""fullscreenenter"",""5"",""19942""
","
","
","""event"",""trial"",""time""
""fullscreenenter"",""5"",""19942""
","
",1742.0700000001816,NA,49,NA,NA,3000,1,NA,NA,images/earth.jpg,images/rocket2,images/rocket1,null,images/rocket1,NA,1,real,null,1,NA,NA,NA,sub115
d3-animate-choice,160,671639,0.0-76.0-1.8,TRUE,FALSE,FALSE,FALSE,"""event"",""trial"",""time""
""fullscreenenter"",""5"",""19942""
","
","
","""event"",""trial"",""time""
""fullscreenenter"",""5"",""19942""
","
",742.4500000053085,NA,48,NA,NA,3000,1,NA,NA,images/redplanet1.jpg,images/alien2,images/alien1,images/rocket1,images/alien2,images/nothing.png,2,real,false,2,rare,0,2020-06-23T17:18:17Z,sub115
two-step-fixation,161,672644,0.0-76.0-2.8,TRUE,FALSE,FALSE,FALSE,"""event"",""trial"",""time""
""fullscreenenter"",""5"",""19942""
","
","
","""event"",""trial"",""time""
""fullscreenenter"",""5"",""19942""
","
",NA,images/earth.jpg,NA,NA,NA,NA,NA,NA,NA,NA,NA,NA,NA,NA,NA,fixation,NA,NA,NA,NA,NA,NA,sub115
d3-animate-choice,162,676499,0.0-76.0-0.9,TRUE,FALSE,FALSE,FALSE,"""event"",""trial"",""time""
""fullscreenenter"",""5"",""19942""
","
","
","""event"",""trial"",""time""
""fullscreenenter"",""5"",""19942""
","
",1851.2899999986403,NA,48,NA,NA,3000,1,NA,NA,images/earth.jpg,images/rocket2,images/rocket1,null,images/rocket2,NA,1,real,null,2,NA,NA,NA,sub115
d3-animate-choice,163,679158,0.0-76.0-1.9,TRUE,FALSE,FALSE,FALSE,"""event"",""trial"",""time""
""fullscreenenter"",""5"",""19942""
","
","
","""event"",""trial"",""time""
""fullscreenenter"",""5"",""19942""
","
",652.8150000013411,NA,48,NA,NA,3000,1,NA,NA,images/purpleplanet.jpg,images/alien4,images/alien3,images/rocket2,images/alien4,images/t.png,2,real,false,2,rare,1,2020-06-23T17:18:24Z,sub115
two-step-fixation,164,680161,0.0-76.0-2.9,TRUE,FALSE,FALSE,FALSE,"""event"",""trial"",""time""
""fullscreenenter"",""5"",""19942""
","
","
","""event"",""trial"",""time""
""fullscreenenter"",""5"",""19942""
","
",NA,images/earth.jpg,NA,NA,NA,NA,NA,NA,NA,NA,NA,NA,NA,NA,NA,fixation,NA,NA,NA,NA,NA,NA,sub115
d3-animate-choice,165,682765,0.0-76.0-0.10,TRUE,FALSE,FALSE,FALSE,"""event"",""trial"",""time""
""fullscreenenter"",""5"",""19942""
","
","
","""event"",""trial"",""time""
""fullscreenenter"",""5"",""19942""
","
",598.7700000042096,NA,48,NA,NA,3000,1,NA,NA,images/earth.jpg,images/rocket2,images/rocket1,null,images/rocket2,NA,1,real,null,2,NA,NA,NA,sub115
d3-animate-choice,166,686424,0.0-76.0-1.10,TRUE,FALSE,FALSE,FALSE,"""event"",""trial"",""time""
""fullscreenenter"",""5"",""19942""
","
","
","""event"",""trial"",""time""
""fullscreenenter"",""5"",""19942""
","
",1651.6499999997905,NA,49,NA,NA,3000,1,NA,NA,images/redplanet1.jpg,images/alien2,images/alien1,images/rocket2,images/alien1,images/t.png,2,real,true,1,common,1,2020-06-23T17:18:32Z,sub115
two-step-fixation,167,687427,0.0-76.0-2.10,TRUE,FALSE,FALSE,FALSE,"""event"",""trial"",""time""
""fullscreenenter"",""5"",""19942""
","
","
","""event"",""trial"",""time""
""fullscreenenter"",""5"",""19942""
","
",NA,images/earth.jpg,NA,NA,NA,NA,NA,NA,NA,NA,NA,NA,NA,NA,NA,fixation,NA,NA,NA,NA,NA,NA,sub115
d3-animate-choice,168,690409,0.0-76.0-0.11,TRUE,FALSE,FALSE,FALSE,"""event"",""trial"",""time""
""fullscreenenter"",""5"",""19942""
","
","
","""event"",""trial"",""time""
""fullscreenenter"",""5"",""19942""
","
",976.1450000006007,NA,48,NA,NA,3000,1,NA,NA,images/earth.jpg,images/rocket2,images/rocket1,null,images/rocket2,NA,1,real,null,2,NA,NA,NA,sub115
d3-animate-choice,169,693173,0.0-76.0-1.11,TRUE,FALSE,FALSE,FALSE,"""event"",""trial"",""time""
""fullscreenenter"",""5"",""19942""
","
","
","""event"",""trial"",""time""
""fullscreenenter"",""5"",""19942""
","
",760.5650000041351,NA,49,NA,NA,3000,1,NA,NA,images/redplanet1.jpg,images/alien2,images/alien1,images/rocket2,images/alien1,images/t.png,2,real,true,1,common,1,2020-06-23T17:18:38Z,sub115
two-step-fixation,170,694177,0.0-76.0-2.11,TRUE,FALSE,FALSE,FALSE,"""event"",""trial"",""time""
""fullscreenenter"",""5"",""19942""
","
","
","""event"",""trial"",""time""
""fullscreenenter"",""5"",""19942""
","
",NA,images/earth.jpg,NA,NA,NA,NA,NA,NA,NA,NA,NA,NA,NA,NA,NA,fixation,NA,NA,NA,NA,NA,NA,sub115
d3-animate-choice,171,698183,0.0-76.0-0.12,TRUE,FALSE,FALSE,FALSE,"""event"",""trial"",""time""
""fullscreenenter"",""5"",""19942""
","
","
","""event"",""trial"",""time""
""fullscreenenter"",""5"",""19942""
","
",2105.4850000001024,NA,49,NA,NA,3000,1,NA,NA,images/earth.jpg,images/rocket2,images/rocket1,null,images/rocket1,NA,1,real,null,1,NA,NA,NA,sub115
d3-animate-choice,172,701231,0.0-76.0-1.12,TRUE,FALSE,FALSE,FALSE,"""event"",""trial"",""time""
""fullscreenenter"",""5"",""19942""
","
","
","""event"",""trial"",""time""
""fullscreenenter"",""5"",""19942""
","
",1042.7000000055414,NA,48,NA,NA,3000,1,NA,NA,images/purpleplanet.jpg,images/alien4,images/alien3,images/rocket1,images/alien4,images/t.png,2,real,true,2,common,1,2020-06-23T17:18:46Z,sub115
two-step-fixation,173,702236,0.0-76.0-2.12,TRUE,FALSE,FALSE,FALSE,"""event"",""trial"",""time""
""fullscreenenter"",""5"",""19942""
","
","
","""event"",""trial"",""time""
""fullscreenenter"",""5"",""19942""
","
",NA,images/earth.jpg,NA,NA,NA,NA,NA,NA,NA,NA,NA,NA,NA,NA,NA,fixation,NA,NA,NA,NA,NA,NA,sub115
d3-animate-choice,174,706083,0.0-76.0-0.13,TRUE,FALSE,FALSE,FALSE,"""event"",""trial"",""time""
""fullscreenenter"",""5"",""19942""
","
","
","""event"",""trial"",""time""
""fullscreenenter"",""5"",""19942""
","
",1838.5549999948125,NA,49,NA,NA,3000,1,NA,NA,images/earth.jpg,images/rocket2,images/rocket1,null,images/rocket1,NA,1,real,null,1,NA,NA,NA,sub115
d3-animate-choice,175,709389,0.0-76.0-1.13,TRUE,FALSE,FALSE,FALSE,"""event"",""trial"",""time""
""fullscreenenter"",""5"",""19942""
","
","
","""event"",""trial"",""time""
""fullscreenenter"",""5"",""19942""
","
",1300.779999997816,NA,48,NA,NA,3000,1,NA,NA,images/purpleplanet.jpg,images/alien4,images/alien3,images/rocket1,images/alien4,images/t.png,2,real,true,2,common,1,2020-06-23T17:18:54Z,sub115
two-step-fixation,176,710394,0.0-76.0-2.13,TRUE,FALSE,FALSE,FALSE,"""event"",""trial"",""time""
""fullscreenenter"",""5"",""19942""
","
","
","""event"",""trial"",""time""
""fullscreenenter"",""5"",""19942""
","
",NA,images/earth.jpg,NA,NA,NA,NA,NA,NA,NA,NA,NA,NA,NA,NA,NA,fixation,NA,NA,NA,NA,NA,NA,sub115
d3-animate-choice,177,713611,0.0-76.0-0.14,TRUE,FALSE,FALSE,FALSE,"""event"",""trial"",""time""
""fullscreenenter"",""5"",""19942""
","
","
","""event"",""trial"",""time""
""fullscreenenter"",""5"",""19942""
","
",1213.9200000019046,NA,49,NA,NA,3000,1,NA,NA,images/earth.jpg,images/rocket2,images/rocket1,null,images/rocket1,NA,1,real,null,1,NA,NA,NA,sub115
d3-animate-choice,178,717387,0.0-76.0-1.14,TRUE,FALSE,FALSE,FALSE,"""event"",""trial"",""time""
""fullscreenenter"",""5"",""19942""
","
","
","""event"",""trial"",""time""
""fullscreenenter"",""5"",""19942""
","
",1771.8450000029989,NA,48,NA,NA,3000,1,NA,NA,images/purpleplanet.jpg,images/alien4,images/alien3,images/rocket1,images/alien4,images/t.png,2,real,true,2,common,1,2020-06-23T17:19:02Z,sub115
two-step-fixation,179,718390,0.0-76.0-2.14,TRUE,FALSE,FALSE,FALSE,"""event"",""trial"",""time""
""fullscreenenter"",""5"",""19942""
","
","
","""event"",""trial"",""time""
""fullscreenenter"",""5"",""19942""
","
",NA,images/earth.jpg,NA,NA,NA,NA,NA,NA,NA,NA,NA,NA,NA,NA,NA,fixation,NA,NA,NA,NA,NA,NA,sub115
d3-animate-choice,180,721371,0.0-76.0-0.15,TRUE,FALSE,FALSE,FALSE,"""event"",""trial"",""time""
""fullscreenenter"",""5"",""19942""
","
","
","""event"",""trial"",""time""
""fullscreenenter"",""5"",""19942""
","
",972.2000000036787,NA,48,NA,NA,3000,1,NA,NA,images/earth.jpg,images/rocket2,images/rocket1,null,images/rocket2,NA,1,real,null,2,NA,NA,NA,sub115
d3-animate-choice,181,723928,0.0-76.0-1.15,TRUE,FALSE,FALSE,FALSE,"""event"",""trial"",""time""
""fullscreenenter"",""5"",""19942""
","
","
","""event"",""trial"",""time""
""fullscreenenter"",""5"",""19942""
","
",551.749999998603,NA,48,NA,NA,3000,1,NA,NA,images/purpleplanet.jpg,images/alien4,images/alien3,images/rocket2,images/alien4,images/t.png,2,real,false,2,rare,1,2020-06-23T17:19:09Z,sub115
two-step-fixation,182,724931,0.0-76.0-2.15,TRUE,FALSE,FALSE,FALSE,"""event"",""trial"",""time""
""fullscreenenter"",""5"",""19942""
","
","
","""event"",""trial"",""time""
""fullscreenenter"",""5"",""19942""
","
",NA,images/earth.jpg,NA,NA,NA,NA,NA,NA,NA,NA,NA,NA,NA,NA,NA,fixation,NA,NA,NA,NA,NA,NA,sub115
d3-animate-choice,183,727361,0.0-76.0-0.16,TRUE,FALSE,FALSE,FALSE,"""event"",""trial"",""time""
""fullscreenenter"",""5"",""19942""
","
","
","""event"",""trial"",""time""
""fullscreenenter"",""5"",""19942""
","
",425.8249999983236,NA,48,NA,NA,3000,1,NA,NA,images/earth.jpg,images/rocket2,images/rocket1,null,images/rocket2,NA,1,real,null,2,NA,NA,NA,sub115
d3-animate-choice,184,730964,0.0-76.0-1.16,TRUE,FALSE,FALSE,FALSE,"""event"",""trial"",""time""
""fullscreenenter"",""5"",""19942""
","
","
","""event"",""trial"",""time""
""fullscreenenter"",""5"",""19942""
","
",1598.6800000028452,NA,49,NA,NA,3000,1,2587.6950000020443,48,images/redplanet1.jpg,images/alien2,images/alien1,images/rocket2,images/alien1,images/nothing.png,2,real,true,1,common,0,2020-06-23T17:19:16Z,sub115
two-step-fixation,185,731969,0.0-76.0-2.16,TRUE,FALSE,FALSE,FALSE,"""event"",""trial"",""time""
""fullscreenenter"",""5"",""19942""
","
","
","""event"",""trial"",""time""
""fullscreenenter"",""5"",""19942""
","
",NA,images/earth.jpg,NA,NA,NA,NA,NA,NA,NA,NA,NA,NA,NA,NA,NA,fixation,NA,NA,NA,NA,NA,NA,sub115
d3-animate-choice,186,735410,0.0-76.0-0.17,TRUE,FALSE,FALSE,FALSE,"""event"",""trial"",""time""
""fullscreenenter"",""5"",""19942""
","
","
","""event"",""trial"",""time""
""fullscreenenter"",""5"",""19942""
","
",1435.7899999959627,NA,49,NA,NA,3000,1,NA,NA,images/earth.jpg,images/rocket2,images/rocket1,null,images/rocket1,NA,1,real,null,1,NA,NA,NA,sub115
d3-animate-choice,187,738818,0.0-76.0-1.17,TRUE,FALSE,FALSE,FALSE,"""event"",""trial"",""time""
""fullscreenenter"",""5"",""19942""
","
","
","""event"",""trial"",""time""
""fullscreenenter"",""5"",""19942""
","
",1402.1500000017695,NA,48,NA,NA,3000,1,NA,NA,images/purpleplanet.jpg,images/alien4,images/alien3,images/rocket1,images/alien4,images/nothing.png,2,real,true,2,common,0,2020-06-23T17:19:24Z,sub115
two-step-fixation,188,739823,0.0-76.0-2.17,TRUE,FALSE,FALSE,FALSE,"""event"",""trial"",""time""
""fullscreenenter"",""5"",""19942""
","
","
","""event"",""trial"",""time""
""fullscreenenter"",""5"",""19942""
","
",NA,images/earth.jpg,NA,NA,NA,NA,NA,NA,NA,NA,NA,NA,NA,NA,NA,fixation,NA,NA,NA,NA,NA,NA,sub115
d3-animate-choice,189,742409,0.0-76.0-0.18,TRUE,FALSE,FALSE,FALSE,"""event"",""trial"",""time""
""fullscreenenter"",""5"",""19942""
","
","
","""event"",""trial"",""time""
""fullscreenenter"",""5"",""19942""
","
",581.1199999952223,NA,48,NA,NA,3000,1,NA,NA,images/earth.jpg,images/rocket2,images/rocket1,null,images/rocket2,NA,1,real,null,2,NA,NA,NA,sub115
d3-animate-choice,190,746412,0.0-76.0-1.18,TRUE,FALSE,FALSE,FALSE,"""event"",""trial"",""time""
""fullscreenenter"",""5"",""19942""
","
","
","""event"",""trial"",""time""
""fullscreenenter"",""5"",""19942""
","
",2062.9649999974063,NA,49,NA,NA,3000,1,NA,NA,images/redplanet1.jpg,images/alien2,images/alien1,images/rocket2,images/alien1,images/nothing.png,2,real,true,1,common,0,2020-06-23T17:19:31Z,sub115
two-step-fixation,191,747415,0.0-76.0-2.18,TRUE,FALSE,FALSE,FALSE,"""event"",""trial"",""time""
""fullscreenenter"",""5"",""19942""
","
","
","""event"",""trial"",""time""
""fullscreenenter"",""5"",""19942""
","
",NA,images/earth.jpg,NA,NA,NA,NA,NA,NA,NA,NA,NA,NA,NA,NA,NA,fixation,NA,NA,NA,NA,NA,NA,sub115
d3-animate-choice,192,750413,0.0-76.0-0.19,TRUE,FALSE,FALSE,FALSE,"""event"",""trial"",""time""
""fullscreenenter"",""5"",""19942""
","
","
","""event"",""trial"",""time""
""fullscreenenter"",""5"",""19942""
","
",993.5550000008661,NA,48,NA,NA,3000,1,NA,NA,images/earth.jpg,images/rocket2,images/rocket1,null,images/rocket2,NA,1,real,null,2,NA,NA,NA,sub115
d3-animate-choice,193,754416,0.0-76.0-1.19,TRUE,FALSE,FALSE,FALSE,"""event"",""trial"",""time""
""fullscreenenter"",""5"",""19942""
","
","
","""event"",""trial"",""time""
""fullscreenenter"",""5"",""19942""
","
",2414.304999998305,NA,48,NA,NA,3000,1,NA,NA,images/redplanet1.jpg,images/alien2,images/alien1,images/rocket2,images/alien2,images/t.png,2,real,true,2,common,1,2020-06-23T17:19:39Z,sub115
two-step-fixation,194,755420,0.0-76.0-2.19,TRUE,FALSE,FALSE,FALSE,"""event"",""trial"",""time""
""fullscreenenter"",""5"",""19942""
","
","
","""event"",""trial"",""time""
""fullscreenenter"",""5"",""19942""
","
",NA,images/earth.jpg,NA,NA,NA,NA,NA,NA,NA,NA,NA,NA,NA,NA,NA,fixation,NA,NA,NA,NA,NA,NA,sub115
d3-animate-choice,195,757857,0.0-76.0-0.20,TRUE,FALSE,FALSE,FALSE,"""event"",""trial"",""time""
""fullscreenenter"",""5"",""19942""
","
","
","""event"",""trial"",""time""
""fullscreenenter"",""5"",""19942""
","
",433.3699999988312,NA,49,NA,NA,3000,1,NA,NA,images/earth.jpg,images/rocket2,images/rocket1,null,images/rocket1,NA,1,real,null,1,NA,NA,NA,sub115
d3-animate-choice,196,760754,0.0-76.0-1.20,TRUE,FALSE,FALSE,FALSE,"""event"",""trial"",""time""
""fullscreenenter"",""5"",""19942""
","
","
","""event"",""trial"",""time""
""fullscreenenter"",""5"",""19942""
","
",893.1099999973085,NA,48,NA,NA,3000,1,NA,NA,images/purpleplanet.jpg,images/alien4,images/alien3,images/rocket1,images/alien4,images/t.png,2,real,true,2,common,1,2020-06-23T17:19:46Z,sub115
two-step-fixation,197,761758,0.0-76.0-2.20,TRUE,FALSE,FALSE,FALSE,"""event"",""trial"",""time""
""fullscreenenter"",""5"",""19942""
","
","
","""event"",""trial"",""time""
""fullscreenenter"",""5"",""19942""
","
",NA,images/earth.jpg,NA,NA,NA,NA,NA,NA,NA,NA,NA,NA,NA,NA,NA,fixation,NA,NA,NA,NA,NA,NA,sub115
d3-animate-choice,198,764147,0.0-76.0-0.21,TRUE,FALSE,FALSE,FALSE,"""event"",""trial"",""time""
""fullscreenenter"",""5"",""19942""
","
","
","""event"",""trial"",""time""
""fullscreenenter"",""5"",""19942""
","
",385.0349999993341,NA,49,NA,NA,3000,1,NA,NA,images/earth.jpg,images/rocket2,images/rocket1,null,images/rocket1,NA,1,real,null,1,NA,NA,NA,sub115
d3-animate-choice,199,766924,0.0-76.0-1.21,TRUE,FALSE,FALSE,FALSE,"""event"",""trial"",""time""
""fullscreenenter"",""5"",""19942""
","
","
","""event"",""trial"",""time""
""fullscreenenter"",""5"",""19942""
","
",772.5299999946728,NA,48,NA,NA,3000,1,NA,NA,images/purpleplanet.jpg,images/alien4,images/alien3,images/rocket1,images/alien4,images/t.png,2,real,true,2,common,1,2020-06-23T17:19:52Z,sub115
two-step-fixation,200,767929,0.0-76.0-2.21,TRUE,FALSE,FALSE,FALSE,"""event"",""trial"",""time""
""fullscreenenter"",""5"",""19942""
","
","
","""event"",""trial"",""time""
""fullscreenenter"",""5"",""19942""
","
",NA,images/earth.jpg,NA,NA,NA,NA,NA,NA,NA,NA,NA,NA,NA,NA,NA,fixation,NA,NA,NA,NA,NA,NA,sub115
d3-animate-choice,201,770481,0.0-76.0-0.22,TRUE,FALSE,FALSE,FALSE,"""event"",""trial"",""time""
""fullscreenenter"",""5"",""19942""
","
","
","""event"",""trial"",""time""
""fullscreenenter"",""5"",""19942""
","
",548.2299999931129,NA,49,NA,NA,3000,1,NA,NA,images/earth.jpg,images/rocket2,images/rocket1,null,images/rocket1,NA,1,real,null,1,NA,NA,NA,sub115
d3-animate-choice,202,773171,0.0-76.0-1.22,TRUE,FALSE,FALSE,FALSE,"""event"",""trial"",""time""
""fullscreenenter"",""5"",""19942""
","
","
","""event"",""trial"",""time""
""fullscreenenter"",""5"",""19942""
","
",686.0250000027008,NA,48,NA,NA,3000,1,NA,NA,images/purpleplanet.jpg,images/alien4,images/alien3,images/rocket1,images/alien4,images/t.png,2,real,true,2,common,1,2020-06-23T17:19:58Z,sub115
two-step-fixation,203,774176,0.0-76.0-2.22,TRUE,FALSE,FALSE,FALSE,"""event"",""trial"",""time""
""fullscreenenter"",""5"",""19942""
","
","
","""event"",""trial"",""time""
""fullscreenenter"",""5"",""19942""
","
",NA,images/earth.jpg,NA,NA,NA,NA,NA,NA,NA,NA,NA,NA,NA,NA,NA,fixation,NA,NA,NA,NA,NA,NA,sub115
d3-animate-choice,204,776865,0.0-76.0-0.23,TRUE,FALSE,FALSE,FALSE,"""event"",""trial"",""time""
""fullscreenenter"",""5"",""19942""
","
","
","""event"",""trial"",""time""
""fullscreenenter"",""5"",""19942""
","
",684.544999996433,NA,49,NA,NA,3000,1,NA,NA,images/earth.jpg,images/rocket2,images/rocket1,null,images/rocket1,NA,1,real,null,1,NA,NA,NA,sub115
d3-animate-choice,205,779518,0.0-76.0-1.23,TRUE,FALSE,FALSE,FALSE,"""event"",""trial"",""time""
""fullscreenenter"",""5"",""19942""
","
","
","""event"",""trial"",""time""
""fullscreenenter"",""5"",""19942""
","
",650.02000000095,NA,48,NA,NA,3000,1,NA,NA,images/purpleplanet.jpg,images/alien4,images/alien3,images/rocket1,images/alien4,images/t.png,2,real,true,2,common,1,2020-06-23T17:20:05Z,sub115
two-step-fixation,206,780520,0.0-76.0-2.23,TRUE,FALSE,FALSE,FALSE,"""event"",""trial"",""time""
""fullscreenenter"",""5"",""19942""
","
","
","""event"",""trial"",""time""
""fullscreenenter"",""5"",""19942""
","
",NA,images/earth.jpg,NA,NA,NA,NA,NA,NA,NA,NA,NA,NA,NA,NA,NA,fixation,NA,NA,NA,NA,NA,NA,sub115
d3-animate-choice,207,783121,0.0-76.0-0.24,TRUE,FALSE,FALSE,FALSE,"""event"",""trial"",""time""
""fullscreenenter"",""5"",""19942""
","
","
","""event"",""trial"",""time""
""fullscreenenter"",""5"",""19942""
","
",595.3949999966426,NA,49,NA,NA,3000,1,NA,NA,images/earth.jpg,images/rocket2,images/rocket1,null,images/rocket1,NA,1,real,null,1,NA,NA,NA,sub115
d3-animate-choice,208,786623,0.0-76.0-1.24,TRUE,FALSE,FALSE,FALSE,"""event"",""trial"",""time""
""fullscreenenter"",""5"",""19942""
","
","
","""event"",""trial"",""time""
""fullscreenenter"",""5"",""19942""
","
",1497.689999996568,NA,49,NA,NA,3000,1,NA,NA,images/redplanet1.jpg,images/alien2,images/alien1,images/rocket1,images/alien1,images/t.png,2,real,false,1,rare,1,2020-06-23T17:20:12Z,sub115
two-step-fixation,209,787627,0.0-76.0-2.24,TRUE,FALSE,FALSE,FALSE,"""event"",""trial"",""time""
""fullscreenenter"",""5"",""19942""
","
","
","""event"",""trial"",""time""
""fullscreenenter"",""5"",""19942""
","
",NA,images/earth.jpg,NA,NA,NA,NA,NA,NA,NA,NA,NA,NA,NA,NA,NA,fixation,NA,NA,NA,NA,NA,NA,sub115
d3-animate-choice,210,791021,0.0-76.0-0.25,TRUE,FALSE,FALSE,FALSE,"""event"",""trial"",""time""
""fullscreenenter"",""5"",""19942""
","
","
","""event"",""trial"",""time""
""fullscreenenter"",""5"",""19942""
","
",1386.289999994915,NA,49,NA,NA,3000,1,NA,NA,images/earth.jpg,images/rocket2,images/rocket1,null,images/rocket1,NA,1,real,null,1,NA,NA,NA,sub115
d3-animate-choice,211,793679,0.0-76.0-1.25,TRUE,FALSE,FALSE,FALSE,"""event"",""trial"",""time""
""fullscreenenter"",""5"",""19942""
","
","
","""event"",""trial"",""time""
""fullscreenenter"",""5"",""19942""
","
",652.2850000036415,NA,48,NA,NA,3000,1,NA,NA,images/purpleplanet.jpg,images/alien4,images/alien3,images/rocket1,images/alien4,images/t.png,2,real,true,2,common,1,2020-06-23T17:20:19Z,sub115
two-step-fixation,212,794684,0.0-76.0-2.25,TRUE,FALSE,FALSE,FALSE,"""event"",""trial"",""time""
""fullscreenenter"",""5"",""19942""
","
","
","""event"",""trial"",""time""
""fullscreenenter"",""5"",""19942""
","
",NA,images/earth.jpg,NA,NA,NA,NA,NA,NA,NA,NA,NA,NA,NA,NA,NA,fixation,NA,NA,NA,NA,NA,NA,sub115
d3-animate-choice,213,797355,0.0-76.0-0.26,TRUE,FALSE,FALSE,FALSE,"""event"",""trial"",""time""
""fullscreenenter"",""5"",""19942""
","
","
","""event"",""trial"",""time""
""fullscreenenter"",""5"",""19942""
","
",663.1149999957997,NA,49,NA,NA,3000,1,NA,NA,images/earth.jpg,images/rocket2,images/rocket1,null,images/rocket1,NA,1,real,null,1,NA,NA,NA,sub115
d3-animate-choice,214,799904,0.0-76.0-1.26,TRUE,FALSE,FALSE,FALSE,"""event"",""trial"",""time""
""fullscreenenter"",""5"",""19942""
","
","
","""event"",""trial"",""time""
""fullscreenenter"",""5"",""19942""
","
",543.7549999988405,NA,48,NA,NA,3000,1,NA,NA,images/purpleplanet.jpg,images/alien4,images/alien3,images/rocket1,images/alien4,images/nothing.png,2,real,true,2,common,0,2020-06-23T17:20:25Z,sub115
two-step-fixation,215,800907,0.0-76.0-2.26,TRUE,FALSE,FALSE,FALSE,"""event"",""trial"",""time""
""fullscreenenter"",""5"",""19942""
","
","
","""event"",""trial"",""time""
""fullscreenenter"",""5"",""19942""
","
",NA,images/earth.jpg,NA,NA,NA,NA,NA,NA,NA,NA,NA,NA,NA,NA,NA,fixation,NA,NA,NA,NA,NA,NA,sub115
d3-animate-choice,216,804455,0.0-76.0-0.27,TRUE,FALSE,FALSE,FALSE,"""event"",""trial"",""time""
""fullscreenenter"",""5"",""19942""
","
","
","""event"",""trial"",""time""
""fullscreenenter"",""5"",""19942""
","
",1540.724999998929,NA,49,NA,NA,3000,1,NA,NA,images/earth.jpg,images/rocket2,images/rocket1,null,images/rocket1,NA,1,real,null,1,NA,NA,NA,sub115
d3-animate-choice,217,807034,0.0-76.0-1.27,TRUE,FALSE,FALSE,FALSE,"""event"",""trial"",""time""
""fullscreenenter"",""5"",""19942""
","
","
","""event"",""trial"",""time""
""fullscreenenter"",""5"",""19942""
","
",574.7499999997672,NA,48,NA,NA,3000,1,NA,NA,images/purpleplanet.jpg,images/alien4,images/alien3,images/rocket1,images/alien4,images/nothing.png,2,real,true,2,common,0,2020-06-23T17:20:32Z,sub115
two-step-fixation,218,808038,0.0-76.0-2.27,TRUE,FALSE,FALSE,FALSE,"""event"",""trial"",""time""
""fullscreenenter"",""5"",""19942""
","
","
","""event"",""trial"",""time""
""fullscreenenter"",""5"",""19942""
","
",NA,images/earth.jpg,NA,NA,NA,NA,NA,NA,NA,NA,NA,NA,NA,NA,NA,fixation,NA,NA,NA,NA,NA,NA,sub115
d3-animate-choice,219,810790,0.0-76.0-0.28,TRUE,FALSE,FALSE,FALSE,"""event"",""trial"",""time""
""fullscreenenter"",""5"",""19942""
","
","
","""event"",""trial"",""time""
""fullscreenenter"",""5"",""19942""
","
",748.265000001993,NA,49,NA,NA,3000,1,NA,NA,images/earth.jpg,images/rocket2,images/rocket1,null,images/rocket1,NA,1,real,null,1,NA,NA,NA,sub115
d3-animate-choice,220,814442,0.0-76.0-1.28,TRUE,FALSE,FALSE,FALSE,"""event"",""trial"",""time""
""fullscreenenter"",""5"",""19942""
","
","
","""event"",""trial"",""time""
""fullscreenenter"",""5"",""19942""
","
",1648.4700000000885,NA,48,NA,NA,3000,1,NA,NA,images/purpleplanet.jpg,images/alien4,images/alien3,images/rocket1,images/alien4,images/t.png,2,real,true,2,common,1,2020-06-23T17:20:40Z,sub115
two-step-fixation,221,815446,0.0-76.0-2.28,TRUE,FALSE,FALSE,FALSE,"""event"",""trial"",""time""
""fullscreenenter"",""5"",""19942""
","
","
","""event"",""trial"",""time""
""fullscreenenter"",""5"",""19942""
","
",NA,images/earth.jpg,NA,NA,NA,NA,NA,NA,NA,NA,NA,NA,NA,NA,NA,fixation,NA,NA,NA,NA,NA,NA,sub115
d3-animate-choice,222,818015,0.0-76.0-0.29,TRUE,FALSE,FALSE,FALSE,"""event"",""trial"",""time""
""fullscreenenter"",""5"",""19942""
","
","
","""event"",""trial"",""time""
""fullscreenenter"",""5"",""19942""
","
",563.8299999991432,NA,49,NA,NA,3000,1,NA,NA,images/earth.jpg,images/rocket2,images/rocket1,null,images/rocket1,NA,1,real,null,1,NA,NA,NA,sub115
d3-animate-choice,223,821593,0.0-76.0-1.29,TRUE,FALSE,FALSE,FALSE,"""event"",""trial"",""time""
""fullscreenenter"",""5"",""19942""
","
","
","""event"",""trial"",""time""
""fullscreenenter"",""5"",""19942""
","
",1572.525000003283,NA,49,NA,NA,3000,1,NA,NA,images/redplanet1.jpg,images/alien2,images/alien1,images/rocket1,images/alien1,images/nothing.png,2,real,false,1,rare,0,2020-06-23T17:20:47Z,sub115
two-step-fixation,224,822598,0.0-76.0-2.29,TRUE,FALSE,FALSE,FALSE,"""event"",""trial"",""time""
""fullscreenenter"",""5"",""19942""
","
","
","""event"",""trial"",""time""
""fullscreenenter"",""5"",""19942""
","
",NA,images/earth.jpg,NA,NA,NA,NA,NA,NA,NA,NA,NA,NA,NA,NA,NA,fixation,NA,NA,NA,NA,NA,NA,sub115
d3-animate-choice,225,825386,0.0-76.0-0.30,TRUE,FALSE,FALSE,FALSE,"""event"",""trial"",""time""
""fullscreenenter"",""5"",""19942""
","
","
","""event"",""trial"",""time""
""fullscreenenter"",""5"",""19942""
","
",784.6849999987753,NA,49,NA,NA,3000,1,NA,NA,images/earth.jpg,images/rocket2,images/rocket1,null,images/rocket1,NA,1,real,null,1,NA,NA,NA,sub115
d3-animate-choice,226,828289,0.0-76.0-1.30,TRUE,FALSE,FALSE,FALSE,"""event"",""trial"",""time""
""fullscreenenter"",""5"",""19942""
","
","
","""event"",""trial"",""time""
""fullscreenenter"",""5"",""19942""
","
",897.334999994142,NA,49,NA,NA,3000,1,NA,NA,images/redplanet1.jpg,images/alien2,images/alien1,images/rocket1,images/alien1,images/t.png,2,real,false,1,rare,1,2020-06-23T17:20:53Z,sub115
two-step-fixation,227,829296,0.0-76.0-2.30,TRUE,FALSE,FALSE,FALSE,"""event"",""trial"",""time""
""fullscreenenter"",""5"",""19942""
","
","
","""event"",""trial"",""time""
""fullscreenenter"",""5"",""19942""
","
",NA,images/earth.jpg,NA,NA,NA,NA,NA,NA,NA,NA,NA,NA,NA,NA,NA,fixation,NA,NA,NA,NA,NA,NA,sub115
d3-animate-choice,228,832540,0.0-76.0-0.31,TRUE,FALSE,FALSE,FALSE,"""event"",""trial"",""time""
""fullscreenenter"",""5"",""19942""
","
","
","""event"",""trial"",""time""
""fullscreenenter"",""5"",""19942""
","
",1239.329999996582,NA,48,NA,NA,3000,1,NA,NA,images/earth.jpg,images/rocket2,images/rocket1,null,images/rocket2,NA,1,real,null,2,NA,NA,NA,sub115
d3-animate-choice,229,835092,0.0-76.0-1.31,TRUE,FALSE,FALSE,FALSE,"""event"",""trial"",""time""
""fullscreenenter"",""5"",""19942""
","
","
","""event"",""trial"",""time""
""fullscreenenter"",""5"",""19942""
","
",546.4799999973038,NA,49,NA,NA,3000,1,NA,NA,images/redplanet1.jpg,images/alien2,images/alien1,images/rocket2,images/alien1,images/nothing.png,2,real,true,1,common,0,2020-06-23T17:21:00Z,sub115
two-step-fixation,230,836096,0.0-76.0-2.31,TRUE,FALSE,FALSE,FALSE,"""event"",""trial"",""time""
""fullscreenenter"",""5"",""19942""
","
","
","""event"",""trial"",""time""
""fullscreenenter"",""5"",""19942""
","
",NA,images/earth.jpg,NA,NA,NA,NA,NA,NA,NA,NA,NA,NA,NA,NA,NA,fixation,NA,NA,NA,NA,NA,NA,sub115
d3-animate-choice,231,838507,0.0-76.0-0.32,TRUE,FALSE,FALSE,FALSE,"""event"",""trial"",""time""
""fullscreenenter"",""5"",""19942""
","
","
","""event"",""trial"",""time""
""fullscreenenter"",""5"",""19942""
","
",408.51500000292435,NA,48,NA,NA,3000,1,NA,NA,images/earth.jpg,images/rocket2,images/rocket1,null,images/rocket2,NA,1,real,null,2,NA,NA,NA,sub115
d3-animate-choice,232,841340,0.0-76.0-1.32,TRUE,FALSE,FALSE,FALSE,"""event"",""trial"",""time""
""fullscreenenter"",""5"",""19942""
","
","
","""event"",""trial"",""time""
""fullscreenenter"",""5"",""19942""
","
",827.3599999956787,NA,48,NA,NA,3000,1,NA,NA,images/redplanet1.jpg,images/alien2,images/alien1,images/rocket2,images/alien2,images/nothing.png,2,real,true,2,common,0,2020-06-23T17:21:06Z,sub115
two-step-fixation,233,842345,0.0-76.0-2.32,TRUE,FALSE,FALSE,FALSE,"""event"",""trial"",""time""
""fullscreenenter"",""5"",""19942""
","
","
","""event"",""trial"",""time""
""fullscreenenter"",""5"",""19942""
","
",NA,images/earth.jpg,NA,NA,NA,NA,NA,NA,NA,NA,NA,NA,NA,NA,NA,fixation,NA,NA,NA,NA,NA,NA,sub115
d3-animate-choice,234,844690,0.0-76.0-0.33,TRUE,FALSE,FALSE,FALSE,"""event"",""trial"",""time""
""fullscreenenter"",""5"",""19942""
","
","
","""event"",""trial"",""time""
""fullscreenenter"",""5"",""19942""
","
",338.8649999978952,NA,49,NA,NA,3000,1,NA,NA,images/earth.jpg,images/rocket2,images/rocket1,null,images/rocket1,NA,1,real,null,1,NA,NA,NA,sub115
d3-animate-choice,235,847872,0.0-76.0-1.33,TRUE,FALSE,FALSE,FALSE,"""event"",""trial"",""time""
""fullscreenenter"",""5"",""19942""
","
","
","""event"",""trial"",""time""
""fullscreenenter"",""5"",""19942""
","
",1175.074999999255,NA,49,NA,NA,3000,1,NA,NA,images/redplanet1.jpg,images/alien2,images/alien1,images/rocket1,images/alien1,images/t.png,2,real,false,1,rare,1,2020-06-23T17:21:13Z,sub115
two-step-fixation,236,848877,0.0-76.0-2.33,TRUE,FALSE,FALSE,FALSE,"""event"",""trial"",""time""
""fullscreenenter"",""5"",""19942""
","
","
","""event"",""trial"",""time""
""fullscreenenter"",""5"",""19942""
","
",NA,images/earth.jpg,NA,NA,NA,NA,NA,NA,NA,NA,NA,NA,NA,NA,NA,fixation,NA,NA,NA,NA,NA,NA,sub115
d3-animate-choice,237,851256,0.0-76.0-0.34,TRUE,FALSE,FALSE,FALSE,"""event"",""trial"",""time""
""fullscreenenter"",""5"",""19942""
","
","
","""event"",""trial"",""time""
""fullscreenenter"",""5"",""19942""
","
",371.8349999981001,NA,49,NA,NA,3000,1,NA,NA,images/earth.jpg,images/rocket2,images/rocket1,null,images/rocket1,NA,1,real,null,1,NA,NA,NA,sub115
d3-animate-choice,238,853781,0.0-76.0-1.34,TRUE,FALSE,FALSE,FALSE,"""event"",""trial"",""time""
""fullscreenenter"",""5"",""19942""
","
","
","""event"",""trial"",""time""
""fullscreenenter"",""5"",""19942""
","
",522.2199999989243,NA,48,NA,NA,3000,1,NA,NA,images/purpleplanet.jpg,images/alien4,images/alien3,images/rocket1,images/alien4,images/t.png,2,real,true,2,common,1,2020-06-23T17:21:19Z,sub115
two-step-fixation,239,854784,0.0-76.0-2.34,TRUE,FALSE,FALSE,FALSE,"""event"",""trial"",""time""
""fullscreenenter"",""5"",""19942""
","
","
","""event"",""trial"",""time""
""fullscreenenter"",""5"",""19942""
","
",NA,images/earth.jpg,NA,NA,NA,NA,NA,NA,NA,NA,NA,NA,NA,NA,NA,fixation,NA,NA,NA,NA,NA,NA,sub115
d3-animate-choice,240,857177,0.0-76.0-0.35,TRUE,FALSE,FALSE,FALSE,"""event"",""trial"",""time""
""fullscreenenter"",""5"",""19942""
","
","
","""event"",""trial"",""time""
""fullscreenenter"",""5"",""19942""
","
",389.8750000006985,NA,49,NA,NA,3000,1,NA,NA,images/earth.jpg,images/rocket2,images/rocket1,null,images/rocket1,NA,1,real,null,1,NA,NA,NA,sub115
d3-animate-choice,241,859630,0.0-76.0-1.35,TRUE,FALSE,FALSE,FALSE,"""event"",""trial"",""time""
""fullscreenenter"",""5"",""19942""
","
","
","""event"",""trial"",""time""
""fullscreenenter"",""5"",""19942""
","
",449.34000000648666,NA,48,NA,NA,3000,1,NA,NA,images/purpleplanet.jpg,images/alien4,images/alien3,images/rocket1,images/alien4,images/nothing.png,2,real,true,2,common,0,2020-06-23T17:21:25Z,sub115
two-step-fixation,242,860633,0.0-76.0-2.35,TRUE,FALSE,FALSE,FALSE,"""event"",""trial"",""time""
""fullscreenenter"",""5"",""19942""
","
","
","""event"",""trial"",""time""
""fullscreenenter"",""5"",""19942""
","
",NA,images/earth.jpg,NA,NA,NA,NA,NA,NA,NA,NA,NA,NA,NA,NA,NA,fixation,NA,NA,NA,NA,NA,NA,sub115
d3-animate-choice,243,863110,0.0-76.0-0.36,TRUE,FALSE,FALSE,FALSE,"""event"",""trial"",""time""
""fullscreenenter"",""5"",""19942""
","
","
","""event"",""trial"",""time""
""fullscreenenter"",""5"",""19942""
","
",473.0550000022631,NA,49,NA,NA,3000,1,NA,NA,images/earth.jpg,images/rocket2,images/rocket1,null,images/rocket1,NA,1,real,null,1,NA,NA,NA,sub115
d3-animate-choice,244,866059,0.0-76.0-1.36,TRUE,FALSE,FALSE,FALSE,"""event"",""trial"",""time""
""fullscreenenter"",""5"",""19942""
","
","
","""event"",""trial"",""time""
""fullscreenenter"",""5"",""19942""
","
",942.5350000018952,NA,49,NA,NA,3000,1,NA,NA,images/redplanet1.jpg,images/alien2,images/alien1,images/rocket1,images/alien1,images/nothing.png,2,real,false,1,rare,0,2020-06-23T17:21:31Z,sub115
two-step-fixation,245,867062,0.0-76.0-2.36,TRUE,FALSE,FALSE,FALSE,"""event"",""trial"",""time""
""fullscreenenter"",""5"",""19942""
","
","
","""event"",""trial"",""time""
""fullscreenenter"",""5"",""19942""
","
",NA,images/earth.jpg,NA,NA,NA,NA,NA,NA,NA,NA,NA,NA,NA,NA,NA,fixation,NA,NA,NA,NA,NA,NA,sub115
d3-animate-choice,246,869527,0.0-76.0-0.37,TRUE,FALSE,FALSE,FALSE,"""event"",""trial"",""time""
""fullscreenenter"",""5"",""19942""
","
","
","""event"",""trial"",""time""
""fullscreenenter"",""5"",""19942""
","
",460.720000002766,NA,49,NA,NA,3000,1,NA,NA,images/earth.jpg,images/rocket2,images/rocket1,null,images/rocket1,NA,1,real,null,1,NA,NA,NA,sub115
d3-animate-choice,247,872961,0.0-76.0-1.37,TRUE,FALSE,FALSE,FALSE,"""event"",""trial"",""time""
""fullscreenenter"",""5"",""19942""
","
","
","""event"",""trial"",""time""
""fullscreenenter"",""5"",""19942""
","
",1429.1400000002468,NA,49,NA,NA,3000,1,NA,NA,images/redplanet1.jpg,images/alien2,images/alien1,images/rocket1,images/alien1,images/t.png,2,real,false,1,rare,1,2020-06-23T17:21:38Z,sub115
two-step-fixation,248,873963,0.0-76.0-2.37,TRUE,FALSE,FALSE,FALSE,"""event"",""trial"",""time""
""fullscreenenter"",""5"",""19942""
","
","
","""event"",""trial"",""time""
""fullscreenenter"",""5"",""19942""
","
",NA,images/earth.jpg,NA,NA,NA,NA,NA,NA,NA,NA,NA,NA,NA,NA,NA,fixation,NA,NA,NA,NA,NA,NA,sub115
d3-animate-choice,249,876540,0.0-76.0-0.38,TRUE,FALSE,FALSE,FALSE,"""event"",""trial"",""time""
""fullscreenenter"",""5"",""19942""
","
","
","""event"",""trial"",""time""
""fullscreenenter"",""5"",""19942""
","
",570.0750000032131,NA,49,NA,NA,3000,1,NA,NA,images/earth.jpg,images/rocket2,images/rocket1,null,images/rocket1,NA,1,real,null,1,NA,NA,NA,sub115
d3-animate-choice,250,879014,0.0-76.0-1.38,TRUE,FALSE,FALSE,FALSE,"""event"",""trial"",""time""
""fullscreenenter"",""5"",""19942""
","
","
","""event"",""trial"",""time""
""fullscreenenter"",""5"",""19942""
","
",468.95999999833293,NA,48,NA,NA,3000,1,NA,NA,images/purpleplanet.jpg,images/alien4,images/alien3,images/rocket1,images/alien4,images/t.png,2,real,true,2,common,1,2020-06-23T17:21:44Z,sub115
two-step-fixation,251,880021,0.0-76.0-2.38,TRUE,FALSE,FALSE,FALSE,"""event"",""trial"",""time""
""fullscreenenter"",""5"",""19942""
","
","
","""event"",""trial"",""time""
""fullscreenenter"",""5"",""19942""
","
",NA,images/earth.jpg,NA,NA,NA,NA,NA,NA,NA,NA,NA,NA,NA,NA,NA,fixation,NA,NA,NA,NA,NA,NA,sub115
d3-animate-choice,252,882407,0.0-76.0-0.39,TRUE,FALSE,FALSE,FALSE,"""event"",""trial"",""time""
""fullscreenenter"",""5"",""19942""
","
","
","""event"",""trial"",""time""
""fullscreenenter"",""5"",""19942""
","
",381.75999999651685,NA,49,NA,NA,3000,1,NA,NA,images/earth.jpg,images/rocket2,images/rocket1,null,images/rocket1,NA,1,real,null,1,NA,NA,NA,sub115
d3-animate-choice,253,884829,0.0-76.0-1.39,TRUE,FALSE,FALSE,FALSE,"""event"",""trial"",""time""
""fullscreenenter"",""5"",""19942""
","
","
","""event"",""trial"",""time""
""fullscreenenter"",""5"",""19942""
","
",416.96999999834225,NA,48,NA,NA,3000,1,NA,NA,images/purpleplanet.jpg,images/alien4,images/alien3,images/rocket1,images/alien4,images/t.png,2,real,true,2,common,1,2020-06-23T17:21:50Z,sub115
two-step-fixation,254,885835,0.0-76.0-2.39,TRUE,FALSE,FALSE,FALSE,"""event"",""trial"",""time""
""fullscreenenter"",""5"",""19942""
","
","
","""event"",""trial"",""time""
""fullscreenenter"",""5"",""19942""
","
",NA,images/earth.jpg,NA,NA,NA,NA,NA,NA,NA,NA,NA,NA,NA,NA,NA,fixation,NA,NA,NA,NA,NA,NA,sub115
d3-animate-choice,255,888318,0.0-76.0-0.40,TRUE,FALSE,FALSE,FALSE,"""event"",""trial"",""time""
""fullscreenenter"",""5"",""19942""
","
","
","""event"",""trial"",""time""
""fullscreenenter"",""5"",""19942""
","
",479.6100000020815,NA,49,NA,NA,3000,1,NA,NA,images/earth.jpg,images/rocket2,images/rocket1,null,images/rocket1,NA,1,real,null,1,NA,NA,NA,sub115
d3-animate-choice,256,890703,0.0-76.0-1.40,TRUE,FALSE,FALSE,FALSE,"""event"",""trial"",""time""
""fullscreenenter"",""5"",""19942""
","
","
","""event"",""trial"",""time""
""fullscreenenter"",""5"",""19942""
","
",380.4200000013225,NA,48,NA,NA,3000,1,NA,NA,images/purpleplanet.jpg,images/alien4,images/alien3,images/rocket1,images/alien4,images/t.png,2,real,true,2,common,1,2020-06-23T17:21:56Z,sub115
two-step-fixation,257,891709,0.0-76.0-2.40,TRUE,FALSE,FALSE,FALSE,"""event"",""trial"",""time""
""fullscreenenter"",""5"",""19942""
","
","
","""event"",""trial"",""time""
""fullscreenenter"",""5"",""19942""
","
",NA,images/earth.jpg,NA,NA,NA,NA,NA,NA,NA,NA,NA,NA,NA,NA,NA,fixation,NA,NA,NA,NA,NA,NA,sub115
d3-animate-choice,258,894162,0.0-76.0-0.41,TRUE,FALSE,FALSE,FALSE,"""event"",""trial"",""time""
""fullscreenenter"",""5"",""19942""
","
","
","""event"",""trial"",""time""
""fullscreenenter"",""5"",""19942""
","
",448.73999999975786,NA,49,NA,NA,3000,1,NA,NA,images/earth.jpg,images/rocket2,images/rocket1,null,images/rocket1,NA,1,real,null,1,NA,NA,NA,sub115
d3-animate-choice,259,896595,0.0-76.0-1.41,TRUE,FALSE,FALSE,FALSE,"""event"",""trial"",""time""
""fullscreenenter"",""5"",""19942""
","
","
","""event"",""trial"",""time""
""fullscreenenter"",""5"",""19942""
","
",428.50999999791384,NA,48,NA,NA,3000,1,NA,NA,images/purpleplanet.jpg,images/alien4,images/alien3,images/rocket1,images/alien4,images/t.png,2,real,true,2,common,1,2020-06-23T17:22:02Z,sub115
two-step-fixation,260,897598,0.0-76.0-2.41,TRUE,FALSE,FALSE,FALSE,"""event"",""trial"",""time""
""fullscreenenter"",""5"",""19942""
","
","
","""event"",""trial"",""time""
""fullscreenenter"",""5"",""19942""
","
",NA,images/earth.jpg,NA,NA,NA,NA,NA,NA,NA,NA,NA,NA,NA,NA,NA,fixation,NA,NA,NA,NA,NA,NA,sub115
d3-animate-choice,261,900043,0.0-76.0-0.42,TRUE,FALSE,FALSE,FALSE,"""event"",""trial"",""time""
""fullscreenenter"",""5"",""19942""
","
","
","""event"",""trial"",""time""
""fullscreenenter"",""5"",""19942""
","
",439.23000000370666,NA,49,NA,NA,3000,1,NA,NA,images/earth.jpg,images/rocket2,images/rocket1,null,images/rocket1,NA,1,real,null,1,NA,NA,NA,sub115
d3-animate-choice,262,902472,0.0-76.0-1.42,TRUE,FALSE,FALSE,FALSE,"""event"",""trial"",""time""
""fullscreenenter"",""5"",""19942""
","
","
","""event"",""trial"",""time""
""fullscreenenter"",""5"",""19942""
","
",426.0500000019092,NA,48,NA,NA,3000,1,NA,NA,images/purpleplanet.jpg,images/alien4,images/alien3,images/rocket1,images/alien4,images/t.png,2,real,true,2,common,1,2020-06-23T17:22:08Z,sub115
two-step-fixation,263,903478,0.0-76.0-2.42,TRUE,FALSE,FALSE,FALSE,"""event"",""trial"",""time""
""fullscreenenter"",""5"",""19942""
","
","
","""event"",""trial"",""time""
""fullscreenenter"",""5"",""19942""
","
",NA,images/earth.jpg,NA,NA,NA,NA,NA,NA,NA,NA,NA,NA,NA,NA,NA,fixation,NA,NA,NA,NA,NA,NA,sub115
d3-animate-choice,264,906285,0.0-76.0-0.43,TRUE,FALSE,FALSE,FALSE,"""event"",""trial"",""time""
""fullscreenenter"",""5"",""19942""
","
","
","""event"",""trial"",""time""
""fullscreenenter"",""5"",""19942""
","
",801.9400000048336,NA,49,NA,NA,3000,1,NA,NA,images/earth.jpg,images/rocket2,images/rocket1,null,images/rocket1,NA,1,real,null,1,NA,NA,NA,sub115
d3-animate-choice,265,908749,0.0-76.0-1.43,TRUE,FALSE,FALSE,FALSE,"""event"",""trial"",""time""
""fullscreenenter"",""5"",""19942""
","
","
","""event"",""trial"",""time""
""fullscreenenter"",""5"",""19942""
","
",459.3650000025518,NA,48,NA,NA,3000,1,NA,NA,images/purpleplanet.jpg,images/alien4,images/alien3,images/rocket1,images/alien4,images/nothing.png,2,real,true,2,common,0,2020-06-23T17:22:14Z,sub115
two-step-fixation,266,909752,0.0-76.0-2.43,TRUE,FALSE,FALSE,FALSE,"""event"",""trial"",""time""
""fullscreenenter"",""5"",""19942""
","
","
","""event"",""trial"",""time""
""fullscreenenter"",""5"",""19942""
","
",NA,images/earth.jpg,NA,NA,NA,NA,NA,NA,NA,NA,NA,NA,NA,NA,NA,fixation,NA,NA,NA,NA,NA,NA,sub115
d3-animate-choice,267,912430,0.0-76.0-0.44,TRUE,FALSE,FALSE,FALSE,"""event"",""trial"",""time""
""fullscreenenter"",""5"",""19942""
","
","
","""event"",""trial"",""time""
""fullscreenenter"",""5"",""19942""
","
",673.6799999998184,NA,49,NA,NA,3000,1,NA,NA,images/earth.jpg,images/rocket2,images/rocket1,null,images/rocket1,NA,1,real,null,1,NA,NA,NA,sub115
d3-animate-choice,268,914910,0.0-76.0-1.44,TRUE,FALSE,FALSE,FALSE,"""event"",""trial"",""time""
""fullscreenenter"",""5"",""19942""
","
","
","""event"",""trial"",""time""
""fullscreenenter"",""5"",""19942""
","
",474.19999999692664,NA,48,NA,NA,3000,1,NA,NA,images/purpleplanet.jpg,images/alien4,images/alien3,images/rocket1,images/alien4,images/nothing.png,2,real,true,2,common,0,2020-06-23T17:22:20Z,sub115
two-step-fixation,269,915913,0.0-76.0-2.44,TRUE,FALSE,FALSE,FALSE,"""event"",""trial"",""time""
""fullscreenenter"",""5"",""19942""
","
","
","""event"",""trial"",""time""
""fullscreenenter"",""5"",""19942""
","
",NA,images/earth.jpg,NA,NA,NA,NA,NA,NA,NA,NA,NA,NA,NA,NA,NA,fixation,NA,NA,NA,NA,NA,NA,sub115
d3-animate-choice,270,918804,0.0-76.0-0.45,TRUE,FALSE,FALSE,FALSE,"""event"",""trial"",""time""
""fullscreenenter"",""5"",""19942""
","
","
","""event"",""trial"",""time""
""fullscreenenter"",""5"",""19942""
","
",887.8150000018068,NA,49,NA,NA,3000,1,NA,NA,images/earth.jpg,images/rocket2,images/rocket1,null,images/rocket1,NA,1,real,null,1,NA,NA,NA,sub115
d3-animate-choice,271,921330,0.0-76.0-1.45,TRUE,FALSE,FALSE,FALSE,"""event"",""trial"",""time""
""fullscreenenter"",""5"",""19942""
","
","
","""event"",""trial"",""time""
""fullscreenenter"",""5"",""19942""
","
",521.684999999823,NA,48,NA,NA,3000,1,NA,NA,images/purpleplanet.jpg,images/alien4,images/alien3,images/rocket1,images/alien4,images/t.png,2,real,true,2,common,1,2020-06-23T17:22:26Z,sub115
two-step-fixation,272,922334,0.0-76.0-2.45,TRUE,FALSE,FALSE,FALSE,"""event"",""trial"",""time""
""fullscreenenter"",""5"",""19942""
","
","
","""event"",""trial"",""time""
""fullscreenenter"",""5"",""19942""
","
",NA,images/earth.jpg,NA,NA,NA,NA,NA,NA,NA,NA,NA,NA,NA,NA,NA,fixation,NA,NA,NA,NA,NA,NA,sub115
d3-animate-choice,273,924764,0.0-76.0-0.46,TRUE,FALSE,FALSE,FALSE,"""event"",""trial"",""time""
""fullscreenenter"",""5"",""19942""
","
","
","""event"",""trial"",""time""
""fullscreenenter"",""5"",""19942""
","
",425.10500000207685,NA,49,NA,NA,3000,1,NA,NA,images/earth.jpg,images/rocket2,images/rocket1,null,images/rocket1,NA,1,real,null,1,NA,NA,NA,sub115
d3-animate-choice,274,928119,0.0-76.0-1.46,TRUE,FALSE,FALSE,FALSE,"""event"",""trial"",""time""
""fullscreenenter"",""5"",""19942""
","
","
","""event"",""trial"",""time""
""fullscreenenter"",""5"",""19942""
","
",1350.5650000006426,NA,49,NA,NA,3000,1,NA,NA,images/redplanet1.jpg,images/alien2,images/alien1,images/rocket1,images/alien1,images/t.png,2,real,false,1,rare,1,2020-06-23T17:22:33Z,sub115
two-step-fixation,275,929123,0.0-76.0-2.46,TRUE,FALSE,FALSE,FALSE,"""event"",""trial"",""time""
""fullscreenenter"",""5"",""19942""
","
","
","""event"",""trial"",""time""
""fullscreenenter"",""5"",""19942""
","
",NA,images/earth.jpg,NA,NA,NA,NA,NA,NA,NA,NA,NA,NA,NA,NA,NA,fixation,NA,NA,NA,NA,NA,NA,sub115
d3-animate-choice,276,932215,0.0-76.0-0.47,TRUE,FALSE,FALSE,FALSE,"""event"",""trial"",""time""
""fullscreenenter"",""5"",""19942""
","
","
","""event"",""trial"",""time""
""fullscreenenter"",""5"",""19942""
","
",1086.4050000017742,NA,48,NA,NA,3000,1,NA,NA,images/earth.jpg,images/rocket2,images/rocket1,null,images/rocket2,NA,1,real,null,2,NA,NA,NA,sub115
d3-animate-choice,277,934939,0.0-76.0-1.47,TRUE,FALSE,FALSE,FALSE,"""event"",""trial"",""time""
""fullscreenenter"",""5"",""19942""
","
","
","""event"",""trial"",""time""
""fullscreenenter"",""5"",""19942""
","
",719.9899999977788,NA,49,NA,NA,3000,1,NA,NA,images/redplanet1.jpg,images/alien2,images/alien1,images/rocket2,images/alien1,images/nothing.png,2,real,true,1,common,0,2020-06-23T17:22:40Z,sub115
two-step-fixation,278,935944,0.0-76.0-2.47,TRUE,FALSE,FALSE,FALSE,"""event"",""trial"",""time""
""fullscreenenter"",""5"",""19942""
","
","
","""event"",""trial"",""time""
""fullscreenenter"",""5"",""19942""
","
",NA,images/earth.jpg,NA,NA,NA,NA,NA,NA,NA,NA,NA,NA,NA,NA,NA,fixation,NA,NA,NA,NA,NA,NA,sub115
d3-animate-choice,279,938334,0.0-76.0-0.48,TRUE,FALSE,FALSE,FALSE,"""event"",""trial"",""time""
""fullscreenenter"",""5"",""19942""
","
","
","""event"",""trial"",""time""
""fullscreenenter"",""5"",""19942""
","
",386.89000000152737,NA,49,NA,NA,3000,1,NA,NA,images/earth.jpg,images/rocket2,images/rocket1,null,images/rocket1,NA,1,real,null,1,NA,NA,NA,sub115
d3-animate-choice,280,940843,0.0-76.0-1.48,TRUE,FALSE,FALSE,FALSE,"""event"",""trial"",""time""
""fullscreenenter"",""5"",""19942""
","
","
","""event"",""trial"",""time""
""fullscreenenter"",""5"",""19942""
","
",503.46500000171363,NA,48,NA,NA,3000,1,NA,NA,images/purpleplanet.jpg,images/alien4,images/alien3,images/rocket1,images/alien4,images/t.png,2,real,true,2,common,1,2020-06-23T17:22:46Z,sub115
two-step-fixation,281,941848,0.0-76.0-2.48,TRUE,FALSE,FALSE,FALSE,"""event"",""trial"",""time""
""fullscreenenter"",""5"",""19942""
","
","
","""event"",""trial"",""time""
""fullscreenenter"",""5"",""19942""
","
",NA,images/earth.jpg,NA,NA,NA,NA,NA,NA,NA,NA,NA,NA,NA,NA,NA,fixation,NA,NA,NA,NA,NA,NA,sub115
d3-animate-choice,282,944518,0.0-76.0-0.49,TRUE,FALSE,FALSE,FALSE,"""event"",""trial"",""time""
""fullscreenenter"",""5"",""19942""
","
","
","""event"",""trial"",""time""
