trial_type,trial_index,time_elapsed,internal_node_id,rocket_sides,red_planet_first_rocket,red_display_order,purple_display_order,interactions,blur_events,focus_events,fullscreenenter_events,fullscreenexit_events,rt,stimulus,key_press,button_pressed,success,duration,valid_pressed,rts,keys,planet_text,right_text,left_text,center_text,chosen_text,reward_text,trial_stage,practice_trial,transition_type,choice,transition,reward,timestamp,subject_id
pavlovia,0,7,0.0-0.0,TRUE,FALSE,FALSE,TRUE,"
","
","
","
","
",NA,NA,NA,NA,NA,NA,NA,NA,NA,NA,NA,NA,NA,NA,NA,NA,NA,NA,NA,NA,NA,NA,sub136
html-keyboard-response,1,1420,0.0-1.0,TRUE,FALSE,FALSE,TRUE,"
","
","
","
","
",1411.9400000199676,Welcome! Press the space bar to begin.,32,NA,NA,NA,NA,NA,NA,NA,NA,NA,NA,NA,NA,NA,NA,NA,NA,NA,NA,NA,sub136
audio-keyboard-response,2,4445,0.0-2.0,TRUE,FALSE,FALSE,TRUE,"
","
","
","
","
",3019,audio/beep_loop.wav,32,NA,NA,NA,NA,NA,NA,NA,NA,NA,NA,NA,NA,NA,NA,NA,NA,NA,NA,NA,sub136
audio-button-response,3,6927,0.0-3.0,TRUE,FALSE,FALSE,TRUE,"
","
","
","
","
",NaN,audio/fish.mp3,NA,1,NA,NA,NA,NA,NA,NA,NA,NA,NA,NA,NA,NA,NA,NA,NA,NA,NA,NA,sub136
audio-button-response,4,9616,0.0-4.0,TRUE,FALSE,FALSE,TRUE,"""event"",""trial"",""time""
""fullscreenenter"",""5"",""12281""
","
","
","""event"",""trial"",""time""
""fullscreenenter"",""5"",""12281""
","
",NaN,audio/tiger.mp3,NA,4,NA,NA,NA,NA,NA,NA,NA,NA,NA,NA,NA,NA,NA,NA,NA,NA,NA,NA,sub136
fullscreen,5,13278,0.0-5.0,TRUE,FALSE,FALSE,TRUE,"""event"",""trial"",""time""
""fullscreenenter"",""5"",""12281""
","
","
","""event"",""trial"",""time""
""fullscreenenter"",""5"",""12281""
","
",NA,NA,NA,NA,TRUE,NA,NA,NA,NA,NA,NA,NA,NA,NA,NA,NA,NA,NA,NA,NA,NA,NA,sub136
d3-instructions,6,34914,0.0-6.0,TRUE,FALSE,FALSE,TRUE,"""event"",""trial"",""time""
""fullscreenenter"",""5"",""12281""
","
","
","""event"",""trial"",""time""
""fullscreenenter"",""5"",""12281""
","
",NA,NA,NA,NA,NA,NA,NA,NA,NA,NA,NA,NA,NA,NA,NA,NA,NA,NA,NA,NA,NA,NA,sub136
d3-instructions,7,44960,0.0-7.0,TRUE,FALSE,FALSE,TRUE,"""event"",""trial"",""time""
""fullscreenenter"",""5"",""12281""
","
","
","""event"",""trial"",""time""
""fullscreenenter"",""5"",""12281""
","
",NA,NA,NA,NA,NA,NA,NA,NA,NA,NA,NA,NA,NA,NA,NA,NA,NA,NA,NA,NA,NA,NA,sub136
d3-instructions,8,59032,0.0-8.0,TRUE,FALSE,FALSE,TRUE,"""event"",""trial"",""time""
""fullscreenenter"",""5"",""12281""
","
","
","""event"",""trial"",""time""
""fullscreenenter"",""5"",""12281""
","
",NA,NA,NA,NA,NA,NA,NA,NA,NA,NA,NA,NA,NA,NA,NA,NA,NA,NA,NA,NA,NA,NA,sub136
d3-instructions,9,70813,0.0-9.0,TRUE,FALSE,FALSE,TRUE,"""event"",""trial"",""time""
""fullscreenenter"",""5"",""12281""
","
","
","""event"",""trial"",""time""
""fullscreenenter"",""5"",""12281""
","
",NA,NA,NA,NA,NA,NA,NA,NA,NA,NA,NA,NA,NA,NA,NA,NA,NA,NA,NA,NA,NA,NA,sub136
d3-instructions,10,137650,0.0-10.0,TRUE,FALSE,FALSE,TRUE,"""event"",""trial"",""time""
""fullscreenenter"",""5"",""12281""
","
","
","""event"",""trial"",""time""
""fullscreenenter"",""5"",""12281""
","
",NA,NA,NA,NA,NA,NA,NA,NA,NA,NA,NA,NA,NA,NA,NA,NA,NA,NA,NA,NA,NA,NA,sub136
d3-animate-choice,11,142426,0.0-11.0,TRUE,FALSE,FALSE,TRUE,"""event"",""trial"",""time""
""fullscreenenter"",""5"",""12281""
","
","
","""event"",""trial"",""time""
""fullscreenenter"",""5"",""12281""
","
",2760.9599999850616,NA,49,NA,NA,3000,1,NA,NA,images/tutgreenplanet.jpg,images/tutalien1,images/tutalien2,null,images/tutalien2,NA,NA,practice,null,NA,NA,NA,NA,sub136
d3-animate-choice,12,145453,0.0-12.0,TRUE,FALSE,FALSE,TRUE,"""event"",""trial"",""time""
""fullscreenenter"",""5"",""12281""
","
","
","""event"",""trial"",""time""
""fullscreenenter"",""5"",""12281""
","
",1022.5249999784864,NA,48,NA,NA,3000,1,NA,NA,images/tutgreenplanet.jpg,images/tutalien1,images/tutalien2,null,images/tutalien1,NA,NA,practice,null,NA,NA,NA,NA,sub136
d3-animate-choice,13,148929,0.0-13.0,TRUE,FALSE,FALSE,TRUE,"""event"",""trial"",""time""
""fullscreenenter"",""5"",""12281""
","
","
","""event"",""trial"",""time""
""fullscreenenter"",""5"",""12281""
","
",1467.789999966044,NA,48,NA,NA,3000,1,NA,NA,images/tutgreenplanet.jpg,images/tutalien1,images/tutalien2,null,images/tutalien1,NA,NA,practice,null,NA,NA,NA,NA,sub136
d3-animate-choice,14,151690,0.0-14.0,TRUE,FALSE,FALSE,TRUE,"""event"",""trial"",""time""
""fullscreenenter"",""5"",""12281""
","
","
","""event"",""trial"",""time""
""fullscreenenter"",""5"",""12281""
","
",757.9399999813177,NA,48,NA,NA,3000,1,NA,NA,images/tutgreenplanet.jpg,images/tutalien1,images/tutalien2,null,images/tutalien1,NA,NA,practice,null,NA,NA,NA,NA,sub136
d3-instructions,15,159430,0.0-15.0,TRUE,FALSE,FALSE,TRUE,"""event"",""trial"",""time""
""fullscreenenter"",""5"",""12281""
","
","
","""event"",""trial"",""time""
""fullscreenenter"",""5"",""12281""
","
",NA,NA,NA,NA,NA,NA,NA,NA,NA,NA,NA,NA,NA,NA,NA,NA,NA,NA,NA,NA,NA,NA,sub136
d3-instructions,16,167580,0.0-16.0,TRUE,FALSE,FALSE,TRUE,"""event"",""trial"",""time""
""fullscreenenter"",""5"",""12281""
","
","
","""event"",""trial"",""time""
""fullscreenenter"",""5"",""12281""
","
",NA,NA,NA,NA,NA,NA,NA,NA,NA,NA,NA,NA,NA,NA,NA,NA,NA,NA,NA,NA,NA,NA,sub136
d3-instructions,17,191946,0.0-17.0,TRUE,FALSE,FALSE,TRUE,"""event"",""trial"",""time""
""fullscreenenter"",""5"",""12281""
","
","
","""event"",""trial"",""time""
""fullscreenenter"",""5"",""12281""
","
",NA,NA,NA,NA,NA,NA,NA,NA,NA,NA,NA,NA,NA,NA,NA,NA,NA,NA,NA,NA,NA,NA,sub136
d3-instructions,18,205579,0.0-18.0,TRUE,FALSE,FALSE,TRUE,"""event"",""trial"",""time""
""fullscreenenter"",""5"",""12281""
","
","
","""event"",""trial"",""time""
""fullscreenenter"",""5"",""12281""
","
",NA,NA,NA,NA,NA,NA,NA,NA,NA,NA,NA,NA,NA,NA,NA,NA,NA,NA,NA,NA,NA,NA,sub136
d3-instructions,19,219713,0.0-19.0,TRUE,FALSE,FALSE,TRUE,"""event"",""trial"",""time""
""fullscreenenter"",""5"",""12281""
","
","
","""event"",""trial"",""time""
""fullscreenenter"",""5"",""12281""
","
",NA,NA,NA,NA,NA,NA,NA,NA,NA,NA,NA,NA,NA,NA,NA,NA,NA,NA,NA,NA,NA,NA,sub136
d3-animate-choice,20,222679,0.0-20.0,TRUE,FALSE,FALSE,TRUE,"""event"",""trial"",""time""
""fullscreenenter"",""5"",""12281""
","
","
","""event"",""trial"",""time""
""fullscreenenter"",""5"",""12281""
","
",959.4349999679253,NA,49,NA,NA,3000,1,NA,NA,images/tutyellowplanet.jpg,null,images/tutalien3,null,images/tutalien3,images/t.png,NA,practice,null,NA,NA,NA,NA,sub136
d3-animate-choice,21,225169,0.0-21.0,TRUE,FALSE,FALSE,TRUE,"""event"",""trial"",""time""
""fullscreenenter"",""5"",""12281""
","
","
","""event"",""trial"",""time""
""fullscreenenter"",""5"",""12281""
","
",482.43500001262873,NA,49,NA,NA,3000,1,NA,NA,images/tutyellowplanet.jpg,null,images/tutalien3,null,images/tutalien3,images/t.png,NA,practice,null,NA,NA,NA,NA,sub136
d3-animate-choice,22,227927,0.0-22.0,TRUE,FALSE,FALSE,TRUE,"""event"",""trial"",""time""
""fullscreenenter"",""5"",""12281""
","
","
","""event"",""trial"",""time""
""fullscreenenter"",""5"",""12281""
","
",752.2149999858811,NA,49,NA,NA,3000,1,NA,NA,images/tutyellowplanet.jpg,null,images/tutalien3,null,images/tutalien3,images/t.png,NA,practice,null,NA,NA,NA,NA,sub136
d3-animate-choice,23,230313,0.0-23.0,TRUE,FALSE,FALSE,TRUE,"""event"",""trial"",""time""
""fullscreenenter"",""5"",""12281""
","
","
","""event"",""trial"",""time""
""fullscreenenter"",""5"",""12281""
","
",379.7550000017509,NA,49,NA,NA,3000,1,NA,NA,images/tutyellowplanet.jpg,null,images/tutalien3,null,images/tutalien3,images/t.png,NA,practice,null,NA,NA,NA,NA,sub136
d3-animate-choice,24,232704,0.0-24.0,TRUE,FALSE,FALSE,TRUE,"""event"",""trial"",""time""
""fullscreenenter"",""5"",""12281""
","
","
","""event"",""trial"",""time""
""fullscreenenter"",""5"",""12281""
","
",385.52000001072884,NA,49,NA,NA,3000,1,NA,NA,images/tutyellowplanet.jpg,null,images/tutalien3,null,images/tutalien3,images/t.png,NA,practice,null,NA,NA,NA,NA,sub136
d3-animate-choice,25,235017,0.0-25.0,TRUE,FALSE,FALSE,TRUE,"""event"",""trial"",""time""
""fullscreenenter"",""5"",""12281""
","
","
","""event"",""trial"",""time""
""fullscreenenter"",""5"",""12281""
","
",305.4850000189617,NA,49,NA,NA,3000,1,NA,NA,images/tutyellowplanet.jpg,null,images/tutalien3,null,images/tutalien3,images/t.png,NA,practice,null,NA,NA,NA,NA,sub136
d3-animate-choice,26,237360,0.0-26.0,TRUE,FALSE,FALSE,TRUE,"""event"",""trial"",""time""
""fullscreenenter"",""5"",""12281""
","
","
","""event"",""trial"",""time""
""fullscreenenter"",""5"",""12281""
","
",338.6700000264682,NA,49,NA,NA,3000,1,NA,NA,images/tutyellowplanet.jpg,null,images/tutalien3,null,images/tutalien3,images/t.png,NA,practice,null,NA,NA,NA,NA,sub136
d3-animate-choice,27,239775,0.0-27.0,TRUE,FALSE,FALSE,TRUE,"""event"",""trial"",""time""
""fullscreenenter"",""5"",""12281""
","
","
","""event"",""trial"",""time""
""fullscreenenter"",""5"",""12281""
","
",408.3649999811314,NA,49,NA,NA,3000,1,NA,NA,images/tutyellowplanet.jpg,null,images/tutalien3,null,images/tutalien3,images/t.png,NA,practice,null,NA,NA,NA,NA,sub136
d3-animate-choice,28,242085,0.0-28.0,TRUE,FALSE,FALSE,TRUE,"""event"",""trial"",""time""
""fullscreenenter"",""5"",""12281""
","
","
","""event"",""trial"",""time""
""fullscreenenter"",""5"",""12281""
","
",302.1549999830313,NA,49,NA,NA,3000,1,NA,NA,images/tutyellowplanet.jpg,null,images/tutalien3,null,images/tutalien3,images/t.png,NA,practice,null,NA,NA,NA,NA,sub136
d3-animate-choice,29,244425,0.0-29.0,TRUE,FALSE,FALSE,TRUE,"""event"",""trial"",""time""
""fullscreenenter"",""5"",""12281""
","
","
","""event"",""trial"",""time""
""fullscreenenter"",""5"",""12281""
","
",335.5050000245683,NA,49,NA,NA,3000,1,NA,NA,images/tutyellowplanet.jpg,null,images/tutalien3,null,images/tutalien3,images/t.png,NA,practice,null,NA,NA,NA,NA,sub136
d3-instructions,30,251057,0.0-30.0,TRUE,FALSE,FALSE,TRUE,"""event"",""trial"",""time""
""fullscreenenter"",""5"",""12281""
","
","
","""event"",""trial"",""time""
""fullscreenenter"",""5"",""12281""
","
",NA,NA,NA,NA,NA,NA,NA,NA,NA,NA,NA,NA,NA,NA,NA,NA,NA,NA,NA,NA,NA,NA,sub136
d3-instructions,31,261689,0.0-31.0,TRUE,FALSE,FALSE,TRUE,"""event"",""trial"",""time""
""fullscreenenter"",""5"",""12281""
","
","
","""event"",""trial"",""time""
""fullscreenenter"",""5"",""12281""
","
",NA,NA,NA,NA,NA,NA,NA,NA,NA,NA,NA,NA,NA,NA,NA,NA,NA,NA,NA,NA,NA,NA,sub136
d3-instructions,32,269932,0.0-32.0,TRUE,FALSE,FALSE,TRUE,"""event"",""trial"",""time""
""fullscreenenter"",""5"",""12281""
","
","
","""event"",""trial"",""time""
""fullscreenenter"",""5"",""12281""
","
",NA,NA,NA,NA,NA,NA,NA,NA,NA,NA,NA,NA,NA,NA,NA,NA,NA,NA,NA,NA,NA,NA,sub136
d3-instructions,33,281030,0.0-33.0,TRUE,FALSE,FALSE,TRUE,"""event"",""trial"",""time""
""fullscreenenter"",""5"",""12281""
","
","
","""event"",""trial"",""time""
""fullscreenenter"",""5"",""12281""
","
",NA,NA,NA,NA,NA,NA,NA,NA,NA,NA,NA,NA,NA,NA,NA,NA,NA,NA,NA,NA,NA,NA,sub136
d3-animate-choice,34,283853,0.0-34.0,TRUE,FALSE,FALSE,TRUE,"""event"",""trial"",""time""
""fullscreenenter"",""5"",""12281""
","
","
","""event"",""trial"",""time""
""fullscreenenter"",""5"",""12281""
","
",816.9900000211783,NA,48,NA,NA,3000,1,NA,NA,images/tutgreenplanet.jpg,images/tutalien1,images/tutalien2,null,images/tutalien1,images/nothing.png,NA,practice,null,NA,NA,NA,NA,sub136
d3-animate-choice,35,286274,0.0-35.0,TRUE,FALSE,FALSE,TRUE,"""event"",""trial"",""time""
""fullscreenenter"",""5"",""12281""
","
","
","""event"",""trial"",""time""
""fullscreenenter"",""5"",""12281""
","
",413.29499997664243,NA,49,NA,NA,3000,1,NA,NA,images/tutgreenplanet.jpg,images/tutalien1,images/tutalien2,null,images/tutalien2,images/nothing.png,NA,practice,null,NA,NA,NA,NA,sub136
d3-animate-choice,36,288620,0.0-36.0,TRUE,FALSE,FALSE,TRUE,"""event"",""trial"",""time""
""fullscreenenter"",""5"",""12281""
","
","
","""event"",""trial"",""time""
""fullscreenenter"",""5"",""12281""
","
",337.4900000053458,NA,49,NA,NA,3000,1,NA,NA,images/tutgreenplanet.jpg,images/tutalien1,images/tutalien2,null,images/tutalien2,images/t.png,NA,practice,null,NA,NA,NA,NA,sub136
d3-animate-choice,37,290900,0.0-37.0,TRUE,FALSE,FALSE,TRUE,"""event"",""trial"",""time""
""fullscreenenter"",""5"",""12281""
","
","
","""event"",""trial"",""time""
""fullscreenenter"",""5"",""12281""
","
",273.27500004321337,NA,49,NA,NA,3000,1,NA,NA,images/tutgreenplanet.jpg,images/tutalien1,images/tutalien2,null,images/tutalien2,images/nothing.png,NA,practice,null,NA,NA,NA,NA,sub136
d3-animate-choice,38,293165,0.0-38.0,TRUE,FALSE,FALSE,TRUE,"""event"",""trial"",""time""
""fullscreenenter"",""5"",""12281""
","
","
","""event"",""trial"",""time""
""fullscreenenter"",""5"",""12281""
","
",258.20999999996275,NA,48,NA,NA,3000,1,NA,NA,images/tutgreenplanet.jpg,images/tutalien1,images/tutalien2,null,images/tutalien1,images/nothing.png,NA,practice,null,NA,NA,NA,NA,sub136
d3-animate-choice,39,295864,0.0-39.0,TRUE,FALSE,FALSE,TRUE,"""event"",""trial"",""time""
""fullscreenenter"",""5"",""12281""
","
","
","""event"",""trial"",""time""
""fullscreenenter"",""5"",""12281""
","
",694.9649999733083,NA,49,NA,NA,3000,1,NA,NA,images/tutgreenplanet.jpg,images/tutalien1,images/tutalien2,null,images/tutalien2,images/nothing.png,NA,practice,null,NA,NA,NA,NA,sub136
d3-animate-choice,40,298099,0.0-40.0,TRUE,FALSE,FALSE,TRUE,"""event"",""trial"",""time""
""fullscreenenter"",""5"",""12281""
","
","
","""event"",""trial"",""time""
""fullscreenenter"",""5"",""12281""
","
",229.52499997336417,NA,49,NA,NA,3000,1,NA,NA,images/tutgreenplanet.jpg,images/tutalien1,images/tutalien2,null,images/tutalien2,images/t.png,NA,practice,null,NA,NA,NA,NA,sub136
d3-animate-choice,41,300388,0.0-41.0,TRUE,FALSE,FALSE,TRUE,"""event"",""trial"",""time""
""fullscreenenter"",""5"",""12281""
","
","
","""event"",""trial"",""time""
""fullscreenenter"",""5"",""12281""
","
",285.83999996772036,NA,49,NA,NA,3000,1,NA,NA,images/tutgreenplanet.jpg,images/tutalien1,images/tutalien2,null,images/tutalien2,images/t.png,NA,practice,null,NA,NA,NA,NA,sub136
d3-animate-choice,42,302656,0.0-42.0,TRUE,FALSE,FALSE,TRUE,"""event"",""trial"",""time""
""fullscreenenter"",""5"",""12281""
","
","
","""event"",""trial"",""time""
""fullscreenenter"",""5"",""12281""
","
",263.7800000375137,NA,49,NA,NA,3000,1,NA,NA,images/tutgreenplanet.jpg,images/tutalien1,images/tutalien2,null,images/tutalien2,images/t.png,NA,practice,null,NA,NA,NA,NA,sub136
d3-animate-choice,43,304778,0.0-43.0,TRUE,FALSE,FALSE,TRUE,"""event"",""trial"",""time""
""fullscreenenter"",""5"",""12281""
","
","
","""event"",""trial"",""time""
""fullscreenenter"",""5"",""12281""
","
",116.62499996600673,NA,49,NA,NA,3000,1,NA,NA,images/tutgreenplanet.jpg,images/tutalien1,images/tutalien2,null,images/tutalien2,images/nothing.png,NA,practice,null,NA,NA,NA,NA,sub136
d3-instructions,44,320193,0.0-44.0,TRUE,FALSE,FALSE,TRUE,"""event"",""trial"",""time""
""fullscreenenter"",""5"",""12281""
","
","
","""event"",""trial"",""time""
""fullscreenenter"",""5"",""12281""
","
",NA,NA,NA,NA,NA,NA,NA,NA,NA,NA,NA,NA,NA,NA,NA,NA,NA,NA,NA,NA,NA,NA,sub136
d3-instructions,45,327206,0.0-45.0,TRUE,FALSE,FALSE,TRUE,"""event"",""trial"",""time""
""fullscreenenter"",""5"",""12281""
","
","
","""event"",""trial"",""time""
""fullscreenenter"",""5"",""12281""
","
",NA,NA,NA,NA,NA,NA,NA,NA,NA,NA,NA,NA,NA,NA,NA,NA,NA,NA,NA,NA,NA,NA,sub136
d3-instructions,46,333325,0.0-46.0,TRUE,FALSE,FALSE,TRUE,"""event"",""trial"",""time""
""fullscreenenter"",""5"",""12281""
","
","
","""event"",""trial"",""time""
""fullscreenenter"",""5"",""12281""
","
",NA,NA,NA,NA,NA,NA,NA,NA,NA,NA,NA,NA,NA,NA,NA,NA,NA,NA,NA,NA,NA,NA,sub136
d3-instructions,47,365610,0.0-47.0,TRUE,FALSE,FALSE,TRUE,"""event"",""trial"",""time""
""fullscreenenter"",""5"",""12281""
","
","
","""event"",""trial"",""time""
""fullscreenenter"",""5"",""12281""
","
",NA,NA,NA,NA,NA,NA,NA,NA,NA,NA,NA,NA,NA,NA,NA,NA,NA,NA,NA,NA,NA,NA,sub136
d3-instructions,48,372137,0.0-48.0,TRUE,FALSE,FALSE,TRUE,"""event"",""trial"",""time""
""fullscreenenter"",""5"",""12281""
","
","
","""event"",""trial"",""time""
""fullscreenenter"",""5"",""12281""
","
",NA,NA,NA,NA,NA,NA,NA,NA,NA,NA,NA,NA,NA,NA,NA,NA,NA,NA,NA,NA,NA,NA,sub136
d3-instructions,49,383356,0.0-49.0,TRUE,FALSE,FALSE,TRUE,"""event"",""trial"",""time""
""fullscreenenter"",""5"",""12281""
","
","
","""event"",""trial"",""time""
""fullscreenenter"",""5"",""12281""
","
",NA,NA,NA,NA,NA,NA,NA,NA,NA,NA,NA,NA,NA,NA,NA,NA,NA,NA,NA,NA,NA,NA,sub136
d3-instructions,50,392257,0.0-50.0,TRUE,FALSE,FALSE,TRUE,"""event"",""trial"",""time""
""fullscreenenter"",""5"",""12281""
","
","
","""event"",""trial"",""time""
""fullscreenenter"",""5"",""12281""
","
",NA,NA,NA,NA,NA,NA,NA,NA,NA,NA,NA,NA,NA,NA,NA,NA,NA,NA,NA,NA,NA,NA,sub136
d3-instructions,51,394917,0.0-51.0,TRUE,FALSE,FALSE,TRUE,"""event"",""trial"",""time""
""fullscreenenter"",""5"",""12281""
","
","
","""event"",""trial"",""time""
""fullscreenenter"",""5"",""12281""
","
",NA,NA,NA,NA,NA,NA,NA,NA,NA,NA,NA,NA,NA,NA,NA,NA,NA,NA,NA,NA,NA,NA,sub136
d3-instructions,52,397783,0.0-52.0,TRUE,FALSE,FALSE,TRUE,"""event"",""trial"",""time""
""fullscreenenter"",""5"",""12281""
","
","
","""event"",""trial"",""time""
""fullscreenenter"",""5"",""12281""
","
",NA,NA,NA,NA,NA,NA,NA,NA,NA,NA,NA,NA,NA,NA,NA,NA,NA,NA,NA,NA,NA,NA,sub136
d3-instructions,53,411472,0.0-53.0,TRUE,FALSE,FALSE,TRUE,"""event"",""trial"",""time""
""fullscreenenter"",""5"",""12281""
","
","
","""event"",""trial"",""time""
""fullscreenenter"",""5"",""12281""
","
",NA,NA,NA,NA,NA,NA,NA,NA,NA,NA,NA,NA,NA,NA,NA,NA,NA,NA,NA,NA,NA,NA,sub136
d3-instructions,54,424472,0.0-54.0,TRUE,FALSE,FALSE,TRUE,"""event"",""trial"",""time""
""fullscreenenter"",""5"",""12281""
","
","
","""event"",""trial"",""time""
""fullscreenenter"",""5"",""12281""
","
",NA,NA,NA,NA,NA,NA,NA,NA,NA,NA,NA,NA,NA,NA,NA,NA,NA,NA,NA,NA,NA,NA,sub136
d3-instructions,55,434598,0.0-55.0,TRUE,FALSE,FALSE,TRUE,"""event"",""trial"",""time""
""fullscreenenter"",""5"",""12281""
","
","
","""event"",""trial"",""time""
""fullscreenenter"",""5"",""12281""
","
",NA,NA,NA,NA,NA,NA,NA,NA,NA,NA,NA,NA,NA,NA,NA,NA,NA,NA,NA,NA,NA,NA,sub136
d3-instructions,56,442006,0.0-56.0,TRUE,FALSE,FALSE,TRUE,"""event"",""trial"",""time""
""fullscreenenter"",""5"",""12281""
","
","
","""event"",""trial"",""time""
""fullscreenenter"",""5"",""12281""
","
",NA,NA,NA,NA,NA,NA,NA,NA,NA,NA,NA,NA,NA,NA,NA,NA,NA,NA,NA,NA,NA,NA,sub136
d3-instructions,57,451741,0.0-57.0,TRUE,FALSE,FALSE,TRUE,"""event"",""trial"",""time""
""fullscreenenter"",""5"",""12281""
","
","
","""event"",""trial"",""time""
""fullscreenenter"",""5"",""12281""
","
",NA,NA,NA,NA,NA,NA,NA,NA,NA,NA,NA,NA,NA,NA,NA,NA,NA,NA,NA,NA,NA,NA,sub136
d3-instructions,58,461963,0.0-58.0,TRUE,FALSE,FALSE,TRUE,"""event"",""trial"",""time""
""fullscreenenter"",""5"",""12281""
","
","
","""event"",""trial"",""time""
""fullscreenenter"",""5"",""12281""
","
",NA,NA,NA,NA,NA,NA,NA,NA,NA,NA,NA,NA,NA,NA,NA,NA,NA,NA,NA,NA,NA,NA,sub136
d3-instructions,59,466609,0.0-59.0,TRUE,FALSE,FALSE,TRUE,"""event"",""trial"",""time""
""fullscreenenter"",""5"",""12281""
","
","
","""event"",""trial"",""time""
""fullscreenenter"",""5"",""12281""
","
",NA,NA,NA,NA,NA,NA,NA,NA,NA,NA,NA,NA,NA,NA,NA,NA,NA,NA,NA,NA,NA,NA,sub136
d3-instructions,60,473075,0.0-60.0,TRUE,FALSE,FALSE,TRUE,"""event"",""trial"",""time""
""fullscreenenter"",""5"",""12281""
","
","
","""event"",""trial"",""time""
""fullscreenenter"",""5"",""12281""
","
",NA,NA,NA,NA,NA,NA,NA,NA,NA,NA,NA,NA,NA,NA,NA,NA,NA,NA,NA,NA,NA,NA,sub136
d3-animate-choice,61,475999,0.0-61.0-0.0,TRUE,FALSE,FALSE,TRUE,"""event"",""trial"",""time""
""fullscreenenter"",""5"",""12281""
","
","
","""event"",""trial"",""time""
""fullscreenenter"",""5"",""12281""
","
",916.7999999481253,NA,49,NA,NA,3000,1,NA,NA,images/earth.jpg,images/tutrocket2,images/tutrocket1,null,images/tutrocket1,NA,1,practice,null,1,NA,NA,NA,sub136
d3-animate-choice,62,478767,0.0-61.0-1.0,TRUE,FALSE,FALSE,TRUE,"""event"",""trial"",""time""
""fullscreenenter"",""5"",""12281""
","
","
","""event"",""trial"",""time""
""fullscreenenter"",""5"",""12281""
","
",759.5250000013039,NA,48,NA,NA,3000,1,NA,NA,images/tutgreenplanet.jpg,images/tutalien2,images/tutalien1,images/tutrocket1,images/tutalien2,images/nothing.png,2,practice,false,2,rare,0,2020-06-28T18:42:54Z,sub136
two-step-fixation,63,479773,0.0-61.0-2.0,TRUE,FALSE,FALSE,TRUE,"""event"",""trial"",""time""
""fullscreenenter"",""5"",""12281""
","
","
","""event"",""trial"",""time""
""fullscreenenter"",""5"",""12281""
","
",NA,images/earth.jpg,NA,NA,NA,NA,NA,NA,NA,NA,NA,NA,NA,NA,NA,fixation,NA,NA,NA,NA,NA,NA,sub136
d3-animate-choice,64,482355,0.0-61.0-0.1,TRUE,FALSE,FALSE,TRUE,"""event"",""trial"",""time""
""fullscreenenter"",""5"",""12281""
","
","
","""event"",""trial"",""time""
""fullscreenenter"",""5"",""12281""
","
",576.9650000147521,NA,49,NA,NA,3000,1,NA,NA,images/earth.jpg,images/tutrocket2,images/tutrocket1,null,images/tutrocket1,NA,1,practice,null,1,NA,NA,NA,sub136
d3-animate-choice,65,484733,0.0-61.0-1.1,TRUE,FALSE,FALSE,TRUE,"""event"",""trial"",""time""
""fullscreenenter"",""5"",""12281""
","
","
","""event"",""trial"",""time""
""fullscreenenter"",""5"",""12281""
","
",373.99499997263774,NA,49,NA,NA,3000,1,NA,NA,images/tutyellowplanet.jpg,images/tutalien4,images/tutalien3,images/tutrocket1,images/tutalien3,images/t.png,2,practice,true,1,common,1,2020-06-28T18:43:00Z,sub136
two-step-fixation,66,485739,0.0-61.0-2.1,TRUE,FALSE,FALSE,TRUE,"""event"",""trial"",""time""
""fullscreenenter"",""5"",""12281""
","
","
","""event"",""trial"",""time""
""fullscreenenter"",""5"",""12281""
","
",NA,images/earth.jpg,NA,NA,NA,NA,NA,NA,NA,NA,NA,NA,NA,NA,NA,fixation,NA,NA,NA,NA,NA,NA,sub136
d3-animate-choice,67,488358,0.0-61.0-0.2,TRUE,FALSE,FALSE,TRUE,"""event"",""trial"",""time""
""fullscreenenter"",""5"",""12281""
","
","
","""event"",""trial"",""time""
""fullscreenenter"",""5"",""12281""
","
",609.5849999692291,NA,49,NA,NA,3000,1,NA,NA,images/earth.jpg,images/tutrocket2,images/tutrocket1,null,images/tutrocket1,NA,1,practice,null,1,NA,NA,NA,sub136
d3-animate-choice,68,490829,0.0-61.0-1.2,TRUE,FALSE,FALSE,TRUE,"""event"",""trial"",""time""
""fullscreenenter"",""5"",""12281""
","
","
","""event"",""trial"",""time""
""fullscreenenter"",""5"",""12281""
","
",465.02499998314306,NA,49,NA,NA,3000,1,NA,NA,images/tutyellowplanet.jpg,images/tutalien4,images/tutalien3,images/tutrocket1,images/tutalien3,images/nothing.png,2,practice,true,1,common,0,2020-06-28T18:43:06Z,sub136
two-step-fixation,69,491834,0.0-61.0-2.2,TRUE,FALSE,FALSE,TRUE,"""event"",""trial"",""time""
""fullscreenenter"",""5"",""12281""
","
","
","""event"",""trial"",""time""
""fullscreenenter"",""5"",""12281""
","
",NA,images/earth.jpg,NA,NA,NA,NA,NA,NA,NA,NA,NA,NA,NA,NA,NA,fixation,NA,NA,NA,NA,NA,NA,sub136
d3-animate-choice,70,494171,0.0-61.0-0.3,TRUE,FALSE,FALSE,TRUE,"""event"",""trial"",""time""
""fullscreenenter"",""5"",""12281""
","
","
","""event"",""trial"",""time""
""fullscreenenter"",""5"",""12281""
","
",328.4449999919161,NA,49,NA,NA,3000,1,NA,NA,images/earth.jpg,images/tutrocket2,images/tutrocket1,null,images/tutrocket1,NA,1,practice,null,1,NA,NA,NA,sub136
d3-animate-choice,71,497020,0.0-61.0-1.3,TRUE,FALSE,FALSE,TRUE,"""event"",""trial"",""time""
""fullscreenenter"",""5"",""12281""
","
","
","""event"",""trial"",""time""
""fullscreenenter"",""5"",""12281""
","
",840.0550000369549,NA,48,NA,NA,3000,1,NA,NA,images/tutgreenplanet.jpg,images/tutalien2,images/tutalien1,images/tutrocket1,images/tutalien2,images/nothing.png,2,practice,false,2,rare,0,2020-06-28T18:43:13Z,sub136
two-step-fixation,72,498024,0.0-61.0-2.3,TRUE,FALSE,FALSE,TRUE,"""event"",""trial"",""time""
""fullscreenenter"",""5"",""12281""
","
","
","""event"",""trial"",""time""
""fullscreenenter"",""5"",""12281""
","
",NA,images/earth.jpg,NA,NA,NA,NA,NA,NA,NA,NA,NA,NA,NA,NA,NA,fixation,NA,NA,NA,NA,NA,NA,sub136
d3-animate-choice,73,500399,0.0-61.0-0.4,TRUE,FALSE,FALSE,TRUE,"""event"",""trial"",""time""
""fullscreenenter"",""5"",""12281""
","
","
","""event"",""trial"",""time""
""fullscreenenter"",""5"",""12281""
","
",370.73000002419576,NA,49,NA,NA,3000,1,NA,NA,images/earth.jpg,images/tutrocket2,images/tutrocket1,null,images/tutrocket1,NA,1,practice,null,1,NA,NA,NA,sub136
d3-animate-choice,74,503192,0.0-61.0-1.4,TRUE,FALSE,FALSE,TRUE,"""event"",""trial"",""time""
""fullscreenenter"",""5"",""12281""
","
","
","""event"",""trial"",""time""
""fullscreenenter"",""5"",""12281""
","
",790.3349999687634,NA,49,NA,NA,3000,1,NA,NA,images/tutyellowplanet.jpg,images/tutalien4,images/tutalien3,images/tutrocket1,images/tutalien3,images/nothing.png,2,practice,true,1,common,0,2020-06-28T18:43:19Z,sub136
two-step-fixation,75,504196,0.0-61.0-2.4,TRUE,FALSE,FALSE,TRUE,"""event"",""trial"",""time""
""fullscreenenter"",""5"",""12281""
","
","
","""event"",""trial"",""time""
""fullscreenenter"",""5"",""12281""
","
",NA,images/earth.jpg,NA,NA,NA,NA,NA,NA,NA,NA,NA,NA,NA,NA,NA,fixation,NA,NA,NA,NA,NA,NA,sub136
d3-animate-choice,76,506646,0.0-61.0-0.5,TRUE,FALSE,FALSE,TRUE,"""event"",""trial"",""time""
""fullscreenenter"",""5"",""12281""
","
","
","""event"",""trial"",""time""
""fullscreenenter"",""5"",""12281""
","
",442.6300000050105,NA,49,NA,NA,3000,1,NA,NA,images/earth.jpg,images/tutrocket2,images/tutrocket1,null,images/tutrocket1,NA,1,practice,null,1,NA,NA,NA,sub136
d3-animate-choice,77,509282,0.0-61.0-1.5,TRUE,FALSE,FALSE,TRUE,"""event"",""trial"",""time""
""fullscreenenter"",""5"",""12281""
","
","
","""event"",""trial"",""time""
""fullscreenenter"",""5"",""12281""
","
",630.2850000211038,NA,48,NA,NA,3000,1,NA,NA,images/tutyellowplanet.jpg,images/tutalien4,images/tutalien3,images/tutrocket1,images/tutalien4,images/t.png,2,practice,true,2,common,1,2020-06-28T18:43:25Z,sub136
two-step-fixation,78,510285,0.0-61.0-2.5,TRUE,FALSE,FALSE,TRUE,"""event"",""trial"",""time""
""fullscreenenter"",""5"",""12281""
","
","
","""event"",""trial"",""time""
""fullscreenenter"",""5"",""12281""
","
",NA,images/earth.jpg,NA,NA,NA,NA,NA,NA,NA,NA,NA,NA,NA,NA,NA,fixation,NA,NA,NA,NA,NA,NA,sub136
d3-animate-choice,79,512683,0.0-61.0-0.6,TRUE,FALSE,FALSE,TRUE,"""event"",""trial"",""time""
""fullscreenenter"",""5"",""12281""
","
","
","""event"",""trial"",""time""
""fullscreenenter"",""5"",""12281""
","
",391.5300000226125,NA,49,NA,NA,3000,1,NA,NA,images/earth.jpg,images/tutrocket2,images/tutrocket1,null,images/tutrocket1,NA,1,practice,null,1,NA,NA,NA,sub136
d3-animate-choice,80,515183,0.0-61.0-1.6,TRUE,FALSE,FALSE,TRUE,"""event"",""trial"",""time""
""fullscreenenter"",""5"",""12281""
","
","
","""event"",""trial"",""time""
""fullscreenenter"",""5"",""12281""
","
",489.28999999770895,NA,48,NA,NA,3000,1,NA,NA,images/tutyellowplanet.jpg,images/tutalien4,images/tutalien3,images/tutrocket1,images/tutalien4,images/t.png,2,practice,true,2,common,1,2020-06-28T18:43:31Z,sub136
two-step-fixation,81,516189,0.0-61.0-2.6,TRUE,FALSE,FALSE,TRUE,"""event"",""trial"",""time""
""fullscreenenter"",""5"",""12281""
","
","
","""event"",""trial"",""time""
""fullscreenenter"",""5"",""12281""
","
",NA,images/earth.jpg,NA,NA,NA,NA,NA,NA,NA,NA,NA,NA,NA,NA,NA,fixation,NA,NA,NA,NA,NA,NA,sub136
d3-animate-choice,82,518462,0.0-61.0-0.7,TRUE,FALSE,FALSE,TRUE,"""event"",""trial"",""time""
""fullscreenenter"",""5"",""12281""
","
","
","""event"",""trial"",""time""
""fullscreenenter"",""5"",""12281""
","
",269.66500002890825,NA,49,NA,NA,3000,1,NA,NA,images/earth.jpg,images/tutrocket2,images/tutrocket1,null,images/tutrocket1,NA,1,practice,null,1,NA,NA,NA,sub136
d3-animate-choice,83,520961,0.0-61.0-1.7,TRUE,FALSE,FALSE,TRUE,"""event"",""trial"",""time""
""fullscreenenter"",""5"",""12281""
","
","
","""event"",""trial"",""time""
""fullscreenenter"",""5"",""12281""
","
",492.12000000989065,NA,48,NA,NA,3000,1,NA,NA,images/tutyellowplanet.jpg,images/tutalien4,images/tutalien3,images/tutrocket1,images/tutalien4,images/t.png,2,practice,true,2,common,1,2020-06-28T18:43:36Z,sub136
two-step-fixation,84,521969,0.0-61.0-2.7,TRUE,FALSE,FALSE,TRUE,"""event"",""trial"",""time""
""fullscreenenter"",""5"",""12281""
","
","
","""event"",""trial"",""time""
""fullscreenenter"",""5"",""12281""
","
",NA,images/earth.jpg,NA,NA,NA,NA,NA,NA,NA,NA,NA,NA,NA,NA,NA,fixation,NA,NA,NA,NA,NA,NA,sub136
d3-animate-choice,85,524281,0.0-61.0-0.8,TRUE,FALSE,FALSE,TRUE,"""event"",""trial"",""time""
""fullscreenenter"",""5"",""12281""
","
","
","""event"",""trial"",""time""
""fullscreenenter"",""5"",""12281""
","
",307.8199999872595,NA,49,NA,NA,3000,1,NA,NA,images/earth.jpg,images/tutrocket2,images/tutrocket1,null,images/tutrocket1,NA,1,practice,null,1,NA,NA,NA,sub136
d3-animate-choice,86,526772,0.0-61.0-1.8,TRUE,FALSE,FALSE,TRUE,"""event"",""trial"",""time""
""fullscreenenter"",""5"",""12281""
","
","
","""event"",""trial"",""time""
""fullscreenenter"",""5"",""12281""
","
",483.4099999861792,NA,48,NA,NA,3000,1,NA,NA,images/tutyellowplanet.jpg,images/tutalien4,images/tutalien3,images/tutrocket1,images/tutalien4,images/t.png,2,practice,true,2,common,1,2020-06-28T18:43:42Z,sub136
two-step-fixation,87,527776,0.0-61.0-2.8,TRUE,FALSE,FALSE,TRUE,"""event"",""trial"",""time""
""fullscreenenter"",""5"",""12281""
","
","
","""event"",""trial"",""time""
""fullscreenenter"",""5"",""12281""
","
",NA,images/earth.jpg,NA,NA,NA,NA,NA,NA,NA,NA,NA,NA,NA,NA,NA,fixation,NA,NA,NA,NA,NA,NA,sub136
d3-animate-choice,88,530197,0.0-61.0-0.9,TRUE,FALSE,FALSE,TRUE,"""event"",""trial"",""time""
""fullscreenenter"",""5"",""12281""
","
","
","""event"",""trial"",""time""
""fullscreenenter"",""5"",""12281""
","
",416.4849999942817,NA,49,NA,NA,3000,1,NA,NA,images/earth.jpg,images/tutrocket2,images/tutrocket1,null,images/tutrocket1,NA,1,practice,null,1,NA,NA,NA,sub136
d3-animate-choice,89,532611,0.0-61.0-1.9,TRUE,FALSE,FALSE,TRUE,"""event"",""trial"",""time""
""fullscreenenter"",""5"",""12281""
","
","
","""event"",""trial"",""time""
""fullscreenenter"",""5"",""12281""
","
",406.16999997291714,NA,48,NA,NA,3000,1,NA,NA,images/tutyellowplanet.jpg,images/tutalien4,images/tutalien3,images/tutrocket1,images/tutalien4,images/nothing.png,2,practice,true,2,common,0,2020-06-28T18:43:48Z,sub136
two-step-fixation,90,533616,0.0-61.0-2.9,TRUE,FALSE,FALSE,TRUE,"""event"",""trial"",""time""
""fullscreenenter"",""5"",""12281""
","
","
","""event"",""trial"",""time""
""fullscreenenter"",""5"",""12281""
","
",NA,images/earth.jpg,NA,NA,NA,NA,NA,NA,NA,NA,NA,NA,NA,NA,NA,fixation,NA,NA,NA,NA,NA,NA,sub136
d3-animate-choice,91,536002,0.0-61.0-0.10,TRUE,FALSE,FALSE,TRUE,"""event"",""trial"",""time""
""fullscreenenter"",""5"",""12281""
","
","
","""event"",""trial"",""time""
""fullscreenenter"",""5"",""12281""
","
",380.5449999636039,NA,49,NA,NA,3000,1,NA,NA,images/earth.jpg,images/tutrocket2,images/tutrocket1,null,images/tutrocket1,NA,1,practice,null,1,NA,NA,NA,sub136
d3-animate-choice,92,538287,0.0-61.0-1.10,TRUE,FALSE,FALSE,TRUE,"""event"",""trial"",""time""
""fullscreenenter"",""5"",""12281""
","
","
","""event"",""trial"",""time""
""fullscreenenter"",""5"",""12281""
","
",280.5950000183657,NA,48,NA,NA,3000,1,NA,NA,images/tutgreenplanet.jpg,images/tutalien2,images/tutalien1,images/tutrocket1,images/tutalien2,images/nothing.png,2,practice,false,2,rare,0,2020-06-28T18:43:54Z,sub136
two-step-fixation,93,539290,0.0-61.0-2.10,TRUE,FALSE,FALSE,TRUE,"""event"",""trial"",""time""
""fullscreenenter"",""5"",""12281""
","
","
","""event"",""trial"",""time""
""fullscreenenter"",""5"",""12281""
","
",NA,images/earth.jpg,NA,NA,NA,NA,NA,NA,NA,NA,NA,NA,NA,NA,NA,fixation,NA,NA,NA,NA,NA,NA,sub136
d3-animate-choice,94,541607,0.0-61.0-0.11,TRUE,FALSE,FALSE,TRUE,"""event"",""trial"",""time""
""fullscreenenter"",""5"",""12281""
","
","
","""event"",""trial"",""time""
""fullscreenenter"",""5"",""12281""
","
",308.98999999044463,NA,49,NA,NA,3000,1,NA,NA,images/earth.jpg,images/tutrocket2,images/tutrocket1,null,images/tutrocket1,NA,1,practice,null,1,NA,NA,NA,sub136
d3-animate-choice,95,543939,0.0-61.0-1.11,TRUE,FALSE,FALSE,TRUE,"""event"",""trial"",""time""
""fullscreenenter"",""5"",""12281""
","
","
","""event"",""trial"",""time""
""fullscreenenter"",""5"",""12281""
","
",323.3100000070408,NA,48,NA,NA,3000,1,NA,NA,images/tutgreenplanet.jpg,images/tutalien2,images/tutalien1,images/tutrocket1,images/tutalien2,images/nothing.png,2,practice,false,2,rare,0,2020-06-28T18:43:59Z,sub136
two-step-fixation,96,544944,0.0-61.0-2.11,TRUE,FALSE,FALSE,TRUE,"""event"",""trial"",""time""
""fullscreenenter"",""5"",""12281""
","
","
","""event"",""trial"",""time""
""fullscreenenter"",""5"",""12281""
","
",NA,images/earth.jpg,NA,NA,NA,NA,NA,NA,NA,NA,NA,NA,NA,NA,NA,fixation,NA,NA,NA,NA,NA,NA,sub136
d3-animate-choice,97,547237,0.0-61.0-0.12,TRUE,FALSE,FALSE,TRUE,"""event"",""trial"",""time""
""fullscreenenter"",""5"",""12281""
","
","
","""event"",""trial"",""time""
""fullscreenenter"",""5"",""12281""
","
",281.2549999798648,NA,49,NA,NA,3000,1,NA,NA,images/earth.jpg,images/tutrocket2,images/tutrocket1,null,images/tutrocket1,NA,1,practice,null,1,NA,NA,NA,sub136
d3-animate-choice,98,549702,0.0-61.0-1.12,TRUE,FALSE,FALSE,TRUE,"""event"",""trial"",""time""
""fullscreenenter"",""5"",""12281""
","
","
","""event"",""trial"",""time""
""fullscreenenter"",""5"",""12281""
","
",459.87999998033047,NA,48,NA,NA,3000,1,NA,NA,images/tutyellowplanet.jpg,images/tutalien4,images/tutalien3,images/tutrocket1,images/tutalien4,images/nothing.png,2,practice,true,2,common,0,2020-06-28T18:44:05Z,sub136
two-step-fixation,99,550706,0.0-61.0-2.12,TRUE,FALSE,FALSE,TRUE,"""event"",""trial"",""time""
""fullscreenenter"",""5"",""12281""
","
","
","""event"",""trial"",""time""
""fullscreenenter"",""5"",""12281""
","
",NA,images/earth.jpg,NA,NA,NA,NA,NA,NA,NA,NA,NA,NA,NA,NA,NA,fixation,NA,NA,NA,NA,NA,NA,sub136
d3-animate-choice,100,553014,0.0-61.0-0.13,TRUE,FALSE,FALSE,TRUE,"""event"",""trial"",""time""
""fullscreenenter"",""5"",""12281""
","
","
","""event"",""trial"",""time""
""fullscreenenter"",""5"",""12281""
","
",300.86999997729436,NA,49,NA,NA,3000,1,NA,NA,images/earth.jpg,images/tutrocket2,images/tutrocket1,null,images/tutrocket1,NA,1,practice,null,1,NA,NA,NA,sub136
d3-animate-choice,101,555463,0.0-61.0-1.13,TRUE,FALSE,FALSE,TRUE,"""event"",""trial"",""time""
""fullscreenenter"",""5"",""12281""
","
","
","""event"",""trial"",""time""
""fullscreenenter"",""5"",""12281""
","
",442.5800000317395,NA,48,NA,NA,3000,1,NA,NA,images/tutyellowplanet.jpg,images/tutalien4,images/tutalien3,images/tutrocket1,images/tutalien4,images/t.png,2,practice,true,2,common,1,2020-06-28T18:44:11Z,sub136
two-step-fixation,102,556468,0.0-61.0-2.13,TRUE,FALSE,FALSE,TRUE,"""event"",""trial"",""time""
""fullscreenenter"",""5"",""12281""
","
","
","""event"",""trial"",""time""
""fullscreenenter"",""5"",""12281""
","
",NA,images/earth.jpg,NA,NA,NA,NA,NA,NA,NA,NA,NA,NA,NA,NA,NA,fixation,NA,NA,NA,NA,NA,NA,sub136
d3-animate-choice,103,558759,0.0-61.0-0.14,TRUE,FALSE,FALSE,TRUE,"""event"",""trial"",""time""
""fullscreenenter"",""5"",""12281""
","
","
","""event"",""trial"",""time""
""fullscreenenter"",""5"",""12281""
","
",282.1650000405498,NA,49,NA,NA,3000,1,NA,NA,images/earth.jpg,images/tutrocket2,images/tutrocket1,null,images/tutrocket1,NA,1,practice,null,1,NA,NA,NA,sub136
d3-animate-choice,104,561600,0.0-61.0-1.14,TRUE,FALSE,FALSE,TRUE,"""event"",""trial"",""time""
""fullscreenenter"",""5"",""12281""
","
","
","""event"",""trial"",""time""
""fullscreenenter"",""5"",""12281""
","
",833.4150000009686,NA,49,NA,NA,3000,1,NA,NA,images/tutgreenplanet.jpg,images/tutalien2,images/tutalien1,images/tutrocket1,images/tutalien1,images/t.png,2,practice,false,1,rare,1,2020-06-28T18:44:17Z,sub136
two-step-fixation,105,562608,0.0-61.0-2.14,TRUE,FALSE,FALSE,TRUE,"""event"",""trial"",""time""
""fullscreenenter"",""5"",""12281""
","
","
","""event"",""trial"",""time""
""fullscreenenter"",""5"",""12281""
","
",NA,images/earth.jpg,NA,NA,NA,NA,NA,NA,NA,NA,NA,NA,NA,NA,NA,fixation,NA,NA,NA,NA,NA,NA,sub136
d3-animate-choice,106,565162,0.0-61.0-0.15,TRUE,FALSE,FALSE,TRUE,"""event"",""trial"",""time""
""fullscreenenter"",""5"",""12281""
","
","
","""event"",""trial"",""time""
""fullscreenenter"",""5"",""12281""
","
",546.7400000197813,NA,48,NA,NA,3000,1,NA,NA,images/earth.jpg,images/tutrocket2,images/tutrocket1,null,images/tutrocket2,NA,1,practice,null,2,NA,NA,NA,sub136
d3-animate-choice,107,567514,0.0-61.0-1.15,TRUE,FALSE,FALSE,TRUE,"""event"",""trial"",""time""
""fullscreenenter"",""5"",""12281""
","
","
","""event"",""trial"",""time""
""fullscreenenter"",""5"",""12281""
","
",344.4149999995716,NA,49,NA,NA,3000,1,NA,NA,images/tutgreenplanet.jpg,images/tutalien2,images/tutalien1,images/tutrocket2,images/tutalien1,images/nothing.png,2,practice,true,1,common,0,2020-06-28T18:44:23Z,sub136
two-step-fixation,108,568522,0.0-61.0-2.15,TRUE,FALSE,FALSE,TRUE,"""event"",""trial"",""time""
""fullscreenenter"",""5"",""12281""
","
","
","""event"",""trial"",""time""
""fullscreenenter"",""5"",""12281""
","
",NA,images/earth.jpg,NA,NA,NA,NA,NA,NA,NA,NA,NA,NA,NA,NA,NA,fixation,NA,NA,NA,NA,NA,NA,sub136
d3-animate-choice,109,570797,0.0-61.0-0.16,TRUE,FALSE,FALSE,TRUE,"""event"",""trial"",""time""
""fullscreenenter"",""5"",""12281""
","
","
","""event"",""trial"",""time""
""fullscreenenter"",""5"",""12281""
","
",269.83999996446073,NA,49,NA,NA,3000,1,NA,NA,images/earth.jpg,images/tutrocket2,images/tutrocket1,null,images/tutrocket1,NA,1,practice,null,1,NA,NA,NA,sub136
d3-animate-choice,110,573632,0.0-61.0-1.16,TRUE,FALSE,FALSE,TRUE,"""event"",""trial"",""time""
""fullscreenenter"",""5"",""12281""
","
","
","""event"",""trial"",""time""
""fullscreenenter"",""5"",""12281""
","
",827.9850000399165,NA,49,NA,NA,3000,1,NA,NA,images/tutgreenplanet.jpg,images/tutalien2,images/tutalien1,images/tutrocket1,images/tutalien1,images/nothing.png,2,practice,false,1,rare,0,2020-06-28T18:44:29Z,sub136
two-step-fixation,111,574636,0.0-61.0-2.16,TRUE,FALSE,FALSE,TRUE,"""event"",""trial"",""time""
""fullscreenenter"",""5"",""12281""
","
","
","""event"",""trial"",""time""
""fullscreenenter"",""5"",""12281""
","
",NA,images/earth.jpg,NA,NA,NA,NA,NA,NA,NA,NA,NA,NA,NA,NA,NA,fixation,NA,NA,NA,NA,NA,NA,sub136
d3-animate-choice,112,576908,0.0-61.0-0.17,TRUE,FALSE,FALSE,TRUE,"""event"",""trial"",""time""
""fullscreenenter"",""5"",""12281""
","
","
","""event"",""trial"",""time""
""fullscreenenter"",""5"",""12281""
","
",268.89000000664964,NA,49,NA,NA,3000,1,NA,NA,images/earth.jpg,images/tutrocket2,images/tutrocket1,null,images/tutrocket1,NA,1,practice,null,1,NA,NA,NA,sub136
d3-animate-choice,113,579397,0.0-61.0-1.17,TRUE,FALSE,FALSE,TRUE,"""event"",""trial"",""time""
""fullscreenenter"",""5"",""12281""
","
","
","""event"",""trial"",""time""
""fullscreenenter"",""5"",""12281""
","
",483.7000000406988,NA,48,NA,NA,3000,1,NA,NA,images/tutyellowplanet.jpg,images/tutalien4,images/tutalien3,images/tutrocket1,images/tutalien4,images/t.png,2,practice,true,2,common,1,2020-06-28T18:44:35Z,sub136
two-step-fixation,114,580400,0.0-61.0-2.17,TRUE,FALSE,FALSE,TRUE,"""event"",""trial"",""time""
""fullscreenenter"",""5"",""12281""
","
","
","""event"",""trial"",""time""
""fullscreenenter"",""5"",""12281""
","
",NA,images/earth.jpg,NA,NA,NA,NA,NA,NA,NA,NA,NA,NA,NA,NA,NA,fixation,NA,NA,NA,NA,NA,NA,sub136
d3-animate-choice,115,582714,0.0-61.0-0.18,TRUE,FALSE,FALSE,TRUE,"""event"",""trial"",""time""
""fullscreenenter"",""5"",""12281""
","
","
","""event"",""trial"",""time""
""fullscreenenter"",""5"",""12281""
","
",304.984999995213,NA,49,NA,NA,3000,1,NA,NA,images/earth.jpg,images/tutrocket2,images/tutrocket1,null,images/tutrocket1,NA,1,practice,null,1,NA,NA,NA,sub136
d3-animate-choice,116,585108,0.0-61.0-1.18,TRUE,FALSE,FALSE,TRUE,"""event"",""trial"",""time""
""fullscreenenter"",""5"",""12281""
","
","
","""event"",""trial"",""time""
""fullscreenenter"",""5"",""12281""
","
",388.039999990724,NA,48,NA,NA,3000,1,NA,NA,images/tutyellowplanet.jpg,images/tutalien4,images/tutalien3,images/tutrocket1,images/tutalien4,images/nothing.png,2,practice,true,2,common,0,2020-06-28T18:44:41Z,sub136
two-step-fixation,117,586113,0.0-61.0-2.18,TRUE,FALSE,FALSE,TRUE,"""event"",""trial"",""time""
""fullscreenenter"",""5"",""12281""
","
","
","""event"",""trial"",""time""
""fullscreenenter"",""5"",""12281""
","
",NA,images/earth.jpg,NA,NA,NA,NA,NA,NA,NA,NA,NA,NA,NA,NA,NA,fixation,NA,NA,NA,NA,NA,NA,sub136
d3-animate-choice,118,588378,0.0-61.0-0.19,TRUE,FALSE,FALSE,TRUE,"""event"",""trial"",""time""
""fullscreenenter"",""5"",""12281""
","
","
","""event"",""trial"",""time""
""fullscreenenter"",""5"",""12281""
","
",260.39499999023974,NA,49,NA,NA,3000,1,NA,NA,images/earth.jpg,images/tutrocket2,images/tutrocket1,null,images/tutrocket1,NA,1,practice,null,1,NA,NA,NA,sub136
d3-animate-choice,119,590904,0.0-61.0-1.19,TRUE,FALSE,FALSE,TRUE,"""event"",""trial"",""time""
""fullscreenenter"",""5"",""12281""
","
","
","""event"",""trial"",""time""
""fullscreenenter"",""5"",""12281""
","
",519.2750000278465,NA,48,NA,NA,3000,1,NA,NA,images/tutyellowplanet.jpg,images/tutalien4,images/tutalien3,images/tutrocket1,images/tutalien4,images/nothing.png,2,practice,true,2,common,0,2020-06-28T18:44:46Z,sub136
two-step-fixation,120,591910,0.0-61.0-2.19,TRUE,FALSE,FALSE,TRUE,"""event"",""trial"",""time""
""fullscreenenter"",""5"",""12281""
","
","
","""event"",""trial"",""time""
""fullscreenenter"",""5"",""12281""
","
",NA,images/earth.jpg,NA,NA,NA,NA,NA,NA,NA,NA,NA,NA,NA,NA,NA,fixation,NA,NA,NA,NA,NA,NA,sub136
d3-instructions,121,599712,0.0-62.0,TRUE,FALSE,FALSE,TRUE,"""event"",""trial"",""time""
""fullscreenenter"",""5"",""12281""
","
","
","""event"",""trial"",""time""
""fullscreenenter"",""5"",""12281""
","
",NA,NA,NA,NA,NA,NA,NA,NA,NA,NA,NA,NA,NA,NA,NA,NA,NA,NA,NA,NA,NA,NA,sub136
audio-keyboard-response,122,604358,0.0-63.0,TRUE,FALSE,FALSE,TRUE,"""event"",""trial"",""time""
""fullscreenenter"",""5"",""12281""
","
","
","""event"",""trial"",""time""
""fullscreenenter"",""5"",""12281""
","
",4644,audio/instructions/treasure_feedback.wav,32,NA,NA,NA,NA,NA,NA,NA,NA,NA,NA,NA,NA,NA,NA,NA,NA,NA,NA,NA,sub136
d3-instructions,123,625806,0.0-64.0,TRUE,FALSE,FALSE,TRUE,"""event"",""trial"",""time""
""fullscreenenter"",""5"",""12281""
","
","
","""event"",""trial"",""time""
""fullscreenenter"",""5"",""12281""
","
",NA,NA,NA,NA,NA,NA,NA,NA,NA,NA,NA,NA,NA,NA,NA,NA,NA,NA,NA,NA,NA,NA,sub136
d3-instructions,124,647309,0.0-65.0,TRUE,FALSE,FALSE,TRUE,"""event"",""trial"",""time""
""fullscreenenter"",""5"",""12281""
","
","
","""event"",""trial"",""time""
""fullscreenenter"",""5"",""12281""
","
",NA,NA,NA,NA,NA,NA,NA,NA,NA,NA,NA,NA,NA,NA,NA,NA,NA,NA,NA,NA,NA,NA,sub136
d3-instructions,125,672739,0.0-66.0,TRUE,FALSE,FALSE,TRUE,"""event"",""trial"",""time""
""fullscreenenter"",""5"",""12281""
","
","
","""event"",""trial"",""time""
""fullscreenenter"",""5"",""12281""
","
",NA,NA,NA,NA,NA,NA,NA,NA,NA,NA,NA,NA,NA,NA,NA,NA,NA,NA,NA,NA,NA,NA,sub136
d3-instructions,126,691624,0.0-67.0,TRUE,FALSE,FALSE,TRUE,"""event"",""trial"",""time""
""fullscreenenter"",""5"",""12281""
","
","
","""event"",""trial"",""time""
""fullscreenenter"",""5"",""12281""
","
",NA,NA,NA,NA,NA,NA,NA,NA,NA,NA,NA,NA,NA,NA,NA,NA,NA,NA,NA,NA,NA,NA,sub136
d3-instructions,127,704046,0.0-68.0,TRUE,FALSE,FALSE,TRUE,"""event"",""trial"",""time""
""fullscreenenter"",""5"",""12281""
","
","
","""event"",""trial"",""time""
""fullscreenenter"",""5"",""12281""
","
",NA,NA,NA,NA,NA,NA,NA,NA,NA,NA,NA,NA,NA,NA,NA,NA,NA,NA,NA,NA,NA,NA,sub136
instructions-quiz,128,710683,0.0-69.0,TRUE,FALSE,FALSE,TRUE,"""event"",""trial"",""time""
""fullscreenenter"",""5"",""12281""
","
","
","""event"",""trial"",""time""
""fullscreenenter"",""5"",""12281""
","
",6634.634999965783,audio/quiz/Q1_Prompt.wav,NA,1,NA,NA,NA,NA,NA,NA,NA,NA,NA,NA,NA,NA,NA,NA,NA,NA,NA,NA,sub136
audio-keyboard-response,129,719407,0.0-70.0,TRUE,FALSE,FALSE,TRUE,"""event"",""trial"",""time""
""fullscreenenter"",""5"",""12281""
","
","
","""event"",""trial"",""time""
""fullscreenenter"",""5"",""12281""
","
",8725,audio/quiz/Q1_Correct.wav,32,NA,NA,NA,NA,NA,NA,NA,NA,NA,NA,NA,NA,NA,NA,NA,NA,NA,NA,NA,sub136
instructions-quiz,130,729286,0.0-71.0,TRUE,FALSE,FALSE,TRUE,"""event"",""trial"",""time""
""fullscreenenter"",""5"",""12281""
","
","
","""event"",""trial"",""time""
""fullscreenenter"",""5"",""12281""
","
",9877.634999982547,audio/quiz/Q2_Prompt.wav,NA,0,NA,NA,NA,NA,NA,NA,NA,NA,NA,NA,NA,NA,NA,NA,NA,NA,NA,NA,sub136
audio-keyboard-response,131,740751,0.0-72.0,TRUE,FALSE,FALSE,TRUE,"""event"",""trial"",""time""
""fullscreenenter"",""5"",""12281""
","
","
","""event"",""trial"",""time""
""fullscreenenter"",""5"",""12281""
","
",11459,audio/quiz/Q2_Correct.wav,32,NA,NA,NA,NA,NA,NA,NA,NA,NA,NA,NA,NA,NA,NA,NA,NA,NA,NA,NA,sub136
instructions-quiz,132,745881,0.0-73.0,TRUE,FALSE,FALSE,TRUE,"""event"",""trial"",""time""
""fullscreenenter"",""5"",""12281""
","
","
","""event"",""trial"",""time""
""fullscreenenter"",""5"",""12281""
","
",5128.620000032242,audio/quiz/Q3_Prompt.wav,NA,1,NA,NA,NA,NA,NA,NA,NA,NA,NA,NA,NA,NA,NA,NA,NA,NA,NA,NA,sub136
audio-keyboard-response,133,750735,0.0-74.0,TRUE,FALSE,FALSE,TRUE,"""event"",""trial"",""time""
""fullscreenenter"",""5"",""12281""
","
","
","""event"",""trial"",""time""
""fullscreenenter"",""5"",""12281""
","
",4853,audio/quiz/Q3_Correct.wav,32,NA,NA,NA,NA,NA,NA,NA,NA,NA,NA,NA,NA,NA,NA,NA,NA,NA,NA,NA,sub136
d3-instructions,134,764426,0.0-75.0,TRUE,FALSE,FALSE,TRUE,"""event"",""trial"",""time""
""fullscreenenter"",""5"",""12281""
","
","
","""event"",""trial"",""time""
""fullscreenenter"",""5"",""12281""
","
",NA,NA,NA,NA,NA,NA,NA,NA,NA,NA,NA,NA,NA,NA,NA,NA,NA,NA,NA,NA,NA,NA,sub136
d3-animate-choice,135,767148,0.0-76.0-0.0,TRUE,FALSE,FALSE,TRUE,"""event"",""trial"",""time""
""fullscreenenter"",""5"",""12281""
","
","
","""event"",""trial"",""time""
""fullscreenenter"",""5"",""12281""
","
",716.344999964349,NA,49,NA,NA,3000,1,NA,NA,images/earth.jpg,images/rocket2,images/rocket1,null,images/rocket1,NA,1,real,null,1,NA,NA,NA,sub136
d3-animate-choice,136,769547,0.0-76.0-1.0,TRUE,FALSE,FALSE,TRUE,"""event"",""trial"",""time""
""fullscreenenter"",""5"",""12281""
","
","
","""event"",""trial"",""time""
""fullscreenenter"",""5"",""12281""
","
",394.7949999710545,NA,49,NA,NA,3000,1,NA,NA,images/purpleplanet.jpg,images/alien4,images/alien3,images/rocket1,images/alien3,images/t.png,2,real,true,1,common,1,2020-06-28T18:47:45Z,sub136
two-step-fixation,137,770550,0.0-76.0-2.0,TRUE,FALSE,FALSE,TRUE,"""event"",""trial"",""time""
""fullscreenenter"",""5"",""12281""
","
","
","""event"",""trial"",""time""
""fullscreenenter"",""5"",""12281""
","
",NA,images/earth.jpg,NA,NA,NA,NA,NA,NA,NA,NA,NA,NA,NA,NA,NA,fixation,NA,NA,NA,NA,NA,NA,sub136
d3-animate-choice,138,772855,0.0-76.0-0.1,TRUE,FALSE,FALSE,TRUE,"""event"",""trial"",""time""
""fullscreenenter"",""5"",""12281""
","
","
","""event"",""trial"",""time""
""fullscreenenter"",""5"",""12281""
","
",301.1100000003353,NA,49,NA,NA,3000,1,NA,NA,images/earth.jpg,images/rocket2,images/rocket1,null,images/rocket1,NA,1,real,null,1,NA,NA,NA,sub136
d3-animate-choice,139,775794,0.0-76.0-1.1,TRUE,FALSE,FALSE,TRUE,"""event"",""trial"",""time""
""fullscreenenter"",""5"",""12281""
","
","
","""event"",""trial"",""time""
""fullscreenenter"",""5"",""12281""
","
",935.7399999862537,NA,48,NA,NA,3000,1,NA,NA,images/redplanet1.jpg,images/alien2,images/alien1,images/rocket1,images/alien2,images/t.png,2,real,false,2,rare,1,2020-06-28T18:47:51Z,sub136
two-step-fixation,140,776799,0.0-76.0-2.1,TRUE,FALSE,FALSE,TRUE,"""event"",""trial"",""time""
""fullscreenenter"",""5"",""12281""
","
","
","""event"",""trial"",""time""
""fullscreenenter"",""5"",""12281""
","
",NA,images/earth.jpg,NA,NA,NA,NA,NA,NA,NA,NA,NA,NA,NA,NA,NA,fixation,NA,NA,NA,NA,NA,NA,sub136
d3-animate-choice,141,779138,0.0-76.0-0.2,TRUE,FALSE,FALSE,TRUE,"""event"",""trial"",""time""
""fullscreenenter"",""5"",""12281""
","
","
","""event"",""trial"",""time""
""fullscreenenter"",""5"",""12281""
","
",332.7350000035949,NA,49,NA,NA,3000,1,NA,NA,images/earth.jpg,images/rocket2,images/rocket1,null,images/rocket1,NA,1,real,null,1,NA,NA,NA,sub136
d3-animate-choice,142,781549,0.0-76.0-1.2,TRUE,FALSE,FALSE,TRUE,"""event"",""trial"",""time""
""fullscreenenter"",""5"",""12281""
","
","
","""event"",""trial"",""time""
""fullscreenenter"",""5"",""12281""
","
",405.6199999758974,NA,49,NA,NA,3000,1,NA,NA,images/redplanet1.jpg,images/alien2,images/alien1,images/rocket1,images/alien1,images/nothing.png,2,real,false,1,rare,0,2020-06-28T18:47:57Z,sub136
two-step-fixation,143,782553,0.0-76.0-2.2,TRUE,FALSE,FALSE,TRUE,"""event"",""trial"",""time""
""fullscreenenter"",""5"",""12281""
","
","
","""event"",""trial"",""time""
""fullscreenenter"",""5"",""12281""
","
",NA,images/earth.jpg,NA,NA,NA,NA,NA,NA,NA,NA,NA,NA,NA,NA,NA,fixation,NA,NA,NA,NA,NA,NA,sub136
d3-animate-choice,144,784877,0.0-76.0-0.3,TRUE,FALSE,FALSE,TRUE,"""event"",""trial"",""time""
""fullscreenenter"",""5"",""12281""
","
","
","""event"",""trial"",""time""
""fullscreenenter"",""5"",""12281""
","
",315.645000024233,NA,49,NA,NA,3000,1,NA,NA,images/earth.jpg,images/rocket2,images/rocket1,null,images/rocket1,NA,1,real,null,1,NA,NA,NA,sub136
d3-animate-choice,145,787776,0.0-76.0-1.3,TRUE,FALSE,FALSE,TRUE,"""event"",""trial"",""time""
""fullscreenenter"",""5"",""12281""
","
","
","""event"",""trial"",""time""
""fullscreenenter"",""5"",""12281""
","
",894.9849999626167,NA,49,NA,NA,3000,1,NA,NA,images/purpleplanet.jpg,images/alien4,images/alien3,images/rocket1,images/alien3,images/t.png,2,real,true,1,common,1,2020-06-28T18:48:03Z,sub136
two-step-fixation,146,788780,0.0-76.0-2.3,TRUE,FALSE,FALSE,TRUE,"""event"",""trial"",""time""
""fullscreenenter"",""5"",""12281""
","
","
","""event"",""trial"",""time""
""fullscreenenter"",""5"",""12281""
","
",NA,images/earth.jpg,NA,NA,NA,NA,NA,NA,NA,NA,NA,NA,NA,NA,NA,fixation,NA,NA,NA,NA,NA,NA,sub136
d3-animate-choice,147,791130,0.0-76.0-0.4,TRUE,FALSE,FALSE,TRUE,"""event"",""trial"",""time""
""fullscreenenter"",""5"",""12281""
","
","
","""event"",""trial"",""time""
""fullscreenenter"",""5"",""12281""
","
",344.1049999673851,NA,49,NA,NA,3000,1,NA,NA,images/earth.jpg,images/rocket2,images/rocket1,null,images/rocket1,NA,1,real,null,1,NA,NA,NA,sub136
d3-animate-choice,148,793736,0.0-76.0-1.4,TRUE,FALSE,FALSE,TRUE,"""event"",""trial"",""time""
""fullscreenenter"",""5"",""12281""
","
","
","""event"",""trial"",""time""
""fullscreenenter"",""5"",""12281""
","
",599.3299999972805,NA,48,NA,NA,3000,1,NA,NA,images/redplanet1.jpg,images/alien2,images/alien1,images/rocket1,images/alien2,images/nothing.png,2,real,false,2,rare,0,2020-06-28T18:48:09Z,sub136
two-step-fixation,149,794739,0.0-76.0-2.4,TRUE,FALSE,FALSE,TRUE,"""event"",""trial"",""time""
""fullscreenenter"",""5"",""12281""
","
","
","""event"",""trial"",""time""
""fullscreenenter"",""5"",""12281""
","
",NA,images/earth.jpg,NA,NA,NA,NA,NA,NA,NA,NA,NA,NA,NA,NA,NA,fixation,NA,NA,NA,NA,NA,NA,sub136
d3-animate-choice,150,797041,0.0-76.0-0.5,TRUE,FALSE,FALSE,TRUE,"""event"",""trial"",""time""
""fullscreenenter"",""5"",""12281""
","
","
","""event"",""trial"",""time""
""fullscreenenter"",""5"",""12281""
","
",295.5450000008568,NA,49,NA,NA,3000,1,NA,NA,images/earth.jpg,images/rocket2,images/rocket1,null,images/rocket1,NA,1,real,null,1,NA,NA,NA,sub136
d3-animate-choice,151,799686,0.0-76.0-1.5,TRUE,FALSE,FALSE,TRUE,"""event"",""trial"",""time""
""fullscreenenter"",""5"",""12281""
","
","
","""event"",""trial"",""time""
""fullscreenenter"",""5"",""12281""
","
",637.5700000207871,NA,49,NA,NA,3000,1,NA,NA,images/purpleplanet.jpg,images/alien4,images/alien3,images/rocket1,images/alien3,images/nothing.png,2,real,true,1,common,0,2020-06-28T18:48:15Z,sub136
two-step-fixation,152,800693,0.0-76.0-2.5,TRUE,FALSE,FALSE,TRUE,"""event"",""trial"",""time""
""fullscreenenter"",""5"",""12281""
","
","
","""event"",""trial"",""time""
""fullscreenenter"",""5"",""12281""
","
",NA,images/earth.jpg,NA,NA,NA,NA,NA,NA,NA,NA,NA,NA,NA,NA,NA,fixation,NA,NA,NA,NA,NA,NA,sub136
d3-animate-choice,153,803013,0.0-76.0-0.6,TRUE,FALSE,FALSE,TRUE,"""event"",""trial"",""time""
""fullscreenenter"",""5"",""12281""
","
","
","""event"",""trial"",""time""
""fullscreenenter"",""5"",""12281""
","
",313.52500000502914,NA,49,NA,NA,3000,1,NA,NA,images/earth.jpg,images/rocket2,images/rocket1,null,images/rocket1,NA,1,real,null,1,NA,NA,NA,sub136
d3-animate-choice,154,805579,0.0-76.0-1.6,TRUE,FALSE,FALSE,TRUE,"""event"",""trial"",""time""
""fullscreenenter"",""5"",""12281""
","
","
","""event"",""trial"",""time""
""fullscreenenter"",""5"",""12281""
","
",559.7950000083074,NA,49,NA,NA,3000,1,NA,NA,images/purpleplanet.jpg,images/alien4,images/alien3,images/rocket1,images/alien3,images/nothing.png,2,real,true,1,common,0,2020-06-28T18:48:21Z,sub136
two-step-fixation,155,806585,0.0-76.0-2.6,TRUE,FALSE,FALSE,TRUE,"""event"",""trial"",""time""
""fullscreenenter"",""5"",""12281""
","
","
","""event"",""trial"",""time""
""fullscreenenter"",""5"",""12281""
","
",NA,images/earth.jpg,NA,NA,NA,NA,NA,NA,NA,NA,NA,NA,NA,NA,NA,fixation,NA,NA,NA,NA,NA,NA,sub136
d3-animate-choice,156,808923,0.0-76.0-0.7,TRUE,FALSE,FALSE,TRUE,"""event"",""trial"",""time""
""fullscreenenter"",""5"",""12281""
","
","
","""event"",""trial"",""time""
""fullscreenenter"",""5"",""12281""
","
",332.094999961555,NA,49,NA,NA,3000,1,NA,NA,images/earth.jpg,images/rocket2,images/rocket1,null,images/rocket1,NA,1,real,null,1,NA,NA,NA,sub136
d3-animate-choice,157,811917,0.0-76.0-1.7,TRUE,FALSE,FALSE,TRUE,"""event"",""trial"",""time""
""fullscreenenter"",""5"",""12281""
","
","
","""event"",""trial"",""time""
""fullscreenenter"",""5"",""12281""
","
",986.9349999935366,NA,48,NA,NA,3000,1,NA,NA,images/redplanet1.jpg,images/alien2,images/alien1,images/rocket1,images/alien2,images/t.png,2,real,false,2,rare,1,2020-06-28T18:48:27Z,sub136
two-step-fixation,158,812924,0.0-76.0-2.7,TRUE,FALSE,FALSE,TRUE,"""event"",""trial"",""time""
""fullscreenenter"",""5"",""12281""
","
","
","""event"",""trial"",""time""
""fullscreenenter"",""5"",""12281""
","
",NA,images/earth.jpg,NA,NA,NA,NA,NA,NA,NA,NA,NA,NA,NA,NA,NA,fixation,NA,NA,NA,NA,NA,NA,sub136
d3-animate-choice,159,815203,0.0-76.0-0.8,TRUE,FALSE,FALSE,TRUE,"""event"",""trial"",""time""
""fullscreenenter"",""5"",""12281""
","
","
","""event"",""trial"",""time""
""fullscreenenter"",""5"",""12281""
","
",270.59999998891726,NA,49,NA,NA,3000,1,NA,NA,images/earth.jpg,images/rocket2,images/rocket1,null,images/rocket1,NA,1,real,null,1,NA,NA,NA,sub136
d3-animate-choice,160,817680,0.0-76.0-1.8,TRUE,FALSE,FALSE,TRUE,"""event"",""trial"",""time""
""fullscreenenter"",""5"",""12281""
","
","
","""event"",""trial"",""time""
""fullscreenenter"",""5"",""12281""
","
",470.4300000448711,NA,49,NA,NA,3000,1,NA,NA,images/purpleplanet.jpg,images/alien4,images/alien3,images/rocket1,images/alien3,images/t.png,2,real,true,1,common,1,2020-06-28T18:48:33Z,sub136
two-step-fixation,161,818684,0.0-76.0-2.8,TRUE,FALSE,FALSE,TRUE,"""event"",""trial"",""time""
""fullscreenenter"",""5"",""12281""
","
","
","""event"",""trial"",""time""
""fullscreenenter"",""5"",""12281""
","
",NA,images/earth.jpg,NA,NA,NA,NA,NA,NA,NA,NA,NA,NA,NA,NA,NA,fixation,NA,NA,NA,NA,NA,NA,sub136
d3-animate-choice,162,821132,0.0-76.0-0.9,TRUE,FALSE,FALSE,TRUE,"""event"",""trial"",""time""
""fullscreenenter"",""5"",""12281""
","
","
","""event"",""trial"",""time""
""fullscreenenter"",""5"",""12281""
","
",443.4150000452064,NA,49,NA,NA,3000,1,NA,NA,images/earth.jpg,images/rocket2,images/rocket1,null,images/rocket1,NA,1,real,null,1,NA,NA,NA,sub136
d3-animate-choice,163,823639,0.0-76.0-1.9,TRUE,FALSE,FALSE,TRUE,"""event"",""trial"",""time""
""fullscreenenter"",""5"",""12281""
","
","
","""event"",""trial"",""time""
""fullscreenenter"",""5"",""12281""
","
",496.99000001419336,NA,49,NA,NA,3000,1,NA,NA,images/purpleplanet.jpg,images/alien4,images/alien3,images/rocket1,images/alien3,images/nothing.png,2,real,true,1,common,0,2020-06-28T18:48:39Z,sub136
two-step-fixation,164,824646,0.0-76.0-2.9,TRUE,FALSE,FALSE,TRUE,"""event"",""trial"",""time""
""fullscreenenter"",""5"",""12281""
","
","
","""event"",""trial"",""time""
""fullscreenenter"",""5"",""12281""
","
",NA,images/earth.jpg,NA,NA,NA,NA,NA,NA,NA,NA,NA,NA,NA,NA,NA,fixation,NA,NA,NA,NA,NA,NA,sub136
d3-animate-choice,165,826940,0.0-76.0-0.10,TRUE,FALSE,FALSE,TRUE,"""event"",""trial"",""time""
""fullscreenenter"",""5"",""12281""
","
","
","""event"",""trial"",""time""
""fullscreenenter"",""5"",""12281""
","
",288.86999998940155,NA,48,NA,NA,3000,1,NA,NA,images/earth.jpg,images/rocket2,images/rocket1,null,images/rocket2,NA,1,real,null,2,NA,NA,NA,sub136
d3-animate-choice,166,829294,0.0-76.0-1.10,TRUE,FALSE,FALSE,TRUE,"""event"",""trial"",""time""
""fullscreenenter"",""5"",""12281""
","
","
","""event"",""trial"",""time""
""fullscreenenter"",""5"",""12281""
","
",349.24000001046807,NA,48,NA,NA,3000,1,NA,NA,images/redplanet1.jpg,images/alien2,images/alien1,images/rocket2,images/alien2,images/nothing.png,2,real,true,2,common,0,2020-06-28T18:48:45Z,sub136
two-step-fixation,167,830298,0.0-76.0-2.10,TRUE,FALSE,FALSE,TRUE,"""event"",""trial"",""time""
""fullscreenenter"",""5"",""12281""
","
","
","""event"",""trial"",""time""
""fullscreenenter"",""5"",""12281""
","
",NA,images/earth.jpg,NA,NA,NA,NA,NA,NA,NA,NA,NA,NA,NA,NA,NA,fixation,NA,NA,NA,NA,NA,NA,sub136
d3-animate-choice,168,832617,0.0-76.0-0.11,TRUE,FALSE,FALSE,TRUE,"""event"",""trial"",""time""
""fullscreenenter"",""5"",""12281""
","
","
","""event"",""trial"",""time""
""fullscreenenter"",""5"",""12281""
","
",313.33999999333173,NA,48,NA,NA,3000,1,NA,NA,images/earth.jpg,images/rocket2,images/rocket1,null,images/rocket2,NA,1,real,null,2,NA,NA,NA,sub136
d3-animate-choice,169,835128,0.0-76.0-1.11,TRUE,FALSE,FALSE,TRUE,"""event"",""trial"",""time""
""fullscreenenter"",""5"",""12281""
","
","
","""event"",""trial"",""time""
""fullscreenenter"",""5"",""12281""
","
",501.59500003792346,NA,48,NA,NA,3000,1,NA,NA,images/redplanet1.jpg,images/alien2,images/alien1,images/rocket2,images/alien2,images/nothing.png,2,real,true,2,common,0,2020-06-28T18:48:51Z,sub136
two-step-fixation,170,836135,0.0-76.0-2.11,TRUE,FALSE,FALSE,TRUE,"""event"",""trial"",""time""
""fullscreenenter"",""5"",""12281""
","
","
","""event"",""trial"",""time""
""fullscreenenter"",""5"",""12281""
","
",NA,images/earth.jpg,NA,NA,NA,NA,NA,NA,NA,NA,NA,NA,NA,NA,NA,fixation,NA,NA,NA,NA,NA,NA,sub136
d3-animate-choice,171,838591,0.0-76.0-0.12,TRUE,FALSE,FALSE,TRUE,"""event"",""trial"",""time""
""fullscreenenter"",""5"",""12281""
","
","
","""event"",""trial"",""time""
""fullscreenenter"",""5"",""12281""
","
",452.1950000198558,NA,49,NA,NA,3000,1,NA,NA,images/earth.jpg,images/rocket2,images/rocket1,null,images/rocket1,NA,1,real,null,1,NA,NA,NA,sub136
d3-animate-choice,172,840986,0.0-76.0-1.12,TRUE,FALSE,FALSE,TRUE,"""event"",""trial"",""time""
""fullscreenenter"",""5"",""12281""
","
","
","""event"",""trial"",""time""
""fullscreenenter"",""5"",""12281""
","
",391.5450000204146,NA,49,NA,NA,3000,1,NA,NA,images/redplanet1.jpg,images/alien2,images/alien1,images/rocket1,images/alien1,images/t.png,2,real,false,1,rare,1,2020-06-28T18:48:57Z,sub136
two-step-fixation,173,841991,0.0-76.0-2.12,TRUE,FALSE,FALSE,TRUE,"""event"",""trial"",""time""
""fullscreenenter"",""5"",""12281""
","
","
","""event"",""trial"",""time""
""fullscreenenter"",""5"",""12281""
","
",NA,images/earth.jpg,NA,NA,NA,NA,NA,NA,NA,NA,NA,NA,NA,NA,NA,fixation,NA,NA,NA,NA,NA,NA,sub136
d3-animate-choice,174,844385,0.0-76.0-0.13,TRUE,FALSE,FALSE,TRUE,"""event"",""trial"",""time""
""fullscreenenter"",""5"",""12281""
","
","
","""event"",""trial"",""time""
""fullscreenenter"",""5"",""12281""
","
",388.59500002581626,NA,48,NA,NA,3000,1,NA,NA,images/earth.jpg,images/rocket2,images/rocket1,null,images/rocket2,NA,1,real,null,2,NA,NA,NA,sub136
d3-animate-choice,175,847791,0.0-76.0-1.13,TRUE,FALSE,FALSE,TRUE,"""event"",""trial"",""time""
""fullscreenenter"",""5"",""12281""
","
","
","""event"",""trial"",""time""
""fullscreenenter"",""5"",""12281""
","
",1402.8099999995902,NA,49,NA,NA,3000,1,NA,NA,images/purpleplanet.jpg,images/alien4,images/alien3,images/rocket2,images/alien3,images/nothing.png,2,real,false,1,rare,0,2020-06-28T18:49:03Z,sub136
two-step-fixation,176,848793,0.0-76.0-2.13,TRUE,FALSE,FALSE,TRUE,"""event"",""trial"",""time""
""fullscreenenter"",""5"",""12281""
","
","
","""event"",""trial"",""time""
""fullscreenenter"",""5"",""12281""
","
",NA,images/earth.jpg,NA,NA,NA,NA,NA,NA,NA,NA,NA,NA,NA,NA,NA,fixation,NA,NA,NA,NA,NA,NA,sub136
d3-animate-choice,177,851197,0.0-76.0-0.14,TRUE,FALSE,FALSE,TRUE,"""event"",""trial"",""time""
""fullscreenenter"",""5"",""12281""
","
","
","""event"",""trial"",""time""
""fullscreenenter"",""5"",""12281""
","
",392.4949999782257,NA,48,NA,NA,3000,1,NA,NA,images/earth.jpg,images/rocket2,images/rocket1,null,images/rocket2,NA,1,real,null,2,NA,NA,NA,sub136
d3-animate-choice,178,854213,0.0-76.0-1.14,TRUE,FALSE,FALSE,TRUE,"""event"",""trial"",""time""
""fullscreenenter"",""5"",""12281""
","
","
","""event"",""trial"",""time""
""fullscreenenter"",""5"",""12281""
","
",1008.9049999951385,NA,49,NA,NA,3000,1,NA,NA,images/purpleplanet.jpg,images/alien4,images/alien3,images/rocket2,images/alien3,images/t.png,2,real,false,1,rare,1,2020-06-28T18:49:10Z,sub136
two-step-fixation,179,855217,0.0-76.0-2.14,TRUE,FALSE,FALSE,TRUE,"""event"",""trial"",""time""
""fullscreenenter"",""5"",""12281""
","
","
","""event"",""trial"",""time""
""fullscreenenter"",""5"",""12281""
","
",NA,images/earth.jpg,NA,NA,NA,NA,NA,NA,NA,NA,NA,NA,NA,NA,NA,fixation,NA,NA,NA,NA,NA,NA,sub136
d3-animate-choice,180,857515,0.0-76.0-0.15,TRUE,FALSE,FALSE,TRUE,"""event"",""trial"",""time""
""fullscreenenter"",""5"",""12281""
","
","
","""event"",""trial"",""time""
""fullscreenenter"",""5"",""12281""
","
",293.55000000214204,NA,48,NA,NA,3000,1,NA,NA,images/earth.jpg,images/rocket2,images/rocket1,null,images/rocket2,NA,1,real,null,2,NA,NA,NA,sub136
d3-animate-choice,181,859905,0.0-76.0-1.15,TRUE,FALSE,FALSE,TRUE,"""event"",""trial"",""time""
""fullscreenenter"",""5"",""12281""
","
","
","""event"",""trial"",""time""
""fullscreenenter"",""5"",""12281""
","
",384.70500003313646,NA,49,NA,NA,3000,1,NA,NA,images/redplanet1.jpg,images/alien2,images/alien1,images/rocket2,images/alien1,images/nothing.png,2,real,true,1,common,0,2020-06-28T18:49:15Z,sub136
two-step-fixation,182,860909,0.0-76.0-2.15,TRUE,FALSE,FALSE,TRUE,"""event"",""trial"",""time""
""fullscreenenter"",""5"",""12281""
","
","
","""event"",""trial"",""time""
""fullscreenenter"",""5"",""12281""
","
",NA,images/earth.jpg,NA,NA,NA,NA,NA,NA,NA,NA,NA,NA,NA,NA,NA,fixation,NA,NA,NA,NA,NA,NA,sub136
d3-animate-choice,183,863181,0.0-76.0-0.16,TRUE,FALSE,FALSE,TRUE,"""event"",""trial"",""time""
""fullscreenenter"",""5"",""12281""
","
","
","""event"",""trial"",""time""
""fullscreenenter"",""5"",""12281""
","
",262.75500003248453,NA,49,NA,NA,3000,1,NA,NA,images/earth.jpg,images/rocket2,images/rocket1,null,images/rocket1,NA,1,real,null,1,NA,NA,NA,sub136
d3-animate-choice,184,865552,0.0-76.0-1.16,TRUE,FALSE,FALSE,TRUE,"""event"",""trial"",""time""
""fullscreenenter"",""5"",""12281""
","
","
","""event"",""trial"",""time""
""fullscreenenter"",""5"",""12281""
","
",365.4649999807589,NA,49,NA,NA,3000,1,NA,NA,images/purpleplanet.jpg,images/alien4,images/alien3,images/rocket1,images/alien3,images/nothing.png,2,real,true,1,common,0,2020-06-28T18:49:21Z,sub136
two-step-fixation,185,866555,0.0-76.0-2.16,TRUE,FALSE,FALSE,TRUE,"""event"",""trial"",""time""
""fullscreenenter"",""5"",""12281""
","
","
","""event"",""trial"",""time""
""fullscreenenter"",""5"",""12281""
","
",NA,images/earth.jpg,NA,NA,NA,NA,NA,NA,NA,NA,NA,NA,NA,NA,NA,fixation,NA,NA,NA,NA,NA,NA,sub136
d3-animate-choice,186,868830,0.0-76.0-0.17,TRUE,FALSE,FALSE,TRUE,"""event"",""trial"",""time""
""fullscreenenter"",""5"",""12281""
","
","
","""event"",""trial"",""time""
""fullscreenenter"",""5"",""12281""
","
",271.9649999635294,NA,49,NA,NA,3000,1,NA,NA,images/earth.jpg,images/rocket2,images/rocket1,null,images/rocket1,NA,1,real,null,1,NA,NA,NA,sub136
d3-animate-choice,187,871343,0.0-76.0-1.17,TRUE,FALSE,FALSE,TRUE,"""event"",""trial"",""time""
""fullscreenenter"",""5"",""12281""
","
","
","""event"",""trial"",""time""
""fullscreenenter"",""5"",""12281""
","
",507.81500001903623,NA,49,NA,NA,3000,1,NA,NA,images/purpleplanet.jpg,images/alien4,images/alien3,images/rocket1,images/alien3,images/nothing.png,2,real,true,1,common,0,2020-06-28T18:49:27Z,sub136
two-step-fixation,188,872348,0.0-76.0-2.17,TRUE,FALSE,FALSE,TRUE,"""event"",""trial"",""time""
""fullscreenenter"",""5"",""12281""
","
","
","""event"",""trial"",""time""
""fullscreenenter"",""5"",""12281""
","
",NA,images/earth.jpg,NA,NA,NA,NA,NA,NA,NA,NA,NA,NA,NA,NA,NA,fixation,NA,NA,NA,NA,NA,NA,sub136
d3-animate-choice,189,874716,0.0-76.0-0.18,TRUE,FALSE,FALSE,TRUE,"""event"",""trial"",""time""
""fullscreenenter"",""5"",""12281""
","
","
","""event"",""trial"",""time""
""fullscreenenter"",""5"",""12281""
","
",363.23000001721084,NA,49,NA,NA,3000,1,NA,NA,images/earth.jpg,images/rocket2,images/rocket1,null,images/rocket1,NA,1,real,null,1,NA,NA,NA,sub136
d3-animate-choice,190,877150,0.0-76.0-1.18,TRUE,FALSE,FALSE,TRUE,"""event"",""trial"",""time""
""fullscreenenter"",""5"",""12281""
","
","
","""event"",""trial"",""time""
""fullscreenenter"",""5"",""12281""
","
",427.6199999731034,NA,48,NA,NA,3000,1,NA,NA,images/purpleplanet.jpg,images/alien4,images/alien3,images/rocket1,images/alien4,images/nothing.png,2,real,true,2,common,0,2020-06-28T18:49:33Z,sub136
two-step-fixation,191,878152,0.0-76.0-2.18,TRUE,FALSE,FALSE,TRUE,"""event"",""trial"",""time""
""fullscreenenter"",""5"",""12281""
","
","
","""event"",""trial"",""time""
""fullscreenenter"",""5"",""12281""
","
",NA,images/earth.jpg,NA,NA,NA,NA,NA,NA,NA,NA,NA,NA,NA,NA,NA,fixation,NA,NA,NA,NA,NA,NA,sub136
d3-animate-choice,192,880476,0.0-76.0-0.19,TRUE,FALSE,FALSE,TRUE,"""event"",""trial"",""time""
""fullscreenenter"",""5"",""12281""
","
","
","""event"",""trial"",""time""
""fullscreenenter"",""5"",""12281""
","
",319.11000004038215,NA,49,NA,NA,3000,1,NA,NA,images/earth.jpg,images/rocket2,images/rocket1,null,images/rocket1,NA,1,real,null,1,NA,NA,NA,sub136
d3-animate-choice,193,883330,0.0-76.0-1.19,TRUE,FALSE,FALSE,TRUE,"""event"",""trial"",""time""
""fullscreenenter"",""5"",""12281""
","
","
","""event"",""trial"",""time""
""fullscreenenter"",""5"",""12281""
","
",848.1949999695644,NA,49,NA,NA,3000,1,NA,NA,images/redplanet1.jpg,images/alien2,images/alien1,images/rocket1,images/alien1,images/nothing.png,2,real,false,1,rare,0,2020-06-28T18:49:39Z,sub136
two-step-fixation,194,884336,0.0-76.0-2.19,TRUE,FALSE,FALSE,TRUE,"""event"",""trial"",""time""
""fullscreenenter"",""5"",""12281""
","
","
","""event"",""trial"",""time""
""fullscreenenter"",""5"",""12281""
","
",NA,images/earth.jpg,NA,NA,NA,NA,NA,NA,NA,NA,NA,NA,NA,NA,NA,fixation,NA,NA,NA,NA,NA,NA,sub136
d3-animate-choice,195,886635,0.0-76.0-0.20,TRUE,FALSE,FALSE,TRUE,"""event"",""trial"",""time""
""fullscreenenter"",""5"",""12281""
","
","
","""event"",""trial"",""time""
""fullscreenenter"",""5"",""12281""
","
",290.3350000269711,NA,49,NA,NA,3000,1,NA,NA,images/earth.jpg,images/rocket2,images/rocket1,null,images/rocket1,NA,1,real,null,1,NA,NA,NA,sub136
d3-animate-choice,196,889300,0.0-76.0-1.20,TRUE,FALSE,FALSE,TRUE,"""event"",""trial"",""time""
""fullscreenenter"",""5"",""12281""
","
","
","""event"",""trial"",""time""
""fullscreenenter"",""5"",""12281""
","
",660.5400000116788,NA,48,NA,NA,3000,1,NA,NA,images/redplanet1.jpg,images/alien2,images/alien1,images/rocket1,images/alien2,images/t.png,2,real,false,2,rare,1,2020-06-28T18:49:45Z,sub136
two-step-fixation,197,890302,0.0-76.0-2.20,TRUE,FALSE,FALSE,TRUE,"""event"",""trial"",""time""
""fullscreenenter"",""5"",""12281""
","
","
","""event"",""trial"",""time""
""fullscreenenter"",""5"",""12281""
","
",NA,images/earth.jpg,NA,NA,NA,NA,NA,NA,NA,NA,NA,NA,NA,NA,NA,fixation,NA,NA,NA,NA,NA,NA,sub136
d3-animate-choice,198,892649,0.0-76.0-0.21,TRUE,FALSE,FALSE,TRUE,"""event"",""trial"",""time""
""fullscreenenter"",""5"",""12281""
","
","
","""event"",""trial"",""time""
""fullscreenenter"",""5"",""12281""
","
",340.5299999867566,NA,49,NA,NA,3000,1,NA,NA,images/earth.jpg,images/rocket2,images/rocket1,null,images/rocket1,NA,1,real,null,1,NA,NA,NA,sub136
d3-animate-choice,199,895159,0.0-76.0-1.21,TRUE,FALSE,FALSE,TRUE,"""event"",""trial"",""time""
""fullscreenenter"",""5"",""12281""
","
","
","""event"",""trial"",""time""
""fullscreenenter"",""5"",""12281""
","
",505.8500000159256,NA,48,NA,NA,3000,1,NA,NA,images/purpleplanet.jpg,images/alien4,images/alien3,images/rocket1,images/alien4,images/nothing.png,2,real,true,2,common,0,2020-06-28T18:49:51Z,sub136
two-step-fixation,200,896165,0.0-76.0-2.21,TRUE,FALSE,FALSE,TRUE,"""event"",""trial"",""time""
""fullscreenenter"",""5"",""12281""
","
","
","""event"",""trial"",""time""
""fullscreenenter"",""5"",""12281""
","
",NA,images/earth.jpg,NA,NA,NA,NA,NA,NA,NA,NA,NA,NA,NA,NA,NA,fixation,NA,NA,NA,NA,NA,NA,sub136
d3-animate-choice,201,898444,0.0-76.0-0.22,TRUE,FALSE,FALSE,TRUE,"""event"",""trial"",""time""
""fullscreenenter"",""5"",""12281""
","
","
","""event"",""trial"",""time""
""fullscreenenter"",""5"",""12281""
","
",273.5250000259839,NA,49,NA,NA,3000,1,NA,NA,images/earth.jpg,images/rocket2,images/rocket1,null,images/rocket1,NA,1,real,null,1,NA,NA,NA,sub136
d3-animate-choice,202,900909,0.0-76.0-1.22,TRUE,FALSE,FALSE,TRUE,"""event"",""trial"",""time""
""fullscreenenter"",""5"",""12281""
","
","
","""event"",""trial"",""time""
""fullscreenenter"",""5"",""12281""
","
",459.70499998657033,NA,49,NA,NA,3000,1,NA,NA,images/purpleplanet.jpg,images/alien4,images/alien3,images/rocket1,images/alien3,images/t.png,2,real,true,1,common,1,2020-06-28T18:49:56Z,sub136
two-step-fixation,203,901915,0.0-76.0-2.22,TRUE,FALSE,FALSE,TRUE,"""event"",""trial"",""time""
""fullscreenenter"",""5"",""12281""
","
","
","""event"",""trial"",""time""
""fullscreenenter"",""5"",""12281""
","
",NA,images/earth.jpg,NA,NA,NA,NA,NA,NA,NA,NA,NA,NA,NA,NA,NA,fixation,NA,NA,NA,NA,NA,NA,sub136
d3-animate-choice,204,904227,0.0-76.0-0.23,TRUE,FALSE,FALSE,TRUE,"""event"",""trial"",""time""
""fullscreenenter"",""5"",""12281""
","
","
","""event"",""trial"",""time""
""fullscreenenter"",""5"",""12281""
","
",304.7750000259839,NA,49,NA,NA,3000,1,NA,NA,images/earth.jpg,images/rocket2,images/rocket1,null,images/rocket1,NA,1,real,null,1,NA,NA,NA,sub136
d3-animate-choice,205,906640,0.0-76.0-1.23,TRUE,FALSE,FALSE,TRUE,"""event"",""trial"",""time""
""fullscreenenter"",""5"",""12281""
","
","
","""event"",""trial"",""time""
""fullscreenenter"",""5"",""12281""
","
",404.1350000188686,NA,49,NA,NA,3000,1,NA,NA,images/purpleplanet.jpg,images/alien4,images/alien3,images/rocket1,images/alien3,images/nothing.png,2,real,true,1,common,0,2020-06-28T18:50:02Z,sub136
two-step-fixation,206,907647,0.0-76.0-2.23,TRUE,FALSE,FALSE,TRUE,"""event"",""trial"",""time""
""fullscreenenter"",""5"",""12281""
","
","
","""event"",""trial"",""time""
""fullscreenenter"",""5"",""12281""
","
",NA,images/earth.jpg,NA,NA,NA,NA,NA,NA,NA,NA,NA,NA,NA,NA,NA,fixation,NA,NA,NA,NA,NA,NA,sub136
d3-animate-choice,207,909896,0.0-76.0-0.24,TRUE,FALSE,FALSE,TRUE,"""event"",""trial"",""time""
""fullscreenenter"",""5"",""12281""
","
","
","""event"",""trial"",""time""
""fullscreenenter"",""5"",""12281""
","
",246.114999987185,NA,49,NA,NA,3000,1,NA,NA,images/earth.jpg,images/rocket2,images/rocket1,null,images/rocket1,NA,1,real,null,1,NA,NA,NA,sub136
d3-animate-choice,208,912310,0.0-76.0-1.24,TRUE,FALSE,FALSE,TRUE,"""event"",""trial"",""time""
""fullscreenenter"",""5"",""12281""
","
","
","""event"",""trial"",""time""
""fullscreenenter"",""5"",""12281""
","
",407.74999995483086,NA,49,NA,NA,3000,1,NA,NA,images/purpleplanet.jpg,images/alien4,images/alien3,images/rocket1,images/alien3,images/t.png,2,real,true,1,common,1,2020-06-28T18:50:08Z,sub136
two-step-fixation,209,913315,0.0-76.0-2.24,TRUE,FALSE,FALSE,TRUE,"""event"",""trial"",""time""
""fullscreenenter"",""5"",""12281""
","
","
","""event"",""trial"",""time""
""fullscreenenter"",""5"",""12281""
","
",NA,images/earth.jpg,NA,NA,NA,NA,NA,NA,NA,NA,NA,NA,NA,NA,NA,fixation,NA,NA,NA,NA,NA,NA,sub136
d3-animate-choice,210,915599,0.0-76.0-0.25,TRUE,FALSE,FALSE,TRUE,"""event"",""trial"",""time""
""fullscreenenter"",""5"",""12281""
","
","
","""event"",""trial"",""time""
""fullscreenenter"",""5"",""12281""
","
",277.94999995967373,NA,49,NA,NA,3000,1,NA,NA,images/earth.jpg,images/rocket2,images/rocket1,null,images/rocket1,NA,1,real,null,1,NA,NA,NA,sub136
d3-animate-choice,211,918525,0.0-76.0-1.25,TRUE,FALSE,FALSE,TRUE,"""event"",""trial"",""time""
""fullscreenenter"",""5"",""12281""
","
","
","""event"",""trial"",""time""
""fullscreenenter"",""5"",""12281""
","
",920.9649999975227,NA,48,NA,NA,3000,1,NA,NA,images/redplanet1.jpg,images/alien2,images/alien1,images/rocket1,images/alien2,images/t.png,2,real,false,2,rare,1,2020-06-28T18:50:14Z,sub136
two-step-fixation,212,919527,0.0-76.0-2.25,TRUE,FALSE,FALSE,TRUE,"""event"",""trial"",""time""
""fullscreenenter"",""5"",""12281""
","
","
","""event"",""trial"",""time""
""fullscreenenter"",""5"",""12281""
","
",NA,images/earth.jpg,NA,NA,NA,NA,NA,NA,NA,NA,NA,NA,NA,NA,NA,fixation,NA,NA,NA,NA,NA,NA,sub136
d3-animate-choice,213,921845,0.0-76.0-0.26,TRUE,FALSE,FALSE,TRUE,"""event"",""trial"",""time""
""fullscreenenter"",""5"",""12281""
","
","
","""event"",""trial"",""time""
""fullscreenenter"",""5"",""12281""
","
",313.0700000328943,NA,49,NA,NA,3000,1,NA,NA,images/earth.jpg,images/rocket2,images/rocket1,null,images/rocket1,NA,1,real,null,1,NA,NA,NA,sub136
d3-animate-choice,214,924261,0.0-76.0-1.26,TRUE,FALSE,FALSE,TRUE,"""event"",""trial"",""time""
""fullscreenenter"",""5"",""12281""
","
","
","""event"",""trial"",""time""
""fullscreenenter"",""5"",""12281""
","
",408.5400000330992,NA,49,NA,NA,3000,1,NA,NA,images/purpleplanet.jpg,images/alien4,images/alien3,images/rocket1,images/alien3,images/nothing.png,2,real,true,1,common,0,2020-06-28T18:50:20Z,sub136
two-step-fixation,215,925265,0.0-76.0-2.26,TRUE,FALSE,FALSE,TRUE,"""event"",""trial"",""time""
""fullscreenenter"",""5"",""12281""
","
","
","""event"",""trial"",""time""
""fullscreenenter"",""5"",""12281""
","
",NA,images/earth.jpg,NA,NA,NA,NA,NA,NA,NA,NA,NA,NA,NA,NA,NA,fixation,NA,NA,NA,NA,NA,NA,sub136
d3-animate-choice,216,927534,0.0-76.0-0.27,TRUE,FALSE,FALSE,TRUE,"""event"",""trial"",""time""
""fullscreenenter"",""5"",""12281""
","
","
","""event"",""trial"",""time""
""fullscreenenter"",""5"",""12281""
","
",262.6849999651313,NA,49,NA,NA,3000,1,NA,NA,images/earth.jpg,images/rocket2,images/rocket1,null,images/rocket1,NA,1,real,null,1,NA,NA,NA,sub136
d3-animate-choice,217,930253,0.0-76.0-1.27,TRUE,FALSE,FALSE,TRUE,"""event"",""trial"",""time""
""fullscreenenter"",""5"",""12281""
","
","
","""event"",""trial"",""time""
""fullscreenenter"",""5"",""12281""
","
",712.5150000210851,NA,48,NA,NA,3000,1,NA,NA,images/redplanet1.jpg,images/alien2,images/alien1,images/rocket1,images/alien2,images/t.png,2,real,false,2,rare,1,2020-06-28T18:50:26Z,sub136
two-step-fixation,218,931260,0.0-76.0-2.27,TRUE,FALSE,FALSE,TRUE,"""event"",""trial"",""time""
""fullscreenenter"",""5"",""12281""
","
","
","""event"",""trial"",""time""
""fullscreenenter"",""5"",""12281""
","
",NA,images/earth.jpg,NA,NA,NA,NA,NA,NA,NA,NA,NA,NA,NA,NA,NA,fixation,NA,NA,NA,NA,NA,NA,sub136
d3-animate-choice,219,933546,0.0-76.0-0.28,TRUE,FALSE,FALSE,TRUE,"""event"",""trial"",""time""
""fullscreenenter"",""5"",""12281""
","
","
","""event"",""trial"",""time""
""fullscreenenter"",""5"",""12281""
","
",280.4749999777414,NA,48,NA,NA,3000,1,NA,NA,images/earth.jpg,images/rocket2,images/rocket1,null,images/rocket2,NA,1,real,null,2,NA,NA,NA,sub136
d3-animate-choice,220,935959,0.0-76.0-1.28,TRUE,FALSE,FALSE,TRUE,"""event"",""trial"",""time""
""fullscreenenter"",""5"",""12281""
","
","
","""event"",""trial"",""time""
""fullscreenenter"",""5"",""12281""
","
",406.88999998383224,NA,48,NA,NA,3000,1,NA,NA,images/redplanet1.jpg,images/alien2,images/alien1,images/rocket2,images/alien2,images/nothing.png,2,real,true,2,common,0,2020-06-28T18:50:31Z,sub136
two-step-fixation,221,936962,0.0-76.0-2.28,TRUE,FALSE,FALSE,TRUE,"""event"",""trial"",""time""
""fullscreenenter"",""5"",""12281""
","
","
","""event"",""trial"",""time""
""fullscreenenter"",""5"",""12281""
","
",NA,images/earth.jpg,NA,NA,NA,NA,NA,NA,NA,NA,NA,NA,NA,NA,NA,fixation,NA,NA,NA,NA,NA,NA,sub136
d3-animate-choice,222,939233,0.0-76.0-0.29,TRUE,FALSE,FALSE,TRUE,"""event"",""trial"",""time""
""fullscreenenter"",""5"",""12281""
","
","
","""event"",""trial"",""time""
""fullscreenenter"",""5"",""12281""
","
",264.519999967888,NA,48,NA,NA,3000,1,2245.3000000095926,48,images/earth.jpg,images/rocket2,images/rocket1,null,images/rocket2,NA,1,real,null,2,NA,NA,NA,sub136
d3-animate-choice,223,941825,0.0-76.0-1.29,TRUE,FALSE,FALSE,TRUE,"""event"",""trial"",""time""
""fullscreenenter"",""5"",""12281""
","
","
","""event"",""trial"",""time""
""fullscreenenter"",""5"",""12281""
","
",585.2249999879859,NA,48,NA,NA,3000,1,NA,NA,images/redplanet1.jpg,images/alien2,images/alien1,images/rocket2,images/alien2,images/t.png,2,real,true,2,common,1,2020-06-28T18:50:37Z,sub136
two-step-fixation,224,942828,0.0-76.0-2.29,TRUE,FALSE,FALSE,TRUE,"""event"",""trial"",""time""
""fullscreenenter"",""5"",""12281""
","
","
","""event"",""trial"",""time""
""fullscreenenter"",""5"",""12281""
","
",NA,images/earth.jpg,NA,NA,NA,NA,NA,NA,NA,NA,NA,NA,NA,NA,NA,fixation,NA,NA,NA,NA,NA,NA,sub136
d3-animate-choice,225,945127,0.0-76.0-0.30,TRUE,FALSE,FALSE,TRUE,"""event"",""trial"",""time""
""fullscreenenter"",""5"",""12281""
","
","
","""event"",""trial"",""time""
""fullscreenenter"",""5"",""12281""
","
",294.5849999669008,NA,48,NA,NA,3000,1,NA,NA,images/earth.jpg,images/rocket2,images/rocket1,null,images/rocket2,NA,1,real,null,2,NA,NA,NA,sub136
d3-animate-choice,226,947586,0.0-76.0-1.30,TRUE,FALSE,FALSE,TRUE,"""event"",""trial"",""time""
""fullscreenenter"",""5"",""12281""
","
","
","""event"",""trial"",""time""
""fullscreenenter"",""5"",""12281""
","
",453.74000002630055,NA,48,NA,NA,3000,1,NA,NA,images/redplanet1.jpg,images/alien2,images/alien1,images/rocket2,images/alien2,images/t.png,2,real,true,2,common,1,2020-06-28T18:50:43Z,sub136
two-step-fixation,227,948591,0.0-76.0-2.30,TRUE,FALSE,FALSE,TRUE,"""event"",""trial"",""time""
""fullscreenenter"",""5"",""12281""
","
","
","""event"",""trial"",""time""
""fullscreenenter"",""5"",""12281""
","
",NA,images/earth.jpg,NA,NA,NA,NA,NA,NA,NA,NA,NA,NA,NA,NA,NA,fixation,NA,NA,NA,NA,NA,NA,sub136
d3-animate-choice,228,950910,0.0-76.0-0.31,TRUE,FALSE,FALSE,TRUE,"""event"",""trial"",""time""
""fullscreenenter"",""5"",""12281""
","
","
","""event"",""trial"",""time""
""fullscreenenter"",""5"",""12281""
","
",312.54499999340624,NA,48,NA,NA,3000,1,NA,NA,images/earth.jpg,images/rocket2,images/rocket1,null,images/rocket2,NA,1,real,null,2,NA,NA,NA,sub136
d3-animate-choice,229,953280,0.0-76.0-1.31,TRUE,FALSE,FALSE,TRUE,"""event"",""trial"",""time""
""fullscreenenter"",""5"",""12281""
","
","
","""event"",""trial"",""time""
""fullscreenenter"",""5"",""12281""
","
",365.71500002173707,NA,48,NA,NA,3000,1,NA,NA,images/redplanet1.jpg,images/alien2,images/alien1,images/rocket2,images/alien2,images/t.png,2,real,true,2,common,1,2020-06-28T18:50:49Z,sub136
two-step-fixation,230,954285,0.0-76.0-2.31,TRUE,FALSE,FALSE,TRUE,"""event"",""trial"",""time""
""fullscreenenter"",""5"",""12281""
","
","
","""event"",""trial"",""time""
""fullscreenenter"",""5"",""12281""
","
",NA,images/earth.jpg,NA,NA,NA,NA,NA,NA,NA,NA,NA,NA,NA,NA,NA,fixation,NA,NA,NA,NA,NA,NA,sub136
d3-animate-choice,231,956598,0.0-76.0-0.32,TRUE,FALSE,FALSE,TRUE,"""event"",""trial"",""time""
""fullscreenenter"",""5"",""12281""
","
","
","""event"",""trial"",""time""
""fullscreenenter"",""5"",""12281""
","
",307.47499997960404,NA,48,NA,NA,3000,1,NA,NA,images/earth.jpg,images/rocket2,images/rocket1,null,images/rocket2,NA,1,real,null,2,NA,NA,NA,sub136
d3-animate-choice,232,958994,0.0-76.0-1.32,TRUE,FALSE,FALSE,TRUE,"""event"",""trial"",""time""
""fullscreenenter"",""5"",""12281""
","
","
","""event"",""trial"",""time""
""fullscreenenter"",""5"",""12281""
","
",391.6800000006333,NA,48,NA,NA,3000,1,NA,NA,images/redplanet1.jpg,images/alien2,images/alien1,images/rocket2,images/alien2,images/nothing.png,2,real,true,2,common,0,2020-06-28T18:50:55Z,sub136
two-step-fixation,233,959999,0.0-76.0-2.32,TRUE,FALSE,FALSE,TRUE,"""event"",""trial"",""time""
""fullscreenenter"",""5"",""12281""
","
","
","""event"",""trial"",""time""
""fullscreenenter"",""5"",""12281""
","
",NA,images/earth.jpg,NA,NA,NA,NA,NA,NA,NA,NA,NA,NA,NA,NA,NA,fixation,NA,NA,NA,NA,NA,NA,sub136
d3-animate-choice,234,962310,0.0-76.0-0.33,TRUE,FALSE,FALSE,TRUE,"""event"",""trial"",""time""
""fullscreenenter"",""5"",""12281""
","
","
","""event"",""trial"",""time""
""fullscreenenter"",""5"",""12281""
","
",302.0149999647401,NA,48,NA,NA,3000,1,NA,NA,images/earth.jpg,images/rocket2,images/rocket1,null,images/rocket2,NA,1,real,null,2,NA,NA,NA,sub136
d3-animate-choice,235,964704,0.0-76.0-1.33,TRUE,FALSE,FALSE,TRUE,"""event"",""trial"",""time""
""fullscreenenter"",""5"",""12281""
","
","
","""event"",""trial"",""time""
""fullscreenenter"",""5"",""12281""
","
",388.67000001482666,NA,48,NA,NA,3000,1,NA,NA,images/purpleplanet.jpg,images/alien4,images/alien3,images/rocket2,images/alien4,images/nothing.png,2,real,false,2,rare,0,2020-06-28T18:51:00Z,sub136
two-step-fixation,236,965709,0.0-76.0-2.33,TRUE,FALSE,FALSE,TRUE,"""event"",""trial"",""time""
""fullscreenenter"",""5"",""12281""
","
","
","""event"",""trial"",""time""
""fullscreenenter"",""5"",""12281""
","
",NA,images/earth.jpg,NA,NA,NA,NA,NA,NA,NA,NA,NA,NA,NA,NA,NA,fixation,NA,NA,NA,NA,NA,NA,sub136
d3-animate-choice,237,968096,0.0-76.0-0.34,TRUE,FALSE,FALSE,TRUE,"""event"",""trial"",""time""
""fullscreenenter"",""5"",""12281""
","
","
","""event"",""trial"",""time""
""fullscreenenter"",""5"",""12281""
","
",382.3399999528192,NA,48,NA,NA,3000,1,NA,NA,images/earth.jpg,images/rocket2,images/rocket1,null,images/rocket2,NA,1,real,null,2,NA,NA,NA,sub136
d3-animate-choice,238,970636,0.0-76.0-1.34,TRUE,FALSE,FALSE,TRUE,"""event"",""trial"",""time""
""fullscreenenter"",""5"",""12281""
","
","
","""event"",""trial"",""time""
""fullscreenenter"",""5"",""12281""
","
",532.9449999844655,NA,49,NA,NA,3000,1,NA,NA,images/purpleplanet.jpg,images/alien4,images/alien3,images/rocket2,images/alien3,images/nothing.png,2,real,false,1,rare,0,2020-06-28T18:51:06Z,sub136
two-step-fixation,239,971640,0.0-76.0-2.34,TRUE,FALSE,FALSE,TRUE,"""event"",""trial"",""time""
""fullscreenenter"",""5"",""12281""
","
","
","""event"",""trial"",""time""
""fullscreenenter"",""5"",""12281""
","
",NA,images/earth.jpg,NA,NA,NA,NA,NA,NA,NA,NA,NA,NA,NA,NA,NA,fixation,NA,NA,NA,NA,NA,NA,sub136
d3-animate-choice,240,974008,0.0-76.0-0.35,TRUE,FALSE,FALSE,TRUE,"""event"",""trial"",""time""
""fullscreenenter"",""5"",""12281""
","
","
","""event"",""trial"",""time""
""fullscreenenter"",""5"",""12281""
","
",362.2299999697134,NA,48,NA,NA,3000,1,NA,NA,images/earth.jpg,images/rocket2,images/rocket1,null,images/rocket2,NA,1,real,null,2,NA,NA,NA,sub136
d3-animate-choice,241,976352,0.0-76.0-1.35,TRUE,FALSE,FALSE,TRUE,"""event"",""trial"",""time""
""fullscreenenter"",""5"",""12281""
","
","
","""event"",""trial"",""time""
""fullscreenenter"",""5"",""12281""
","
",338.2349999737926,NA,48,NA,NA,3000,1,NA,NA,images/redplanet1.jpg,images/alien2,images/alien1,images/rocket2,images/alien2,images/nothing.png,2,real,true,2,common,0,2020-06-28T18:51:12Z,sub136
two-step-fixation,242,977354,0.0-76.0-2.35,TRUE,FALSE,FALSE,TRUE,"""event"",""trial"",""time""
""fullscreenenter"",""5"",""12281""
","
","
","""event"",""trial"",""time""
""fullscreenenter"",""5"",""12281""
","
",NA,images/earth.jpg,NA,NA,NA,NA,NA,NA,NA,NA,NA,NA,NA,NA,NA,fixation,NA,NA,NA,NA,NA,NA,sub136
d3-animate-choice,243,979761,0.0-76.0-0.36,TRUE,FALSE,FALSE,TRUE,"""event"",""trial"",""time""
""fullscreenenter"",""5"",""12281""
","
","
","""event"",""trial"",""time""
""fullscreenenter"",""5"",""12281""
","
",400.2699999837205,NA,48,NA,NA,3000,1,NA,NA,images/earth.jpg,images/rocket2,images/rocket1,null,images/rocket2,NA,1,real,null,2,NA,NA,NA,sub136
d3-animate-choice,244,982100,0.0-76.0-1.36,TRUE,FALSE,FALSE,TRUE,"""event"",""trial"",""time""
""fullscreenenter"",""5"",""12281""
","
","
","""event"",""trial"",""time""
""fullscreenenter"",""5"",""12281""
","
",333.5899999947287,NA,48,NA,NA,3000,1,NA,NA,images/redplanet1.jpg,images/alien2,images/alien1,images/rocket2,images/alien2,images/nothing.png,2,real,true,2,common,0,2020-06-28T18:51:18Z,sub136
two-step-fixation,245,983104,0.0-76.0-2.36,TRUE,FALSE,FALSE,TRUE,"""event"",""trial"",""time""
""fullscreenenter"",""5"",""12281""
","
","
","""event"",""trial"",""time""
""fullscreenenter"",""5"",""12281""
","
",NA,images/earth.jpg,NA,NA,NA,NA,NA,NA,NA,NA,NA,NA,NA,NA,NA,fixation,NA,NA,NA,NA,NA,NA,sub136
d3-animate-choice,246,985375,0.0-76.0-0.37,TRUE,FALSE,FALSE,TRUE,"""event"",""trial"",""time""
""fullscreenenter"",""5"",""12281""
","
","
","""event"",""trial"",""time""
""fullscreenenter"",""5"",""12281""
","
",266.6050000116229,NA,48,NA,NA,3000,1,NA,NA,images/earth.jpg,images/rocket2,images/rocket1,null,images/rocket2,NA,1,real,null,2,NA,NA,NA,sub136
d3-animate-choice,247,987744,0.0-76.0-1.37,TRUE,FALSE,FALSE,TRUE,"""event"",""trial"",""time""
""fullscreenenter"",""5"",""12281""
","
","
","""event"",""trial"",""time""
""fullscreenenter"",""5"",""12281""
","
",364.7900000214577,NA,48,NA,NA,3000,1,NA,NA,images/redplanet1.jpg,images/alien2,images/alien1,images/rocket2,images/alien2,images/t.png,2,real,true,2,common,1,2020-06-28T18:51:23Z,sub136
two-step-fixation,248,988748,0.0-76.0-2.37,TRUE,FALSE,FALSE,TRUE,"""event"",""trial"",""time""
""fullscreenenter"",""5"",""12281""
","
","
","""event"",""trial"",""time""
""fullscreenenter"",""5"",""12281""
","
",NA,images/earth.jpg,NA,NA,NA,NA,NA,NA,NA,NA,NA,NA,NA,NA,NA,fixation,NA,NA,NA,NA,NA,NA,sub136
d3-animate-choice,249,991011,0.0-76.0-0.38,TRUE,FALSE,FALSE,TRUE,"""event"",""trial"",""time""
""fullscreenenter"",""5"",""12281""
","
","
","""event"",""trial"",""time""
""fullscreenenter"",""5"",""12281""
","
",257.53500004066154,NA,48,NA,NA,3000,1,NA,NA,images/earth.jpg,images/rocket2,images/rocket1,null,images/rocket2,NA,1,real,null,2,NA,NA,NA,sub136
d3-animate-choice,250,993693,0.0-76.0-1.38,TRUE,FALSE,FALSE,TRUE,"""event"",""trial"",""time""
""fullscreenenter"",""5"",""12281""
","
","
","""event"",""trial"",""time""
""fullscreenenter"",""5"",""12281""
","
",676.9349999958649,NA,49,NA,NA,3000,1,NA,NA,images/purpleplanet.jpg,images/alien4,images/alien3,images/rocket2,images/alien3,images/nothing.png,2,real,false,1,rare,0,2020-06-28T18:51:29Z,sub136
two-step-fixation,251,994698,0.0-76.0-2.38,TRUE,FALSE,FALSE,TRUE,"""event"",""trial"",""time""
""fullscreenenter"",""5"",""12281""
","
","
","""event"",""trial"",""time""
""fullscreenenter"",""5"",""12281""
","
",NA,images/earth.jpg,NA,NA,NA,NA,NA,NA,NA,NA,NA,NA,NA,NA,NA,fixation,NA,NA,NA,NA,NA,NA,sub136
d3-animate-choice,252,996951,0.0-76.0-0.39,TRUE,FALSE,FALSE,TRUE,"""event"",""trial"",""time""
""fullscreenenter"",""5"",""12281""
","
","
","""event"",""trial"",""time""
""fullscreenenter"",""5"",""12281""
","
",249.64999995427206,NA,48,NA,NA,3000,1,NA,NA,images/earth.jpg,images/rocket2,images/rocket1,null,images/rocket2,NA,1,real,null,2,NA,NA,NA,sub136
d3-animate-choice,253,999301,0.0-76.0-1.39,TRUE,FALSE,FALSE,TRUE,"""event"",""trial"",""time""
""fullscreenenter"",""5"",""12281""
","
","
","""event"",""trial"",""time""
""fullscreenenter"",""5"",""12281""
","
",344.9950000504032,NA,48,NA,NA,3000,1,NA,NA,images/redplanet1.jpg,images/alien2,images/alien1,images/rocket2,images/alien2,images/t.png,2,real,true,2,common,1,2020-06-28T18:51:35Z,sub136
two-step-fixation,254,1000304,0.0-76.0-2.39,TRUE,FALSE,FALSE,TRUE,"""event"",""trial"",""time""
""fullscreenenter"",""5"",""12281""
","
","
","""event"",""trial"",""time""
""fullscreenenter"",""5"",""12281""
","
",NA,images/earth.jpg,NA,NA,NA,NA,NA,NA,NA,NA,NA,NA,NA,NA,NA,fixation,NA,NA,NA,NA,NA,NA,sub136
d3-animate-choice,255,1002774,0.0-76.0-0.40,TRUE,FALSE,FALSE,TRUE,"""event"",""trial"",""time""
""fullscreenenter"",""5"",""12281""
","
","
","""event"",""trial"",""time""
""fullscreenenter"",""5"",""12281""
","
",463.91499997116625,NA,48,NA,NA,3000,1,NA,NA,images/earth.jpg,images/rocket2,images/rocket1,null,images/rocket2,NA,1,real,null,2,NA,NA,NA,sub136
d3-animate-choice,256,1005338,0.0-76.0-1.40,TRUE,FALSE,FALSE,TRUE,"""event"",""trial"",""time""
""fullscreenenter"",""5"",""12281""
","
","
","""event"",""trial"",""time""
""fullscreenenter"",""5"",""12281""
","
",558.3849999820814,NA,48,NA,NA,3000,1,NA,NA,images/redplanet1.jpg,images/alien2,images/alien1,images/rocket2,images/alien2,images/t.png,2,real,true,2,common,1,2020-06-28T18:51:41Z,sub136
two-step-fixation,257,1006343,0.0-76.0-2.40,TRUE,FALSE,FALSE,TRUE,"""event"",""trial"",""time""
""fullscreenenter"",""5"",""12281""
","
","
","""event"",""trial"",""time""
""fullscreenenter"",""5"",""12281""
","
",NA,images/earth.jpg,NA,NA,NA,NA,NA,NA,NA,NA,NA,NA,NA,NA,NA,fixation,NA,NA,NA,NA,NA,NA,sub136
d3-animate-choice,258,1008654,0.0-76.0-0.41,TRUE,FALSE,FALSE,TRUE,"""event"",""trial"",""time""
""fullscreenenter"",""5"",""12281""
","
","
","""event"",""trial"",""time""
""fullscreenenter"",""5"",""12281""
","
",303.795000014361,NA,48,NA,NA,3000,1,NA,NA,images/earth.jpg,images/rocket2,images/rocket1,null,images/rocket2,NA,1,real,null,2,NA,NA,NA,sub136
d3-animate-choice,259,1011072,0.0-76.0-1.41,TRUE,FALSE,FALSE,TRUE,"""event"",""trial"",""time""
""fullscreenenter"",""5"",""12281""
","
","
","""event"",""trial"",""time""
""fullscreenenter"",""5"",""12281""
","
",412.49499999685213,NA,48,NA,NA,3000,1,NA,NA,images/redplanet1.jpg,images/alien2,images/alien1,images/rocket2,images/alien2,images/t.png,2,real,true,2,common,1,2020-06-28T18:51:47Z,sub136
two-step-fixation,260,1012077,0.0-76.0-2.41,TRUE,FALSE,FALSE,TRUE,"""event"",""trial"",""time""
""fullscreenenter"",""5"",""12281""
","
","
","""event"",""trial"",""time""
""fullscreenenter"",""5"",""12281""
","
",NA,images/earth.jpg,NA,NA,NA,NA,NA,NA,NA,NA,NA,NA,NA,NA,NA,fixation,NA,NA,NA,NA,NA,NA,sub136
d3-animate-choice,261,1014317,0.0-76.0-0.42,TRUE,FALSE,FALSE,TRUE,"""event"",""trial"",""time""
""fullscreenenter"",""5"",""12281""
","
","
","""event"",""trial"",""time""
""fullscreenenter"",""5"",""12281""
","
",235.2299999911338,NA,48,NA,NA,3000,1,NA,NA,images/earth.jpg,images/rocket2,images/rocket1,null,images/rocket2,NA,1,real,null,2,NA,NA,NA,sub136
d3-animate-choice,262,1016710,0.0-76.0-1.42,TRUE,FALSE,FALSE,TRUE,"""event"",""trial"",""time""
""fullscreenenter"",""5"",""12281""
","
","
","""event"",""trial"",""time""
""fullscreenenter"",""5"",""12281""
","
",389.3699999898672,NA,48,NA,NA,3000,1,NA,NA,images/redplanet1.jpg,images/alien2,images/alien1,images/rocket2,images/alien2,images/t.png,2,real,true,2,common,1,2020-06-28T18:51:52Z,sub136
two-step-fixation,263,1017714,0.0-76.0-2.42,TRUE,FALSE,FALSE,TRUE,"""event"",""trial"",""time""
""fullscreenenter"",""5"",""12281""
","
","
","""event"",""trial"",""time""
""fullscreenenter"",""5"",""12281""
","
",NA,images/earth.jpg,NA,NA,NA,NA,NA,NA,NA,NA,NA,NA,NA,NA,NA,fixation,NA,NA,NA,NA,NA,NA,sub136
d3-animate-choice,264,1019933,0.0-76.0-0.43,TRUE,FALSE,FALSE,TRUE,"""event"",""trial"",""time""
""fullscreenenter"",""5"",""12281""
","
","
","""event"",""trial"",""time""
""fullscreenenter"",""5"",""12281""
","
",212.26000000024214,NA,48,NA,NA,3000,1,NA,NA,images/earth.jpg,images/rocket2,images/rocket1,null,images/rocket2,NA,1,real,null,2,NA,NA,NA,sub136
d3-animate-choice,265,1022347,0.0-76.0-1.43,TRUE,FALSE,FALSE,TRUE,"""event"",""trial"",""time""
""fullscreenenter"",""5"",""12281""
","
","
","""event"",""trial"",""time""
""fullscreenenter"",""5"",""12281""
","
",409.9300000234507,NA,48,NA,NA,3000,1,NA,NA,images/redplanet1.jpg,images/alien2,images/alien1,images/rocket2,images/alien2,images/nothing.png,2,real,true,2,common,0,2020-06-28T18:51:58Z,sub136
two-step-fixation,266,1023353,0.0-76.0-2.43,TRUE,FALSE,FALSE,TRUE,"""event"",""trial"",""time""
""fullscreenenter"",""5"",""12281""
","
","
","""event"",""trial"",""time""
""fullscreenenter"",""5"",""12281""
","
",NA,images/earth.jpg,NA,NA,NA,NA,NA,NA,NA,NA,NA,NA,NA,NA,NA,fixation,NA,NA,NA,NA,NA,NA,sub136
d3-animate-choice,267,1025668,0.0-76.0-0.44,TRUE,FALSE,FALSE,TRUE,"""event"",""trial"",""time""
""fullscreenenter"",""5"",""12281""
","
","
","""event"",""trial"",""time""
""fullscreenenter"",""5"",""12281""
","
",309.914999990724,NA,48,NA,NA,3000,1,NA,NA,images/earth.jpg,images/rocket2,images/rocket1,null,images/rocket2,NA,1,real,null,2,NA,NA,NA,sub136
d3-animate-choice,268,1027991,0.0-76.0-1.44,TRUE,FALSE,FALSE,TRUE,"""event"",""trial"",""time""
""fullscreenenter"",""5"",""12281""
","
","
","""event"",""trial"",""time""
""fullscreenenter"",""5"",""12281""
","
",318.67000000784174,NA,48,NA,NA,3000,1,NA,NA,images/redplanet1.jpg,images/alien2,images/alien1,images/rocket2,images/alien2,images/nothing.png,2,real,true,2,common,0,2020-06-28T18:52:04Z,sub136
two-step-fixation,269,1028995,0.0-76.0-2.44,TRUE,FALSE,FALSE,TRUE,"""event"",""trial"",""time""
""fullscreenenter"",""5"",""12281""
","
","
","""event"",""trial"",""time""
""fullscreenenter"",""5"",""12281""
","
",NA,images/earth.jpg,NA,NA,NA,NA,NA,NA,NA,NA,NA,NA,NA,NA,NA,fixation,NA,NA,NA,NA,NA,NA,sub136
d3-animate-choice,270,1031053,0.0-76.0-0.45,TRUE,FALSE,FALSE,TRUE,"""event"",""trial"",""time""
""fullscreenenter"",""5"",""12281""
","
","
","""event"",""trial"",""time""
""fullscreenenter"",""5"",""12281""
","
",53.16000001039356,NA,48,NA,NA,3000,1,NA,NA,images/earth.jpg,images/rocket2,images/rocket1,null,images/rocket2,NA,1,real,null,2,NA,NA,NA,sub136
d3-animate-choice,271,1033475,0.0-76.0-1.45,TRUE,FALSE,FALSE,TRUE,"""event"",""trial"",""time""
""fullscreenenter"",""5"",""12281""
","
","
","""event"",""trial"",""time""
""fullscreenenter"",""5"",""12281""
","
",416.99499997776,NA,48,NA,NA,3000,1,NA,NA,images/redplanet1.jpg,images/alien2,images/alien1,images/rocket2,images/alien2,images/nothing.png,2,real,true,2,common,0,2020-06-28T18:52:09Z,sub136
two-step-fixation,272,1034479,0.0-76.0-2.45,TRUE,FALSE,FALSE,TRUE,"""event"",""trial"",""time""
""fullscreenenter"",""5"",""12281""
","
","
","""event"",""trial"",""time""
""fullscreenenter"",""5"",""12281""
","
",NA,images/earth.jpg,NA,NA,NA,NA,NA,NA,NA,NA,NA,NA,NA,NA,NA,fixation,NA,NA,NA,NA,NA,NA,sub136
d3-animate-choice,273,1036982,0.0-76.0-0.46,TRUE,FALSE,FALSE,TRUE,"""event"",""trial"",""time""
""fullscreenenter"",""5"",""12281""
","
","
","""event"",""trial"",""time""
""fullscreenenter"",""5"",""12281""
","
",498.7799999653362,NA,49,NA,NA,3000,1,NA,NA,images/earth.jpg,images/rocket2,images/rocket1,null,images/rocket1,NA,1,real,null,1,NA,NA,NA,sub136
d3-animate-choice,274,1039347,0.0-76.0-1.46,TRUE,FALSE,FALSE,TRUE,"""event"",""trial"",""time""
""fullscreenenter"",""5"",""12281""
","
","
","""event"",""trial"",""time""
""fullscreenenter"",""5"",""12281""
","
",359.8999999812804,NA,49,NA,NA,3000,1,NA,NA,images/purpleplanet.jpg,images/alien4,images/alien3,images/rocket1,images/alien3,images/nothing.png,2,real,true,1,common,0,2020-06-28T18:52:15Z,sub136
two-step-fixation,275,1040352,0.0-76.0-2.46,TRUE,FALSE,FALSE,TRUE,"""event"",""trial"",""time""
""fullscreenenter"",""5"",""12281""
","
","
","""event"",""trial"",""time""
""fullscreenenter"",""5"",""12281""
","
",NA,images/earth.jpg,NA,NA,NA,NA,NA,NA,NA,NA,NA,NA,NA,NA,NA,fixation,NA,NA,NA,NA,NA,NA,sub136
d3-animate-choice,276,1042914,0.0-76.0-0.47,TRUE,FALSE,FALSE,TRUE,"""event"",""trial"",""time""
""fullscreenenter"",""5"",""12281""
","
","
","""event"",""trial"",""time""
""fullscreenenter"",""5"",""12281""
","
",555.3000000072643,NA,49,NA,NA,3000,1,NA,NA,images/earth.jpg,images/rocket2,images/rocket1,null,images/rocket1,NA,1,real,null,1,NA,NA,NA,sub136
d3-animate-choice,277,1045859,0.0-76.0-1.47,TRUE,FALSE,FALSE,TRUE,"""event"",""trial"",""time""
""fullscreenenter"",""5"",""12281""
","
","
","""event"",""trial"",""time""
""fullscreenenter"",""5"",""12281""
","
",940.8050000201911,NA,48,NA,NA,3000,1,NA,NA,images/redplanet1.jpg,images/alien2,images/alien1,images/rocket1,images/alien2,images/t.png,2,real,false,2,rare,1,2020-06-28T18:52:21Z,sub136
two-step-fixation,278,1046862,0.0-76.0-2.47,TRUE,FALSE,FALSE,TRUE,"""event"",""trial"",""time""
""fullscreenenter"",""5"",""12281""
","
","
","""event"",""trial"",""time""
""fullscreenenter"",""5"",""12281""
","
",NA,images/earth.jpg,NA,NA,NA,NA,NA,NA,NA,NA,NA,NA,NA,NA,NA,fixation,NA,NA,NA,NA,NA,NA,sub136
d3-animate-choice,279,1049202,0.0-76.0-0.48,TRUE,FALSE,FALSE,TRUE,"""event"",""trial"",""time""
""fullscreenenter"",""5"",""12281""
","
","
","""event"",""trial"",""time""
""fullscreenenter"",""5"",""12281""
","
",335.1449999609031,NA,49,NA,NA,3000,1,NA,NA,images/earth.jpg,images/rocket2,images/rocket1,null,images/rocket1,NA,1,real,null,1,NA,NA,NA,sub136
d3-animate-choice,280,1051643,0.0-76.0-1.48,TRUE,FALSE,FALSE,TRUE,"""event"",""trial"",""time""
""fullscreenenter"",""5"",""12281""
","
","
","""event"",""trial"",""time""
""fullscreenenter"",""5"",""12281""
","
",437.4350000289269,NA,48,NA,NA,3000,1,NA,NA,images/purpleplanet.jpg,images/alien4,images/alien3,images/rocket1,images/alien4,images/nothing.png,2,real,true,2,common,0,2020-06-28T18:52:27Z,sub136
two-step-fixation,281,1052648,0.0-76.0-2.48,TRUE,FALSE,FALSE,TRUE,"""event"",""trial"",""time""
""fullscreenenter"",""5"",""12281""
","
","
","""event"",""trial"",""time""
""fullscreenenter"",""5"",""12281""
","
",NA,images/earth.jpg,NA,NA,NA,NA,NA,NA,NA,NA,NA,NA,NA,NA,NA,fixation,NA,NA,NA,NA,NA,NA,sub136
d3-animate-choice,282,1054913,0.0-76.0-0.49,TRUE,FALSE,FALSE,TRUE,"""event"",""trial"",""time""
""fullscreenenter"",""5"",""12281""
","
","
","""event"",""trial"",""time""
""fullscreenenter"",""5"",""12281""
","
",260.96500002313405,NA,48,NA,NA,3000,1,NA,NA,images/earth.jpg,images/rocket2,images/rocket1,null,images/rocket2,NA,1,real,null,2,NA,NA,NA,sub136
