trial_type,trial_index,time_elapsed,internal_node_id,rocket_sides,red_planet_first_rocket,red_display_order,purple_display_order,interactions,blur_events,focus_events,fullscreenenter_events,fullscreenexit_events,rt,stimulus,key_press,button_pressed,success,duration,valid_pressed,rts,keys,planet_text,right_text,left_text,center_text,chosen_text,reward_text,trial_stage,practice_trial,transition_type,choice,transition,reward,timestamp,subject_id
pavlovia,0,5,0.0-0.0,TRUE,FALSE,TRUE,FALSE,"
","
","
","
","
",NA,NA,NA,NA,NA,NA,NA,NA,NA,NA,NA,NA,NA,NA,NA,NA,NA,NA,NA,NA,NA,NA,sub31
html-keyboard-response,1,1454,0.0-1.0,TRUE,FALSE,TRUE,FALSE,"
","
","
","
","
",1447.9299999948125,Welcome! Press the space bar to begin.,32,NA,NA,NA,NA,NA,NA,NA,NA,NA,NA,NA,NA,NA,NA,NA,NA,NA,NA,NA,sub31
audio-keyboard-response,2,4126,0.0-2.0,TRUE,FALSE,TRUE,FALSE,"
","
","
","
","
",2656,audio/beep_loop.wav,32,NA,NA,NA,NA,NA,NA,NA,NA,NA,NA,NA,NA,NA,NA,NA,NA,NA,NA,NA,sub31
audio-button-response,3,5617,0.0-3.0,TRUE,FALSE,TRUE,FALSE,"
","
","
","
","
",NaN,audio/fish.mp3,NA,1,NA,NA,NA,NA,NA,NA,NA,NA,NA,NA,NA,NA,NA,NA,NA,NA,NA,NA,sub31
audio-button-response,4,7923,0.0-4.0,TRUE,FALSE,TRUE,FALSE,"""event"",""trial"",""time""
""fullscreenenter"",""5"",""14653""
","
","
","""event"",""trial"",""time""
""fullscreenenter"",""5"",""14653""
","
",NaN,audio/tiger.mp3,NA,4,NA,NA,NA,NA,NA,NA,NA,NA,NA,NA,NA,NA,NA,NA,NA,NA,NA,NA,sub31
fullscreen,5,15631,0.0-5.0,TRUE,FALSE,TRUE,FALSE,"""event"",""trial"",""time""
""fullscreenenter"",""5"",""14653""
","
","
","""event"",""trial"",""time""
""fullscreenenter"",""5"",""14653""
","
",NA,NA,NA,NA,TRUE,NA,NA,NA,NA,NA,NA,NA,NA,NA,NA,NA,NA,NA,NA,NA,NA,NA,sub31
d3-instructions,6,29708,0.0-6.0,TRUE,FALSE,TRUE,FALSE,"""event"",""trial"",""time""
""fullscreenenter"",""5"",""14653""
","
","
","""event"",""trial"",""time""
""fullscreenenter"",""5"",""14653""
","
",NA,NA,NA,NA,NA,NA,NA,NA,NA,NA,NA,NA,NA,NA,NA,NA,NA,NA,NA,NA,NA,NA,sub31
d3-instructions,7,38956,0.0-7.0,TRUE,FALSE,TRUE,FALSE,"""event"",""trial"",""time""
""fullscreenenter"",""5"",""14653""
","
","
","""event"",""trial"",""time""
""fullscreenenter"",""5"",""14653""
","
",NA,NA,NA,NA,NA,NA,NA,NA,NA,NA,NA,NA,NA,NA,NA,NA,NA,NA,NA,NA,NA,NA,sub31
d3-instructions,8,45712,0.0-8.0,TRUE,FALSE,TRUE,FALSE,"""event"",""trial"",""time""
""fullscreenenter"",""5"",""14653""
","
","
","""event"",""trial"",""time""
""fullscreenenter"",""5"",""14653""
","
",NA,NA,NA,NA,NA,NA,NA,NA,NA,NA,NA,NA,NA,NA,NA,NA,NA,NA,NA,NA,NA,NA,sub31
d3-instructions,9,56233,0.0-9.0,TRUE,FALSE,TRUE,FALSE,"""event"",""trial"",""time""
""fullscreenenter"",""5"",""14653""
","
","
","""event"",""trial"",""time""
""fullscreenenter"",""5"",""14653""
","
",NA,NA,NA,NA,NA,NA,NA,NA,NA,NA,NA,NA,NA,NA,NA,NA,NA,NA,NA,NA,NA,NA,sub31
d3-instructions,10,75362,0.0-10.0,TRUE,FALSE,TRUE,FALSE,"""event"",""trial"",""time""
""fullscreenenter"",""5"",""14653""
","
","
","""event"",""trial"",""time""
""fullscreenenter"",""5"",""14653""
","
",NA,NA,NA,NA,NA,NA,NA,NA,NA,NA,NA,NA,NA,NA,NA,NA,NA,NA,NA,NA,NA,NA,sub31
d3-animate-choice,11,78813,0.0-11.0,TRUE,FALSE,TRUE,FALSE,"""event"",""trial"",""time""
""fullscreenenter"",""5"",""14653""
","
","
","""event"",""trial"",""time""
""fullscreenenter"",""5"",""14653""
","
",1439.010000001872,NA,49,NA,NA,3000,1,"2108.9649999921676,3169.8449999967124",4848,images/tutgreenplanet.jpg,images/tutalien1,images/tutalien2,null,images/tutalien2,NA,NA,practice,null,NA,NA,NA,NA,sub31
d3-animate-choice,12,81777,0.0-12.0,TRUE,FALSE,TRUE,FALSE,"""event"",""trial"",""time""
""fullscreenenter"",""5"",""14653""
","
","
","""event"",""trial"",""time""
""fullscreenenter"",""5"",""14653""
","
",958.0450000066776,NA,48,NA,NA,3000,1,NA,NA,images/tutgreenplanet.jpg,images/tutalien1,images/tutalien2,null,images/tutalien1,NA,NA,practice,null,NA,NA,NA,NA,sub31
d3-animate-choice,13,86380,0.0-13.0,TRUE,FALSE,TRUE,FALSE,"""event"",""trial"",""time""
""fullscreenenter"",""5"",""14653""
","
","
","""event"",""trial"",""time""
""fullscreenenter"",""5"",""14653""
","
",2596.2149999977555,NA,49,NA,NA,3000,1,NA,NA,images/tutgreenplanet.jpg,images/tutalien1,images/tutalien2,null,images/tutalien2,NA,NA,practice,null,NA,NA,NA,NA,sub31
d3-animate-choice,14,88767,0.0-14.0,TRUE,FALSE,TRUE,FALSE,"""event"",""trial"",""time""
""fullscreenenter"",""5"",""14653""
","
","
","""event"",""trial"",""time""
""fullscreenenter"",""5"",""14653""
","
",382.67000000632834,NA,48,NA,NA,3000,1,NA,NA,images/tutgreenplanet.jpg,images/tutalien1,images/tutalien2,null,images/tutalien1,NA,NA,practice,null,NA,NA,NA,NA,sub31
d3-instructions,15,96858,0.0-15.0,TRUE,FALSE,TRUE,FALSE,"""event"",""trial"",""time""
""fullscreenenter"",""5"",""14653""
","
","
","""event"",""trial"",""time""
""fullscreenenter"",""5"",""14653""
","
",NA,NA,NA,NA,NA,NA,NA,NA,NA,NA,NA,NA,NA,NA,NA,NA,NA,NA,NA,NA,NA,NA,sub31
d3-instructions,16,104264,0.0-16.0,TRUE,FALSE,TRUE,FALSE,"""event"",""trial"",""time""
""fullscreenenter"",""5"",""14653""
","
","
","""event"",""trial"",""time""
""fullscreenenter"",""5"",""14653""
","
",NA,NA,NA,NA,NA,NA,NA,NA,NA,NA,NA,NA,NA,NA,NA,NA,NA,NA,NA,NA,NA,NA,sub31
d3-instructions,17,113219,0.0-17.0,TRUE,FALSE,TRUE,FALSE,"""event"",""trial"",""time""
""fullscreenenter"",""5"",""14653""
","
","
","""event"",""trial"",""time""
""fullscreenenter"",""5"",""14653""
","
",NA,NA,NA,NA,NA,NA,NA,NA,NA,NA,NA,NA,NA,NA,NA,NA,NA,NA,NA,NA,NA,NA,sub31
d3-instructions,18,127297,0.0-18.0,TRUE,FALSE,TRUE,FALSE,"""event"",""trial"",""time""
""fullscreenenter"",""5"",""14653""
","
","
","""event"",""trial"",""time""
""fullscreenenter"",""5"",""14653""
","
",NA,NA,NA,NA,NA,NA,NA,NA,NA,NA,NA,NA,NA,NA,NA,NA,NA,NA,NA,NA,NA,NA,sub31
d3-instructions,19,141532,0.0-19.0,TRUE,FALSE,TRUE,FALSE,"""event"",""trial"",""time""
""fullscreenenter"",""5"",""14653""
","
","
","""event"",""trial"",""time""
""fullscreenenter"",""5"",""14653""
","
",NA,NA,NA,NA,NA,NA,NA,NA,NA,NA,NA,NA,NA,NA,NA,NA,NA,NA,NA,NA,NA,NA,sub31
d3-animate-choice,20,145025,0.0-20.0,TRUE,FALSE,TRUE,FALSE,"""event"",""trial"",""time""
""fullscreenenter"",""5"",""14653""
","
","
","""event"",""trial"",""time""
""fullscreenenter"",""5"",""14653""
","
",1483.5650000022724,NA,49,NA,NA,3000,1,1948.050000006333,49,images/tutyellowplanet.jpg,null,images/tutalien3,null,images/tutalien3,images/t.png,NA,practice,null,NA,NA,NA,NA,sub31
d3-animate-choice,21,147907,0.0-21.0,TRUE,FALSE,TRUE,FALSE,"""event"",""trial"",""time""
""fullscreenenter"",""5"",""14653""
","
","
","""event"",""trial"",""time""
""fullscreenenter"",""5"",""14653""
","
",876.9450000108918,NA,49,NA,NA,3000,1,NA,NA,images/tutyellowplanet.jpg,null,images/tutalien3,null,images/tutalien3,images/t.png,NA,practice,null,NA,NA,NA,NA,sub31
d3-animate-choice,22,150222,0.0-22.0,TRUE,FALSE,TRUE,FALSE,"""event"",""trial"",""time""
""fullscreenenter"",""5"",""14653""
","
","
","""event"",""trial"",""time""
""fullscreenenter"",""5"",""14653""
","
",309.76999999256805,NA,49,NA,NA,3000,1,NA,NA,images/tutyellowplanet.jpg,null,images/tutalien3,null,images/tutalien3,images/t.png,NA,practice,null,NA,NA,NA,NA,sub31
d3-animate-choice,23,152507,0.0-23.0,TRUE,FALSE,TRUE,FALSE,"""event"",""trial"",""time""
""fullscreenenter"",""5"",""14653""
","
","
","""event"",""trial"",""time""
""fullscreenenter"",""5"",""14653""
","
",281.2350000021979,NA,49,NA,NA,3000,1,NA,NA,images/tutyellowplanet.jpg,null,images/tutalien3,null,images/tutalien3,images/nothing.png,NA,practice,null,NA,NA,NA,NA,sub31
d3-animate-choice,24,154989,0.0-24.0,TRUE,FALSE,TRUE,FALSE,"""event"",""trial"",""time""
""fullscreenenter"",""5"",""14653""
","
","
","""event"",""trial"",""time""
""fullscreenenter"",""5"",""14653""
","
",477.08500000589993,NA,49,NA,NA,3000,1,NA,NA,images/tutyellowplanet.jpg,null,images/tutalien3,null,images/tutalien3,images/nothing.png,NA,practice,null,NA,NA,NA,NA,sub31
d3-animate-choice,25,157354,0.0-25.0,TRUE,FALSE,TRUE,FALSE,"""event"",""trial"",""time""
""fullscreenenter"",""5"",""14653""
","
","
","""event"",""trial"",""time""
""fullscreenenter"",""5"",""14653""
","
",360.4600000107894,NA,49,NA,NA,3000,1,NA,NA,images/tutyellowplanet.jpg,null,images/tutalien3,null,images/tutalien3,images/t.png,NA,practice,null,NA,NA,NA,NA,sub31
d3-animate-choice,26,159677,0.0-26.0,TRUE,FALSE,TRUE,FALSE,"""event"",""trial"",""time""
""fullscreenenter"",""5"",""14653""
","
","
","""event"",""trial"",""time""
""fullscreenenter"",""5"",""14653""
","
",311.809999999241,NA,49,NA,NA,3000,1,NA,NA,images/tutyellowplanet.jpg,null,images/tutalien3,null,images/tutalien3,images/t.png,NA,practice,null,NA,NA,NA,NA,sub31
d3-animate-choice,27,162010,0.0-27.0,TRUE,FALSE,TRUE,FALSE,"""event"",""trial"",""time""
""fullscreenenter"",""5"",""14653""
","
","
","""event"",""trial"",""time""
""fullscreenenter"",""5"",""14653""
","
",329.00500000687316,NA,49,NA,NA,3000,1,NA,NA,images/tutyellowplanet.jpg,null,images/tutalien3,null,images/tutalien3,images/t.png,NA,practice,null,NA,NA,NA,NA,sub31
d3-animate-choice,28,164020,0.0-28.0,TRUE,FALSE,TRUE,FALSE,"""event"",""trial"",""time""
""fullscreenenter"",""5"",""14653""
","
","
","""event"",""trial"",""time""
""fullscreenenter"",""5"",""14653""
","
",6.594999998924322,NA,49,NA,NA,3000,1,NA,NA,images/tutyellowplanet.jpg,null,images/tutalien3,null,images/tutalien3,images/nothing.png,NA,practice,null,NA,NA,NA,NA,sub31
d3-animate-choice,29,166447,0.0-29.0,TRUE,FALSE,TRUE,FALSE,"""event"",""trial"",""time""
""fullscreenenter"",""5"",""14653""
","
","
","""event"",""trial"",""time""
""fullscreenenter"",""5"",""14653""
","
",422.79499999131076,NA,49,NA,NA,3000,1,NA,NA,images/tutyellowplanet.jpg,null,images/tutalien3,null,images/tutalien3,images/nothing.png,NA,practice,null,NA,NA,NA,NA,sub31
d3-instructions,30,173283,0.0-30.0,TRUE,FALSE,TRUE,FALSE,"""event"",""trial"",""time""
""fullscreenenter"",""5"",""14653""
","
","
","""event"",""trial"",""time""
""fullscreenenter"",""5"",""14653""
","
",NA,NA,NA,NA,NA,NA,NA,NA,NA,NA,NA,NA,NA,NA,NA,NA,NA,NA,NA,NA,NA,NA,sub31
d3-instructions,31,183603,0.0-31.0,TRUE,FALSE,TRUE,FALSE,"""event"",""trial"",""time""
""fullscreenenter"",""5"",""14653""
","
","
","""event"",""trial"",""time""
""fullscreenenter"",""5"",""14653""
","
",NA,NA,NA,NA,NA,NA,NA,NA,NA,NA,NA,NA,NA,NA,NA,NA,NA,NA,NA,NA,NA,NA,sub31
d3-instructions,32,191807,0.0-32.0,TRUE,FALSE,TRUE,FALSE,"""event"",""trial"",""time""
""fullscreenenter"",""5"",""14653""
","
","
","""event"",""trial"",""time""
""fullscreenenter"",""5"",""14653""
","
",NA,NA,NA,NA,NA,NA,NA,NA,NA,NA,NA,NA,NA,NA,NA,NA,NA,NA,NA,NA,NA,NA,sub31
d3-instructions,33,202974,0.0-33.0,TRUE,FALSE,TRUE,FALSE,"""event"",""trial"",""time""
""fullscreenenter"",""5"",""14653""
","
","
","""event"",""trial"",""time""
""fullscreenenter"",""5"",""14653""
","
",NA,NA,NA,NA,NA,NA,NA,NA,NA,NA,NA,NA,NA,NA,NA,NA,NA,NA,NA,NA,NA,NA,sub31
d3-animate-choice,34,207792,0.0-34.0,TRUE,FALSE,TRUE,FALSE,"""event"",""trial"",""time""
""fullscreenenter"",""5"",""14653""
","
","
","""event"",""trial"",""time""
""fullscreenenter"",""5"",""14653""
","
",2810.939999995753,NA,48,NA,NA,3000,1,NA,NA,images/tutgreenplanet.jpg,images/tutalien1,images/tutalien2,null,images/tutalien1,images/nothing.png,NA,practice,null,NA,NA,NA,NA,sub31
d3-animate-choice,35,210962,0.0-35.0,TRUE,FALSE,TRUE,FALSE,"""event"",""trial"",""time""
""fullscreenenter"",""5"",""14653""
","
","
","""event"",""trial"",""time""
""fullscreenenter"",""5"",""14653""
","
",1163.6249999864958,NA,49,NA,NA,3000,1,NA,NA,images/tutgreenplanet.jpg,images/tutalien1,images/tutalien2,null,images/tutalien2,images/t.png,NA,practice,null,NA,NA,NA,NA,sub31
d3-animate-choice,36,214238,0.0-36.0,TRUE,FALSE,TRUE,FALSE,"""event"",""trial"",""time""
""fullscreenenter"",""5"",""14653""
","
","
","""event"",""trial"",""time""
""fullscreenenter"",""5"",""14653""
","
",1271.5150000003632,NA,49,NA,NA,3000,1,NA,NA,images/tutgreenplanet.jpg,images/tutalien1,images/tutalien2,null,images/tutalien2,images/t.png,NA,practice,null,NA,NA,NA,NA,sub31
d3-animate-choice,37,216706,0.0-37.0,TRUE,FALSE,TRUE,FALSE,"""event"",""trial"",""time""
""fullscreenenter"",""5"",""14653""
","
","
","""event"",""trial"",""time""
""fullscreenenter"",""5"",""14653""
","
",463.26000000408385,NA,48,NA,NA,3000,1,NA,NA,images/tutgreenplanet.jpg,images/tutalien1,images/tutalien2,null,images/tutalien1,images/nothing.png,NA,practice,null,NA,NA,NA,NA,sub31
d3-animate-choice,38,219054,0.0-38.0,TRUE,FALSE,TRUE,FALSE,"""event"",""trial"",""time""
""fullscreenenter"",""5"",""14653""
","
","
","""event"",""trial"",""time""
""fullscreenenter"",""5"",""14653""
","
",342.11499999219086,NA,49,NA,NA,3000,1,NA,NA,images/tutgreenplanet.jpg,images/tutalien1,images/tutalien2,null,images/tutalien2,images/t.png,NA,practice,null,NA,NA,NA,NA,sub31
d3-animate-choice,39,221402,0.0-39.0,TRUE,FALSE,TRUE,FALSE,"""event"",""trial"",""time""
""fullscreenenter"",""5"",""14653""
","
","
","""event"",""trial"",""time""
""fullscreenenter"",""5"",""14653""
","
",338.9699999970617,NA,49,NA,NA,3000,1,NA,NA,images/tutgreenplanet.jpg,images/tutalien1,images/tutalien2,null,images/tutalien2,images/t.png,NA,practice,null,NA,NA,NA,NA,sub31
d3-animate-choice,40,223711,0.0-40.0,TRUE,FALSE,TRUE,FALSE,"""event"",""trial"",""time""
""fullscreenenter"",""5"",""14653""
","
","
","""event"",""trial"",""time""
""fullscreenenter"",""5"",""14653""
","
",302.4299999960931,NA,48,NA,NA,3000,1,NA,NA,images/tutgreenplanet.jpg,images/tutalien1,images/tutalien2,null,images/tutalien1,images/t.png,NA,practice,null,NA,NA,NA,NA,sub31
d3-animate-choice,41,226045,0.0-41.0,TRUE,FALSE,TRUE,FALSE,"""event"",""trial"",""time""
""fullscreenenter"",""5"",""14653""
","
","
","""event"",""trial"",""time""
""fullscreenenter"",""5"",""14653""
","
",329.66999999189284,NA,48,NA,NA,3000,1,NA,NA,images/tutgreenplanet.jpg,images/tutalien1,images/tutalien2,null,images/tutalien1,images/nothing.png,NA,practice,null,NA,NA,NA,NA,sub31
d3-animate-choice,42,228314,0.0-42.0,TRUE,FALSE,TRUE,FALSE,"""event"",""trial"",""time""
""fullscreenenter"",""5"",""14653""
","
","
","""event"",""trial"",""time""
""fullscreenenter"",""5"",""14653""
","
",264.83500000904314,NA,49,NA,NA,3000,1,NA,NA,images/tutgreenplanet.jpg,images/tutalien1,images/tutalien2,null,images/tutalien2,images/t.png,NA,practice,null,NA,NA,NA,NA,sub31
d3-animate-choice,43,230497,0.0-43.0,TRUE,FALSE,TRUE,FALSE,"""event"",""trial"",""time""
""fullscreenenter"",""5"",""14653""
","
","
","""event"",""trial"",""time""
""fullscreenenter"",""5"",""14653""
","
",177.29000000690576,NA,49,NA,NA,3000,1,NA,NA,images/tutgreenplanet.jpg,images/tutalien1,images/tutalien2,null,images/tutalien2,images/t.png,NA,practice,null,NA,NA,NA,NA,sub31
d3-instructions,44,244649,0.0-44.0,TRUE,FALSE,TRUE,FALSE,"""event"",""trial"",""time""
""fullscreenenter"",""5"",""14653""
","
","
","""event"",""trial"",""time""
""fullscreenenter"",""5"",""14653""
","
",NA,NA,NA,NA,NA,NA,NA,NA,NA,NA,NA,NA,NA,NA,NA,NA,NA,NA,NA,NA,NA,NA,sub31
d3-instructions,45,251633,0.0-45.0,TRUE,FALSE,TRUE,FALSE,"""event"",""trial"",""time""
""fullscreenenter"",""5"",""14653""
","
","
","""event"",""trial"",""time""
""fullscreenenter"",""5"",""14653""
","
",NA,NA,NA,NA,NA,NA,NA,NA,NA,NA,NA,NA,NA,NA,NA,NA,NA,NA,NA,NA,NA,NA,sub31
d3-instructions,46,256940,0.0-46.0,TRUE,FALSE,TRUE,FALSE,"""event"",""trial"",""time""
""fullscreenenter"",""5"",""14653""
","
","
","""event"",""trial"",""time""
""fullscreenenter"",""5"",""14653""
","
",NA,NA,NA,NA,NA,NA,NA,NA,NA,NA,NA,NA,NA,NA,NA,NA,NA,NA,NA,NA,NA,NA,sub31
d3-instructions,47,274260,0.0-47.0,TRUE,FALSE,TRUE,FALSE,"""event"",""trial"",""time""
""fullscreenenter"",""5"",""14653""
","
","
","""event"",""trial"",""time""
""fullscreenenter"",""5"",""14653""
","
",NA,NA,NA,NA,NA,NA,NA,NA,NA,NA,NA,NA,NA,NA,NA,NA,NA,NA,NA,NA,NA,NA,sub31
d3-instructions,48,281340,0.0-48.0,TRUE,FALSE,TRUE,FALSE,"""event"",""trial"",""time""
""fullscreenenter"",""5"",""14653""
","
","
","""event"",""trial"",""time""
""fullscreenenter"",""5"",""14653""
","
",NA,NA,NA,NA,NA,NA,NA,NA,NA,NA,NA,NA,NA,NA,NA,NA,NA,NA,NA,NA,NA,NA,sub31
d3-instructions,49,293252,0.0-49.0,TRUE,FALSE,TRUE,FALSE,"""event"",""trial"",""time""
""fullscreenenter"",""5"",""14653""
","
","
","""event"",""trial"",""time""
""fullscreenenter"",""5"",""14653""
","
",NA,NA,NA,NA,NA,NA,NA,NA,NA,NA,NA,NA,NA,NA,NA,NA,NA,NA,NA,NA,NA,NA,sub31
d3-instructions,50,313295,0.0-50.0,TRUE,FALSE,TRUE,FALSE,"""event"",""trial"",""time""
""fullscreenenter"",""5"",""14653""
","
","
","""event"",""trial"",""time""
""fullscreenenter"",""5"",""14653""
","
",NA,NA,NA,NA,NA,NA,NA,NA,NA,NA,NA,NA,NA,NA,NA,NA,NA,NA,NA,NA,NA,NA,sub31
d3-instructions,51,316704,0.0-51.0,TRUE,FALSE,TRUE,FALSE,"""event"",""trial"",""time""
""fullscreenenter"",""5"",""14653""
","
","
","""event"",""trial"",""time""
""fullscreenenter"",""5"",""14653""
","
",NA,NA,NA,NA,NA,NA,NA,NA,NA,NA,NA,NA,NA,NA,NA,NA,NA,NA,NA,NA,NA,NA,sub31
d3-instructions,52,319855,0.0-52.0,TRUE,FALSE,TRUE,FALSE,"""event"",""trial"",""time""
""fullscreenenter"",""5"",""14653""
","
","
","""event"",""trial"",""time""
""fullscreenenter"",""5"",""14653""
","
",NA,NA,NA,NA,NA,NA,NA,NA,NA,NA,NA,NA,NA,NA,NA,NA,NA,NA,NA,NA,NA,NA,sub31
d3-instructions,53,332619,0.0-53.0,TRUE,FALSE,TRUE,FALSE,"""event"",""trial"",""time""
""fullscreenenter"",""5"",""14653""
","
","
","""event"",""trial"",""time""
""fullscreenenter"",""5"",""14653""
","
",NA,NA,NA,NA,NA,NA,NA,NA,NA,NA,NA,NA,NA,NA,NA,NA,NA,NA,NA,NA,NA,NA,sub31
d3-instructions,54,345702,0.0-54.0,TRUE,FALSE,TRUE,FALSE,"""event"",""trial"",""time""
""fullscreenenter"",""5"",""14653""
","
","
","""event"",""trial"",""time""
""fullscreenenter"",""5"",""14653""
","
",NA,NA,NA,NA,NA,NA,NA,NA,NA,NA,NA,NA,NA,NA,NA,NA,NA,NA,NA,NA,NA,NA,sub31
d3-instructions,55,356072,0.0-55.0,TRUE,FALSE,TRUE,FALSE,"""event"",""trial"",""time""
""fullscreenenter"",""5"",""14653""
","
","
","""event"",""trial"",""time""
""fullscreenenter"",""5"",""14653""
","
",NA,NA,NA,NA,NA,NA,NA,NA,NA,NA,NA,NA,NA,NA,NA,NA,NA,NA,NA,NA,NA,NA,sub31
d3-instructions,56,365271,0.0-56.0,TRUE,FALSE,TRUE,FALSE,"""event"",""trial"",""time""
""fullscreenenter"",""5"",""14653""
","
","
","""event"",""trial"",""time""
""fullscreenenter"",""5"",""14653""
","
",NA,NA,NA,NA,NA,NA,NA,NA,NA,NA,NA,NA,NA,NA,NA,NA,NA,NA,NA,NA,NA,NA,sub31
d3-instructions,57,376019,0.0-57.0,TRUE,FALSE,TRUE,FALSE,"""event"",""trial"",""time""
""fullscreenenter"",""5"",""14653""
","
","
","""event"",""trial"",""time""
""fullscreenenter"",""5"",""14653""
","
",NA,NA,NA,NA,NA,NA,NA,NA,NA,NA,NA,NA,NA,NA,NA,NA,NA,NA,NA,NA,NA,NA,sub31
d3-instructions,58,387144,0.0-58.0,TRUE,FALSE,TRUE,FALSE,"""event"",""trial"",""time""
""fullscreenenter"",""5"",""14653""
","
","
","""event"",""trial"",""time""
""fullscreenenter"",""5"",""14653""
","
",NA,NA,NA,NA,NA,NA,NA,NA,NA,NA,NA,NA,NA,NA,NA,NA,NA,NA,NA,NA,NA,NA,sub31
d3-instructions,59,395731,0.0-59.0,TRUE,FALSE,TRUE,FALSE,"""event"",""trial"",""time""
""fullscreenenter"",""5"",""14653""
","
","
","""event"",""trial"",""time""
""fullscreenenter"",""5"",""14653""
","
",NA,NA,NA,NA,NA,NA,NA,NA,NA,NA,NA,NA,NA,NA,NA,NA,NA,NA,NA,NA,NA,NA,sub31
d3-instructions,60,402428,0.0-60.0,TRUE,FALSE,TRUE,FALSE,"""event"",""trial"",""time""
""fullscreenenter"",""5"",""14653""
","
","
","""event"",""trial"",""time""
""fullscreenenter"",""5"",""14653""
","
",NA,NA,NA,NA,NA,NA,NA,NA,NA,NA,NA,NA,NA,NA,NA,NA,NA,NA,NA,NA,NA,NA,sub31
d3-animate-choice,61,405730,0.0-61.0-0.0,TRUE,FALSE,TRUE,FALSE,"""event"",""trial"",""time""
""fullscreenenter"",""5"",""14653""
","
","
","""event"",""trial"",""time""
""fullscreenenter"",""5"",""14653""
","
",1290.3300000034506,NA,48,NA,NA,3000,1,NA,NA,images/earth.jpg,images/tutrocket2,images/tutrocket1,null,images/tutrocket2,NA,1,practice,null,2,NA,NA,NA,sub31
d3-animate-choice,62,408763,0.0-61.0-1.0,TRUE,FALSE,TRUE,FALSE,"""event"",""trial"",""time""
""fullscreenenter"",""5"",""14653""
","
","
","""event"",""trial"",""time""
""fullscreenenter"",""5"",""14653""
","
",1020.6649999890942,NA,49,NA,NA,3000,1,NA,NA,images/tutgreenplanet.jpg,images/tutalien2,images/tutalien1,images/tutrocket2,images/tutalien1,images/t.png,2,practice,true,1,common,1,2020-06-09T19:58:34Z,sub31
two-step-fixation,63,409768,0.0-61.0-2.0,TRUE,FALSE,TRUE,FALSE,"""event"",""trial"",""time""
""fullscreenenter"",""5"",""14653""
","
","
","""event"",""trial"",""time""
""fullscreenenter"",""5"",""14653""
","
",NA,images/earth.jpg,NA,NA,NA,NA,NA,NA,NA,NA,NA,NA,NA,NA,NA,fixation,NA,NA,NA,NA,NA,NA,sub31
d3-animate-choice,64,412353,0.0-61.0-0.1,TRUE,FALSE,TRUE,FALSE,"""event"",""trial"",""time""
""fullscreenenter"",""5"",""14653""
","
","
","""event"",""trial"",""time""
""fullscreenenter"",""5"",""14653""
","
",580.1400000054855,NA,48,NA,NA,3000,1,NA,NA,images/earth.jpg,images/tutrocket2,images/tutrocket1,null,images/tutrocket2,NA,1,practice,null,2,NA,NA,NA,sub31
d3-animate-choice,65,414990,0.0-61.0-1.1,TRUE,FALSE,TRUE,FALSE,"""event"",""trial"",""time""
""fullscreenenter"",""5"",""14653""
","
","
","""event"",""trial"",""time""
""fullscreenenter"",""5"",""14653""
","
",630.9650000039255,NA,48,NA,NA,3000,1,NA,NA,images/tutgreenplanet.jpg,images/tutalien2,images/tutalien1,images/tutrocket2,images/tutalien2,images/nothing.png,2,practice,true,2,common,0,2020-06-09T19:58:41Z,sub31
two-step-fixation,66,415993,0.0-61.0-2.1,TRUE,FALSE,TRUE,FALSE,"""event"",""trial"",""time""
""fullscreenenter"",""5"",""14653""
","
","
","""event"",""trial"",""time""
""fullscreenenter"",""5"",""14653""
","
",NA,images/earth.jpg,NA,NA,NA,NA,NA,NA,NA,NA,NA,NA,NA,NA,NA,fixation,NA,NA,NA,NA,NA,NA,sub31
d3-animate-choice,67,418255,0.0-61.0-0.2,TRUE,FALSE,TRUE,FALSE,"""event"",""trial"",""time""
""fullscreenenter"",""5"",""14653""
","
","
","""event"",""trial"",""time""
""fullscreenenter"",""5"",""14653""
","
",254.78500001190696,NA,49,NA,NA,3000,1,NA,NA,images/earth.jpg,images/tutrocket2,images/tutrocket1,null,images/tutrocket1,NA,1,practice,null,1,NA,NA,NA,sub31
d3-animate-choice,68,421248,0.0-61.0-1.2,TRUE,FALSE,TRUE,FALSE,"""event"",""trial"",""time""
""fullscreenenter"",""5"",""14653""
","
","
","""event"",""trial"",""time""
""fullscreenenter"",""5"",""14653""
","
",985.9600000054343,NA,49,NA,NA,3000,1,NA,NA,images/tutyellowplanet.jpg,images/tutalien4,images/tutalien3,images/tutrocket1,images/tutalien3,images/nothing.png,2,practice,true,1,common,0,2020-06-09T19:58:47Z,sub31
two-step-fixation,69,422251,0.0-61.0-2.2,TRUE,FALSE,TRUE,FALSE,"""event"",""trial"",""time""
""fullscreenenter"",""5"",""14653""
","
","
","""event"",""trial"",""time""
""fullscreenenter"",""5"",""14653""
","
",NA,images/earth.jpg,NA,NA,NA,NA,NA,NA,NA,NA,NA,NA,NA,NA,NA,fixation,NA,NA,NA,NA,NA,NA,sub31
d3-animate-choice,70,424904,0.0-61.0-0.3,TRUE,FALSE,TRUE,FALSE,"""event"",""trial"",""time""
""fullscreenenter"",""5"",""14653""
","
","
","""event"",""trial"",""time""
""fullscreenenter"",""5"",""14653""
","
",647.1699999965494,NA,49,NA,NA,3000,1,NA,NA,images/earth.jpg,images/tutrocket2,images/tutrocket1,null,images/tutrocket1,NA,1,practice,null,1,NA,NA,NA,sub31
d3-animate-choice,71,427271,0.0-61.0-1.3,TRUE,FALSE,TRUE,FALSE,"""event"",""trial"",""time""
""fullscreenenter"",""5"",""14653""
","
","
","""event"",""trial"",""time""
""fullscreenenter"",""5"",""14653""
","
",359.77500000444707,NA,48,NA,NA,3000,1,NA,NA,images/tutgreenplanet.jpg,images/tutalien2,images/tutalien1,images/tutrocket1,images/tutalien2,images/t.png,2,practice,false,2,rare,1,2020-06-09T19:58:53Z,sub31
two-step-fixation,72,428274,0.0-61.0-2.3,TRUE,FALSE,TRUE,FALSE,"""event"",""trial"",""time""
""fullscreenenter"",""5"",""14653""
","
","
","""event"",""trial"",""time""
""fullscreenenter"",""5"",""14653""
","
",NA,images/earth.jpg,NA,NA,NA,NA,NA,NA,NA,NA,NA,NA,NA,NA,NA,fixation,NA,NA,NA,NA,NA,NA,sub31
d3-animate-choice,73,430933,0.0-61.0-0.4,TRUE,FALSE,TRUE,FALSE,"""event"",""trial"",""time""
""fullscreenenter"",""5"",""14653""
","
","
","""event"",""trial"",""time""
""fullscreenenter"",""5"",""14653""
","
",653.295000010985,NA,48,NA,NA,3000,1,NA,NA,images/earth.jpg,images/tutrocket2,images/tutrocket1,null,images/tutrocket2,NA,1,practice,null,2,NA,NA,NA,sub31
d3-animate-choice,74,433394,0.0-61.0-1.4,TRUE,FALSE,TRUE,FALSE,"""event"",""trial"",""time""
""fullscreenenter"",""5"",""14653""
","
","
","""event"",""trial"",""time""
""fullscreenenter"",""5"",""14653""
","
",453.4600000042701,NA,49,NA,NA,3000,1,NA,NA,images/tutyellowplanet.jpg,images/tutalien4,images/tutalien3,images/tutrocket2,images/tutalien3,images/nothing.png,2,practice,false,1,rare,0,2020-06-09T19:58:59Z,sub31
two-step-fixation,75,434397,0.0-61.0-2.4,TRUE,FALSE,TRUE,FALSE,"""event"",""trial"",""time""
""fullscreenenter"",""5"",""14653""
","
","
","""event"",""trial"",""time""
""fullscreenenter"",""5"",""14653""
","
",NA,images/earth.jpg,NA,NA,NA,NA,NA,NA,NA,NA,NA,NA,NA,NA,NA,fixation,NA,NA,NA,NA,NA,NA,sub31
d3-animate-choice,76,436910,0.0-61.0-0.5,TRUE,FALSE,TRUE,FALSE,"""event"",""trial"",""time""
""fullscreenenter"",""5"",""14653""
","
","
","""event"",""trial"",""time""
""fullscreenenter"",""5"",""14653""
","
",506.91500000539236,NA,48,NA,NA,3000,1,NA,NA,images/earth.jpg,images/tutrocket2,images/tutrocket1,null,images/tutrocket2,NA,1,practice,null,2,NA,NA,NA,sub31
d3-animate-choice,77,439282,0.0-61.0-1.5,TRUE,FALSE,TRUE,FALSE,"""event"",""trial"",""time""
""fullscreenenter"",""5"",""14653""
","
","
","""event"",""trial"",""time""
""fullscreenenter"",""5"",""14653""
","
",366.8550000002142,NA,48,NA,NA,3000,1,NA,NA,images/tutgreenplanet.jpg,images/tutalien2,images/tutalien1,images/tutrocket2,images/tutalien2,images/t.png,2,practice,true,2,common,1,2020-06-09T19:59:05Z,sub31
two-step-fixation,78,440285,0.0-61.0-2.5,TRUE,FALSE,TRUE,FALSE,"""event"",""trial"",""time""
""fullscreenenter"",""5"",""14653""
","
","
","""event"",""trial"",""time""
""fullscreenenter"",""5"",""14653""
","
",NA,images/earth.jpg,NA,NA,NA,NA,NA,NA,NA,NA,NA,NA,NA,NA,NA,fixation,NA,NA,NA,NA,NA,NA,sub31
d3-animate-choice,79,442836,0.0-61.0-0.6,TRUE,FALSE,TRUE,FALSE,"""event"",""trial"",""time""
""fullscreenenter"",""5"",""14653""
","
","
","""event"",""trial"",""time""
""fullscreenenter"",""5"",""14653""
","
",545.0299999938579,NA,49,NA,NA,3000,1,NA,NA,images/earth.jpg,images/tutrocket2,images/tutrocket1,null,images/tutrocket1,NA,1,practice,null,1,NA,NA,NA,sub31
d3-animate-choice,80,445939,0.0-61.0-1.6,TRUE,FALSE,TRUE,FALSE,"""event"",""trial"",""time""
""fullscreenenter"",""5"",""14653""
","
","
","""event"",""trial"",""time""
""fullscreenenter"",""5"",""14653""
","
",1098.0100000015227,NA,48,NA,NA,3000,1,NA,NA,images/tutyellowplanet.jpg,images/tutalien4,images/tutalien3,images/tutrocket1,images/tutalien4,images/t.png,2,practice,true,2,common,1,2020-06-09T19:59:12Z,sub31
two-step-fixation,81,446942,0.0-61.0-2.6,TRUE,FALSE,TRUE,FALSE,"""event"",""trial"",""time""
""fullscreenenter"",""5"",""14653""
","
","
","""event"",""trial"",""time""
""fullscreenenter"",""5"",""14653""
","
",NA,images/earth.jpg,NA,NA,NA,NA,NA,NA,NA,NA,NA,NA,NA,NA,NA,fixation,NA,NA,NA,NA,NA,NA,sub31
d3-animate-choice,82,449360,0.0-61.0-0.7,TRUE,FALSE,TRUE,FALSE,"""event"",""trial"",""time""
""fullscreenenter"",""5"",""14653""
","
","
","""event"",""trial"",""time""
""fullscreenenter"",""5"",""14653""
","
",412.0450000045821,NA,49,NA,NA,3000,1,NA,NA,images/earth.jpg,images/tutrocket2,images/tutrocket1,null,images/tutrocket1,NA,1,practice,null,1,NA,NA,NA,sub31
d3-animate-choice,83,451679,0.0-61.0-1.7,TRUE,FALSE,TRUE,FALSE,"""event"",""trial"",""time""
""fullscreenenter"",""5"",""14653""
","
","
","""event"",""trial"",""time""
""fullscreenenter"",""5"",""14653""
","
",314.26500000816304,NA,48,NA,NA,3000,1,NA,NA,images/tutyellowplanet.jpg,images/tutalien4,images/tutalien3,images/tutrocket1,images/tutalien4,images/t.png,2,practice,true,2,common,1,2020-06-09T19:59:17Z,sub31
two-step-fixation,84,452681,0.0-61.0-2.7,TRUE,FALSE,TRUE,FALSE,"""event"",""trial"",""time""
""fullscreenenter"",""5"",""14653""
","
","
","""event"",""trial"",""time""
""fullscreenenter"",""5"",""14653""
","
",NA,images/earth.jpg,NA,NA,NA,NA,NA,NA,NA,NA,NA,NA,NA,NA,NA,fixation,NA,NA,NA,NA,NA,NA,sub31
d3-animate-choice,85,455101,0.0-61.0-0.8,TRUE,FALSE,TRUE,FALSE,"""event"",""trial"",""time""
""fullscreenenter"",""5"",""14653""
","
","
","""event"",""trial"",""time""
""fullscreenenter"",""5"",""14653""
","
",412.17999999935273,NA,48,NA,NA,3000,1,NA,NA,images/earth.jpg,images/tutrocket2,images/tutrocket1,null,images/tutrocket2,NA,1,practice,null,2,NA,NA,NA,sub31
d3-animate-choice,86,457414,0.0-61.0-1.8,TRUE,FALSE,TRUE,FALSE,"""event"",""trial"",""time""
""fullscreenenter"",""5"",""14653""
","
","
","""event"",""trial"",""time""
""fullscreenenter"",""5"",""14653""
","
",305.5800000001909,NA,49,NA,NA,3000,1,NA,NA,images/tutyellowplanet.jpg,images/tutalien4,images/tutalien3,images/tutrocket2,images/tutalien3,images/nothing.png,2,practice,false,1,rare,0,2020-06-09T19:59:23Z,sub31
two-step-fixation,87,458417,0.0-61.0-2.8,TRUE,FALSE,TRUE,FALSE,"""event"",""trial"",""time""
""fullscreenenter"",""5"",""14653""
","
","
","""event"",""trial"",""time""
""fullscreenenter"",""5"",""14653""
","
",NA,images/earth.jpg,NA,NA,NA,NA,NA,NA,NA,NA,NA,NA,NA,NA,NA,fixation,NA,NA,NA,NA,NA,NA,sub31
d3-animate-choice,88,460858,0.0-61.0-0.9,TRUE,FALSE,TRUE,FALSE,"""event"",""trial"",""time""
""fullscreenenter"",""5"",""14653""
","
","
","""event"",""trial"",""time""
""fullscreenenter"",""5"",""14653""
","
",434.69000000914093,NA,48,NA,NA,3000,1,NA,NA,images/earth.jpg,images/tutrocket2,images/tutrocket1,null,images/tutrocket2,NA,1,practice,null,2,NA,NA,NA,sub31
d3-animate-choice,89,463504,0.0-61.0-1.9,TRUE,FALSE,TRUE,FALSE,"""event"",""trial"",""time""
""fullscreenenter"",""5"",""14653""
","
","
","""event"",""trial"",""time""
""fullscreenenter"",""5"",""14653""
","
",640.1150000019697,NA,48,NA,NA,3000,1,NA,NA,images/tutgreenplanet.jpg,images/tutalien2,images/tutalien1,images/tutrocket2,images/tutalien2,images/nothing.png,2,practice,true,2,common,0,2020-06-09T19:59:29Z,sub31
two-step-fixation,90,464507,0.0-61.0-2.9,TRUE,FALSE,TRUE,FALSE,"""event"",""trial"",""time""
""fullscreenenter"",""5"",""14653""
","
","
","""event"",""trial"",""time""
""fullscreenenter"",""5"",""14653""
","
",NA,images/earth.jpg,NA,NA,NA,NA,NA,NA,NA,NA,NA,NA,NA,NA,NA,fixation,NA,NA,NA,NA,NA,NA,sub31
d3-animate-choice,91,466965,0.0-61.0-0.10,TRUE,FALSE,TRUE,FALSE,"""event"",""trial"",""time""
""fullscreenenter"",""5"",""14653""
","
","
","""event"",""trial"",""time""
""fullscreenenter"",""5"",""14653""
","
",451.96500000020023,NA,49,NA,NA,3000,1,NA,NA,images/earth.jpg,images/tutrocket2,images/tutrocket1,null,images/tutrocket1,NA,1,practice,null,1,NA,NA,NA,sub31
d3-animate-choice,92,469667,0.0-61.0-1.10,TRUE,FALSE,TRUE,FALSE,"""event"",""trial"",""time""
""fullscreenenter"",""5"",""14653""
","
","
","""event"",""trial"",""time""
""fullscreenenter"",""5"",""14653""
","
",696.524999992107,NA,48,NA,NA,3000,1,NA,NA,images/tutyellowplanet.jpg,images/tutalien4,images/tutalien3,images/tutrocket1,images/tutalien4,images/t.png,2,practice,true,2,common,1,2020-06-09T19:59:35Z,sub31
two-step-fixation,93,470668,0.0-61.0-2.10,TRUE,FALSE,TRUE,FALSE,"""event"",""trial"",""time""
""fullscreenenter"",""5"",""14653""
","
","
","""event"",""trial"",""time""
""fullscreenenter"",""5"",""14653""
","
",NA,images/earth.jpg,NA,NA,NA,NA,NA,NA,NA,NA,NA,NA,NA,NA,NA,fixation,NA,NA,NA,NA,NA,NA,sub31
d3-animate-choice,94,473024,0.0-61.0-0.11,TRUE,FALSE,TRUE,FALSE,"""event"",""trial"",""time""
""fullscreenenter"",""5"",""14653""
","
","
","""event"",""trial"",""time""
""fullscreenenter"",""5"",""14653""
","
",350.3599999967264,NA,48,NA,NA,3000,1,NA,NA,images/earth.jpg,images/tutrocket2,images/tutrocket1,null,images/tutrocket2,NA,1,practice,null,2,NA,NA,NA,sub31
d3-animate-choice,95,476153,0.0-61.0-1.11,TRUE,FALSE,TRUE,FALSE,"""event"",""trial"",""time""
""fullscreenenter"",""5"",""14653""
","
","
","""event"",""trial"",""time""
""fullscreenenter"",""5"",""14653""
","
",1124.4350000051782,NA,48,NA,NA,3000,1,NA,NA,images/tutyellowplanet.jpg,images/tutalien4,images/tutalien3,images/tutrocket2,images/tutalien4,images/nothing.png,2,practice,false,2,rare,0,2020-06-09T19:59:42Z,sub31
two-step-fixation,96,477156,0.0-61.0-2.11,TRUE,FALSE,TRUE,FALSE,"""event"",""trial"",""time""
""fullscreenenter"",""5"",""14653""
","
","
","""event"",""trial"",""time""
""fullscreenenter"",""5"",""14653""
","
",NA,images/earth.jpg,NA,NA,NA,NA,NA,NA,NA,NA,NA,NA,NA,NA,NA,fixation,NA,NA,NA,NA,NA,NA,sub31
d3-animate-choice,97,479624,0.0-61.0-0.12,TRUE,FALSE,TRUE,FALSE,"""event"",""trial"",""time""
""fullscreenenter"",""5"",""14653""
","
","
","""event"",""trial"",""time""
""fullscreenenter"",""5"",""14653""
","
",461.66999998968095,NA,48,NA,NA,3000,1,NA,NA,images/earth.jpg,images/tutrocket2,images/tutrocket1,null,images/tutrocket2,NA,1,practice,null,2,NA,NA,NA,sub31
d3-animate-choice,98,482554,0.0-61.0-1.12,TRUE,FALSE,TRUE,FALSE,"""event"",""trial"",""time""
""fullscreenenter"",""5"",""14653""
","
","
","""event"",""trial"",""time""
""fullscreenenter"",""5"",""14653""
","
",925.1800000056392,NA,48,NA,NA,3000,1,NA,NA,images/tutyellowplanet.jpg,images/tutalien4,images/tutalien3,images/tutrocket2,images/tutalien4,images/t.png,2,practice,false,2,rare,1,2020-06-09T19:59:48Z,sub31
two-step-fixation,99,483557,0.0-61.0-2.12,TRUE,FALSE,TRUE,FALSE,"""event"",""trial"",""time""
""fullscreenenter"",""5"",""14653""
","
","
","""event"",""trial"",""time""
""fullscreenenter"",""5"",""14653""
","
",NA,images/earth.jpg,NA,NA,NA,NA,NA,NA,NA,NA,NA,NA,NA,NA,NA,fixation,NA,NA,NA,NA,NA,NA,sub31
d3-animate-choice,100,486232,0.0-61.0-0.13,TRUE,FALSE,TRUE,FALSE,"""event"",""trial"",""time""
""fullscreenenter"",""5"",""14653""
","
","
","""event"",""trial"",""time""
""fullscreenenter"",""5"",""14653""
","
",667.5850000028731,NA,49,NA,NA,3000,1,NA,NA,images/earth.jpg,images/tutrocket2,images/tutrocket1,null,images/tutrocket1,NA,1,practice,null,1,NA,NA,NA,sub31
d3-animate-choice,101,489352,0.0-61.0-1.13,TRUE,FALSE,TRUE,FALSE,"""event"",""trial"",""time""
""fullscreenenter"",""5"",""14653""
","
","
","""event"",""trial"",""time""
""fullscreenenter"",""5"",""14653""
","
",1114.929999996093,NA,49,NA,NA,3000,1,NA,NA,images/tutyellowplanet.jpg,images/tutalien4,images/tutalien3,images/tutrocket1,images/tutalien3,images/nothing.png,2,practice,true,1,common,0,2020-06-09T19:59:55Z,sub31
two-step-fixation,102,490355,0.0-61.0-2.13,TRUE,FALSE,TRUE,FALSE,"""event"",""trial"",""time""
""fullscreenenter"",""5"",""14653""
","
","
","""event"",""trial"",""time""
""fullscreenenter"",""5"",""14653""
","
",NA,images/earth.jpg,NA,NA,NA,NA,NA,NA,NA,NA,NA,NA,NA,NA,NA,fixation,NA,NA,NA,NA,NA,NA,sub31
d3-animate-choice,103,492762,0.0-61.0-0.14,TRUE,FALSE,TRUE,FALSE,"""event"",""trial"",""time""
""fullscreenenter"",""5"",""14653""
","
","
","""event"",""trial"",""time""
""fullscreenenter"",""5"",""14653""
","
",401.7000000021653,NA,48,NA,NA,3000,1,NA,NA,images/earth.jpg,images/tutrocket2,images/tutrocket1,null,images/tutrocket2,NA,1,practice,null,2,NA,NA,NA,sub31
d3-animate-choice,104,495781,0.0-61.0-1.14,TRUE,FALSE,TRUE,FALSE,"""event"",""trial"",""time""
""fullscreenenter"",""5"",""14653""
","
","
","""event"",""trial"",""time""
""fullscreenenter"",""5"",""14653""
","
",1012.6300000119954,NA,48,NA,NA,3000,1,NA,NA,images/tutyellowplanet.jpg,images/tutalien4,images/tutalien3,images/tutrocket2,images/tutalien4,images/t.png,2,practice,false,2,rare,1,2020-06-09T20:00:01Z,sub31
two-step-fixation,105,496784,0.0-61.0-2.14,TRUE,FALSE,TRUE,FALSE,"""event"",""trial"",""time""
""fullscreenenter"",""5"",""14653""
","
","
","""event"",""trial"",""time""
""fullscreenenter"",""5"",""14653""
","
",NA,images/earth.jpg,NA,NA,NA,NA,NA,NA,NA,NA,NA,NA,NA,NA,NA,fixation,NA,NA,NA,NA,NA,NA,sub31
d3-animate-choice,106,499290,0.0-61.0-0.15,TRUE,FALSE,TRUE,FALSE,"""event"",""trial"",""time""
""fullscreenenter"",""5"",""14653""
","
","
","""event"",""trial"",""time""
""fullscreenenter"",""5"",""14653""
","
",498.089999993681,NA,49,NA,NA,3000,1,NA,NA,images/earth.jpg,images/tutrocket2,images/tutrocket1,null,images/tutrocket1,NA,1,practice,null,1,NA,NA,NA,sub31
d3-animate-choice,107,502215,0.0-61.0-1.15,TRUE,FALSE,TRUE,FALSE,"""event"",""trial"",""time""
""fullscreenenter"",""5"",""14653""
","
","
","""event"",""trial"",""time""
""fullscreenenter"",""5"",""14653""
","
",917.715000003227,NA,48,NA,NA,3000,1,NA,NA,images/tutyellowplanet.jpg,images/tutalien4,images/tutalien3,images/tutrocket1,images/tutalien4,images/t.png,2,practice,true,2,common,1,2020-06-09T20:00:08Z,sub31
two-step-fixation,108,503218,0.0-61.0-2.15,TRUE,FALSE,TRUE,FALSE,"""event"",""trial"",""time""
""fullscreenenter"",""5"",""14653""
","
","
","""event"",""trial"",""time""
""fullscreenenter"",""5"",""14653""
","
",NA,images/earth.jpg,NA,NA,NA,NA,NA,NA,NA,NA,NA,NA,NA,NA,NA,fixation,NA,NA,NA,NA,NA,NA,sub31
d3-animate-choice,109,505572,0.0-61.0-0.16,TRUE,FALSE,TRUE,FALSE,"""event"",""trial"",""time""
""fullscreenenter"",""5"",""14653""
","
","
","""event"",""trial"",""time""
""fullscreenenter"",""5"",""14653""
","
",347.01500000664964,NA,48,NA,NA,3000,1,NA,NA,images/earth.jpg,images/tutrocket2,images/tutrocket1,null,images/tutrocket2,NA,1,practice,null,2,NA,NA,NA,sub31
d3-animate-choice,110,508628,0.0-61.0-1.16,TRUE,FALSE,TRUE,FALSE,"""event"",""trial"",""time""
""fullscreenenter"",""5"",""14653""
","
","
","""event"",""trial"",""time""
""fullscreenenter"",""5"",""14653""
","
",1049.5049999881303,NA,49,NA,NA,3000,1,NA,NA,images/tutgreenplanet.jpg,images/tutalien2,images/tutalien1,images/tutrocket2,images/tutalien1,images/nothing.png,2,practice,true,1,common,0,2020-06-09T20:00:14Z,sub31
two-step-fixation,111,509630,0.0-61.0-2.16,TRUE,FALSE,TRUE,FALSE,"""event"",""trial"",""time""
""fullscreenenter"",""5"",""14653""
","
","
","""event"",""trial"",""time""
""fullscreenenter"",""5"",""14653""
","
",NA,images/earth.jpg,NA,NA,NA,NA,NA,NA,NA,NA,NA,NA,NA,NA,NA,fixation,NA,NA,NA,NA,NA,NA,sub31
d3-animate-choice,112,512153,0.0-61.0-0.17,TRUE,FALSE,TRUE,FALSE,"""event"",""trial"",""time""
""fullscreenenter"",""5"",""14653""
","
","
","""event"",""trial"",""time""
""fullscreenenter"",""5"",""14653""
","
",517.0500000094762,NA,48,NA,NA,3000,1,NA,NA,images/earth.jpg,images/tutrocket2,images/tutrocket1,null,images/tutrocket2,NA,1,practice,null,2,NA,NA,NA,sub31
d3-animate-choice,113,514756,0.0-61.0-1.17,TRUE,FALSE,TRUE,FALSE,"""event"",""trial"",""time""
""fullscreenenter"",""5"",""14653""
","
","
","""event"",""trial"",""time""
""fullscreenenter"",""5"",""14653""
","
",596.9599999953061,NA,49,NA,NA,3000,1,NA,NA,images/tutgreenplanet.jpg,images/tutalien2,images/tutalien1,images/tutrocket2,images/tutalien1,images/t.png,2,practice,true,1,common,1,2020-06-09T20:00:20Z,sub31
two-step-fixation,114,515759,0.0-61.0-2.17,TRUE,FALSE,TRUE,FALSE,"""event"",""trial"",""time""
""fullscreenenter"",""5"",""14653""
","
","
","""event"",""trial"",""time""
""fullscreenenter"",""5"",""14653""
","
",NA,images/earth.jpg,NA,NA,NA,NA,NA,NA,NA,NA,NA,NA,NA,NA,NA,fixation,NA,NA,NA,NA,NA,NA,sub31
d3-animate-choice,115,518085,0.0-61.0-0.18,TRUE,FALSE,TRUE,FALSE,"""event"",""trial"",""time""
""fullscreenenter"",""5"",""14653""
","
","
","""event"",""trial"",""time""
""fullscreenenter"",""5"",""14653""
","
",320.0500000093598,NA,48,NA,NA,3000,1,NA,NA,images/earth.jpg,images/tutrocket2,images/tutrocket1,null,images/tutrocket2,NA,1,practice,null,2,NA,NA,NA,sub31
d3-animate-choice,116,521060,0.0-61.0-1.18,TRUE,FALSE,TRUE,FALSE,"""event"",""trial"",""time""
""fullscreenenter"",""5"",""14653""
","
","
","""event"",""trial"",""time""
""fullscreenenter"",""5"",""14653""
","
",970.115000003716,NA,48,NA,NA,3000,1,NA,NA,images/tutyellowplanet.jpg,images/tutalien4,images/tutalien3,images/tutrocket2,images/tutalien4,images/nothing.png,2,practice,false,2,rare,0,2020-06-09T20:00:27Z,sub31
two-step-fixation,117,522063,0.0-61.0-2.18,TRUE,FALSE,TRUE,FALSE,"""event"",""trial"",""time""
""fullscreenenter"",""5"",""14653""
","
","
","""event"",""trial"",""time""
""fullscreenenter"",""5"",""14653""
","
",NA,images/earth.jpg,NA,NA,NA,NA,NA,NA,NA,NA,NA,NA,NA,NA,NA,fixation,NA,NA,NA,NA,NA,NA,sub31
d3-animate-choice,118,524429,0.0-61.0-0.19,TRUE,FALSE,TRUE,FALSE,"""event"",""trial"",""time""
""fullscreenenter"",""5"",""14653""
","
","
","""event"",""trial"",""time""
""fullscreenenter"",""5"",""14653""
","
",360.03500000515487,NA,48,NA,NA,3000,1,NA,NA,images/earth.jpg,images/tutrocket2,images/tutrocket1,null,images/tutrocket2,NA,1,practice,null,2,NA,NA,NA,sub31
d3-animate-choice,119,527428,0.0-61.0-1.19,TRUE,FALSE,TRUE,FALSE,"""event"",""trial"",""time""
""fullscreenenter"",""5"",""14653""
","
","
","""event"",""trial"",""time""
""fullscreenenter"",""5"",""14653""
","
",992.660000003525,NA,48,NA,NA,3000,1,NA,NA,images/tutyellowplanet.jpg,images/tutalien4,images/tutalien3,images/tutrocket2,images/tutalien4,images/t.png,2,practice,false,2,rare,1,2020-06-09T20:00:33Z,sub31
two-step-fixation,120,528431,0.0-61.0-2.19,TRUE,FALSE,TRUE,FALSE,"""event"",""trial"",""time""
""fullscreenenter"",""5"",""14653""
","
","
","""event"",""trial"",""time""
""fullscreenenter"",""5"",""14653""
","
",NA,images/earth.jpg,NA,NA,NA,NA,NA,NA,NA,NA,NA,NA,NA,NA,NA,fixation,NA,NA,NA,NA,NA,NA,sub31
d3-instructions,121,536537,0.0-62.0,TRUE,FALSE,TRUE,FALSE,"""event"",""trial"",""time""
""fullscreenenter"",""5"",""14653""
","
","
","""event"",""trial"",""time""
""fullscreenenter"",""5"",""14653""
","
",NA,NA,NA,NA,NA,NA,NA,NA,NA,NA,NA,NA,NA,NA,NA,NA,NA,NA,NA,NA,NA,NA,sub31
audio-keyboard-response,122,550636,0.0-63.0,TRUE,FALSE,TRUE,FALSE,"""event"",""trial"",""time""
""fullscreenenter"",""5"",""14653""
","
","
","""event"",""trial"",""time""
""fullscreenenter"",""5"",""14653""
","
",14101,audio/instructions/treasure_feedback.wav,32,NA,NA,NA,NA,NA,NA,NA,NA,NA,NA,NA,NA,NA,NA,NA,NA,NA,NA,NA,sub31
d3-instructions,123,569548,0.0-64.0,TRUE,FALSE,TRUE,FALSE,"""event"",""trial"",""time""
""fullscreenenter"",""5"",""14653""
","
","
","""event"",""trial"",""time""
""fullscreenenter"",""5"",""14653""
","
",NA,NA,NA,NA,NA,NA,NA,NA,NA,NA,NA,NA,NA,NA,NA,NA,NA,NA,NA,NA,NA,NA,sub31
d3-instructions,124,585176,0.0-65.0,TRUE,FALSE,TRUE,FALSE,"""event"",""trial"",""time""
""fullscreenenter"",""5"",""14653""
","
","
","""event"",""trial"",""time""
""fullscreenenter"",""5"",""14653""
","
",NA,NA,NA,NA,NA,NA,NA,NA,NA,NA,NA,NA,NA,NA,NA,NA,NA,NA,NA,NA,NA,NA,sub31
d3-instructions,125,610728,0.0-66.0,TRUE,FALSE,TRUE,FALSE,"""event"",""trial"",""time""
""fullscreenenter"",""5"",""14653""
","
","
","""event"",""trial"",""time""
""fullscreenenter"",""5"",""14653""
","
",NA,NA,NA,NA,NA,NA,NA,NA,NA,NA,NA,NA,NA,NA,NA,NA,NA,NA,NA,NA,NA,NA,sub31
d3-instructions,126,627292,0.0-67.0,TRUE,FALSE,TRUE,FALSE,"""event"",""trial"",""time""
""fullscreenenter"",""5"",""14653""
","
","
","""event"",""trial"",""time""
""fullscreenenter"",""5"",""14653""
","
",NA,NA,NA,NA,NA,NA,NA,NA,NA,NA,NA,NA,NA,NA,NA,NA,NA,NA,NA,NA,NA,NA,sub31
d3-instructions,127,636495,0.0-68.0,TRUE,FALSE,TRUE,FALSE,"""event"",""trial"",""time""
""fullscreenenter"",""5"",""14653""
","
","
","""event"",""trial"",""time""
""fullscreenenter"",""5"",""14653""
","
",NA,NA,NA,NA,NA,NA,NA,NA,NA,NA,NA,NA,NA,NA,NA,NA,NA,NA,NA,NA,NA,NA,sub31
instructions-quiz,128,641352,0.0-69.0,TRUE,FALSE,TRUE,FALSE,"""event"",""trial"",""time""
""fullscreenenter"",""5"",""14653""
","
","
","""event"",""trial"",""time""
""fullscreenenter"",""5"",""14653""
","
",4852.59500000393,audio/quiz/Q1_Prompt.wav,NA,1,NA,NA,NA,NA,NA,NA,NA,NA,NA,NA,NA,NA,NA,NA,NA,NA,NA,NA,sub31
audio-keyboard-response,129,650092,0.0-70.0,TRUE,FALSE,TRUE,FALSE,"""event"",""trial"",""time""
""fullscreenenter"",""5"",""14653""
","
","
","""event"",""trial"",""time""
""fullscreenenter"",""5"",""14653""
","
",8736,audio/quiz/Q1_Correct.wav,32,NA,NA,NA,NA,NA,NA,NA,NA,NA,NA,NA,NA,NA,NA,NA,NA,NA,NA,NA,sub31
instructions-quiz,130,659167,0.0-71.0,TRUE,FALSE,TRUE,FALSE,"""event"",""trial"",""time""
""fullscreenenter"",""5"",""14653""
","
","
","""event"",""trial"",""time""
""fullscreenenter"",""5"",""14653""
","
",9073.745000001509,audio/quiz/Q2_Prompt.wav,NA,0,NA,NA,NA,NA,NA,NA,NA,NA,NA,NA,NA,NA,NA,NA,NA,NA,NA,NA,sub31
audio-keyboard-response,131,659933,0.0-72.0,TRUE,FALSE,TRUE,FALSE,"""event"",""trial"",""time""
""fullscreenenter"",""5"",""14653""
","
","
","""event"",""trial"",""time""
""fullscreenenter"",""5"",""14653""
","
",757,audio/quiz/Q2_Correct.wav,32,NA,NA,NA,NA,NA,NA,NA,NA,NA,NA,NA,NA,NA,NA,NA,NA,NA,NA,NA,sub31
instructions-quiz,132,664688,0.0-73.0,TRUE,FALSE,TRUE,FALSE,"""event"",""trial"",""time""
""fullscreenenter"",""5"",""14653""
","
","
","""event"",""trial"",""time""
""fullscreenenter"",""5"",""14653""
","
",4753.4600000071805,audio/quiz/Q3_Prompt.wav,NA,1,NA,NA,NA,NA,NA,NA,NA,NA,NA,NA,NA,NA,NA,NA,NA,NA,NA,NA,sub31
audio-keyboard-response,133,665664,0.0-74.0,TRUE,FALSE,TRUE,FALSE,"""event"",""trial"",""time""
""fullscreenenter"",""5"",""14653""
","
","
","""event"",""trial"",""time""
""fullscreenenter"",""5"",""14653""
","
",971,audio/quiz/Q3_Correct.wav,32,NA,NA,NA,NA,NA,NA,NA,NA,NA,NA,NA,NA,NA,NA,NA,NA,NA,NA,NA,sub31
d3-instructions,134,680062,0.0-75.0,TRUE,FALSE,TRUE,FALSE,"""event"",""trial"",""time""
""fullscreenenter"",""5"",""14653""
","
","
","""event"",""trial"",""time""
""fullscreenenter"",""5"",""14653""
","
",NA,NA,NA,NA,NA,NA,NA,NA,NA,NA,NA,NA,NA,NA,NA,NA,NA,NA,NA,NA,NA,NA,sub31
d3-animate-choice,135,682875,0.0-76.0-0.0,TRUE,FALSE,TRUE,FALSE,"""event"",""trial"",""time""
""fullscreenenter"",""5"",""14653""
","
","
","""event"",""trial"",""time""
""fullscreenenter"",""5"",""14653""
","
",803.6200000060489,NA,49,NA,NA,3000,1,870.8950000000186,48,images/earth.jpg,images/rocket2,images/rocket1,null,images/rocket1,NA,1,real,null,1,NA,NA,NA,sub31
d3-animate-choice,136,685912,0.0-76.0-1.0,TRUE,FALSE,TRUE,FALSE,"""event"",""trial"",""time""
""fullscreenenter"",""5"",""14653""
","
","
","""event"",""trial"",""time""
""fullscreenenter"",""5"",""14653""
","
",1030.6450000061886,NA,48,NA,NA,3000,1,NA,NA,images/purpleplanet.jpg,images/alien4,images/alien3,images/rocket1,images/alien4,images/t.png,2,real,true,2,common,1,2020-06-09T20:03:12Z,sub31
two-step-fixation,137,686915,0.0-76.0-2.0,TRUE,FALSE,TRUE,FALSE,"""event"",""trial"",""time""
""fullscreenenter"",""5"",""14653""
","
","
","""event"",""trial"",""time""
""fullscreenenter"",""5"",""14653""
","
",NA,images/earth.jpg,NA,NA,NA,NA,NA,NA,NA,NA,NA,NA,NA,NA,NA,fixation,NA,NA,NA,NA,NA,NA,sub31
d3-animate-choice,138,689380,0.0-76.0-0.1,TRUE,FALSE,TRUE,FALSE,"""event"",""trial"",""time""
""fullscreenenter"",""5"",""14653""
","
","
","""event"",""trial"",""time""
""fullscreenenter"",""5"",""14653""
","
",459.1599999985192,NA,49,NA,NA,3000,1,NA,NA,images/earth.jpg,images/rocket2,images/rocket1,null,images/rocket1,NA,1,real,null,1,NA,NA,NA,sub31
d3-animate-choice,139,692276,0.0-76.0-1.1,TRUE,FALSE,TRUE,FALSE,"""event"",""trial"",""time""
""fullscreenenter"",""5"",""14653""
","
","
","""event"",""trial"",""time""
""fullscreenenter"",""5"",""14653""
","
",890.4500000062399,NA,49,NA,NA,3000,1,NA,NA,images/redplanet1.jpg,images/alien2,images/alien1,images/rocket1,images/alien1,images/nothing.png,2,real,false,1,rare,0,2020-06-09T20:03:18Z,sub31
two-step-fixation,140,693279,0.0-76.0-2.1,TRUE,FALSE,TRUE,FALSE,"""event"",""trial"",""time""
""fullscreenenter"",""5"",""14653""
","
","
","""event"",""trial"",""time""
""fullscreenenter"",""5"",""14653""
","
",NA,images/earth.jpg,NA,NA,NA,NA,NA,NA,NA,NA,NA,NA,NA,NA,NA,fixation,NA,NA,NA,NA,NA,NA,sub31
d3-animate-choice,141,695633,0.0-76.0-0.2,TRUE,FALSE,TRUE,FALSE,"""event"",""trial"",""time""
""fullscreenenter"",""5"",""14653""
","
","
","""event"",""trial"",""time""
""fullscreenenter"",""5"",""14653""
","
",347.6599999994505,NA,48,NA,NA,3000,1,NA,NA,images/earth.jpg,images/rocket2,images/rocket1,null,images/rocket2,NA,1,real,null,2,NA,NA,NA,sub31
d3-animate-choice,142,698632,0.0-76.0-1.2,TRUE,FALSE,TRUE,FALSE,"""event"",""trial"",""time""
""fullscreenenter"",""5"",""14653""
","
","
","""event"",""trial"",""time""
""fullscreenenter"",""5"",""14653""
","
",992.6099999865983,NA,49,NA,NA,3000,1,NA,NA,images/purpleplanet.jpg,images/alien4,images/alien3,images/rocket2,images/alien3,images/nothing.png,2,real,false,1,rare,0,2020-06-09T20:03:24Z,sub31
two-step-fixation,143,699635,0.0-76.0-2.2,TRUE,FALSE,TRUE,FALSE,"""event"",""trial"",""time""
""fullscreenenter"",""5"",""14653""
","
","
","""event"",""trial"",""time""
""fullscreenenter"",""5"",""14653""
","
",NA,images/earth.jpg,NA,NA,NA,NA,NA,NA,NA,NA,NA,NA,NA,NA,NA,fixation,NA,NA,NA,NA,NA,NA,sub31
d3-animate-choice,144,702405,0.0-76.0-0.3,TRUE,FALSE,TRUE,FALSE,"""event"",""trial"",""time""
""fullscreenenter"",""5"",""14653""
","
","
","""event"",""trial"",""time""
""fullscreenenter"",""5"",""14653""
","
",762.669999996433,NA,48,NA,NA,3000,1,NA,NA,images/earth.jpg,images/rocket2,images/rocket1,null,images/rocket2,NA,1,real,null,2,NA,NA,NA,sub31
d3-animate-choice,145,705161,0.0-76.0-1.3,TRUE,FALSE,TRUE,FALSE,"""event"",""trial"",""time""
""fullscreenenter"",""5"",""14653""
","
","
","""event"",""trial"",""time""
""fullscreenenter"",""5"",""14653""
","
",747.82499999855645,NA,48,NA,NA,3000,1,NA,NA,images/redplanet1.jpg,images/alien2,images/alien1,images/rocket2,images/alien2,images/t.png,2,real,true,2,common,1,2020-06-09T20:03:31Z,sub31
two-step-fixation,146,706163,0.0-76.0-2.3,TRUE,FALSE,TRUE,FALSE,"""event"",""trial"",""time""
""fullscreenenter"",""5"",""14653""
","
","
","""event"",""trial"",""time""
""fullscreenenter"",""5"",""14653""
","
",NA,images/earth.jpg,NA,NA,NA,NA,NA,NA,NA,NA,NA,NA,NA,NA,NA,fixation,NA,NA,NA,NA,NA,NA,sub31
d3-animate-choice,147,708423,0.0-76.0-0.4,TRUE,FALSE,TRUE,FALSE,"""event"",""trial"",""time""
""fullscreenenter"",""5"",""14653""
","
","
","""event"",""trial"",""time""
""fullscreenenter"",""5"",""14653""
","
",254.00999998964835,NA,49,NA,NA,3000,1,NA,NA,images/earth.jpg,images/rocket2,images/rocket1,null,images/rocket1,NA,1,real,null,1,NA,NA,NA,sub31
d3-animate-choice,148,711690,0.0-76.0-1.4,TRUE,FALSE,TRUE,FALSE,"""event"",""trial"",""time""
""fullscreenenter"",""5"",""14653""
","
","
","""event"",""trial"",""time""
""fullscreenenter"",""5"",""14653""
","
",1261.3999999884982,NA,48,NA,NA,3000,1,NA,NA,images/redplanet1.jpg,images/alien2,images/alien1,images/rocket1,images/alien2,images/t.png,2,real,false,2,rare,1,2020-06-09T20:03:37Z,sub31
two-step-fixation,149,712692,0.0-76.0-2.4,TRUE,FALSE,TRUE,FALSE,"""event"",""trial"",""time""
""fullscreenenter"",""5"",""14653""
","
","
","""event"",""trial"",""time""
""fullscreenenter"",""5"",""14653""
","
",NA,images/earth.jpg,NA,NA,NA,NA,NA,NA,NA,NA,NA,NA,NA,NA,NA,fixation,NA,NA,NA,NA,NA,NA,sub31
d3-animate-choice,150,715327,0.0-76.0-0.5,TRUE,FALSE,TRUE,FALSE,"""event"",""trial"",""time""
""fullscreenenter"",""5"",""14653""
","
","
","""event"",""trial"",""time""
""fullscreenenter"",""5"",""14653""
","
",629.1150000033667,NA,48,NA,NA,3000,1,NA,NA,images/earth.jpg,images/rocket2,images/rocket1,null,images/rocket2,NA,1,real,null,2,NA,NA,NA,sub31
d3-animate-choice,151,718218,0.0-76.0-1.5,TRUE,FALSE,TRUE,FALSE,"""event"",""trial"",""time""
""fullscreenenter"",""5"",""14653""
","
","
","""event"",""trial"",""time""
""fullscreenenter"",""5"",""14653""
","
",885.8099999924889,NA,48,NA,NA,3000,1,NA,NA,images/redplanet1.jpg,images/alien2,images/alien1,images/rocket2,images/alien2,images/nothing.png,2,real,true,2,common,0,2020-06-09T20:03:44Z,sub31
two-step-fixation,152,719222,0.0-76.0-2.5,TRUE,FALSE,TRUE,FALSE,"""event"",""trial"",""time""
""fullscreenenter"",""5"",""14653""
","
","
","""event"",""trial"",""time""
""fullscreenenter"",""5"",""14653""
","
",NA,images/earth.jpg,NA,NA,NA,NA,NA,NA,NA,NA,NA,NA,NA,NA,NA,fixation,NA,NA,NA,NA,NA,NA,sub31
d3-animate-choice,153,721515,0.0-76.0-0.6,TRUE,FALSE,TRUE,FALSE,"""event"",""trial"",""time""
""fullscreenenter"",""5"",""14653""
","
","
","""event"",""trial"",""time""
""fullscreenenter"",""5"",""14653""
","
",287.49499999685213,NA,49,NA,NA,3000,1,NA,NA,images/earth.jpg,images/rocket2,images/rocket1,null,images/rocket1,NA,1,real,null,1,NA,NA,NA,sub31
d3-animate-choice,154,724323,0.0-76.0-1.6,TRUE,FALSE,TRUE,FALSE,"""event"",""trial"",""time""
""fullscreenenter"",""5"",""14653""
","
","
","""event"",""trial"",""time""
""fullscreenenter"",""5"",""14653""
","
",802.6350000000093,NA,48,NA,NA,3000,1,NA,NA,images/redplanet1.jpg,images/alien2,images/alien1,images/rocket1,images/alien2,images/t.png,2,real,false,2,rare,1,2020-06-09T20:03:50Z,sub31
two-step-fixation,155,725326,0.0-76.0-2.6,TRUE,FALSE,TRUE,FALSE,"""event"",""trial"",""time""
""fullscreenenter"",""5"",""14653""
","
","
","""event"",""trial"",""time""
""fullscreenenter"",""5"",""14653""
","
",NA,images/earth.jpg,NA,NA,NA,NA,NA,NA,NA,NA,NA,NA,NA,NA,NA,fixation,NA,NA,NA,NA,NA,NA,sub31
d3-animate-choice,156,728006,0.0-76.0-0.7,TRUE,FALSE,TRUE,FALSE,"""event"",""trial"",""time""
""fullscreenenter"",""5"",""14653""
","
","
","""event"",""trial"",""time""
""fullscreenenter"",""5"",""14653""
","
",674.4199999957345,NA,48,NA,NA,3000,1,NA,NA,images/earth.jpg,images/rocket2,images/rocket1,null,images/rocket2,NA,1,real,null,2,NA,NA,NA,sub31
d3-animate-choice,157,731129,0.0-76.0-1.7,TRUE,FALSE,TRUE,FALSE,"""event"",""trial"",""time""
""fullscreenenter"",""5"",""14653""
","
","
","""event"",""trial"",""time""
""fullscreenenter"",""5"",""14653""
","
",1119.5200000074692,NA,48,NA,NA,3000,1,NA,NA,images/redplanet1.jpg,images/alien2,images/alien1,images/rocket2,images/alien2,images/nothing.png,2,real,true,2,common,0,2020-06-09T20:03:57Z,sub31
two-step-fixation,158,732132,0.0-76.0-2.7,TRUE,FALSE,TRUE,FALSE,"""event"",""trial"",""time""
""fullscreenenter"",""5"",""14653""
","
","
","""event"",""trial"",""time""
""fullscreenenter"",""5"",""14653""
","
",NA,images/earth.jpg,NA,NA,NA,NA,NA,NA,NA,NA,NA,NA,NA,NA,NA,fixation,NA,NA,NA,NA,NA,NA,sub31
d3-animate-choice,159,734640,0.0-76.0-0.8,TRUE,FALSE,TRUE,FALSE,"""event"",""trial"",""time""
""fullscreenenter"",""5"",""14653""
","
","
","""event"",""trial"",""time""
""fullscreenenter"",""5"",""14653""
","
",501.7450000013923,NA,49,NA,NA,3000,1,NA,NA,images/earth.jpg,images/rocket2,images/rocket1,null,images/rocket1,NA,1,real,null,1,NA,NA,NA,sub31
d3-animate-choice,160,737593,0.0-76.0-1.8,TRUE,FALSE,TRUE,FALSE,"""event"",""trial"",""time""
""fullscreenenter"",""5"",""14653""
","
","
","""event"",""trial"",""time""
""fullscreenenter"",""5"",""14653""
","
",946.1049999954412,NA,48,NA,NA,3000,1,NA,NA,images/purpleplanet.jpg,images/alien4,images/alien3,images/rocket1,images/alien4,images/t.png,2,real,true,2,common,1,2020-06-09T20:04:03Z,sub31
two-step-fixation,161,738596,0.0-76.0-2.8,TRUE,FALSE,TRUE,FALSE,"""event"",""trial"",""time""
""fullscreenenter"",""5"",""14653""
","
","
","""event"",""trial"",""time""
""fullscreenenter"",""5"",""14653""
","
",NA,images/earth.jpg,NA,NA,NA,NA,NA,NA,NA,NA,NA,NA,NA,NA,NA,fixation,NA,NA,NA,NA,NA,NA,sub31
d3-animate-choice,162,741825,0.0-76.0-0.9,TRUE,FALSE,TRUE,FALSE,"""event"",""trial"",""time""
""fullscreenenter"",""5"",""14653""
","
","
","""event"",""trial"",""time""
""fullscreenenter"",""5"",""14653""
","
",1223.7049999966985,NA,48,NA,NA,3000,1,NA,NA,images/earth.jpg,images/rocket2,images/rocket1,null,images/rocket2,NA,1,real,null,2,NA,NA,NA,sub31
d3-animate-choice,163,745020,0.0-76.0-1.9,TRUE,FALSE,TRUE,FALSE,"""event"",""trial"",""time""
""fullscreenenter"",""5"",""14653""
","
","
","""event"",""trial"",""time""
""fullscreenenter"",""5"",""14653""
","
",1189.2400000069756,NA,48,NA,NA,3000,1,NA,NA,images/purpleplanet.jpg,images/alien4,images/alien3,images/rocket2,images/alien4,images/t.png,2,real,false,2,rare,1,2020-06-09T20:04:11Z,sub31
two-step-fixation,164,746023,0.0-76.0-2.9,TRUE,FALSE,TRUE,FALSE,"""event"",""trial"",""time""
""fullscreenenter"",""5"",""14653""
","
","
","""event"",""trial"",""time""
""fullscreenenter"",""5"",""14653""
","
",NA,images/earth.jpg,NA,NA,NA,NA,NA,NA,NA,NA,NA,NA,NA,NA,NA,fixation,NA,NA,NA,NA,NA,NA,sub31
d3-animate-choice,165,748969,0.0-76.0-0.10,TRUE,FALSE,TRUE,FALSE,"""event"",""trial"",""time""
""fullscreenenter"",""5"",""14653""
","
","
","""event"",""trial"",""time""
""fullscreenenter"",""5"",""14653""
","
",939.5650000078604,NA,49,NA,NA,3000,1,NA,NA,images/earth.jpg,images/rocket2,images/rocket1,null,images/rocket1,NA,1,real,null,1,NA,NA,NA,sub31
d3-animate-choice,166,752149,0.0-76.0-1.10,TRUE,FALSE,TRUE,FALSE,"""event"",""trial"",""time""
""fullscreenenter"",""5"",""14653""
","
","
","""event"",""trial"",""time""
""fullscreenenter"",""5"",""14653""
","
",1173.9499999966938,NA,49,NA,NA,3000,1,NA,NA,images/redplanet1.jpg,images/alien2,images/alien1,images/rocket1,images/alien1,images/t.png,2,real,false,1,rare,1,2020-06-09T20:04:18Z,sub31
two-step-fixation,167,753152,0.0-76.0-2.10,TRUE,FALSE,TRUE,FALSE,"""event"",""trial"",""time""
""fullscreenenter"",""5"",""14653""
","
","
","""event"",""trial"",""time""
""fullscreenenter"",""5"",""14653""
","
",NA,images/earth.jpg,NA,NA,NA,NA,NA,NA,NA,NA,NA,NA,NA,NA,NA,fixation,NA,NA,NA,NA,NA,NA,sub31
d3-animate-choice,168,755370,0.0-76.0-0.11,TRUE,FALSE,TRUE,FALSE,"""event"",""trial"",""time""
""fullscreenenter"",""5"",""14653""
","
","
","""event"",""trial"",""time""
""fullscreenenter"",""5"",""14653""
","
",211.46500000031665,NA,48,NA,NA,3000,1,NA,NA,images/earth.jpg,images/rocket2,images/rocket1,null,images/rocket2,NA,1,real,null,2,NA,NA,NA,sub31
d3-animate-choice,169,758176,0.0-76.0-1.11,TRUE,FALSE,TRUE,FALSE,"""event"",""trial"",""time""
""fullscreenenter"",""5"",""14653""
","
","
","""event"",""trial"",""time""
""fullscreenenter"",""5"",""14653""
","
",800.9600000077626,NA,48,NA,NA,3000,1,NA,NA,images/purpleplanet.jpg,images/alien4,images/alien3,images/rocket2,images/alien4,images/t.png,2,real,false,2,rare,1,2020-06-09T20:04:24Z,sub31
two-step-fixation,170,759179,0.0-76.0-2.11,TRUE,FALSE,TRUE,FALSE,"""event"",""trial"",""time""
""fullscreenenter"",""5"",""14653""
","
","
","""event"",""trial"",""time""
""fullscreenenter"",""5"",""14653""
","
",NA,images/earth.jpg,NA,NA,NA,NA,NA,NA,NA,NA,NA,NA,NA,NA,NA,fixation,NA,NA,NA,NA,NA,NA,sub31
d3-animate-choice,171,761916,0.0-76.0-0.12,TRUE,FALSE,TRUE,FALSE,"""event"",""trial"",""time""
""fullscreenenter"",""5"",""14653""
","
","
","""event"",""trial"",""time""
""fullscreenenter"",""5"",""14653""
","
",730.5099999939557,NA,49,NA,NA,3000,1,NA,NA,images/earth.jpg,images/rocket2,images/rocket1,null,images/rocket1,NA,1,real,null,1,NA,NA,NA,sub31
d3-animate-choice,172,764570,0.0-76.0-1.12,TRUE,FALSE,TRUE,FALSE,"""event"",""trial"",""time""
""fullscreenenter"",""5"",""14653""
","
","
","""event"",""trial"",""time""
""fullscreenenter"",""5"",""14653""
","
",647.595000002184,NA,48,NA,NA,3000,1,NA,NA,images/redplanet1.jpg,images/alien2,images/alien1,images/rocket1,images/alien2,images/t.png,2,real,false,2,rare,1,2020-06-09T20:04:30Z,sub31
two-step-fixation,173,765573,0.0-76.0-2.12,TRUE,FALSE,TRUE,FALSE,"""event"",""trial"",""time""
""fullscreenenter"",""5"",""14653""
","
","
","""event"",""trial"",""time""
""fullscreenenter"",""5"",""14653""
","
",NA,images/earth.jpg,NA,NA,NA,NA,NA,NA,NA,NA,NA,NA,NA,NA,NA,fixation,NA,NA,NA,NA,NA,NA,sub31
d3-animate-choice,174,768055,0.0-76.0-0.13,TRUE,FALSE,TRUE,FALSE,"""event"",""trial"",""time""
""fullscreenenter"",""5"",""14653""
","
","
","""event"",""trial"",""time""
""fullscreenenter"",""5"",""14653""
","
",476.9749999977648,NA,48,NA,NA,3000,1,NA,NA,images/earth.jpg,images/rocket2,images/rocket1,null,images/rocket2,NA,1,real,null,2,NA,NA,NA,sub31
d3-animate-choice,175,771215,0.0-76.0-1.13,TRUE,FALSE,TRUE,FALSE,"""event"",""trial"",""time""
""fullscreenenter"",""5"",""14653""
","
","
","""event"",""trial"",""time""
""fullscreenenter"",""5"",""14653""
","
",1153.679999988526,NA,48,NA,NA,3000,1,NA,NA,images/redplanet1.jpg,images/alien2,images/alien1,images/rocket2,images/alien2,images/nothing.png,2,real,true,2,common,0,2020-06-09T20:04:37Z,sub31
two-step-fixation,176,772217,0.0-76.0-2.13,TRUE,FALSE,TRUE,FALSE,"""event"",""trial"",""time""
""fullscreenenter"",""5"",""14653""
","
","
","""event"",""trial"",""time""
""fullscreenenter"",""5"",""14653""
","
",NA,images/earth.jpg,NA,NA,NA,NA,NA,NA,NA,NA,NA,NA,NA,NA,NA,fixation,NA,NA,NA,NA,NA,NA,sub31
d3-animate-choice,177,774720,0.0-76.0-0.14,TRUE,FALSE,TRUE,FALSE,"""event"",""trial"",""time""
""fullscreenenter"",""5"",""14653""
","
","
","""event"",""trial"",""time""
""fullscreenenter"",""5"",""14653""
","
",497.1450000011828,NA,48,NA,NA,3000,1,NA,NA,images/earth.jpg,images/rocket2,images/rocket1,null,images/rocket2,NA,1,real,null,2,NA,NA,NA,sub31
d3-animate-choice,178,777380,0.0-76.0-1.14,TRUE,FALSE,TRUE,FALSE,"""event"",""trial"",""time""
""fullscreenenter"",""5"",""14653""
","
","
","""event"",""trial"",""time""
""fullscreenenter"",""5"",""14653""
","
",654.2500000068685,NA,49,NA,NA,3000,1,NA,NA,images/redplanet1.jpg,images/alien2,images/alien1,images/rocket2,images/alien1,images/nothing.png,2,real,true,1,common,0,2020-06-09T20:04:43Z,sub31
two-step-fixation,179,778385,0.0-76.0-2.14,TRUE,FALSE,TRUE,FALSE,"""event"",""trial"",""time""
""fullscreenenter"",""5"",""14653""
","
","
","""event"",""trial"",""time""
""fullscreenenter"",""5"",""14653""
","
",NA,images/earth.jpg,NA,NA,NA,NA,NA,NA,NA,NA,NA,NA,NA,NA,NA,fixation,NA,NA,NA,NA,NA,NA,sub31
d3-animate-choice,180,780691,0.0-76.0-0.15,TRUE,FALSE,TRUE,FALSE,"""event"",""trial"",""time""
""fullscreenenter"",""5"",""14653""
","
","
","""event"",""trial"",""time""
""fullscreenenter"",""5"",""14653""
","
",299.6150000108173,NA,49,NA,NA,3000,1,2059.965000007651,49,images/earth.jpg,images/rocket2,images/rocket1,null,images/rocket1,NA,1,real,null,1,NA,NA,NA,sub31
d3-animate-choice,181,783409,0.0-76.0-1.15,TRUE,FALSE,TRUE,FALSE,"""event"",""trial"",""time""
""fullscreenenter"",""5"",""14653""
","
","
","""event"",""trial"",""time""
""fullscreenenter"",""5"",""14653""
","
",714.7650000115391,NA,48,NA,NA,3000,1,NA,NA,images/purpleplanet.jpg,images/alien4,images/alien3,images/rocket1,images/alien4,images/t.png,2,real,true,2,common,1,2020-06-09T20:04:49Z,sub31
two-step-fixation,182,784412,0.0-76.0-2.15,TRUE,FALSE,TRUE,FALSE,"""event"",""trial"",""time""
""fullscreenenter"",""5"",""14653""
","
","
","""event"",""trial"",""time""
""fullscreenenter"",""5"",""14653""
","
",NA,images/earth.jpg,NA,NA,NA,NA,NA,NA,NA,NA,NA,NA,NA,NA,NA,fixation,NA,NA,NA,NA,NA,NA,sub31
d3-animate-choice,183,787117,0.0-76.0-0.16,TRUE,FALSE,TRUE,FALSE,"""event"",""trial"",""time""
""fullscreenenter"",""5"",""14653""
","
","
","""event"",""trial"",""time""
""fullscreenenter"",""5"",""14653""
","
",699.3899999943096,NA,48,NA,NA,3000,1,NA,NA,images/earth.jpg,images/rocket2,images/rocket1,null,images/rocket2,NA,1,real,null,2,NA,NA,NA,sub31
d3-animate-choice,184,789911,0.0-76.0-1.16,TRUE,FALSE,TRUE,FALSE,"""event"",""trial"",""time""
""fullscreenenter"",""5"",""14653""
","
","
","""event"",""trial"",""time""
""fullscreenenter"",""5"",""14653""
","
",786.3999999972293,NA,48,NA,NA,3000,1,2143.01999998861,48,images/redplanet1.jpg,images/alien2,images/alien1,images/rocket2,images/alien2,images/nothing.png,2,real,true,2,common,0,2020-06-09T20:04:56Z,sub31
two-step-fixation,185,790914,0.0-76.0-2.16,TRUE,FALSE,TRUE,FALSE,"""event"",""trial"",""time""
""fullscreenenter"",""5"",""14653""
","
","
","""event"",""trial"",""time""
""fullscreenenter"",""5"",""14653""
","
",NA,images/earth.jpg,NA,NA,NA,NA,NA,NA,NA,NA,NA,NA,NA,NA,NA,fixation,NA,NA,NA,NA,NA,NA,sub31
d3-animate-choice,186,793320,0.0-76.0-0.17,TRUE,FALSE,TRUE,FALSE,"""event"",""trial"",""time""
""fullscreenenter"",""5"",""14653""
","
","
","""event"",""trial"",""time""
""fullscreenenter"",""5"",""14653""
","
",400.2299999992829,NA,49,NA,NA,3000,1,NA,NA,images/earth.jpg,images/rocket2,images/rocket1,null,images/rocket1,NA,1,real,null,1,NA,NA,NA,sub31
d3-animate-choice,187,796188,0.0-76.0-1.17,TRUE,FALSE,TRUE,FALSE,"""event"",""trial"",""time""
""fullscreenenter"",""5"",""14653""
","
","
","""event"",""trial"",""time""
""fullscreenenter"",""5"",""14653""
","
",862.10499999288,NA,48,NA,NA,3000,1,NA,NA,images/purpleplanet.jpg,images/alien4,images/alien3,images/rocket1,images/alien4,images/nothing.png,2,real,true,2,common,0,2020-06-09T20:05:02Z,sub31
two-step-fixation,188,797190,0.0-76.0-2.17,TRUE,FALSE,TRUE,FALSE,"""event"",""trial"",""time""
""fullscreenenter"",""5"",""14653""
","
","
","""event"",""trial"",""time""
""fullscreenenter"",""5"",""14653""
","
",NA,images/earth.jpg,NA,NA,NA,NA,NA,NA,NA,NA,NA,NA,NA,NA,NA,fixation,NA,NA,NA,NA,NA,NA,sub31
d3-animate-choice,189,799557,0.0-76.0-0.18,TRUE,FALSE,TRUE,FALSE,"""event"",""trial"",""time""
""fullscreenenter"",""5"",""14653""
","
","
","""event"",""trial"",""time""
""fullscreenenter"",""5"",""14653""
","
",360.4250000062166,NA,48,NA,NA,3000,1,NA,NA,images/earth.jpg,images/rocket2,images/rocket1,null,images/rocket2,NA,1,real,null,2,NA,NA,NA,sub31
d3-animate-choice,190,802446,0.0-76.0-1.18,TRUE,FALSE,TRUE,FALSE,"""event"",""trial"",""time""
""fullscreenenter"",""5"",""14653""
","
","
","""event"",""trial"",""time""
""fullscreenenter"",""5"",""14653""
","
",882.194999998319,NA,49,NA,NA,3000,1,NA,NA,images/purpleplanet.jpg,images/alien4,images/alien3,images/rocket2,images/alien3,images/t.png,2,real,false,1,rare,1,2020-06-09T20:05:08Z,sub31
two-step-fixation,191,803449,0.0-76.0-2.18,TRUE,FALSE,TRUE,FALSE,"""event"",""trial"",""time""
""fullscreenenter"",""5"",""14653""
","
","
","""event"",""trial"",""time""
""fullscreenenter"",""5"",""14653""
","
",NA,images/earth.jpg,NA,NA,NA,NA,NA,NA,NA,NA,NA,NA,NA,NA,NA,fixation,NA,NA,NA,NA,NA,NA,sub31
d3-animate-choice,192,805963,0.0-76.0-0.19,TRUE,FALSE,TRUE,FALSE,"""event"",""trial"",""time""
""fullscreenenter"",""5"",""14653""
","
","
","""event"",""trial"",""time""
""fullscreenenter"",""5"",""14653""
","
",506.905000002007,NA,48,NA,NA,3000,1,NA,NA,images/earth.jpg,images/rocket2,images/rocket1,null,images/rocket2,NA,1,real,null,2,NA,NA,NA,sub31
d3-animate-choice,193,809090,0.0-76.0-1.19,TRUE,FALSE,TRUE,FALSE,"""event"",""trial"",""time""
""fullscreenenter"",""5"",""14653""
","
","
","""event"",""trial"",""time""
""fullscreenenter"",""5"",""14653""
","
",1122.0900000043912,NA,49,NA,NA,3000,1,NA,NA,images/redplanet1.jpg,images/alien2,images/alien1,images/rocket2,images/alien1,images/nothing.png,2,real,true,1,common,0,2020-06-09T20:05:15Z,sub31
two-step-fixation,194,810093,0.0-76.0-2.19,TRUE,FALSE,TRUE,FALSE,"""event"",""trial"",""time""
""fullscreenenter"",""5"",""14653""
","
","
","""event"",""trial"",""time""
""fullscreenenter"",""5"",""14653""
","
",NA,images/earth.jpg,NA,NA,NA,NA,NA,NA,NA,NA,NA,NA,NA,NA,NA,fixation,NA,NA,NA,NA,NA,NA,sub31
d3-animate-choice,195,812887,0.0-76.0-0.20,TRUE,FALSE,TRUE,FALSE,"""event"",""trial"",""time""
""fullscreenenter"",""5"",""14653""
","
","
","""event"",""trial"",""time""
""fullscreenenter"",""5"",""14653""
","
",784.0599999908591,NA,49,NA,NA,3000,1,NA,NA,images/earth.jpg,images/rocket2,images/rocket1,null,images/rocket1,NA,1,real,null,1,NA,NA,NA,sub31
d3-animate-choice,196,815779,0.0-76.0-1.20,TRUE,FALSE,TRUE,FALSE,"""event"",""trial"",""time""
""fullscreenenter"",""5"",""14653""
","
","
","""event"",""trial"",""time""
""fullscreenenter"",""5"",""14653""
","
",881.5000000031432,NA,48,NA,NA,3000,1,NA,NA,images/redplanet1.jpg,images/alien2,images/alien1,images/rocket1,images/alien2,images/t.png,2,real,false,2,rare,1,2020-06-09T20:05:21Z,sub31
two-step-fixation,197,816782,0.0-76.0-2.20,TRUE,FALSE,TRUE,FALSE,"""event"",""trial"",""time""
""fullscreenenter"",""5"",""14653""
","
","
","""event"",""trial"",""time""
""fullscreenenter"",""5"",""14653""
","
",NA,images/earth.jpg,NA,NA,NA,NA,NA,NA,NA,NA,NA,NA,NA,NA,NA,fixation,NA,NA,NA,NA,NA,NA,sub31
d3-animate-choice,198,819767,0.0-76.0-0.21,TRUE,FALSE,TRUE,FALSE,"""event"",""trial"",""time""
""fullscreenenter"",""5"",""14653""
","
","
","""event"",""trial"",""time""
""fullscreenenter"",""5"",""14653""
","
",976.6950000048382,NA,48,NA,NA,3000,1,NA,NA,images/earth.jpg,images/rocket2,images/rocket1,null,images/rocket2,NA,1,real,null,2,NA,NA,NA,sub31
d3-animate-choice,199,822320,0.0-76.0-1.21,TRUE,FALSE,TRUE,FALSE,"""event"",""trial"",""time""
""fullscreenenter"",""5"",""14653""
","
","
","""event"",""trial"",""time""
""fullscreenenter"",""5"",""14653""
","
",546.9250000023749,NA,48,NA,NA,3000,1,NA,NA,images/redplanet1.jpg,images/alien2,images/alien1,images/rocket2,images/alien2,images/nothing.png,2,real,true,2,common,0,2020-06-09T20:05:28Z,sub31
two-step-fixation,200,823323,0.0-76.0-2.21,TRUE,FALSE,TRUE,FALSE,"""event"",""trial"",""time""
""fullscreenenter"",""5"",""14653""
","
","
","""event"",""trial"",""time""
""fullscreenenter"",""5"",""14653""
","
",NA,images/earth.jpg,NA,NA,NA,NA,NA,NA,NA,NA,NA,NA,NA,NA,NA,fixation,NA,NA,NA,NA,NA,NA,sub31
d3-animate-choice,201,825652,0.0-76.0-0.22,TRUE,FALSE,TRUE,FALSE,"""event"",""trial"",""time""
""fullscreenenter"",""5"",""14653""
","
","
","""event"",""trial"",""time""
""fullscreenenter"",""5"",""14653""
","
",323.26499999908265,NA,49,NA,NA,3000,1,NA,NA,images/earth.jpg,images/rocket2,images/rocket1,null,images/rocket1,NA,1,real,null,1,NA,NA,NA,sub31
d3-animate-choice,202,829658,0.0-76.0-1.22,TRUE,FALSE,TRUE,FALSE,"""event"",""trial"",""time""
""fullscreenenter"",""5"",""14653""
","
","
","""event"",""trial"",""time""
""fullscreenenter"",""5"",""14653""
","
",2024.5600000052946,NA,49,NA,NA,3000,1,NA,NA,images/redplanet1.jpg,images/alien2,images/alien1,images/rocket1,images/alien1,images/t.png,2,real,false,1,rare,1,2020-06-09T20:05:35Z,sub31
two-step-fixation,203,830661,0.0-76.0-2.22,TRUE,FALSE,TRUE,FALSE,"""event"",""trial"",""time""
""fullscreenenter"",""5"",""14653""
","
","
","""event"",""trial"",""time""
""fullscreenenter"",""5"",""14653""
","
",NA,images/earth.jpg,NA,NA,NA,NA,NA,NA,NA,NA,NA,NA,NA,NA,NA,fixation,NA,NA,NA,NA,NA,NA,sub31
d3-animate-choice,204,833218,0.0-76.0-0.23,TRUE,FALSE,TRUE,FALSE,"""event"",""trial"",""time""
""fullscreenenter"",""5"",""14653""
","
","
","""event"",""trial"",""time""
""fullscreenenter"",""5"",""14653""
","
",551.0999999969499,NA,48,NA,NA,3000,1,NA,NA,images/earth.jpg,images/rocket2,images/rocket1,null,images/rocket2,NA,1,real,null,2,NA,NA,NA,sub31
d3-animate-choice,205,836087,0.0-76.0-1.23,TRUE,FALSE,TRUE,FALSE,"""event"",""trial"",""time""
""fullscreenenter"",""5"",""14653""
","
","
","""event"",""trial"",""time""
""fullscreenenter"",""5"",""14653""
","
",863.1900000036694,NA,48,NA,NA,3000,1,NA,NA,images/purpleplanet.jpg,images/alien4,images/alien3,images/rocket2,images/alien4,images/nothing.png,2,real,false,2,rare,0,2020-06-09T20:05:42Z,sub31
two-step-fixation,206,837090,0.0-76.0-2.23,TRUE,FALSE,TRUE,FALSE,"""event"",""trial"",""time""
""fullscreenenter"",""5"",""14653""
","
","
","""event"",""trial"",""time""
""fullscreenenter"",""5"",""14653""
","
",NA,images/earth.jpg,NA,NA,NA,NA,NA,NA,NA,NA,NA,NA,NA,NA,NA,fixation,NA,NA,NA,NA,NA,NA,sub31
d3-animate-choice,207,839432,0.0-76.0-0.24,TRUE,FALSE,TRUE,FALSE,"""event"",""trial"",""time""
""fullscreenenter"",""5"",""14653""
","
","
","""event"",""trial"",""time""
""fullscreenenter"",""5"",""14653""
","
",333.8650000077905,NA,49,NA,NA,3000,1,NA,NA,images/earth.jpg,images/rocket2,images/rocket1,null,images/rocket1,NA,1,real,null,1,NA,NA,NA,sub31
d3-animate-choice,208,842059,0.0-76.0-1.24,TRUE,FALSE,TRUE,FALSE,"""event"",""trial"",""time""
""fullscreenenter"",""5"",""14653""
","
","
","""event"",""trial"",""time""
""fullscreenenter"",""5"",""14653""
","
",620.809999993071,NA,49,NA,NA,3000,1,NA,NA,images/purpleplanet.jpg,images/alien4,images/alien3,images/rocket1,images/alien3,images/nothing.png,2,real,true,1,common,0,2020-06-09T20:05:48Z,sub31
two-step-fixation,209,843062,0.0-76.0-2.24,TRUE,FALSE,TRUE,FALSE,"""event"",""trial"",""time""
""fullscreenenter"",""5"",""14653""
","
","
","""event"",""trial"",""time""
""fullscreenenter"",""5"",""14653""
","
",NA,images/earth.jpg,NA,NA,NA,NA,NA,NA,NA,NA,NA,NA,NA,NA,NA,fixation,NA,NA,NA,NA,NA,NA,sub31
d3-animate-choice,210,845493,0.0-76.0-0.25,TRUE,FALSE,TRUE,FALSE,"""event"",""trial"",""time""
""fullscreenenter"",""5"",""14653""
","
","
","""event"",""trial"",""time""
""fullscreenenter"",""5"",""14653""
","
",424.5050000026822,NA,48,NA,NA,3000,1,NA,NA,images/earth.jpg,images/rocket2,images/rocket1,null,images/rocket2,NA,1,real,null,2,NA,NA,NA,sub31
d3-animate-choice,211,848339,0.0-76.0-1.25,TRUE,FALSE,TRUE,FALSE,"""event"",""trial"",""time""
""fullscreenenter"",""5"",""14653""
","
","
","""event"",""trial"",""time""
""fullscreenenter"",""5"",""14653""
","
",841.1849999974947,NA,48,NA,NA,3000,1,NA,NA,images/redplanet1.jpg,images/alien2,images/alien1,images/rocket2,images/alien2,images/t.png,2,real,true,2,common,1,2020-06-09T20:05:54Z,sub31
two-step-fixation,212,849342,0.0-76.0-2.25,TRUE,FALSE,TRUE,FALSE,"""event"",""trial"",""time""
""fullscreenenter"",""5"",""14653""
","
","
","""event"",""trial"",""time""
""fullscreenenter"",""5"",""14653""
","
",NA,images/earth.jpg,NA,NA,NA,NA,NA,NA,NA,NA,NA,NA,NA,NA,NA,fixation,NA,NA,NA,NA,NA,NA,sub31
d3-animate-choice,213,851629,0.0-76.0-0.26,TRUE,FALSE,TRUE,FALSE,"""event"",""trial"",""time""
""fullscreenenter"",""5"",""14653""
","
","
","""event"",""trial"",""time""
""fullscreenenter"",""5"",""14653""
","
",279.8250000050757,NA,49,NA,NA,3000,1,NA,NA,images/earth.jpg,images/rocket2,images/rocket1,null,images/rocket1,NA,1,real,null,1,NA,NA,NA,sub31
d3-animate-choice,214,854352,0.0-76.0-1.26,TRUE,FALSE,TRUE,FALSE,"""event"",""trial"",""time""
""fullscreenenter"",""5"",""14653""
","
","
","""event"",""trial"",""time""
""fullscreenenter"",""5"",""14653""
","
",703.1500000011874,NA,49,NA,NA,3000,1,NA,NA,images/purpleplanet.jpg,images/alien4,images/alien3,images/rocket1,images/alien3,images/nothing.png,2,real,true,1,common,0,2020-06-09T20:06:00Z,sub31
two-step-fixation,215,855354,0.0-76.0-2.26,TRUE,FALSE,TRUE,FALSE,"""event"",""trial"",""time""
""fullscreenenter"",""5"",""14653""
","
","
","""event"",""trial"",""time""
""fullscreenenter"",""5"",""14653""
","
",NA,images/earth.jpg,NA,NA,NA,NA,NA,NA,NA,NA,NA,NA,NA,NA,NA,fixation,NA,NA,NA,NA,NA,NA,sub31
d3-animate-choice,216,858006,0.0-76.0-0.27,TRUE,FALSE,TRUE,FALSE,"""event"",""trial"",""time""
""fullscreenenter"",""5"",""14653""
","
","
","""event"",""trial"",""time""
""fullscreenenter"",""5"",""14653""
","
",646.4399999968009,NA,48,NA,NA,3000,1,1708.7400000018533,49,images/earth.jpg,images/rocket2,images/rocket1,null,images/rocket2,NA,1,real,null,2,NA,NA,NA,sub31
d3-animate-choice,217,860900,0.0-76.0-1.27,TRUE,FALSE,TRUE,FALSE,"""event"",""trial"",""time""
""fullscreenenter"",""5"",""14653""
","
","
","""event"",""trial"",""time""
""fullscreenenter"",""5"",""14653""
","
",888.4799999941606,NA,48,NA,NA,3000,1,NA,NA,images/redplanet1.jpg,images/alien2,images/alien1,images/rocket2,images/alien2,images/t.png,2,real,true,2,common,1,2020-06-09T20:06:07Z,sub31
two-step-fixation,218,861902,0.0-76.0-2.27,TRUE,FALSE,TRUE,FALSE,"""event"",""trial"",""time""
""fullscreenenter"",""5"",""14653""
","
","
","""event"",""trial"",""time""
""fullscreenenter"",""5"",""14653""
","
",NA,images/earth.jpg,NA,NA,NA,NA,NA,NA,NA,NA,NA,NA,NA,NA,NA,fixation,NA,NA,NA,NA,NA,NA,sub31
d3-animate-choice,219,864618,0.0-76.0-0.28,TRUE,FALSE,TRUE,FALSE,"""event"",""trial"",""time""
""fullscreenenter"",""5"",""14653""
","
","
","""event"",""trial"",""time""
""fullscreenenter"",""5"",""14653""
","
",710.0900000077672,NA,49,NA,NA,3000,1,NA,NA,images/earth.jpg,images/rocket2,images/rocket1,null,images/rocket1,NA,1,real,null,1,NA,NA,NA,sub31
d3-animate-choice,220,867886,0.0-76.0-1.28,TRUE,FALSE,TRUE,FALSE,"""event"",""trial"",""time""
""fullscreenenter"",""5"",""14653""
","
","
","""event"",""trial"",""time""
""fullscreenenter"",""5"",""14653""
","
",1261.834999997518,NA,49,NA,NA,3000,1,NA,NA,images/purpleplanet.jpg,images/alien4,images/alien3,images/rocket1,images/alien3,images/nothing.png,2,real,true,1,common,0,2020-06-09T20:06:14Z,sub31
two-step-fixation,221,868889,0.0-76.0-2.28,TRUE,FALSE,TRUE,FALSE,"""event"",""trial"",""time""
""fullscreenenter"",""5"",""14653""
","
","
","""event"",""trial"",""time""
""fullscreenenter"",""5"",""14653""
","
",NA,images/earth.jpg,NA,NA,NA,NA,NA,NA,NA,NA,NA,NA,NA,NA,NA,fixation,NA,NA,NA,NA,NA,NA,sub31
d3-animate-choice,222,871300,0.0-76.0-0.29,TRUE,FALSE,TRUE,FALSE,"""event"",""trial"",""time""
""fullscreenenter"",""5"",""14653""
","
","
","""event"",""trial"",""time""
""fullscreenenter"",""5"",""14653""
","
",405.2699999883771,NA,48,NA,NA,3000,1,NA,NA,images/earth.jpg,images/rocket2,images/rocket1,null,images/rocket2,NA,1,real,null,2,NA,NA,NA,sub31
d3-animate-choice,223,874039,0.0-76.0-1.29,TRUE,FALSE,TRUE,FALSE,"""event"",""trial"",""time""
""fullscreenenter"",""5"",""14653""
","
","
","""event"",""trial"",""time""
""fullscreenenter"",""5"",""14653""
","
",732.3400000022957,NA,48,NA,NA,3000,1,NA,NA,images/redplanet1.jpg,images/alien2,images/alien1,images/rocket2,images/alien2,images/t.png,2,real,true,2,common,1,2020-06-09T20:06:20Z,sub31
two-step-fixation,224,875040,0.0-76.0-2.29,TRUE,FALSE,TRUE,FALSE,"""event"",""trial"",""time""
""fullscreenenter"",""5"",""14653""
","
","
","""event"",""trial"",""time""
""fullscreenenter"",""5"",""14653""
","
",NA,images/earth.jpg,NA,NA,NA,NA,NA,NA,NA,NA,NA,NA,NA,NA,NA,fixation,NA,NA,NA,NA,NA,NA,sub31
d3-animate-choice,225,877302,0.0-76.0-0.30,TRUE,FALSE,TRUE,FALSE,"""event"",""trial"",""time""
""fullscreenenter"",""5"",""14653""
","
","
","""event"",""trial"",""time""
""fullscreenenter"",""5"",""14653""
","
",256.4200000051642,NA,49,NA,NA,3000,1,NA,NA,images/earth.jpg,images/rocket2,images/rocket1,null,images/rocket1,NA,1,real,null,1,NA,NA,NA,sub31
d3-animate-choice,226,880076,0.0-76.0-1.30,TRUE,FALSE,TRUE,FALSE,"""event"",""trial"",""time""
""fullscreenenter"",""5"",""14653""
","
","
","""event"",""trial"",""time""
""fullscreenenter"",""5"",""14653""
","
",768.4049999952549,NA,48,NA,NA,3000,1,NA,NA,images/purpleplanet.jpg,images/alien4,images/alien3,images/rocket1,images/alien4,images/t.png,2,real,true,2,common,1,2020-06-09T20:06:26Z,sub31
two-step-fixation,227,881079,0.0-76.0-2.30,TRUE,FALSE,TRUE,FALSE,"""event"",""trial"",""time""
""fullscreenenter"",""5"",""14653""
","
","
","""event"",""trial"",""time""
""fullscreenenter"",""5"",""14653""
","
",NA,images/earth.jpg,NA,NA,NA,NA,NA,NA,NA,NA,NA,NA,NA,NA,NA,fixation,NA,NA,NA,NA,NA,NA,sub31
d3-animate-choice,228,883534,0.0-76.0-0.31,TRUE,FALSE,TRUE,FALSE,"""event"",""trial"",""time""
""fullscreenenter"",""5"",""14653""
","
","
","""event"",""trial"",""time""
""fullscreenenter"",""5"",""14653""
","
",449.0850000001956,NA,48,NA,NA,3000,1,NA,NA,images/earth.jpg,images/rocket2,images/rocket1,null,images/rocket2,NA,1,real,null,2,NA,NA,NA,sub31
d3-animate-choice,229,885997,0.0-76.0-1.31,TRUE,FALSE,TRUE,FALSE,"""event"",""trial"",""time""
""fullscreenenter"",""5"",""14653""
","
","
","""event"",""trial"",""time""
""fullscreenenter"",""5"",""14653""
","
",456.39500000106636,NA,48,NA,NA,3000,1,NA,NA,images/purpleplanet.jpg,images/alien4,images/alien3,images/rocket2,images/alien4,images/nothing.png,2,real,false,2,rare,0,2020-06-09T20:06:32Z,sub31
two-step-fixation,230,886999,0.0-76.0-2.31,TRUE,FALSE,TRUE,FALSE,"""event"",""trial"",""time""
""fullscreenenter"",""5"",""14653""
","
","
","""event"",""trial"",""time""
""fullscreenenter"",""5"",""14653""
","
",NA,images/earth.jpg,NA,NA,NA,NA,NA,NA,NA,NA,NA,NA,NA,NA,NA,fixation,NA,NA,NA,NA,NA,NA,sub31
d3-animate-choice,231,889454,0.0-76.0-0.32,TRUE,FALSE,TRUE,FALSE,"""event"",""trial"",""time""
""fullscreenenter"",""5"",""14653""
","
","
","""event"",""trial"",""time""
""fullscreenenter"",""5"",""14653""
","
",445.54000000061933,NA,48,NA,NA,3000,1,NA,NA,images/earth.jpg,images/rocket2,images/rocket1,null,images/rocket2,NA,1,real,null,2,NA,NA,NA,sub31
d3-animate-choice,232,892228,0.0-76.0-1.32,TRUE,FALSE,TRUE,FALSE,"""event"",""trial"",""time""
""fullscreenenter"",""5"",""14653""
","
","
","""event"",""trial"",""time""
""fullscreenenter"",""5"",""14653""
","
",767.7150000090478,NA,49,NA,NA,3000,1,NA,NA,images/redplanet1.jpg,images/alien2,images/alien1,images/rocket2,images/alien1,images/nothing.png,2,real,true,1,common,0,2020-06-09T20:06:38Z,sub31
two-step-fixation,233,893231,0.0-76.0-2.32,TRUE,FALSE,TRUE,FALSE,"""event"",""trial"",""time""
""fullscreenenter"",""5"",""14653""
","
","
","""event"",""trial"",""time""
""fullscreenenter"",""5"",""14653""
","
",NA,images/earth.jpg,NA,NA,NA,NA,NA,NA,NA,NA,NA,NA,NA,NA,NA,fixation,NA,NA,NA,NA,NA,NA,sub31
d3-animate-choice,234,895475,0.0-76.0-0.33,TRUE,FALSE,TRUE,FALSE,"""event"",""trial"",""time""
""fullscreenenter"",""5"",""14653""
","
","
","""event"",""trial"",""time""
""fullscreenenter"",""5"",""14653""
","
",238.16500000248197,NA,49,NA,NA,3000,1,NA,NA,images/earth.jpg,images/rocket2,images/rocket1,null,images/rocket1,NA,1,real,null,1,NA,NA,NA,sub31
d3-animate-choice,235,897856,0.0-76.0-1.33,TRUE,FALSE,TRUE,FALSE,"""event"",""trial"",""time""
""fullscreenenter"",""5"",""14653""
","
","
","""event"",""trial"",""time""
""fullscreenenter"",""5"",""14653""
","
",365.49499999091495,NA,48,NA,NA,3000,1,NA,NA,images/redplanet1.jpg,images/alien2,images/alien1,images/rocket1,images/alien2,images/t.png,2,real,false,2,rare,1,2020-06-09T20:06:44Z,sub31
two-step-fixation,236,898859,0.0-76.0-2.33,TRUE,FALSE,TRUE,FALSE,"""event"",""trial"",""time""
""fullscreenenter"",""5"",""14653""
","
","
","""event"",""trial"",""time""
""fullscreenenter"",""5"",""14653""
","
",NA,images/earth.jpg,NA,NA,NA,NA,NA,NA,NA,NA,NA,NA,NA,NA,NA,fixation,NA,NA,NA,NA,NA,NA,sub31
d3-animate-choice,237,901471,0.0-76.0-0.34,TRUE,FALSE,TRUE,FALSE,"""event"",""trial"",""time""
""fullscreenenter"",""5"",""14653""
","
","
","""event"",""trial"",""time""
""fullscreenenter"",""5"",""14653""
","
",606.0849999921629,NA,48,NA,NA,3000,1,NA,NA,images/earth.jpg,images/rocket2,images/rocket1,null,images/rocket2,NA,1,real,null,2,NA,NA,NA,sub31
d3-animate-choice,238,904155,0.0-76.0-1.34,TRUE,FALSE,TRUE,FALSE,"""event"",""trial"",""time""
""fullscreenenter"",""5"",""14653""
","
","
","""event"",""trial"",""time""
""fullscreenenter"",""5"",""14653""
","
",678.6549999960698,NA,48,NA,NA,3000,1,NA,NA,images/redplanet1.jpg,images/alien2,images/alien1,images/rocket2,images/alien2,images/t.png,2,real,true,2,common,1,2020-06-09T20:06:50Z,sub31
two-step-fixation,239,905158,0.0-76.0-2.34,TRUE,FALSE,TRUE,FALSE,"""event"",""trial"",""time""
""fullscreenenter"",""5"",""14653""
","
","
","""event"",""trial"",""time""
""fullscreenenter"",""5"",""14653""
","
",NA,images/earth.jpg,NA,NA,NA,NA,NA,NA,NA,NA,NA,NA,NA,NA,NA,fixation,NA,NA,NA,NA,NA,NA,sub31
d3-animate-choice,240,907533,0.0-76.0-0.35,TRUE,FALSE,TRUE,FALSE,"""event"",""trial"",""time""
""fullscreenenter"",""5"",""14653""
","
","
","""event"",""trial"",""time""
""fullscreenenter"",""5"",""14653""
","
",367.6649999979418,NA,48,NA,NA,3000,1,NA,NA,images/earth.jpg,images/rocket2,images/rocket1,null,images/rocket2,NA,1,real,null,2,NA,NA,NA,sub31
d3-animate-choice,241,909911,0.0-76.0-1.35,TRUE,FALSE,TRUE,FALSE,"""event"",""trial"",""time""
""fullscreenenter"",""5"",""14653""
","
","
","""event"",""trial"",""time""
""fullscreenenter"",""5"",""14653""
","
",373.26500000199303,NA,48,NA,NA,3000,1,NA,NA,images/redplanet1.jpg,images/alien2,images/alien1,images/rocket2,images/alien2,images/t.png,2,real,true,2,common,1,2020-06-09T20:06:56Z,sub31
two-step-fixation,242,910914,0.0-76.0-2.35,TRUE,FALSE,TRUE,FALSE,"""event"",""trial"",""time""
""fullscreenenter"",""5"",""14653""
","
","
","""event"",""trial"",""time""
""fullscreenenter"",""5"",""14653""
","
",NA,images/earth.jpg,NA,NA,NA,NA,NA,NA,NA,NA,NA,NA,NA,NA,NA,fixation,NA,NA,NA,NA,NA,NA,sub31
d3-animate-choice,243,913294,0.0-76.0-0.36,TRUE,FALSE,TRUE,FALSE,"""event"",""trial"",""time""
""fullscreenenter"",""5"",""14653""
","
","
","""event"",""trial"",""time""
""fullscreenenter"",""5"",""14653""
","
",374.3350000004284,NA,48,NA,NA,3000,1,NA,NA,images/earth.jpg,images/rocket2,images/rocket1,null,images/rocket2,NA,1,real,null,2,NA,NA,NA,sub31
d3-animate-choice,244,915634,0.0-76.0-1.36,TRUE,FALSE,TRUE,FALSE,"""event"",""trial"",""time""
""fullscreenenter"",""5"",""14653""
","
","
","""event"",""trial"",""time""
""fullscreenenter"",""5"",""14653""
","
",332.86999999836553,NA,48,NA,NA,3000,1,NA,NA,images/redplanet1.jpg,images/alien2,images/alien1,images/rocket2,images/alien2,images/nothing.png,2,real,true,2,common,0,2020-06-09T20:07:01Z,sub31
two-step-fixation,245,916637,0.0-76.0-2.36,TRUE,FALSE,TRUE,FALSE,"""event"",""trial"",""time""
""fullscreenenter"",""5"",""14653""
","
","
","""event"",""trial"",""time""
""fullscreenenter"",""5"",""14653""
","
",NA,images/earth.jpg,NA,NA,NA,NA,NA,NA,NA,NA,NA,NA,NA,NA,NA,fixation,NA,NA,NA,NA,NA,NA,sub31
d3-animate-choice,246,918993,0.0-76.0-0.37,TRUE,FALSE,TRUE,FALSE,"""event"",""trial"",""time""
""fullscreenenter"",""5"",""14653""
","
","
","""event"",""trial"",""time""
""fullscreenenter"",""5"",""14653""
","
",349.6350000059465,NA,49,NA,NA,3000,1,NA,NA,images/earth.jpg,images/rocket2,images/rocket1,null,images/rocket1,NA,1,real,null,1,NA,NA,NA,sub31
d3-animate-choice,247,921440,0.0-76.0-1.37,TRUE,FALSE,TRUE,FALSE,"""event"",""trial"",""time""
""fullscreenenter"",""5"",""14653""
","
","
","""event"",""trial"",""time""
""fullscreenenter"",""5"",""14653""
","
",440.90000000142027,NA,49,NA,NA,3000,1,NA,NA,images/purpleplanet.jpg,images/alien4,images/alien3,images/rocket1,images/alien3,images/t.png,2,real,true,1,common,1,2020-06-09T20:07:07Z,sub31
two-step-fixation,248,922442,0.0-76.0-2.37,TRUE,FALSE,TRUE,FALSE,"""event"",""trial"",""time""
""fullscreenenter"",""5"",""14653""
","
","
","""event"",""trial"",""time""
""fullscreenenter"",""5"",""14653""
","
",NA,images/earth.jpg,NA,NA,NA,NA,NA,NA,NA,NA,NA,NA,NA,NA,NA,fixation,NA,NA,NA,NA,NA,NA,sub31
d3-animate-choice,249,924854,0.0-76.0-0.38,TRUE,FALSE,TRUE,FALSE,"""event"",""trial"",""time""
""fullscreenenter"",""5"",""14653""
","
","
","""event"",""trial"",""time""
""fullscreenenter"",""5"",""14653""
","
",406.3050000113435,NA,48,NA,NA,3000,1,NA,NA,images/earth.jpg,images/rocket2,images/rocket1,null,images/rocket2,NA,1,real,null,2,NA,NA,NA,sub31
d3-animate-choice,250,927301,0.0-76.0-1.38,TRUE,FALSE,TRUE,FALSE,"""event"",""trial"",""time""
""fullscreenenter"",""5"",""14653""
","
","
","""event"",""trial"",""time""
""fullscreenenter"",""5"",""14653""
","
",440.8649999968475,NA,48,NA,NA,3000,1,NA,NA,images/purpleplanet.jpg,images/alien4,images/alien3,images/rocket2,images/alien4,images/nothing.png,2,real,false,2,rare,0,2020-06-09T20:07:13Z,sub31
two-step-fixation,251,928304,0.0-76.0-2.38,TRUE,FALSE,TRUE,FALSE,"""event"",""trial"",""time""
""fullscreenenter"",""5"",""14653""
","
","
","""event"",""trial"",""time""
""fullscreenenter"",""5"",""14653""
","
",NA,images/earth.jpg,NA,NA,NA,NA,NA,NA,NA,NA,NA,NA,NA,NA,NA,fixation,NA,NA,NA,NA,NA,NA,sub31
d3-animate-choice,252,930834,0.0-76.0-0.39,TRUE,FALSE,TRUE,FALSE,"""event"",""trial"",""time""
""fullscreenenter"",""5"",""14653""
","
","
","""event"",""trial"",""time""
""fullscreenenter"",""5"",""14653""
","
",524.3300000001909,NA,48,NA,NA,3000,1,NA,NA,images/earth.jpg,images/rocket2,images/rocket1,null,images/rocket2,NA,1,real,null,2,NA,NA,NA,sub31
d3-animate-choice,253,933507,0.0-76.0-1.39,TRUE,FALSE,TRUE,FALSE,"""event"",""trial"",""time""
""fullscreenenter"",""5"",""14653""
","
","
","""event"",""trial"",""time""
""fullscreenenter"",""5"",""14653""
","
",667.4300000013318,NA,48,NA,NA,3000,1,NA,NA,images/redplanet1.jpg,images/alien2,images/alien1,images/rocket2,images/alien2,images/t.png,2,real,true,2,common,1,2020-06-09T20:07:19Z,sub31
two-step-fixation,254,934512,0.0-76.0-2.39,TRUE,FALSE,TRUE,FALSE,"""event"",""trial"",""time""
""fullscreenenter"",""5"",""14653""
","
","
","""event"",""trial"",""time""
""fullscreenenter"",""5"",""14653""
","
",NA,images/earth.jpg,NA,NA,NA,NA,NA,NA,NA,NA,NA,NA,NA,NA,NA,fixation,NA,NA,NA,NA,NA,NA,sub31
d3-animate-choice,255,937088,0.0-76.0-0.40,TRUE,FALSE,TRUE,FALSE,"""event"",""trial"",""time""
""fullscreenenter"",""5"",""14653""
","
","
","""event"",""trial"",""time""
""fullscreenenter"",""5"",""14653""
","
",568.2950000045821,NA,48,NA,NA,3000,1,NA,NA,images/earth.jpg,images/rocket2,images/rocket1,null,images/rocket2,NA,1,real,null,2,NA,NA,NA,sub31
d3-animate-choice,256,939534,0.0-76.0-1.40,TRUE,FALSE,TRUE,FALSE,"""event"",""trial"",""time""
""fullscreenenter"",""5"",""14653""
","
","
","""event"",""trial"",""time""
""fullscreenenter"",""5"",""14653""
","
",440.3500000044005,NA,49,NA,NA,3000,1,NA,NA,images/purpleplanet.jpg,images/alien4,images/alien3,images/rocket2,images/alien3,images/t.png,2,real,false,1,rare,1,2020-06-09T20:07:25Z,sub31
two-step-fixation,257,940537,0.0-76.0-2.40,TRUE,FALSE,TRUE,FALSE,"""event"",""trial"",""time""
""fullscreenenter"",""5"",""14653""
","
","
","""event"",""trial"",""time""
""fullscreenenter"",""5"",""14653""
","
",NA,images/earth.jpg,NA,NA,NA,NA,NA,NA,NA,NA,NA,NA,NA,NA,NA,fixation,NA,NA,NA,NA,NA,NA,sub31
d3-animate-choice,258,943049,0.0-76.0-0.41,TRUE,FALSE,TRUE,FALSE,"""event"",""trial"",""time""
""fullscreenenter"",""5"",""14653""
","
","
","""event"",""trial"",""time""
""fullscreenenter"",""5"",""14653""
","
",505.61999999627005,NA,48,NA,NA,3000,1,NA,NA,images/earth.jpg,images/rocket2,images/rocket1,null,images/rocket2,NA,1,real,null,2,NA,NA,NA,sub31
d3-animate-choice,259,945501,0.0-76.0-1.41,TRUE,FALSE,TRUE,FALSE,"""event"",""trial"",""time""
""fullscreenenter"",""5"",""14653""
","
","
","""event"",""trial"",""time""
""fullscreenenter"",""5"",""14653""
","
",446.93499999993946,NA,49,NA,NA,3000,1,NA,NA,images/purpleplanet.jpg,images/alien4,images/alien3,images/rocket2,images/alien3,images/nothing.png,2,real,false,1,rare,0,2020-06-09T20:07:31Z,sub31
two-step-fixation,260,946504,0.0-76.0-2.41,TRUE,FALSE,TRUE,FALSE,"""event"",""trial"",""time""
""fullscreenenter"",""5"",""14653""
","
","
","""event"",""trial"",""time""
""fullscreenenter"",""5"",""14653""
","
",NA,images/earth.jpg,NA,NA,NA,NA,NA,NA,NA,NA,NA,NA,NA,NA,NA,fixation,NA,NA,NA,NA,NA,NA,sub31
d3-animate-choice,261,949279,0.0-76.0-0.42,TRUE,FALSE,TRUE,FALSE,"""event"",""trial"",""time""
""fullscreenenter"",""5"",""14653""
","
","
","""event"",""trial"",""time""
""fullscreenenter"",""5"",""14653""
","
",768.0950000067241,NA,49,NA,NA,3000,1,NA,NA,images/earth.jpg,images/rocket2,images/rocket1,null,images/rocket1,NA,1,real,null,1,NA,NA,NA,sub31
d3-animate-choice,262,952232,0.0-76.0-1.42,TRUE,FALSE,TRUE,FALSE,"""event"",""trial"",""time""
""fullscreenenter"",""5"",""14653""
","
","
","""event"",""trial"",""time""
""fullscreenenter"",""5"",""14653""
","
",946.5749999944819,NA,48,NA,NA,3000,1,NA,NA,images/purpleplanet.jpg,images/alien4,images/alien3,images/rocket1,images/alien4,images/t.png,2,real,true,2,common,1,2020-06-09T20:07:38Z,sub31
two-step-fixation,263,953235,0.0-76.0-2.42,TRUE,FALSE,TRUE,FALSE,"""event"",""trial"",""time""
""fullscreenenter"",""5"",""14653""
","
","
","""event"",""trial"",""time""
""fullscreenenter"",""5"",""14653""
","
",NA,images/earth.jpg,NA,NA,NA,NA,NA,NA,NA,NA,NA,NA,NA,NA,NA,fixation,NA,NA,NA,NA,NA,NA,sub31
d3-animate-choice,264,955967,0.0-76.0-0.43,TRUE,FALSE,TRUE,FALSE,"""event"",""trial"",""time""
""fullscreenenter"",""5"",""14653""
","
","
","""event"",""trial"",""time""
""fullscreenenter"",""5"",""14653""
","
",725.8699999947567,NA,49,NA,NA,3000,1,NA,NA,images/earth.jpg,images/rocket2,images/rocket1,null,images/rocket1,NA,1,real,null,1,NA,NA,NA,sub31
d3-animate-choice,265,958384,0.0-76.0-1.43,TRUE,FALSE,TRUE,FALSE,"""event"",""trial"",""time""
""fullscreenenter"",""5"",""14653""
","
","
","""event"",""trial"",""time""
""fullscreenenter"",""5"",""14653""
","
",411.08999999414664,NA,48,NA,NA,3000,1,NA,NA,images/redplanet1.jpg,images/alien2,images/alien1,images/rocket1,images/alien2,images/t.png,2,real,false,2,rare,1,2020-06-09T20:07:44Z,sub31
two-step-fixation,266,959386,0.0-76.0-2.43,TRUE,FALSE,TRUE,FALSE,"""event"",""trial"",""time""
""fullscreenenter"",""5"",""14653""
","
","
","""event"",""trial"",""time""
""fullscreenenter"",""5"",""14653""
","
",NA,images/earth.jpg,NA,NA,NA,NA,NA,NA,NA,NA,NA,NA,NA,NA,NA,fixation,NA,NA,NA,NA,NA,NA,sub31
d3-animate-choice,267,961744,0.0-76.0-0.44,TRUE,FALSE,TRUE,FALSE,"""event"",""trial"",""time""
""fullscreenenter"",""5"",""14653""
","
","
","""event"",""trial"",""time""
""fullscreenenter"",""5"",""14653""
","
",353.45999999844935,NA,48,NA,NA,3000,1,NA,NA,images/earth.jpg,images/rocket2,images/rocket1,null,images/rocket2,NA,1,real,null,2,NA,NA,NA,sub31
d3-animate-choice,268,964172,0.0-76.0-1.44,TRUE,FALSE,TRUE,FALSE,"""event"",""trial"",""time""
""fullscreenenter"",""5"",""14653""
","
","
","""event"",""trial"",""time""
""fullscreenenter"",""5"",""14653""
","
",421.32999999739695,NA,48,NA,NA,3000,1,NA,NA,images/redplanet1.jpg,images/alien2,images/alien1,images/rocket2,images/alien2,images/nothing.png,2,real,true,2,common,0,2020-06-09T20:07:50Z,sub31
two-step-fixation,269,965175,0.0-76.0-2.44,TRUE,FALSE,TRUE,FALSE,"""event"",""trial"",""time""
""fullscreenenter"",""5"",""14653""
","
","
","""event"",""trial"",""time""
""fullscreenenter"",""5"",""14653""
","
",NA,images/earth.jpg,NA,NA,NA,NA,NA,NA,NA,NA,NA,NA,NA,NA,NA,fixation,NA,NA,NA,NA,NA,NA,sub31
d3-animate-choice,270,968101,0.0-76.0-0.45,TRUE,FALSE,TRUE,FALSE,"""event"",""trial"",""time""
""fullscreenenter"",""5"",""14653""
","
","
","""event"",""trial"",""time""
""fullscreenenter"",""5"",""14653""
","
",919.0550000057556,NA,49,NA,NA,3000,1,NA,NA,images/earth.jpg,images/rocket2,images/rocket1,null,images/rocket1,NA,1,real,null,1,NA,NA,NA,sub31
d3-animate-choice,271,970618,0.0-76.0-1.45,TRUE,FALSE,TRUE,FALSE,"""event"",""trial"",""time""
""fullscreenenter"",""5"",""14653""
","
","
","""event"",""trial"",""time""
""fullscreenenter"",""5"",""14653""
","
",512.510000000475,NA,49,NA,NA,3000,1,NA,NA,images/purpleplanet.jpg,images/alien4,images/alien3,images/rocket1,images/alien3,images/nothing.png,2,real,true,1,common,0,2020-06-09T20:07:56Z,sub31
two-step-fixation,272,971621,0.0-76.0-2.45,TRUE,FALSE,TRUE,FALSE,"""event"",""trial"",""time""
""fullscreenenter"",""5"",""14653""
","
","
","""event"",""trial"",""time""
""fullscreenenter"",""5"",""14653""
","
",NA,images/earth.jpg,NA,NA,NA,NA,NA,NA,NA,NA,NA,NA,NA,NA,NA,fixation,NA,NA,NA,NA,NA,NA,sub31
d3-animate-choice,273,974132,0.0-76.0-0.46,TRUE,FALSE,TRUE,FALSE,"""event"",""trial"",""time""
""fullscreenenter"",""5"",""14653""
","
","
","""event"",""trial"",""time""
""fullscreenenter"",""5"",""14653""
","
",504.6149999980116,NA,48,NA,NA,3000,1,NA,NA,images/earth.jpg,images/rocket2,images/rocket1,null,images/rocket2,NA,1,real,null,2,NA,NA,NA,sub31
d3-animate-choice,274,976510,0.0-76.0-1.46,TRUE,FALSE,TRUE,FALSE,"""event"",""trial"",""time""
""fullscreenenter"",""5"",""14653""
","
","
","""event"",""trial"",""time""
""fullscreenenter"",""5"",""14653""
","
",372.30499999714084,NA,48,NA,NA,3000,1,NA,NA,images/purpleplanet.jpg,images/alien4,images/alien3,images/rocket2,images/alien4,images/t.png,2,real,false,2,rare,1,2020-06-09T20:08:02Z,sub31
two-step-fixation,275,977513,0.0-76.0-2.46,TRUE,FALSE,TRUE,FALSE,"""event"",""trial"",""time""
""fullscreenenter"",""5"",""14653""
","
","
","""event"",""trial"",""time""
""fullscreenenter"",""5"",""14653""
","
",NA,images/earth.jpg,NA,NA,NA,NA,NA,NA,NA,NA,NA,NA,NA,NA,NA,fixation,NA,NA,NA,NA,NA,NA,sub31
d3-animate-choice,276,979752,0.0-76.0-0.47,TRUE,FALSE,TRUE,FALSE,"""event"",""trial"",""time""
""fullscreenenter"",""5"",""14653""
","
","
","""event"",""trial"",""time""
""fullscreenenter"",""5"",""14653""
","
",233.52999999769963,NA,49,NA,NA,3000,1,NA,NA,images/earth.jpg,images/rocket2,images/rocket1,null,images/rocket1,NA,1,real,null,1,NA,NA,NA,sub31
d3-animate-choice,277,982403,0.0-76.0-1.47,TRUE,FALSE,TRUE,FALSE,"""event"",""trial"",""time""
""fullscreenenter"",""5"",""14653""
","
","
","""event"",""trial"",""time""
""fullscreenenter"",""5"",""14653""
","
",645.329999999376,NA,48,NA,NA,3000,1,NA,NA,images/purpleplanet.jpg,images/alien4,images/alien3,images/rocket1,images/alien4,images/t.png,2,real,true,2,common,1,2020-06-09T20:08:08Z,sub31
two-step-fixation,278,983406,0.0-76.0-2.47,TRUE,FALSE,TRUE,FALSE,"""event"",""trial"",""time""
""fullscreenenter"",""5"",""14653""
","
","
","""event"",""trial"",""time""
""fullscreenenter"",""5"",""14653""
","
",NA,images/earth.jpg,NA,NA,NA,NA,NA,NA,NA,NA,NA,NA,NA,NA,NA,fixation,NA,NA,NA,NA,NA,NA,sub31
d3-animate-choice,279,986145,0.0-76.0-0.48,TRUE,FALSE,TRUE,FALSE,"""event"",""trial"",""time""
""fullscreenenter"",""5"",""14653""
","
","
","""event"",""trial"",""time""
""fullscreenenter"",""5"",""14653""
","
",731.8200000008801,NA,49,NA,NA,3000,1,NA,NA,images/earth.jpg,images/rocket2,images/rocket1,null,images/rocket1,NA,1,real,null,1,NA,NA,NA,sub31
d3-animate-choice,280,988759,0.0-76.0-1.48,TRUE,FALSE,TRUE,FALSE,"""event"",""trial"",""time""
""fullscreenenter"",""5"",""14653""
","
","
","""event"",""trial"",""time""
""fullscreenenter"",""5"",""14653""
","
",608.9249999931781,NA,49,NA,NA,3000,1,NA,NA,images/purpleplanet.jpg,images/alien4,images/alien3,images/rocket1,images/alien3,images/t.png,2,real,true,1,common,1,2020-06-09T20:08:14Z,sub31
two-step-fixation,281,989762,0.0-76.0-2.48,TRUE,FALSE,TRUE,FALSE,"""event"",""trial"",""time""
""fullscreenenter"",""5"",""14653""
","
","
","""event"",""trial"",""time""
""fullscreenenter"",""5"",""14653""
","
",NA,images/earth.jpg,NA,NA,NA,NA,NA,NA,NA,NA,NA,NA,NA,NA,NA,fixation,NA,NA,NA,NA,NA,NA,sub31
d3-animate-choice,282,992329,0.0-76.0-0.49,TRUE,FALSE,TRUE,FALSE,"""event"",""trial"",""time""
""fullscreenenter"",""5"",""14653""
","
","
","""event"",""trial"",""time""
""fullscreenenter"",""5"",""14653""
","
",562.2049999947194,NA,48,NA,NA,3000,1,NA,NA,images/earth.jpg,images/rocket2,images/rocket1,null,images/rocket2,NA,1,real,null,2,NA,NA,NA,sub31
d3-animate-choice,283,994882,0.0-76.0-1.49,TRUE,FALSE,TRUE,FALSE,"""event"",""trial"",""time""
""fullscreenenter"",""5"",""14653""
","
","
","""event"",""trial"",""time""
""fullscreenenter"",""5"",""14653""
","
