trial_type,trial_index,time_elapsed,internal_node_id,rocket_sides,red_planet_first_rocket,red_display_order,purple_display_order,interactions,blur_events,focus_events,fullscreenenter_events,fullscreenexit_events,rt,stimulus,key_press,button_pressed,success,duration,valid_pressed,rts,keys,planet_text,right_text,left_text,center_text,chosen_text,reward_text,trial_stage,practice_trial,transition_type,choice,reward,timestamp,transition,subject_id
pavlovia,0,4,0.0-0.0,FALSE,TRUE,FALSE,TRUE,"
","
","
","
","
",NA,NA,NA,NA,NA,NA,NA,NA,NA,NA,NA,NA,NA,NA,NA,NA,NA,NA,NA,NA,NA,NA,sub142
html-keyboard-response,1,30815,0.0-1.0,FALSE,TRUE,FALSE,TRUE,"
","
","
","
","
",30809.570000041276,Welcome! Press the space bar to begin.,32,NA,NA,NA,NA,NA,NA,NA,NA,NA,NA,NA,NA,NA,NA,NA,NA,NA,NA,NA,sub142
audio-keyboard-response,2,34342,0.0-2.0,FALSE,TRUE,FALSE,TRUE,"
","
","
","
","
",3361,audio/beep_loop.wav,32,NA,NA,NA,NA,NA,NA,NA,NA,NA,NA,NA,NA,NA,NA,NA,NA,NA,NA,NA,sub142
audio-button-response,3,36262,0.0-3.0,FALSE,TRUE,FALSE,TRUE,"
","
","
","
","
",NaN,audio/fish.mp3,NA,1,NA,NA,NA,NA,NA,NA,NA,NA,NA,NA,NA,NA,NA,NA,NA,NA,NA,NA,sub142
audio-button-response,4,40013,0.0-4.0,FALSE,TRUE,FALSE,TRUE,"""event"",""trial"",""time""
""fullscreenenter"",""5"",""45661""
","
","
","""event"",""trial"",""time""
""fullscreenenter"",""5"",""45661""
","
",NaN,audio/tiger.mp3,NA,4,NA,NA,NA,NA,NA,NA,NA,NA,NA,NA,NA,NA,NA,NA,NA,NA,NA,NA,sub142
fullscreen,5,46589,0.0-5.0,FALSE,TRUE,FALSE,TRUE,"""event"",""trial"",""time""
""fullscreenenter"",""5"",""45661""
","
","
","""event"",""trial"",""time""
""fullscreenenter"",""5"",""45661""
","
",NA,NA,NA,NA,TRUE,NA,NA,NA,NA,NA,NA,NA,NA,NA,NA,NA,NA,NA,NA,NA,NA,NA,sub142
d3-instructions,6,63470,0.0-6.0,FALSE,TRUE,FALSE,TRUE,"""event"",""trial"",""time""
""fullscreenenter"",""5"",""45661""
","
","
","""event"",""trial"",""time""
""fullscreenenter"",""5"",""45661""
","
",NA,NA,NA,NA,NA,NA,NA,NA,NA,NA,NA,NA,NA,NA,NA,NA,NA,NA,NA,NA,NA,NA,sub142
d3-instructions,7,77606,0.0-7.0,FALSE,TRUE,FALSE,TRUE,"""event"",""trial"",""time""
""fullscreenenter"",""5"",""45661""
","
","
","""event"",""trial"",""time""
""fullscreenenter"",""5"",""45661""
","
",NA,NA,NA,NA,NA,NA,NA,NA,NA,NA,NA,NA,NA,NA,NA,NA,NA,NA,NA,NA,NA,NA,sub142
d3-instructions,8,84266,0.0-8.0,FALSE,TRUE,FALSE,TRUE,"""event"",""trial"",""time""
""fullscreenenter"",""5"",""45661""
","
","
","""event"",""trial"",""time""
""fullscreenenter"",""5"",""45661""
","
",NA,NA,NA,NA,NA,NA,NA,NA,NA,NA,NA,NA,NA,NA,NA,NA,NA,NA,NA,NA,NA,NA,sub142
d3-instructions,9,96497,0.0-9.0,FALSE,TRUE,FALSE,TRUE,"""event"",""trial"",""time""
""fullscreenenter"",""5"",""45661""
","
","
","""event"",""trial"",""time""
""fullscreenenter"",""5"",""45661""
","
",NA,NA,NA,NA,NA,NA,NA,NA,NA,NA,NA,NA,NA,NA,NA,NA,NA,NA,NA,NA,NA,NA,sub142
d3-instructions,10,120664,0.0-10.0,FALSE,TRUE,FALSE,TRUE,"""event"",""trial"",""time""
""fullscreenenter"",""5"",""45661""
","
","
","""event"",""trial"",""time""
""fullscreenenter"",""5"",""45661""
","
",NA,NA,NA,NA,NA,NA,NA,NA,NA,NA,NA,NA,NA,NA,NA,NA,NA,NA,NA,NA,NA,NA,sub142
d3-animate-choice,11,129574,0.0-11.0,FALSE,TRUE,FALSE,TRUE,"""event"",""trial"",""time""
""fullscreenenter"",""5"",""45661""
","
","
","""event"",""trial"",""time""
""fullscreenenter"",""5"",""45661""
","
",6902.654999983497,NA,49,NA,NA,3000,1,NA,NA,images/tutgreenplanet.jpg,images/tutalien1,images/tutalien2,null,images/tutalien2,NA,NA,practice,null,NA,NA,NA,NA,sub142
d3-animate-choice,12,133376,0.0-12.0,FALSE,TRUE,FALSE,TRUE,"""event"",""trial"",""time""
""fullscreenenter"",""5"",""45661""
","
","
","""event"",""trial"",""time""
""fullscreenenter"",""5"",""45661""
","
",1798.4899999573827,NA,48,NA,NA,3000,1,NA,NA,images/tutgreenplanet.jpg,images/tutalien1,images/tutalien2,null,images/tutalien1,NA,NA,practice,null,NA,NA,NA,NA,sub142
d3-animate-choice,13,138526,0.0-13.0,FALSE,TRUE,FALSE,TRUE,"""event"",""trial"",""time""
""fullscreenenter"",""5"",""45661""
","
","
","""event"",""trial"",""time""
""fullscreenenter"",""5"",""45661""
","
",3142.589999944903,NA,49,NA,NA,3000,1,NA,NA,images/tutgreenplanet.jpg,images/tutalien1,images/tutalien2,null,images/tutalien2,NA,NA,practice,null,NA,NA,NA,NA,sub142
d3-animate-choice,14,141364,0.0-14.0,FALSE,TRUE,FALSE,TRUE,"""event"",""trial"",""time""
""fullscreenenter"",""5"",""45661""
","
","
","""event"",""trial"",""time""
""fullscreenenter"",""5"",""45661""
","
",833.3550000097603,NA,48,NA,NA,3000,1,NA,NA,images/tutgreenplanet.jpg,images/tutalien1,images/tutalien2,null,images/tutalien1,NA,NA,practice,null,NA,NA,NA,NA,sub142
d3-instructions,15,149287,0.0-15.0,FALSE,TRUE,FALSE,TRUE,"""event"",""trial"",""time""
""fullscreenenter"",""5"",""45661""
","
","
","""event"",""trial"",""time""
""fullscreenenter"",""5"",""45661""
","
",NA,NA,NA,NA,NA,NA,NA,NA,NA,NA,NA,NA,NA,NA,NA,NA,NA,NA,NA,NA,NA,NA,sub142
d3-instructions,16,157362,0.0-16.0,FALSE,TRUE,FALSE,TRUE,"""event"",""trial"",""time""
""fullscreenenter"",""5"",""45661""
","
","
","""event"",""trial"",""time""
""fullscreenenter"",""5"",""45661""
","
",NA,NA,NA,NA,NA,NA,NA,NA,NA,NA,NA,NA,NA,NA,NA,NA,NA,NA,NA,NA,NA,NA,sub142
d3-instructions,17,165843,0.0-17.0,FALSE,TRUE,FALSE,TRUE,"""event"",""trial"",""time""
""fullscreenenter"",""5"",""45661""
","
","
","""event"",""trial"",""time""
""fullscreenenter"",""5"",""45661""
","
",NA,NA,NA,NA,NA,NA,NA,NA,NA,NA,NA,NA,NA,NA,NA,NA,NA,NA,NA,NA,NA,NA,sub142
d3-instructions,18,180539,0.0-18.0,FALSE,TRUE,FALSE,TRUE,"""event"",""trial"",""time""
""fullscreenenter"",""5"",""45661""
","
","
","""event"",""trial"",""time""
""fullscreenenter"",""5"",""45661""
","
",NA,NA,NA,NA,NA,NA,NA,NA,NA,NA,NA,NA,NA,NA,NA,NA,NA,NA,NA,NA,NA,NA,sub142
d3-instructions,19,195857,0.0-19.0,FALSE,TRUE,FALSE,TRUE,"""event"",""trial"",""time""
""fullscreenenter"",""5"",""45661""
","
","
","""event"",""trial"",""time""
""fullscreenenter"",""5"",""45661""
","
",NA,NA,NA,NA,NA,NA,NA,NA,NA,NA,NA,NA,NA,NA,NA,NA,NA,NA,NA,NA,NA,NA,sub142
d3-animate-choice,20,198388,0.0-20.0,FALSE,TRUE,FALSE,TRUE,"""event"",""trial"",""time""
""fullscreenenter"",""5"",""45661""
","
","
","""event"",""trial"",""time""
""fullscreenenter"",""5"",""45661""
","
",523.164999904111,NA,49,NA,NA,3000,1,NA,NA,images/tutyellowplanet.jpg,null,images/tutalien3,null,images/tutalien3,images/t.png,NA,practice,null,NA,NA,NA,NA,sub142
d3-animate-choice,21,200728,0.0-21.0,FALSE,TRUE,FALSE,TRUE,"""event"",""trial"",""time""
""fullscreenenter"",""5"",""45661""
","
","
","""event"",""trial"",""time""
""fullscreenenter"",""5"",""45661""
","
",333.3150000544265,NA,49,NA,NA,3000,1,NA,NA,images/tutyellowplanet.jpg,null,images/tutalien3,null,images/tutalien3,images/t.png,NA,practice,null,NA,NA,NA,NA,sub142
d3-animate-choice,22,203050,0.0-22.0,FALSE,TRUE,FALSE,TRUE,"""event"",""trial"",""time""
""fullscreenenter"",""5"",""45661""
","
","
","""event"",""trial"",""time""
""fullscreenenter"",""5"",""45661""
","
",318.5550000052899,NA,49,NA,NA,3000,1,NA,NA,images/tutyellowplanet.jpg,null,images/tutalien3,null,images/tutalien3,images/t.png,NA,practice,null,NA,NA,NA,NA,sub142
d3-animate-choice,23,205389,0.0-23.0,FALSE,TRUE,FALSE,TRUE,"""event"",""trial"",""time""
""fullscreenenter"",""5"",""45661""
","
","
","""event"",""trial"",""time""
""fullscreenenter"",""5"",""45661""
","
",334.1350000118837,NA,49,NA,NA,3000,1,NA,NA,images/tutyellowplanet.jpg,null,images/tutalien3,null,images/tutalien3,images/t.png,NA,practice,null,NA,NA,NA,NA,sub142
d3-animate-choice,24,207651,0.0-24.0,FALSE,TRUE,FALSE,TRUE,"""event"",""trial"",""time""
""fullscreenenter"",""5"",""45661""
","
","
","""event"",""trial"",""time""
""fullscreenenter"",""5"",""45661""
","
",256.2450000550598,NA,49,NA,NA,3000,1,NA,NA,images/tutyellowplanet.jpg,null,images/tutalien3,null,images/tutalien3,images/t.png,NA,practice,null,NA,NA,NA,NA,sub142
d3-animate-choice,25,209958,0.0-25.0,FALSE,TRUE,FALSE,TRUE,"""event"",""trial"",""time""
""fullscreenenter"",""5"",""45661""
","
","
","""event"",""trial"",""time""
""fullscreenenter"",""5"",""45661""
","
",301.33499996736646,NA,49,NA,NA,3000,1,NA,NA,images/tutyellowplanet.jpg,null,images/tutalien3,null,images/tutalien3,images/nothing.png,NA,practice,null,NA,NA,NA,NA,sub142
d3-animate-choice,26,212402,0.0-26.0,FALSE,TRUE,FALSE,TRUE,"""event"",""trial"",""time""
""fullscreenenter"",""5"",""45661""
","
","
","""event"",""trial"",""time""
""fullscreenenter"",""5"",""45661""
","
",440.4649999924004,NA,49,NA,NA,3000,1,NA,NA,images/tutyellowplanet.jpg,null,images/tutalien3,null,images/tutalien3,images/t.png,NA,practice,null,NA,NA,NA,NA,sub142
d3-animate-choice,27,214886,0.0-27.0,FALSE,TRUE,FALSE,TRUE,"""event"",""trial"",""time""
""fullscreenenter"",""5"",""45661""
","
","
","""event"",""trial"",""time""
""fullscreenenter"",""5"",""45661""
","
",479.73000002093613,NA,49,NA,NA,3000,1,NA,NA,images/tutyellowplanet.jpg,null,images/tutalien3,null,images/tutalien3,images/t.png,NA,practice,null,NA,NA,NA,NA,sub142
d3-animate-choice,28,217333,0.0-28.0,FALSE,TRUE,FALSE,TRUE,"""event"",""trial"",""time""
""fullscreenenter"",""5"",""45661""
","
","
","""event"",""trial"",""time""
""fullscreenenter"",""5"",""45661""
","
",442.1800000127405,NA,49,NA,NA,3000,1,NA,NA,images/tutyellowplanet.jpg,null,images/tutalien3,null,images/tutalien3,images/t.png,NA,practice,null,NA,NA,NA,NA,sub142
d3-animate-choice,29,219409,0.0-29.0,FALSE,TRUE,FALSE,TRUE,"""event"",""trial"",""time""
""fullscreenenter"",""5"",""45661""
","
","
","""event"",""trial"",""time""
""fullscreenenter"",""5"",""45661""
","
",71.31000002846122,NA,49,NA,NA,3000,1,NA,NA,images/tutyellowplanet.jpg,null,images/tutalien3,null,images/tutalien3,images/t.png,NA,practice,null,NA,NA,NA,NA,sub142
d3-instructions,30,228961,0.0-30.0,FALSE,TRUE,FALSE,TRUE,"""event"",""trial"",""time""
""fullscreenenter"",""5"",""45661""
","
","
","""event"",""trial"",""time""
""fullscreenenter"",""5"",""45661""
","
",NA,NA,NA,NA,NA,NA,NA,NA,NA,NA,NA,NA,NA,NA,NA,NA,NA,NA,NA,NA,NA,NA,sub142
d3-instructions,31,241178,0.0-31.0,FALSE,TRUE,FALSE,TRUE,"""event"",""trial"",""time""
""fullscreenenter"",""5"",""45661""
","
","
","""event"",""trial"",""time""
""fullscreenenter"",""5"",""45661""
","
",NA,NA,NA,NA,NA,NA,NA,NA,NA,NA,NA,NA,NA,NA,NA,NA,NA,NA,NA,NA,NA,NA,sub142
d3-instructions,32,250833,0.0-32.0,FALSE,TRUE,FALSE,TRUE,"""event"",""trial"",""time""
""fullscreenenter"",""5"",""45661""
","
","
","""event"",""trial"",""time""
""fullscreenenter"",""5"",""45661""
","
",NA,NA,NA,NA,NA,NA,NA,NA,NA,NA,NA,NA,NA,NA,NA,NA,NA,NA,NA,NA,NA,NA,sub142
d3-instructions,33,263231,0.0-33.0,FALSE,TRUE,FALSE,TRUE,"""event"",""trial"",""time""
""fullscreenenter"",""5"",""45661""
","
","
","""event"",""trial"",""time""
""fullscreenenter"",""5"",""45661""
","
",NA,NA,NA,NA,NA,NA,NA,NA,NA,NA,NA,NA,NA,NA,NA,NA,NA,NA,NA,NA,NA,NA,sub142
d3-animate-choice,34,267163,0.0-34.0,FALSE,TRUE,FALSE,TRUE,"""event"",""trial"",""time""
""fullscreenenter"",""5"",""45661""
","
","
","""event"",""trial"",""time""
""fullscreenenter"",""5"",""45661""
","
",1928.950000088662,NA,49,NA,NA,3000,1,NA,NA,images/tutgreenplanet.jpg,images/tutalien1,images/tutalien2,null,images/tutalien2,images/t.png,NA,practice,null,NA,NA,NA,NA,sub142
d3-animate-choice,35,269983,0.0-35.0,FALSE,TRUE,FALSE,TRUE,"""event"",""trial"",""time""
""fullscreenenter"",""5"",""45661""
","
","
","""event"",""trial"",""time""
""fullscreenenter"",""5"",""45661""
","
",813.274999964051,NA,49,NA,NA,3000,1,NA,NA,images/tutgreenplanet.jpg,images/tutalien1,images/tutalien2,null,images/tutalien2,images/t.png,NA,practice,null,NA,NA,NA,NA,sub142
d3-animate-choice,36,272311,0.0-36.0,FALSE,TRUE,FALSE,TRUE,"""event"",""trial"",""time""
""fullscreenenter"",""5"",""45661""
","
","
","""event"",""trial"",""time""
""fullscreenenter"",""5"",""45661""
","
",322.41000002250075,NA,49,NA,NA,3000,1,1938.39999998454,49,images/tutgreenplanet.jpg,images/tutalien1,images/tutalien2,null,images/tutalien2,images/t.png,NA,practice,null,NA,NA,NA,NA,sub142
d3-animate-choice,37,274622,0.0-37.0,FALSE,TRUE,FALSE,TRUE,"""event"",""trial"",""time""
""fullscreenenter"",""5"",""45661""
","
","
","""event"",""trial"",""time""
""fullscreenenter"",""5"",""45661""
","
",304.70999993849546,NA,49,NA,NA,3000,1,NA,NA,images/tutgreenplanet.jpg,images/tutalien1,images/tutalien2,null,images/tutalien2,images/t.png,NA,practice,null,NA,NA,NA,NA,sub142
d3-animate-choice,38,276874,0.0-38.0,FALSE,TRUE,FALSE,TRUE,"""event"",""trial"",""time""
""fullscreenenter"",""5"",""45661""
","
","
","""event"",""trial"",""time""
""fullscreenenter"",""5"",""45661""
","
",249.76999999489635,NA,49,NA,NA,3000,1,NA,NA,images/tutgreenplanet.jpg,images/tutalien1,images/tutalien2,null,images/tutalien2,images/t.png,NA,practice,null,NA,NA,NA,NA,sub142
d3-animate-choice,39,279202,0.0-39.0,FALSE,TRUE,FALSE,TRUE,"""event"",""trial"",""time""
""fullscreenenter"",""5"",""45661""
","
","
","""event"",""trial"",""time""
""fullscreenenter"",""5"",""45661""
","
",324.665000080131,NA,49,NA,NA,3000,1,NA,NA,images/tutgreenplanet.jpg,images/tutalien1,images/tutalien2,null,images/tutalien2,images/t.png,NA,practice,null,NA,NA,NA,NA,sub142
d3-animate-choice,40,281518,0.0-40.0,FALSE,TRUE,FALSE,TRUE,"""event"",""trial"",""time""
""fullscreenenter"",""5"",""45661""
","
","
","""event"",""trial"",""time""
""fullscreenenter"",""5"",""45661""
","
",311.99499999638647,NA,49,NA,NA,3000,1,NA,NA,images/tutgreenplanet.jpg,images/tutalien1,images/tutalien2,null,images/tutalien2,images/t.png,NA,practice,null,NA,NA,NA,NA,sub142
d3-animate-choice,41,283817,0.0-41.0,FALSE,TRUE,FALSE,TRUE,"""event"",""trial"",""time""
""fullscreenenter"",""5"",""45661""
","
","
","""event"",""trial"",""time""
""fullscreenenter"",""5"",""45661""
","
",291.3549999939278,NA,48,NA,NA,3000,1,NA,NA,images/tutgreenplanet.jpg,images/tutalien1,images/tutalien2,null,images/tutalien1,images/nothing.png,NA,practice,null,NA,NA,NA,NA,sub142
d3-animate-choice,42,286058,0.0-42.0,FALSE,TRUE,FALSE,TRUE,"""event"",""trial"",""time""
""fullscreenenter"",""5"",""45661""
","
","
","""event"",""trial"",""time""
""fullscreenenter"",""5"",""45661""
","
",238.44999994616956,NA,49,NA,NA,3000,1,NA,NA,images/tutgreenplanet.jpg,images/tutalien1,images/tutalien2,null,images/tutalien2,images/t.png,NA,practice,null,NA,NA,NA,NA,sub142
d3-animate-choice,43,288380,0.0-43.0,FALSE,TRUE,FALSE,TRUE,"""event"",""trial"",""time""
""fullscreenenter"",""5"",""45661""
","
","
","""event"",""trial"",""time""
""fullscreenenter"",""5"",""45661""
","
",319.42999991588295,NA,49,NA,NA,3000,1,NA,NA,images/tutgreenplanet.jpg,images/tutalien1,images/tutalien2,null,images/tutalien2,images/t.png,NA,practice,null,NA,NA,NA,NA,sub142
d3-instructions,44,303052,0.0-44.0,FALSE,TRUE,FALSE,TRUE,"""event"",""trial"",""time""
""fullscreenenter"",""5"",""45661""
","
","
","""event"",""trial"",""time""
""fullscreenenter"",""5"",""45661""
","
",NA,NA,NA,NA,NA,NA,NA,NA,NA,NA,NA,NA,NA,NA,NA,NA,NA,NA,NA,NA,NA,NA,sub142
d3-instructions,45,310093,0.0-45.0,FALSE,TRUE,FALSE,TRUE,"""event"",""trial"",""time""
""fullscreenenter"",""5"",""45661""
","
","
","""event"",""trial"",""time""
""fullscreenenter"",""5"",""45661""
","
",NA,NA,NA,NA,NA,NA,NA,NA,NA,NA,NA,NA,NA,NA,NA,NA,NA,NA,NA,NA,NA,NA,sub142
d3-instructions,46,316149,0.0-46.0,FALSE,TRUE,FALSE,TRUE,"""event"",""trial"",""time""
""fullscreenenter"",""5"",""45661""
","
","
","""event"",""trial"",""time""
""fullscreenenter"",""5"",""45661""
","
",NA,NA,NA,NA,NA,NA,NA,NA,NA,NA,NA,NA,NA,NA,NA,NA,NA,NA,NA,NA,NA,NA,sub142
d3-instructions,47,333013,0.0-47.0,FALSE,TRUE,FALSE,TRUE,"""event"",""trial"",""time""
""fullscreenenter"",""5"",""45661""
","
","
","""event"",""trial"",""time""
""fullscreenenter"",""5"",""45661""
","
",NA,NA,NA,NA,NA,NA,NA,NA,NA,NA,NA,NA,NA,NA,NA,NA,NA,NA,NA,NA,NA,NA,sub142
d3-instructions,48,340947,0.0-48.0,FALSE,TRUE,FALSE,TRUE,"""event"",""trial"",""time""
""fullscreenenter"",""5"",""45661""
","
","
","""event"",""trial"",""time""
""fullscreenenter"",""5"",""45661""
","
",NA,NA,NA,NA,NA,NA,NA,NA,NA,NA,NA,NA,NA,NA,NA,NA,NA,NA,NA,NA,NA,NA,sub142
d3-instructions,49,352003,0.0-49.0,FALSE,TRUE,FALSE,TRUE,"""event"",""trial"",""time""
""fullscreenenter"",""5"",""45661""
","
","
","""event"",""trial"",""time""
""fullscreenenter"",""5"",""45661""
","
",NA,NA,NA,NA,NA,NA,NA,NA,NA,NA,NA,NA,NA,NA,NA,NA,NA,NA,NA,NA,NA,NA,sub142
d3-instructions,50,360525,0.0-50.0,FALSE,TRUE,FALSE,TRUE,"""event"",""trial"",""time""
""fullscreenenter"",""5"",""45661""
","
","
","""event"",""trial"",""time""
""fullscreenenter"",""5"",""45661""
","
",NA,NA,NA,NA,NA,NA,NA,NA,NA,NA,NA,NA,NA,NA,NA,NA,NA,NA,NA,NA,NA,NA,sub142
d3-instructions,51,363021,0.0-51.0,FALSE,TRUE,FALSE,TRUE,"""event"",""trial"",""time""
""fullscreenenter"",""5"",""45661""
","
","
","""event"",""trial"",""time""
""fullscreenenter"",""5"",""45661""
","
",NA,NA,NA,NA,NA,NA,NA,NA,NA,NA,NA,NA,NA,NA,NA,NA,NA,NA,NA,NA,NA,NA,sub142
d3-instructions,52,365675,0.0-52.0,FALSE,TRUE,FALSE,TRUE,"""event"",""trial"",""time""
""fullscreenenter"",""5"",""45661""
","
","
","""event"",""trial"",""time""
""fullscreenenter"",""5"",""45661""
","
",NA,NA,NA,NA,NA,NA,NA,NA,NA,NA,NA,NA,NA,NA,NA,NA,NA,NA,NA,NA,NA,NA,sub142
d3-instructions,53,377149,0.0-53.0,FALSE,TRUE,FALSE,TRUE,"""event"",""trial"",""time""
""fullscreenenter"",""5"",""45661""
","
","
","""event"",""trial"",""time""
""fullscreenenter"",""5"",""45661""
","
",NA,NA,NA,NA,NA,NA,NA,NA,NA,NA,NA,NA,NA,NA,NA,NA,NA,NA,NA,NA,NA,NA,sub142
d3-instructions,54,395617,0.0-54.0,FALSE,TRUE,FALSE,TRUE,"""event"",""trial"",""time""
""fullscreenenter"",""5"",""45661""
","
","
","""event"",""trial"",""time""
""fullscreenenter"",""5"",""45661""
","
",NA,NA,NA,NA,NA,NA,NA,NA,NA,NA,NA,NA,NA,NA,NA,NA,NA,NA,NA,NA,NA,NA,sub142
d3-instructions,55,407866,0.0-55.0,FALSE,TRUE,FALSE,TRUE,"""event"",""trial"",""time""
""fullscreenenter"",""5"",""45661""
","
","
","""event"",""trial"",""time""
""fullscreenenter"",""5"",""45661""
","
",NA,NA,NA,NA,NA,NA,NA,NA,NA,NA,NA,NA,NA,NA,NA,NA,NA,NA,NA,NA,NA,NA,sub142
d3-instructions,56,417523,0.0-56.0,FALSE,TRUE,FALSE,TRUE,"""event"",""trial"",""time""
""fullscreenenter"",""5"",""45661""
","
","
","""event"",""trial"",""time""
""fullscreenenter"",""5"",""45661""
","
",NA,NA,NA,NA,NA,NA,NA,NA,NA,NA,NA,NA,NA,NA,NA,NA,NA,NA,NA,NA,NA,NA,sub142
d3-instructions,57,430219,0.0-57.0,FALSE,TRUE,FALSE,TRUE,"""event"",""trial"",""time""
""fullscreenenter"",""5"",""45661""
","
","
","""event"",""trial"",""time""
""fullscreenenter"",""5"",""45661""
","
",NA,NA,NA,NA,NA,NA,NA,NA,NA,NA,NA,NA,NA,NA,NA,NA,NA,NA,NA,NA,NA,NA,sub142
d3-instructions,58,447009,0.0-58.0,FALSE,TRUE,FALSE,TRUE,"""event"",""trial"",""time""
""fullscreenenter"",""5"",""45661""
","
","
","""event"",""trial"",""time""
""fullscreenenter"",""5"",""45661""
","
",NA,NA,NA,NA,NA,NA,NA,NA,NA,NA,NA,NA,NA,NA,NA,NA,NA,NA,NA,NA,NA,NA,sub142
d3-instructions,59,463807,0.0-59.0,FALSE,TRUE,FALSE,TRUE,"""event"",""trial"",""time""
""fullscreenenter"",""5"",""45661""
","
","
","""event"",""trial"",""time""
""fullscreenenter"",""5"",""45661""
","
",NA,NA,NA,NA,NA,NA,NA,NA,NA,NA,NA,NA,NA,NA,NA,NA,NA,NA,NA,NA,NA,NA,sub142
d3-instructions,60,473794,0.0-60.0,FALSE,TRUE,FALSE,TRUE,"""event"",""trial"",""time""
""fullscreenenter"",""5"",""45661""
","
","
","""event"",""trial"",""time""
""fullscreenenter"",""5"",""45661""
","
",NA,NA,NA,NA,NA,NA,NA,NA,NA,NA,NA,NA,NA,NA,NA,NA,NA,NA,NA,NA,NA,NA,sub142
d3-animate-choice,61,477806,0.0-61.0-0.0,FALSE,TRUE,FALSE,TRUE,"""event"",""trial"",""time""
""fullscreenenter"",""5"",""45661""
","
","
","""event"",""trial"",""time""
""fullscreenenter"",""5"",""45661""
","
",null,NA,null,NA,NA,3000,0,NA,NA,images/earth.jpg,images/tutrocket2,images/tutrocket1,null,NA,NA,1,practice,null,NA,NA,NA,NA,sub142
d3-animate-choice,62,478818,0.0-61.0-1.0,FALSE,TRUE,FALSE,TRUE,"""event"",""trial"",""time""
""fullscreenenter"",""5"",""45661""
","
","
","""event"",""trial"",""time""
""fullscreenenter"",""5"",""45661""
","
",636.1249999608845,NA,49,NA,NA,0,0,NA,NA,images/earth.jpg,images/tutrocket2,images/tutrocket1,null,NA,NA,2,practice,null,1,0,2020-06-28T00:51:02Z,NA,sub142
two-step-fixation,63,479823,0.0-61.0-2.0,FALSE,TRUE,FALSE,TRUE,"""event"",""trial"",""time""
""fullscreenenter"",""5"",""45661""
","
","
","""event"",""trial"",""time""
""fullscreenenter"",""5"",""45661""
","
",NA,images/earth.jpg,NA,NA,NA,NA,NA,NA,NA,NA,NA,NA,NA,NA,NA,fixation,NA,NA,NA,NA,NA,NA,sub142
d3-animate-choice,64,482170,0.0-61.0-0.1,FALSE,TRUE,FALSE,TRUE,"""event"",""trial"",""time""
""fullscreenenter"",""5"",""45661""
","
","
","""event"",""trial"",""time""
""fullscreenenter"",""5"",""45661""
","
",343.27500010840595,NA,49,NA,NA,3000,1,NA,NA,images/earth.jpg,images/tutrocket2,images/tutrocket1,null,images/tutrocket1,NA,1,practice,null,1,NA,NA,NA,sub142
d3-animate-choice,65,485384,0.0-61.0-1.1,FALSE,TRUE,FALSE,TRUE,"""event"",""trial"",""time""
""fullscreenenter"",""5"",""45661""
","
","
","""event"",""trial"",""time""
""fullscreenenter"",""5"",""45661""
","
",1204.3350000167266,NA,49,NA,NA,3000,1,NA,NA,images/tutgreenplanet.jpg,images/tutalien2,images/tutalien1,images/tutrocket1,images/tutalien1,images/nothing.png,2,practice,true,1,0,2020-06-28T00:51:08Z,common,sub142
two-step-fixation,66,486390,0.0-61.0-2.1,FALSE,TRUE,FALSE,TRUE,"""event"",""trial"",""time""
""fullscreenenter"",""5"",""45661""
","
","
","""event"",""trial"",""time""
""fullscreenenter"",""5"",""45661""
","
",NA,images/earth.jpg,NA,NA,NA,NA,NA,NA,NA,NA,NA,NA,NA,NA,NA,fixation,NA,NA,NA,NA,NA,NA,sub142
d3-animate-choice,67,489560,0.0-61.0-0.2,FALSE,TRUE,FALSE,TRUE,"""event"",""trial"",""time""
""fullscreenenter"",""5"",""45661""
","
","
","""event"",""trial"",""time""
""fullscreenenter"",""5"",""45661""
","
",1164.1600000439212,NA,48,NA,NA,3000,1,NA,NA,images/earth.jpg,images/tutrocket2,images/tutrocket1,null,images/tutrocket2,NA,1,practice,null,2,NA,NA,NA,sub142
d3-animate-choice,68,492368,0.0-61.0-1.2,FALSE,TRUE,FALSE,TRUE,"""event"",""trial"",""time""
""fullscreenenter"",""5"",""45661""
","
","
","""event"",""trial"",""time""
""fullscreenenter"",""5"",""45661""
","
",801.0149999754503,NA,48,NA,NA,3000,1,NA,NA,images/tutyellowplanet.jpg,images/tutalien4,images/tutalien3,images/tutrocket2,images/tutalien4,images/t.png,2,practice,true,2,1,2020-06-28T00:51:15Z,common,sub142
two-step-fixation,69,493372,0.0-61.0-2.2,FALSE,TRUE,FALSE,TRUE,"""event"",""trial"",""time""
""fullscreenenter"",""5"",""45661""
","
","
","""event"",""trial"",""time""
""fullscreenenter"",""5"",""45661""
","
",NA,images/earth.jpg,NA,NA,NA,NA,NA,NA,NA,NA,NA,NA,NA,NA,NA,fixation,NA,NA,NA,NA,NA,NA,sub142
d3-animate-choice,70,495861,0.0-61.0-0.3,FALSE,TRUE,FALSE,TRUE,"""event"",""trial"",""time""
""fullscreenenter"",""5"",""45661""
","
","
","""event"",""trial"",""time""
""fullscreenenter"",""5"",""45661""
","
",483.31499996129423,NA,48,NA,NA,3000,1,NA,NA,images/earth.jpg,images/tutrocket2,images/tutrocket1,null,images/tutrocket2,NA,1,practice,null,2,NA,NA,NA,sub142
d3-animate-choice,71,498196,0.0-61.0-1.3,FALSE,TRUE,FALSE,TRUE,"""event"",""trial"",""time""
""fullscreenenter"",""5"",""45661""
","
","
","""event"",""trial"",""time""
""fullscreenenter"",""5"",""45661""
","
",327.4700000183657,NA,48,NA,NA,3000,1,NA,NA,images/tutyellowplanet.jpg,images/tutalien4,images/tutalien3,images/tutrocket2,images/tutalien4,images/nothing.png,2,practice,true,2,0,2020-06-28T00:51:21Z,common,sub142
two-step-fixation,72,499203,0.0-61.0-2.3,FALSE,TRUE,FALSE,TRUE,"""event"",""trial"",""time""
""fullscreenenter"",""5"",""45661""
","
","
","""event"",""trial"",""time""
""fullscreenenter"",""5"",""45661""
","
",NA,images/earth.jpg,NA,NA,NA,NA,NA,NA,NA,NA,NA,NA,NA,NA,NA,fixation,NA,NA,NA,NA,NA,NA,sub142
d3-animate-choice,73,501527,0.0-61.0-0.4,FALSE,TRUE,FALSE,TRUE,"""event"",""trial"",""time""
""fullscreenenter"",""5"",""45661""
","
","
","""event"",""trial"",""time""
""fullscreenenter"",""5"",""45661""
","
",318.19000001996756,NA,48,NA,NA,3000,1,1835.884999949485,49,images/earth.jpg,images/tutrocket2,images/tutrocket1,null,images/tutrocket2,NA,1,practice,null,2,NA,NA,NA,sub142
d3-animate-choice,74,503910,0.0-61.0-1.4,FALSE,TRUE,FALSE,TRUE,"""event"",""trial"",""time""
""fullscreenenter"",""5"",""45661""
","
","
","""event"",""trial"",""time""
""fullscreenenter"",""5"",""45661""
","
",375.23999996483326,NA,49,NA,NA,3000,1,NA,NA,images/tutgreenplanet.jpg,images/tutalien2,images/tutalien1,images/tutrocket2,images/tutalien1,images/nothing.png,2,practice,false,1,0,2020-06-28T00:51:27Z,rare,sub142
two-step-fixation,75,504914,0.0-61.0-2.4,FALSE,TRUE,FALSE,TRUE,"""event"",""trial"",""time""
""fullscreenenter"",""5"",""45661""
","
","
","""event"",""trial"",""time""
""fullscreenenter"",""5"",""45661""
","
",NA,images/earth.jpg,NA,NA,NA,NA,NA,NA,NA,NA,NA,NA,NA,NA,NA,fixation,NA,NA,NA,NA,NA,NA,sub142
d3-animate-choice,76,507639,0.0-61.0-0.5,FALSE,TRUE,FALSE,TRUE,"""event"",""trial"",""time""
""fullscreenenter"",""5"",""45661""
","
","
","""event"",""trial"",""time""
""fullscreenenter"",""5"",""45661""
","
",718.1100000161678,NA,49,NA,NA,3000,1,NA,NA,images/earth.jpg,images/tutrocket2,images/tutrocket1,null,images/tutrocket1,NA,1,practice,null,1,NA,NA,NA,sub142
d3-animate-choice,77,510603,0.0-61.0-1.5,FALSE,TRUE,FALSE,TRUE,"""event"",""trial"",""time""
""fullscreenenter"",""5"",""45661""
","
","
","""event"",""trial"",""time""
""fullscreenenter"",""5"",""45661""
","
",955.9349999763072,NA,49,NA,NA,3000,1,NA,NA,images/tutyellowplanet.jpg,images/tutalien4,images/tutalien3,images/tutrocket1,images/tutalien3,images/nothing.png,2,practice,false,1,0,2020-06-28T00:51:33Z,rare,sub142
two-step-fixation,78,511608,0.0-61.0-2.5,FALSE,TRUE,FALSE,TRUE,"""event"",""trial"",""time""
""fullscreenenter"",""5"",""45661""
","
","
","""event"",""trial"",""time""
""fullscreenenter"",""5"",""45661""
","
",NA,images/earth.jpg,NA,NA,NA,NA,NA,NA,NA,NA,NA,NA,NA,NA,NA,fixation,NA,NA,NA,NA,NA,NA,sub142
d3-animate-choice,79,513957,0.0-61.0-0.6,FALSE,TRUE,FALSE,TRUE,"""event"",""trial"",""time""
""fullscreenenter"",""5"",""45661""
","
","
","""event"",""trial"",""time""
""fullscreenenter"",""5"",""45661""
","
",342.7949999459088,NA,48,NA,NA,3000,1,NA,NA,images/earth.jpg,images/tutrocket2,images/tutrocket1,null,images/tutrocket2,NA,1,practice,null,2,NA,NA,NA,sub142
d3-animate-choice,80,516595,0.0-61.0-1.6,FALSE,TRUE,FALSE,TRUE,"""event"",""trial"",""time""
""fullscreenenter"",""5"",""45661""
","
","
","""event"",""trial"",""time""
""fullscreenenter"",""5"",""45661""
","
",631.2349999789149,NA,49,NA,NA,3000,1,NA,NA,images/tutyellowplanet.jpg,images/tutalien4,images/tutalien3,images/tutrocket2,images/tutalien3,images/t.png,2,practice,true,1,1,2020-06-28T00:51:39Z,common,sub142
two-step-fixation,81,517599,0.0-61.0-2.6,FALSE,TRUE,FALSE,TRUE,"""event"",""trial"",""time""
""fullscreenenter"",""5"",""45661""
","
","
","""event"",""trial"",""time""
""fullscreenenter"",""5"",""45661""
","
",NA,images/earth.jpg,NA,NA,NA,NA,NA,NA,NA,NA,NA,NA,NA,NA,NA,fixation,NA,NA,NA,NA,NA,NA,sub142
d3-animate-choice,82,519932,0.0-61.0-0.7,FALSE,TRUE,FALSE,TRUE,"""event"",""trial"",""time""
""fullscreenenter"",""5"",""45661""
","
","
","""event"",""trial"",""time""
""fullscreenenter"",""5"",""45661""
","
",328.6699999589473,NA,48,NA,NA,3000,1,NA,NA,images/earth.jpg,images/tutrocket2,images/tutrocket1,null,images/tutrocket2,NA,1,practice,null,2,NA,NA,NA,sub142
d3-animate-choice,83,522341,0.0-61.0-1.7,FALSE,TRUE,FALSE,TRUE,"""event"",""trial"",""time""
""fullscreenenter"",""5"",""45661""
","
","
","""event"",""trial"",""time""
""fullscreenenter"",""5"",""45661""
","
",403.7399999797344,NA,49,NA,NA,3000,1,NA,NA,images/tutyellowplanet.jpg,images/tutalien4,images/tutalien3,images/tutrocket2,images/tutalien3,images/nothing.png,2,practice,true,1,0,2020-06-28T00:51:45Z,common,sub142
two-step-fixation,84,523346,0.0-61.0-2.7,FALSE,TRUE,FALSE,TRUE,"""event"",""trial"",""time""
""fullscreenenter"",""5"",""45661""
","
","
","""event"",""trial"",""time""
""fullscreenenter"",""5"",""45661""
","
",NA,images/earth.jpg,NA,NA,NA,NA,NA,NA,NA,NA,NA,NA,NA,NA,NA,fixation,NA,NA,NA,NA,NA,NA,sub142
d3-animate-choice,85,525723,0.0-61.0-0.8,FALSE,TRUE,FALSE,TRUE,"""event"",""trial"",""time""
""fullscreenenter"",""5"",""45661""
","
","
","""event"",""trial"",""time""
""fullscreenenter"",""5"",""45661""
","
",371.7449998948723,NA,48,NA,NA,3000,1,NA,NA,images/earth.jpg,images/tutrocket2,images/tutrocket1,null,images/tutrocket2,NA,1,practice,null,2,NA,NA,NA,sub142
d3-animate-choice,86,528147,0.0-61.0-1.8,FALSE,TRUE,FALSE,TRUE,"""event"",""trial"",""time""
""fullscreenenter"",""5"",""45661""
","
","
","""event"",""trial"",""time""
""fullscreenenter"",""5"",""45661""
","
",415.87499994784594,NA,48,NA,NA,3000,1,NA,NA,images/tutyellowplanet.jpg,images/tutalien4,images/tutalien3,images/tutrocket2,images/tutalien4,images/nothing.png,2,practice,true,2,0,2020-06-28T00:51:51Z,common,sub142
two-step-fixation,87,529151,0.0-61.0-2.8,FALSE,TRUE,FALSE,TRUE,"""event"",""trial"",""time""
""fullscreenenter"",""5"",""45661""
","
","
","""event"",""trial"",""time""
""fullscreenenter"",""5"",""45661""
","
",NA,images/earth.jpg,NA,NA,NA,NA,NA,NA,NA,NA,NA,NA,NA,NA,NA,fixation,NA,NA,NA,NA,NA,NA,sub142
d3-animate-choice,88,531479,0.0-61.0-0.9,FALSE,TRUE,FALSE,TRUE,"""event"",""trial"",""time""
""fullscreenenter"",""5"",""45661""
","
","
","""event"",""trial"",""time""
""fullscreenenter"",""5"",""45661""
","
",321.7449999647215,NA,48,NA,NA,3000,1,NA,NA,images/earth.jpg,images/tutrocket2,images/tutrocket1,null,images/tutrocket2,NA,1,practice,null,2,NA,NA,NA,sub142
d3-animate-choice,89,533926,0.0-61.0-1.9,FALSE,TRUE,FALSE,TRUE,"""event"",""trial"",""time""
""fullscreenenter"",""5"",""45661""
","
","
","""event"",""trial"",""time""
""fullscreenenter"",""5"",""45661""
","
",441.47499999962747,NA,49,NA,NA,3000,1,NA,NA,images/tutgreenplanet.jpg,images/tutalien2,images/tutalien1,images/tutrocket2,images/tutalien1,images/nothing.png,2,practice,false,1,0,2020-06-28T00:51:57Z,rare,sub142
two-step-fixation,90,534930,0.0-61.0-2.9,FALSE,TRUE,FALSE,TRUE,"""event"",""trial"",""time""
""fullscreenenter"",""5"",""45661""
","
","
","""event"",""trial"",""time""
""fullscreenenter"",""5"",""45661""
","
",NA,images/earth.jpg,NA,NA,NA,NA,NA,NA,NA,NA,NA,NA,NA,NA,NA,fixation,NA,NA,NA,NA,NA,NA,sub142
d3-animate-choice,91,537304,0.0-61.0-0.10,FALSE,TRUE,FALSE,TRUE,"""event"",""trial"",""time""
""fullscreenenter"",""5"",""45661""
","
","
","""event"",""trial"",""time""
""fullscreenenter"",""5"",""45661""
","
",367.8899999940768,NA,49,NA,NA,3000,1,NA,NA,images/earth.jpg,images/tutrocket2,images/tutrocket1,null,images/tutrocket1,NA,1,practice,null,1,NA,NA,NA,sub142
d3-animate-choice,92,539629,0.0-61.0-1.10,FALSE,TRUE,FALSE,TRUE,"""event"",""trial"",""time""
""fullscreenenter"",""5"",""45661""
","
","
","""event"",""trial"",""time""
""fullscreenenter"",""5"",""45661""
","
",315.04000001586974,NA,49,NA,NA,3000,1,NA,NA,images/tutgreenplanet.jpg,images/tutalien2,images/tutalien1,images/tutrocket1,images/tutalien1,images/t.png,2,practice,true,1,1,2020-06-28T00:52:02Z,common,sub142
two-step-fixation,93,540634,0.0-61.0-2.10,FALSE,TRUE,FALSE,TRUE,"""event"",""trial"",""time""
""fullscreenenter"",""5"",""45661""
","
","
","""event"",""trial"",""time""
""fullscreenenter"",""5"",""45661""
","
",NA,images/earth.jpg,NA,NA,NA,NA,NA,NA,NA,NA,NA,NA,NA,NA,NA,fixation,NA,NA,NA,NA,NA,NA,sub142
d3-animate-choice,94,543515,0.0-61.0-0.11,FALSE,TRUE,FALSE,TRUE,"""event"",""trial"",""time""
""fullscreenenter"",""5"",""45661""
","
","
","""event"",""trial"",""time""
""fullscreenenter"",""5"",""45661""
","
",873.8000000594184,NA,49,NA,NA,3000,1,NA,NA,images/earth.jpg,images/tutrocket2,images/tutrocket1,null,images/tutrocket1,NA,1,practice,null,1,NA,NA,NA,sub142
d3-animate-choice,95,546331,0.0-61.0-1.11,FALSE,TRUE,FALSE,TRUE,"""event"",""trial"",""time""
""fullscreenenter"",""5"",""45661""
","
","
","""event"",""trial"",""time""
""fullscreenenter"",""5"",""45661""
","
",809.6749999094754,NA,49,NA,NA,3000,1,NA,NA,images/tutgreenplanet.jpg,images/tutalien2,images/tutalien1,images/tutrocket1,images/tutalien1,images/nothing.png,2,practice,true,1,0,2020-06-28T00:52:09Z,common,sub142
two-step-fixation,96,547333,0.0-61.0-2.11,FALSE,TRUE,FALSE,TRUE,"""event"",""trial"",""time""
""fullscreenenter"",""5"",""45661""
","
","
","""event"",""trial"",""time""
""fullscreenenter"",""5"",""45661""
","
",NA,images/earth.jpg,NA,NA,NA,NA,NA,NA,NA,NA,NA,NA,NA,NA,NA,fixation,NA,NA,NA,NA,NA,NA,sub142
d3-animate-choice,97,550009,0.0-61.0-0.12,FALSE,TRUE,FALSE,TRUE,"""event"",""trial"",""time""
""fullscreenenter"",""5"",""45661""
","
","
","""event"",""trial"",""time""
""fullscreenenter"",""5"",""45661""
","
",671.5550000080839,NA,48,NA,NA,3000,1,NA,NA,images/earth.jpg,images/tutrocket2,images/tutrocket1,null,images/tutrocket2,NA,1,practice,null,2,NA,NA,NA,sub142
d3-animate-choice,98,553012,0.0-61.0-1.12,FALSE,TRUE,FALSE,TRUE,"""event"",""trial"",""time""
""fullscreenenter"",""5"",""45661""
","
","
","""event"",""trial"",""time""
""fullscreenenter"",""5"",""45661""
","
",997.5200000917539,NA,49,NA,NA,3000,1,NA,NA,images/tutyellowplanet.jpg,images/tutalien4,images/tutalien3,images/tutrocket2,images/tutalien3,images/t.png,2,practice,true,1,1,2020-06-28T00:52:16Z,common,sub142
two-step-fixation,99,554014,0.0-61.0-2.12,FALSE,TRUE,FALSE,TRUE,"""event"",""trial"",""time""
""fullscreenenter"",""5"",""45661""
","
","
","""event"",""trial"",""time""
""fullscreenenter"",""5"",""45661""
","
",NA,images/earth.jpg,NA,NA,NA,NA,NA,NA,NA,NA,NA,NA,NA,NA,NA,fixation,NA,NA,NA,NA,NA,NA,sub142
d3-animate-choice,100,556708,0.0-61.0-0.13,FALSE,TRUE,FALSE,TRUE,"""event"",""trial"",""time""
""fullscreenenter"",""5"",""45661""
","
","
","""event"",""trial"",""time""
""fullscreenenter"",""5"",""45661""
","
",686.8400000967085,NA,48,NA,NA,3000,1,NA,NA,images/earth.jpg,images/tutrocket2,images/tutrocket1,null,images/tutrocket2,NA,1,practice,null,2,NA,NA,NA,sub142
d3-animate-choice,101,559304,0.0-61.0-1.13,FALSE,TRUE,FALSE,TRUE,"""event"",""trial"",""time""
""fullscreenenter"",""5"",""45661""
","
","
","""event"",""trial"",""time""
""fullscreenenter"",""5"",""45661""
","
",591.2799999350682,NA,49,NA,NA,3000,1,NA,NA,images/tutyellowplanet.jpg,images/tutalien4,images/tutalien3,images/tutrocket2,images/tutalien3,images/nothing.png,2,practice,true,1,0,2020-06-28T00:52:22Z,common,sub142
two-step-fixation,102,560307,0.0-61.0-2.13,FALSE,TRUE,FALSE,TRUE,"""event"",""trial"",""time""
""fullscreenenter"",""5"",""45661""
","
","
","""event"",""trial"",""time""
""fullscreenenter"",""5"",""45661""
","
",NA,images/earth.jpg,NA,NA,NA,NA,NA,NA,NA,NA,NA,NA,NA,NA,NA,fixation,NA,NA,NA,NA,NA,NA,sub142
d3-animate-choice,103,562606,0.0-61.0-0.14,FALSE,TRUE,FALSE,TRUE,"""event"",""trial"",""time""
""fullscreenenter"",""5"",""45661""
","
","
","""event"",""trial"",""time""
""fullscreenenter"",""5"",""45661""
","
",293.1050000479445,NA,48,NA,NA,3000,1,NA,NA,images/earth.jpg,images/tutrocket2,images/tutrocket1,null,images/tutrocket2,NA,1,practice,null,2,NA,NA,NA,sub142
d3-animate-choice,104,565079,0.0-61.0-1.14,FALSE,TRUE,FALSE,TRUE,"""event"",""trial"",""time""
""fullscreenenter"",""5"",""45661""
","
","
","""event"",""trial"",""time""
""fullscreenenter"",""5"",""45661""
","
",466.00000001490116,NA,48,NA,NA,3000,1,NA,NA,images/tutyellowplanet.jpg,images/tutalien4,images/tutalien3,images/tutrocket2,images/tutalien4,images/t.png,2,practice,true,2,1,2020-06-28T00:52:28Z,common,sub142
two-step-fixation,105,566086,0.0-61.0-2.14,FALSE,TRUE,FALSE,TRUE,"""event"",""trial"",""time""
""fullscreenenter"",""5"",""45661""
","
","
","""event"",""trial"",""time""
""fullscreenenter"",""5"",""45661""
","
",NA,images/earth.jpg,NA,NA,NA,NA,NA,NA,NA,NA,NA,NA,NA,NA,NA,fixation,NA,NA,NA,NA,NA,NA,sub142
d3-animate-choice,106,568875,0.0-61.0-0.15,FALSE,TRUE,FALSE,TRUE,"""event"",""trial"",""time""
""fullscreenenter"",""5"",""45661""
","
","
","""event"",""trial"",""time""
""fullscreenenter"",""5"",""45661""
","
",781.8599999882281,NA,49,NA,NA,3000,1,NA,NA,images/earth.jpg,images/tutrocket2,images/tutrocket1,null,images/tutrocket1,NA,1,practice,null,1,NA,NA,NA,sub142
d3-animate-choice,107,571296,0.0-61.0-1.15,FALSE,TRUE,FALSE,TRUE,"""event"",""trial"",""time""
""fullscreenenter"",""5"",""45661""
","
","
","""event"",""trial"",""time""
""fullscreenenter"",""5"",""45661""
","
",415.6299999449402,NA,48,NA,NA,3000,1,NA,NA,images/tutgreenplanet.jpg,images/tutalien2,images/tutalien1,images/tutrocket1,images/tutalien2,images/nothing.png,2,practice,true,2,0,2020-06-28T00:52:34Z,common,sub142
two-step-fixation,108,572300,0.0-61.0-2.15,FALSE,TRUE,FALSE,TRUE,"""event"",""trial"",""time""
""fullscreenenter"",""5"",""45661""
","
","
","""event"",""trial"",""time""
""fullscreenenter"",""5"",""45661""
","
",NA,images/earth.jpg,NA,NA,NA,NA,NA,NA,NA,NA,NA,NA,NA,NA,NA,fixation,NA,NA,NA,NA,NA,NA,sub142
d3-animate-choice,109,574667,0.0-61.0-0.16,FALSE,TRUE,FALSE,TRUE,"""event"",""trial"",""time""
""fullscreenenter"",""5"",""45661""
","
","
","""event"",""trial"",""time""
""fullscreenenter"",""5"",""45661""
","
",362.6149999909103,NA,49,NA,NA,3000,1,NA,NA,images/earth.jpg,images/tutrocket2,images/tutrocket1,null,images/tutrocket1,NA,1,practice,null,1,NA,NA,NA,sub142
d3-animate-choice,110,577074,0.0-61.0-1.16,FALSE,TRUE,FALSE,TRUE,"""event"",""trial"",""time""
""fullscreenenter"",""5"",""45661""
","
","
","""event"",""trial"",""time""
""fullscreenenter"",""5"",""45661""
","
",399.89000000059605,NA,49,NA,NA,3000,1,NA,NA,images/tutgreenplanet.jpg,images/tutalien2,images/tutalien1,images/tutrocket1,images/tutalien1,images/nothing.png,2,practice,true,1,0,2020-06-28T00:52:40Z,common,sub142
two-step-fixation,111,578077,0.0-61.0-2.16,FALSE,TRUE,FALSE,TRUE,"""event"",""trial"",""time""
""fullscreenenter"",""5"",""45661""
","
","
","""event"",""trial"",""time""
""fullscreenenter"",""5"",""45661""
","
",NA,images/earth.jpg,NA,NA,NA,NA,NA,NA,NA,NA,NA,NA,NA,NA,NA,fixation,NA,NA,NA,NA,NA,NA,sub142
d3-animate-choice,112,580380,0.0-61.0-0.17,FALSE,TRUE,FALSE,TRUE,"""event"",""trial"",""time""
""fullscreenenter"",""5"",""45661""
","
","
","""event"",""trial"",""time""
""fullscreenenter"",""5"",""45661""
","
",295.74000008869916,NA,49,NA,NA,3000,1,NA,NA,images/earth.jpg,images/tutrocket2,images/tutrocket1,null,images/tutrocket1,NA,1,practice,null,1,NA,NA,NA,sub142
d3-animate-choice,113,582713,0.0-61.0-1.17,FALSE,TRUE,FALSE,TRUE,"""event"",""trial"",""time""
""fullscreenenter"",""5"",""45661""
","
","
","""event"",""trial"",""time""
""fullscreenenter"",""5"",""45661""
","
",324.4900000281632,NA,49,NA,NA,3000,1,NA,NA,images/tutyellowplanet.jpg,images/tutalien4,images/tutalien3,images/tutrocket1,images/tutalien3,images/t.png,2,practice,false,1,1,2020-06-28T00:52:45Z,rare,sub142
two-step-fixation,114,583716,0.0-61.0-2.17,FALSE,TRUE,FALSE,TRUE,"""event"",""trial"",""time""
""fullscreenenter"",""5"",""45661""
","
","
","""event"",""trial"",""time""
""fullscreenenter"",""5"",""45661""
","
",NA,images/earth.jpg,NA,NA,NA,NA,NA,NA,NA,NA,NA,NA,NA,NA,NA,fixation,NA,NA,NA,NA,NA,NA,sub142
d3-animate-choice,115,586140,0.0-61.0-0.18,FALSE,TRUE,FALSE,TRUE,"""event"",""trial"",""time""
""fullscreenenter"",""5"",""45661""
","
","
","""event"",""trial"",""time""
""fullscreenenter"",""5"",""45661""
","
",416.68000002391636,NA,48,NA,NA,3000,1,NA,NA,images/earth.jpg,images/tutrocket2,images/tutrocket1,null,images/tutrocket2,NA,1,practice,null,2,NA,NA,NA,sub142
d3-animate-choice,116,588706,0.0-61.0-1.18,FALSE,TRUE,FALSE,TRUE,"""event"",""trial"",""time""
""fullscreenenter"",""5"",""45661""
","
","
","""event"",""trial"",""time""
""fullscreenenter"",""5"",""45661""
","
",559.0699999593198,NA,49,NA,NA,3000,1,NA,NA,images/tutgreenplanet.jpg,images/tutalien2,images/tutalien1,images/tutrocket2,images/tutalien1,images/nothing.png,2,practice,false,1,0,2020-06-28T00:52:51Z,rare,sub142
two-step-fixation,117,589708,0.0-61.0-2.18,FALSE,TRUE,FALSE,TRUE,"""event"",""trial"",""time""
""fullscreenenter"",""5"",""45661""
","
","
","""event"",""trial"",""time""
""fullscreenenter"",""5"",""45661""
","
",NA,images/earth.jpg,NA,NA,NA,NA,NA,NA,NA,NA,NA,NA,NA,NA,NA,fixation,NA,NA,NA,NA,NA,NA,sub142
d3-animate-choice,118,592206,0.0-61.0-0.19,FALSE,TRUE,FALSE,TRUE,"""event"",""trial"",""time""
""fullscreenenter"",""5"",""45661""
","
","
","""event"",""trial"",""time""
""fullscreenenter"",""5"",""45661""
","
",489.8749999701977,NA,48,NA,NA,3000,1,NA,NA,images/earth.jpg,images/tutrocket2,images/tutrocket1,null,images/tutrocket2,NA,1,practice,null,2,NA,NA,NA,sub142
d3-animate-choice,119,594662,0.0-61.0-1.19,FALSE,TRUE,FALSE,TRUE,"""event"",""trial"",""time""
""fullscreenenter"",""5"",""45661""
","
","
","""event"",""trial"",""time""
""fullscreenenter"",""5"",""45661""
","
",449.4499999564141,NA,49,NA,NA,3000,1,NA,NA,images/tutgreenplanet.jpg,images/tutalien2,images/tutalien1,images/tutrocket2,images/tutalien1,images/nothing.png,2,practice,false,1,0,2020-06-28T00:52:57Z,rare,sub142
two-step-fixation,120,595666,0.0-61.0-2.19,FALSE,TRUE,FALSE,TRUE,"""event"",""trial"",""time""
""fullscreenenter"",""5"",""45661""
","
","
","""event"",""trial"",""time""
""fullscreenenter"",""5"",""45661""
","
",NA,images/earth.jpg,NA,NA,NA,NA,NA,NA,NA,NA,NA,NA,NA,NA,NA,fixation,NA,NA,NA,NA,NA,NA,sub142
d3-instructions,121,604558,0.0-62.0,FALSE,TRUE,FALSE,TRUE,"""event"",""trial"",""time""
""fullscreenenter"",""5"",""45661""
","
","
","""event"",""trial"",""time""
""fullscreenenter"",""5"",""45661""
","
",NA,NA,NA,NA,NA,NA,NA,NA,NA,NA,NA,NA,NA,NA,NA,NA,NA,NA,NA,NA,NA,NA,sub142
audio-keyboard-response,122,613319,0.0-63.0,FALSE,TRUE,FALSE,TRUE,"""event"",""trial"",""time""
""fullscreenenter"",""5"",""45661""
","
","
","""event"",""trial"",""time""
""fullscreenenter"",""5"",""45661""
","
",8760,audio/instructions/treasure_feedback.wav,32,NA,NA,NA,NA,NA,NA,NA,NA,NA,NA,NA,NA,NA,NA,NA,NA,NA,NA,NA,sub142
d3-instructions,123,634266,0.0-64.0,FALSE,TRUE,FALSE,TRUE,"""event"",""trial"",""time""
""fullscreenenter"",""5"",""45661""
","
","
","""event"",""trial"",""time""
""fullscreenenter"",""5"",""45661""
","
",NA,NA,NA,NA,NA,NA,NA,NA,NA,NA,NA,NA,NA,NA,NA,NA,NA,NA,NA,NA,NA,NA,sub142
d3-instructions,124,649229,0.0-65.0,FALSE,TRUE,FALSE,TRUE,"""event"",""trial"",""time""
""fullscreenenter"",""5"",""45661""
","
","
","""event"",""trial"",""time""
""fullscreenenter"",""5"",""45661""
","
",NA,NA,NA,NA,NA,NA,NA,NA,NA,NA,NA,NA,NA,NA,NA,NA,NA,NA,NA,NA,NA,NA,sub142
d3-instructions,125,681119,0.0-66.0,FALSE,TRUE,FALSE,TRUE,"""event"",""trial"",""time""
""fullscreenenter"",""5"",""45661""
","
","
","""event"",""trial"",""time""
""fullscreenenter"",""5"",""45661""
","
",NA,NA,NA,NA,NA,NA,NA,NA,NA,NA,NA,NA,NA,NA,NA,NA,NA,NA,NA,NA,NA,NA,sub142
d3-instructions,126,699881,0.0-67.0,FALSE,TRUE,FALSE,TRUE,"""event"",""trial"",""time""
""fullscreenenter"",""5"",""45661""
","
","
","""event"",""trial"",""time""
""fullscreenenter"",""5"",""45661""
","
",NA,NA,NA,NA,NA,NA,NA,NA,NA,NA,NA,NA,NA,NA,NA,NA,NA,NA,NA,NA,NA,NA,sub142
d3-instructions,127,709893,0.0-68.0,FALSE,TRUE,FALSE,TRUE,"""event"",""trial"",""time""
""fullscreenenter"",""5"",""45661""
","
","
","""event"",""trial"",""time""
""fullscreenenter"",""5"",""45661""
","
",NA,NA,NA,NA,NA,NA,NA,NA,NA,NA,NA,NA,NA,NA,NA,NA,NA,NA,NA,NA,NA,NA,sub142
instructions-quiz,128,714598,0.0-69.0,FALSE,TRUE,FALSE,TRUE,"""event"",""trial"",""time""
""fullscreenenter"",""5"",""45661""
","
","
","""event"",""trial"",""time""
""fullscreenenter"",""5"",""45661""
","
",4704.124999931082,audio/quiz/Q1_Prompt.wav,NA,1,NA,NA,NA,NA,NA,NA,NA,NA,NA,NA,NA,NA,NA,NA,NA,NA,NA,NA,sub142
audio-keyboard-response,129,723772,0.0-70.0,FALSE,TRUE,FALSE,TRUE,"""event"",""trial"",""time""
""fullscreenenter"",""5"",""45661""
","
","
","""event"",""trial"",""time""
""fullscreenenter"",""5"",""45661""
","
",null,audio/quiz/Q1_Correct.wav,null,NA,NA,NA,NA,NA,NA,NA,NA,NA,NA,NA,NA,NA,NA,NA,NA,NA,NA,NA,sub142
instructions-quiz,130,728494,0.0-71.0,FALSE,TRUE,FALSE,TRUE,"""event"",""trial"",""time""
""fullscreenenter"",""5"",""45661""
","
","
","""event"",""trial"",""time""
""fullscreenenter"",""5"",""45661""
","
",4721.420000074431,audio/quiz/Q2_Prompt.wav,NA,0,NA,NA,NA,NA,NA,NA,NA,NA,NA,NA,NA,NA,NA,NA,NA,NA,NA,NA,sub142
audio-keyboard-response,131,741361,0.0-72.0,FALSE,TRUE,FALSE,TRUE,"""event"",""trial"",""time""
""fullscreenenter"",""5"",""45661""
","
","
","""event"",""trial"",""time""
""fullscreenenter"",""5"",""45661""
","
",null,audio/quiz/Q2_Correct.wav,null,NA,NA,NA,NA,NA,NA,NA,NA,NA,NA,NA,NA,NA,NA,NA,NA,NA,NA,NA,sub142
instructions-quiz,132,746792,0.0-73.0,FALSE,TRUE,FALSE,TRUE,"""event"",""trial"",""time""
""fullscreenenter"",""5"",""45661""
","
","
","""event"",""trial"",""time""
""fullscreenenter"",""5"",""45661""
","
",5429.9550000578165,audio/quiz/Q3_Prompt.wav,NA,1,NA,NA,NA,NA,NA,NA,NA,NA,NA,NA,NA,NA,NA,NA,NA,NA,NA,NA,sub142
audio-keyboard-response,133,752589,0.0-74.0,FALSE,TRUE,FALSE,TRUE,"""event"",""trial"",""time""
""fullscreenenter"",""5"",""45661""
","
","
","""event"",""trial"",""time""
""fullscreenenter"",""5"",""45661""
","
",null,audio/quiz/Q3_Correct.wav,null,NA,NA,NA,NA,NA,NA,NA,NA,NA,NA,NA,NA,NA,NA,NA,NA,NA,NA,NA,sub142
d3-instructions,134,768809,0.0-75.0,FALSE,TRUE,FALSE,TRUE,"""event"",""trial"",""time""
""fullscreenenter"",""5"",""45661""
","
","
","""event"",""trial"",""time""
""fullscreenenter"",""5"",""45661""
","
",NA,NA,NA,NA,NA,NA,NA,NA,NA,NA,NA,NA,NA,NA,NA,NA,NA,NA,NA,NA,NA,NA,sub142
d3-animate-choice,135,772152,0.0-76.0-0.0,FALSE,TRUE,FALSE,TRUE,"""event"",""trial"",""time""
""fullscreenenter"",""5"",""45661""
","
","
","""event"",""trial"",""time""
""fullscreenenter"",""5"",""45661""
","
",1337.1399999596179,NA,49,NA,NA,3000,1,NA,NA,images/earth.jpg,images/rocket1,images/rocket2,null,images/rocket2,NA,1,real,null,1,NA,NA,NA,sub142
d3-animate-choice,136,774805,0.0-76.0-1.0,FALSE,TRUE,FALSE,TRUE,"""event"",""trial"",""time""
""fullscreenenter"",""5"",""45661""
","
","
","""event"",""trial"",""time""
""fullscreenenter"",""5"",""45661""
","
",645.894999965094,NA,49,NA,NA,3000,1,NA,NA,images/redplanet1.jpg,images/alien2,images/alien1,images/rocket2,images/alien1,images/nothing.png,2,real,false,1,0,2020-06-28T00:55:58Z,rare,sub142
two-step-fixation,137,775809,0.0-76.0-2.0,FALSE,TRUE,FALSE,TRUE,"""event"",""trial"",""time""
""fullscreenenter"",""5"",""45661""
","
","
","""event"",""trial"",""time""
""fullscreenenter"",""5"",""45661""
","
",NA,images/earth.jpg,NA,NA,NA,NA,NA,NA,NA,NA,NA,NA,NA,NA,NA,fixation,NA,NA,NA,NA,NA,NA,sub142
d3-animate-choice,138,778758,0.0-76.0-0.1,FALSE,TRUE,FALSE,TRUE,"""event"",""trial"",""time""
""fullscreenenter"",""5"",""45661""
","
","
","""event"",""trial"",""time""
""fullscreenenter"",""5"",""45661""
","
",946.0849999450147,NA,48,NA,NA,3000,1,NA,NA,images/earth.jpg,images/rocket1,images/rocket2,null,images/rocket1,NA,1,real,null,2,NA,NA,NA,sub142
d3-animate-choice,139,781463,0.0-76.0-1.1,FALSE,TRUE,FALSE,TRUE,"""event"",""trial"",""time""
""fullscreenenter"",""5"",""45661""
","
","
","""event"",""trial"",""time""
""fullscreenenter"",""5"",""45661""
","
",702.0000000484288,NA,49,NA,NA,3000,1,NA,NA,images/purpleplanet.jpg,images/alien4,images/alien3,images/rocket1,images/alien3,images/nothing.png,2,real,false,1,0,2020-06-28T00:56:04Z,rare,sub142
two-step-fixation,140,782466,0.0-76.0-2.1,FALSE,TRUE,FALSE,TRUE,"""event"",""trial"",""time""
""fullscreenenter"",""5"",""45661""
","
","
","""event"",""trial"",""time""
""fullscreenenter"",""5"",""45661""
","
",NA,images/earth.jpg,NA,NA,NA,NA,NA,NA,NA,NA,NA,NA,NA,NA,NA,fixation,NA,NA,NA,NA,NA,NA,sub142
d3-animate-choice,141,784894,0.0-76.0-0.2,FALSE,TRUE,FALSE,TRUE,"""event"",""trial"",""time""
""fullscreenenter"",""5"",""45661""
","
","
","""event"",""trial"",""time""
""fullscreenenter"",""5"",""45661""
","
",423.3000000240281,NA,49,NA,NA,3000,1,NA,NA,images/earth.jpg,images/rocket1,images/rocket2,null,images/rocket2,NA,1,real,null,1,NA,NA,NA,sub142
d3-animate-choice,142,787396,0.0-76.0-1.2,FALSE,TRUE,FALSE,TRUE,"""event"",""trial"",""time""
""fullscreenenter"",""5"",""45661""
","
","
","""event"",""trial"",""time""
""fullscreenenter"",""5"",""45661""
","
",499.4450000813231,NA,49,NA,NA,3000,1,NA,NA,images/purpleplanet.jpg,images/alien4,images/alien3,images/rocket2,images/alien3,images/t.png,2,real,true,1,1,2020-06-28T00:56:10Z,common,sub142
two-step-fixation,143,788400,0.0-76.0-2.2,FALSE,TRUE,FALSE,TRUE,"""event"",""trial"",""time""
""fullscreenenter"",""5"",""45661""
","
","
","""event"",""trial"",""time""
""fullscreenenter"",""5"",""45661""
","
",NA,images/earth.jpg,NA,NA,NA,NA,NA,NA,NA,NA,NA,NA,NA,NA,NA,fixation,NA,NA,NA,NA,NA,NA,sub142
d3-animate-choice,144,790821,0.0-76.0-0.3,FALSE,TRUE,FALSE,TRUE,"""event"",""trial"",""time""
""fullscreenenter"",""5"",""45661""
","
","
","""event"",""trial"",""time""
""fullscreenenter"",""5"",""45661""
","
",417.90999996010214,NA,48,NA,NA,3000,1,NA,NA,images/earth.jpg,images/rocket1,images/rocket2,null,images/rocket1,NA,1,real,null,2,NA,NA,NA,sub142
d3-animate-choice,145,793688,0.0-76.0-1.3,FALSE,TRUE,FALSE,TRUE,"""event"",""trial"",""time""
""fullscreenenter"",""5"",""45661""
","
","
","""event"",""trial"",""time""
""fullscreenenter"",""5"",""45661""
","
",862.0450000744313,NA,48,NA,NA,3000,1,NA,NA,images/redplanet1.jpg,images/alien2,images/alien1,images/rocket1,images/alien2,images/t.png,2,real,true,2,1,2020-06-28T00:56:16Z,common,sub142
two-step-fixation,146,794691,0.0-76.0-2.3,FALSE,TRUE,FALSE,TRUE,"""event"",""trial"",""time""
""fullscreenenter"",""5"",""45661""
","
","
","""event"",""trial"",""time""
""fullscreenenter"",""5"",""45661""
","
",NA,images/earth.jpg,NA,NA,NA,NA,NA,NA,NA,NA,NA,NA,NA,NA,NA,fixation,NA,NA,NA,NA,NA,NA,sub142
d3-animate-choice,147,797648,0.0-76.0-0.4,FALSE,TRUE,FALSE,TRUE,"""event"",""trial"",""time""
""fullscreenenter"",""5"",""45661""
","
","
","""event"",""trial"",""time""
""fullscreenenter"",""5"",""45661""
","
",952.6449999539182,NA,48,NA,NA,3000,1,NA,NA,images/earth.jpg,images/rocket1,images/rocket2,null,images/rocket1,NA,1,real,null,2,NA,NA,NA,sub142
d3-animate-choice,148,800390,0.0-76.0-1.4,FALSE,TRUE,FALSE,TRUE,"""event"",""trial"",""time""
""fullscreenenter"",""5"",""45661""
","
","
","""event"",""trial"",""time""
""fullscreenenter"",""5"",""45661""
","
",739.049999974668,NA,48,NA,NA,3000,1,NA,NA,images/redplanet1.jpg,images/alien2,images/alien1,images/rocket1,images/alien2,images/t.png,2,real,true,2,1,2020-06-28T00:56:23Z,common,sub142
two-step-fixation,149,801393,0.0-76.0-2.4,FALSE,TRUE,FALSE,TRUE,"""event"",""trial"",""time""
""fullscreenenter"",""5"",""45661""
","
","
","""event"",""trial"",""time""
""fullscreenenter"",""5"",""45661""
","
",NA,images/earth.jpg,NA,NA,NA,NA,NA,NA,NA,NA,NA,NA,NA,NA,NA,fixation,NA,NA,NA,NA,NA,NA,sub142
d3-animate-choice,150,803676,0.0-76.0-0.5,FALSE,TRUE,FALSE,TRUE,"""event"",""trial"",""time""
""fullscreenenter"",""5"",""45661""
","
","
","""event"",""trial"",""time""
""fullscreenenter"",""5"",""45661""
","
",277.64500002376735,NA,48,NA,NA,3000,1,NA,NA,images/earth.jpg,images/rocket1,images/rocket2,null,images/rocket1,NA,1,real,null,2,NA,NA,NA,sub142
d3-animate-choice,151,806500,0.0-76.0-1.5,FALSE,TRUE,FALSE,TRUE,"""event"",""trial"",""time""
""fullscreenenter"",""5"",""45661""
","
","
","""event"",""trial"",""time""
""fullscreenenter"",""5"",""45661""
","
",817.5300000002608,NA,49,NA,NA,3000,1,NA,NA,images/purpleplanet.jpg,images/alien4,images/alien3,images/rocket1,images/alien3,images/t.png,2,real,false,1,1,2020-06-28T00:56:29Z,rare,sub142
two-step-fixation,152,807502,0.0-76.0-2.5,FALSE,TRUE,FALSE,TRUE,"""event"",""trial"",""time""
""fullscreenenter"",""5"",""45661""
","
","
","""event"",""trial"",""time""
""fullscreenenter"",""5"",""45661""
","
",NA,images/earth.jpg,NA,NA,NA,NA,NA,NA,NA,NA,NA,NA,NA,NA,NA,fixation,NA,NA,NA,NA,NA,NA,sub142
d3-animate-choice,153,809988,0.0-76.0-0.6,FALSE,TRUE,FALSE,TRUE,"""event"",""trial"",""time""
""fullscreenenter"",""5"",""45661""
","
","
","""event"",""trial"",""time""
""fullscreenenter"",""5"",""45661""
","
",480.24000006262213,NA,48,NA,NA,3000,1,NA,NA,images/earth.jpg,images/rocket1,images/rocket2,null,images/rocket1,NA,1,real,null,2,NA,NA,NA,sub142
d3-animate-choice,154,813006,0.0-76.0-1.6,FALSE,TRUE,FALSE,TRUE,"""event"",""trial"",""time""
""fullscreenenter"",""5"",""45661""
","
","
","""event"",""trial"",""time""
""fullscreenenter"",""5"",""45661""
","
",1013.5899999877438,NA,48,NA,NA,3000,1,NA,NA,images/redplanet1.jpg,images/alien2,images/alien1,images/rocket1,images/alien2,images/nothing.png,2,real,true,2,0,2020-06-28T00:56:36Z,common,sub142
two-step-fixation,155,814009,0.0-76.0-2.6,FALSE,TRUE,FALSE,TRUE,"""event"",""trial"",""time""
""fullscreenenter"",""5"",""45661""
","
","
","""event"",""trial"",""time""
""fullscreenenter"",""5"",""45661""
","
",NA,images/earth.jpg,NA,NA,NA,NA,NA,NA,NA,NA,NA,NA,NA,NA,NA,fixation,NA,NA,NA,NA,NA,NA,sub142
d3-animate-choice,156,816488,0.0-76.0-0.7,FALSE,TRUE,FALSE,TRUE,"""event"",""trial"",""time""
""fullscreenenter"",""5"",""45661""
","
","
","""event"",""trial"",""time""
""fullscreenenter"",""5"",""45661""
","
",471.2950000539422,NA,49,NA,NA,3000,1,NA,NA,images/earth.jpg,images/rocket1,images/rocket2,null,images/rocket2,NA,1,real,null,1,NA,NA,NA,sub142
d3-animate-choice,157,819367,0.0-76.0-1.7,FALSE,TRUE,FALSE,TRUE,"""event"",""trial"",""time""
""fullscreenenter"",""5"",""45661""
","
","
","""event"",""trial"",""time""
""fullscreenenter"",""5"",""45661""
","
",876.2449999339879,NA,48,NA,NA,3000,1,NA,NA,images/redplanet1.jpg,images/alien2,images/alien1,images/rocket2,images/alien2,images/t.png,2,real,false,2,1,2020-06-28T00:56:42Z,rare,sub142
two-step-fixation,158,820372,0.0-76.0-2.7,FALSE,TRUE,FALSE,TRUE,"""event"",""trial"",""time""
""fullscreenenter"",""5"",""45661""
","
","
","""event"",""trial"",""time""
""fullscreenenter"",""5"",""45661""
","
",NA,images/earth.jpg,NA,NA,NA,NA,NA,NA,NA,NA,NA,NA,NA,NA,NA,fixation,NA,NA,NA,NA,NA,NA,sub142
d3-animate-choice,159,823010,0.0-76.0-0.8,FALSE,TRUE,FALSE,TRUE,"""event"",""trial"",""time""
""fullscreenenter"",""5"",""45661""
","
","
","""event"",""trial"",""time""
""fullscreenenter"",""5"",""45661""
","
",631.1450001085177,NA,48,NA,NA,3000,1,NA,NA,images/earth.jpg,images/rocket1,images/rocket2,null,images/rocket1,NA,1,real,null,2,NA,NA,NA,sub142
d3-animate-choice,160,826192,0.0-76.0-1.8,FALSE,TRUE,FALSE,TRUE,"""event"",""trial"",""time""
""fullscreenenter"",""5"",""45661""
","
","
","""event"",""trial"",""time""
""fullscreenenter"",""5"",""45661""
","
",1175.3650000318885,NA,48,NA,NA,3000,1,NA,NA,images/redplanet1.jpg,images/alien2,images/alien1,images/rocket1,images/alien2,images/t.png,2,real,true,2,1,2020-06-28T00:56:49Z,common,sub142
two-step-fixation,161,827194,0.0-76.0-2.8,FALSE,TRUE,FALSE,TRUE,"""event"",""trial"",""time""
""fullscreenenter"",""5"",""45661""
","
","
","""event"",""trial"",""time""
""fullscreenenter"",""5"",""45661""
","
",NA,images/earth.jpg,NA,NA,NA,NA,NA,NA,NA,NA,NA,NA,NA,NA,NA,fixation,NA,NA,NA,NA,NA,NA,sub142
d3-animate-choice,162,831117,0.0-76.0-0.9,FALSE,TRUE,FALSE,TRUE,"""event"",""trial"",""time""
""fullscreenenter"",""5"",""45661""
","
","
","""event"",""trial"",""time""
""fullscreenenter"",""5"",""45661""
","
",1916.2100000539795,NA,48,NA,NA,3000,1,NA,NA,images/earth.jpg,images/rocket1,images/rocket2,null,images/rocket1,NA,1,real,null,2,NA,NA,NA,sub142
d3-animate-choice,163,833574,0.0-76.0-1.9,FALSE,TRUE,FALSE,TRUE,"""event"",""trial"",""time""
""fullscreenenter"",""5"",""45661""
","
","
","""event"",""trial"",""time""
""fullscreenenter"",""5"",""45661""
","
",453.60500004608184,NA,48,NA,NA,3000,1,NA,NA,images/redplanet1.jpg,images/alien2,images/alien1,images/rocket1,images/alien2,images/t.png,2,real,true,2,1,2020-06-28T00:56:56Z,common,sub142
two-step-fixation,164,834577,0.0-76.0-2.9,FALSE,TRUE,FALSE,TRUE,"""event"",""trial"",""time""
""fullscreenenter"",""5"",""45661""
","
","
","""event"",""trial"",""time""
""fullscreenenter"",""5"",""45661""
","
",NA,images/earth.jpg,NA,NA,NA,NA,NA,NA,NA,NA,NA,NA,NA,NA,NA,fixation,NA,NA,NA,NA,NA,NA,sub142
d3-animate-choice,165,837345,0.0-76.0-0.10,FALSE,TRUE,FALSE,TRUE,"""event"",""trial"",""time""
""fullscreenenter"",""5"",""45661""
","
","
","""event"",""trial"",""time""
""fullscreenenter"",""5"",""45661""
","
",763.2499999599531,NA,48,NA,NA,3000,1,NA,NA,images/earth.jpg,images/rocket1,images/rocket2,null,images/rocket1,NA,1,real,null,2,NA,NA,NA,sub142
d3-animate-choice,166,840150,0.0-76.0-1.10,FALSE,TRUE,FALSE,TRUE,"""event"",""trial"",""time""
""fullscreenenter"",""5"",""45661""
","
","
","""event"",""trial"",""time""
""fullscreenenter"",""5"",""45661""
","
",799.059999990277,NA,48,NA,NA,3000,1,NA,NA,images/redplanet1.jpg,images/alien2,images/alien1,images/rocket1,images/alien2,images/t.png,2,real,true,2,1,2020-06-28T00:57:03Z,common,sub142
two-step-fixation,167,841158,0.0-76.0-2.10,FALSE,TRUE,FALSE,TRUE,"""event"",""trial"",""time""
""fullscreenenter"",""5"",""45661""
","
","
","""event"",""trial"",""time""
""fullscreenenter"",""5"",""45661""
","
",NA,images/earth.jpg,NA,NA,NA,NA,NA,NA,NA,NA,NA,NA,NA,NA,NA,fixation,NA,NA,NA,NA,NA,NA,sub142
d3-animate-choice,168,843458,0.0-76.0-0.11,FALSE,TRUE,FALSE,TRUE,"""event"",""trial"",""time""
""fullscreenenter"",""5"",""45661""
","
","
","""event"",""trial"",""time""
""fullscreenenter"",""5"",""45661""
","
",296.34499992243946,NA,48,NA,NA,3000,1,NA,NA,images/earth.jpg,images/rocket1,images/rocket2,null,images/rocket1,NA,1,real,null,2,NA,NA,NA,sub142
d3-animate-choice,169,845849,0.0-76.0-1.11,FALSE,TRUE,FALSE,TRUE,"""event"",""trial"",""time""
""fullscreenenter"",""5"",""45661""
","
","
","""event"",""trial"",""time""
""fullscreenenter"",""5"",""45661""
","
",386.91999996080995,NA,48,NA,NA,3000,1,NA,NA,images/redplanet1.jpg,images/alien2,images/alien1,images/rocket1,images/alien2,images/t.png,2,real,true,2,1,2020-06-28T00:57:09Z,common,sub142
two-step-fixation,170,846852,0.0-76.0-2.11,FALSE,TRUE,FALSE,TRUE,"""event"",""trial"",""time""
""fullscreenenter"",""5"",""45661""
","
","
","""event"",""trial"",""time""
""fullscreenenter"",""5"",""45661""
","
",NA,images/earth.jpg,NA,NA,NA,NA,NA,NA,NA,NA,NA,NA,NA,NA,NA,fixation,NA,NA,NA,NA,NA,NA,sub142
d3-animate-choice,171,850857,0.0-76.0-0.12,FALSE,TRUE,FALSE,TRUE,"""event"",""trial"",""time""
""fullscreenenter"",""5"",""45661""
","
","
","""event"",""trial"",""time""
""fullscreenenter"",""5"",""45661""
","
",2374.945000046864,NA,48,NA,NA,3000,1,NA,NA,images/earth.jpg,images/rocket1,images/rocket2,null,images/rocket1,NA,1,real,null,2,NA,NA,NA,sub142
d3-animate-choice,172,853325,0.0-76.0-1.12,FALSE,TRUE,FALSE,TRUE,"""event"",""trial"",""time""
""fullscreenenter"",""5"",""45661""
","
","
","""event"",""trial"",""time""
""fullscreenenter"",""5"",""45661""
","
",463.3649999741465,NA,48,NA,NA,3000,1,NA,NA,images/redplanet1.jpg,images/alien2,images/alien1,images/rocket1,images/alien2,images/nothing.png,2,real,true,2,0,2020-06-28T00:57:16Z,common,sub142
two-step-fixation,173,854328,0.0-76.0-2.12,FALSE,TRUE,FALSE,TRUE,"""event"",""trial"",""time""
""fullscreenenter"",""5"",""45661""
","
","
","""event"",""trial"",""time""
""fullscreenenter"",""5"",""45661""
","
",NA,images/earth.jpg,NA,NA,NA,NA,NA,NA,NA,NA,NA,NA,NA,NA,NA,fixation,NA,NA,NA,NA,NA,NA,sub142
d3-animate-choice,174,856727,0.0-76.0-0.13,FALSE,TRUE,FALSE,TRUE,"""event"",""trial"",""time""
""fullscreenenter"",""5"",""45661""
","
","
","""event"",""trial"",""time""
""fullscreenenter"",""5"",""45661""
","
",395.3800000017509,NA,48,NA,NA,3000,1,NA,NA,images/earth.jpg,images/rocket1,images/rocket2,null,images/rocket1,NA,1,real,null,2,NA,NA,NA,sub142
d3-animate-choice,175,859086,0.0-76.0-1.13,FALSE,TRUE,FALSE,TRUE,"""event"",""trial"",""time""
""fullscreenenter"",""5"",""45661""
","
","
","""event"",""trial"",""time""
""fullscreenenter"",""5"",""45661""
","
",352.2649999940768,NA,48,NA,NA,3000,1,NA,NA,images/redplanet1.jpg,images/alien2,images/alien1,images/rocket1,images/alien2,images/nothing.png,2,real,true,2,0,2020-06-28T00:57:22Z,common,sub142
two-step-fixation,176,860089,0.0-76.0-2.13,FALSE,TRUE,FALSE,TRUE,"""event"",""trial"",""time""
""fullscreenenter"",""5"",""45661""
","
","
","""event"",""trial"",""time""
""fullscreenenter"",""5"",""45661""
","
",NA,images/earth.jpg,NA,NA,NA,NA,NA,NA,NA,NA,NA,NA,NA,NA,NA,fixation,NA,NA,NA,NA,NA,NA,sub142
d3-animate-choice,177,862436,0.0-76.0-0.14,FALSE,TRUE,FALSE,TRUE,"""event"",""trial"",""time""
""fullscreenenter"",""5"",""45661""
","
","
","""event"",""trial"",""time""
""fullscreenenter"",""5"",""45661""
","
",343.12500001396984,NA,49,NA,NA,3000,1,NA,NA,images/earth.jpg,images/rocket1,images/rocket2,null,images/rocket2,NA,1,real,null,1,NA,NA,NA,sub142
d3-animate-choice,178,864867,0.0-76.0-1.14,FALSE,TRUE,FALSE,TRUE,"""event"",""trial"",""time""
""fullscreenenter"",""5"",""45661""
","
","
","""event"",""trial"",""time""
""fullscreenenter"",""5"",""45661""
","
",427.6850000023842,NA,49,NA,NA,3000,1,NA,NA,images/purpleplanet.jpg,images/alien4,images/alien3,images/rocket2,images/alien3,images/nothing.png,2,real,true,1,0,2020-06-28T00:57:28Z,common,sub142
two-step-fixation,179,865870,0.0-76.0-2.14,FALSE,TRUE,FALSE,TRUE,"""event"",""trial"",""time""
""fullscreenenter"",""5"",""45661""
","
","
","""event"",""trial"",""time""
""fullscreenenter"",""5"",""45661""
","
",NA,images/earth.jpg,NA,NA,NA,NA,NA,NA,NA,NA,NA,NA,NA,NA,NA,fixation,NA,NA,NA,NA,NA,NA,sub142
d3-animate-choice,180,868265,0.0-76.0-0.15,FALSE,TRUE,FALSE,TRUE,"""event"",""trial"",""time""
""fullscreenenter"",""5"",""45661""
","
","
","""event"",""trial"",""time""
""fullscreenenter"",""5"",""45661""
","
",386.6899999557063,NA,49,NA,NA,3000,1,NA,NA,images/earth.jpg,images/rocket1,images/rocket2,null,images/rocket2,NA,1,real,null,1,NA,NA,NA,sub142
d3-animate-choice,181,870711,0.0-76.0-1.15,FALSE,TRUE,FALSE,TRUE,"""event"",""trial"",""time""
""fullscreenenter"",""5"",""45661""
","
","
","""event"",""trial"",""time""
""fullscreenenter"",""5"",""45661""
","
",442.05000007059425,NA,49,NA,NA,3000,1,NA,NA,images/purpleplanet.jpg,images/alien4,images/alien3,images/rocket2,images/alien3,images/nothing.png,2,real,true,1,0,2020-06-28T00:57:33Z,common,sub142
two-step-fixation,182,871713,0.0-76.0-2.15,FALSE,TRUE,FALSE,TRUE,"""event"",""trial"",""time""
""fullscreenenter"",""5"",""45661""
","
","
","""event"",""trial"",""time""
""fullscreenenter"",""5"",""45661""
","
",NA,images/earth.jpg,NA,NA,NA,NA,NA,NA,NA,NA,NA,NA,NA,NA,NA,fixation,NA,NA,NA,NA,NA,NA,sub142
d3-animate-choice,183,874080,0.0-76.0-0.16,FALSE,TRUE,FALSE,TRUE,"""event"",""trial"",""time""
""fullscreenenter"",""5"",""45661""
","
","
","""event"",""trial"",""time""
""fullscreenenter"",""5"",""45661""
","
",361.7849999573082,NA,49,NA,NA,3000,1,NA,NA,images/earth.jpg,images/rocket1,images/rocket2,null,images/rocket2,NA,1,real,null,1,NA,NA,NA,sub142
d3-animate-choice,184,876502,0.0-76.0-1.16,FALSE,TRUE,FALSE,TRUE,"""event"",""trial"",""time""
""fullscreenenter"",""5"",""45661""
","
","
","""event"",""trial"",""time""
""fullscreenenter"",""5"",""45661""
","
",416.10000003129244,NA,48,NA,NA,3000,1,NA,NA,images/purpleplanet.jpg,images/alien4,images/alien3,images/rocket2,images/alien4,images/nothing.png,2,real,true,2,0,2020-06-28T00:57:39Z,common,sub142
two-step-fixation,185,877504,0.0-76.0-2.16,FALSE,TRUE,FALSE,TRUE,"""event"",""trial"",""time""
""fullscreenenter"",""5"",""45661""
","
","
","""event"",""trial"",""time""
""fullscreenenter"",""5"",""45661""
","
",NA,images/earth.jpg,NA,NA,NA,NA,NA,NA,NA,NA,NA,NA,NA,NA,NA,fixation,NA,NA,NA,NA,NA,NA,sub142
d3-animate-choice,186,879973,0.0-76.0-0.17,FALSE,TRUE,FALSE,TRUE,"""event"",""trial"",""time""
""fullscreenenter"",""5"",""45661""
","
","
","""event"",""trial"",""time""
""fullscreenenter"",""5"",""45661""
","
",461.1049999948591,NA,49,NA,NA,3000,1,NA,NA,images/earth.jpg,images/rocket1,images/rocket2,null,images/rocket2,NA,1,real,null,1,NA,NA,NA,sub142
d3-animate-choice,187,882357,0.0-76.0-1.17,FALSE,TRUE,FALSE,TRUE,"""event"",""trial"",""time""
""fullscreenenter"",""5"",""45661""
","
","
","""event"",""trial"",""time""
""fullscreenenter"",""5"",""45661""
","
",378.7500000325963,NA,48,NA,NA,3000,1,NA,NA,images/purpleplanet.jpg,images/alien4,images/alien3,images/rocket2,images/alien4,images/t.png,2,real,true,2,1,2020-06-28T00:57:45Z,common,sub142
two-step-fixation,188,883363,0.0-76.0-2.17,FALSE,TRUE,FALSE,TRUE,"""event"",""trial"",""time""
""fullscreenenter"",""5"",""45661""
","
","
","""event"",""trial"",""time""
""fullscreenenter"",""5"",""45661""
","
",NA,images/earth.jpg,NA,NA,NA,NA,NA,NA,NA,NA,NA,NA,NA,NA,NA,fixation,NA,NA,NA,NA,NA,NA,sub142
d3-animate-choice,189,885776,0.0-76.0-0.18,FALSE,TRUE,FALSE,TRUE,"""event"",""trial"",""time""
""fullscreenenter"",""5"",""45661""
","
","
","""event"",""trial"",""time""
""fullscreenenter"",""5"",""45661""
","
",407.14000002481043,NA,49,NA,NA,3000,1,NA,NA,images/earth.jpg,images/rocket1,images/rocket2,null,images/rocket2,NA,1,real,null,1,NA,NA,NA,sub142
d3-animate-choice,190,888234,0.0-76.0-1.18,FALSE,TRUE,FALSE,TRUE,"""event"",""trial"",""time""
""fullscreenenter"",""5"",""45661""
","
","
","""event"",""trial"",""time""
""fullscreenenter"",""5"",""45661""
","
",449.8250000178814,NA,48,NA,NA,3000,1,NA,NA,images/purpleplanet.jpg,images/alien4,images/alien3,images/rocket2,images/alien4,images/t.png,2,real,true,2,1,2020-06-28T00:57:51Z,common,sub142
two-step-fixation,191,889237,0.0-76.0-2.18,FALSE,TRUE,FALSE,TRUE,"""event"",""trial"",""time""
""fullscreenenter"",""5"",""45661""
","
","
","""event"",""trial"",""time""
""fullscreenenter"",""5"",""45661""
","
",NA,images/earth.jpg,NA,NA,NA,NA,NA,NA,NA,NA,NA,NA,NA,NA,NA,fixation,NA,NA,NA,NA,NA,NA,sub142
d3-animate-choice,192,891843,0.0-76.0-0.19,FALSE,TRUE,FALSE,TRUE,"""event"",""trial"",""time""
""fullscreenenter"",""5"",""45661""
","
","
","""event"",""trial"",""time""
""fullscreenenter"",""5"",""45661""
","
",600.5000000586733,NA,49,NA,NA,3000,1,NA,NA,images/earth.jpg,images/rocket1,images/rocket2,null,images/rocket2,NA,1,real,null,1,NA,NA,NA,sub142
d3-animate-choice,193,894792,0.0-76.0-1.19,FALSE,TRUE,FALSE,TRUE,"""event"",""trial"",""time""
""fullscreenenter"",""5"",""45661""
","
","
","""event"",""trial"",""time""
""fullscreenenter"",""5"",""45661""
","
",945.2450000680983,NA,48,NA,NA,3000,1,NA,NA,images/redplanet1.jpg,images/alien2,images/alien1,images/rocket2,images/alien2,images/nothing.png,2,real,false,2,0,2020-06-28T00:57:57Z,rare,sub142
two-step-fixation,194,895795,0.0-76.0-2.19,FALSE,TRUE,FALSE,TRUE,"""event"",""trial"",""time""
""fullscreenenter"",""5"",""45661""
","
","
","""event"",""trial"",""time""
""fullscreenenter"",""5"",""45661""
","
",NA,images/earth.jpg,NA,NA,NA,NA,NA,NA,NA,NA,NA,NA,NA,NA,NA,fixation,NA,NA,NA,NA,NA,NA,sub142
d3-animate-choice,195,898684,0.0-76.0-0.20,FALSE,TRUE,FALSE,TRUE,"""event"",""trial"",""time""
""fullscreenenter"",""5"",""45661""
","
","
","""event"",""trial"",""time""
""fullscreenenter"",""5"",""45661""
","
",885.840000002645,NA,48,NA,NA,3000,1,NA,NA,images/earth.jpg,images/rocket1,images/rocket2,null,images/rocket1,NA,1,real,null,2,NA,NA,NA,sub142
d3-animate-choice,196,901273,0.0-76.0-1.20,FALSE,TRUE,FALSE,TRUE,"""event"",""trial"",""time""
""fullscreenenter"",""5"",""45661""
","
","
","""event"",""trial"",""time""
""fullscreenenter"",""5"",""45661""
","
",583.0449999775738,NA,49,NA,NA,3000,1,NA,NA,images/purpleplanet.jpg,images/alien4,images/alien3,images/rocket1,images/alien3,images/nothing.png,2,real,false,1,0,2020-06-28T00:58:04Z,rare,sub142
two-step-fixation,197,902279,0.0-76.0-2.20,FALSE,TRUE,FALSE,TRUE,"""event"",""trial"",""time""
""fullscreenenter"",""5"",""45661""
","
","
","""event"",""trial"",""time""
""fullscreenenter"",""5"",""45661""
","
",NA,images/earth.jpg,NA,NA,NA,NA,NA,NA,NA,NA,NA,NA,NA,NA,NA,fixation,NA,NA,NA,NA,NA,NA,sub142
d3-animate-choice,198,904628,0.0-76.0-0.21,FALSE,TRUE,FALSE,TRUE,"""event"",""trial"",""time""
""fullscreenenter"",""5"",""45661""
","
","
","""event"",""trial"",""time""
""fullscreenenter"",""5"",""45661""
","
",342.79000002425164,NA,48,NA,NA,3000,1,NA,NA,images/earth.jpg,images/rocket1,images/rocket2,null,images/rocket1,NA,1,real,null,2,NA,NA,NA,sub142
d3-animate-choice,199,907314,0.0-76.0-1.21,FALSE,TRUE,FALSE,TRUE,"""event"",""trial"",""time""
""fullscreenenter"",""5"",""45661""
","
","
","""event"",""trial"",""time""
""fullscreenenter"",""5"",""45661""
","
",680.9649999486282,NA,49,NA,NA,3000,1,NA,NA,images/redplanet1.jpg,images/alien2,images/alien1,images/rocket1,images/alien1,images/nothing.png,2,real,true,1,0,2020-06-28T00:58:10Z,common,sub142
two-step-fixation,200,908316,0.0-76.0-2.21,FALSE,TRUE,FALSE,TRUE,"""event"",""trial"",""time""
""fullscreenenter"",""5"",""45661""
","
","
","""event"",""trial"",""time""
""fullscreenenter"",""5"",""45661""
","
",NA,images/earth.jpg,NA,NA,NA,NA,NA,NA,NA,NA,NA,NA,NA,NA,NA,fixation,NA,NA,NA,NA,NA,NA,sub142
d3-animate-choice,201,910694,0.0-76.0-0.22,FALSE,TRUE,FALSE,TRUE,"""event"",""trial"",""time""
""fullscreenenter"",""5"",""45661""
","
","
","""event"",""trial"",""time""
""fullscreenenter"",""5"",""45661""
","
",374.18499996419996,NA,48,NA,NA,3000,1,NA,NA,images/earth.jpg,images/rocket1,images/rocket2,null,images/rocket1,NA,1,real,null,2,NA,NA,NA,sub142
d3-animate-choice,202,913626,0.0-76.0-1.22,FALSE,TRUE,FALSE,TRUE,"""event"",""trial"",""time""
""fullscreenenter"",""5"",""45661""
","
","
","""event"",""trial"",""time""
""fullscreenenter"",""5"",""45661""
","
",928.0799999833107,NA,48,NA,NA,3000,1,NA,NA,images/redplanet1.jpg,images/alien2,images/alien1,images/rocket1,images/alien2,images/nothing.png,2,real,true,2,0,2020-06-28T00:58:16Z,common,sub142
two-step-fixation,203,914630,0.0-76.0-2.22,FALSE,TRUE,FALSE,TRUE,"""event"",""trial"",""time""
""fullscreenenter"",""5"",""45661""
","
","
","""event"",""trial"",""time""
""fullscreenenter"",""5"",""45661""
","
",NA,images/earth.jpg,NA,NA,NA,NA,NA,NA,NA,NA,NA,NA,NA,NA,NA,fixation,NA,NA,NA,NA,NA,NA,sub142
d3-animate-choice,204,916947,0.0-76.0-0.23,FALSE,TRUE,FALSE,TRUE,"""event"",""trial"",""time""
""fullscreenenter"",""5"",""45661""
","
","
","""event"",""trial"",""time""
""fullscreenenter"",""5"",""45661""
","
",312.8750000614673,NA,48,NA,NA,3000,1,NA,NA,images/earth.jpg,images/rocket1,images/rocket2,null,images/rocket1,NA,1,real,null,2,NA,NA,NA,sub142
d3-animate-choice,205,919373,0.0-76.0-1.23,FALSE,TRUE,FALSE,TRUE,"""event"",""trial"",""time""
""fullscreenenter"",""5"",""45661""
","
","
","""event"",""trial"",""time""
""fullscreenenter"",""5"",""45661""
","
",417.09999996237457,NA,48,NA,NA,3000,1,NA,NA,images/redplanet1.jpg,images/alien2,images/alien1,images/rocket1,images/alien2,images/t.png,2,real,true,2,1,2020-06-28T00:58:22Z,common,sub142
two-step-fixation,206,920378,0.0-76.0-2.23,FALSE,TRUE,FALSE,TRUE,"""event"",""trial"",""time""
""fullscreenenter"",""5"",""45661""
","
","
","""event"",""trial"",""time""
""fullscreenenter"",""5"",""45661""
","
",NA,images/earth.jpg,NA,NA,NA,NA,NA,NA,NA,NA,NA,NA,NA,NA,NA,fixation,NA,NA,NA,NA,NA,NA,sub142
d3-animate-choice,207,922747,0.0-76.0-0.24,FALSE,TRUE,FALSE,TRUE,"""event"",""trial"",""time""
""fullscreenenter"",""5"",""45661""
","
","
","""event"",""trial"",""time""
""fullscreenenter"",""5"",""45661""
","
",366.37999990489334,NA,48,NA,NA,3000,1,NA,NA,images/earth.jpg,images/rocket1,images/rocket2,null,images/rocket1,NA,1,real,null,2,NA,NA,NA,sub142
d3-animate-choice,208,925099,0.0-76.0-1.24,FALSE,TRUE,FALSE,TRUE,"""event"",""trial"",""time""
""fullscreenenter"",""5"",""45661""
","
","
","""event"",""trial"",""time""
""fullscreenenter"",""5"",""45661""
","
",347.5099999923259,NA,48,NA,NA,3000,1,NA,NA,images/purpleplanet.jpg,images/alien4,images/alien3,images/rocket1,images/alien4,images/t.png,2,real,false,2,1,2020-06-28T00:58:28Z,rare,sub142
two-step-fixation,209,926101,0.0-76.0-2.24,FALSE,TRUE,FALSE,TRUE,"""event"",""trial"",""time""
""fullscreenenter"",""5"",""45661""
","
","
","""event"",""trial"",""time""
""fullscreenenter"",""5"",""45661""
","
",NA,images/earth.jpg,NA,NA,NA,NA,NA,NA,NA,NA,NA,NA,NA,NA,NA,fixation,NA,NA,NA,NA,NA,NA,sub142
d3-animate-choice,210,928147,0.0-76.0-0.25,FALSE,TRUE,FALSE,TRUE,"""event"",""trial"",""time""
""fullscreenenter"",""5"",""45661""
","
","
","""event"",""trial"",""time""
""fullscreenenter"",""5"",""45661""
","
",38.16500003449619,NA,48,NA,NA,3000,1,NA,NA,images/earth.jpg,images/rocket1,images/rocket2,null,images/rocket1,NA,1,real,null,2,NA,NA,NA,sub142
d3-animate-choice,211,930752,0.0-76.0-1.25,FALSE,TRUE,FALSE,TRUE,"""event"",""trial"",""time""
""fullscreenenter"",""5"",""45661""
","
","
","""event"",""trial"",""time""
""fullscreenenter"",""5"",""45661""
","
",601.4699999941513,NA,48,NA,NA,3000,1,NA,NA,images/redplanet1.jpg,images/alien2,images/alien1,images/rocket1,images/alien2,images/t.png,2,real,true,2,1,2020-06-28T00:58:33Z,common,sub142
two-step-fixation,212,931756,0.0-76.0-2.25,FALSE,TRUE,FALSE,TRUE,"""event"",""trial"",""time""
""fullscreenenter"",""5"",""45661""
","
","
","""event"",""trial"",""time""
""fullscreenenter"",""5"",""45661""
","
",NA,images/earth.jpg,NA,NA,NA,NA,NA,NA,NA,NA,NA,NA,NA,NA,NA,fixation,NA,NA,NA,NA,NA,NA,sub142
d3-animate-choice,213,934155,0.0-76.0-0.26,FALSE,TRUE,FALSE,TRUE,"""event"",""trial"",""time""
""fullscreenenter"",""5"",""45661""
","
","
","""event"",""trial"",""time""
""fullscreenenter"",""5"",""45661""
","
",394.11000011023134,NA,48,NA,NA,3000,1,NA,NA,images/earth.jpg,images/rocket1,images/rocket2,null,images/rocket1,NA,1,real,null,2,NA,NA,NA,sub142
d3-animate-choice,214,936631,0.0-76.0-1.26,FALSE,TRUE,FALSE,TRUE,"""event"",""trial"",""time""
""fullscreenenter"",""5"",""45661""
","
","
","""event"",""trial"",""time""
""fullscreenenter"",""5"",""45661""
","
",467.39000000525266,NA,48,NA,NA,3000,1,NA,NA,images/purpleplanet.jpg,images/alien4,images/alien3,images/rocket1,images/alien4,images/t.png,2,real,false,2,1,2020-06-28T00:58:39Z,rare,sub142
two-step-fixation,215,937635,0.0-76.0-2.26,FALSE,TRUE,FALSE,TRUE,"""event"",""trial"",""time""
""fullscreenenter"",""5"",""45661""
","
","
","""event"",""trial"",""time""
""fullscreenenter"",""5"",""45661""
","
",NA,images/earth.jpg,NA,NA,NA,NA,NA,NA,NA,NA,NA,NA,NA,NA,NA,fixation,NA,NA,NA,NA,NA,NA,sub142
d3-animate-choice,216,940110,0.0-76.0-0.27,FALSE,TRUE,FALSE,TRUE,"""event"",""trial"",""time""
""fullscreenenter"",""5"",""45661""
","
","
","""event"",""trial"",""time""
""fullscreenenter"",""5"",""45661""
","
",469.3850000621751,NA,48,NA,NA,3000,1,NA,NA,images/earth.jpg,images/rocket1,images/rocket2,null,images/rocket1,NA,1,real,null,2,NA,NA,NA,sub142
d3-animate-choice,217,942681,0.0-76.0-1.27,FALSE,TRUE,FALSE,TRUE,"""event"",""trial"",""time""
""fullscreenenter"",""5"",""45661""
","
","
","""event"",""trial"",""time""
""fullscreenenter"",""5"",""45661""
","
",563.2000000914559,NA,48,NA,NA,3000,1,NA,NA,images/redplanet1.jpg,images/alien2,images/alien1,images/rocket1,images/alien2,images/nothing.png,2,real,true,2,0,2020-06-28T00:58:45Z,common,sub142
two-step-fixation,218,943684,0.0-76.0-2.27,FALSE,TRUE,FALSE,TRUE,"""event"",""trial"",""time""
""fullscreenenter"",""5"",""45661""
","
","
","""event"",""trial"",""time""
""fullscreenenter"",""5"",""45661""
","
",NA,images/earth.jpg,NA,NA,NA,NA,NA,NA,NA,NA,NA,NA,NA,NA,NA,fixation,NA,NA,NA,NA,NA,NA,sub142
d3-animate-choice,219,946186,0.0-76.0-0.28,FALSE,TRUE,FALSE,TRUE,"""event"",""trial"",""time""
""fullscreenenter"",""5"",""45661""
","
","
","""event"",""trial"",""time""
""fullscreenenter"",""5"",""45661""
","
",497.65000003390014,NA,49,NA,NA,3000,1,NA,NA,images/earth.jpg,images/rocket1,images/rocket2,null,images/rocket2,NA,1,real,null,1,NA,NA,NA,sub142
d3-animate-choice,220,948580,0.0-76.0-1.28,FALSE,TRUE,FALSE,TRUE,"""event"",""trial"",""time""
""fullscreenenter"",""5"",""45661""
","
","
","""event"",""trial"",""time""
""fullscreenenter"",""5"",""45661""
","
",390.20999998319894,NA,48,NA,NA,3000,1,NA,NA,images/redplanet1.jpg,images/alien2,images/alien1,images/rocket2,images/alien2,images/t.png,2,real,false,2,1,2020-06-28T00:58:51Z,rare,sub142
two-step-fixation,221,949582,0.0-76.0-2.28,FALSE,TRUE,FALSE,TRUE,"""event"",""trial"",""time""
""fullscreenenter"",""5"",""45661""
","
","
","""event"",""trial"",""time""
""fullscreenenter"",""5"",""45661""
","
",NA,images/earth.jpg,NA,NA,NA,NA,NA,NA,NA,NA,NA,NA,NA,NA,NA,fixation,NA,NA,NA,NA,NA,NA,sub142
d3-animate-choice,222,951944,0.0-76.0-0.29,FALSE,TRUE,FALSE,TRUE,"""event"",""trial"",""time""
""fullscreenenter"",""5"",""45661""
","
","
","""event"",""trial"",""time""
""fullscreenenter"",""5"",""45661""
","
",355.6349999271333,NA,49,NA,NA,3000,1,NA,NA,images/earth.jpg,images/rocket1,images/rocket2,null,images/rocket2,NA,1,real,null,1,NA,NA,NA,sub142
d3-animate-choice,223,954536,0.0-76.0-1.29,FALSE,TRUE,FALSE,TRUE,"""event"",""trial"",""time""
""fullscreenenter"",""5"",""45661""
","
","
","""event"",""trial"",""time""
""fullscreenenter"",""5"",""45661""
","
",584.9050000542775,NA,49,NA,NA,3000,1,NA,NA,images/purpleplanet.jpg,images/alien4,images/alien3,images/rocket2,images/alien3,images/nothing.png,2,real,true,1,0,2020-06-28T00:58:57Z,common,sub142
two-step-fixation,224,955538,0.0-76.0-2.29,FALSE,TRUE,FALSE,TRUE,"""event"",""trial"",""time""
""fullscreenenter"",""5"",""45661""
","
","
","""event"",""trial"",""time""
""fullscreenenter"",""5"",""45661""
","
",NA,images/earth.jpg,NA,NA,NA,NA,NA,NA,NA,NA,NA,NA,NA,NA,NA,fixation,NA,NA,NA,NA,NA,NA,sub142
d3-animate-choice,225,959407,0.0-76.0-0.30,FALSE,TRUE,FALSE,TRUE,"""event"",""trial"",""time""
""fullscreenenter"",""5"",""45661""
","
","
","""event"",""trial"",""time""
""fullscreenenter"",""5"",""45661""
","
",1864.6200000075623,NA,49,NA,NA,3000,1,3653.840000042692,48,images/earth.jpg,images/rocket1,images/rocket2,null,images/rocket2,NA,1,real,null,1,NA,NA,NA,sub142
d3-animate-choice,226,961853,0.0-76.0-1.30,FALSE,TRUE,FALSE,TRUE,"""event"",""trial"",""time""
""fullscreenenter"",""5"",""45661""
","
","
","""event"",""trial"",""time""
""fullscreenenter"",""5"",""45661""
","
",440.2199999894947,NA,48,NA,NA,3000,1,NA,NA,images/purpleplanet.jpg,images/alien4,images/alien3,images/rocket2,images/alien4,images/t.png,2,real,true,2,1,2020-06-28T00:59:05Z,common,sub142
two-step-fixation,227,962855,0.0-76.0-2.30,FALSE,TRUE,FALSE,TRUE,"""event"",""trial"",""time""
""fullscreenenter"",""5"",""45661""
","
","
","""event"",""trial"",""time""
""fullscreenenter"",""5"",""45661""
","
",NA,images/earth.jpg,NA,NA,NA,NA,NA,NA,NA,NA,NA,NA,NA,NA,NA,fixation,NA,NA,NA,NA,NA,NA,sub142
d3-animate-choice,228,965542,0.0-76.0-0.31,FALSE,TRUE,FALSE,TRUE,"""event"",""trial"",""time""
""fullscreenenter"",""5"",""45661""
","
","
","""event"",""trial"",""time""
""fullscreenenter"",""5"",""45661""
","
",683.2050000084564,NA,49,NA,NA,3000,1,NA,NA,images/earth.jpg,images/rocket1,images/rocket2,null,images/rocket2,NA,1,real,null,1,NA,NA,NA,sub142
d3-animate-choice,229,967873,0.0-76.0-1.31,FALSE,TRUE,FALSE,TRUE,"""event"",""trial"",""time""
""fullscreenenter"",""5"",""45661""
","
","
","""event"",""trial"",""time""
""fullscreenenter"",""5"",""45661""
","
",324.7149999951944,NA,48,NA,NA,3000,1,NA,NA,images/redplanet1.jpg,images/alien2,images/alien1,images/rocket2,images/alien2,images/t.png,2,real,false,2,1,2020-06-28T00:59:11Z,rare,sub142
two-step-fixation,230,968878,0.0-76.0-2.31,FALSE,TRUE,FALSE,TRUE,"""event"",""trial"",""time""
""fullscreenenter"",""5"",""45661""
","
","
","""event"",""trial"",""time""
""fullscreenenter"",""5"",""45661""
","
",NA,images/earth.jpg,NA,NA,NA,NA,NA,NA,NA,NA,NA,NA,NA,NA,NA,fixation,NA,NA,NA,NA,NA,NA,sub142
d3-animate-choice,231,971430,0.0-76.0-0.32,FALSE,TRUE,FALSE,TRUE,"""event"",""trial"",""time""
""fullscreenenter"",""5"",""45661""
","
","
","""event"",""trial"",""time""
""fullscreenenter"",""5"",""45661""
","
",544.7050000075251,NA,49,NA,NA,3000,1,NA,NA,images/earth.jpg,images/rocket1,images/rocket2,null,images/rocket2,NA,1,real,null,1,NA,NA,NA,sub142
d3-animate-choice,232,973975,0.0-76.0-1.32,FALSE,TRUE,FALSE,TRUE,"""event"",""trial"",""time""
""fullscreenenter"",""5"",""45661""
","
","
","""event"",""trial"",""time""
""fullscreenenter"",""5"",""45661""
","
",541.4549999404699,NA,48,NA,NA,3000,1,NA,NA,images/redplanet1.jpg,images/alien2,images/alien1,images/rocket2,images/alien2,images/nothing.png,2,real,false,2,0,2020-06-28T00:59:17Z,rare,sub142
two-step-fixation,233,974978,0.0-76.0-2.32,FALSE,TRUE,FALSE,TRUE,"""event"",""trial"",""time""
""fullscreenenter"",""5"",""45661""
","
","
","""event"",""trial"",""time""
""fullscreenenter"",""5"",""45661""
","
",NA,images/earth.jpg,NA,NA,NA,NA,NA,NA,NA,NA,NA,NA,NA,NA,NA,fixation,NA,NA,NA,NA,NA,NA,sub142
d3-animate-choice,234,977378,0.0-76.0-0.33,FALSE,TRUE,FALSE,TRUE,"""event"",""trial"",""time""
""fullscreenenter"",""5"",""45661""
","
","
","""event"",""trial"",""time""
""fullscreenenter"",""5"",""45661""
","
",393.3399999514222,NA,49,NA,NA,3000,1,NA,NA,images/earth.jpg,images/rocket1,images/rocket2,null,images/rocket2,NA,1,real,null,1,NA,NA,NA,sub142
d3-animate-choice,235,979867,0.0-76.0-1.33,FALSE,TRUE,FALSE,TRUE,"""event"",""trial"",""time""
""fullscreenenter"",""5"",""45661""
","
","
","""event"",""trial"",""time""
""fullscreenenter"",""5"",""45661""
","
",481.97500000242144,NA,49,NA,NA,3000,1,NA,NA,images/purpleplanet.jpg,images/alien4,images/alien3,images/rocket2,images/alien3,images/nothing.png,2,real,true,1,0,2020-06-28T00:59:23Z,common,sub142
two-step-fixation,236,980872,0.0-76.0-2.33,FALSE,TRUE,FALSE,TRUE,"""event"",""trial"",""time""
""fullscreenenter"",""5"",""45661""
","
","
","""event"",""trial"",""time""
""fullscreenenter"",""5"",""45661""
","
",NA,images/earth.jpg,NA,NA,NA,NA,NA,NA,NA,NA,NA,NA,NA,NA,NA,fixation,NA,NA,NA,NA,NA,NA,sub142
d3-animate-choice,237,983255,0.0-76.0-0.34,FALSE,TRUE,FALSE,TRUE,"""event"",""trial"",""time""
""fullscreenenter"",""5"",""45661""
","
","
","""event"",""trial"",""time""
""fullscreenenter"",""5"",""45661""
","
",378.7449999945238,NA,49,NA,NA,3000,1,NA,NA,images/earth.jpg,images/rocket1,images/rocket2,null,images/rocket2,NA,1,real,null,1,NA,NA,NA,sub142
d3-animate-choice,238,985644,0.0-76.0-1.34,FALSE,TRUE,FALSE,TRUE,"""event"",""trial"",""time""
""fullscreenenter"",""5"",""45661""
","
","
","""event"",""trial"",""time""
""fullscreenenter"",""5"",""45661""
","
",384.6299999859184,NA,48,NA,NA,3000,1,NA,NA,images/purpleplanet.jpg,images/alien4,images/alien3,images/rocket2,images/alien4,images/nothing.png,2,real,true,2,0,2020-06-28T00:59:28Z,common,sub142
two-step-fixation,239,986647,0.0-76.0-2.34,FALSE,TRUE,FALSE,TRUE,"""event"",""trial"",""time""
""fullscreenenter"",""5"",""45661""
","
","
","""event"",""trial"",""time""
""fullscreenenter"",""5"",""45661""
","
",NA,images/earth.jpg,NA,NA,NA,NA,NA,NA,NA,NA,NA,NA,NA,NA,NA,fixation,NA,NA,NA,NA,NA,NA,sub142
d3-animate-choice,240,989044,0.0-76.0-0.35,FALSE,TRUE,FALSE,TRUE,"""event"",""trial"",""time""
""fullscreenenter"",""5"",""45661""
","
","
","""event"",""trial"",""time""
""fullscreenenter"",""5"",""45661""
","
",392.9299999726936,NA,49,NA,NA,3000,1,NA,NA,images/earth.jpg,images/rocket1,images/rocket2,null,images/rocket2,NA,1,real,null,1,NA,NA,NA,sub142
d3-animate-choice,241,991544,0.0-76.0-1.35,FALSE,TRUE,FALSE,TRUE,"""event"",""trial"",""time""
""fullscreenenter"",""5"",""45661""
","
","
","""event"",""trial"",""time""
""fullscreenenter"",""5"",""45661""
","
",496.5000000083819,NA,49,NA,NA,3000,1,NA,NA,images/purpleplanet.jpg,images/alien4,images/alien3,images/rocket2,images/alien3,images/nothing.png,2,real,true,1,0,2020-06-28T00:59:34Z,common,sub142
two-step-fixation,242,992546,0.0-76.0-2.35,FALSE,TRUE,FALSE,TRUE,"""event"",""trial"",""time""
""fullscreenenter"",""5"",""45661""
","
","
","""event"",""trial"",""time""
""fullscreenenter"",""5"",""45661""
","
",NA,images/earth.jpg,NA,NA,NA,NA,NA,NA,NA,NA,NA,NA,NA,NA,NA,fixation,NA,NA,NA,NA,NA,NA,sub142
d3-animate-choice,243,995449,0.0-76.0-0.36,FALSE,TRUE,FALSE,TRUE,"""event"",""trial"",""time""
""fullscreenenter"",""5"",""45661""
","
","
","""event"",""trial"",""time""
""fullscreenenter"",""5"",""45661""
","
",899.5100000174716,NA,49,NA,NA,3000,1,NA,NA,images/earth.jpg,images/rocket1,images/rocket2,null,images/rocket2,NA,1,real,null,1,NA,NA,NA,sub142
d3-animate-choice,244,997835,0.0-76.0-1.36,FALSE,TRUE,FALSE,TRUE,"""event"",""trial"",""time""
""fullscreenenter"",""5"",""45661""
","
","
","""event"",""trial"",""time""
""fullscreenenter"",""5"",""45661""
","
",381.88500003889203,NA,48,NA,NA,3000,1,NA,NA,images/purpleplanet.jpg,images/alien4,images/alien3,images/rocket2,images/alien4,images/t.png,2,real,true,2,1,2020-06-28T00:59:41Z,common,sub142
two-step-fixation,245,998837,0.0-76.0-2.36,FALSE,TRUE,FALSE,TRUE,"""event"",""trial"",""time""
""fullscreenenter"",""5"",""45661""
","
","
","""event"",""trial"",""time""
""fullscreenenter"",""5"",""45661""
","
",NA,images/earth.jpg,NA,NA,NA,NA,NA,NA,NA,NA,NA,NA,NA,NA,NA,fixation,NA,NA,NA,NA,NA,NA,sub142
d3-animate-choice,246,1001453,0.0-76.0-0.37,FALSE,TRUE,FALSE,TRUE,"""event"",""trial"",""time""
""fullscreenenter"",""5"",""45661""
","
","
","""event"",""trial"",""time""
""fullscreenenter"",""5"",""45661""
","
",612.639999948442,NA,49,NA,NA,3000,1,NA,NA,images/earth.jpg,images/rocket1,images/rocket2,null,images/rocket2,NA,1,real,null,1,NA,NA,NA,sub142
d3-animate-choice,247,1003833,0.0-76.0-1.37,FALSE,TRUE,FALSE,TRUE,"""event"",""trial"",""time""
""fullscreenenter"",""5"",""45661""
","
","
","""event"",""trial"",""time""
""fullscreenenter"",""5"",""45661""
","
",373.6100000096485,NA,49,NA,NA,3000,1,NA,NA,images/redplanet1.jpg,images/alien2,images/alien1,images/rocket2,images/alien1,images/nothing.png,2,real,false,1,0,2020-06-28T00:59:47Z,rare,sub142
two-step-fixation,248,1004836,0.0-76.0-2.37,FALSE,TRUE,FALSE,TRUE,"""event"",""trial"",""time""
""fullscreenenter"",""5"",""45661""
","
","
","""event"",""trial"",""time""
""fullscreenenter"",""5"",""45661""
","
",NA,images/earth.jpg,NA,NA,NA,NA,NA,NA,NA,NA,NA,NA,NA,NA,NA,fixation,NA,NA,NA,NA,NA,NA,sub142
d3-animate-choice,249,1007127,0.0-76.0-0.38,FALSE,TRUE,FALSE,TRUE,"""event"",""trial"",""time""
""fullscreenenter"",""5"",""45661""
","
","
","""event"",""trial"",""time""
""fullscreenenter"",""5"",""45661""
","
",284.02500005904585,NA,49,NA,NA,3000,1,NA,NA,images/earth.jpg,images/rocket1,images/rocket2,null,images/rocket2,NA,1,real,null,1,NA,NA,NA,sub142
d3-animate-choice,250,1009528,0.0-76.0-1.38,FALSE,TRUE,FALSE,TRUE,"""event"",""trial"",""time""
""fullscreenenter"",""5"",""45661""
","
","
","""event"",""trial"",""time""
""fullscreenenter"",""5"",""45661""
","
",396.5049999533221,NA,48,NA,NA,3000,1,NA,NA,images/redplanet1.jpg,images/alien2,images/alien1,images/rocket2,images/alien2,images/nothing.png,2,real,false,2,0,2020-06-28T00:59:52Z,rare,sub142
two-step-fixation,251,1010530,0.0-76.0-2.38,FALSE,TRUE,FALSE,TRUE,"""event"",""trial"",""time""
""fullscreenenter"",""5"",""45661""
","
","
","""event"",""trial"",""time""
""fullscreenenter"",""5"",""45661""
","
",NA,images/earth.jpg,NA,NA,NA,NA,NA,NA,NA,NA,NA,NA,NA,NA,NA,fixation,NA,NA,NA,NA,NA,NA,sub142
d3-animate-choice,252,1012813,0.0-76.0-0.39,FALSE,TRUE,FALSE,TRUE,"""event"",""trial"",""time""
""fullscreenenter"",""5"",""45661""
","
","
","""event"",""trial"",""time""
""fullscreenenter"",""5"",""45661""
","
",276.4449999667704,NA,49,NA,NA,3000,1,NA,NA,images/earth.jpg,images/rocket1,images/rocket2,null,images/rocket2,NA,1,real,null,1,NA,NA,NA,sub142
d3-animate-choice,253,1015413,0.0-76.0-1.39,FALSE,TRUE,FALSE,TRUE,"""event"",""trial"",""time""
""fullscreenenter"",""5"",""45661""
","
","
","""event"",""trial"",""time""
""fullscreenenter"",""5"",""45661""
","
",596.0249999770895,NA,49,NA,NA,3000,1,NA,NA,images/purpleplanet.jpg,images/alien4,images/alien3,images/rocket2,images/alien3,images/nothing.png,2,real,true,1,0,2020-06-28T00:59:58Z,common,sub142
two-step-fixation,254,1016418,0.0-76.0-2.39,FALSE,TRUE,FALSE,TRUE,"""event"",""trial"",""time""
""fullscreenenter"",""5"",""45661""
","
","
","""event"",""trial"",""time""
""fullscreenenter"",""5"",""45661""
","
",NA,images/earth.jpg,NA,NA,NA,NA,NA,NA,NA,NA,NA,NA,NA,NA,NA,fixation,NA,NA,NA,NA,NA,NA,sub142
d3-animate-choice,255,1018792,0.0-76.0-0.40,FALSE,TRUE,FALSE,TRUE,"""event"",""trial"",""time""
""fullscreenenter"",""5"",""45661""
","
","
","""event"",""trial"",""time""
""fullscreenenter"",""5"",""45661""
","
",370.36499998066574,NA,49,NA,NA,3000,1,NA,NA,images/earth.jpg,images/rocket1,images/rocket2,null,images/rocket2,NA,1,real,null,1,NA,NA,NA,sub142
d3-animate-choice,256,1021220,0.0-76.0-1.40,FALSE,TRUE,FALSE,TRUE,"""event"",""trial"",""time""
""fullscreenenter"",""5"",""45661""
","
","
","""event"",""trial"",""time""
""fullscreenenter"",""5"",""45661""
","
",422.26499994285405,NA,49,NA,NA,3000,1,NA,NA,images/purpleplanet.jpg,images/alien4,images/alien3,images/rocket2,images/alien3,images/nothing.png,2,real,true,1,0,2020-06-28T01:00:04Z,common,sub142
two-step-fixation,257,1022222,0.0-76.0-2.40,FALSE,TRUE,FALSE,TRUE,"""event"",""trial"",""time""
""fullscreenenter"",""5"",""45661""
","
","
","""event"",""trial"",""time""
""fullscreenenter"",""5"",""45661""
","
",NA,images/earth.jpg,NA,NA,NA,NA,NA,NA,NA,NA,NA,NA,NA,NA,NA,fixation,NA,NA,NA,NA,NA,NA,sub142
d3-animate-choice,258,1024690,0.0-76.0-0.41,FALSE,TRUE,FALSE,TRUE,"""event"",""trial"",""time""
""fullscreenenter"",""5"",""45661""
","
","
","""event"",""trial"",""time""
""fullscreenenter"",""5"",""45661""
","
",464.0599999111146,NA,49,NA,NA,3000,1,NA,NA,images/earth.jpg,images/rocket1,images/rocket2,null,images/rocket2,NA,1,real,null,1,NA,NA,NA,sub142
d3-animate-choice,259,1027434,0.0-76.0-1.41,FALSE,TRUE,FALSE,TRUE,"""event"",""trial"",""time""
""fullscreenenter"",""5"",""45661""
","
","
","""event"",""trial"",""time""
""fullscreenenter"",""5"",""45661""
","
",735.4150000028312,NA,48,NA,NA,3000,1,NA,NA,images/redplanet1.jpg,images/alien2,images/alien1,images/rocket2,images/alien2,images/nothing.png,2,real,false,2,0,2020-06-28T01:00:10Z,rare,sub142
two-step-fixation,260,1028440,0.0-76.0-2.41,FALSE,TRUE,FALSE,TRUE,"""event"",""trial"",""time""
""fullscreenenter"",""5"",""45661""
","
","
","""event"",""trial"",""time""
""fullscreenenter"",""5"",""45661""
","
",NA,images/earth.jpg,NA,NA,NA,NA,NA,NA,NA,NA,NA,NA,NA,NA,NA,fixation,NA,NA,NA,NA,NA,NA,sub142
d3-animate-choice,261,1030762,0.0-76.0-0.42,FALSE,TRUE,FALSE,TRUE,"""event"",""trial"",""time""
""fullscreenenter"",""5"",""45661""
","
","
","""event"",""trial"",""time""
""fullscreenenter"",""5"",""45661""
","
",319.1249999217689,NA,48,NA,NA,3000,1,NA,NA,images/earth.jpg,images/rocket1,images/rocket2,null,images/rocket1,NA,1,real,null,2,NA,NA,NA,sub142
d3-animate-choice,262,1033203,0.0-76.0-1.42,FALSE,TRUE,FALSE,TRUE,"""event"",""trial"",""time""
""fullscreenenter"",""5"",""45661""
","
","
","""event"",""trial"",""time""
""fullscreenenter"",""5"",""45661""
","
",435.630000079982,NA,48,NA,NA,3000,1,NA,NA,images/redplanet1.jpg,images/alien2,images/alien1,images/rocket1,images/alien2,images/nothing.png,2,real,true,2,0,2020-06-28T01:00:16Z,common,sub142
two-step-fixation,263,1034208,0.0-76.0-2.42,FALSE,TRUE,FALSE,TRUE,"""event"",""trial"",""time""
""fullscreenenter"",""5"",""45661""
","
","
","""event"",""trial"",""time""
""fullscreenenter"",""5"",""45661""
","
",NA,images/earth.jpg,NA,NA,NA,NA,NA,NA,NA,NA,NA,NA,NA,NA,NA,fixation,NA,NA,NA,NA,NA,NA,sub142
d3-animate-choice,264,1036573,0.0-76.0-0.43,FALSE,TRUE,FALSE,TRUE,"""event"",""trial"",""time""
""fullscreenenter"",""5"",""45661""
","
","
","""event"",""trial"",""time""
""fullscreenenter"",""5"",""45661""
","
",361.2849999917671,NA,48,NA,NA,3000,1,NA,NA,images/earth.jpg,images/rocket1,images/rocket2,null,images/rocket1,NA,1,real,null,2,NA,NA,NA,sub142
d3-animate-choice,265,1039135,0.0-76.0-1.43,FALSE,TRUE,FALSE,TRUE,"""event"",""trial"",""time""
""fullscreenenter"",""5"",""45661""
","
","
","""event"",""trial"",""time""
""fullscreenenter"",""5"",""45661""
","
",557.2149999206886,NA,48,NA,NA,3000,1,NA,NA,images/purpleplanet.jpg,images/alien4,images/alien3,images/rocket1,images/alien4,images/nothing.png,2,real,false,2,0,2020-06-28T01:00:22Z,rare,sub142
two-step-fixation,266,1040137,0.0-76.0-2.43,FALSE,TRUE,FALSE,TRUE,"""event"",""trial"",""time""
""fullscreenenter"",""5"",""45661""
","
","
","""event"",""trial"",""time""
""fullscreenenter"",""5"",""45661""
","
",NA,images/earth.jpg,NA,NA,NA,NA,NA,NA,NA,NA,NA,NA,NA,NA,NA,fixation,NA,NA,NA,NA,NA,NA,sub142
d3-animate-choice,267,1042899,0.0-76.0-0.44,FALSE,TRUE,FALSE,TRUE,"""event"",""trial"",""time""
""fullscreenenter"",""5"",""45661""
","
","
","""event"",""trial"",""time""
""fullscreenenter"",""5"",""45661""
","
",756.8100000498816,NA,48,NA,NA,3000,1,NA,NA,images/earth.jpg,images/rocket1,images/rocket2,null,images/rocket1,NA,1,real,null,2,NA,NA,NA,sub142
d3-animate-choice,268,1045321,0.0-76.0-1.44,FALSE,TRUE,FALSE,TRUE,"""event"",""trial"",""time""
""fullscreenenter"",""5"",""45661""
","
","
","""event"",""trial"",""time""
""fullscreenenter"",""5"",""45661""
","
",417.59999992791563,NA,49,NA,NA,3000,1,NA,NA,images/redplanet1.jpg,images/alien2,images/alien1,images/rocket1,images/alien1,images/t.png,2,real,true,1,1,2020-06-28T01:00:28Z,common,sub142
two-step-fixation,269,1046324,0.0-76.0-2.44,FALSE,TRUE,FALSE,TRUE,"""event"",""trial"",""time""
""fullscreenenter"",""5"",""45661""
","
","
","""event"",""trial"",""time""
""fullscreenenter"",""5"",""45661""
","
",NA,images/earth.jpg,NA,NA,NA,NA,NA,NA,NA,NA,NA,NA,NA,NA,NA,fixation,NA,NA,NA,NA,NA,NA,sub142
d3-animate-choice,270,1049219,0.0-76.0-0.45,FALSE,TRUE,FALSE,TRUE,"""event"",""trial"",""time""
""fullscreenenter"",""5"",""45661""
","
","
","""event"",""trial"",""time""
""fullscreenenter"",""5"",""45661""
","
",889.4250000594184,NA,48,NA,NA,3000,1,NA,NA,images/earth.jpg,images/rocket1,images/rocket2,null,images/rocket1,NA,1,real,null,2,NA,NA,NA,sub142
d3-animate-choice,271,1052220,0.0-76.0-1.45,FALSE,TRUE,FALSE,TRUE,"""event"",""trial"",""time""
""fullscreenenter"",""5"",""45661""
","
","
","""event"",""trial"",""time""
""fullscreenenter"",""5"",""45661""
","
",995.5949999857694,NA,48,NA,NA,3000,1,NA,NA,images/redplanet1.jpg,images/alien2,images/alien1,images/rocket1,images/alien2,images/t.png,2,real,true,2,1,2020-06-28T01:00:35Z,common,sub142
two-step-fixation,272,1053221,0.0-76.0-2.45,FALSE,TRUE,FALSE,TRUE,"""event"",""trial"",""time""
""fullscreenenter"",""5"",""45661""
","
","
","""event"",""trial"",""time""
""fullscreenenter"",""5"",""45661""
","
",NA,images/earth.jpg,NA,NA,NA,NA,NA,NA,NA,NA,NA,NA,NA,NA,NA,fixation,NA,NA,NA,NA,NA,NA,sub142
d3-animate-choice,273,1055590,0.0-76.0-0.46,FALSE,TRUE,FALSE,TRUE,"""event"",""trial"",""time""
""fullscreenenter"",""5"",""45661""
","
","
","""event"",""trial"",""time""
""fullscreenenter"",""5"",""45661""
","
",363.69000002741814,NA,49,NA,NA,3000,1,NA,NA,images/earth.jpg,images/rocket1,images/rocket2,null,images/rocket2,NA,1,real,null,1,NA,NA,NA,sub142
d3-animate-choice,274,1058351,0.0-76.0-1.46,FALSE,TRUE,FALSE,TRUE,"""event"",""trial"",""time""
""fullscreenenter"",""5"",""45661""
","
","
","""event"",""trial"",""time""
""fullscreenenter"",""5"",""45661""
","
",753.6850000033155,NA,49,NA,NA,3000,1,NA,NA,images/purpleplanet.jpg,images/alien4,images/alien3,images/rocket2,images/alien3,images/t.png,2,real,true,1,1,2020-06-28T01:00:41Z,common,sub142
two-step-fixation,275,1059352,0.0-76.0-2.46,FALSE,TRUE,FALSE,TRUE,"""event"",""trial"",""time""
""fullscreenenter"",""5"",""45661""
","
","
","""event"",""trial"",""time""
""fullscreenenter"",""5"",""45661""
","
",NA,images/earth.jpg,NA,NA,NA,NA,NA,NA,NA,NA,NA,NA,NA,NA,NA,fixation,NA,NA,NA,NA,NA,NA,sub142
d3-animate-choice,276,1062968,0.0-76.0-0.47,FALSE,TRUE,FALSE,TRUE,"""event"",""trial"",""time""
""fullscreenenter"",""5"",""45661""
","
","
","""event"",""trial"",""time""
""fullscreenenter"",""5"",""45661""
","
",1610.249999910593,NA,49,NA,NA,3000,1,NA,NA,images/earth.jpg,images/rocket1,images/rocket2,null,images/rocket2,NA,1,real,null,1,NA,NA,NA,sub142
d3-animate-choice,277,1065743,0.0-76.0-1.47,FALSE,TRUE,FALSE,TRUE,"""event"",""trial"",""time""
""fullscreenenter"",""5"",""45661""
","
","
","""event"",""trial"",""time""
""fullscreenenter"",""5"",""45661""
","
",771.2349999928847,NA,49,NA,NA,3000,1,NA,NA,images/purpleplanet.jpg,images/alien4,images/alien3,images/rocket2,images/alien3,images/t.png,2,real,true,1,1,2020-06-28T01:00:48Z,common,sub142
two-step-fixation,278,1066747,0.0-76.0-2.47,FALSE,TRUE,FALSE,TRUE,"""event"",""trial"",""time""
""fullscreenenter"",""5"",""45661""
","
","
","""event"",""trial"",""time""
""fullscreenenter"",""5"",""45661""
","
",NA,images/earth.jpg,NA,NA,NA,NA,NA,NA,NA,NA,NA,NA,NA,NA,NA,fixation,NA,NA,NA,NA,NA,NA,sub142
d3-animate-choice,279,1069273,0.0-76.0-0.48,FALSE,TRUE,FALSE,TRUE,"""event"",""trial"",""time""
""fullscreenenter"",""5"",""45661""
","
","
","""event"",""trial"",""time""
""fullscreenenter"",""5"",""45661""
","
",522.3750000586733,NA,49,NA,NA,3000,1,NA,NA,images/earth.jpg,images/rocket1,images/rocket2,null,images/rocket2,NA,1,real,null,1,NA,NA,NA,sub142
d3-animate-choice,280,1071783,0.0-76.0-1.48,FALSE,TRUE,FALSE,TRUE,"""event"",""trial"",""time""
""fullscreenenter"",""5"",""45661""
","
","
","""event"",""trial"",""time""
""fullscreenenter"",""5"",""45661""
","
",504.7299999278039,NA,49,NA,NA,3000,1,NA,NA,images/purpleplanet.jpg,images/alien4,images/alien3,images/rocket2,images/alien3,images/nothing.png,2,real,true,1,0,2020-06-28T01:00:54Z,common,sub142
two-step-fixation,281,1072786,0.0-76.0-2.48,FALSE,TRUE,FALSE,TRUE,"""event"",""trial"",""time""
""fullscreenenter"",""5"",""45661""
","
","
","""event"",""trial"",""time""
""fullscreenenter"",""5"",""45661""
","
",NA,images/earth.jpg,NA,NA,NA,NA,NA,NA,NA,NA,NA,NA,NA,NA,NA,fixation,NA,NA,NA,NA,NA,NA,sub142
d3-animate-choice,282,1075045,0.0-76.0-0.49,FALSE,TRUE,FALSE,TRUE,"""event"",""trial"",""time""
""fullscreenenter"",""5"",""45661""
","
","
","""event"",""trial"",""time""
""fullscreenenter"",""5"",""45661""
","
",255.24500000756234,NA,49,NA,NA,3000,1,NA,NA,images/earth.jpg,images/rocket1,images/rocket2,null,images/rocket2,NA,1,real,null,1,NA,NA,NA,sub142
d3-animate-choice,283,1078569,0.0-76.0-1.49,FALSE,TRUE,FALSE,TRUE,"""event"",""trial"",""time""
