trial_type,trial_index,time_elapsed,internal_node_id,rocket_sides,red_planet_first_rocket,red_display_order,purple_display_order,interactions,blur_events,focus_events,fullscreenenter_events,fullscreenexit_events,rt,stimulus,key_press,button_pressed,success,duration,valid_pressed,rts,keys,planet_text,right_text,left_text,center_text,chosen_text,reward_text,trial_stage,practice_trial,transition_type,choice,transition,reward,timestamp,subject_id
pavlovia,0,10,0.0-0.0,TRUE,FALSE,TRUE,TRUE,"
","
","
","
","
",NA,NA,NA,NA,NA,NA,NA,NA,NA,NA,NA,NA,NA,NA,NA,NA,NA,NA,NA,NA,NA,NA,sub17
html-keyboard-response,1,1453,0.0-1.0,TRUE,FALSE,TRUE,TRUE,"
","
","
","
","
",1440.150000002177,Welcome! Press the space bar to begin.,32,NA,NA,NA,NA,NA,NA,NA,NA,NA,NA,NA,NA,NA,NA,NA,NA,NA,NA,NA,sub17
audio-keyboard-response,2,3475,0.0-2.0,TRUE,FALSE,TRUE,TRUE,"
","
","
","
","
",2019,audio/beep_loop.wav,32,NA,NA,NA,NA,NA,NA,NA,NA,NA,NA,NA,NA,NA,NA,NA,NA,NA,NA,NA,sub17
audio-button-response,3,5673,0.0-3.0,TRUE,FALSE,TRUE,TRUE,"
","
","
","
","
",NaN,audio/fish.mp3,NA,1,NA,NA,NA,NA,NA,NA,NA,NA,NA,NA,NA,NA,NA,NA,NA,NA,NA,NA,sub17
audio-button-response,4,7673,0.0-4.0,TRUE,FALSE,TRUE,TRUE,"""event"",""trial"",""time""
""fullscreenenter"",""5"",""10090""
","
","
","""event"",""trial"",""time""
""fullscreenenter"",""5"",""10090""
","
",NaN,audio/tiger.mp3,NA,4,NA,NA,NA,NA,NA,NA,NA,NA,NA,NA,NA,NA,NA,NA,NA,NA,NA,NA,sub17
fullscreen,5,11059,0.0-5.0,TRUE,FALSE,TRUE,TRUE,"""event"",""trial"",""time""
""fullscreenenter"",""5"",""10090""
","
","
","""event"",""trial"",""time""
""fullscreenenter"",""5"",""10090""
","
",NA,NA,NA,NA,TRUE,NA,NA,NA,NA,NA,NA,NA,NA,NA,NA,NA,NA,NA,NA,NA,NA,NA,sub17
d3-instructions,6,16810,0.0-6.0,TRUE,FALSE,TRUE,TRUE,"""event"",""trial"",""time""
""fullscreenenter"",""5"",""10090""
","
","
","""event"",""trial"",""time""
""fullscreenenter"",""5"",""10090""
","
",NA,NA,NA,NA,NA,NA,NA,NA,NA,NA,NA,NA,NA,NA,NA,NA,NA,NA,NA,NA,NA,NA,sub17
d3-instructions,7,24601,0.0-7.0,TRUE,FALSE,TRUE,TRUE,"""event"",""trial"",""time""
""fullscreenenter"",""5"",""10090""
","
","
","""event"",""trial"",""time""
""fullscreenenter"",""5"",""10090""
","
",NA,NA,NA,NA,NA,NA,NA,NA,NA,NA,NA,NA,NA,NA,NA,NA,NA,NA,NA,NA,NA,NA,sub17
d3-instructions,8,33585,0.0-8.0,TRUE,FALSE,TRUE,TRUE,"""event"",""trial"",""time""
""fullscreenenter"",""5"",""10090""
","
","
","""event"",""trial"",""time""
""fullscreenenter"",""5"",""10090""
","
",NA,NA,NA,NA,NA,NA,NA,NA,NA,NA,NA,NA,NA,NA,NA,NA,NA,NA,NA,NA,NA,NA,sub17
d3-instructions,9,45279,0.0-9.0,TRUE,FALSE,TRUE,TRUE,"""event"",""trial"",""time""
""fullscreenenter"",""5"",""10090""
","
","
","""event"",""trial"",""time""
""fullscreenenter"",""5"",""10090""
","
",NA,NA,NA,NA,NA,NA,NA,NA,NA,NA,NA,NA,NA,NA,NA,NA,NA,NA,NA,NA,NA,NA,sub17
d3-instructions,10,64045,0.0-10.0,TRUE,FALSE,TRUE,TRUE,"""event"",""trial"",""time""
""fullscreenenter"",""5"",""10090""
","
","
","""event"",""trial"",""time""
""fullscreenenter"",""5"",""10090""
","
",NA,NA,NA,NA,NA,NA,NA,NA,NA,NA,NA,NA,NA,NA,NA,NA,NA,NA,NA,NA,NA,NA,sub17
d3-animate-choice,11,70907,0.0-11.0,TRUE,FALSE,TRUE,TRUE,"""event"",""trial"",""time""
""fullscreenenter"",""5"",""10090""
","
","
","""event"",""trial"",""time""
""fullscreenenter"",""5"",""10090""
","
",4848.919999996724,NA,49,NA,NA,3000,1,"5160.734999997658,5352.644999999029,5625.0399999989895,5880.754999998317,6176.629999994475,6392.684999998892,6672.614999995858",48494849484948,images/tutgreenplanet.jpg,images/tutalien1,images/tutalien2,null,images/tutalien2,NA,NA,practice,null,NA,NA,NA,NA,sub17
d3-animate-choice,12,72966,0.0-12.0,TRUE,FALSE,TRUE,TRUE,"""event"",""trial"",""time""
""fullscreenenter"",""5"",""10090""
","
","
","""event"",""trial"",""time""
""fullscreenenter"",""5"",""10090""
","
",52.41499999829102,NA,49,NA,NA,3000,1,NA,NA,images/tutgreenplanet.jpg,images/tutalien1,images/tutalien2,null,images/tutalien2,NA,NA,practice,null,NA,NA,NA,NA,sub17
d3-animate-choice,13,77198,0.0-13.0,TRUE,FALSE,TRUE,TRUE,"""event"",""trial"",""time""
""fullscreenenter"",""5"",""10090""
","
","
","""event"",""trial"",""time""
""fullscreenenter"",""5"",""10090""
","
",2224.8099999997066,NA,48,NA,NA,3000,1,NA,NA,images/tutgreenplanet.jpg,images/tutalien1,images/tutalien2,null,images/tutalien1,NA,NA,practice,null,NA,NA,NA,NA,sub17
d3-animate-choice,14,80084,0.0-14.0,TRUE,FALSE,TRUE,TRUE,"""event"",""trial"",""time""
""fullscreenenter"",""5"",""10090""
","
","
","""event"",""trial"",""time""
""fullscreenenter"",""5"",""10090""
","
",880.5799999972805,NA,49,NA,NA,3000,1,2720.7149999958347,48,images/tutgreenplanet.jpg,images/tutalien1,images/tutalien2,null,images/tutalien2,NA,NA,practice,null,NA,NA,NA,NA,sub17
d3-instructions,15,87193,0.0-15.0,TRUE,FALSE,TRUE,TRUE,"""event"",""trial"",""time""
""fullscreenenter"",""5"",""10090""
","
","
","""event"",""trial"",""time""
""fullscreenenter"",""5"",""10090""
","
",NA,NA,NA,NA,NA,NA,NA,NA,NA,NA,NA,NA,NA,NA,NA,NA,NA,NA,NA,NA,NA,NA,sub17
d3-instructions,16,99951,0.0-16.0,TRUE,FALSE,TRUE,TRUE,"""event"",""trial"",""time""
""fullscreenenter"",""5"",""10090""
","
","
","""event"",""trial"",""time""
""fullscreenenter"",""5"",""10090""
","
",NA,NA,NA,NA,NA,NA,NA,NA,NA,NA,NA,NA,NA,NA,NA,NA,NA,NA,NA,NA,NA,NA,sub17
d3-instructions,17,110510,0.0-17.0,TRUE,FALSE,TRUE,TRUE,"""event"",""trial"",""time""
""fullscreenenter"",""5"",""10090""
","
","
","""event"",""trial"",""time""
""fullscreenenter"",""5"",""10090""
","
",NA,NA,NA,NA,NA,NA,NA,NA,NA,NA,NA,NA,NA,NA,NA,NA,NA,NA,NA,NA,NA,NA,sub17
d3-instructions,18,126724,0.0-18.0,TRUE,FALSE,TRUE,TRUE,"""event"",""trial"",""time""
""fullscreenenter"",""5"",""10090""
","
","
","""event"",""trial"",""time""
""fullscreenenter"",""5"",""10090""
","
",NA,NA,NA,NA,NA,NA,NA,NA,NA,NA,NA,NA,NA,NA,NA,NA,NA,NA,NA,NA,NA,NA,sub17
d3-instructions,19,145160,0.0-19.0,TRUE,FALSE,TRUE,TRUE,"""event"",""trial"",""time""
""fullscreenenter"",""5"",""10090""
","
","
","""event"",""trial"",""time""
""fullscreenenter"",""5"",""10090""
","
",NA,NA,NA,NA,NA,NA,NA,NA,NA,NA,NA,NA,NA,NA,NA,NA,NA,NA,NA,NA,NA,NA,sub17
d3-animate-choice,20,162257,0.0-20.0,TRUE,FALSE,TRUE,TRUE,"""event"",""trial"",""time""
""fullscreenenter"",""5"",""10090""
","
","
","""event"",""trial"",""time""
""fullscreenenter"",""5"",""10090""
","
",8658.645000003162,NA,97,NA,NA,3000,1,"8898.705000006885,9130.590000000666,9322.879999999714,9538.585000002058,9746.540000000095,9954.495000005409,10154.480000004696,10362.46000000392,10578.385000000708,10778.395000001183,10970.365000001038,11178.255000006175,11362.280000001192,15090.385000003153,15330.100000006496,15530.040000005101,15745.660000000498,15953.880000000936,16146.280000000843,16361.585000006016,16569.585000004736,16785.99000000395,17001.445000001695",9797979797979796e30,images/tutyellowplanet.jpg,null,images/tutalien3,null,images/tutalien3,images/t.png,NA,practice,null,NA,NA,NA,NA,sub17
d3-animate-choice,21,166617,0.0-21.0,TRUE,FALSE,TRUE,TRUE,"""event"",""trial"",""time""
""fullscreenenter"",""5"",""10090""
","
","
","""event"",""trial"",""time""
""fullscreenenter"",""5"",""10090""
","
",2354.1350000014063,NA,49,NA,NA,3000,1,3545.0550000023213,32,images/tutyellowplanet.jpg,null,images/tutalien3,null,images/tutalien3,images/t.png,NA,practice,null,NA,NA,NA,NA,sub17
d3-animate-choice,22,169768,0.0-22.0,TRUE,FALSE,TRUE,TRUE,"""event"",""trial"",""time""
""fullscreenenter"",""5"",""10090""
","
","
","""event"",""trial"",""time""
""fullscreenenter"",""5"",""10090""
","
",1145.3999999939697,NA,49,NA,NA,3000,1,"1641.3849999953527,2857.274999994843",4949,images/tutyellowplanet.jpg,null,images/tutalien3,null,images/tutalien3,images/t.png,NA,practice,null,NA,NA,NA,NA,sub17
d3-animate-choice,23,172158,0.0-23.0,TRUE,FALSE,TRUE,TRUE,"""event"",""trial"",""time""
""fullscreenenter"",""5"",""10090""
","
","
","""event"",""trial"",""time""
""fullscreenenter"",""5"",""10090""
","
",386.14500000403496,NA,49,NA,NA,3000,1,1985.9399999986636,49,images/tutyellowplanet.jpg,null,images/tutalien3,null,images/tutalien3,images/t.png,NA,practice,null,NA,NA,NA,NA,sub17
d3-animate-choice,24,174606,0.0-24.0,TRUE,FALSE,TRUE,TRUE,"""event"",""trial"",""time""
""fullscreenenter"",""5"",""10090""
","
","
","""event"",""trial"",""time""
""fullscreenenter"",""5"",""10090""
","
",443.4850000034203,NA,49,NA,NA,3000,1,NA,NA,images/tutyellowplanet.jpg,null,images/tutalien3,null,images/tutalien3,images/t.png,NA,practice,null,NA,NA,NA,NA,sub17
d3-animate-choice,25,178246,0.0-25.0,TRUE,FALSE,TRUE,TRUE,"""event"",""trial"",""time""
""fullscreenenter"",""5"",""10090""
","
","
","""event"",""trial"",""time""
""fullscreenenter"",""5"",""10090""
","
",1635.3999999992084,NA,49,NA,NA,3000,1,NA,NA,images/tutyellowplanet.jpg,null,images/tutalien3,null,images/tutalien3,images/t.png,NA,practice,null,NA,NA,NA,NA,sub17
d3-animate-choice,26,185013,0.0-26.0,TRUE,FALSE,TRUE,TRUE,"""event"",""trial"",""time""
""fullscreenenter"",""5"",""10090""
","
","
","""event"",""trial"",""time""
""fullscreenenter"",""5"",""10090""
","
",4762.070000004314,NA,49,NA,NA,3000,1,NA,NA,images/tutyellowplanet.jpg,null,images/tutalien3,null,images/tutalien3,images/nothing.png,NA,practice,null,NA,NA,NA,NA,sub17
d3-animate-choice,27,193422,0.0-27.0,TRUE,FALSE,TRUE,TRUE,"""event"",""trial"",""time""
""fullscreenenter"",""5"",""10090""
","
","
","""event"",""trial"",""time""
""fullscreenenter"",""5"",""10090""
","
",6401.980000002368,NA,49,NA,NA,3000,1,NA,NA,images/tutyellowplanet.jpg,null,images/tutalien3,null,images/tutalien3,images/t.png,NA,practice,null,NA,NA,NA,NA,sub17
d3-animate-choice,28,199043,0.0-28.0,TRUE,FALSE,TRUE,TRUE,"""event"",""trial"",""time""
""fullscreenenter"",""5"",""10090""
","
","
","""event"",""trial"",""time""
""fullscreenenter"",""5"",""10090""
","
",3616.0799999997835,NA,49,NA,NA,3000,1,NA,NA,images/tutyellowplanet.jpg,null,images/tutalien3,null,images/tutalien3,images/t.png,NA,practice,null,NA,NA,NA,NA,sub17
d3-animate-choice,29,201635,0.0-29.0,TRUE,FALSE,TRUE,TRUE,"""event"",""trial"",""time""
""fullscreenenter"",""5"",""10090""
","
","
","""event"",""trial"",""time""
""fullscreenenter"",""5"",""10090""
","
",586.5000000048894,NA,49,NA,NA,3000,1,NA,NA,images/tutyellowplanet.jpg,null,images/tutalien3,null,images/tutalien3,images/t.png,NA,practice,null,NA,NA,NA,NA,sub17
d3-instructions,30,209224,0.0-30.0,TRUE,FALSE,TRUE,TRUE,"""event"",""trial"",""time""
""fullscreenenter"",""5"",""10090""
","
","
","""event"",""trial"",""time""
""fullscreenenter"",""5"",""10090""
","
",NA,NA,NA,NA,NA,NA,NA,NA,NA,NA,NA,NA,NA,NA,NA,NA,NA,NA,NA,NA,NA,NA,sub17
d3-instructions,31,219183,0.0-31.0,TRUE,FALSE,TRUE,TRUE,"""event"",""trial"",""time""
""fullscreenenter"",""5"",""10090""
","
","
","""event"",""trial"",""time""
""fullscreenenter"",""5"",""10090""
","
",NA,NA,NA,NA,NA,NA,NA,NA,NA,NA,NA,NA,NA,NA,NA,NA,NA,NA,NA,NA,NA,NA,sub17
d3-instructions,32,227045,0.0-32.0,TRUE,FALSE,TRUE,TRUE,"""event"",""trial"",""time""
""fullscreenenter"",""5"",""10090""
","
","
","""event"",""trial"",""time""
""fullscreenenter"",""5"",""10090""
","
",NA,NA,NA,NA,NA,NA,NA,NA,NA,NA,NA,NA,NA,NA,NA,NA,NA,NA,NA,NA,NA,NA,sub17
d3-instructions,33,237996,0.0-33.0,TRUE,FALSE,TRUE,TRUE,"""event"",""trial"",""time""
""fullscreenenter"",""5"",""10090""
","
","
","""event"",""trial"",""time""
""fullscreenenter"",""5"",""10090""
","
",NA,NA,NA,NA,NA,NA,NA,NA,NA,NA,NA,NA,NA,NA,NA,NA,NA,NA,NA,NA,NA,NA,sub17
d3-animate-choice,34,245365,0.0-34.0,TRUE,FALSE,TRUE,TRUE,"""event"",""trial"",""time""
""fullscreenenter"",""5"",""10090""
","
","
","""event"",""trial"",""time""
""fullscreenenter"",""5"",""10090""
","
",5364.050000003772,NA,48,NA,NA,3000,1,NA,NA,images/tutgreenplanet.jpg,images/tutalien1,images/tutalien2,null,images/tutalien1,images/nothing.png,NA,practice,null,NA,NA,NA,NA,sub17
d3-animate-choice,35,248405,0.0-35.0,TRUE,FALSE,TRUE,TRUE,"""event"",""trial"",""time""
""fullscreenenter"",""5"",""10090""
","
","
","""event"",""trial"",""time""
""fullscreenenter"",""5"",""10090""
","
",1034.5450000022538,NA,49,NA,NA,3000,1,NA,NA,images/tutgreenplanet.jpg,images/tutalien1,images/tutalien2,null,images/tutalien2,images/t.png,NA,practice,null,NA,NA,NA,NA,sub17
d3-animate-choice,36,250836,0.0-36.0,TRUE,FALSE,TRUE,TRUE,"""event"",""trial"",""time""
""fullscreenenter"",""5"",""10090""
","
","
","""event"",""trial"",""time""
""fullscreenenter"",""5"",""10090""
","
",425.8300000001327,NA,49,NA,NA,3000,1,NA,NA,images/tutgreenplanet.jpg,images/tutalien1,images/tutalien2,null,images/tutalien2,images/t.png,NA,practice,null,NA,NA,NA,NA,sub17
d3-animate-choice,37,253205,0.0-37.0,TRUE,FALSE,TRUE,TRUE,"""event"",""trial"",""time""
""fullscreenenter"",""5"",""10090""
","
","
","""event"",""trial"",""time""
""fullscreenenter"",""5"",""10090""
","
",362.56500000308733,NA,49,NA,NA,3000,1,NA,NA,images/tutgreenplanet.jpg,images/tutalien1,images/tutalien2,null,images/tutalien2,images/t.png,NA,practice,null,NA,NA,NA,NA,sub17
d3-animate-choice,38,255588,0.0-38.0,TRUE,FALSE,TRUE,TRUE,"""event"",""trial"",""time""
""fullscreenenter"",""5"",""10090""
","
","
","""event"",""trial"",""time""
""fullscreenenter"",""5"",""10090""
","
",377.9450000001816,NA,49,NA,NA,3000,1,NA,NA,images/tutgreenplanet.jpg,images/tutalien1,images/tutalien2,null,images/tutalien2,images/t.png,NA,practice,null,NA,NA,NA,NA,sub17
d3-animate-choice,39,257964,0.0-39.0,TRUE,FALSE,TRUE,TRUE,"""event"",""trial"",""time""
""fullscreenenter"",""5"",""10090""
","
","
","""event"",""trial"",""time""
""fullscreenenter"",""5"",""10090""
","
",368.38999999599764,NA,49,NA,NA,3000,1,NA,NA,images/tutgreenplanet.jpg,images/tutalien1,images/tutalien2,null,images/tutalien2,images/t.png,NA,practice,null,NA,NA,NA,NA,sub17
d3-animate-choice,40,260299,0.0-40.0,TRUE,FALSE,TRUE,TRUE,"""event"",""trial"",""time""
""fullscreenenter"",""5"",""10090""
","
","
","""event"",""trial"",""time""
""fullscreenenter"",""5"",""10090""
","
",330.4250000001048,NA,49,NA,NA,3000,1,NA,NA,images/tutgreenplanet.jpg,images/tutalien1,images/tutalien2,null,images/tutalien2,images/t.png,NA,practice,null,NA,NA,NA,NA,sub17
d3-animate-choice,41,262619,0.0-41.0,TRUE,FALSE,TRUE,TRUE,"""event"",""trial"",""time""
""fullscreenenter"",""5"",""10090""
","
","
","""event"",""trial"",""time""
""fullscreenenter"",""5"",""10090""
","
",314.9550000016461,NA,49,NA,NA,3000,1,NA,NA,images/tutgreenplanet.jpg,images/tutalien1,images/tutalien2,null,images/tutalien2,images/t.png,NA,practice,null,NA,NA,NA,NA,sub17
d3-animate-choice,42,264963,0.0-42.0,TRUE,FALSE,TRUE,TRUE,"""event"",""trial"",""time""
""fullscreenenter"",""5"",""10090""
","
","
","""event"",""trial"",""time""
""fullscreenenter"",""5"",""10090""
","
",338.129999996454,NA,49,NA,NA,3000,1,NA,NA,images/tutgreenplanet.jpg,images/tutalien1,images/tutalien2,null,images/tutalien2,images/t.png,NA,practice,null,NA,NA,NA,NA,sub17
d3-animate-choice,43,267299,0.0-43.0,TRUE,FALSE,TRUE,TRUE,"""event"",""trial"",""time""
""fullscreenenter"",""5"",""10090""
","
","
","""event"",""trial"",""time""
""fullscreenenter"",""5"",""10090""
","
",330.1149999970221,NA,49,NA,NA,3000,1,NA,NA,images/tutgreenplanet.jpg,images/tutalien1,images/tutalien2,null,images/tutalien2,images/t.png,NA,practice,null,NA,NA,NA,NA,sub17
d3-instructions,44,280871,0.0-44.0,TRUE,FALSE,TRUE,TRUE,"""event"",""trial"",""time""
""fullscreenenter"",""5"",""10090""
","
","
","""event"",""trial"",""time""
""fullscreenenter"",""5"",""10090""
","
",NA,NA,NA,NA,NA,NA,NA,NA,NA,NA,NA,NA,NA,NA,NA,NA,NA,NA,NA,NA,NA,NA,sub17
d3-instructions,45,288861,0.0-45.0,TRUE,FALSE,TRUE,TRUE,"""event"",""trial"",""time""
""fullscreenenter"",""5"",""10090""
","
","
","""event"",""trial"",""time""
""fullscreenenter"",""5"",""10090""
","
",NA,NA,NA,NA,NA,NA,NA,NA,NA,NA,NA,NA,NA,NA,NA,NA,NA,NA,NA,NA,NA,NA,sub17
d3-instructions,46,294429,0.0-46.0,TRUE,FALSE,TRUE,TRUE,"""event"",""trial"",""time""
""fullscreenenter"",""5"",""10090""
","
","
","""event"",""trial"",""time""
""fullscreenenter"",""5"",""10090""
","
",NA,NA,NA,NA,NA,NA,NA,NA,NA,NA,NA,NA,NA,NA,NA,NA,NA,NA,NA,NA,NA,NA,sub17
d3-instructions,47,311234,0.0-47.0,TRUE,FALSE,TRUE,TRUE,"""event"",""trial"",""time""
""fullscreenenter"",""5"",""10090""
","
","
","""event"",""trial"",""time""
""fullscreenenter"",""5"",""10090""
","
",NA,NA,NA,NA,NA,NA,NA,NA,NA,NA,NA,NA,NA,NA,NA,NA,NA,NA,NA,NA,NA,NA,sub17
d3-instructions,48,320481,0.0-48.0,TRUE,FALSE,TRUE,TRUE,"""event"",""trial"",""time""
""fullscreenenter"",""5"",""10090""
","
","
","""event"",""trial"",""time""
""fullscreenenter"",""5"",""10090""
","
",NA,NA,NA,NA,NA,NA,NA,NA,NA,NA,NA,NA,NA,NA,NA,NA,NA,NA,NA,NA,NA,NA,sub17
d3-instructions,49,332927,0.0-49.0,TRUE,FALSE,TRUE,TRUE,"""event"",""trial"",""time""
""fullscreenenter"",""5"",""10090""
","
","
","""event"",""trial"",""time""
""fullscreenenter"",""5"",""10090""
","
",NA,NA,NA,NA,NA,NA,NA,NA,NA,NA,NA,NA,NA,NA,NA,NA,NA,NA,NA,NA,NA,NA,sub17
d3-instructions,50,351981,0.0-50.0,TRUE,FALSE,TRUE,TRUE,"""event"",""trial"",""time""
""fullscreenenter"",""5"",""10090""
","
","
","""event"",""trial"",""time""
""fullscreenenter"",""5"",""10090""
","
",NA,NA,NA,NA,NA,NA,NA,NA,NA,NA,NA,NA,NA,NA,NA,NA,NA,NA,NA,NA,NA,NA,sub17
d3-instructions,51,357724,0.0-51.0,TRUE,FALSE,TRUE,TRUE,"""event"",""trial"",""time""
""fullscreenenter"",""5"",""10090""
","
","
","""event"",""trial"",""time""
""fullscreenenter"",""5"",""10090""
","
",NA,NA,NA,NA,NA,NA,NA,NA,NA,NA,NA,NA,NA,NA,NA,NA,NA,NA,NA,NA,NA,NA,sub17
d3-instructions,52,364995,0.0-52.0,TRUE,FALSE,TRUE,TRUE,"""event"",""trial"",""time""
""fullscreenenter"",""5"",""10090""
","
","
","""event"",""trial"",""time""
""fullscreenenter"",""5"",""10090""
","
",NA,NA,NA,NA,NA,NA,NA,NA,NA,NA,NA,NA,NA,NA,NA,NA,NA,NA,NA,NA,NA,NA,sub17
d3-instructions,53,397791,0.0-53.0,TRUE,FALSE,TRUE,TRUE,"""event"",""trial"",""time""
""fullscreenenter"",""5"",""10090""
","
","
","""event"",""trial"",""time""
""fullscreenenter"",""5"",""10090""
","
",NA,NA,NA,NA,NA,NA,NA,NA,NA,NA,NA,NA,NA,NA,NA,NA,NA,NA,NA,NA,NA,NA,sub17
d3-instructions,54,429099,0.0-54.0,TRUE,FALSE,TRUE,TRUE,"""event"",""trial"",""time""
""fullscreenenter"",""5"",""10090""
","
","
","""event"",""trial"",""time""
""fullscreenenter"",""5"",""10090""
","
",NA,NA,NA,NA,NA,NA,NA,NA,NA,NA,NA,NA,NA,NA,NA,NA,NA,NA,NA,NA,NA,NA,sub17
d3-instructions,55,439945,0.0-55.0,TRUE,FALSE,TRUE,TRUE,"""event"",""trial"",""time""
""fullscreenenter"",""5"",""10090""
","
","
","""event"",""trial"",""time""
""fullscreenenter"",""5"",""10090""
","
",NA,NA,NA,NA,NA,NA,NA,NA,NA,NA,NA,NA,NA,NA,NA,NA,NA,NA,NA,NA,NA,NA,sub17
d3-instructions,56,448664,0.0-56.0,TRUE,FALSE,TRUE,TRUE,"""event"",""trial"",""time""
""fullscreenenter"",""5"",""10090""
","
","
","""event"",""trial"",""time""
""fullscreenenter"",""5"",""10090""
","
",NA,NA,NA,NA,NA,NA,NA,NA,NA,NA,NA,NA,NA,NA,NA,NA,NA,NA,NA,NA,NA,NA,sub17
d3-instructions,57,460694,0.0-57.0,TRUE,FALSE,TRUE,TRUE,"""event"",""trial"",""time""
""fullscreenenter"",""5"",""10090""
","
","
","""event"",""trial"",""time""
""fullscreenenter"",""5"",""10090""
","
",NA,NA,NA,NA,NA,NA,NA,NA,NA,NA,NA,NA,NA,NA,NA,NA,NA,NA,NA,NA,NA,NA,sub17
d3-instructions,58,473589,0.0-58.0,TRUE,FALSE,TRUE,TRUE,"""event"",""trial"",""time""
""fullscreenenter"",""5"",""10090""
","
","
","""event"",""trial"",""time""
""fullscreenenter"",""5"",""10090""
","
",NA,NA,NA,NA,NA,NA,NA,NA,NA,NA,NA,NA,NA,NA,NA,NA,NA,NA,NA,NA,NA,NA,sub17
d3-instructions,59,480092,0.0-59.0,TRUE,FALSE,TRUE,TRUE,"""event"",""trial"",""time""
""fullscreenenter"",""5"",""10090""
","
","
","""event"",""trial"",""time""
""fullscreenenter"",""5"",""10090""
","
",NA,NA,NA,NA,NA,NA,NA,NA,NA,NA,NA,NA,NA,NA,NA,NA,NA,NA,NA,NA,NA,NA,sub17
d3-instructions,60,486147,0.0-60.0,TRUE,FALSE,TRUE,TRUE,"""event"",""trial"",""time""
""fullscreenenter"",""5"",""10090""
","
","
","""event"",""trial"",""time""
""fullscreenenter"",""5"",""10090""
","
",NA,NA,NA,NA,NA,NA,NA,NA,NA,NA,NA,NA,NA,NA,NA,NA,NA,NA,NA,NA,NA,NA,sub17
d3-animate-choice,61,490154,0.0-61.0-0.0,TRUE,FALSE,TRUE,TRUE,"""event"",""trial"",""time""
""fullscreenenter"",""5"",""10090""
","
","
","""event"",""trial"",""time""
""fullscreenenter"",""5"",""10090""
","
",2042.3399999999674,NA,48,NA,NA,3000,1,NA,NA,images/earth.jpg,images/tutrocket2,images/tutrocket1,null,images/tutrocket2,NA,1,practice,null,2,NA,NA,NA,sub17
d3-animate-choice,62,494165,0.0-61.0-1.0,TRUE,FALSE,TRUE,TRUE,"""event"",""trial"",""time""
""fullscreenenter"",""5"",""10090""
","
","
","""event"",""trial"",""time""
""fullscreenenter"",""5"",""10090""
","
",null,NA,null,NA,NA,3000,0,NA,NA,images/tutgreenplanet.jpg,images/tutalien2,images/tutalien1,images/tutrocket2,NA,NA,2,practice,true,NA,common,0,2020-06-24T02:15:25Z,sub17
two-step-fixation,63,495175,0.0-61.0-2.0,TRUE,FALSE,TRUE,TRUE,"""event"",""trial"",""time""
""fullscreenenter"",""5"",""10090""
","
","
","""event"",""trial"",""time""
""fullscreenenter"",""5"",""10090""
","
",NA,images/earth.jpg,NA,NA,NA,NA,NA,NA,NA,NA,NA,NA,NA,NA,NA,fixation,NA,NA,NA,NA,NA,NA,sub17
d3-animate-choice,64,498299,0.0-61.0-0.1,TRUE,FALSE,TRUE,TRUE,"""event"",""trial"",""time""
""fullscreenenter"",""5"",""10090""
","
","
","""event"",""trial"",""time""
""fullscreenenter"",""5"",""10090""
","
",1118.8150000016321,NA,49,NA,NA,3000,1,NA,NA,images/earth.jpg,images/tutrocket2,images/tutrocket1,null,images/tutrocket1,NA,1,practice,null,1,NA,NA,NA,sub17
d3-animate-choice,65,501685,0.0-61.0-1.1,TRUE,FALSE,TRUE,TRUE,"""event"",""trial"",""time""
""fullscreenenter"",""5"",""10090""
","
","
","""event"",""trial"",""time""
""fullscreenenter"",""5"",""10090""
","
",1377.9750000030617,NA,48,NA,NA,3000,1,NA,NA,images/tutgreenplanet.jpg,images/tutalien2,images/tutalien1,images/tutrocket1,images/tutalien2,images/nothing.png,2,practice,false,2,rare,0,2020-06-24T02:15:32Z,sub17
two-step-fixation,66,502688,0.0-61.0-2.1,TRUE,FALSE,TRUE,TRUE,"""event"",""trial"",""time""
""fullscreenenter"",""5"",""10090""
","
","
","""event"",""trial"",""time""
""fullscreenenter"",""5"",""10090""
","
",NA,images/earth.jpg,NA,NA,NA,NA,NA,NA,NA,NA,NA,NA,NA,NA,NA,fixation,NA,NA,NA,NA,NA,NA,sub17
d3-animate-choice,67,504907,0.0-61.0-0.2,TRUE,FALSE,TRUE,TRUE,"""event"",""trial"",""time""
""fullscreenenter"",""5"",""10090""
","
","
","""event"",""trial"",""time""
""fullscreenenter"",""5"",""10090""
","
",212.0950000025914,NA,49,NA,NA,3000,1,NA,NA,images/earth.jpg,images/tutrocket2,images/tutrocket1,null,images/tutrocket1,NA,1,practice,null,1,NA,NA,NA,sub17
d3-animate-choice,68,508602,0.0-61.0-1.2,TRUE,FALSE,TRUE,TRUE,"""event"",""trial"",""time""
""fullscreenenter"",""5"",""10090""
","
","
","""event"",""trial"",""time""
""fullscreenenter"",""5"",""10090""
","
",1689.4700000048033,NA,49,NA,NA,3000,1,NA,NA,images/tutyellowplanet.jpg,images/tutalien4,images/tutalien3,images/tutrocket1,images/tutalien3,images/t.png,2,practice,true,1,common,1,2020-06-24T02:15:39Z,sub17
two-step-fixation,69,509607,0.0-61.0-2.2,TRUE,FALSE,TRUE,TRUE,"""event"",""trial"",""time""
""fullscreenenter"",""5"",""10090""
","
","
","""event"",""trial"",""time""
""fullscreenenter"",""5"",""10090""
","
",NA,images/earth.jpg,NA,NA,NA,NA,NA,NA,NA,NA,NA,NA,NA,NA,NA,fixation,NA,NA,NA,NA,NA,NA,sub17
d3-animate-choice,70,512482,0.0-61.0-0.3,TRUE,FALSE,TRUE,TRUE,"""event"",""trial"",""time""
""fullscreenenter"",""5"",""10090""
","
","
","""event"",""trial"",""time""
""fullscreenenter"",""5"",""10090""
","
",868.9549999980954,NA,49,NA,NA,3000,1,NA,NA,images/earth.jpg,images/tutrocket2,images/tutrocket1,null,images/tutrocket1,NA,1,practice,null,1,NA,NA,NA,sub17
d3-animate-choice,71,516490,0.0-61.0-1.3,TRUE,FALSE,TRUE,TRUE,"""event"",""trial"",""time""
""fullscreenenter"",""5"",""10090""
","
","
","""event"",""trial"",""time""
""fullscreenenter"",""5"",""10090""
","
",3152.8850000031525,NA,49,NA,NA,3000,0,NA,NA,images/tutyellowplanet.jpg,images/tutalien4,images/tutalien3,images/tutrocket1,NA,NA,2,practice,true,1,common,0,2020-06-24T02:15:47Z,sub17
two-step-fixation,72,517496,0.0-61.0-2.3,TRUE,FALSE,TRUE,TRUE,"""event"",""trial"",""time""
""fullscreenenter"",""5"",""10090""
","
","
","""event"",""trial"",""time""
""fullscreenenter"",""5"",""10090""
","
",NA,images/earth.jpg,NA,NA,NA,NA,NA,NA,NA,NA,NA,NA,NA,NA,NA,fixation,NA,NA,NA,NA,NA,NA,sub17
d3-animate-choice,73,519976,0.0-61.0-0.4,TRUE,FALSE,TRUE,TRUE,"""event"",""trial"",""time""
""fullscreenenter"",""5"",""10090""
","
","
","""event"",""trial"",""time""
""fullscreenenter"",""5"",""10090""
","
",474.5450000045821,NA,49,NA,NA,3000,1,NA,NA,images/earth.jpg,images/tutrocket2,images/tutrocket1,null,images/tutrocket1,NA,1,practice,null,1,NA,NA,NA,sub17
d3-animate-choice,74,522807,0.0-61.0-1.4,TRUE,FALSE,TRUE,TRUE,"""event"",""trial"",""time""
""fullscreenenter"",""5"",""10090""
","
","
","""event"",""trial"",""time""
""fullscreenenter"",""5"",""10090""
","
",825.7700000031618,NA,49,NA,NA,3000,1,NA,NA,images/tutgreenplanet.jpg,images/tutalien2,images/tutalien1,images/tutrocket1,images/tutalien1,images/nothing.png,2,practice,false,1,rare,0,2020-06-24T02:15:53Z,sub17
two-step-fixation,75,523812,0.0-61.0-2.4,TRUE,FALSE,TRUE,TRUE,"""event"",""trial"",""time""
""fullscreenenter"",""5"",""10090""
","
","
","""event"",""trial"",""time""
""fullscreenenter"",""5"",""10090""
","
",NA,images/earth.jpg,NA,NA,NA,NA,NA,NA,NA,NA,NA,NA,NA,NA,NA,fixation,NA,NA,NA,NA,NA,NA,sub17
d3-animate-choice,76,526271,0.0-61.0-0.5,TRUE,FALSE,TRUE,TRUE,"""event"",""trial"",""time""
""fullscreenenter"",""5"",""10090""
","
","
","""event"",""trial"",""time""
""fullscreenenter"",""5"",""10090""
","
",454.28499999968335,NA,48,NA,NA,3000,1,NA,NA,images/earth.jpg,images/tutrocket2,images/tutrocket1,null,images/tutrocket2,NA,1,practice,null,2,NA,NA,NA,sub17
d3-animate-choice,77,529015,0.0-61.0-1.5,TRUE,FALSE,TRUE,TRUE,"""event"",""trial"",""time""
""fullscreenenter"",""5"",""10090""
","
","
","""event"",""trial"",""time""
""fullscreenenter"",""5"",""10090""
","
",738.2099999957718,NA,48,NA,NA,3000,1,NA,NA,images/tutyellowplanet.jpg,images/tutalien4,images/tutalien3,images/tutrocket2,images/tutalien4,images/t.png,2,practice,false,2,rare,1,2020-06-24T02:16:00Z,sub17
two-step-fixation,78,530021,0.0-61.0-2.5,TRUE,FALSE,TRUE,TRUE,"""event"",""trial"",""time""
""fullscreenenter"",""5"",""10090""
","
","
","""event"",""trial"",""time""
""fullscreenenter"",""5"",""10090""
","
",NA,images/earth.jpg,NA,NA,NA,NA,NA,NA,NA,NA,NA,NA,NA,NA,NA,fixation,NA,NA,NA,NA,NA,NA,sub17
d3-animate-choice,79,532670,0.0-61.0-0.6,TRUE,FALSE,TRUE,TRUE,"""event"",""trial"",""time""
""fullscreenenter"",""5"",""10090""
","
","
","""event"",""trial"",""time""
""fullscreenenter"",""5"",""10090""
","
",644.2749999987427,NA,48,NA,NA,3000,1,"1739.9500000029802,2491.99999999837",4848,images/earth.jpg,images/tutrocket2,images/tutrocket1,null,images/tutrocket2,NA,1,practice,null,2,NA,NA,NA,sub17
d3-animate-choice,80,535199,0.0-61.0-1.6,TRUE,FALSE,TRUE,TRUE,"""event"",""trial"",""time""
""fullscreenenter"",""5"",""10090""
","
","
","""event"",""trial"",""time""
""fullscreenenter"",""5"",""10090""
","
",521.8600000008009,NA,48,NA,NA,3000,1,1001.5149999962887,48,images/tutgreenplanet.jpg,images/tutalien2,images/tutalien1,images/tutrocket2,images/tutalien2,images/nothing.png,2,practice,true,2,common,0,2020-06-24T02:16:06Z,sub17
two-step-fixation,81,536204,0.0-61.0-2.6,TRUE,FALSE,TRUE,TRUE,"""event"",""trial"",""time""
""fullscreenenter"",""5"",""10090""
","
","
","""event"",""trial"",""time""
""fullscreenenter"",""5"",""10090""
","
",NA,images/earth.jpg,NA,NA,NA,NA,NA,NA,NA,NA,NA,NA,NA,NA,NA,fixation,NA,NA,NA,NA,NA,NA,sub17
d3-animate-choice,82,538670,0.0-61.0-0.7,TRUE,FALSE,TRUE,TRUE,"""event"",""trial"",""time""
""fullscreenenter"",""5"",""10090""
","
","
","""event"",""trial"",""time""
""fullscreenenter"",""5"",""10090""
","
",460.84500000148546,NA,49,NA,NA,3000,1,NA,NA,images/earth.jpg,images/tutrocket2,images/tutrocket1,null,images/tutrocket1,NA,1,practice,null,1,NA,NA,NA,sub17
d3-animate-choice,83,541381,0.0-61.0-1.7,TRUE,FALSE,TRUE,TRUE,"""event"",""trial"",""time""
""fullscreenenter"",""5"",""10090""
","
","
","""event"",""trial"",""time""
""fullscreenenter"",""5"",""10090""
","
",705.8299999989104,NA,49,NA,NA,3000,1,NA,NA,images/tutyellowplanet.jpg,images/tutalien4,images/tutalien3,images/tutrocket1,images/tutalien3,images/nothing.png,2,practice,true,1,common,0,2020-06-24T02:16:12Z,sub17
two-step-fixation,84,542385,0.0-61.0-2.7,TRUE,FALSE,TRUE,TRUE,"""event"",""trial"",""time""
""fullscreenenter"",""5"",""10090""
","
","
","""event"",""trial"",""time""
""fullscreenenter"",""5"",""10090""
","
",NA,images/earth.jpg,NA,NA,NA,NA,NA,NA,NA,NA,NA,NA,NA,NA,NA,fixation,NA,NA,NA,NA,NA,NA,sub17
d3-animate-choice,85,545334,0.0-61.0-0.8,TRUE,FALSE,TRUE,TRUE,"""event"",""trial"",""time""
""fullscreenenter"",""5"",""10090""
","
","
","""event"",""trial"",""time""
""fullscreenenter"",""5"",""10090""
","
",942.914999999688,NA,48,NA,NA,3000,1,NA,NA,images/earth.jpg,images/tutrocket2,images/tutrocket1,null,images/tutrocket2,NA,1,practice,null,2,NA,NA,NA,sub17
d3-animate-choice,86,548101,0.0-61.0-1.8,TRUE,FALSE,TRUE,TRUE,"""event"",""trial"",""time""
""fullscreenenter"",""5"",""10090""
","
","
","""event"",""trial"",""time""
""fullscreenenter"",""5"",""10090""
","
",761.1350000005914,NA,48,NA,NA,3000,1,NA,NA,images/tutgreenplanet.jpg,images/tutalien2,images/tutalien1,images/tutrocket2,images/tutalien2,images/nothing.png,2,practice,true,2,common,0,2020-06-24T02:16:19Z,sub17
two-step-fixation,87,549106,0.0-61.0-2.8,TRUE,FALSE,TRUE,TRUE,"""event"",""trial"",""time""
""fullscreenenter"",""5"",""10090""
","
","
","""event"",""trial"",""time""
""fullscreenenter"",""5"",""10090""
","
",NA,images/earth.jpg,NA,NA,NA,NA,NA,NA,NA,NA,NA,NA,NA,NA,NA,fixation,NA,NA,NA,NA,NA,NA,sub17
d3-animate-choice,88,552579,0.0-61.0-0.9,TRUE,FALSE,TRUE,TRUE,"""event"",""trial"",""time""
""fullscreenenter"",""5"",""10090""
","
","
","""event"",""trial"",""time""
""fullscreenenter"",""5"",""10090""
","
",1468.8399999941466,NA,48,NA,NA,3000,1,2796.6099999976577,48,images/earth.jpg,images/tutrocket2,images/tutrocket1,null,images/tutrocket2,NA,1,practice,null,2,NA,NA,NA,sub17
d3-animate-choice,89,554645,0.0-61.0-1.9,TRUE,FALSE,TRUE,TRUE,"""event"",""trial"",""time""
""fullscreenenter"",""5"",""10090""
","
","
","""event"",""trial"",""time""
""fullscreenenter"",""5"",""10090""
","
",58.40499999606982,NA,48,NA,NA,3000,1,NA,NA,images/tutgreenplanet.jpg,images/tutalien2,images/tutalien1,images/tutrocket2,images/tutalien2,images/t.png,2,practice,true,2,common,1,2020-06-24T02:16:25Z,sub17
two-step-fixation,90,555650,0.0-61.0-2.9,TRUE,FALSE,TRUE,TRUE,"""event"",""trial"",""time""
""fullscreenenter"",""5"",""10090""
","
","
","""event"",""trial"",""time""
""fullscreenenter"",""5"",""10090""
","
",NA,images/earth.jpg,NA,NA,NA,NA,NA,NA,NA,NA,NA,NA,NA,NA,NA,fixation,NA,NA,NA,NA,NA,NA,sub17
d3-animate-choice,91,558260,0.0-61.0-0.10,TRUE,FALSE,TRUE,TRUE,"""event"",""trial"",""time""
""fullscreenenter"",""5"",""10090""
","
","
","""event"",""trial"",""time""
""fullscreenenter"",""5"",""10090""
","
",604.0849999990314,NA,49,NA,NA,3000,1,2171.439999998198,49,images/earth.jpg,images/tutrocket2,images/tutrocket1,null,images/tutrocket1,NA,1,practice,null,1,NA,NA,NA,sub17
d3-animate-choice,92,561042,0.0-61.0-1.10,TRUE,FALSE,TRUE,TRUE,"""event"",""trial"",""time""
""fullscreenenter"",""5"",""10090""
","
","
","""event"",""trial"",""time""
""fullscreenenter"",""5"",""10090""
","
",776.874999995809,NA,49,NA,NA,3000,1,2168.669999998994,49,images/tutgreenplanet.jpg,images/tutalien2,images/tutalien1,images/tutrocket1,images/tutalien1,images/nothing.png,2,practice,false,1,rare,0,2020-06-24T02:16:32Z,sub17
two-step-fixation,93,562047,0.0-61.0-2.10,TRUE,FALSE,TRUE,TRUE,"""event"",""trial"",""time""
""fullscreenenter"",""5"",""10090""
","
","
","""event"",""trial"",""time""
""fullscreenenter"",""5"",""10090""
","
",NA,images/earth.jpg,NA,NA,NA,NA,NA,NA,NA,NA,NA,NA,NA,NA,NA,fixation,NA,NA,NA,NA,NA,NA,sub17
d3-animate-choice,94,564058,0.0-61.0-0.11,TRUE,FALSE,TRUE,TRUE,"""event"",""trial"",""time""
""fullscreenenter"",""5"",""10090""
","
","
","""event"",""trial"",""time""
""fullscreenenter"",""5"",""10090""
","
",6.220000002882443,NA,48,NA,NA,3000,1,1614.1700000007404,48,images/earth.jpg,images/tutrocket2,images/tutrocket1,null,images/tutrocket2,NA,1,practice,null,2,NA,NA,NA,sub17
d3-animate-choice,95,566107,0.0-61.0-1.11,TRUE,FALSE,TRUE,TRUE,"""event"",""trial"",""time""
""fullscreenenter"",""5"",""10090""
","
","
","""event"",""trial"",""time""
""fullscreenenter"",""5"",""10090""
","
",42.124999999883585,NA,48,NA,NA,3000,1,"809.9099999963073,1561.9900000019697",4848,images/tutgreenplanet.jpg,images/tutalien2,images/tutalien1,images/tutrocket2,images/tutalien2,images/nothing.png,2,practice,true,2,common,0,2020-06-24T02:16:37Z,sub17
two-step-fixation,96,567111,0.0-61.0-2.11,TRUE,FALSE,TRUE,TRUE,"""event"",""trial"",""time""
""fullscreenenter"",""5"",""10090""
","
","
","""event"",""trial"",""time""
""fullscreenenter"",""5"",""10090""
","
",NA,images/earth.jpg,NA,NA,NA,NA,NA,NA,NA,NA,NA,NA,NA,NA,NA,fixation,NA,NA,NA,NA,NA,NA,sub17
d3-animate-choice,97,569690,0.0-61.0-0.12,TRUE,FALSE,TRUE,TRUE,"""event"",""trial"",""time""
""fullscreenenter"",""5"",""10090""
","
","
","""event"",""trial"",""time""
""fullscreenenter"",""5"",""10090""
","
",573.445000001695,NA,49,NA,NA,3000,1,2397.189999995986,49,images/earth.jpg,images/tutrocket2,images/tutrocket1,null,images/tutrocket1,NA,1,practice,null,1,NA,NA,NA,sub17
d3-animate-choice,98,572393,0.0-61.0-1.12,TRUE,FALSE,TRUE,TRUE,"""event"",""trial"",""time""
""fullscreenenter"",""5"",""10090""
","
","
","""event"",""trial"",""time""
""fullscreenenter"",""5"",""10090""
","
",698.079999994603,NA,49,NA,NA,3000,1,"1681.994999999064,2481.6999999965774",4949,images/tutyellowplanet.jpg,images/tutalien4,images/tutalien3,images/tutrocket1,images/tutalien3,images/nothing.png,2,practice,true,1,common,0,2020-06-24T02:16:43Z,sub17
two-step-fixation,99,573397,0.0-61.0-2.12,TRUE,FALSE,TRUE,TRUE,"""event"",""trial"",""time""
""fullscreenenter"",""5"",""10090""
","
","
","""event"",""trial"",""time""
""fullscreenenter"",""5"",""10090""
","
",NA,images/earth.jpg,NA,NA,NA,NA,NA,NA,NA,NA,NA,NA,NA,NA,NA,fixation,NA,NA,NA,NA,NA,NA,sub17
d3-animate-choice,100,575848,0.0-61.0-0.13,TRUE,FALSE,TRUE,TRUE,"""event"",""trial"",""time""
""fullscreenenter"",""5"",""10090""
","
","
","""event"",""trial"",""time""
""fullscreenenter"",""5"",""10090""
","
",446.4700000025332,NA,48,NA,NA,3000,1,2070.31499999715,48,images/earth.jpg,images/tutrocket2,images/tutrocket1,null,images/tutrocket2,NA,1,practice,null,2,NA,NA,NA,sub17
d3-animate-choice,101,577984,0.0-61.0-1.13,TRUE,FALSE,TRUE,TRUE,"""event"",""trial"",""time""
""fullscreenenter"",""5"",""10090""
","
","
","""event"",""trial"",""time""
""fullscreenenter"",""5"",""10090""
","
",130.34000000334345,NA,48,NA,NA,3000,1,"818.5900000025285,1642.595000004745",4848,images/tutgreenplanet.jpg,images/tutalien2,images/tutalien1,images/tutrocket2,images/tutalien2,images/nothing.png,2,practice,true,2,common,0,2020-06-24T02:16:48Z,sub17
two-step-fixation,102,578989,0.0-61.0-2.13,TRUE,FALSE,TRUE,TRUE,"""event"",""trial"",""time""
""fullscreenenter"",""5"",""10090""
","
","
","""event"",""trial"",""time""
""fullscreenenter"",""5"",""10090""
","
",NA,images/earth.jpg,NA,NA,NA,NA,NA,NA,NA,NA,NA,NA,NA,NA,NA,fixation,NA,NA,NA,NA,NA,NA,sub17
d3-animate-choice,103,581824,0.0-61.0-0.14,TRUE,FALSE,TRUE,TRUE,"""event"",""trial"",""time""
""fullscreenenter"",""5"",""10090""
","
","
","""event"",""trial"",""time""
""fullscreenenter"",""5"",""10090""
","
",829.4549999991432,NA,49,NA,NA,3000,1,"1293.2950000030687,1885.340000000666,2397.3449999975273",494949,images/earth.jpg,images/tutrocket2,images/tutrocket1,null,images/tutrocket1,NA,1,practice,null,1,NA,NA,NA,sub17
d3-animate-choice,104,584263,0.0-61.0-1.14,TRUE,FALSE,TRUE,TRUE,"""event"",""trial"",""time""
""fullscreenenter"",""5"",""10090""
","
","
","""event"",""trial"",""time""
""fullscreenenter"",""5"",""10090""
","
",434.150000001071,NA,49,NA,NA,3000,1,NA,NA,images/tutgreenplanet.jpg,images/tutalien2,images/tutalien1,images/tutrocket1,images/tutalien1,images/nothing.png,2,practice,false,1,rare,0,2020-06-24T02:16:55Z,sub17
two-step-fixation,105,585268,0.0-61.0-2.14,TRUE,FALSE,TRUE,TRUE,"""event"",""trial"",""time""
""fullscreenenter"",""5"",""10090""
","
","
","""event"",""trial"",""time""
""fullscreenenter"",""5"",""10090""
","
",NA,images/earth.jpg,NA,NA,NA,NA,NA,NA,NA,NA,NA,NA,NA,NA,NA,fixation,NA,NA,NA,NA,NA,NA,sub17
d3-animate-choice,106,588383,0.0-61.0-0.15,TRUE,FALSE,TRUE,TRUE,"""event"",""trial"",""time""
""fullscreenenter"",""5"",""10090""
","
","
","""event"",""trial"",""time""
""fullscreenenter"",""5"",""10090""
","
",1110.0700000023935,NA,49,NA,NA,3000,1,"1581.6650000051595,2734.0949999997392",4949,images/earth.jpg,images/tutrocket2,images/tutrocket1,null,images/tutrocket1,NA,1,practice,null,1,NA,NA,NA,sub17
d3-animate-choice,107,592182,0.0-61.0-1.15,TRUE,FALSE,TRUE,TRUE,"""event"",""trial"",""time""
""fullscreenenter"",""5"",""10090""
","
","
","""event"",""trial"",""time""
""fullscreenenter"",""5"",""10090""
","
",1793.5299999953713,NA,49,NA,NA,3000,1,2689.310000001453,49,images/tutgreenplanet.jpg,images/tutalien2,images/tutalien1,images/tutrocket1,images/tutalien1,images/nothing.png,2,practice,false,1,rare,0,2020-06-24T02:17:03Z,sub17
two-step-fixation,108,593188,0.0-61.0-2.15,TRUE,FALSE,TRUE,TRUE,"""event"",""trial"",""time""
""fullscreenenter"",""5"",""10090""
","
","
","""event"",""trial"",""time""
""fullscreenenter"",""5"",""10090""
","
",NA,images/earth.jpg,NA,NA,NA,NA,NA,NA,NA,NA,NA,NA,NA,NA,NA,fixation,NA,NA,NA,NA,NA,NA,sub17
d3-animate-choice,109,595758,0.0-61.0-0.16,TRUE,FALSE,TRUE,TRUE,"""event"",""trial"",""time""
""fullscreenenter"",""5"",""10090""
","
","
","""event"",""trial"",""time""
""fullscreenenter"",""5"",""10090""
","
",565.1349999969825,NA,48,NA,NA,3000,1,"1012.9450000021607,1269.074999996461,1692.7700000014156,2357.299999995972",48484848,images/earth.jpg,images/tutrocket2,images/tutrocket1,null,images/tutrocket2,NA,1,practice,null,2,NA,NA,NA,sub17
d3-animate-choice,110,598286,0.0-61.0-1.16,TRUE,FALSE,TRUE,TRUE,"""event"",""trial"",""time""
""fullscreenenter"",""5"",""10090""
","
","
","""event"",""trial"",""time""
""fullscreenenter"",""5"",""10090""
","
",522.4949999974342,NA,48,NA,NA,3000,1,1898.0749999973923,48,images/tutgreenplanet.jpg,images/tutalien2,images/tutalien1,images/tutrocket2,images/tutalien2,images/nothing.png,2,practice,true,2,common,0,2020-06-24T02:17:09Z,sub17
two-step-fixation,111,599291,0.0-61.0-2.16,TRUE,FALSE,TRUE,TRUE,"""event"",""trial"",""time""
""fullscreenenter"",""5"",""10090""
","
","
","""event"",""trial"",""time""
""fullscreenenter"",""5"",""10090""
","
",NA,images/earth.jpg,NA,NA,NA,NA,NA,NA,NA,NA,NA,NA,NA,NA,NA,fixation,NA,NA,NA,NA,NA,NA,sub17
d3-animate-choice,112,601870,0.0-61.0-0.17,TRUE,FALSE,TRUE,TRUE,"""event"",""trial"",""time""
""fullscreenenter"",""5"",""10090""
","
","
","""event"",""trial"",""time""
""fullscreenenter"",""5"",""10090""
","
",573.0550000008661,NA,49,NA,NA,3000,1,"1140.5900000027614,2180.4900000061607",4949,images/earth.jpg,images/tutrocket2,images/tutrocket1,null,images/tutrocket1,NA,1,practice,null,1,NA,NA,NA,sub17
d3-animate-choice,113,604997,0.0-61.0-1.17,TRUE,FALSE,TRUE,TRUE,"""event"",""trial"",""time""
""fullscreenenter"",""5"",""10090""
","
","
","""event"",""trial"",""time""
""fullscreenenter"",""5"",""10090""
","
",1120.6799999999348,NA,49,NA,NA,3000,1,2496.885000000475,49,images/tutyellowplanet.jpg,images/tutalien4,images/tutalien3,images/tutrocket1,images/tutalien3,images/nothing.png,2,practice,true,1,common,0,2020-06-24T02:17:15Z,sub17
two-step-fixation,114,606002,0.0-61.0-2.17,TRUE,FALSE,TRUE,TRUE,"""event"",""trial"",""time""
""fullscreenenter"",""5"",""10090""
","
","
","""event"",""trial"",""time""
""fullscreenenter"",""5"",""10090""
","
",NA,images/earth.jpg,NA,NA,NA,NA,NA,NA,NA,NA,NA,NA,NA,NA,NA,fixation,NA,NA,NA,NA,NA,NA,sub17
d3-animate-choice,115,610008,0.0-61.0-0.18,TRUE,FALSE,TRUE,TRUE,"""event"",""trial"",""time""
""fullscreenenter"",""5"",""10090""
","
","
","""event"",""trial"",""time""
""fullscreenenter"",""5"",""10090""
","
",3540.789999999106,NA,48,NA,NA,3000,0,NA,NA,images/earth.jpg,images/tutrocket2,images/tutrocket1,null,NA,NA,1,practice,null,2,NA,NA,NA,sub17
d3-animate-choice,116,611018,0.0-61.0-1.18,TRUE,FALSE,TRUE,TRUE,"""event"",""trial"",""time""
""fullscreenenter"",""5"",""10090""
","
","
","""event"",""trial"",""time""
""fullscreenenter"",""5"",""10090""
","
",null,NA,null,NA,NA,0,0,NA,NA,images/earth.jpg,images/tutrocket2,images/tutrocket1,null,NA,NA,2,practice,null,NA,NA,0,2020-06-24T02:17:22Z,sub17
two-step-fixation,117,612025,0.0-61.0-2.18,TRUE,FALSE,TRUE,TRUE,"""event"",""trial"",""time""
""fullscreenenter"",""5"",""10090""
","
","
","""event"",""trial"",""time""
""fullscreenenter"",""5"",""10090""
","
",NA,images/earth.jpg,NA,NA,NA,NA,NA,NA,NA,NA,NA,NA,NA,NA,NA,fixation,NA,NA,NA,NA,NA,NA,sub17
d3-animate-choice,118,614396,0.0-61.0-0.19,TRUE,FALSE,TRUE,TRUE,"""event"",""trial"",""time""
""fullscreenenter"",""5"",""10090""
","
","
","""event"",""trial"",""time""
""fullscreenenter"",""5"",""10090""
","
",364.7650000057183,NA,48,NA,NA,3000,1,"868.8700000056997,1900.9850000002189,2253.0450000049314",484848,images/earth.jpg,images/tutrocket2,images/tutrocket1,null,images/tutrocket2,NA,1,practice,null,2,NA,NA,NA,sub17
d3-animate-choice,119,616772,0.0-61.0-1.19,TRUE,FALSE,TRUE,TRUE,"""event"",""trial"",""time""
""fullscreenenter"",""5"",""10090""
","
","
","""event"",""trial"",""time""
""fullscreenenter"",""5"",""10090""
","
",369.65999999665655,NA,48,NA,NA,3000,1,"777.6349999986123,1713.3899999971036",4848,images/tutyellowplanet.jpg,images/tutalien4,images/tutalien3,images/tutrocket2,images/tutalien4,images/t.png,2,practice,false,2,rare,1,2020-06-24T02:17:27Z,sub17
two-step-fixation,120,617777,0.0-61.0-2.19,TRUE,FALSE,TRUE,TRUE,"""event"",""trial"",""time""
""fullscreenenter"",""5"",""10090""
","
","
","""event"",""trial"",""time""
""fullscreenenter"",""5"",""10090""
","
",NA,images/earth.jpg,NA,NA,NA,NA,NA,NA,NA,NA,NA,NA,NA,NA,NA,fixation,NA,NA,NA,NA,NA,NA,sub17
d3-instructions,121,623600,0.0-62.0,TRUE,FALSE,TRUE,TRUE,"""event"",""trial"",""time""
""fullscreenenter"",""5"",""10090""
","
","
","""event"",""trial"",""time""
""fullscreenenter"",""5"",""10090""
","
",NA,NA,NA,NA,NA,NA,NA,NA,NA,NA,NA,NA,NA,NA,NA,NA,NA,NA,NA,NA,NA,NA,sub17
audio-keyboard-response,122,627135,0.0-63.0,TRUE,FALSE,TRUE,TRUE,"""event"",""trial"",""time""
""fullscreenenter"",""5"",""10090""
","
","
","""event"",""trial"",""time""
""fullscreenenter"",""5"",""10090""
","
",3528,audio/instructions/treasure_feedback.wav,32,NA,NA,NA,NA,NA,NA,NA,NA,NA,NA,NA,NA,NA,NA,NA,NA,NA,NA,NA,sub17
d3-instructions,123,649165,0.0-64.0,TRUE,FALSE,TRUE,TRUE,"""event"",""trial"",""time""
""fullscreenenter"",""5"",""10090""
","
","
","""event"",""trial"",""time""
""fullscreenenter"",""5"",""10090""
","
",NA,NA,NA,NA,NA,NA,NA,NA,NA,NA,NA,NA,NA,NA,NA,NA,NA,NA,NA,NA,NA,NA,sub17
d3-instructions,124,669482,0.0-65.0,TRUE,FALSE,TRUE,TRUE,"""event"",""trial"",""time""
""fullscreenenter"",""5"",""10090""
","
","
","""event"",""trial"",""time""
""fullscreenenter"",""5"",""10090""
","
",NA,NA,NA,NA,NA,NA,NA,NA,NA,NA,NA,NA,NA,NA,NA,NA,NA,NA,NA,NA,NA,NA,sub17
d3-instructions,125,694167,0.0-66.0,TRUE,FALSE,TRUE,TRUE,"""event"",""trial"",""time""
""fullscreenenter"",""5"",""10090""
","
","
","""event"",""trial"",""time""
""fullscreenenter"",""5"",""10090""
","
",NA,NA,NA,NA,NA,NA,NA,NA,NA,NA,NA,NA,NA,NA,NA,NA,NA,NA,NA,NA,NA,NA,sub17
d3-instructions,126,715340,0.0-67.0,TRUE,FALSE,TRUE,TRUE,"""event"",""trial"",""time""
""fullscreenenter"",""5"",""10090""
","
","
","""event"",""trial"",""time""
""fullscreenenter"",""5"",""10090""
","
",NA,NA,NA,NA,NA,NA,NA,NA,NA,NA,NA,NA,NA,NA,NA,NA,NA,NA,NA,NA,NA,NA,sub17
d3-instructions,127,725539,0.0-68.0,TRUE,FALSE,TRUE,TRUE,"""event"",""trial"",""time""
""fullscreenenter"",""5"",""10090""
","
","
","""event"",""trial"",""time""
""fullscreenenter"",""5"",""10090""
","
",NA,NA,NA,NA,NA,NA,NA,NA,NA,NA,NA,NA,NA,NA,NA,NA,NA,NA,NA,NA,NA,NA,sub17
instructions-quiz,128,730393,0.0-69.0,TRUE,FALSE,TRUE,TRUE,"""event"",""trial"",""time""
""fullscreenenter"",""5"",""10090""
","
","
","""event"",""trial"",""time""
""fullscreenenter"",""5"",""10090""
","
",4849.650000003749,audio/quiz/Q1_Prompt.wav,NA,1,NA,NA,NA,NA,NA,NA,NA,NA,NA,NA,NA,NA,NA,NA,NA,NA,NA,NA,sub17
audio-keyboard-response,129,739558,0.0-70.0,TRUE,FALSE,TRUE,TRUE,"""event"",""trial"",""time""
""fullscreenenter"",""5"",""10090""
","
","
","""event"",""trial"",""time""
""fullscreenenter"",""5"",""10090""
","
",null,audio/quiz/Q1_Correct.wav,null,NA,NA,NA,NA,NA,NA,NA,NA,NA,NA,NA,NA,NA,NA,NA,NA,NA,NA,NA,sub17
instructions-quiz,130,747082,0.0-71.0,TRUE,FALSE,TRUE,TRUE,"""event"",""trial"",""time""
""fullscreenenter"",""5"",""10090""
","
","
","""event"",""trial"",""time""
""fullscreenenter"",""5"",""10090""
","
",7520.64500000421,audio/quiz/Q2_Prompt.wav,NA,0,NA,NA,NA,NA,NA,NA,NA,NA,NA,NA,NA,NA,NA,NA,NA,NA,NA,NA,sub17
audio-keyboard-response,131,759949,0.0-72.0,TRUE,FALSE,TRUE,TRUE,"""event"",""trial"",""time""
""fullscreenenter"",""5"",""10090""
","
","
","""event"",""trial"",""time""
""fullscreenenter"",""5"",""10090""
","
",null,audio/quiz/Q2_Correct.wav,null,NA,NA,NA,NA,NA,NA,NA,NA,NA,NA,NA,NA,NA,NA,NA,NA,NA,NA,NA,sub17
instructions-quiz,132,764199,0.0-73.0,TRUE,FALSE,TRUE,TRUE,"""event"",""trial"",""time""
""fullscreenenter"",""5"",""10090""
","
","
","""event"",""trial"",""time""
""fullscreenenter"",""5"",""10090""
","
",4248.274999998161,audio/quiz/Q3_Prompt.wav,NA,1,NA,NA,NA,NA,NA,NA,NA,NA,NA,NA,NA,NA,NA,NA,NA,NA,NA,NA,sub17
audio-keyboard-response,133,769999,0.0-74.0,TRUE,FALSE,TRUE,TRUE,"""event"",""trial"",""time""
""fullscreenenter"",""5"",""10090""
","
","
","""event"",""trial"",""time""
""fullscreenenter"",""5"",""10090""
","
",null,audio/quiz/Q3_Correct.wav,null,NA,NA,NA,NA,NA,NA,NA,NA,NA,NA,NA,NA,NA,NA,NA,NA,NA,NA,NA,sub17
d3-instructions,134,783299,0.0-75.0,TRUE,FALSE,TRUE,TRUE,"""event"",""trial"",""time""
""fullscreenenter"",""5"",""10090""
","
","
","""event"",""trial"",""time""
""fullscreenenter"",""5"",""10090""
","
",NA,NA,NA,NA,NA,NA,NA,NA,NA,NA,NA,NA,NA,NA,NA,NA,NA,NA,NA,NA,NA,NA,sub17
d3-animate-choice,135,787307,0.0-76.0-0.0,TRUE,FALSE,TRUE,TRUE,"""event"",""trial"",""time""
""fullscreenenter"",""5"",""10090""
","
","
","""event"",""trial"",""time""
""fullscreenenter"",""5"",""10090""
","
",null,NA,null,NA,NA,3000,0,NA,NA,images/earth.jpg,images/rocket2,images/rocket1,null,NA,NA,1,real,null,NA,NA,NA,NA,sub17
d3-animate-choice,136,788315,0.0-76.0-1.0,TRUE,FALSE,TRUE,TRUE,"""event"",""trial"",""time""
""fullscreenenter"",""5"",""10090""
","
","
","""event"",""trial"",""time""
""fullscreenenter"",""5"",""10090""
","
",null,NA,null,NA,NA,0,0,NA,NA,images/earth.jpg,images/rocket2,images/rocket1,null,NA,NA,2,real,null,NA,NA,0,2020-06-24T02:20:19Z,sub17
two-step-fixation,137,789321,0.0-76.0-2.0,TRUE,FALSE,TRUE,TRUE,"""event"",""trial"",""time""
""fullscreenenter"",""5"",""10090""
","
","
","""event"",""trial"",""time""
""fullscreenenter"",""5"",""10090""
","
",NA,images/earth.jpg,NA,NA,NA,NA,NA,NA,NA,NA,NA,NA,NA,NA,NA,fixation,NA,NA,NA,NA,NA,NA,sub17
d3-animate-choice,138,791652,0.0-76.0-0.1,TRUE,FALSE,TRUE,TRUE,"""event"",""trial"",""time""
""fullscreenenter"",""5"",""10090""
","
","
","""event"",""trial"",""time""
""fullscreenenter"",""5"",""10090""
","
",325.63500000105705,NA,48,NA,NA,3000,1,"541.7299999971874,749.6350000001257,901.6049999991665,2013.599999998347",48484848,images/earth.jpg,images/rocket2,images/rocket1,null,images/rocket2,NA,1,real,null,2,NA,NA,NA,sub17
d3-animate-choice,139,793763,0.0-76.0-1.1,TRUE,FALSE,TRUE,TRUE,"""event"",""trial"",""time""
""fullscreenenter"",""5"",""10090""
","
","
","""event"",""trial"",""time""
""fullscreenenter"",""5"",""10090""
","
",104.83499999833293,NA,48,NA,NA,3000,1,"888.989999999525,1184.644999993965",4848,images/redplanet1.jpg,images/alien2,images/alien1,images/rocket2,images/alien2,images/t.png,2,real,true,2,common,1,2020-06-24T02:20:24Z,sub17
two-step-fixation,140,794768,0.0-76.0-2.1,TRUE,FALSE,TRUE,TRUE,"""event"",""trial"",""time""
""fullscreenenter"",""5"",""10090""
","
","
","""event"",""trial"",""time""
""fullscreenenter"",""5"",""10090""
","
",NA,images/earth.jpg,NA,NA,NA,NA,NA,NA,NA,NA,NA,NA,NA,NA,NA,fixation,NA,NA,NA,NA,NA,NA,sub17
d3-animate-choice,141,797388,0.0-76.0-0.2,TRUE,FALSE,TRUE,TRUE,"""event"",""trial"",""time""
""fullscreenenter"",""5"",""10090""
","
","
","""event"",""trial"",""time""
""fullscreenenter"",""5"",""10090""
","
",614.6900000022724,NA,48,NA,NA,3000,1,"918.3850000045495,1150.5700000053039,1542.4449999991339,1974.2450000050012,2422.024999999907",4848484848,images/earth.jpg,images/rocket2,images/rocket1,null,images/rocket2,NA,1,real,null,2,NA,NA,NA,sub17
d3-animate-choice,142,799739,0.0-76.0-1.2,TRUE,FALSE,TRUE,TRUE,"""event"",""trial"",""time""
""fullscreenenter"",""5"",""10090""
","
","
","""event"",""trial"",""time""
""fullscreenenter"",""5"",""10090""
","
",345.40000000572763,NA,48,NA,NA,3000,1,"697.1250000060536,1032.839999999851,1528.8950000031618",484848,images/redplanet1.jpg,images/alien2,images/alien1,images/rocket2,images/alien2,images/t.png,2,real,true,2,common,1,2020-06-24T02:20:30Z,sub17
two-step-fixation,143,800745,0.0-76.0-2.2,TRUE,FALSE,TRUE,TRUE,"""event"",""trial"",""time""
""fullscreenenter"",""5"",""10090""
","
","
","""event"",""trial"",""time""
""fullscreenenter"",""5"",""10090""
","
",NA,images/earth.jpg,NA,NA,NA,NA,NA,NA,NA,NA,NA,NA,NA,NA,NA,fixation,NA,NA,NA,NA,NA,NA,sub17
d3-animate-choice,144,803050,0.0-76.0-0.3,TRUE,FALSE,TRUE,TRUE,"""event"",""trial"",""time""
""fullscreenenter"",""5"",""10090""
","
","
","""event"",""trial"",""time""
""fullscreenenter"",""5"",""10090""
","
",299.8100000041304,NA,48,NA,NA,3000,1,"571.6950000061188,811.8450000039302,1100.2200000003213,1707.660000000149,2091.920000006212",4848484848,images/earth.jpg,images/rocket2,images/rocket1,null,images/rocket2,NA,1,real,null,2,NA,NA,NA,sub17
d3-animate-choice,145,805185,0.0-76.0-1.3,TRUE,FALSE,TRUE,TRUE,"""event"",""trial"",""time""
""fullscreenenter"",""5"",""10090""
","
","
","""event"",""trial"",""time""
""fullscreenenter"",""5"",""10090""
","
",130.8950000021141,NA,48,NA,NA,3000,1,"522.6450000046752,946.460000006482,1226.5050000060583,1498.7000000037951,1786.4050000063144",4848484848,images/redplanet1.jpg,images/alien2,images/alien1,images/rocket2,images/alien2,images/t.png,2,real,true,2,common,1,2020-06-24T02:20:36Z,sub17
two-step-fixation,146,806190,0.0-76.0-2.3,TRUE,FALSE,TRUE,TRUE,"""event"",""trial"",""time""
""fullscreenenter"",""5"",""10090""
","
","
","""event"",""trial"",""time""
""fullscreenenter"",""5"",""10090""
","
",NA,images/earth.jpg,NA,NA,NA,NA,NA,NA,NA,NA,NA,NA,NA,NA,NA,fixation,NA,NA,NA,NA,NA,NA,sub17
d3-animate-choice,147,808562,0.0-76.0-0.4,TRUE,FALSE,TRUE,TRUE,"""event"",""trial"",""time""
""fullscreenenter"",""5"",""10090""
","
","
","""event"",""trial"",""time""
""fullscreenenter"",""5"",""10090""
","
",366.16000000503846,NA,48,NA,NA,3000,1,"726.1750000033062,974.5600000023842,1262.614999999525,1566.0150000038557,1981.980000004056",4848484848,images/earth.jpg,images/rocket2,images/rocket1,null,images/rocket2,NA,1,real,null,2,NA,NA,NA,sub17
d3-animate-choice,148,810697,0.0-76.0-1.4,TRUE,FALSE,TRUE,TRUE,"""event"",""trial"",""time""
""fullscreenenter"",""5"",""10090""
","
","
","""event"",""trial"",""time""
""fullscreenenter"",""5"",""10090""
","
",130.090000006021,NA,48,NA,NA,3000,1,"402.379999999539,841.7200000039302,1122.0950000060257,1441.790000004461",48484848,images/purpleplanet.jpg,images/alien4,images/alien3,images/rocket2,images/alien4,images/t.png,2,real,false,2,rare,1,2020-06-24T02:20:41Z,sub17
two-step-fixation,149,811703,0.0-76.0-2.4,TRUE,FALSE,TRUE,TRUE,"""event"",""trial"",""time""
""fullscreenenter"",""5"",""10090""
","
","
","""event"",""trial"",""time""
""fullscreenenter"",""5"",""10090""
","
",NA,images/earth.jpg,NA,NA,NA,NA,NA,NA,NA,NA,NA,NA,NA,NA,NA,fixation,NA,NA,NA,NA,NA,NA,sub17
d3-animate-choice,150,813953,0.0-76.0-0.5,TRUE,FALSE,TRUE,TRUE,"""event"",""trial"",""time""
""fullscreenenter"",""5"",""10090""
","
","
","""event"",""trial"",""time""
""fullscreenenter"",""5"",""10090""
","
",244.35999999684282,NA,48,NA,NA,3000,1,"540.2199999953154,772.4299999971408,1252.3849999997765,1588.4649999933317,1979.905000000028,2236.124999995809",484848484848,images/earth.jpg,images/rocket2,images/rocket1,null,images/rocket2,NA,1,real,null,2,NA,NA,NA,sub17
d3-animate-choice,151,816337,0.0-76.0-1.5,TRUE,FALSE,TRUE,TRUE,"""event"",""trial"",""time""
""fullscreenenter"",""5"",""10090""
","
","
","""event"",""trial"",""time""
""fullscreenenter"",""5"",""10090""
","
",377.92500000062864,NA,48,NA,NA,3000,1,"721.785000001546,1081.684999997262,1337.2799999996787,1593.1950000012293,1905.2449999944074",4848484848,images/redplanet1.jpg,images/alien2,images/alien1,images/rocket2,images/alien2,images/t.png,2,real,true,2,common,1,2020-06-24T02:20:47Z,sub17
two-step-fixation,152,817342,0.0-76.0-2.5,TRUE,FALSE,TRUE,TRUE,"""event"",""trial"",""time""
""fullscreenenter"",""5"",""10090""
","
","
","""event"",""trial"",""time""
""fullscreenenter"",""5"",""10090""
","
",NA,images/earth.jpg,NA,NA,NA,NA,NA,NA,NA,NA,NA,NA,NA,NA,NA,fixation,NA,NA,NA,NA,NA,NA,sub17
d3-animate-choice,153,819503,0.0-76.0-0.6,TRUE,FALSE,TRUE,TRUE,"""event"",""trial"",""time""
""fullscreenenter"",""5"",""10090""
","
","
","""event"",""trial"",""time""
""fullscreenenter"",""5"",""10090""
","
",156.45499999669846,NA,48,NA,NA,3000,1,"468.2200000025332,732.2550000026822,996.2000000014668,1268.134999998496,1532.1600000024773,1852.3950000017649",484848484848,images/earth.jpg,images/rocket2,images/rocket1,null,images/rocket2,NA,1,real,null,2,NA,NA,NA,sub17
d3-animate-choice,154,821543,0.0-76.0-1.6,TRUE,FALSE,TRUE,TRUE,"""event"",""trial"",""time""
""fullscreenenter"",""5"",""10090""
","
","
","""event"",""trial"",""time""
""fullscreenenter"",""5"",""10090""
","
",34.3150000043679,NA,48,NA,NA,3000,1,"362.39999999816064,674.3900000001304,882.3350000020582,1146.66500000027,1378.3800000019837",4848484848,images/redplanet1.jpg,images/alien2,images/alien1,images/rocket2,images/alien2,images/nothing.png,2,real,true,2,common,0,2020-06-24T02:20:52Z,sub17
two-step-fixation,155,822548,0.0-76.0-2.6,TRUE,FALSE,TRUE,TRUE,"""event"",""trial"",""time""
""fullscreenenter"",""5"",""10090""
","
","
","""event"",""trial"",""time""
""fullscreenenter"",""5"",""10090""
","
",NA,images/earth.jpg,NA,NA,NA,NA,NA,NA,NA,NA,NA,NA,NA,NA,NA,fixation,NA,NA,NA,NA,NA,NA,sub17
d3-animate-choice,156,825135,0.0-76.0-0.7,TRUE,FALSE,TRUE,TRUE,"""event"",""trial"",""time""
""fullscreenenter"",""5"",""10090""
","
","
","""event"",""trial"",""time""
""fullscreenenter"",""5"",""10090""
","
",582.6750000051688,NA,49,NA,NA,3000,1,"1062.3250000062399,1286.1900000062305,1638.0700000009965,2166.0900000061374",49494949,images/earth.jpg,images/rocket2,images/rocket1,null,images/rocket1,NA,1,real,null,1,NA,NA,NA,sub17
d3-animate-choice,157,827887,0.0-76.0-1.7,TRUE,FALSE,TRUE,TRUE,"""event"",""trial"",""time""
""fullscreenenter"",""5"",""10090""
","
","
","""event"",""trial"",""time""
""fullscreenenter"",""5"",""10090""
","
",745.8600000026636,NA,49,NA,NA,3000,1,"1130.2549999963958,1505.8649999990594,1793.7000000019325,2179.244999999297",49494949,images/redplanet1.jpg,images/alien2,images/alien1,images/rocket1,images/alien1,images/nothing.png,2,real,false,1,rare,0,2020-06-24T02:20:58Z,sub17
two-step-fixation,158,828892,0.0-76.0-2.7,TRUE,FALSE,TRUE,TRUE,"""event"",""trial"",""time""
""fullscreenenter"",""5"",""10090""
","
","
","""event"",""trial"",""time""
""fullscreenenter"",""5"",""10090""
","
",NA,images/earth.jpg,NA,NA,NA,NA,NA,NA,NA,NA,NA,NA,NA,NA,NA,fixation,NA,NA,NA,NA,NA,NA,sub17
d3-animate-choice,159,831062,0.0-76.0-0.8,TRUE,FALSE,TRUE,TRUE,"""event"",""trial"",""time""
""fullscreenenter"",""5"",""10090""
","
","
","""event"",""trial"",""time""
""fullscreenenter"",""5"",""10090""
","
",164.8600000044098,NA,48,NA,NA,3000,1,"412.9499999980908,621.0050000008196,892.8400000004331,1164.7100000046194,1452.7950000046985,2148.8800000005867",484848484848,images/earth.jpg,images/rocket2,images/rocket1,null,images/rocket2,NA,1,real,null,2,NA,NA,NA,sub17
d3-animate-choice,160,833430,0.0-76.0-1.8,TRUE,FALSE,TRUE,TRUE,"""event"",""trial"",""time""
""fullscreenenter"",""5"",""10090""
","
","
","""event"",""trial"",""time""
""fullscreenenter"",""5"",""10090""
","
",362.1999999958789,NA,48,NA,NA,3000,1,"650.0249999953667,962.1800000022631,1233.974999995553,1482.3249999972759,1753.6849999959813",4848484848,images/redplanet1.jpg,images/alien2,images/alien1,images/rocket2,images/alien2,images/nothing.png,2,real,true,2,common,0,2020-06-24T02:21:04Z,sub17
two-step-fixation,161,834436,0.0-76.0-2.8,TRUE,FALSE,TRUE,TRUE,"""event"",""trial"",""time""
""fullscreenenter"",""5"",""10090""
","
","
","""event"",""trial"",""time""
""fullscreenenter"",""5"",""10090""
","
",NA,images/earth.jpg,NA,NA,NA,NA,NA,NA,NA,NA,NA,NA,NA,NA,NA,fixation,NA,NA,NA,NA,NA,NA,sub17
d3-animate-choice,162,836822,0.0-76.0-0.9,TRUE,FALSE,TRUE,TRUE,"""event"",""trial"",""time""
""fullscreenenter"",""5"",""10090""
","
","
","""event"",""trial"",""time""
""fullscreenenter"",""5"",""10090""
","
",380.4450000023935,NA,49,NA,NA,3000,1,"772.2250000005588,1092.140000000596,2052.1250000018626",494949,images/earth.jpg,images/rocket2,images/rocket1,null,images/rocket1,NA,1,real,null,1,NA,NA,NA,sub17
d3-animate-choice,163,838869,0.0-76.0-1.9,TRUE,FALSE,TRUE,TRUE,"""event"",""trial"",""time""
""fullscreenenter"",""5"",""10090""
","
","
","""event"",""trial"",""time""
""fullscreenenter"",""5"",""10090""
","
",41.764999994426034,NA,49,NA,NA,3000,1,"617.5349999975879,937.6249999987194,1169.574999999837,1793.4649999951944",49494949,images/purpleplanet.jpg,images/alien4,images/alien3,images/rocket1,images/alien3,images/nothing.png,2,real,true,1,common,0,2020-06-24T02:21:09Z,sub17
two-step-fixation,164,839874,0.0-76.0-2.9,TRUE,FALSE,TRUE,TRUE,"""event"",""trial"",""time""
""fullscreenenter"",""5"",""10090""
","
","
","""event"",""trial"",""time""
""fullscreenenter"",""5"",""10090""
","
",NA,images/earth.jpg,NA,NA,NA,NA,NA,NA,NA,NA,NA,NA,NA,NA,NA,fixation,NA,NA,NA,NA,NA,NA,sub17
d3-animate-choice,165,842133,0.0-76.0-0.10,TRUE,FALSE,TRUE,TRUE,"""event"",""trial"",""time""
""fullscreenenter"",""5"",""10090""
","
","
","""event"",""trial"",""time""
""fullscreenenter"",""5"",""10090""
","
",252.93500000413042,NA,49,NA,NA,3000,1,"549.0400000053924,764.8050000062212,980.7000000001863,1485.005000002333,1884.7250000035856",4949494949,images/earth.jpg,images/rocket2,images/rocket1,null,images/rocket1,NA,1,real,null,1,NA,NA,NA,sub17
d3-animate-choice,166,844149,0.0-76.0-1.10,TRUE,FALSE,TRUE,TRUE,"""event"",""trial"",""time""
""fullscreenenter"",""5"",""10090""
","
","
","""event"",""trial"",""time""
""fullscreenenter"",""5"",""10090""
","
",10.520000003511086,NA,49,NA,NA,3000,1,"442.2600000035018,730.1900000020396,962.4949999998789,1170.5500000026077,1394.2050000042655",4949494949,images/purpleplanet.jpg,images/alien4,images/alien3,images/rocket1,images/alien3,images/t.png,2,real,true,1,common,1,2020-06-24T02:21:15Z,sub17
two-step-fixation,167,845154,0.0-76.0-2.10,TRUE,FALSE,TRUE,TRUE,"""event"",""trial"",""time""
""fullscreenenter"",""5"",""10090""
","
","
","""event"",""trial"",""time""
""fullscreenenter"",""5"",""10090""
","
",NA,images/earth.jpg,NA,NA,NA,NA,NA,NA,NA,NA,NA,NA,NA,NA,NA,fixation,NA,NA,NA,NA,NA,NA,sub17
d3-animate-choice,168,847916,0.0-76.0-0.11,TRUE,FALSE,TRUE,TRUE,"""event"",""trial"",""time""
""fullscreenenter"",""5"",""10090""
","
","
","""event"",""trial"",""time""
""fullscreenenter"",""5"",""10090""
","
",757.4499999973923,NA,49,NA,NA,3000,1,"1028.8999999975786,1260.889999997802,1468.8200000019278,2092.7000000011176,2412.624999997206,2756.6200000001118",494949494949,images/earth.jpg,images/rocket2,images/rocket1,null,images/rocket1,NA,1,real,null,1,NA,NA,NA,sub17
d3-animate-choice,169,850203,0.0-76.0-1.11,TRUE,FALSE,TRUE,TRUE,"""event"",""trial"",""time""
""fullscreenenter"",""5"",""10090""
","
","
","""event"",""trial"",""time""
""fullscreenenter"",""5"",""10090""
","
",281.7499999946449,NA,49,NA,NA,3000,1,"561.7050000000745,841.8649999948684,1105.4599999987986,1393.8299999935552,1729.704999997979",4949494949,images/redplanet1.jpg,images/alien2,images/alien1,images/rocket1,images/alien1,images/t.png,2,real,false,1,rare,1,2020-06-24T02:21:21Z,sub17
two-step-fixation,170,851207,0.0-76.0-2.11,TRUE,FALSE,TRUE,TRUE,"""event"",""trial"",""time""
""fullscreenenter"",""5"",""10090""
","
","
","""event"",""trial"",""time""
""fullscreenenter"",""5"",""10090""
","
",NA,images/earth.jpg,NA,NA,NA,NA,NA,NA,NA,NA,NA,NA,NA,NA,NA,fixation,NA,NA,NA,NA,NA,NA,sub17
d3-animate-choice,171,853540,0.0-76.0-0.12,TRUE,FALSE,TRUE,TRUE,"""event"",""trial"",""time""
""fullscreenenter"",""5"",""10090""
","
","
","""event"",""trial"",""time""
""fullscreenenter"",""5"",""10090""
","
",326.82999999821186,NA,49,NA,NA,3000,1,"638.1299999994226,942.284999997355,1198.0449999973644,1502.1500000002561,1997.9399999938905,2326.4949999938253",494949494949,images/earth.jpg,images/rocket2,images/rocket1,null,images/rocket1,NA,1,real,null,1,NA,NA,NA,sub17
d3-animate-choice,172,855803,0.0-76.0-1.12,TRUE,FALSE,TRUE,TRUE,"""event"",""trial"",""time""
""fullscreenenter"",""5"",""10090""
","
","
","""event"",""trial"",""time""
""fullscreenenter"",""5"",""10090""
","
",257.2199999995064,NA,49,NA,NA,3000,1,"529.0500000045868,809.0400000000373,1064.904999999213,1336.9200000015553,1593.0750000042608,2160.7000000003027",494949494949,images/redplanet1.jpg,images/alien2,images/alien1,images/rocket1,images/alien1,images/t.png,2,real,false,1,rare,1,2020-06-24T02:21:26Z,sub17
two-step-fixation,173,856808,0.0-76.0-2.12,TRUE,FALSE,TRUE,TRUE,"""event"",""trial"",""time""
""fullscreenenter"",""5"",""10090""
","
","
","""event"",""trial"",""time""
""fullscreenenter"",""5"",""10090""
","
",NA,images/earth.jpg,NA,NA,NA,NA,NA,NA,NA,NA,NA,NA,NA,NA,NA,fixation,NA,NA,NA,NA,NA,NA,sub17
d3-animate-choice,174,859139,0.0-76.0-0.13,TRUE,FALSE,TRUE,TRUE,"""event"",""trial"",""time""
""fullscreenenter"",""5"",""10090""
","
","
","""event"",""trial"",""time""
""fullscreenenter"",""5"",""10090""
","
",325.94999999855645,NA,49,NA,NA,3000,1,"621.6299999941839,829.5849999994971,1021.9149999975925,1253.3699999985984,1469.749999996624,1685.5149999974528,1909.5549999984214,2181.7399999999907",4949494949494949,images/earth.jpg,images/rocket2,images/rocket1,null,images/rocket1,NA,1,real,null,1,NA,NA,NA,sub17
d3-animate-choice,175,861282,0.0-76.0-1.13,TRUE,FALSE,TRUE,TRUE,"""event"",""trial"",""time""
""fullscreenenter"",""5"",""10090""
","
","
","""event"",""trial"",""time""
""fullscreenenter"",""5"",""10090""
","
",138.05000000132713,NA,49,NA,NA,3000,1,"498.0199999990873,778.0849999981001,1001.9699999975273,1225.9699999995064,1489.9900000018533,1769.749999999418,2122.0200000024633",49494949494949,images/purpleplanet.jpg,images/alien4,images/alien3,images/rocket1,images/alien3,images/t.png,2,real,true,1,common,1,2020-06-24T02:21:32Z,sub17
two-step-fixation,176,862287,0.0-76.0-2.13,TRUE,FALSE,TRUE,TRUE,"""event"",""trial"",""time""
""fullscreenenter"",""5"",""10090""
","
","
","""event"",""trial"",""time""
""fullscreenenter"",""5"",""10090""
","
",NA,images/earth.jpg,NA,NA,NA,NA,NA,NA,NA,NA,NA,NA,NA,NA,NA,fixation,NA,NA,NA,NA,NA,NA,sub17
d3-animate-choice,177,864490,0.0-76.0-0.14,TRUE,FALSE,TRUE,TRUE,"""event"",""trial"",""time""
""fullscreenenter"",""5"",""10090""
","
","
","""event"",""trial"",""time""
""fullscreenenter"",""5"",""10090""
","
",197.21999999450054,NA,49,NA,NA,3000,1,"477.594999996596,709.4599999982165,1013.0049999934854,1276.9999999945285,1532.934999995632,1836.90999999817,2068.874999997206",49494949494949,images/earth.jpg,images/rocket2,images/rocket1,null,images/rocket1,NA,1,real,null,1,NA,NA,NA,sub17
d3-animate-choice,178,866619,0.0-76.0-1.14,TRUE,FALSE,TRUE,TRUE,"""event"",""trial"",""time""
""fullscreenenter"",""5"",""10090""
","
","
","""event"",""trial"",""time""
""fullscreenenter"",""5"",""10090""
","
",121.2699999960605,NA,49,NA,NA,3000,1,"401.1449999961769,953.1199999982491,1185.0599999960978,1441.2599999995437,1689.189999997383",4949494949,images/purpleplanet.jpg,images/alien4,images/alien3,images/rocket1,images/alien3,images/nothing.png,2,real,true,1,common,0,2020-06-24T02:21:37Z,sub17
two-step-fixation,179,867623,0.0-76.0-2.14,TRUE,FALSE,TRUE,TRUE,"""event"",""trial"",""time""
""fullscreenenter"",""5"",""10090""
","
","
","""event"",""trial"",""time""
""fullscreenenter"",""5"",""10090""
","
",NA,images/earth.jpg,NA,NA,NA,NA,NA,NA,NA,NA,NA,NA,NA,NA,NA,fixation,NA,NA,NA,NA,NA,NA,sub17
d3-animate-choice,180,869706,0.0-76.0-0.15,TRUE,FALSE,TRUE,TRUE,"""event"",""trial"",""time""
""fullscreenenter"",""5"",""10090""
","
","
","""event"",""trial"",""time""
""fullscreenenter"",""5"",""10090""
","
",76.7249999990454,NA,48,NA,NA,3000,1,"372.64000000152737,628.680000001681,868.4050000011921,1292.354999997886,1548.6149999997579",4848484848,images/earth.jpg,images/rocket2,images/rocket1,null,images/rocket2,NA,1,real,null,2,NA,NA,NA,sub17
d3-animate-choice,181,871746,0.0-76.0-1.15,TRUE,FALSE,TRUE,TRUE,"""event"",""trial"",""time""
""fullscreenenter"",""5"",""10090""
","
","
","""event"",""trial"",""time""
""fullscreenenter"",""5"",""10090""
","
",31.585000004270114,NA,48,NA,NA,3000,1,"383.69000000238884,656.1250000012806,895.9549999999581,1127.8349999993807,1471.8300000022864,1999.4850000002189",484848484848,images/purpleplanet.jpg,images/alien4,images/alien3,images/rocket2,images/alien4,images/t.png,2,real,false,2,rare,1,2020-06-24T02:21:42Z,sub17
two-step-fixation,182,872750,0.0-76.0-2.15,TRUE,FALSE,TRUE,TRUE,"""event"",""trial"",""time""
""fullscreenenter"",""5"",""10090""
","
","
","""event"",""trial"",""time""
""fullscreenenter"",""5"",""10090""
","
",NA,images/earth.jpg,NA,NA,NA,NA,NA,NA,NA,NA,NA,NA,NA,NA,NA,fixation,NA,NA,NA,NA,NA,NA,sub17
d3-animate-choice,183,874769,0.0-76.0-0.16,TRUE,FALSE,TRUE,TRUE,"""event"",""trial"",""time""
""fullscreenenter"",""5"",""10090""
","
","
","""event"",""trial"",""time""
""fullscreenenter"",""5"",""10090""
","
",13.399999996181577,NA,48,NA,NA,3000,1,"236.82999999437016,444.83499999472406,677.0849999956554,1036.5399999936344,1364.8199999952922,1652.569999998319,1964.5299999974668",48484848484848,images/earth.jpg,images/rocket2,images/rocket1,null,images/rocket2,NA,1,real,null,2,NA,NA,NA,sub17
d3-animate-choice,184,877120,0.0-76.0-1.16,TRUE,FALSE,TRUE,TRUE,"""event"",""trial"",""time""
""fullscreenenter"",""5"",""10090""
","
","
","""event"",""trial"",""time""
""fullscreenenter"",""5"",""10090""
","
",345.1999999961117,NA,48,NA,NA,3000,1,"561.1399999980349,849.3999999992084,1113.5149999973364,1336.9499999971595,1488.9549999934388,1729.0349999966566,2184.869999997318",48484848484848,images/redplanet1.jpg,images/alien2,images/alien1,images/rocket2,images/alien2,images/nothing.png,2,real,true,2,common,0,2020-06-24T02:21:48Z,sub17
two-step-fixation,185,878125,0.0-76.0-2.16,TRUE,FALSE,TRUE,TRUE,"""event"",""trial"",""time""
""fullscreenenter"",""5"",""10090""
","
","
","""event"",""trial"",""time""
""fullscreenenter"",""5"",""10090""
","
",NA,images/earth.jpg,NA,NA,NA,NA,NA,NA,NA,NA,NA,NA,NA,NA,NA,fixation,NA,NA,NA,NA,NA,NA,sub17
d3-animate-choice,186,880233,0.0-76.0-0.17,TRUE,FALSE,TRUE,TRUE,"""event"",""trial"",""time""
""fullscreenenter"",""5"",""10090""
","
","
","""event"",""trial"",""time""
""fullscreenenter"",""5"",""10090""
","
",101.87500000023283,NA,49,NA,NA,3000,1,"325.62500000488944,525.8700000048848,757.5050000012852,973.6950000005309,1261.9150000027148,1525.3900000024587,1781.3450000029989",49494949494949,images/earth.jpg,images/rocket2,images/rocket1,null,images/rocket1,NA,1,real,null,1,NA,NA,NA,sub17
d3-animate-choice,187,882343,0.0-76.0-1.17,TRUE,FALSE,TRUE,TRUE,"""event"",""trial"",""time""
""fullscreenenter"",""5"",""10090""
","
","
","""event"",""trial"",""time""
""fullscreenenter"",""5"",""10090""
","
",103.62999999779277,NA,49,NA,NA,3000,1,"375.7699999988545,624.0049999979092,855.4950000034878,1063.959999999497,1287.4900000025518,1527.4349999963306,1975.8000000002794",49494949494949,images/purpleplanet.jpg,images/alien4,images/alien3,images/rocket1,images/alien3,images/nothing.png,2,real,true,1,common,0,2020-06-24T02:21:53Z,sub17
two-step-fixation,188,883350,0.0-76.0-2.17,TRUE,FALSE,TRUE,TRUE,"""event"",""trial"",""time""
""fullscreenenter"",""5"",""10090""
","
","
","""event"",""trial"",""time""
""fullscreenenter"",""5"",""10090""
","
",NA,images/earth.jpg,NA,NA,NA,NA,NA,NA,NA,NA,NA,NA,NA,NA,NA,fixation,NA,NA,NA,NA,NA,NA,sub17
d3-animate-choice,189,885384,0.0-76.0-0.18,TRUE,FALSE,TRUE,TRUE,"""event"",""trial"",""time""
""fullscreenenter"",""5"",""10090""
","
","
","""event"",""trial"",""time""
""fullscreenenter"",""5"",""10090""
","
",27.48499999870546,NA,48,NA,NA,3000,1,"187.3699999996461,347.47999999672174,531.6249999960419,875.7100000001956,1035.4650000007823,1219.4749999979977,1403.279999998631,1899.214999997639",4848484848484848,images/earth.jpg,images/rocket2,images/rocket1,null,images/rocket2,NA,1,real,null,2,NA,NA,NA,sub17
d3-animate-choice,190,887792,0.0-76.0-1.18,TRUE,FALSE,TRUE,TRUE,"""event"",""trial"",""time""
""fullscreenenter"",""5"",""10090""
","
","
","""event"",""trial"",""time""
""fullscreenenter"",""5"",""10090""
","
",401.1549999995623,NA,48,NA,NA,3000,1,"680.9750000028871,912.6949999990175,1144.975000002887,1368.744999999646,1608.7800000022398,1840.8950000011828,2096.774999998044",48484848484848,images/purpleplanet.jpg,images/alien4,images/alien3,images/rocket2,images/alien4,images/t.png,2,real,false,2,rare,1,2020-06-24T02:21:58Z,sub17
two-step-fixation,191,888798,0.0-76.0-2.18,TRUE,FALSE,TRUE,TRUE,"""event"",""trial"",""time""
""fullscreenenter"",""5"",""10090""
","
","
","""event"",""trial"",""time""
""fullscreenenter"",""5"",""10090""
","
",NA,images/earth.jpg,NA,NA,NA,NA,NA,NA,NA,NA,NA,NA,NA,NA,NA,fixation,NA,NA,NA,NA,NA,NA,sub17
d3-animate-choice,192,890895,0.0-76.0-0.19,TRUE,FALSE,TRUE,TRUE,"""event"",""trial"",""time""
""fullscreenenter"",""5"",""10090""
","
","
","""event"",""trial"",""time""
""fullscreenenter"",""5"",""10090""
","
",91.26500000269152,NA,48,NA,NA,3000,1,"347.5299999990966,595.3099999970291,803.3900000009453,1451.1449999990873,1651.0350000025937,1882.964999997057",484848484848,images/earth.jpg,images/rocket2,images/rocket1,null,images/rocket2,NA,1,real,null,2,NA,NA,NA,sub17
d3-animate-choice,193,892951,0.0-76.0-1.19,TRUE,FALSE,TRUE,TRUE,"""event"",""trial"",""time""
""fullscreenenter"",""5"",""10090""
","
","
","""event"",""trial"",""time""
""fullscreenenter"",""5"",""10090""
","
",49.50000000093132,NA,48,NA,NA,3000,1,"305.6349999969825,625.204999996582,865.1600000010803,1073.0499999989988,1281.4900000011548,1497.2350000024308,1729.0799999972805",48484848484848,images/redplanet1.jpg,images/alien2,images/alien1,images/rocket2,images/alien2,images/t.png,2,real,true,2,common,1,2020-06-24T02:22:03Z,sub17
two-step-fixation,194,893955,0.0-76.0-2.19,TRUE,FALSE,TRUE,TRUE,"""event"",""trial"",""time""
""fullscreenenter"",""5"",""10090""
","
","
","""event"",""trial"",""time""
""fullscreenenter"",""5"",""10090""
","
",NA,images/earth.jpg,NA,NA,NA,NA,NA,NA,NA,NA,NA,NA,NA,NA,NA,fixation,NA,NA,NA,NA,NA,NA,sub17
d3-animate-choice,195,896054,0.0-76.0-0.20,TRUE,FALSE,TRUE,TRUE,"""event"",""trial"",""time""
""fullscreenenter"",""5"",""10090""
","
","
","""event"",""trial"",""time""
""fullscreenenter"",""5"",""10090""
","
",92.55000000121072,NA,48,NA,NA,3000,1,"348.5100000035018,588.775000003865,804.4500000032131,1020.4799999992829,1524.5050000012852,1780.4350000005215,1972.2150000015972",48484848484848,images/earth.jpg,images/rocket2,images/rocket1,null,images/rocket2,NA,1,real,null,2,NA,NA,NA,sub17
d3-animate-choice,196,898166,0.0-76.0-1.20,TRUE,FALSE,TRUE,TRUE,"""event"",""trial"",""time""
""fullscreenenter"",""5"",""10090""
","
","
","""event"",""trial"",""time""
""fullscreenenter"",""5"",""10090""
","
",105.91500000003725,NA,48,NA,NA,3000,1,"353.32999999797903,602.0250000001397,849.8249999973923,1065.260000003036,1273.600000000326,1513.310000002035,1761.2850000003818,2009.245000001043",4848484848484848,images/redplanet1.jpg,images/alien2,images/alien1,images/rocket2,images/alien2,images/t.png,2,real,true,2,common,1,2020-06-24T02:22:09Z,sub17
two-step-fixation,197,899171,0.0-76.0-2.20,TRUE,FALSE,TRUE,TRUE,"""event"",""trial"",""time""
""fullscreenenter"",""5"",""10090""
","
","
","""event"",""trial"",""time""
""fullscreenenter"",""5"",""10090""
","
",NA,images/earth.jpg,NA,NA,NA,NA,NA,NA,NA,NA,NA,NA,NA,NA,NA,fixation,NA,NA,NA,NA,NA,NA,sub17
d3-animate-choice,198,901189,0.0-76.0-0.21,TRUE,FALSE,TRUE,TRUE,"""event"",""trial"",""time""
""fullscreenenter"",""5"",""10090""
","
","
","""event"",""trial"",""time""
""fullscreenenter"",""5"",""10090""
","
",13.170000005629845,NA,48,NA,NA,3000,1,"244.8950000035111,501.4950000040699,716.7000000044936,924.9250000065658,1541.0200000042096,1764.8050000062212",484848484848,images/earth.jpg,images/rocket2,images/rocket1,null,images/rocket2,NA,1,real,null,2,NA,NA,NA,sub17
d3-animate-choice,199,903213,0.0-76.0-1.21,TRUE,FALSE,TRUE,TRUE,"""event"",""trial"",""time""
""fullscreenenter"",""5"",""10090""
","
","
","""event"",""trial"",""time""
""fullscreenenter"",""5"",""10090""
","
",17.65500000328757,NA,48,NA,NA,3000,1,"274.0300000004936,513.8450000012526,737.6800000055227,954.1250000037253,1161.8000000016764,1385.545000004582,1593.5800000005402",48484848484848,images/purpleplanet.jpg,images/alien4,images/alien3,images/rocket2,images/alien4,images/nothing.png,2,real,false,2,rare,0,2020-06-24T02:22:14Z,sub17
two-step-fixation,200,904218,0.0-76.0-2.21,TRUE,FALSE,TRUE,TRUE,"""event"",""trial"",""time""
""fullscreenenter"",""5"",""10090""
","
","
","""event"",""trial"",""time""
""fullscreenenter"",""5"",""10090""
","
",NA,images/earth.jpg,NA,NA,NA,NA,NA,NA,NA,NA,NA,NA,NA,NA,NA,fixation,NA,NA,NA,NA,NA,NA,sub17
d3-animate-choice,201,906348,0.0-76.0-0.22,TRUE,FALSE,TRUE,TRUE,"""event"",""trial"",""time""
""fullscreenenter"",""5"",""10090""
","
","
","""event"",""trial"",""time""
""fullscreenenter"",""5"",""10090""
","
",125.04500000062399,NA,49,NA,NA,3000,1,"356.8650000015041,549.135000001057,789.1250000029104,1004.8850000021048,1213.414999998291,1676.9600000042701,2004.83499999973",49494949494949,images/earth.jpg,images/rocket2,images/rocket1,null,images/rocket1,NA,1,real,null,1,NA,NA,NA,sub17
d3-animate-choice,202,908756,0.0-76.0-1.22,TRUE,FALSE,TRUE,TRUE,"""event"",""trial"",""time""
""fullscreenenter"",""5"",""10090""
","
","
","""event"",""trial"",""time""
""fullscreenenter"",""5"",""10090""
","
",402.6450000018813,NA,49,NA,NA,3000,1,"650.4850000054576,882.595000002766,1106.865000001504,1330.5000000036089,1578.8350000001956,1826.2350000003353",494949494949,images/purpleplanet.jpg,images/alien4,images/alien3,images/rocket1,images/alien3,images/t.png,2,real,true,1,common,1,2020-06-24T02:22:19Z,sub17
two-step-fixation,203,909760,0.0-76.0-2.22,TRUE,FALSE,TRUE,TRUE,"""event"",""trial"",""time""
""fullscreenenter"",""5"",""10090""
","
","
","""event"",""trial"",""time""
""fullscreenenter"",""5"",""10090""
","
",NA,images/earth.jpg,NA,NA,NA,NA,NA,NA,NA,NA,NA,NA,NA,NA,NA,fixation,NA,NA,NA,NA,NA,NA,sub17
d3-animate-choice,204,911780,0.0-76.0-0.23,TRUE,FALSE,TRUE,TRUE,"""event"",""trial"",""time""
""fullscreenenter"",""5"",""10090""
","
","
","""event"",""trial"",""time""
""fullscreenenter"",""5"",""10090""
","
",13.875000004190952,NA,49,NA,NA,3000,1,"301.6600000045728,533.1350000051316,749.0949999992736,988.9949999996461,1261.005000000354,1517.2100000054343,1789.8150000036694",49494949494949,images/earth.jpg,images/rocket2,images/rocket1,null,images/rocket1,NA,1,real,null,1,NA,NA,NA,sub17
d3-animate-choice,205,913844,0.0-76.0-1.23,TRUE,FALSE,TRUE,TRUE,"""event"",""trial"",""time""
""fullscreenenter"",""5"",""10090""
","
","
","""event"",""trial"",""time""
""fullscreenenter"",""5"",""10090""
","
",57.815000000060536,NA,49,NA,NA,3000,1,"297.72500000393484,497.7100000032224,697.7450000048848,889.7150000047404,1097.8549999999814,1297.9850000046426,1537.6900000046007",49494949494949,images/purpleplanet.jpg,images/alien4,images/alien3,images/rocket1,images/alien3,images/nothing.png,2,real,true,1,common,0,2020-06-24T02:22:24Z,sub17
two-step-fixation,206,914849,0.0-76.0-2.23,TRUE,FALSE,TRUE,TRUE,"""event"",""trial"",""time""
""fullscreenenter"",""5"",""10090""
","
","
","""event"",""trial"",""time""
""fullscreenenter"",""5"",""10090""
","
",NA,images/earth.jpg,NA,NA,NA,NA,NA,NA,NA,NA,NA,NA,NA,NA,NA,fixation,NA,NA,NA,NA,NA,NA,sub17
d3-animate-choice,207,916979,0.0-76.0-0.24,TRUE,FALSE,TRUE,TRUE,"""event"",""trial"",""time""
""fullscreenenter"",""5"",""10090""
","
","
","""event"",""trial"",""time""
""fullscreenenter"",""5"",""10090""
","
",124.46500000078231,NA,48,NA,NA,3000,1,"316.05000000132713,515.9649999986868,715.9700000047451,916.2300000025425,1123.910000002128,1507.9150000020163,1675.7150000048568,1908.2650000054855,2091.7499999996508",484848484848484800,images/earth.jpg,images/rocket2,images/rocket1,null,images/rocket2,NA,1,real,null,2,NA,NA,NA,sub17
d3-animate-choice,208,920962,0.0-76.0-1.24,TRUE,FALSE,TRUE,TRUE,"""event"",""trial"",""time""
""fullscreenenter"",""5"",""10090""
","
","
","""event"",""trial"",""time""
""fullscreenenter"",""5"",""10090""
","
",1977.87000000244,NA,48,NA,NA,3000,1,"2250.7499999993015,2457.8550000005635,2618.080000000191,2833.7249999968335,3017.634999996517,3825.700000001234",484848484848,images/redplanet1.jpg,images/alien2,images/alien1,images/rocket2,images/alien2,images/t.png,2,real,true,2,common,1,2020-06-24T02:22:31Z,sub17
two-step-fixation,209,921967,0.0-76.0-2.24,TRUE,FALSE,TRUE,TRUE,"""event"",""trial"",""time""
""fullscreenenter"",""5"",""10090""
","
","
","""event"",""trial"",""time""
""fullscreenenter"",""5"",""10090""
","
",NA,images/earth.jpg,NA,NA,NA,NA,NA,NA,NA,NA,NA,NA,NA,NA,NA,fixation,NA,NA,NA,NA,NA,NA,sub17
d3-animate-choice,210,924457,0.0-76.0-0.25,TRUE,FALSE,TRUE,TRUE,"""event"",""trial"",""time""
""fullscreenenter"",""5"",""10090""
","
","
","""event"",""trial"",""time""
""fullscreenenter"",""5"",""10090""
","
",485.02000000013504,NA,48,NA,NA,3000,1,"724.7199999983422,900.7649999985006,1076.6699999949196,1268.9800000007963,2412.6449999966426",4848484848,images/earth.jpg,images/rocket2,images/rocket1,null,images/rocket2,NA,1,real,null,2,NA,NA,NA,sub17
d3-animate-choice,211,926664,0.0-76.0-1.25,TRUE,FALSE,TRUE,TRUE,"""event"",""trial"",""time""
""fullscreenenter"",""5"",""10090""
","
","
","""event"",""trial"",""time""
""fullscreenenter"",""5"",""10090""
","
",201.61000000371132,NA,48,NA,NA,3000,1,"386.0950000017183,1273.6500000028173,1457.750000001397",484848,images/redplanet1.jpg,images/alien2,images/alien1,images/rocket2,images/alien2,images/t.png,2,real,true,2,common,1,2020-06-24T02:22:37Z,sub17
two-step-fixation,212,927670,0.0-76.0-2.25,TRUE,FALSE,TRUE,TRUE,"""event"",""trial"",""time""
""fullscreenenter"",""5"",""10090""
","
","
","""event"",""trial"",""time""
""fullscreenenter"",""5"",""10090""
","
",NA,images/earth.jpg,NA,NA,NA,NA,NA,NA,NA,NA,NA,NA,NA,NA,NA,fixation,NA,NA,NA,NA,NA,NA,sub17
d3-animate-choice,213,930440,0.0-76.0-0.26,TRUE,FALSE,TRUE,TRUE,"""event"",""trial"",""time""
""fullscreenenter"",""5"",""10090""
","
","
","""event"",""trial"",""time""
""fullscreenenter"",""5"",""10090""
","
",765.3050000007497,NA,48,NA,NA,3000,1,"996.805000002496,1181.170000003418,1372.8850000042003,1540.7449999983655,2485.1150000030175,2716.6900000011083",484848484848,images/earth.jpg,images/rocket2,images/rocket1,null,images/rocket2,NA,1,real,null,2,NA,NA,NA,sub17
d3-animate-choice,214,932928,0.0-76.0-1.26,TRUE,FALSE,TRUE,TRUE,"""event"",""trial"",""time""
""fullscreenenter"",""5"",""10090""
","
","
","""event"",""trial"",""time""
""fullscreenenter"",""5"",""10090""
","
",481.93500000354834,NA,48,NA,NA,3000,1,"786.0950000032317,1233.7600000028033,1457.7550000031479,1986.0350000017788",48484848,images/redplanet1.jpg,images/alien2,images/alien1,images/rocket2,images/alien2,images/t.png,2,real,true,2,common,1,2020-06-24T02:22:43Z,sub17
two-step-fixation,215,933932,0.0-76.0-2.26,TRUE,FALSE,TRUE,TRUE,"""event"",""trial"",""time""
""fullscreenenter"",""5"",""10090""
","
","
","""event"",""trial"",""time""
""fullscreenenter"",""5"",""10090""
","
",NA,images/earth.jpg,NA,NA,NA,NA,NA,NA,NA,NA,NA,NA,NA,NA,NA,fixation,NA,NA,NA,NA,NA,NA,sub17
d3-animate-choice,216,936639,0.0-76.0-0.27,TRUE,FALSE,TRUE,TRUE,"""event"",""trial"",""time""
""fullscreenenter"",""5"",""10090""
","
","
","""event"",""trial"",""time""
""fullscreenenter"",""5"",""10090""
","
",701.9549999968149,NA,48,NA,NA,3000,1,"1006.2249999974156,2085.894999996526,2453.6699999953853",484848,images/earth.jpg,images/rocket2,images/rocket1,null,images/rocket2,NA,1,real,null,2,NA,NA,NA,sub17
d3-animate-choice,217,938680,0.0-76.0-1.27,TRUE,FALSE,TRUE,TRUE,"""event"",""trial"",""time""
""fullscreenenter"",""5"",""10090""
","
","
","""event"",""trial"",""time""
""fullscreenenter"",""5"",""10090""
","
",34.4799999948591,NA,48,NA,NA,3000,1,"450.7549999980256,658.8750000009313,874.4850000003353,1106.5850000013597,1386.3500000006752,1602.1350000009406,1794.3449999948498",48484848484848,images/redplanet1.jpg,images/alien2,images/alien1,images/rocket2,images/alien2,images/nothing.png,2,real,true,2,common,0,2020-06-24T02:22:49Z,sub17
two-step-fixation,218,939685,0.0-76.0-2.27,TRUE,FALSE,TRUE,TRUE,"""event"",""trial"",""time""
""fullscreenenter"",""5"",""10090""
","
","
","""event"",""trial"",""time""
""fullscreenenter"",""5"",""10090""
","
",NA,images/earth.jpg,NA,NA,NA,NA,NA,NA,NA,NA,NA,NA,NA,NA,NA,fixation,NA,NA,NA,NA,NA,NA,sub17
d3-animate-choice,219,941697,0.0-76.0-0.28,TRUE,FALSE,TRUE,TRUE,"""event"",""trial"",""time""
""fullscreenenter"",""5"",""10090""
","
","
","""event"",""trial"",""time""
""fullscreenenter"",""5"",""10090""
","
",5.150000004447065,NA,49,NA,NA,3000,1,"452.6400000031572,700.7750000047963,972.7300000012619",494949,images/earth.jpg,images/rocket2,images/rocket1,null,images/rocket1,NA,1,real,null,1,NA,NA,NA,sub17
d3-animate-choice,220,944103,0.0-76.0-1.28,TRUE,FALSE,TRUE,TRUE,"""event"",""trial"",""time""
""fullscreenenter"",""5"",""10090""
","
","
","""event"",""trial"",""time""
""fullscreenenter"",""5"",""10090""
","
",399.810000002617,NA,49,NA,NA,3000,1,"703.5850000029895,1335.6599999970058",4949,images/purpleplanet.jpg,images/alien4,images/alien3,images/rocket1,images/alien3,images/nothing.png,2,real,true,1,common,0,2020-06-24T02:22:55Z,sub17
two-step-fixation,221,945107,0.0-76.0-2.28,TRUE,FALSE,TRUE,TRUE,"""event"",""trial"",""time""
""fullscreenenter"",""5"",""10090""
","
","
","""event"",""trial"",""time""
""fullscreenenter"",""5"",""10090""
","
",NA,images/earth.jpg,NA,NA,NA,NA,NA,NA,NA,NA,NA,NA,NA,NA,NA,fixation,NA,NA,NA,NA,NA,NA,sub17
d3-animate-choice,222,947166,0.0-76.0-0.29,TRUE,FALSE,TRUE,TRUE,"""event"",""trial"",""time""
""fullscreenenter"",""5"",""10090""
","
","
","""event"",""trial"",""time""
""fullscreenenter"",""5"",""10090""
","
",53.59499999752734,NA,48,NA,NA,3000,1,"1238.0449999981793,1709.3099999983096,1869.2499999961583",484848,images/earth.jpg,images/rocket2,images/rocket1,null,images/rocket2,NA,1,real,null,2,NA,NA,NA,sub17
d3-animate-choice,223,949270,0.0-76.0-1.29,TRUE,FALSE,TRUE,TRUE,"""event"",""trial"",""time""
""fullscreenenter"",""5"",""10090""
","
","
","""event"",""trial"",""time""
""fullscreenenter"",""5"",""10090""
","
",98.58499999972992,NA,48,NA,NA,3000,1,"258.20000000391155,562.4700000043958,730.0749999994878,922.0600000044797,1138.0250000001397,1330.0100000051316,1682.3850000000093",48484848484848,images/redplanet1.jpg,images/alien2,images/alien1,images/rocket2,images/alien2,images/t.png,2,real,true,2,common,1,2020-06-24T02:23:00Z,sub17
two-step-fixation,224,950275,0.0-76.0-2.29,TRUE,FALSE,TRUE,TRUE,"""event"",""trial"",""time""
""fullscreenenter"",""5"",""10090""
","
","
","""event"",""trial"",""time""
""fullscreenenter"",""5"",""10090""
","
",NA,images/earth.jpg,NA,NA,NA,NA,NA,NA,NA,NA,NA,NA,NA,NA,NA,fixation,NA,NA,NA,NA,NA,NA,sub17
d3-animate-choice,225,952863,0.0-76.0-0.30,TRUE,FALSE,TRUE,TRUE,"""event"",""trial"",""time""
""fullscreenenter"",""5"",""10090""
","
","
","""event"",""trial"",""time""
""fullscreenenter"",""5"",""10090""
","
",581.384999997681,NA,48,NA,NA,3000,1,"789.33999999566,941.4600000018254,1125.229999997886,1412.9199999952689,1782.1599999952596,2020.8549999952083,2252.8149999998277,2492.7699999971082",4848484848484848,images/earth.jpg,images/rocket2,images/rocket1,null,images/rocket2,NA,1,real,null,2,NA,NA,NA,sub17
d3-animate-choice,226,955045,0.0-76.0-1.30,TRUE,FALSE,TRUE,TRUE,"""event"",""trial"",""time""
""fullscreenenter"",""5"",""10090""
","
","
","""event"",""trial"",""time""
""fullscreenenter"",""5"",""10090""
","
",174.81499999854714,NA,48,NA,NA,3000,1,"710.6050000002142,910.5199999976903,1142.6549999960698,1774.6699999989942,2006.459999996936",4848484848,images/redplanet1.jpg,images/alien2,images/alien1,images/rocket2,images/alien2,images/t.png,2,real,true,2,common,1,2020-06-24T02:23:06Z,sub17
two-step-fixation,227,956051,0.0-76.0-2.30,TRUE,FALSE,TRUE,TRUE,"""event"",""trial"",""time""
""fullscreenenter"",""5"",""10090""
","
","
","""event"",""trial"",""time""
""fullscreenenter"",""5"",""10090""
","
",NA,images/earth.jpg,NA,NA,NA,NA,NA,NA,NA,NA,NA,NA,NA,NA,NA,fixation,NA,NA,NA,NA,NA,NA,sub17
d3-animate-choice,228,958141,0.0-76.0-0.31,TRUE,FALSE,TRUE,TRUE,"""event"",""trial"",""time""
""fullscreenenter"",""5"",""10090""
","
","
","""event"",""trial"",""time""
""fullscreenenter"",""5"",""10090""
","
",84.34000000124797,NA,48,NA,NA,3000,1,"324.39000000152737,572.1899999988964,780.1899999976158,1060.4499999971595,1348.3849999974482,1604.395000002114,1827.960000002291,2035.9099999986356",4848484848484848,images/earth.jpg,images/rocket2,images/rocket1,null,images/rocket2,NA,1,real,null,2,NA,NA,NA,sub17
d3-animate-choice,229,960293,0.0-76.0-1.31,TRUE,FALSE,TRUE,TRUE,"""event"",""trial"",""time""
""fullscreenenter"",""5"",""10090""
","
","
","""event"",""trial"",""time""
""fullscreenenter"",""5"",""10090""
","
",145.33499999379274,NA,48,NA,NA,3000,1,"361.6199999960372,817.2799999957206,1025.4249999998137,1289.2099999954225,1513.4949999992969,1713.1549999975832",484848484848,images/purpleplanet.jpg,images/alien4,images/alien3,images/rocket2,images/alien4,images/t.png,2,real,false,2,rare,1,2020-06-24T02:23:11Z,sub17
two-step-fixation,230,961298,0.0-76.0-2.31,TRUE,FALSE,TRUE,TRUE,"""event"",""trial"",""time""
""fullscreenenter"",""5"",""10090""
","
","
","""event"",""trial"",""time""
""fullscreenenter"",""5"",""10090""
","
",NA,images/earth.jpg,NA,NA,NA,NA,NA,NA,NA,NA,NA,NA,NA,NA,NA,fixation,NA,NA,NA,NA,NA,NA,sub17
d3-animate-choice,231,963716,0.0-76.0-0.32,TRUE,FALSE,TRUE,TRUE,"""event"",""trial"",""time""
""fullscreenenter"",""5"",""10090""
","
","
","""event"",""trial"",""time""
""fullscreenenter"",""5"",""10090""
","
",412.9850000026636,NA,48,NA,NA,3000,1,"644.7699999988545,812.5050000016345,1012.5650000044843,1420.5900000014808,2148.444999998901,2356.4750000004424",484848484848,images/earth.jpg,images/rocket2,images/rocket1,null,images/rocket2,NA,1,real,null,2,NA,NA,NA,sub17
d3-animate-choice,232,965819,0.0-76.0-1.32,TRUE,FALSE,TRUE,TRUE,"""event"",""trial"",""time""
""fullscreenenter"",""5"",""10090""
","
","
","""event"",""trial"",""time""
""fullscreenenter"",""5"",""10090""
","
",98.07000000006519,NA,48,NA,NA,3000,1,"1081.755000006524,1290.0399999998044,1481.8350000060163",484848,images/redplanet1.jpg,images/alien2,images/alien1,images/rocket2,images/alien2,images/t.png,2,real,true,2,common,1,2020-06-24T02:23:16Z,sub17
two-step-fixation,233,966824,0.0-76.0-2.32,TRUE,FALSE,TRUE,TRUE,"""event"",""trial"",""time""
""fullscreenenter"",""5"",""10090""
","
","
","""event"",""trial"",""time""
""fullscreenenter"",""5"",""10090""
","
",NA,images/earth.jpg,NA,NA,NA,NA,NA,NA,NA,NA,NA,NA,NA,NA,NA,fixation,NA,NA,NA,NA,NA,NA,sub17
d3-animate-choice,234,969572,0.0-76.0-0.33,TRUE,FALSE,TRUE,TRUE,"""event"",""trial"",""time""
""fullscreenenter"",""5"",""10090""
","
","
","""event"",""trial"",""time""
""fullscreenenter"",""5"",""10090""
","
",742.4699999974109,NA,48,NA,NA,3000,1,"1014.1399999991991,1230.2700000000186,1421.965000001248,1974.1349999967497",48484848,images/earth.jpg,images/rocket2,images/rocket1,null,images/rocket2,NA,1,real,null,2,NA,NA,NA,sub17
d3-animate-choice,235,971746,0.0-76.0-1.33,TRUE,FALSE,TRUE,TRUE,"""event"",""trial"",""time""
""fullscreenenter"",""5"",""10090""
","
","
","""event"",""trial"",""time""
""fullscreenenter"",""5"",""10090""
","
",169.1350000037346,NA,48,NA,NA,3000,1,"1105.1450000014156,1288.9500000019325,1489.079999999376,1928.8950000045588",48484848,images/redplanet1.jpg,images/alien2,images/alien1,images/rocket2,images/alien2,images/t.png,2,real,true,2,common,1,2020-06-24T02:23:22Z,sub17
two-step-fixation,236,972752,0.0-76.0-2.33,TRUE,FALSE,TRUE,TRUE,"""event"",""trial"",""time""
""fullscreenenter"",""5"",""10090""
","
","
","""event"",""trial"",""time""
""fullscreenenter"",""5"",""10090""
","
",NA,images/earth.jpg,NA,NA,NA,NA,NA,NA,NA,NA,NA,NA,NA,NA,NA,fixation,NA,NA,NA,NA,NA,NA,sub17
d3-animate-choice,237,975027,0.0-76.0-0.34,TRUE,FALSE,TRUE,TRUE,"""event"",""trial"",""time""
""fullscreenenter"",""5"",""10090""
","
","
","""event"",""trial"",""time""
""fullscreenenter"",""5"",""10090""
","
",267.01999999932013,NA,48,NA,NA,3000,1,"450.7400000002235,834.6049999963725,1050.5049999991897,1290.864999995334,1490.754999998957,1722.284999996191,2026.5",48484848484848,images/earth.jpg,images/rocket2,images/rocket1,null,images/rocket2,NA,1,real,null,2,NA,NA,NA,sub17
d3-animate-choice,238,977138,0.0-76.0-1.34,TRUE,FALSE,TRUE,TRUE,"""event"",""trial"",""time""
""fullscreenenter"",""5"",""10090""
","
","
","""event"",""trial"",""time""
""fullscreenenter"",""5"",""10090""
","
",105.82000000425614,NA,48,NA,NA,3000,1,"458.1650000036461,713.7799999981653,945.6300000019837,1177.815000002738,1361.5350000036415,1553.7200000034645,1793.7700000038603,2041.6200000036042",4848484848484848,images/redplanet1.jpg,images/alien2,images/alien1,images/rocket2,images/alien2,images/t.png,2,real,true,2,common,1,2020-06-24T02:23:28Z,sub17
two-step-fixation,239,978143,0.0-76.0-2.34,TRUE,FALSE,TRUE,TRUE,"""event"",""trial"",""time""
""fullscreenenter"",""5"",""10090""
","
","
","""event"",""trial"",""time""
""fullscreenenter"",""5"",""10090""
","
",NA,images/earth.jpg,NA,NA,NA,NA,NA,NA,NA,NA,NA,NA,NA,NA,NA,fixation,NA,NA,NA,NA,NA,NA,sub17
d3-animate-choice,240,980403,0.0-76.0-0.35,TRUE,FALSE,TRUE,TRUE,"""event"",""trial"",""time""
""fullscreenenter"",""5"",""10090""
","
","
","""event"",""trial"",""time""
""fullscreenenter"",""5"",""10090""
","
",252.6450000004843,NA,48,NA,NA,3000,1,"572.7150000020629,780.6350000028033,1044.5450000043493,1308.7550000054762,1596.55500000366,1916.4250000030734,2220.455000002403",48484848484848,images/earth.jpg,images/rocket2,images/rocket1,null,images/rocket2,NA,1,real,null,2,NA,NA,NA,sub17
d3-animate-choice,241,982722,0.0-76.0-1.35,TRUE,FALSE,TRUE,TRUE,"""event"",""trial"",""time""
""fullscreenenter"",""5"",""10090""
","
","
","""event"",""trial"",""time""
""fullscreenenter"",""5"",""10090""
","
",313.46999999368563,NA,48,NA,NA,3000,1,"433.3199999964563,705.2499999990687,929.004999998142,1168.979999994859,1369.329999994021,1593.3999999979278,1857.2649999987334,2064.939999996568",4848484848484848,images/redplanet1.jpg,images/alien2,images/alien1,images/rocket2,images/alien2,images/nothing.png,2,real,true,2,common,0,2020-06-24T02:23:33Z,sub17
two-step-fixation,242,983727,0.0-76.0-2.35,TRUE,FALSE,TRUE,TRUE,"""event"",""trial"",""time""
""fullscreenenter"",""5"",""10090""
","
","
","""event"",""trial"",""time""
""fullscreenenter"",""5"",""10090""
","
",NA,images/earth.jpg,NA,NA,NA,NA,NA,NA,NA,NA,NA,NA,NA,NA,NA,fixation,NA,NA,NA,NA,NA,NA,sub17
d3-animate-choice,243,985834,0.0-76.0-0.36,TRUE,FALSE,TRUE,TRUE,"""event"",""trial"",""time""
""fullscreenenter"",""5"",""10090""
","
","
","""event"",""trial"",""time""
""fullscreenenter"",""5"",""10090""
","
",100.89000000152737,NA,48,NA,NA,3000,1,"388.8799999987241,693.1049999985844,972.7649999987334,1092.9099999994505,1428.8250000027474,1533.064999995986,1732.6899999971502,1956.8349999972852",4848484848484848,images/earth.jpg,images/rocket2,images/rocket1,null,images/rocket2,NA,1,real,null,2,NA,NA,NA,sub17
d3-animate-choice,244,988193,0.0-76.0-1.36,TRUE,FALSE,TRUE,TRUE,"""event"",""trial"",""time""
""fullscreenenter"",""5"",""10090""
","
","
","""event"",""trial"",""time""
""fullscreenenter"",""5"",""10090""
","
",353.72999999532476,NA,48,NA,NA,3000,1,"601.634999999078,809.6949999963399,1025.7599999967497,1241.6749999974854,1449.6049999943934,1649.5849999992643,2009.829999995418",48484848484848,images/redplanet1.jpg,images/alien2,images/alien1,images/rocket2,images/alien2,images/t.png,2,real,true,2,common,1,2020-06-24T02:23:39Z,sub17
two-step-fixation,245,989197,0.0-76.0-2.36,TRUE,FALSE,TRUE,TRUE,"""event"",""trial"",""time""
""fullscreenenter"",""5"",""10090""
","
","
","""event"",""trial"",""time""
""fullscreenenter"",""5"",""10090""
","
",NA,images/earth.jpg,NA,NA,NA,NA,NA,NA,NA,NA,NA,NA,NA,NA,NA,fixation,NA,NA,NA,NA,NA,NA,sub17
d3-animate-choice,246,991377,0.0-76.0-0.37,TRUE,FALSE,TRUE,TRUE,"""event"",""trial"",""time""
""fullscreenenter"",""5"",""10090""
","
","
","""event"",""trial"",""time""
""fullscreenenter"",""5"",""10090""
","
",174.44000000250526,NA,48,NA,NA,3000,1,"462.30500000098255,670.3750000015134,910.3350000005448,1118.7750000025844,1470.2900000048103,1718.590000004042,2014.0250000039814",48484848484848,images/earth.jpg,images/rocket2,images/rocket1,null,images/rocket2,NA,1,real,null,2,NA,NA,NA,sub17
d3-animate-choice,247,993457,0.0-76.0-1.37,TRUE,FALSE,TRUE,TRUE,"""event"",""trial"",""time""
""fullscreenenter"",""5"",""10090""
","
","
","""event"",""trial"",""time""
""fullscreenenter"",""5"",""10090""
","
",73.91500000073574,NA,48,NA,NA,3000,1,"754.3900000017602,1009.7650000024587,1330.0300000045681,1506.3500000032363,2033.4599999986822",4848484848,images/purpleplanet.jpg,images/alien4,images/alien3,images/rocket2,images/alien4,images/t.png,2,real,false,2,rare,1,2020-06-24T02:23:44Z,sub17
two-step-fixation,248,994462,0.0-76.0-2.37,TRUE,FALSE,TRUE,TRUE,"""event"",""trial"",""time""
""fullscreenenter"",""5"",""10090""
","
","
","""event"",""trial"",""time""
""fullscreenenter"",""5"",""10090""
","
",NA,images/earth.jpg,NA,NA,NA,NA,NA,NA,NA,NA,NA,NA,NA,NA,NA,fixation,NA,NA,NA,NA,NA,NA,sub17
d3-animate-choice,249,996520,0.0-76.0-0.38,TRUE,FALSE,TRUE,TRUE,"""event"",""trial"",""time""
""fullscreenenter"",""5"",""10090""
","
","
","""event"",""trial"",""time""
""fullscreenenter"",""5"",""10090""
","
",52.97499999869615,NA,48,NA,NA,3000,1,"420.67999999574386,684.7149999958929,916.5849999990314,1092.4850000010338,1324.7199999969453,1580.5949999995064",484848484848,images/earth.jpg,images/rocket2,images/rocket1,null,images/rocket2,NA,1,real,null,2,NA,NA,NA,sub17
d3-animate-choice,250,999448,0.0-76.0-1.38,TRUE,FALSE,TRUE,TRUE,"""event"",""trial"",""time""
""fullscreenenter"",""5"",""10090""
","
","
","""event"",""trial"",""time""
""fullscreenenter"",""5"",""10090""
","
",922.0299999942072,NA,48,NA,NA,3000,1,"1161.8549999983516,1409.7299999992829,1689.6049999995157,1929.5399999972433,2138.049999993993,2313.509999999893,2545.65499999444",48484848484848,images/purpleplanet.jpg,images/alien4,images/alien3,images/rocket2,images/alien4,images/t.png,2,real,false,2,rare,1,2020-06-24T02:23:50Z,sub17
two-step-fixation,251,1000454,0.0-76.0-2.38,TRUE,FALSE,TRUE,TRUE,"""event"",""trial"",""time""
""fullscreenenter"",""5"",""10090""
","
","
","""event"",""trial"",""time""
""fullscreenenter"",""5"",""10090""
","
",NA,images/earth.jpg,NA,NA,NA,NA,NA,NA,NA,NA,NA,NA,NA,NA,NA,fixation,NA,NA,NA,NA,NA,NA,sub17
d3-animate-choice,252,1003447,0.0-76.0-0.39,TRUE,FALSE,TRUE,TRUE,"""event"",""trial"",""time""
""fullscreenenter"",""5"",""10090""
","
","
","""event"",""trial"",""time""
""fullscreenenter"",""5"",""10090""
","
",988.1249999962747,NA,48,NA,NA,3000,1,"1204.0649999980815,1396.0749999969266,1588.034999993397,1820.1649999973597,2059.88499999512,2651.8249999935506",484848484848,images/earth.jpg,images/rocket2,images/rocket1,null,images/rocket2,NA,1,real,null,2,NA,NA,NA,sub17
d3-animate-choice,253,1005969,0.0-76.0-1.39,TRUE,FALSE,TRUE,TRUE,"""event"",""trial"",""time""
""fullscreenenter"",""5"",""10090""
","
","
","""event"",""trial"",""time""
""fullscreenenter"",""5"",""10090""
","
",513.8599999990547,NA,48,NA,NA,3000,1,"833.789999996894,1065.7950000022538,1297.6049999997485,1497.5049999993062,1721.8199999987846,1937.9899999984773,2129.6950000032084",48484848484848,images/redplanet1.jpg,images/alien2,images/alien1,images/rocket2,images/alien2,images/nothing.png,2,real,true,2,common,0,2020-06-24T02:23:56Z,sub17
two-step-fixation,254,1006973,0.0-76.0-2.39,TRUE,FALSE,TRUE,TRUE,"""event"",""trial"",""time""
""fullscreenenter"",""5"",""10090""
","
","
","""event"",""trial"",""time""
""fullscreenenter"",""5"",""10090""
","
",NA,images/earth.jpg,NA,NA,NA,NA,NA,NA,NA,NA,NA,NA,NA,NA,NA,fixation,NA,NA,NA,NA,NA,NA,sub17
d3-animate-choice,255,1009127,0.0-76.0-0.40,TRUE,FALSE,TRUE,TRUE,"""event"",""trial"",""time""
""fullscreenenter"",""5"",""10090""
","
","
","""event"",""trial"",""time""
""fullscreenenter"",""5"",""10090""
","
",148.56999999750406,NA,48,NA,NA,3000,1,"404.2300000000978,620.3699999968521,1268.194999996922,1523.9650000003166,1771.6549999967683,2068.0500000016764",484848484848,images/earth.jpg,images/rocket2,images/rocket1,null,images/rocket2,NA,1,real,null,2,NA,NA,NA,sub17
d3-animate-choice,256,1011310,0.0-76.0-1.40,TRUE,FALSE,TRUE,TRUE,"""event"",""trial"",""time""
""fullscreenenter"",""5"",""10090""
","
","
","""event"",""trial"",""time""
""fullscreenenter"",""5"",""10090""
","
