trial_type,trial_index,time_elapsed,internal_node_id,rocket_sides,red_planet_first_rocket,red_display_order,purple_display_order,interactions,blur_events,focus_events,fullscreenenter_events,fullscreenexit_events,rt,stimulus,key_press,button_pressed,success,duration,valid_pressed,rts,keys,planet_text,right_text,left_text,center_text,chosen_text,reward_text,trial_stage,practice_trial,transition_type,choice,transition,reward,timestamp,subject_id
pavlovia,0,5,0.0-0.0,FALSE,TRUE,TRUE,TRUE,"
","
","
","
","
",NA,NA,NA,NA,NA,NA,NA,NA,NA,NA,NA,NA,NA,NA,NA,NA,NA,NA,NA,NA,NA,NA,sub27
html-keyboard-response,1,1409,0.0-1.0,FALSE,TRUE,TRUE,TRUE,"
","
","
","
","
",1401.049999985844,Welcome! Press the space bar to begin.,32,NA,NA,NA,NA,NA,NA,NA,NA,NA,NA,NA,NA,NA,NA,NA,NA,NA,NA,NA,sub27
audio-keyboard-response,2,4382,0.0-2.0,FALSE,TRUE,TRUE,TRUE,"
","
","
","
","
",2496,audio/beep_loop.wav,32,NA,NA,NA,NA,NA,NA,NA,NA,NA,NA,NA,NA,NA,NA,NA,NA,NA,NA,NA,sub27
audio-button-response,3,6820,0.0-3.0,FALSE,TRUE,TRUE,TRUE,"
","
","
","
","
",NaN,audio/fish.mp3,NA,1,NA,NA,NA,NA,NA,NA,NA,NA,NA,NA,NA,NA,NA,NA,NA,NA,NA,NA,sub27
audio-button-response,4,9750,0.0-4.0,FALSE,TRUE,TRUE,TRUE,"""event"",""trial"",""time""
""fullscreenenter"",""5"",""16214""
","
","
","""event"",""trial"",""time""
""fullscreenenter"",""5"",""16214""
","
",NaN,audio/tiger.mp3,NA,4,NA,NA,NA,NA,NA,NA,NA,NA,NA,NA,NA,NA,NA,NA,NA,NA,NA,NA,sub27
fullscreen,5,17200,0.0-5.0,FALSE,TRUE,TRUE,TRUE,"""event"",""trial"",""time""
""fullscreenenter"",""5"",""16214""
","
","
","""event"",""trial"",""time""
""fullscreenenter"",""5"",""16214""
","
",NA,NA,NA,NA,TRUE,NA,NA,NA,NA,NA,NA,NA,NA,NA,NA,NA,NA,NA,NA,NA,NA,NA,sub27
d3-instructions,6,30881,0.0-6.0,FALSE,TRUE,TRUE,TRUE,"""event"",""trial"",""time""
""fullscreenenter"",""5"",""16214""
","
","
","""event"",""trial"",""time""
""fullscreenenter"",""5"",""16214""
","
",NA,NA,NA,NA,NA,NA,NA,NA,NA,NA,NA,NA,NA,NA,NA,NA,NA,NA,NA,NA,NA,NA,sub27
d3-instructions,7,38067,0.0-7.0,FALSE,TRUE,TRUE,TRUE,"""event"",""trial"",""time""
""fullscreenenter"",""5"",""16214""
","
","
","""event"",""trial"",""time""
""fullscreenenter"",""5"",""16214""
","
",NA,NA,NA,NA,NA,NA,NA,NA,NA,NA,NA,NA,NA,NA,NA,NA,NA,NA,NA,NA,NA,NA,sub27
d3-instructions,8,44580,0.0-8.0,FALSE,TRUE,TRUE,TRUE,"""event"",""trial"",""time""
""fullscreenenter"",""5"",""16214""
","
","
","""event"",""trial"",""time""
""fullscreenenter"",""5"",""16214""
","
",NA,NA,NA,NA,NA,NA,NA,NA,NA,NA,NA,NA,NA,NA,NA,NA,NA,NA,NA,NA,NA,NA,sub27
d3-instructions,9,55159,0.0-9.0,FALSE,TRUE,TRUE,TRUE,"""event"",""trial"",""time""
""fullscreenenter"",""5"",""16214""
","
","
","""event"",""trial"",""time""
""fullscreenenter"",""5"",""16214""
","
",NA,NA,NA,NA,NA,NA,NA,NA,NA,NA,NA,NA,NA,NA,NA,NA,NA,NA,NA,NA,NA,NA,sub27
d3-instructions,10,72716,0.0-10.0,FALSE,TRUE,TRUE,TRUE,"""event"",""trial"",""time""
""fullscreenenter"",""5"",""16214""
","
","
","""event"",""trial"",""time""
""fullscreenenter"",""5"",""16214""
","
",NA,NA,NA,NA,NA,NA,NA,NA,NA,NA,NA,NA,NA,NA,NA,NA,NA,NA,NA,NA,NA,NA,sub27
d3-animate-choice,11,77752,0.0-11.0,FALSE,TRUE,TRUE,TRUE,"""event"",""trial"",""time""
""fullscreenenter"",""5"",""16214""
","
","
","""event"",""trial"",""time""
""fullscreenenter"",""5"",""16214""
","
",3025.800000061281,NA,49,NA,NA,3000,1,3387.125000008382,48,images/tutgreenplanet.jpg,images/tutalien1,images/tutalien2,null,images/tutalien2,NA,NA,practice,null,NA,NA,NA,NA,sub27
d3-animate-choice,12,79824,0.0-12.0,FALSE,TRUE,TRUE,TRUE,"""event"",""trial"",""time""
""fullscreenenter"",""5"",""16214""
","
","
","""event"",""trial"",""time""
""fullscreenenter"",""5"",""16214""
","
",67.07500002812594,NA,48,NA,NA,3000,1,NA,NA,images/tutgreenplanet.jpg,images/tutalien1,images/tutalien2,null,images/tutalien1,NA,NA,practice,null,NA,NA,NA,NA,sub27
d3-animate-choice,13,81901,0.0-13.0,FALSE,TRUE,TRUE,TRUE,"""event"",""trial"",""time""
""fullscreenenter"",""5"",""16214""
","
","
","""event"",""trial"",""time""
""fullscreenenter"",""5"",""16214""
","
",74.01500002015382,NA,49,NA,NA,3000,1,2056.7799999844283,48,images/tutgreenplanet.jpg,images/tutalien1,images/tutalien2,null,images/tutalien2,NA,NA,practice,null,NA,NA,NA,NA,sub27
d3-animate-choice,14,85213,0.0-14.0,FALSE,TRUE,TRUE,TRUE,"""event"",""trial"",""time""
""fullscreenenter"",""5"",""16214""
","
","
","""event"",""trial"",""time""
""fullscreenenter"",""5"",""16214""
","
",1308.225000044331,NA,48,NA,NA,3000,1,NA,NA,images/tutgreenplanet.jpg,images/tutalien1,images/tutalien2,null,images/tutalien1,NA,NA,practice,null,NA,NA,NA,NA,sub27
d3-instructions,15,92050,0.0-15.0,FALSE,TRUE,TRUE,TRUE,"""event"",""trial"",""time""
""fullscreenenter"",""5"",""16214""
","
","
","""event"",""trial"",""time""
""fullscreenenter"",""5"",""16214""
","
",NA,NA,NA,NA,NA,NA,NA,NA,NA,NA,NA,NA,NA,NA,NA,NA,NA,NA,NA,NA,NA,NA,sub27
d3-instructions,16,99816,0.0-16.0,FALSE,TRUE,TRUE,TRUE,"""event"",""trial"",""time""
""fullscreenenter"",""5"",""16214""
","
","
","""event"",""trial"",""time""
""fullscreenenter"",""5"",""16214""
","
",NA,NA,NA,NA,NA,NA,NA,NA,NA,NA,NA,NA,NA,NA,NA,NA,NA,NA,NA,NA,NA,NA,sub27
d3-instructions,17,108836,0.0-17.0,FALSE,TRUE,TRUE,TRUE,"""event"",""trial"",""time""
""fullscreenenter"",""5"",""16214""
","
","
","""event"",""trial"",""time""
""fullscreenenter"",""5"",""16214""
","
",NA,NA,NA,NA,NA,NA,NA,NA,NA,NA,NA,NA,NA,NA,NA,NA,NA,NA,NA,NA,NA,NA,sub27
d3-instructions,18,121507,0.0-18.0,FALSE,TRUE,TRUE,TRUE,"""event"",""trial"",""time""
""fullscreenenter"",""5"",""16214""
","
","
","""event"",""trial"",""time""
""fullscreenenter"",""5"",""16214""
","
",NA,NA,NA,NA,NA,NA,NA,NA,NA,NA,NA,NA,NA,NA,NA,NA,NA,NA,NA,NA,NA,NA,sub27
d3-instructions,19,136224,0.0-19.0,FALSE,TRUE,TRUE,TRUE,"""event"",""trial"",""time""
""fullscreenenter"",""5"",""16214""
","
","
","""event"",""trial"",""time""
""fullscreenenter"",""5"",""16214""
","
",NA,NA,NA,NA,NA,NA,NA,NA,NA,NA,NA,NA,NA,NA,NA,NA,NA,NA,NA,NA,NA,NA,sub27
d3-animate-choice,20,138735,0.0-20.0,FALSE,TRUE,TRUE,TRUE,"""event"",""trial"",""time""
""fullscreenenter"",""5"",""16214""
","
","
","""event"",""trial"",""time""
""fullscreenenter"",""5"",""16214""
","
",504.1200000559911,NA,49,NA,NA,3000,1,1016.9600000372157,49,images/tutyellowplanet.jpg,null,images/tutalien3,null,images/tutalien3,images/t.png,NA,practice,null,NA,NA,NA,NA,sub27
d3-animate-choice,21,141117,0.0-21.0,FALSE,TRUE,TRUE,TRUE,"""event"",""trial"",""time""
""fullscreenenter"",""5"",""16214""
","
","
","""event"",""trial"",""time""
""fullscreenenter"",""5"",""16214""
","
",377.5049999821931,NA,49,NA,NA,3000,1,NA,NA,images/tutyellowplanet.jpg,null,images/tutalien3,null,images/tutalien3,images/t.png,NA,practice,null,NA,NA,NA,NA,sub27
d3-animate-choice,22,143425,0.0-22.0,FALSE,TRUE,TRUE,TRUE,"""event"",""trial"",""time""
""fullscreenenter"",""5"",""16214""
","
","
","""event"",""trial"",""time""
""fullscreenenter"",""5"",""16214""
","
",302.23999998997897,NA,49,NA,NA,3000,1,NA,NA,images/tutyellowplanet.jpg,null,images/tutalien3,null,images/tutalien3,images/t.png,NA,practice,null,NA,NA,NA,NA,sub27
d3-animate-choice,23,145573,0.0-23.0,FALSE,TRUE,TRUE,TRUE,"""event"",""trial"",""time""
""fullscreenenter"",""5"",""16214""
","
","
","""event"",""trial"",""time""
""fullscreenenter"",""5"",""16214""
","
",140.20999998319894,NA,49,NA,NA,3000,1,NA,NA,images/tutyellowplanet.jpg,null,images/tutalien3,null,images/tutalien3,images/t.png,NA,practice,null,NA,NA,NA,NA,sub27
d3-animate-choice,24,147690,0.0-24.0,FALSE,TRUE,TRUE,TRUE,"""event"",""trial"",""time""
""fullscreenenter"",""5"",""16214""
","
","
","""event"",""trial"",""time""
""fullscreenenter"",""5"",""16214""
","
",113.74000005889684,NA,49,NA,NA,3000,1,NA,NA,images/tutyellowplanet.jpg,null,images/tutalien3,null,images/tutalien3,images/t.png,NA,practice,null,NA,NA,NA,NA,sub27
d3-animate-choice,25,150067,0.0-25.0,FALSE,TRUE,TRUE,TRUE,"""event"",""trial"",""time""
""fullscreenenter"",""5"",""16214""
","
","
","""event"",""trial"",""time""
""fullscreenenter"",""5"",""16214""
","
",373.4999999869615,NA,49,NA,NA,3000,1,NA,NA,images/tutyellowplanet.jpg,null,images/tutalien3,null,images/tutalien3,images/t.png,NA,practice,null,NA,NA,NA,NA,sub27
d3-animate-choice,26,152367,0.0-26.0,FALSE,TRUE,TRUE,TRUE,"""event"",""trial"",""time""
""fullscreenenter"",""5"",""16214""
","
","
","""event"",""trial"",""time""
""fullscreenenter"",""5"",""16214""
","
",293.4400000376627,NA,49,NA,NA,3000,1,2007.9700000351295,49,images/tutyellowplanet.jpg,null,images/tutalien3,null,images/tutalien3,images/t.png,NA,practice,null,NA,NA,NA,NA,sub27
d3-animate-choice,27,154480,0.0-27.0,FALSE,TRUE,TRUE,TRUE,"""event"",""trial"",""time""
""fullscreenenter"",""5"",""16214""
","
","
","""event"",""trial"",""time""
""fullscreenenter"",""5"",""16214""
","
",107.71499993279576,NA,49,NA,NA,3000,1,NA,NA,images/tutyellowplanet.jpg,null,images/tutalien3,null,images/tutalien3,images/nothing.png,NA,practice,null,NA,NA,NA,NA,sub27
d3-animate-choice,28,156704,0.0-28.0,FALSE,TRUE,TRUE,TRUE,"""event"",""trial"",""time""
""fullscreenenter"",""5"",""16214""
","
","
","""event"",""trial"",""time""
""fullscreenenter"",""5"",""16214""
","
",221.3549999287352,NA,49,NA,NA,3000,1,NA,NA,images/tutyellowplanet.jpg,null,images/tutalien3,null,images/tutalien3,images/t.png,NA,practice,null,NA,NA,NA,NA,sub27
d3-animate-choice,29,159041,0.0-29.0,FALSE,TRUE,TRUE,TRUE,"""event"",""trial"",""time""
""fullscreenenter"",""5"",""16214""
","
","
","""event"",""trial"",""time""
""fullscreenenter"",""5"",""16214""
","
",331.0650000348687,NA,49,NA,NA,3000,1,NA,NA,images/tutyellowplanet.jpg,null,images/tutalien3,null,images/tutalien3,images/t.png,NA,practice,null,NA,NA,NA,NA,sub27
d3-instructions,30,165494,0.0-30.0,FALSE,TRUE,TRUE,TRUE,"""event"",""trial"",""time""
""fullscreenenter"",""5"",""16214""
","
","
","""event"",""trial"",""time""
""fullscreenenter"",""5"",""16214""
","
",NA,NA,NA,NA,NA,NA,NA,NA,NA,NA,NA,NA,NA,NA,NA,NA,NA,NA,NA,NA,NA,NA,sub27
d3-instructions,31,175405,0.0-31.0,FALSE,TRUE,TRUE,TRUE,"""event"",""trial"",""time""
""fullscreenenter"",""5"",""16214""
","
","
","""event"",""trial"",""time""
""fullscreenenter"",""5"",""16214""
","
",NA,NA,NA,NA,NA,NA,NA,NA,NA,NA,NA,NA,NA,NA,NA,NA,NA,NA,NA,NA,NA,NA,sub27
d3-instructions,32,183509,0.0-32.0,FALSE,TRUE,TRUE,TRUE,"""event"",""trial"",""time""
""fullscreenenter"",""5"",""16214""
","
","
","""event"",""trial"",""time""
""fullscreenenter"",""5"",""16214""
","
",NA,NA,NA,NA,NA,NA,NA,NA,NA,NA,NA,NA,NA,NA,NA,NA,NA,NA,NA,NA,NA,NA,sub27
d3-instructions,33,188634,0.0-33.0,FALSE,TRUE,TRUE,TRUE,"""event"",""trial"",""time""
""fullscreenenter"",""5"",""16214""
","
","
","""event"",""trial"",""time""
""fullscreenenter"",""5"",""16214""
","
",NA,NA,NA,NA,NA,NA,NA,NA,NA,NA,NA,NA,NA,NA,NA,NA,NA,NA,NA,NA,NA,NA,sub27
d3-animate-choice,34,191545,0.0-34.0,FALSE,TRUE,TRUE,TRUE,"""event"",""trial"",""time""
""fullscreenenter"",""5"",""16214""
","
","
","""event"",""trial"",""time""
""fullscreenenter"",""5"",""16214""
","
",903.980000060983,NA,49,NA,NA,3000,1,NA,NA,images/tutgreenplanet.jpg,images/tutalien1,images/tutalien2,null,images/tutalien2,images/t.png,NA,practice,null,NA,NA,NA,NA,sub27
d3-animate-choice,35,193966,0.0-35.0,FALSE,TRUE,TRUE,TRUE,"""event"",""trial"",""time""
""fullscreenenter"",""5"",""16214""
","
","
","""event"",""trial"",""time""
""fullscreenenter"",""5"",""16214""
","
",417.1600000699982,NA,49,NA,NA,3000,1,NA,NA,images/tutgreenplanet.jpg,images/tutalien1,images/tutalien2,null,images/tutalien2,images/t.png,NA,practice,null,NA,NA,NA,NA,sub27
d3-animate-choice,36,196439,0.0-36.0,FALSE,TRUE,TRUE,TRUE,"""event"",""trial"",""time""
""fullscreenenter"",""5"",""16214""
","
","
","""event"",""trial"",""time""
""fullscreenenter"",""5"",""16214""
","
",468.51999999489635,NA,49,NA,NA,3000,1,NA,NA,images/tutgreenplanet.jpg,images/tutalien1,images/tutalien2,null,images/tutalien2,images/t.png,NA,practice,null,NA,NA,NA,NA,sub27
d3-animate-choice,37,198859,0.0-37.0,FALSE,TRUE,TRUE,TRUE,"""event"",""trial"",""time""
""fullscreenenter"",""5"",""16214""
","
","
","""event"",""trial"",""time""
""fullscreenenter"",""5"",""16214""
","
",412.4799999408424,NA,49,NA,NA,3000,1,NA,NA,images/tutgreenplanet.jpg,images/tutalien1,images/tutalien2,null,images/tutalien2,images/nothing.png,NA,practice,null,NA,NA,NA,NA,sub27
d3-animate-choice,38,201239,0.0-38.0,FALSE,TRUE,TRUE,TRUE,"""event"",""trial"",""time""
""fullscreenenter"",""5"",""16214""
","
","
","""event"",""trial"",""time""
""fullscreenenter"",""5"",""16214""
","
",372.7550000185147,NA,48,NA,NA,3000,1,NA,NA,images/tutgreenplanet.jpg,images/tutalien1,images/tutalien2,null,images/tutalien1,images/t.png,NA,practice,null,NA,NA,NA,NA,sub27
d3-animate-choice,39,203662,0.0-39.0,FALSE,TRUE,TRUE,TRUE,"""event"",""trial"",""time""
""fullscreenenter"",""5"",""16214""
","
","
","""event"",""trial"",""time""
""fullscreenenter"",""5"",""16214""
","
",418.5999999754131,NA,48,NA,NA,3000,1,NA,NA,images/tutgreenplanet.jpg,images/tutalien1,images/tutalien2,null,images/tutalien1,images/nothing.png,NA,practice,null,NA,NA,NA,NA,sub27
d3-animate-choice,40,206180,0.0-40.0,FALSE,TRUE,TRUE,TRUE,"""event"",""trial"",""time""
""fullscreenenter"",""5"",""16214""
","
","
","""event"",""trial"",""time""
""fullscreenenter"",""5"",""16214""
","
",515.4399999883026,NA,49,NA,NA,3000,1,NA,NA,images/tutgreenplanet.jpg,images/tutalien1,images/tutalien2,null,images/tutalien2,images/t.png,NA,practice,null,NA,NA,NA,NA,sub27
d3-animate-choice,41,208530,0.0-41.0,FALSE,TRUE,TRUE,TRUE,"""event"",""trial"",""time""
""fullscreenenter"",""5"",""16214""
","
","
","""event"",""trial"",""time""
""fullscreenenter"",""5"",""16214""
","
",345.64499999396503,NA,49,NA,NA,3000,1,NA,NA,images/tutgreenplanet.jpg,images/tutalien1,images/tutalien2,null,images/tutalien2,images/t.png,NA,practice,null,NA,NA,NA,NA,sub27
d3-animate-choice,42,210867,0.0-42.0,FALSE,TRUE,TRUE,TRUE,"""event"",""trial"",""time""
""fullscreenenter"",""5"",""16214""
","
","
","""event"",""trial"",""time""
""fullscreenenter"",""5"",""16214""
","
",334.07500002067536,NA,49,NA,NA,3000,1,NA,NA,images/tutgreenplanet.jpg,images/tutalien1,images/tutalien2,null,images/tutalien2,images/t.png,NA,practice,null,NA,NA,NA,NA,sub27
d3-animate-choice,43,213229,0.0-43.0,FALSE,TRUE,TRUE,TRUE,"""event"",""trial"",""time""
""fullscreenenter"",""5"",""16214""
","
","
","""event"",""trial"",""time""
""fullscreenenter"",""5"",""16214""
","
",357.13499994017184,NA,48,NA,NA,3000,1,NA,NA,images/tutgreenplanet.jpg,images/tutalien1,images/tutalien2,null,images/tutalien1,images/nothing.png,NA,practice,null,NA,NA,NA,NA,sub27
d3-instructions,44,223651,0.0-44.0,FALSE,TRUE,TRUE,TRUE,"""event"",""trial"",""time""
""fullscreenenter"",""5"",""16214""
","
","
","""event"",""trial"",""time""
""fullscreenenter"",""5"",""16214""
","
",NA,NA,NA,NA,NA,NA,NA,NA,NA,NA,NA,NA,NA,NA,NA,NA,NA,NA,NA,NA,NA,NA,sub27
d3-instructions,45,228058,0.0-45.0,FALSE,TRUE,TRUE,TRUE,"""event"",""trial"",""time""
""fullscreenenter"",""5"",""16214""
","
","
","""event"",""trial"",""time""
""fullscreenenter"",""5"",""16214""
","
",NA,NA,NA,NA,NA,NA,NA,NA,NA,NA,NA,NA,NA,NA,NA,NA,NA,NA,NA,NA,NA,NA,sub27
d3-instructions,46,231534,0.0-46.0,FALSE,TRUE,TRUE,TRUE,"""event"",""trial"",""time""
""fullscreenenter"",""5"",""16214""
","
","
","""event"",""trial"",""time""
""fullscreenenter"",""5"",""16214""
","
",NA,NA,NA,NA,NA,NA,NA,NA,NA,NA,NA,NA,NA,NA,NA,NA,NA,NA,NA,NA,NA,NA,sub27
d3-instructions,47,243514,0.0-47.0,FALSE,TRUE,TRUE,TRUE,"""event"",""trial"",""time""
""fullscreenenter"",""5"",""16214""
","
","
","""event"",""trial"",""time""
""fullscreenenter"",""5"",""16214""
","
",NA,NA,NA,NA,NA,NA,NA,NA,NA,NA,NA,NA,NA,NA,NA,NA,NA,NA,NA,NA,NA,NA,sub27
d3-instructions,48,250883,0.0-48.0,FALSE,TRUE,TRUE,TRUE,"""event"",""trial"",""time""
""fullscreenenter"",""5"",""16214""
","
","
","""event"",""trial"",""time""
""fullscreenenter"",""5"",""16214""
","
",NA,NA,NA,NA,NA,NA,NA,NA,NA,NA,NA,NA,NA,NA,NA,NA,NA,NA,NA,NA,NA,NA,sub27
d3-instructions,49,259049,0.0-49.0,FALSE,TRUE,TRUE,TRUE,"""event"",""trial"",""time""
""fullscreenenter"",""5"",""16214""
","
","
","""event"",""trial"",""time""
""fullscreenenter"",""5"",""16214""
","
",NA,NA,NA,NA,NA,NA,NA,NA,NA,NA,NA,NA,NA,NA,NA,NA,NA,NA,NA,NA,NA,NA,sub27
d3-instructions,50,267977,0.0-50.0,FALSE,TRUE,TRUE,TRUE,"""event"",""trial"",""time""
""fullscreenenter"",""5"",""16214""
","
","
","""event"",""trial"",""time""
""fullscreenenter"",""5"",""16214""
","
",NA,NA,NA,NA,NA,NA,NA,NA,NA,NA,NA,NA,NA,NA,NA,NA,NA,NA,NA,NA,NA,NA,sub27
d3-instructions,51,270823,0.0-51.0,FALSE,TRUE,TRUE,TRUE,"""event"",""trial"",""time""
""fullscreenenter"",""5"",""16214""
","
","
","""event"",""trial"",""time""
""fullscreenenter"",""5"",""16214""
","
",NA,NA,NA,NA,NA,NA,NA,NA,NA,NA,NA,NA,NA,NA,NA,NA,NA,NA,NA,NA,NA,NA,sub27
d3-instructions,52,273786,0.0-52.0,FALSE,TRUE,TRUE,TRUE,"""event"",""trial"",""time""
""fullscreenenter"",""5"",""16214""
","
","
","""event"",""trial"",""time""
""fullscreenenter"",""5"",""16214""
","
",NA,NA,NA,NA,NA,NA,NA,NA,NA,NA,NA,NA,NA,NA,NA,NA,NA,NA,NA,NA,NA,NA,sub27
d3-instructions,53,285611,0.0-53.0,FALSE,TRUE,TRUE,TRUE,"""event"",""trial"",""time""
""fullscreenenter"",""5"",""16214""
","
","
","""event"",""trial"",""time""
""fullscreenenter"",""5"",""16214""
","
",NA,NA,NA,NA,NA,NA,NA,NA,NA,NA,NA,NA,NA,NA,NA,NA,NA,NA,NA,NA,NA,NA,sub27
d3-instructions,54,300289,0.0-54.0,FALSE,TRUE,TRUE,TRUE,"""event"",""trial"",""time""
""fullscreenenter"",""5"",""16214""
","
","
","""event"",""trial"",""time""
""fullscreenenter"",""5"",""16214""
","
",NA,NA,NA,NA,NA,NA,NA,NA,NA,NA,NA,NA,NA,NA,NA,NA,NA,NA,NA,NA,NA,NA,sub27
d3-instructions,55,310414,0.0-55.0,FALSE,TRUE,TRUE,TRUE,"""event"",""trial"",""time""
""fullscreenenter"",""5"",""16214""
","
","
","""event"",""trial"",""time""
""fullscreenenter"",""5"",""16214""
","
",NA,NA,NA,NA,NA,NA,NA,NA,NA,NA,NA,NA,NA,NA,NA,NA,NA,NA,NA,NA,NA,NA,sub27
d3-instructions,56,318756,0.0-56.0,FALSE,TRUE,TRUE,TRUE,"""event"",""trial"",""time""
""fullscreenenter"",""5"",""16214""
","
","
","""event"",""trial"",""time""
""fullscreenenter"",""5"",""16214""
","
",NA,NA,NA,NA,NA,NA,NA,NA,NA,NA,NA,NA,NA,NA,NA,NA,NA,NA,NA,NA,NA,NA,sub27
d3-instructions,57,328914,0.0-57.0,FALSE,TRUE,TRUE,TRUE,"""event"",""trial"",""time""
""fullscreenenter"",""5"",""16214""
","
","
","""event"",""trial"",""time""
""fullscreenenter"",""5"",""16214""
","
",NA,NA,NA,NA,NA,NA,NA,NA,NA,NA,NA,NA,NA,NA,NA,NA,NA,NA,NA,NA,NA,NA,sub27
d3-instructions,58,339763,0.0-58.0,FALSE,TRUE,TRUE,TRUE,"""event"",""trial"",""time""
""fullscreenenter"",""5"",""16214""
","
","
","""event"",""trial"",""time""
""fullscreenenter"",""5"",""16214""
","
",NA,NA,NA,NA,NA,NA,NA,NA,NA,NA,NA,NA,NA,NA,NA,NA,NA,NA,NA,NA,NA,NA,sub27
d3-instructions,59,345066,0.0-59.0,FALSE,TRUE,TRUE,TRUE,"""event"",""trial"",""time""
""fullscreenenter"",""5"",""16214""
","
","
","""event"",""trial"",""time""
""fullscreenenter"",""5"",""16214""
","
",NA,NA,NA,NA,NA,NA,NA,NA,NA,NA,NA,NA,NA,NA,NA,NA,NA,NA,NA,NA,NA,NA,sub27
d3-instructions,60,352156,0.0-60.0,FALSE,TRUE,TRUE,TRUE,"""event"",""trial"",""time""
""fullscreenenter"",""5"",""16214""
","
","
","""event"",""trial"",""time""
""fullscreenenter"",""5"",""16214""
","
",NA,NA,NA,NA,NA,NA,NA,NA,NA,NA,NA,NA,NA,NA,NA,NA,NA,NA,NA,NA,NA,NA,sub27
d3-animate-choice,61,355683,0.0-61.0-0.0,FALSE,TRUE,TRUE,TRUE,"""event"",""trial"",""time""
""fullscreenenter"",""5"",""16214""
","
","
","""event"",""trial"",""time""
""fullscreenenter"",""5"",""16214""
","
",1522.164999973029,NA,49,NA,NA,3000,1,NA,NA,images/earth.jpg,images/tutrocket1,images/tutrocket2,null,images/tutrocket2,NA,1,practice,null,1,NA,NA,NA,sub27
d3-animate-choice,62,359055,0.0-61.0-1.0,FALSE,TRUE,TRUE,TRUE,"""event"",""trial"",""time""
""fullscreenenter"",""5"",""16214""
","
","
","""event"",""trial"",""time""
""fullscreenenter"",""5"",""16214""
","
",1365.1100000133738,NA,49,NA,NA,3000,1,NA,NA,images/tutyellowplanet.jpg,images/tutalien4,images/tutalien3,images/tutrocket2,images/tutalien3,images/t.png,2,practice,true,1,common,1,2020-06-16T16:47:28Z,sub27
two-step-fixation,63,360063,0.0-61.0-2.0,FALSE,TRUE,TRUE,TRUE,"""event"",""trial"",""time""
""fullscreenenter"",""5"",""16214""
","
","
","""event"",""trial"",""time""
""fullscreenenter"",""5"",""16214""
","
",NA,images/earth.jpg,NA,NA,NA,NA,NA,NA,NA,NA,NA,NA,NA,NA,NA,fixation,NA,NA,NA,NA,NA,NA,sub27
d3-animate-choice,64,362640,0.0-61.0-0.1,FALSE,TRUE,TRUE,TRUE,"""event"",""trial"",""time""
""fullscreenenter"",""5"",""16214""
","
","
","""event"",""trial"",""time""
""fullscreenenter"",""5"",""16214""
","
",571.8699999852106,NA,49,NA,NA,3000,1,NA,NA,images/earth.jpg,images/tutrocket1,images/tutrocket2,null,images/tutrocket2,NA,1,practice,null,1,NA,NA,NA,sub27
d3-animate-choice,65,365702,0.0-61.0-1.1,FALSE,TRUE,TRUE,TRUE,"""event"",""trial"",""time""
""fullscreenenter"",""5"",""16214""
","
","
","""event"",""trial"",""time""
""fullscreenenter"",""5"",""16214""
","
",1053.8699999451637,NA,48,NA,NA,3000,1,NA,NA,images/tutgreenplanet.jpg,images/tutalien2,images/tutalien1,images/tutrocket2,images/tutalien2,images/nothing.png,2,practice,false,2,rare,0,2020-06-16T16:47:35Z,sub27
two-step-fixation,66,366706,0.0-61.0-2.1,FALSE,TRUE,TRUE,TRUE,"""event"",""trial"",""time""
""fullscreenenter"",""5"",""16214""
","
","
","""event"",""trial"",""time""
""fullscreenenter"",""5"",""16214""
","
",NA,images/earth.jpg,NA,NA,NA,NA,NA,NA,NA,NA,NA,NA,NA,NA,NA,fixation,NA,NA,NA,NA,NA,NA,sub27
d3-animate-choice,67,369122,0.0-61.0-0.2,FALSE,TRUE,TRUE,TRUE,"""event"",""trial"",""time""
""fullscreenenter"",""5"",""16214""
","
","
","""event"",""trial"",""time""
""fullscreenenter"",""5"",""16214""
","
",411.9250000221655,NA,49,NA,NA,3000,1,NA,NA,images/earth.jpg,images/tutrocket1,images/tutrocket2,null,images/tutrocket2,NA,1,practice,null,1,NA,NA,NA,sub27
d3-animate-choice,68,371787,0.0-61.0-1.2,FALSE,TRUE,TRUE,TRUE,"""event"",""trial"",""time""
""fullscreenenter"",""5"",""16214""
","
","
","""event"",""trial"",""time""
""fullscreenenter"",""5"",""16214""
","
",661.2299999687821,NA,49,NA,NA,3000,1,NA,NA,images/tutyellowplanet.jpg,images/tutalien4,images/tutalien3,images/tutrocket2,images/tutalien3,images/nothing.png,2,practice,true,1,common,0,2020-06-16T16:47:41Z,sub27
two-step-fixation,69,372793,0.0-61.0-2.2,FALSE,TRUE,TRUE,TRUE,"""event"",""trial"",""time""
""fullscreenenter"",""5"",""16214""
","
","
","""event"",""trial"",""time""
""fullscreenenter"",""5"",""16214""
","
",NA,images/earth.jpg,NA,NA,NA,NA,NA,NA,NA,NA,NA,NA,NA,NA,NA,fixation,NA,NA,NA,NA,NA,NA,sub27
d3-animate-choice,70,375275,0.0-61.0-0.3,FALSE,TRUE,TRUE,TRUE,"""event"",""trial"",""time""
""fullscreenenter"",""5"",""16214""
","
","
","""event"",""trial"",""time""
""fullscreenenter"",""5"",""16214""
","
",478.33499999251217,NA,49,NA,NA,3000,1,NA,NA,images/earth.jpg,images/tutrocket1,images/tutrocket2,null,images/tutrocket2,NA,1,practice,null,1,NA,NA,NA,sub27
d3-animate-choice,71,377805,0.0-61.0-1.3,FALSE,TRUE,TRUE,TRUE,"""event"",""trial"",""time""
""fullscreenenter"",""5"",""16214""
","
","
","""event"",""trial"",""time""
""fullscreenenter"",""5"",""16214""
","
",525.2399999881163,NA,48,NA,NA,3000,1,NA,NA,images/tutyellowplanet.jpg,images/tutalien4,images/tutalien3,images/tutrocket2,images/tutalien4,images/t.png,2,practice,true,2,common,1,2020-06-16T16:47:47Z,sub27
two-step-fixation,72,378808,0.0-61.0-2.3,FALSE,TRUE,TRUE,TRUE,"""event"",""trial"",""time""
""fullscreenenter"",""5"",""16214""
","
","
","""event"",""trial"",""time""
""fullscreenenter"",""5"",""16214""
","
",NA,images/earth.jpg,NA,NA,NA,NA,NA,NA,NA,NA,NA,NA,NA,NA,NA,fixation,NA,NA,NA,NA,NA,NA,sub27
d3-animate-choice,73,381284,0.0-61.0-0.4,FALSE,TRUE,TRUE,TRUE,"""event"",""trial"",""time""
""fullscreenenter"",""5"",""16214""
","
","
","""event"",""trial"",""time""
""fullscreenenter"",""5"",""16214""
","
",470.2599999727681,NA,49,NA,NA,3000,1,NA,NA,images/earth.jpg,images/tutrocket1,images/tutrocket2,null,images/tutrocket2,NA,1,practice,null,1,NA,NA,NA,sub27
d3-animate-choice,74,383882,0.0-61.0-1.4,FALSE,TRUE,TRUE,TRUE,"""event"",""trial"",""time""
""fullscreenenter"",""5"",""16214""
","
","
","""event"",""trial"",""time""
""fullscreenenter"",""5"",""16214""
","
",591.0050000529736,NA,48,NA,NA,3000,1,NA,NA,images/tutgreenplanet.jpg,images/tutalien2,images/tutalien1,images/tutrocket2,images/tutalien2,images/nothing.png,2,practice,false,2,rare,0,2020-06-16T16:47:53Z,sub27
two-step-fixation,75,384888,0.0-61.0-2.4,FALSE,TRUE,TRUE,TRUE,"""event"",""trial"",""time""
""fullscreenenter"",""5"",""16214""
","
","
","""event"",""trial"",""time""
""fullscreenenter"",""5"",""16214""
","
",NA,images/earth.jpg,NA,NA,NA,NA,NA,NA,NA,NA,NA,NA,NA,NA,NA,fixation,NA,NA,NA,NA,NA,NA,sub27
d3-animate-choice,76,387221,0.0-61.0-0.5,FALSE,TRUE,TRUE,TRUE,"""event"",""trial"",""time""
""fullscreenenter"",""5"",""16214""
","
","
","""event"",""trial"",""time""
""fullscreenenter"",""5"",""16214""
","
",327.73499994073063,NA,49,NA,NA,3000,1,NA,NA,images/earth.jpg,images/tutrocket1,images/tutrocket2,null,images/tutrocket2,NA,1,practice,null,1,NA,NA,NA,sub27
d3-animate-choice,77,389766,0.0-61.0-1.5,FALSE,TRUE,TRUE,TRUE,"""event"",""trial"",""time""
""fullscreenenter"",""5"",""16214""
","
","
","""event"",""trial"",""time""
""fullscreenenter"",""5"",""16214""
","
",538.3000000147149,NA,49,NA,NA,3000,1,NA,NA,images/tutyellowplanet.jpg,images/tutalien4,images/tutalien3,images/tutrocket2,images/tutalien3,images/nothing.png,2,practice,true,1,common,0,2020-06-16T16:47:59Z,sub27
two-step-fixation,78,390770,0.0-61.0-2.5,FALSE,TRUE,TRUE,TRUE,"""event"",""trial"",""time""
""fullscreenenter"",""5"",""16214""
","
","
","""event"",""trial"",""time""
""fullscreenenter"",""5"",""16214""
","
",NA,images/earth.jpg,NA,NA,NA,NA,NA,NA,NA,NA,NA,NA,NA,NA,NA,fixation,NA,NA,NA,NA,NA,NA,sub27
d3-animate-choice,79,393820,0.0-61.0-0.6,FALSE,TRUE,TRUE,TRUE,"""event"",""trial"",""time""
""fullscreenenter"",""5"",""16214""
","
","
","""event"",""trial"",""time""
""fullscreenenter"",""5"",""16214""
","
",1043.1350000435486,NA,48,NA,NA,3000,1,NA,NA,images/earth.jpg,images/tutrocket1,images/tutrocket2,null,images/tutrocket1,NA,1,practice,null,2,NA,NA,NA,sub27
d3-animate-choice,80,396287,0.0-61.0-1.6,FALSE,TRUE,TRUE,TRUE,"""event"",""trial"",""time""
""fullscreenenter"",""5"",""16214""
","
","
","""event"",""trial"",""time""
""fullscreenenter"",""5"",""16214""
","
",460.00500000081956,NA,49,NA,NA,3000,1,NA,NA,images/tutgreenplanet.jpg,images/tutalien2,images/tutalien1,images/tutrocket1,images/tutalien1,images/nothing.png,2,practice,true,1,common,0,2020-06-16T16:48:05Z,sub27
two-step-fixation,81,397293,0.0-61.0-2.6,FALSE,TRUE,TRUE,TRUE,"""event"",""trial"",""time""
""fullscreenenter"",""5"",""16214""
","
","
","""event"",""trial"",""time""
""fullscreenenter"",""5"",""16214""
","
",NA,images/earth.jpg,NA,NA,NA,NA,NA,NA,NA,NA,NA,NA,NA,NA,NA,fixation,NA,NA,NA,NA,NA,NA,sub27
d3-animate-choice,82,399861,0.0-61.0-0.7,FALSE,TRUE,TRUE,TRUE,"""event"",""trial"",""time""
""fullscreenenter"",""5"",""16214""
","
","
","""event"",""trial"",""time""
""fullscreenenter"",""5"",""16214""
","
",563.7999998871237,NA,48,NA,NA,3000,1,NA,NA,images/earth.jpg,images/tutrocket1,images/tutrocket2,null,images/tutrocket1,NA,1,practice,null,2,NA,NA,NA,sub27
d3-animate-choice,83,402302,0.0-61.0-1.7,FALSE,TRUE,TRUE,TRUE,"""event"",""trial"",""time""
""fullscreenenter"",""5"",""16214""
","
","
","""event"",""trial"",""time""
""fullscreenenter"",""5"",""16214""
","
",432.9450000077486,NA,48,NA,NA,3000,1,NA,NA,images/tutgreenplanet.jpg,images/tutalien2,images/tutalien1,images/tutrocket1,images/tutalien2,images/nothing.png,2,practice,true,2,common,0,2020-06-16T16:48:11Z,sub27
two-step-fixation,84,403307,0.0-61.0-2.7,FALSE,TRUE,TRUE,TRUE,"""event"",""trial"",""time""
""fullscreenenter"",""5"",""16214""
","
","
","""event"",""trial"",""time""
""fullscreenenter"",""5"",""16214""
","
",NA,images/earth.jpg,NA,NA,NA,NA,NA,NA,NA,NA,NA,NA,NA,NA,NA,fixation,NA,NA,NA,NA,NA,NA,sub27
d3-animate-choice,85,405780,0.0-61.0-0.8,FALSE,TRUE,TRUE,TRUE,"""event"",""trial"",""time""
""fullscreenenter"",""5"",""16214""
","
","
","""event"",""trial"",""time""
""fullscreenenter"",""5"",""16214""
","
",469.41500005777925,NA,49,NA,NA,3000,1,NA,NA,images/earth.jpg,images/tutrocket1,images/tutrocket2,null,images/tutrocket2,NA,1,practice,null,1,NA,NA,NA,sub27
d3-animate-choice,86,408172,0.0-61.0-1.8,FALSE,TRUE,TRUE,TRUE,"""event"",""trial"",""time""
""fullscreenenter"",""5"",""16214""
","
","
","""event"",""trial"",""time""
""fullscreenenter"",""5"",""16214""
","
",387.37000001128763,NA,49,NA,NA,3000,1,NA,NA,images/tutgreenplanet.jpg,images/tutalien2,images/tutalien1,images/tutrocket2,images/tutalien1,images/t.png,2,practice,false,1,rare,1,2020-06-16T16:48:17Z,sub27
two-step-fixation,87,409179,0.0-61.0-2.8,FALSE,TRUE,TRUE,TRUE,"""event"",""trial"",""time""
""fullscreenenter"",""5"",""16214""
","
","
","""event"",""trial"",""time""
""fullscreenenter"",""5"",""16214""
","
",NA,images/earth.jpg,NA,NA,NA,NA,NA,NA,NA,NA,NA,NA,NA,NA,NA,fixation,NA,NA,NA,NA,NA,NA,sub27
d3-animate-choice,88,411496,0.0-61.0-0.9,FALSE,TRUE,TRUE,TRUE,"""event"",""trial"",""time""
""fullscreenenter"",""5"",""16214""
","
","
","""event"",""trial"",""time""
""fullscreenenter"",""5"",""16214""
","
",310.2450000587851,NA,49,NA,NA,3000,1,NA,NA,images/earth.jpg,images/tutrocket1,images/tutrocket2,null,images/tutrocket2,NA,1,practice,null,1,NA,NA,NA,sub27
d3-animate-choice,89,414028,0.0-61.0-1.9,FALSE,TRUE,TRUE,TRUE,"""event"",""trial"",""time""
""fullscreenenter"",""5"",""16214""
","
","
","""event"",""trial"",""time""
""fullscreenenter"",""5"",""16214""
","
",524.9649999896064,NA,49,NA,NA,3000,1,NA,NA,images/tutyellowplanet.jpg,images/tutalien4,images/tutalien3,images/tutrocket2,images/tutalien3,images/nothing.png,2,practice,true,1,common,0,2020-06-16T16:48:23Z,sub27
two-step-fixation,90,415032,0.0-61.0-2.9,FALSE,TRUE,TRUE,TRUE,"""event"",""trial"",""time""
""fullscreenenter"",""5"",""16214""
","
","
","""event"",""trial"",""time""
""fullscreenenter"",""5"",""16214""
","
",NA,images/earth.jpg,NA,NA,NA,NA,NA,NA,NA,NA,NA,NA,NA,NA,NA,fixation,NA,NA,NA,NA,NA,NA,sub27
d3-animate-choice,91,417611,0.0-61.0-0.10,FALSE,TRUE,TRUE,TRUE,"""event"",""trial"",""time""
""fullscreenenter"",""5"",""16214""
","
","
","""event"",""trial"",""time""
""fullscreenenter"",""5"",""16214""
","
",569.5299999788404,NA,49,NA,NA,3000,1,NA,NA,images/earth.jpg,images/tutrocket1,images/tutrocket2,null,images/tutrocket2,NA,1,practice,null,1,NA,NA,NA,sub27
d3-animate-choice,92,420219,0.0-61.0-1.10,FALSE,TRUE,TRUE,TRUE,"""event"",""trial"",""time""
""fullscreenenter"",""5"",""16214""
","
","
","""event"",""trial"",""time""
""fullscreenenter"",""5"",""16214""
","
",599.7449998976663,NA,48,NA,NA,3000,1,NA,NA,images/tutyellowplanet.jpg,images/tutalien4,images/tutalien3,images/tutrocket2,images/tutalien4,images/t.png,2,practice,true,2,common,1,2020-06-16T16:48:29Z,sub27
two-step-fixation,93,421225,0.0-61.0-2.10,FALSE,TRUE,TRUE,TRUE,"""event"",""trial"",""time""
""fullscreenenter"",""5"",""16214""
","
","
","""event"",""trial"",""time""
""fullscreenenter"",""5"",""16214""
","
",NA,images/earth.jpg,NA,NA,NA,NA,NA,NA,NA,NA,NA,NA,NA,NA,NA,fixation,NA,NA,NA,NA,NA,NA,sub27
d3-animate-choice,94,423705,0.0-61.0-0.11,FALSE,TRUE,TRUE,TRUE,"""event"",""trial"",""time""
""fullscreenenter"",""5"",""16214""
","
","
","""event"",""trial"",""time""
""fullscreenenter"",""5"",""16214""
","
",471.20000002905726,NA,49,NA,NA,3000,1,NA,NA,images/earth.jpg,images/tutrocket1,images/tutrocket2,null,images/tutrocket2,NA,1,practice,null,1,NA,NA,NA,sub27
d3-animate-choice,95,426201,0.0-61.0-1.11,FALSE,TRUE,TRUE,TRUE,"""event"",""trial"",""time""
""fullscreenenter"",""5"",""16214""
","
","
","""event"",""trial"",""time""
""fullscreenenter"",""5"",""16214""
","
",491.2649999605492,NA,49,NA,NA,3000,1,NA,NA,images/tutyellowplanet.jpg,images/tutalien4,images/tutalien3,images/tutrocket2,images/tutalien3,images/t.png,2,practice,true,1,common,1,2020-06-16T16:48:35Z,sub27
two-step-fixation,96,427206,0.0-61.0-2.11,FALSE,TRUE,TRUE,TRUE,"""event"",""trial"",""time""
""fullscreenenter"",""5"",""16214""
","
","
","""event"",""trial"",""time""
""fullscreenenter"",""5"",""16214""
","
",NA,images/earth.jpg,NA,NA,NA,NA,NA,NA,NA,NA,NA,NA,NA,NA,NA,fixation,NA,NA,NA,NA,NA,NA,sub27
d3-animate-choice,97,429612,0.0-61.0-0.12,FALSE,TRUE,TRUE,TRUE,"""event"",""trial"",""time""
""fullscreenenter"",""5"",""16214""
","
","
","""event"",""trial"",""time""
""fullscreenenter"",""5"",""16214""
","
",398.9499999443069,NA,49,NA,NA,3000,1,NA,NA,images/earth.jpg,images/tutrocket1,images/tutrocket2,null,images/tutrocket2,NA,1,practice,null,1,NA,NA,NA,sub27
d3-animate-choice,98,432116,0.0-61.0-1.12,FALSE,TRUE,TRUE,TRUE,"""event"",""trial"",""time""
""fullscreenenter"",""5"",""16214""
","
","
","""event"",""trial"",""time""
""fullscreenenter"",""5"",""16214""
","
",494.040000019595,NA,48,NA,NA,3000,1,NA,NA,images/tutyellowplanet.jpg,images/tutalien4,images/tutalien3,images/tutrocket2,images/tutalien4,images/t.png,2,practice,true,2,common,1,2020-06-16T16:48:41Z,sub27
two-step-fixation,99,433120,0.0-61.0-2.12,FALSE,TRUE,TRUE,TRUE,"""event"",""trial"",""time""
""fullscreenenter"",""5"",""16214""
","
","
","""event"",""trial"",""time""
""fullscreenenter"",""5"",""16214""
","
",NA,images/earth.jpg,NA,NA,NA,NA,NA,NA,NA,NA,NA,NA,NA,NA,NA,fixation,NA,NA,NA,NA,NA,NA,sub27
d3-animate-choice,100,435507,0.0-61.0-0.13,FALSE,TRUE,TRUE,TRUE,"""event"",""trial"",""time""
""fullscreenenter"",""5"",""16214""
","
","
","""event"",""trial"",""time""
""fullscreenenter"",""5"",""16214""
","
",381.86999992467463,NA,49,NA,NA,3000,1,NA,NA,images/earth.jpg,images/tutrocket1,images/tutrocket2,null,images/tutrocket2,NA,1,practice,null,1,NA,NA,NA,sub27
d3-animate-choice,101,438053,0.0-61.0-1.13,FALSE,TRUE,TRUE,TRUE,"""event"",""trial"",""time""
""fullscreenenter"",""5"",""16214""
","
","
","""event"",""trial"",""time""
""fullscreenenter"",""5"",""16214""
","
",541.3549999939278,NA,49,NA,NA,3000,1,NA,NA,images/tutyellowplanet.jpg,images/tutalien4,images/tutalien3,images/tutrocket2,images/tutalien3,images/nothing.png,2,practice,true,1,common,0,2020-06-16T16:48:47Z,sub27
two-step-fixation,102,439057,0.0-61.0-2.13,FALSE,TRUE,TRUE,TRUE,"""event"",""trial"",""time""
""fullscreenenter"",""5"",""16214""
","
","
","""event"",""trial"",""time""
""fullscreenenter"",""5"",""16214""
","
",NA,images/earth.jpg,NA,NA,NA,NA,NA,NA,NA,NA,NA,NA,NA,NA,NA,fixation,NA,NA,NA,NA,NA,NA,sub27
d3-animate-choice,103,441449,0.0-61.0-0.14,FALSE,TRUE,TRUE,TRUE,"""event"",""trial"",""time""
""fullscreenenter"",""5"",""16214""
","
","
","""event"",""trial"",""time""
""fullscreenenter"",""5"",""16214""
","
",383.26000003144145,NA,49,NA,NA,3000,1,NA,NA,images/earth.jpg,images/tutrocket1,images/tutrocket2,null,images/tutrocket2,NA,1,practice,null,1,NA,NA,NA,sub27
d3-animate-choice,104,443943,0.0-61.0-1.14,FALSE,TRUE,TRUE,TRUE,"""event"",""trial"",""time""
""fullscreenenter"",""5"",""16214""
","
","
","""event"",""trial"",""time""
""fullscreenenter"",""5"",""16214""
","
",486.92499997559935,NA,48,NA,NA,3000,1,NA,NA,images/tutyellowplanet.jpg,images/tutalien4,images/tutalien3,images/tutrocket2,images/tutalien4,images/t.png,2,practice,true,2,common,1,2020-06-16T16:48:53Z,sub27
two-step-fixation,105,444949,0.0-61.0-2.14,FALSE,TRUE,TRUE,TRUE,"""event"",""trial"",""time""
""fullscreenenter"",""5"",""16214""
","
","
","""event"",""trial"",""time""
""fullscreenenter"",""5"",""16214""
","
",NA,images/earth.jpg,NA,NA,NA,NA,NA,NA,NA,NA,NA,NA,NA,NA,NA,fixation,NA,NA,NA,NA,NA,NA,sub27
d3-animate-choice,106,447119,0.0-61.0-0.15,FALSE,TRUE,TRUE,TRUE,"""event"",""trial"",""time""
""fullscreenenter"",""5"",""16214""
","
","
","""event"",""trial"",""time""
""fullscreenenter"",""5"",""16214""
","
",160.3549999417737,NA,49,NA,NA,3000,1,NA,NA,images/earth.jpg,images/tutrocket1,images/tutrocket2,null,images/tutrocket2,NA,1,practice,null,1,NA,NA,NA,sub27
d3-animate-choice,107,449628,0.0-61.0-1.15,FALSE,TRUE,TRUE,TRUE,"""event"",""trial"",""time""
""fullscreenenter"",""5"",""16214""
","
","
","""event"",""trial"",""time""
""fullscreenenter"",""5"",""16214""
","
",505.03000000026077,NA,48,NA,NA,3000,1,NA,NA,images/tutyellowplanet.jpg,images/tutalien4,images/tutalien3,images/tutrocket2,images/tutalien4,images/nothing.png,2,practice,true,2,common,0,2020-06-16T16:48:59Z,sub27
two-step-fixation,108,450633,0.0-61.0-2.15,FALSE,TRUE,TRUE,TRUE,"""event"",""trial"",""time""
""fullscreenenter"",""5"",""16214""
","
","
","""event"",""trial"",""time""
""fullscreenenter"",""5"",""16214""
","
",NA,images/earth.jpg,NA,NA,NA,NA,NA,NA,NA,NA,NA,NA,NA,NA,NA,fixation,NA,NA,NA,NA,NA,NA,sub27
d3-animate-choice,109,452660,0.0-61.0-0.16,FALSE,TRUE,TRUE,TRUE,"""event"",""trial"",""time""
""fullscreenenter"",""5"",""16214""
","
","
","""event"",""trial"",""time""
""fullscreenenter"",""5"",""16214""
","
",20.899999886751175,NA,49,NA,NA,3000,1,NA,NA,images/earth.jpg,images/tutrocket1,images/tutrocket2,null,images/tutrocket2,NA,1,practice,null,1,NA,NA,NA,sub27
d3-animate-choice,110,455095,0.0-61.0-1.16,FALSE,TRUE,TRUE,TRUE,"""event"",""trial"",""time""
""fullscreenenter"",""5"",""16214""
","
","
","""event"",""trial"",""time""
""fullscreenenter"",""5"",""16214""
","
",428.85499994736165,NA,49,NA,NA,3000,1,NA,NA,images/tutyellowplanet.jpg,images/tutalien4,images/tutalien3,images/tutrocket2,images/tutalien3,images/t.png,2,practice,true,1,common,1,2020-06-16T16:49:04Z,sub27
two-step-fixation,111,456101,0.0-61.0-2.16,FALSE,TRUE,TRUE,TRUE,"""event"",""trial"",""time""
""fullscreenenter"",""5"",""16214""
","
","
","""event"",""trial"",""time""
""fullscreenenter"",""5"",""16214""
","
",NA,images/earth.jpg,NA,NA,NA,NA,NA,NA,NA,NA,NA,NA,NA,NA,NA,fixation,NA,NA,NA,NA,NA,NA,sub27
d3-animate-choice,112,458823,0.0-61.0-0.17,FALSE,TRUE,TRUE,TRUE,"""event"",""trial"",""time""
""fullscreenenter"",""5"",""16214""
","
","
","""event"",""trial"",""time""
""fullscreenenter"",""5"",""16214""
","
",718.3000000659376,NA,49,NA,NA,3000,1,NA,NA,images/earth.jpg,images/tutrocket1,images/tutrocket2,null,images/tutrocket2,NA,1,practice,null,1,NA,NA,NA,sub27
d3-animate-choice,113,461249,0.0-61.0-1.17,FALSE,TRUE,TRUE,TRUE,"""event"",""trial"",""time""
""fullscreenenter"",""5"",""16214""
","
","
","""event"",""trial"",""time""
""fullscreenenter"",""5"",""16214""
","
",419.664999935776,NA,49,NA,NA,3000,1,NA,NA,images/tutgreenplanet.jpg,images/tutalien2,images/tutalien1,images/tutrocket2,images/tutalien1,images/t.png,2,practice,false,1,rare,1,2020-06-16T16:49:10Z,sub27
two-step-fixation,114,462252,0.0-61.0-2.17,FALSE,TRUE,TRUE,TRUE,"""event"",""trial"",""time""
""fullscreenenter"",""5"",""16214""
","
","
","""event"",""trial"",""time""
""fullscreenenter"",""5"",""16214""
","
",NA,images/earth.jpg,NA,NA,NA,NA,NA,NA,NA,NA,NA,NA,NA,NA,NA,fixation,NA,NA,NA,NA,NA,NA,sub27
d3-animate-choice,115,464725,0.0-61.0-0.18,FALSE,TRUE,TRUE,TRUE,"""event"",""trial"",""time""
""fullscreenenter"",""5"",""16214""
","
","
","""event"",""trial"",""time""
""fullscreenenter"",""5"",""16214""
","
",463.2349999155849,NA,49,NA,NA,3000,1,NA,NA,images/earth.jpg,images/tutrocket1,images/tutrocket2,null,images/tutrocket2,NA,1,practice,null,1,NA,NA,NA,sub27
d3-animate-choice,116,467380,0.0-61.0-1.18,FALSE,TRUE,TRUE,TRUE,"""event"",""trial"",""time""
""fullscreenenter"",""5"",""16214""
","
","
","""event"",""trial"",""time""
""fullscreenenter"",""5"",""16214""
","
",648.7249999772757,NA,49,NA,NA,3000,1,NA,NA,images/tutyellowplanet.jpg,images/tutalien4,images/tutalien3,images/tutrocket2,images/tutalien3,images/t.png,2,practice,true,1,common,1,2020-06-16T16:49:16Z,sub27
two-step-fixation,117,468388,0.0-61.0-2.18,FALSE,TRUE,TRUE,TRUE,"""event"",""trial"",""time""
""fullscreenenter"",""5"",""16214""
","
","
","""event"",""trial"",""time""
""fullscreenenter"",""5"",""16214""
","
",NA,images/earth.jpg,NA,NA,NA,NA,NA,NA,NA,NA,NA,NA,NA,NA,NA,fixation,NA,NA,NA,NA,NA,NA,sub27
d3-animate-choice,118,470802,0.0-61.0-0.19,FALSE,TRUE,TRUE,TRUE,"""event"",""trial"",""time""
""fullscreenenter"",""5"",""16214""
","
","
","""event"",""trial"",""time""
""fullscreenenter"",""5"",""16214""
","
",406.03499999269843,NA,49,NA,NA,3000,1,NA,NA,images/earth.jpg,images/tutrocket1,images/tutrocket2,null,images/tutrocket2,NA,1,practice,null,1,NA,NA,NA,sub27
d3-animate-choice,119,473228,0.0-61.0-1.19,FALSE,TRUE,TRUE,TRUE,"""event"",""trial"",""time""
""fullscreenenter"",""5"",""16214""
","
","
","""event"",""trial"",""time""
""fullscreenenter"",""5"",""16214""
","
",418.09499997179955,NA,49,NA,NA,3000,1,NA,NA,images/tutyellowplanet.jpg,images/tutalien4,images/tutalien3,images/tutrocket2,images/tutalien3,images/nothing.png,2,practice,true,1,common,0,2020-06-16T16:49:22Z,sub27
two-step-fixation,120,474233,0.0-61.0-2.19,FALSE,TRUE,TRUE,TRUE,"""event"",""trial"",""time""
""fullscreenenter"",""5"",""16214""
","
","
","""event"",""trial"",""time""
""fullscreenenter"",""5"",""16214""
","
",NA,images/earth.jpg,NA,NA,NA,NA,NA,NA,NA,NA,NA,NA,NA,NA,NA,fixation,NA,NA,NA,NA,NA,NA,sub27
d3-instructions,121,478550,0.0-62.0,FALSE,TRUE,TRUE,TRUE,"""event"",""trial"",""time""
""fullscreenenter"",""5"",""16214""
","
","
","""event"",""trial"",""time""
""fullscreenenter"",""5"",""16214""
","
",NA,NA,NA,NA,NA,NA,NA,NA,NA,NA,NA,NA,NA,NA,NA,NA,NA,NA,NA,NA,NA,NA,sub27
audio-keyboard-response,122,482689,0.0-63.0,FALSE,TRUE,TRUE,TRUE,"""event"",""trial"",""time""
""fullscreenenter"",""5"",""16214""
","
","
","""event"",""trial"",""time""
""fullscreenenter"",""5"",""16214""
","
",4139,audio/instructions/treasure_feedback.wav,32,NA,NA,NA,NA,NA,NA,NA,NA,NA,NA,NA,NA,NA,NA,NA,NA,NA,NA,NA,sub27
d3-instructions,123,500168,0.0-64.0,FALSE,TRUE,TRUE,TRUE,"""event"",""trial"",""time""
""fullscreenenter"",""5"",""16214""
","
","
","""event"",""trial"",""time""
""fullscreenenter"",""5"",""16214""
","
",NA,NA,NA,NA,NA,NA,NA,NA,NA,NA,NA,NA,NA,NA,NA,NA,NA,NA,NA,NA,NA,NA,sub27
d3-instructions,124,515084,0.0-65.0,FALSE,TRUE,TRUE,TRUE,"""event"",""trial"",""time""
""fullscreenenter"",""5"",""16214""
","
","
","""event"",""trial"",""time""
""fullscreenenter"",""5"",""16214""
","
",NA,NA,NA,NA,NA,NA,NA,NA,NA,NA,NA,NA,NA,NA,NA,NA,NA,NA,NA,NA,NA,NA,sub27
d3-instructions,125,539999,0.0-66.0,FALSE,TRUE,TRUE,TRUE,"""event"",""trial"",""time""
""fullscreenenter"",""5"",""16214""
","
","
","""event"",""trial"",""time""
""fullscreenenter"",""5"",""16214""
","
",NA,NA,NA,NA,NA,NA,NA,NA,NA,NA,NA,NA,NA,NA,NA,NA,NA,NA,NA,NA,NA,NA,sub27
d3-instructions,126,557278,0.0-67.0,FALSE,TRUE,TRUE,TRUE,"""event"",""trial"",""time""
""fullscreenenter"",""5"",""16214""
","
","
","""event"",""trial"",""time""
""fullscreenenter"",""5"",""16214""
","
",NA,NA,NA,NA,NA,NA,NA,NA,NA,NA,NA,NA,NA,NA,NA,NA,NA,NA,NA,NA,NA,NA,sub27
d3-instructions,127,564021,0.0-68.0,FALSE,TRUE,TRUE,TRUE,"""event"",""trial"",""time""
""fullscreenenter"",""5"",""16214""
","
","
","""event"",""trial"",""time""
""fullscreenenter"",""5"",""16214""
","
",NA,NA,NA,NA,NA,NA,NA,NA,NA,NA,NA,NA,NA,NA,NA,NA,NA,NA,NA,NA,NA,NA,sub27
instructions-quiz,128,568998,0.0-69.0,FALSE,TRUE,TRUE,TRUE,"""event"",""trial"",""time""
""fullscreenenter"",""5"",""16214""
","
","
","""event"",""trial"",""time""
""fullscreenenter"",""5"",""16214""
","
",4975.07000004407,audio/quiz/Q1_Prompt.wav,NA,1,NA,NA,NA,NA,NA,NA,NA,NA,NA,NA,NA,NA,NA,NA,NA,NA,NA,NA,sub27
audio-keyboard-response,129,573588,0.0-70.0,FALSE,TRUE,TRUE,TRUE,"""event"",""trial"",""time""
""fullscreenenter"",""5"",""16214""
","
","
","""event"",""trial"",""time""
""fullscreenenter"",""5"",""16214""
","
",4586,audio/quiz/Q1_Correct.wav,32,NA,NA,NA,NA,NA,NA,NA,NA,NA,NA,NA,NA,NA,NA,NA,NA,NA,NA,NA,sub27
instructions-quiz,130,579310,0.0-71.0,FALSE,TRUE,TRUE,TRUE,"""event"",""trial"",""time""
""fullscreenenter"",""5"",""16214""
","
","
","""event"",""trial"",""time""
""fullscreenenter"",""5"",""16214""
","
",5720.63499991782,audio/quiz/Q2_Prompt.wav,NA,0,NA,NA,NA,NA,NA,NA,NA,NA,NA,NA,NA,NA,NA,NA,NA,NA,NA,NA,sub27
audio-keyboard-response,131,583726,0.0-72.0,FALSE,TRUE,TRUE,TRUE,"""event"",""trial"",""time""
""fullscreenenter"",""5"",""16214""
","
","
","""event"",""trial"",""time""
""fullscreenenter"",""5"",""16214""
","
",4412,audio/quiz/Q2_Correct.wav,32,NA,NA,NA,NA,NA,NA,NA,NA,NA,NA,NA,NA,NA,NA,NA,NA,NA,NA,NA,sub27
instructions-quiz,132,587485,0.0-73.0,FALSE,TRUE,TRUE,TRUE,"""event"",""trial"",""time""
""fullscreenenter"",""5"",""16214""
","
","
","""event"",""trial"",""time""
""fullscreenenter"",""5"",""16214""
","
",3758.075000019744,audio/quiz/Q3_Prompt.wav,NA,1,NA,NA,NA,NA,NA,NA,NA,NA,NA,NA,NA,NA,NA,NA,NA,NA,NA,NA,sub27
audio-keyboard-response,133,588385,0.0-74.0,FALSE,TRUE,TRUE,TRUE,"""event"",""trial"",""time""
""fullscreenenter"",""5"",""16214""
","
","
","""event"",""trial"",""time""
""fullscreenenter"",""5"",""16214""
","
",900,audio/quiz/Q3_Correct.wav,32,NA,NA,NA,NA,NA,NA,NA,NA,NA,NA,NA,NA,NA,NA,NA,NA,NA,NA,NA,sub27
d3-instructions,134,602455,0.0-75.0,FALSE,TRUE,TRUE,TRUE,"""event"",""trial"",""time""
""fullscreenenter"",""5"",""16214""
","
","
","""event"",""trial"",""time""
""fullscreenenter"",""5"",""16214""
","
",NA,NA,NA,NA,NA,NA,NA,NA,NA,NA,NA,NA,NA,NA,NA,NA,NA,NA,NA,NA,NA,NA,sub27
d3-animate-choice,135,605605,0.0-76.0-0.0,FALSE,TRUE,TRUE,TRUE,"""event"",""trial"",""time""
""fullscreenenter"",""5"",""16214""
","
","
","""event"",""trial"",""time""
""fullscreenenter"",""5"",""16214""
","
",1145.31499997247,NA,49,NA,NA,3000,1,NA,NA,images/earth.jpg,images/rocket1,images/rocket2,null,images/rocket2,NA,1,real,null,1,NA,NA,NA,sub27
d3-animate-choice,136,608299,0.0-76.0-1.0,FALSE,TRUE,TRUE,TRUE,"""event"",""trial"",""time""
""fullscreenenter"",""5"",""16214""
","
","
","""event"",""trial"",""time""
""fullscreenenter"",""5"",""16214""
","
",689.9950000224635,NA,49,NA,NA,3000,1,NA,NA,images/redplanet1.jpg,images/alien2,images/alien1,images/rocket2,images/alien1,images/nothing.png,2,real,false,1,rare,0,2020-06-16T16:51:37Z,sub27
two-step-fixation,137,609304,0.0-76.0-2.0,FALSE,TRUE,TRUE,TRUE,"""event"",""trial"",""time""
""fullscreenenter"",""5"",""16214""
","
","
","""event"",""trial"",""time""
""fullscreenenter"",""5"",""16214""
","
",NA,images/earth.jpg,NA,NA,NA,NA,NA,NA,NA,NA,NA,NA,NA,NA,NA,fixation,NA,NA,NA,NA,NA,NA,sub27
d3-animate-choice,138,611759,0.0-76.0-0.1,FALSE,TRUE,TRUE,TRUE,"""event"",""trial"",""time""
""fullscreenenter"",""5"",""16214""
","
","
","""event"",""trial"",""time""
""fullscreenenter"",""5"",""16214""
","
",446.17000001017004,NA,49,NA,NA,3000,1,NA,NA,images/earth.jpg,images/rocket1,images/rocket2,null,images/rocket2,NA,1,real,null,1,NA,NA,NA,sub27
d3-animate-choice,139,614290,0.0-76.0-1.1,FALSE,TRUE,TRUE,TRUE,"""event"",""trial"",""time""
""fullscreenenter"",""5"",""16214""
","
","
","""event"",""trial"",""time""
""fullscreenenter"",""5"",""16214""
","
",515.3149999678135,NA,189,NA,NA,3000,1,527.3799999849871,48,images/purpleplanet.jpg,images/alien4,images/alien3,images/rocket2,images/alien4,images/t.png,2,real,true,NA,common,1,2020-06-16T16:51:43Z,sub27
two-step-fixation,140,615294,0.0-76.0-2.1,FALSE,TRUE,TRUE,TRUE,"""event"",""trial"",""time""
""fullscreenenter"",""5"",""16214""
","
","
","""event"",""trial"",""time""
""fullscreenenter"",""5"",""16214""
","
",NA,images/earth.jpg,NA,NA,NA,NA,NA,NA,NA,NA,NA,NA,NA,NA,NA,fixation,NA,NA,NA,NA,NA,NA,sub27
d3-animate-choice,141,617756,0.0-76.0-0.2,FALSE,TRUE,TRUE,TRUE,"""event"",""trial"",""time""
""fullscreenenter"",""5"",""16214""
","
","
","""event"",""trial"",""time""
""fullscreenenter"",""5"",""16214""
","
",456.0249999631196,NA,49,NA,NA,3000,1,NA,NA,images/earth.jpg,images/rocket1,images/rocket2,null,images/rocket2,NA,1,real,null,1,NA,NA,NA,sub27
d3-animate-choice,142,620211,0.0-76.0-1.2,FALSE,TRUE,TRUE,TRUE,"""event"",""trial"",""time""
""fullscreenenter"",""5"",""16214""
","
","
","""event"",""trial"",""time""
""fullscreenenter"",""5"",""16214""
","
",451.00999996066093,NA,48,NA,NA,3000,1,NA,NA,images/purpleplanet.jpg,images/alien4,images/alien3,images/rocket2,images/alien4,images/t.png,2,real,true,2,common,1,2020-06-16T16:51:49Z,sub27
two-step-fixation,143,621216,0.0-76.0-2.2,FALSE,TRUE,TRUE,TRUE,"""event"",""trial"",""time""
""fullscreenenter"",""5"",""16214""
","
","
","""event"",""trial"",""time""
""fullscreenenter"",""5"",""16214""
","
",NA,images/earth.jpg,NA,NA,NA,NA,NA,NA,NA,NA,NA,NA,NA,NA,NA,fixation,NA,NA,NA,NA,NA,NA,sub27
d3-animate-choice,144,623590,0.0-76.0-0.3,FALSE,TRUE,TRUE,TRUE,"""event"",""trial"",""time""
""fullscreenenter"",""5"",""16214""
","
","
","""event"",""trial"",""time""
""fullscreenenter"",""5"",""16214""
","
",371.4499999769032,NA,49,NA,NA,3000,1,NA,NA,images/earth.jpg,images/rocket1,images/rocket2,null,images/rocket2,NA,1,real,null,1,NA,NA,NA,sub27
d3-animate-choice,145,626062,0.0-76.0-1.3,FALSE,TRUE,TRUE,TRUE,"""event"",""trial"",""time""
""fullscreenenter"",""5"",""16214""
","
","
","""event"",""trial"",""time""
""fullscreenenter"",""5"",""16214""
","
",467.5500000594184,NA,48,NA,NA,3000,1,NA,NA,images/redplanet1.jpg,images/alien2,images/alien1,images/rocket2,images/alien2,images/nothing.png,2,real,false,2,rare,0,2020-06-16T16:51:55Z,sub27
two-step-fixation,146,627067,0.0-76.0-2.3,FALSE,TRUE,TRUE,TRUE,"""event"",""trial"",""time""
""fullscreenenter"",""5"",""16214""
","
","
","""event"",""trial"",""time""
""fullscreenenter"",""5"",""16214""
","
",NA,images/earth.jpg,NA,NA,NA,NA,NA,NA,NA,NA,NA,NA,NA,NA,NA,fixation,NA,NA,NA,NA,NA,NA,sub27
d3-animate-choice,147,629917,0.0-76.0-0.4,FALSE,TRUE,TRUE,TRUE,"""event"",""trial"",""time""
""fullscreenenter"",""5"",""16214""
","
","
","""event"",""trial"",""time""
""fullscreenenter"",""5"",""16214""
","
",842.6899999612942,NA,48,NA,NA,3000,1,NA,NA,images/earth.jpg,images/rocket1,images/rocket2,null,images/rocket1,NA,1,real,null,2,NA,NA,NA,sub27
d3-animate-choice,148,632323,0.0-76.0-1.4,FALSE,TRUE,TRUE,TRUE,"""event"",""trial"",""time""
""fullscreenenter"",""5"",""16214""
","
","
","""event"",""trial"",""time""
""fullscreenenter"",""5"",""16214""
","
",401.53999999165535,NA,49,NA,NA,3000,1,NA,NA,images/purpleplanet.jpg,images/alien4,images/alien3,images/rocket1,images/alien3,images/nothing.png,2,real,false,1,rare,0,2020-06-16T16:52:01Z,sub27
two-step-fixation,149,633329,0.0-76.0-2.4,FALSE,TRUE,TRUE,TRUE,"""event"",""trial"",""time""
""fullscreenenter"",""5"",""16214""
","
","
","""event"",""trial"",""time""
""fullscreenenter"",""5"",""16214""
","
",NA,images/earth.jpg,NA,NA,NA,NA,NA,NA,NA,NA,NA,NA,NA,NA,NA,fixation,NA,NA,NA,NA,NA,NA,sub27
d3-animate-choice,150,635769,0.0-76.0-0.5,FALSE,TRUE,TRUE,TRUE,"""event"",""trial"",""time""
""fullscreenenter"",""5"",""16214""
","
","
","""event"",""trial"",""time""
""fullscreenenter"",""5"",""16214""
","
",431.1799999559298,NA,48,NA,NA,3000,1,NA,NA,images/earth.jpg,images/rocket1,images/rocket2,null,images/rocket1,NA,1,real,null,2,NA,NA,NA,sub27
d3-animate-choice,151,638212,0.0-76.0-1.5,FALSE,TRUE,TRUE,TRUE,"""event"",""trial"",""time""
""fullscreenenter"",""5"",""16214""
","
","
","""event"",""trial"",""time""
""fullscreenenter"",""5"",""16214""
","
",435.8599999686703,NA,48,NA,NA,3000,1,NA,NA,images/redplanet1.jpg,images/alien2,images/alien1,images/rocket1,images/alien2,images/nothing.png,2,real,true,2,common,0,2020-06-16T16:52:07Z,sub27
two-step-fixation,152,639218,0.0-76.0-2.5,FALSE,TRUE,TRUE,TRUE,"""event"",""trial"",""time""
""fullscreenenter"",""5"",""16214""
","
","
","""event"",""trial"",""time""
""fullscreenenter"",""5"",""16214""
","
",NA,images/earth.jpg,NA,NA,NA,NA,NA,NA,NA,NA,NA,NA,NA,NA,NA,fixation,NA,NA,NA,NA,NA,NA,sub27
d3-animate-choice,153,641613,0.0-76.0-0.6,FALSE,TRUE,TRUE,TRUE,"""event"",""trial"",""time""
""fullscreenenter"",""5"",""16214""
","
","
","""event"",""trial"",""time""
""fullscreenenter"",""5"",""16214""
","
",388.4499999694526,NA,49,NA,NA,3000,1,NA,NA,images/earth.jpg,images/rocket1,images/rocket2,null,images/rocket2,NA,1,real,null,1,NA,NA,NA,sub27
d3-animate-choice,154,644008,0.0-76.0-1.6,FALSE,TRUE,TRUE,TRUE,"""event"",""trial"",""time""
""fullscreenenter"",""5"",""16214""
","
","
","""event"",""trial"",""time""
""fullscreenenter"",""5"",""16214""
","
",390.4999999795109,NA,48,NA,NA,3000,1,NA,NA,images/purpleplanet.jpg,images/alien4,images/alien3,images/rocket2,images/alien4,images/nothing.png,2,real,true,2,common,0,2020-06-16T16:52:13Z,sub27
two-step-fixation,155,645017,0.0-76.0-2.6,FALSE,TRUE,TRUE,TRUE,"""event"",""trial"",""time""
""fullscreenenter"",""5"",""16214""
","
","
","""event"",""trial"",""time""
""fullscreenenter"",""5"",""16214""
","
",NA,images/earth.jpg,NA,NA,NA,NA,NA,NA,NA,NA,NA,NA,NA,NA,NA,fixation,NA,NA,NA,NA,NA,NA,sub27
d3-animate-choice,156,647345,0.0-76.0-0.7,FALSE,TRUE,TRUE,TRUE,"""event"",""trial"",""time""
""fullscreenenter"",""5"",""16214""
","
","
","""event"",""trial"",""time""
""fullscreenenter"",""5"",""16214""
","
",323.43999994918704,NA,49,NA,NA,3000,1,NA,NA,images/earth.jpg,images/rocket1,images/rocket2,null,images/rocket2,NA,1,real,null,1,NA,NA,NA,sub27
d3-animate-choice,157,649831,0.0-76.0-1.7,FALSE,TRUE,TRUE,TRUE,"""event"",""trial"",""time""
""fullscreenenter"",""5"",""16214""
","
","
","""event"",""trial"",""time""
""fullscreenenter"",""5"",""16214""
","
",480.890000006184,NA,48,NA,NA,3000,1,NA,NA,images/redplanet1.jpg,images/alien2,images/alien1,images/rocket2,images/alien2,images/nothing.png,2,real,false,2,rare,0,2020-06-16T16:52:19Z,sub27
two-step-fixation,158,650837,0.0-76.0-2.7,FALSE,TRUE,TRUE,TRUE,"""event"",""trial"",""time""
""fullscreenenter"",""5"",""16214""
","
","
","""event"",""trial"",""time""
""fullscreenenter"",""5"",""16214""
","
",NA,images/earth.jpg,NA,NA,NA,NA,NA,NA,NA,NA,NA,NA,NA,NA,NA,fixation,NA,NA,NA,NA,NA,NA,sub27
d3-animate-choice,159,653318,0.0-76.0-0.8,FALSE,TRUE,TRUE,TRUE,"""event"",""trial"",""time""
""fullscreenenter"",""5"",""16214""
","
","
","""event"",""trial"",""time""
""fullscreenenter"",""5"",""16214""
","
",475.03500001039356,NA,49,NA,NA,3000,1,NA,NA,images/earth.jpg,images/rocket1,images/rocket2,null,images/rocket2,NA,1,real,null,1,NA,NA,NA,sub27
d3-animate-choice,160,655878,0.0-76.0-1.8,FALSE,TRUE,TRUE,TRUE,"""event"",""trial"",""time""
""fullscreenenter"",""5"",""16214""
","
","
","""event"",""trial"",""time""
""fullscreenenter"",""5"",""16214""
","
",554.3649999890476,NA,49,NA,NA,3000,1,NA,NA,images/redplanet1.jpg,images/alien2,images/alien1,images/rocket2,images/alien1,images/nothing.png,2,real,false,1,rare,0,2020-06-16T16:52:25Z,sub27
two-step-fixation,161,656885,0.0-76.0-2.8,FALSE,TRUE,TRUE,TRUE,"""event"",""trial"",""time""
""fullscreenenter"",""5"",""16214""
","
","
","""event"",""trial"",""time""
""fullscreenenter"",""5"",""16214""
","
",NA,images/earth.jpg,NA,NA,NA,NA,NA,NA,NA,NA,NA,NA,NA,NA,NA,fixation,NA,NA,NA,NA,NA,NA,sub27
d3-animate-choice,162,659407,0.0-76.0-0.9,FALSE,TRUE,TRUE,TRUE,"""event"",""trial"",""time""
""fullscreenenter"",""5"",""16214""
","
","
","""event"",""trial"",""time""
""fullscreenenter"",""5"",""16214""
","
",514.3099999986589,NA,49,NA,NA,3000,1,NA,NA,images/earth.jpg,images/rocket1,images/rocket2,null,images/rocket2,NA,1,real,null,1,NA,NA,NA,sub27
d3-animate-choice,163,662200,0.0-76.0-1.9,FALSE,TRUE,TRUE,TRUE,"""event"",""trial"",""time""
""fullscreenenter"",""5"",""16214""
","
","
","""event"",""trial"",""time""
""fullscreenenter"",""5"",""16214""
","
",787.5299999723211,NA,48,NA,NA,3000,1,NA,NA,images/purpleplanet.jpg,images/alien4,images/alien3,images/rocket2,images/alien4,images/nothing.png,2,real,true,2,common,0,2020-06-16T16:52:31Z,sub27
two-step-fixation,164,663204,0.0-76.0-2.9,FALSE,TRUE,TRUE,TRUE,"""event"",""trial"",""time""
""fullscreenenter"",""5"",""16214""
","
","
","""event"",""trial"",""time""
""fullscreenenter"",""5"",""16214""
","
",NA,images/earth.jpg,NA,NA,NA,NA,NA,NA,NA,NA,NA,NA,NA,NA,NA,fixation,NA,NA,NA,NA,NA,NA,sub27
d3-animate-choice,165,666496,0.0-76.0-0.10,FALSE,TRUE,TRUE,TRUE,"""event"",""trial"",""time""
""fullscreenenter"",""5"",""16214""
","
","
","""event"",""trial"",""time""
""fullscreenenter"",""5"",""16214""
","
",1286.850000033155,NA,49,NA,NA,3000,1,NA,NA,images/earth.jpg,images/rocket1,images/rocket2,null,images/rocket2,NA,1,real,null,1,NA,NA,NA,sub27
d3-animate-choice,166,669215,0.0-76.0-1.10,FALSE,TRUE,TRUE,TRUE,"""event"",""trial"",""time""
""fullscreenenter"",""5"",""16214""
","
","
","""event"",""trial"",""time""
""fullscreenenter"",""5"",""16214""
","
",712.3700000811368,NA,48,NA,NA,3000,1,NA,NA,images/purpleplanet.jpg,images/alien4,images/alien3,images/rocket2,images/alien4,images/t.png,2,real,true,2,common,1,2020-06-16T16:52:38Z,sub27
two-step-fixation,167,670221,0.0-76.0-2.10,FALSE,TRUE,TRUE,TRUE,"""event"",""trial"",""time""
""fullscreenenter"",""5"",""16214""
","
","
","""event"",""trial"",""time""
""fullscreenenter"",""5"",""16214""
","
",NA,images/earth.jpg,NA,NA,NA,NA,NA,NA,NA,NA,NA,NA,NA,NA,NA,fixation,NA,NA,NA,NA,NA,NA,sub27
d3-animate-choice,168,672681,0.0-76.0-0.11,FALSE,TRUE,TRUE,TRUE,"""event"",""trial"",""time""
""fullscreenenter"",""5"",""16214""
","
","
","""event"",""trial"",""time""
""fullscreenenter"",""5"",""16214""
","
",453.9899999508634,NA,49,NA,NA,3000,1,NA,NA,images/earth.jpg,images/rocket1,images/rocket2,null,images/rocket2,NA,1,real,null,1,NA,NA,NA,sub27
d3-animate-choice,169,675418,0.0-76.0-1.11,FALSE,TRUE,TRUE,TRUE,"""event"",""trial"",""time""
""fullscreenenter"",""5"",""16214""
","
","
","""event"",""trial"",""time""
""fullscreenenter"",""5"",""16214""
","
",731.9399999687448,NA,48,NA,NA,3000,1,NA,NA,images/purpleplanet.jpg,images/alien4,images/alien3,images/rocket2,images/alien4,images/t.png,2,real,true,2,common,1,2020-06-16T16:52:44Z,sub27
two-step-fixation,170,676423,0.0-76.0-2.11,FALSE,TRUE,TRUE,TRUE,"""event"",""trial"",""time""
""fullscreenenter"",""5"",""16214""
","
","
","""event"",""trial"",""time""
""fullscreenenter"",""5"",""16214""
","
",NA,images/earth.jpg,NA,NA,NA,NA,NA,NA,NA,NA,NA,NA,NA,NA,NA,fixation,NA,NA,NA,NA,NA,NA,sub27
d3-animate-choice,171,678875,0.0-76.0-0.12,FALSE,TRUE,TRUE,TRUE,"""event"",""trial"",""time""
""fullscreenenter"",""5"",""16214""
","
","
","""event"",""trial"",""time""
""fullscreenenter"",""5"",""16214""
","
",446.2749999947846,NA,49,NA,NA,3000,1,NA,NA,images/earth.jpg,images/rocket1,images/rocket2,null,images/rocket2,NA,1,real,null,1,NA,NA,NA,sub27
d3-animate-choice,172,681533,0.0-76.0-1.12,FALSE,TRUE,TRUE,TRUE,"""event"",""trial"",""time""
""fullscreenenter"",""5"",""16214""
","
","
","""event"",""trial"",""time""
""fullscreenenter"",""5"",""16214""
","
",652.3149999557063,NA,48,NA,NA,3000,1,NA,NA,images/purpleplanet.jpg,images/alien4,images/alien3,images/rocket2,images/alien4,images/t.png,2,real,true,2,common,1,2020-06-16T16:52:50Z,sub27
two-step-fixation,173,682541,0.0-76.0-2.12,FALSE,TRUE,TRUE,TRUE,"""event"",""trial"",""time""
""fullscreenenter"",""5"",""16214""
","
","
","""event"",""trial"",""time""
""fullscreenenter"",""5"",""16214""
","
",NA,images/earth.jpg,NA,NA,NA,NA,NA,NA,NA,NA,NA,NA,NA,NA,NA,fixation,NA,NA,NA,NA,NA,NA,sub27
d3-animate-choice,174,684966,0.0-76.0-0.13,FALSE,TRUE,TRUE,TRUE,"""event"",""trial"",""time""
""fullscreenenter"",""5"",""16214""
","
","
","""event"",""trial"",""time""
""fullscreenenter"",""5"",""16214""
","
",416.1399999866262,NA,49,NA,NA,3000,1,NA,NA,images/earth.jpg,images/rocket1,images/rocket2,null,images/rocket2,NA,1,real,null,1,NA,NA,NA,sub27
d3-animate-choice,175,687531,0.0-76.0-1.13,FALSE,TRUE,TRUE,TRUE,"""event"",""trial"",""time""
""fullscreenenter"",""5"",""16214""
","
","
","""event"",""trial"",""time""
""fullscreenenter"",""5"",""16214""
","
",558.2249999279156,NA,48,NA,NA,3000,1,NA,NA,images/purpleplanet.jpg,images/alien4,images/alien3,images/rocket2,images/alien4,images/t.png,2,real,true,2,common,1,2020-06-16T16:52:56Z,sub27
two-step-fixation,176,688536,0.0-76.0-2.13,FALSE,TRUE,TRUE,TRUE,"""event"",""trial"",""time""
""fullscreenenter"",""5"",""16214""
","
","
","""event"",""trial"",""time""
""fullscreenenter"",""5"",""16214""
","
",NA,images/earth.jpg,NA,NA,NA,NA,NA,NA,NA,NA,NA,NA,NA,NA,NA,fixation,NA,NA,NA,NA,NA,NA,sub27
d3-animate-choice,177,690897,0.0-76.0-0.14,FALSE,TRUE,TRUE,TRUE,"""event"",""trial"",""time""
""fullscreenenter"",""5"",""16214""
","
","
","""event"",""trial"",""time""
""fullscreenenter"",""5"",""16214""
","
",355.0399999367073,NA,49,NA,NA,3000,1,NA,NA,images/earth.jpg,images/rocket1,images/rocket2,null,images/rocket2,NA,1,real,null,1,NA,NA,NA,sub27
d3-animate-choice,178,693500,0.0-76.0-1.14,FALSE,TRUE,TRUE,TRUE,"""event"",""trial"",""time""
""fullscreenenter"",""5"",""16214""
","
","
","""event"",""trial"",""time""
""fullscreenenter"",""5"",""16214""
","
",596.1150000803173,NA,48,NA,NA,3000,1,NA,NA,images/purpleplanet.jpg,images/alien4,images/alien3,images/rocket2,images/alien4,images/t.png,2,real,true,2,common,1,2020-06-16T16:53:02Z,sub27
two-step-fixation,179,694505,0.0-76.0-2.14,FALSE,TRUE,TRUE,TRUE,"""event"",""trial"",""time""
""fullscreenenter"",""5"",""16214""
","
","
","""event"",""trial"",""time""
""fullscreenenter"",""5"",""16214""
","
",NA,images/earth.jpg,NA,NA,NA,NA,NA,NA,NA,NA,NA,NA,NA,NA,NA,fixation,NA,NA,NA,NA,NA,NA,sub27
d3-animate-choice,180,696887,0.0-76.0-0.15,FALSE,TRUE,TRUE,TRUE,"""event"",""trial"",""time""
""fullscreenenter"",""5"",""16214""
","
","
","""event"",""trial"",""time""
""fullscreenenter"",""5"",""16214""
","
",375.2600000007078,NA,49,NA,NA,3000,1,NA,NA,images/earth.jpg,images/rocket1,images/rocket2,null,images/rocket2,NA,1,real,null,1,NA,NA,NA,sub27
d3-animate-choice,181,699397,0.0-76.0-1.15,FALSE,TRUE,TRUE,TRUE,"""event"",""trial"",""time""
""fullscreenenter"",""5"",""16214""
","
","
","""event"",""trial"",""time""
""fullscreenenter"",""5"",""16214""
","
",504.21500008087605,NA,48,NA,NA,3000,1,NA,NA,images/purpleplanet.jpg,images/alien4,images/alien3,images/rocket2,images/alien4,images/nothing.png,2,real,true,2,common,0,2020-06-16T16:53:08Z,sub27
two-step-fixation,182,700403,0.0-76.0-2.15,FALSE,TRUE,TRUE,TRUE,"""event"",""trial"",""time""
""fullscreenenter"",""5"",""16214""
","
","
","""event"",""trial"",""time""
""fullscreenenter"",""5"",""16214""
","
",NA,images/earth.jpg,NA,NA,NA,NA,NA,NA,NA,NA,NA,NA,NA,NA,NA,fixation,NA,NA,NA,NA,NA,NA,sub27
d3-animate-choice,183,702854,0.0-76.0-0.16,FALSE,TRUE,TRUE,TRUE,"""event"",""trial"",""time""
""fullscreenenter"",""5"",""16214""
","
","
","""event"",""trial"",""time""
""fullscreenenter"",""5"",""16214""
","
",444.58000001031905,NA,49,NA,NA,3000,1,NA,NA,images/earth.jpg,images/rocket1,images/rocket2,null,images/rocket2,NA,1,real,null,1,NA,NA,NA,sub27
d3-animate-choice,184,706161,0.0-76.0-1.16,FALSE,TRUE,TRUE,TRUE,"""event"",""trial"",""time""
""fullscreenenter"",""5"",""16214""
","
","
","""event"",""trial"",""time""
""fullscreenenter"",""5"",""16214""
","
",1299.445000011474,NA,49,NA,NA,3000,1,NA,NA,images/redplanet1.jpg,images/alien2,images/alien1,images/rocket2,images/alien1,images/t.png,2,real,false,1,rare,1,2020-06-16T16:53:15Z,sub27
two-step-fixation,185,707166,0.0-76.0-2.16,FALSE,TRUE,TRUE,TRUE,"""event"",""trial"",""time""
""fullscreenenter"",""5"",""16214""
","
","
","""event"",""trial"",""time""
""fullscreenenter"",""5"",""16214""
","
",NA,images/earth.jpg,NA,NA,NA,NA,NA,NA,NA,NA,NA,NA,NA,NA,NA,fixation,NA,NA,NA,NA,NA,NA,sub27
d3-animate-choice,186,709623,0.0-76.0-0.17,FALSE,TRUE,TRUE,TRUE,"""event"",""trial"",""time""
""fullscreenenter"",""5"",""16214""
","
","
","""event"",""trial"",""time""
""fullscreenenter"",""5"",""16214""
","
",452.7200000593439,NA,49,NA,NA,3000,1,NA,NA,images/earth.jpg,images/rocket1,images/rocket2,null,images/rocket2,NA,1,real,null,1,NA,NA,NA,sub27
d3-animate-choice,187,712248,0.0-76.0-1.17,FALSE,TRUE,TRUE,TRUE,"""event"",""trial"",""time""
""fullscreenenter"",""5"",""16214""
","
","
","""event"",""trial"",""time""
""fullscreenenter"",""5"",""16214""
","
",619.5950000546873,NA,48,NA,NA,3000,1,NA,NA,images/purpleplanet.jpg,images/alien4,images/alien3,images/rocket2,images/alien4,images/t.png,2,real,true,2,common,1,2020-06-16T16:53:21Z,sub27
two-step-fixation,188,713253,0.0-76.0-2.17,FALSE,TRUE,TRUE,TRUE,"""event"",""trial"",""time""
""fullscreenenter"",""5"",""16214""
","
","
","""event"",""trial"",""time""
""fullscreenenter"",""5"",""16214""
","
",NA,images/earth.jpg,NA,NA,NA,NA,NA,NA,NA,NA,NA,NA,NA,NA,NA,fixation,NA,NA,NA,NA,NA,NA,sub27
d3-animate-choice,189,715697,0.0-76.0-0.18,FALSE,TRUE,TRUE,TRUE,"""event"",""trial"",""time""
""fullscreenenter"",""5"",""16214""
","
","
","""event"",""trial"",""time""
""fullscreenenter"",""5"",""16214""
","
",437.015000032261,NA,49,NA,NA,3000,1,NA,NA,images/earth.jpg,images/rocket1,images/rocket2,null,images/rocket2,NA,1,real,null,1,NA,NA,NA,sub27
d3-animate-choice,190,718322,0.0-76.0-1.18,FALSE,TRUE,TRUE,TRUE,"""event"",""trial"",""time""
""fullscreenenter"",""5"",""16214""
","
","
","""event"",""trial"",""time""
""fullscreenenter"",""5"",""16214""
","
",620.3300000634044,NA,48,NA,NA,3000,1,NA,NA,images/purpleplanet.jpg,images/alien4,images/alien3,images/rocket2,images/alien4,images/nothing.png,2,real,true,2,common,0,2020-06-16T16:53:27Z,sub27
two-step-fixation,191,719327,0.0-76.0-2.18,FALSE,TRUE,TRUE,TRUE,"""event"",""trial"",""time""
""fullscreenenter"",""5"",""16214""
","
","
","""event"",""trial"",""time""
""fullscreenenter"",""5"",""16214""
","
",NA,images/earth.jpg,NA,NA,NA,NA,NA,NA,NA,NA,NA,NA,NA,NA,NA,fixation,NA,NA,NA,NA,NA,NA,sub27
d3-animate-choice,192,721903,0.0-76.0-0.19,FALSE,TRUE,TRUE,TRUE,"""event"",""trial"",""time""
""fullscreenenter"",""5"",""16214""
","
","
","""event"",""trial"",""time""
""fullscreenenter"",""5"",""16214""
","
",569.0500000491738,NA,49,NA,NA,3000,1,NA,NA,images/earth.jpg,images/rocket1,images/rocket2,null,images/rocket2,NA,1,real,null,1,NA,NA,NA,sub27
d3-animate-choice,193,724625,0.0-76.0-1.19,FALSE,TRUE,TRUE,TRUE,"""event"",""trial"",""time""
""fullscreenenter"",""5"",""16214""
","
","
","""event"",""trial"",""time""
""fullscreenenter"",""5"",""16214""
","
",717.1099999686703,NA,48,NA,NA,3000,1,NA,NA,images/purpleplanet.jpg,images/alien4,images/alien3,images/rocket2,images/alien4,images/t.png,2,real,true,2,common,1,2020-06-16T16:53:34Z,sub27
two-step-fixation,194,725629,0.0-76.0-2.19,FALSE,TRUE,TRUE,TRUE,"""event"",""trial"",""time""
""fullscreenenter"",""5"",""16214""
","
","
","""event"",""trial"",""time""
""fullscreenenter"",""5"",""16214""
","
",NA,images/earth.jpg,NA,NA,NA,NA,NA,NA,NA,NA,NA,NA,NA,NA,NA,fixation,NA,NA,NA,NA,NA,NA,sub27
d3-animate-choice,195,727842,0.0-76.0-0.20,FALSE,TRUE,TRUE,TRUE,"""event"",""trial"",""time""
""fullscreenenter"",""5"",""16214""
","
","
","""event"",""trial"",""time""
""fullscreenenter"",""5"",""16214""
","
",208.3000000566244,NA,49,NA,NA,3000,1,NA,NA,images/earth.jpg,images/rocket1,images/rocket2,null,images/rocket2,NA,1,real,null,1,NA,NA,NA,sub27
d3-animate-choice,196,730405,0.0-76.0-1.20,FALSE,TRUE,TRUE,TRUE,"""event"",""trial"",""time""
""fullscreenenter"",""5"",""16214""
","
","
","""event"",""trial"",""time""
""fullscreenenter"",""5"",""16214""
","
",557.9699999652803,NA,49,NA,NA,3000,1,NA,NA,images/redplanet1.jpg,images/alien2,images/alien1,images/rocket2,images/alien1,images/nothing.png,2,real,false,1,rare,0,2020-06-16T16:53:39Z,sub27
two-step-fixation,197,731409,0.0-76.0-2.20,FALSE,TRUE,TRUE,TRUE,"""event"",""trial"",""time""
""fullscreenenter"",""5"",""16214""
","
","
","""event"",""trial"",""time""
""fullscreenenter"",""5"",""16214""
","
",NA,images/earth.jpg,NA,NA,NA,NA,NA,NA,NA,NA,NA,NA,NA,NA,NA,fixation,NA,NA,NA,NA,NA,NA,sub27
d3-animate-choice,198,733764,0.0-76.0-0.21,FALSE,TRUE,TRUE,TRUE,"""event"",""trial"",""time""
""fullscreenenter"",""5"",""16214""
","
","
","""event"",""trial"",""time""
""fullscreenenter"",""5"",""16214""
","
",349.2349999723956,NA,49,NA,NA,3000,1,NA,NA,images/earth.jpg,images/rocket1,images/rocket2,null,images/rocket2,NA,1,real,null,1,NA,NA,NA,sub27
d3-animate-choice,199,736241,0.0-76.0-1.21,FALSE,TRUE,TRUE,TRUE,"""event"",""trial"",""time""
""fullscreenenter"",""5"",""16214""
","
","
","""event"",""trial"",""time""
""fullscreenenter"",""5"",""16214""
","
",473.3299999497831,NA,49,NA,NA,3000,1,NA,NA,images/redplanet1.jpg,images/alien2,images/alien1,images/rocket2,images/alien1,images/t.png,2,real,false,1,rare,1,2020-06-16T16:53:45Z,sub27
two-step-fixation,200,737246,0.0-76.0-2.21,FALSE,TRUE,TRUE,TRUE,"""event"",""trial"",""time""
""fullscreenenter"",""5"",""16214""
","
","
","""event"",""trial"",""time""
""fullscreenenter"",""5"",""16214""
","
",NA,images/earth.jpg,NA,NA,NA,NA,NA,NA,NA,NA,NA,NA,NA,NA,NA,fixation,NA,NA,NA,NA,NA,NA,sub27
d3-animate-choice,201,740021,0.0-76.0-0.22,FALSE,TRUE,TRUE,TRUE,"""event"",""trial"",""time""
""fullscreenenter"",""5"",""16214""
","
","
","""event"",""trial"",""time""
""fullscreenenter"",""5"",""16214""
","
",769.3549999967217,NA,49,NA,NA,3000,1,NA,NA,images/earth.jpg,images/rocket1,images/rocket2,null,images/rocket2,NA,1,real,null,1,NA,NA,NA,sub27
d3-animate-choice,202,742542,0.0-76.0-1.22,FALSE,TRUE,TRUE,TRUE,"""event"",""trial"",""time""
""fullscreenenter"",""5"",""16214""
","
","
","""event"",""trial"",""time""
""fullscreenenter"",""5"",""16214""
","
",515.7849999377504,NA,48,NA,NA,3000,1,NA,NA,images/purpleplanet.jpg,images/alien4,images/alien3,images/rocket2,images/alien4,images/nothing.png,2,real,true,2,common,0,2020-06-16T16:53:51Z,sub27
two-step-fixation,203,743547,0.0-76.0-2.22,FALSE,TRUE,TRUE,TRUE,"""event"",""trial"",""time""
""fullscreenenter"",""5"",""16214""
","
","
","""event"",""trial"",""time""
""fullscreenenter"",""5"",""16214""
","
",NA,images/earth.jpg,NA,NA,NA,NA,NA,NA,NA,NA,NA,NA,NA,NA,NA,fixation,NA,NA,NA,NA,NA,NA,sub27
d3-animate-choice,204,745983,0.0-76.0-0.23,FALSE,TRUE,TRUE,TRUE,"""event"",""trial"",""time""
""fullscreenenter"",""5"",""16214""
","
","
","""event"",""trial"",""time""
""fullscreenenter"",""5"",""16214""
","
",427.8149999445304,NA,49,NA,NA,3000,1,NA,NA,images/earth.jpg,images/rocket1,images/rocket2,null,images/rocket2,NA,1,real,null,1,NA,NA,NA,sub27
d3-animate-choice,205,748814,0.0-76.0-1.23,FALSE,TRUE,TRUE,TRUE,"""event"",""trial"",""time""
""fullscreenenter"",""5"",""16214""
","
","
","""event"",""trial"",""time""
""fullscreenenter"",""5"",""16214""
","
",826.1700000148267,NA,48,NA,NA,3000,1,NA,NA,images/purpleplanet.jpg,images/alien4,images/alien3,images/rocket2,images/alien4,images/t.png,2,real,true,2,common,1,2020-06-16T16:53:58Z,sub27
two-step-fixation,206,749819,0.0-76.0-2.23,FALSE,TRUE,TRUE,TRUE,"""event"",""trial"",""time""
""fullscreenenter"",""5"",""16214""
","
","
","""event"",""trial"",""time""
""fullscreenenter"",""5"",""16214""
","
",NA,images/earth.jpg,NA,NA,NA,NA,NA,NA,NA,NA,NA,NA,NA,NA,NA,fixation,NA,NA,NA,NA,NA,NA,sub27
d3-animate-choice,207,752251,0.0-76.0-0.24,FALSE,TRUE,TRUE,TRUE,"""event"",""trial"",""time""
""fullscreenenter"",""5"",""16214""
","
","
","""event"",""trial"",""time""
""fullscreenenter"",""5"",""16214""
","
",426.71999998856336,NA,49,NA,NA,3000,1,NA,NA,images/earth.jpg,images/rocket1,images/rocket2,null,images/rocket2,NA,1,real,null,1,NA,NA,NA,sub27
d3-animate-choice,208,755047,0.0-76.0-1.24,FALSE,TRUE,TRUE,TRUE,"""event"",""trial"",""time""
""fullscreenenter"",""5"",""16214""
","
","
","""event"",""trial"",""time""
""fullscreenenter"",""5"",""16214""
","
",787.9800000227988,NA,49,NA,NA,3000,1,NA,NA,images/redplanet1.jpg,images/alien2,images/alien1,images/rocket2,images/alien1,images/t.png,2,real,false,1,rare,1,2020-06-16T16:54:04Z,sub27
two-step-fixation,209,756052,0.0-76.0-2.24,FALSE,TRUE,TRUE,TRUE,"""event"",""trial"",""time""
""fullscreenenter"",""5"",""16214""
","
","
","""event"",""trial"",""time""
""fullscreenenter"",""5"",""16214""
","
",NA,images/earth.jpg,NA,NA,NA,NA,NA,NA,NA,NA,NA,NA,NA,NA,NA,fixation,NA,NA,NA,NA,NA,NA,sub27
d3-animate-choice,210,758454,0.0-76.0-0.25,FALSE,TRUE,TRUE,TRUE,"""event"",""trial"",""time""
""fullscreenenter"",""5"",""16214""
","
","
","""event"",""trial"",""time""
""fullscreenenter"",""5"",""16214""
","
",397.89000002201647,NA,49,NA,NA,3000,1,NA,NA,images/earth.jpg,images/rocket1,images/rocket2,null,images/rocket2,NA,1,real,null,1,NA,NA,NA,sub27
d3-animate-choice,211,761053,0.0-76.0-1.25,FALSE,TRUE,TRUE,TRUE,"""event"",""trial"",""time""
""fullscreenenter"",""5"",""16214""
","
","
","""event"",""trial"",""time""
""fullscreenenter"",""5"",""16214""
","
",593.9350000116974,NA,48,NA,NA,3000,1,NA,NA,images/purpleplanet.jpg,images/alien4,images/alien3,images/rocket2,images/alien4,images/nothing.png,2,real,true,2,common,0,2020-06-16T16:54:10Z,sub27
two-step-fixation,212,762057,0.0-76.0-2.25,FALSE,TRUE,TRUE,TRUE,"""event"",""trial"",""time""
""fullscreenenter"",""5"",""16214""
","
","
","""event"",""trial"",""time""
""fullscreenenter"",""5"",""16214""
","
",NA,images/earth.jpg,NA,NA,NA,NA,NA,NA,NA,NA,NA,NA,NA,NA,NA,fixation,NA,NA,NA,NA,NA,NA,sub27
d3-animate-choice,213,764503,0.0-76.0-0.26,FALSE,TRUE,TRUE,TRUE,"""event"",""trial"",""time""
""fullscreenenter"",""5"",""16214""
","
","
","""event"",""trial"",""time""
""fullscreenenter"",""5"",""16214""
","
",442.0399999944493,NA,49,NA,NA,3000,1,NA,NA,images/earth.jpg,images/rocket1,images/rocket2,null,images/rocket2,NA,1,real,null,1,NA,NA,NA,sub27
d3-animate-choice,214,767067,0.0-76.0-1.26,FALSE,TRUE,TRUE,TRUE,"""event"",""trial"",""time""
""fullscreenenter"",""5"",""16214""
","
","
","""event"",""trial"",""time""
""fullscreenenter"",""5"",""16214""
","
",557.8199999872595,NA,49,NA,NA,3000,1,NA,NA,images/redplanet1.jpg,images/alien2,images/alien1,images/rocket2,images/alien1,images/t.png,2,real,false,1,rare,1,2020-06-16T16:54:16Z,sub27
two-step-fixation,215,768072,0.0-76.0-2.26,FALSE,TRUE,TRUE,TRUE,"""event"",""trial"",""time""
""fullscreenenter"",""5"",""16214""
","
","
","""event"",""trial"",""time""
""fullscreenenter"",""5"",""16214""
","
",NA,images/earth.jpg,NA,NA,NA,NA,NA,NA,NA,NA,NA,NA,NA,NA,NA,fixation,NA,NA,NA,NA,NA,NA,sub27
d3-animate-choice,216,770646,0.0-76.0-0.27,FALSE,TRUE,TRUE,TRUE,"""event"",""trial"",""time""
""fullscreenenter"",""5"",""16214""
","
","
","""event"",""trial"",""time""
""fullscreenenter"",""5"",""16214""
","
",568.5250000096858,NA,49,NA,NA,3000,1,NA,NA,images/earth.jpg,images/rocket1,images/rocket2,null,images/rocket2,NA,1,real,null,1,NA,NA,NA,sub27
d3-animate-choice,217,773634,0.0-76.0-1.27,FALSE,TRUE,TRUE,TRUE,"""event"",""trial"",""time""
""fullscreenenter"",""5"",""16214""
","
","
","""event"",""trial"",""time""
""fullscreenenter"",""5"",""16214""
","
",982.6999999349937,NA,49,NA,NA,3000,1,NA,NA,images/redplanet1.jpg,images/alien2,images/alien1,images/rocket2,images/alien1,images/nothing.png,2,real,false,1,rare,0,2020-06-16T16:54:23Z,sub27
two-step-fixation,218,774639,0.0-76.0-2.27,FALSE,TRUE,TRUE,TRUE,"""event"",""trial"",""time""
""fullscreenenter"",""5"",""16214""
","
","
","""event"",""trial"",""time""
""fullscreenenter"",""5"",""16214""
","
",NA,images/earth.jpg,NA,NA,NA,NA,NA,NA,NA,NA,NA,NA,NA,NA,NA,fixation,NA,NA,NA,NA,NA,NA,sub27
d3-animate-choice,219,777002,0.0-76.0-0.28,FALSE,TRUE,TRUE,TRUE,"""event"",""trial"",""time""
""fullscreenenter"",""5"",""16214""
","
","
","""event"",""trial"",""time""
""fullscreenenter"",""5"",""16214""
","
",358.5050000110641,NA,49,NA,NA,3000,1,NA,NA,images/earth.jpg,images/rocket1,images/rocket2,null,images/rocket2,NA,1,real,null,1,NA,NA,NA,sub27
d3-animate-choice,220,779649,0.0-76.0-1.28,FALSE,TRUE,TRUE,TRUE,"""event"",""trial"",""time""
""fullscreenenter"",""5"",""16214""
","
","
","""event"",""trial"",""time""
""fullscreenenter"",""5"",""16214""
","
",639.5799999590963,NA,48,NA,NA,3000,1,NA,NA,images/purpleplanet.jpg,images/alien4,images/alien3,images/rocket2,images/alien4,images/t.png,2,real,true,2,common,1,2020-06-16T16:54:29Z,sub27
two-step-fixation,221,780656,0.0-76.0-2.28,FALSE,TRUE,TRUE,TRUE,"""event"",""trial"",""time""
""fullscreenenter"",""5"",""16214""
","
","
","""event"",""trial"",""time""
""fullscreenenter"",""5"",""16214""
","
",NA,images/earth.jpg,NA,NA,NA,NA,NA,NA,NA,NA,NA,NA,NA,NA,NA,fixation,NA,NA,NA,NA,NA,NA,sub27
d3-animate-choice,222,783083,0.0-76.0-0.29,FALSE,TRUE,TRUE,TRUE,"""event"",""trial"",""time""
""fullscreenenter"",""5"",""16214""
","
","
","""event"",""trial"",""time""
""fullscreenenter"",""5"",""16214""
","
",419.0099999541417,NA,49,NA,NA,3000,1,NA,NA,images/earth.jpg,images/rocket1,images/rocket2,null,images/rocket2,NA,1,real,null,1,NA,NA,NA,sub27
d3-animate-choice,223,785671,0.0-76.0-1.29,FALSE,TRUE,TRUE,TRUE,"""event"",""trial"",""time""
""fullscreenenter"",""5"",""16214""
","
","
","""event"",""trial"",""time""
""fullscreenenter"",""5"",""16214""
","
",580.4599999682978,NA,49,NA,NA,3000,1,NA,NA,images/redplanet1.jpg,images/alien2,images/alien1,images/rocket2,images/alien1,images/t.png,2,real,false,1,rare,1,2020-06-16T16:54:35Z,sub27
two-step-fixation,224,786675,0.0-76.0-2.29,FALSE,TRUE,TRUE,TRUE,"""event"",""trial"",""time""
""fullscreenenter"",""5"",""16214""
","
","
","""event"",""trial"",""time""
""fullscreenenter"",""5"",""16214""
","
",NA,images/earth.jpg,NA,NA,NA,NA,NA,NA,NA,NA,NA,NA,NA,NA,NA,fixation,NA,NA,NA,NA,NA,NA,sub27
d3-animate-choice,225,789037,0.0-76.0-0.30,FALSE,TRUE,TRUE,TRUE,"""event"",""trial"",""time""
""fullscreenenter"",""5"",""16214""
","
","
","""event"",""trial"",""time""
""fullscreenenter"",""5"",""16214""
","
",355.05000001285225,NA,49,NA,NA,3000,1,NA,NA,images/earth.jpg,images/rocket1,images/rocket2,null,images/rocket2,NA,1,real,null,1,NA,NA,NA,sub27
d3-animate-choice,226,791614,0.0-76.0-1.30,FALSE,TRUE,TRUE,TRUE,"""event"",""trial"",""time""
""fullscreenenter"",""5"",""16214""
","
","
","""event"",""trial"",""time""
""fullscreenenter"",""5"",""16214""
","
",571.239999961108,NA,48,NA,NA,3000,1,NA,NA,images/purpleplanet.jpg,images/alien4,images/alien3,images/rocket2,images/alien4,images/t.png,2,real,true,2,common,1,2020-06-16T16:54:41Z,sub27
two-step-fixation,227,792620,0.0-76.0-2.30,FALSE,TRUE,TRUE,TRUE,"""event"",""trial"",""time""
""fullscreenenter"",""5"",""16214""
","
","
","""event"",""trial"",""time""
""fullscreenenter"",""5"",""16214""
","
",NA,images/earth.jpg,NA,NA,NA,NA,NA,NA,NA,NA,NA,NA,NA,NA,NA,fixation,NA,NA,NA,NA,NA,NA,sub27
d3-animate-choice,228,794977,0.0-76.0-0.31,FALSE,TRUE,TRUE,TRUE,"""event"",""trial"",""time""
""fullscreenenter"",""5"",""16214""
","
","
","""event"",""trial"",""time""
""fullscreenenter"",""5"",""16214""
","
",349.2499999701977,NA,49,NA,NA,3000,1,NA,NA,images/earth.jpg,images/rocket1,images/rocket2,null,images/rocket2,NA,1,real,null,1,NA,NA,NA,sub27
d3-animate-choice,229,797630,0.0-76.0-1.31,FALSE,TRUE,TRUE,TRUE,"""event"",""trial"",""time""
""fullscreenenter"",""5"",""16214""
","
","
","""event"",""trial"",""time""
""fullscreenenter"",""5"",""16214""
","
",648.2550000073388,NA,49,NA,NA,3000,1,NA,NA,images/redplanet1.jpg,images/alien2,images/alien1,images/rocket2,images/alien1,images/t.png,2,real,false,1,rare,1,2020-06-16T16:54:47Z,sub27
two-step-fixation,230,798636,0.0-76.0-2.31,FALSE,TRUE,TRUE,TRUE,"""event"",""trial"",""time""
""fullscreenenter"",""5"",""16214""
","
","
","""event"",""trial"",""time""
""fullscreenenter"",""5"",""16214""
","
",NA,images/earth.jpg,NA,NA,NA,NA,NA,NA,NA,NA,NA,NA,NA,NA,NA,fixation,NA,NA,NA,NA,NA,NA,sub27
d3-animate-choice,231,800680,0.0-76.0-0.32,FALSE,TRUE,TRUE,TRUE,"""event"",""trial"",""time""
""fullscreenenter"",""5"",""16214""
","
","
","""event"",""trial"",""time""
""fullscreenenter"",""5"",""16214""
","
",37.68499998841435,NA,49,NA,NA,3000,1,NA,NA,images/earth.jpg,images/rocket1,images/rocket2,null,images/rocket2,NA,1,real,null,1,NA,NA,NA,sub27
d3-animate-choice,232,803539,0.0-76.0-1.32,FALSE,TRUE,TRUE,TRUE,"""event"",""trial"",""time""
""fullscreenenter"",""5"",""16214""
","
","
","""event"",""trial"",""time""
""fullscreenenter"",""5"",""16214""
","
",854.2950000846758,NA,49,NA,NA,3000,1,NA,NA,images/redplanet1.jpg,images/alien2,images/alien1,images/rocket2,images/alien1,images/t.png,2,real,false,1,rare,1,2020-06-16T16:54:52Z,sub27
two-step-fixation,233,804549,0.0-76.0-2.32,FALSE,TRUE,TRUE,TRUE,"""event"",""trial"",""time""
""fullscreenenter"",""5"",""16214""
","
","
","""event"",""trial"",""time""
""fullscreenenter"",""5"",""16214""
","
",NA,images/earth.jpg,NA,NA,NA,NA,NA,NA,NA,NA,NA,NA,NA,NA,NA,fixation,NA,NA,NA,NA,NA,NA,sub27
d3-animate-choice,234,806663,0.0-76.0-0.33,FALSE,TRUE,TRUE,TRUE,"""event"",""trial"",""time""
""fullscreenenter"",""5"",""16214""
","
","
","""event"",""trial"",""time""
""fullscreenenter"",""5"",""16214""
","
",107.6500000199303,NA,49,NA,NA,3000,1,NA,NA,images/earth.jpg,images/rocket1,images/rocket2,null,images/rocket2,NA,1,real,null,1,NA,NA,NA,sub27
d3-animate-choice,235,809201,0.0-76.0-1.33,FALSE,TRUE,TRUE,TRUE,"""event"",""trial"",""time""
""fullscreenenter"",""5"",""16214""
","
","
","""event"",""trial"",""time""
""fullscreenenter"",""5"",""16214""
","
",533.5200000554323,NA,48,NA,NA,3000,1,NA,NA,images/purpleplanet.jpg,images/alien4,images/alien3,images/rocket2,images/alien4,images/nothing.png,2,real,true,2,common,0,2020-06-16T16:54:58Z,sub27
two-step-fixation,236,810207,0.0-76.0-2.33,FALSE,TRUE,TRUE,TRUE,"""event"",""trial"",""time""
""fullscreenenter"",""5"",""16214""
","
","
","""event"",""trial"",""time""
""fullscreenenter"",""5"",""16214""
","
",NA,images/earth.jpg,NA,NA,NA,NA,NA,NA,NA,NA,NA,NA,NA,NA,NA,fixation,NA,NA,NA,NA,NA,NA,sub27
d3-animate-choice,237,812409,0.0-76.0-0.34,FALSE,TRUE,TRUE,TRUE,"""event"",""trial"",""time""
""fullscreenenter"",""5"",""16214""
","
","
","""event"",""trial"",""time""
""fullscreenenter"",""5"",""16214""
","
",195.6999999238178,NA,49,NA,NA,3000,1,NA,NA,images/earth.jpg,images/rocket1,images/rocket2,null,images/rocket2,NA,1,real,null,1,NA,NA,NA,sub27
d3-animate-choice,238,815185,0.0-76.0-1.34,FALSE,TRUE,TRUE,TRUE,"""event"",""trial"",""time""
""fullscreenenter"",""5"",""16214""
","
","
","""event"",""trial"",""time""
""fullscreenenter"",""5"",""16214""
","
",768.9450000179932,NA,48,NA,NA,3000,1,NA,NA,images/purpleplanet.jpg,images/alien4,images/alien3,images/rocket2,images/alien4,images/nothing.png,2,real,true,2,common,0,2020-06-16T16:55:04Z,sub27
two-step-fixation,239,816189,0.0-76.0-2.34,FALSE,TRUE,TRUE,TRUE,"""event"",""trial"",""time""
""fullscreenenter"",""5"",""16214""
","
","
","""event"",""trial"",""time""
""fullscreenenter"",""5"",""16214""
","
",NA,images/earth.jpg,NA,NA,NA,NA,NA,NA,NA,NA,NA,NA,NA,NA,NA,fixation,NA,NA,NA,NA,NA,NA,sub27
d3-animate-choice,240,818719,0.0-76.0-0.35,FALSE,TRUE,TRUE,TRUE,"""event"",""trial"",""time""
""fullscreenenter"",""5"",""16214""
","
","
","""event"",""trial"",""time""
""fullscreenenter"",""5"",""16214""
","
",522.6499999407679,NA,49,NA,NA,3000,1,NA,NA,images/earth.jpg,images/rocket1,images/rocket2,null,images/rocket2,NA,1,real,null,1,NA,NA,NA,sub27
d3-animate-choice,241,821603,0.0-76.0-1.35,FALSE,TRUE,TRUE,TRUE,"""event"",""trial"",""time""
""fullscreenenter"",""5"",""16214""
","
","
","""event"",""trial"",""time""
""fullscreenenter"",""5"",""16214""
","
",877.5100000202656,NA,48,NA,NA,3000,1,NA,NA,images/purpleplanet.jpg,images/alien4,images/alien3,images/rocket2,images/alien4,images/t.png,2,real,true,2,common,1,2020-06-16T16:55:11Z,sub27
two-step-fixation,242,822607,0.0-76.0-2.35,FALSE,TRUE,TRUE,TRUE,"""event"",""trial"",""time""
""fullscreenenter"",""5"",""16214""
","
","
","""event"",""trial"",""time""
""fullscreenenter"",""5"",""16214""
","
",NA,images/earth.jpg,NA,NA,NA,NA,NA,NA,NA,NA,NA,NA,NA,NA,NA,fixation,NA,NA,NA,NA,NA,NA,sub27
d3-animate-choice,243,825726,0.0-76.0-0.36,FALSE,TRUE,TRUE,TRUE,"""event"",""trial"",""time""
""fullscreenenter"",""5"",""16214""
","
","
","""event"",""trial"",""time""
""fullscreenenter"",""5"",""16214""
","
",1114.119999925606,NA,49,NA,NA,3000,1,NA,NA,images/earth.jpg,images/rocket1,images/rocket2,null,images/rocket2,NA,1,real,null,1,NA,NA,NA,sub27
d3-animate-choice,244,828290,0.0-76.0-1.36,FALSE,TRUE,TRUE,TRUE,"""event"",""trial"",""time""
""fullscreenenter"",""5"",""16214""
","
","
","""event"",""trial"",""time""
""fullscreenenter"",""5"",""16214""
","
",557.4750000378117,NA,49,NA,NA,3000,1,NA,NA,images/redplanet1.jpg,images/alien2,images/alien1,images/rocket2,images/alien1,images/t.png,2,real,false,1,rare,1,2020-06-16T16:55:17Z,sub27
two-step-fixation,245,829294,0.0-76.0-2.36,FALSE,TRUE,TRUE,TRUE,"""event"",""trial"",""time""
""fullscreenenter"",""5"",""16214""
","
","
","""event"",""trial"",""time""
""fullscreenenter"",""5"",""16214""
","
",NA,images/earth.jpg,NA,NA,NA,NA,NA,NA,NA,NA,NA,NA,NA,NA,NA,fixation,NA,NA,NA,NA,NA,NA,sub27
d3-animate-choice,246,831345,0.0-76.0-0.37,FALSE,TRUE,TRUE,TRUE,"""event"",""trial"",""time""
""fullscreenenter"",""5"",""16214""
","
","
","""event"",""trial"",""time""
""fullscreenenter"",""5"",""16214""
","
",42.15999995358288,NA,49,NA,NA,3000,1,NA,NA,images/earth.jpg,images/rocket1,images/rocket2,null,images/rocket2,NA,1,real,null,1,NA,NA,NA,sub27
d3-animate-choice,247,834202,0.0-76.0-1.37,FALSE,TRUE,TRUE,TRUE,"""event"",""trial"",""time""
""fullscreenenter"",""5"",""16214""
","
","
","""event"",""trial"",""time""
""fullscreenenter"",""5"",""16214""
","
",849.7449998976663,NA,49,NA,NA,3000,1,NA,NA,images/redplanet1.jpg,images/alien2,images/alien1,images/rocket2,images/alien1,images/t.png,2,real,false,1,rare,1,2020-06-16T16:55:23Z,sub27
two-step-fixation,248,835206,0.0-76.0-2.37,FALSE,TRUE,TRUE,TRUE,"""event"",""trial"",""time""
""fullscreenenter"",""5"",""16214""
","
","
","""event"",""trial"",""time""
""fullscreenenter"",""5"",""16214""
","
",NA,images/earth.jpg,NA,NA,NA,NA,NA,NA,NA,NA,NA,NA,NA,NA,NA,fixation,NA,NA,NA,NA,NA,NA,sub27
d3-animate-choice,249,837399,0.0-76.0-0.38,FALSE,TRUE,TRUE,TRUE,"""event"",""trial"",""time""
""fullscreenenter"",""5"",""16214""
","
","
","""event"",""trial"",""time""
""fullscreenenter"",""5"",""16214""
","
",187.9099999787286,NA,49,NA,NA,3000,1,NA,NA,images/earth.jpg,images/rocket1,images/rocket2,null,images/rocket2,NA,1,real,null,1,NA,NA,NA,sub27
d3-animate-choice,250,839988,0.0-76.0-1.38,FALSE,TRUE,TRUE,TRUE,"""event"",""trial"",""time""
""fullscreenenter"",""5"",""16214""
","
","
","""event"",""trial"",""time""
""fullscreenenter"",""5"",""16214""
","
",583.8500000536442,NA,48,NA,NA,3000,1,NA,NA,images/purpleplanet.jpg,images/alien4,images/alien3,images/rocket2,images/alien4,images/nothing.png,2,real,true,2,common,0,2020-06-16T16:55:29Z,sub27
two-step-fixation,251,840992,0.0-76.0-2.38,FALSE,TRUE,TRUE,TRUE,"""event"",""trial"",""time""
""fullscreenenter"",""5"",""16214""
","
","
","""event"",""trial"",""time""
""fullscreenenter"",""5"",""16214""
","
",NA,images/earth.jpg,NA,NA,NA,NA,NA,NA,NA,NA,NA,NA,NA,NA,NA,fixation,NA,NA,NA,NA,NA,NA,sub27
d3-animate-choice,252,843477,0.0-76.0-0.39,FALSE,TRUE,TRUE,TRUE,"""event"",""trial"",""time""
""fullscreenenter"",""5"",""16214""
","
","
","""event"",""trial"",""time""
""fullscreenenter"",""5"",""16214""
","
",478.17499993834645,NA,49,NA,NA,3000,1,NA,NA,images/earth.jpg,images/rocket1,images/rocket2,null,images/rocket2,NA,1,real,null,1,NA,NA,NA,sub27
d3-animate-choice,253,846136,0.0-76.0-1.39,FALSE,TRUE,TRUE,TRUE,"""event"",""trial"",""time""
""fullscreenenter"",""5"",""16214""
","
","
","""event"",""trial"",""time""
""fullscreenenter"",""5"",""16214""
","
",651.1799999279901,NA,49,NA,NA,3000,1,NA,NA,images/purpleplanet.jpg,images/alien4,images/alien3,images/rocket2,images/alien3,images/nothing.png,2,real,true,1,common,0,2020-06-16T16:55:35Z,sub27
two-step-fixation,254,847141,0.0-76.0-2.39,FALSE,TRUE,TRUE,TRUE,"""event"",""trial"",""time""
""fullscreenenter"",""5"",""16214""
","
","
","""event"",""trial"",""time""
""fullscreenenter"",""5"",""16214""
","
",NA,images/earth.jpg,NA,NA,NA,NA,NA,NA,NA,NA,NA,NA,NA,NA,NA,fixation,NA,NA,NA,NA,NA,NA,sub27
d3-animate-choice,255,849634,0.0-76.0-0.40,FALSE,TRUE,TRUE,TRUE,"""event"",""trial"",""time""
""fullscreenenter"",""5"",""16214""
","
","
","""event"",""trial"",""time""
""fullscreenenter"",""5"",""16214""
","
",488.1150000728667,NA,49,NA,NA,3000,1,NA,NA,images/earth.jpg,images/rocket1,images/rocket2,null,images/rocket2,NA,1,real,null,1,NA,NA,NA,sub27
d3-animate-choice,256,852523,0.0-76.0-1.40,FALSE,TRUE,TRUE,TRUE,"""event"",""trial"",""time""
""fullscreenenter"",""5"",""16214""
","
","
","""event"",""trial"",""time""
""fullscreenenter"",""5"",""16214""
","
",884.2600000789389,NA,49,NA,NA,3000,1,NA,NA,images/redplanet1.jpg,images/alien2,images/alien1,images/rocket2,images/alien1,images/t.png,2,real,false,1,rare,1,2020-06-16T16:55:41Z,sub27
two-step-fixation,257,853528,0.0-76.0-2.40,FALSE,TRUE,TRUE,TRUE,"""event"",""trial"",""time""
""fullscreenenter"",""5"",""16214""
","
","
","""event"",""trial"",""time""
""fullscreenenter"",""5"",""16214""
","
",NA,images/earth.jpg,NA,NA,NA,NA,NA,NA,NA,NA,NA,NA,NA,NA,NA,fixation,NA,NA,NA,NA,NA,NA,sub27
d3-animate-choice,258,855889,0.0-76.0-0.41,FALSE,TRUE,TRUE,TRUE,"""event"",""trial"",""time""
""fullscreenenter"",""5"",""16214""
","
","
","""event"",""trial"",""time""
""fullscreenenter"",""5"",""16214""
","
",354.5249999733642,NA,49,NA,NA,3000,1,NA,NA,images/earth.jpg,images/rocket1,images/rocket2,null,images/rocket2,NA,1,real,null,1,NA,NA,NA,sub27
d3-animate-choice,259,858360,0.0-76.0-1.41,FALSE,TRUE,TRUE,TRUE,"""event"",""trial"",""time""
""fullscreenenter"",""5"",""16214""
","
","
","""event"",""trial"",""time""
""fullscreenenter"",""5"",""16214""
","
",466.09000000171363,NA,48,NA,NA,3000,1,NA,NA,images/purpleplanet.jpg,images/alien4,images/alien3,images/rocket2,images/alien4,images/t.png,2,real,true,2,common,1,2020-06-16T16:55:47Z,sub27
two-step-fixation,260,859364,0.0-76.0-2.41,FALSE,TRUE,TRUE,TRUE,"""event"",""trial"",""time""
""fullscreenenter"",""5"",""16214""
","
","
","""event"",""trial"",""time""
""fullscreenenter"",""5"",""16214""
","
",NA,images/earth.jpg,NA,NA,NA,NA,NA,NA,NA,NA,NA,NA,NA,NA,NA,fixation,NA,NA,NA,NA,NA,NA,sub27
d3-animate-choice,261,861773,0.0-76.0-0.42,FALSE,TRUE,TRUE,TRUE,"""event"",""trial"",""time""
""fullscreenenter"",""5"",""16214""
","
","
","""event"",""trial"",""time""
""fullscreenenter"",""5"",""16214""
","
",402.89500006474555,NA,49,NA,NA,3000,1,NA,NA,images/earth.jpg,images/rocket1,images/rocket2,null,images/rocket2,NA,1,real,null,1,NA,NA,NA,sub27
d3-animate-choice,262,864623,0.0-76.0-1.42,FALSE,TRUE,TRUE,TRUE,"""event"",""trial"",""time""
""fullscreenenter"",""5"",""16214""
","
","
","""event"",""trial"",""time""
""fullscreenenter"",""5"",""16214""
","
",843.6150000197813,NA,48,NA,NA,3000,1,NA,NA,images/purpleplanet.jpg,images/alien4,images/alien3,images/rocket2,images/alien4,images/t.png,2,real,true,2,common,1,2020-06-16T16:55:54Z,sub27
two-step-fixation,263,865629,0.0-76.0-2.42,FALSE,TRUE,TRUE,TRUE,"""event"",""trial"",""time""
""fullscreenenter"",""5"",""16214""
","
","
","""event"",""trial"",""time""
""fullscreenenter"",""5"",""16214""
","
",NA,images/earth.jpg,NA,NA,NA,NA,NA,NA,NA,NA,NA,NA,NA,NA,NA,fixation,NA,NA,NA,NA,NA,NA,sub27
d3-animate-choice,264,867783,0.0-76.0-0.43,FALSE,TRUE,TRUE,TRUE,"""event"",""trial"",""time""
""fullscreenenter"",""5"",""16214""
","
","
","""event"",""trial"",""time""
""fullscreenenter"",""5"",""16214""
","
",146.82499994523823,NA,49,NA,NA,3000,1,NA,NA,images/earth.jpg,images/rocket1,images/rocket2,null,images/rocket2,NA,1,real,null,1,NA,NA,NA,sub27
d3-animate-choice,265,871233,0.0-76.0-1.43,FALSE,TRUE,TRUE,TRUE,"""event"",""trial"",""time""
""fullscreenenter"",""5"",""16214""
","
","
","""event"",""trial"",""time""
""fullscreenenter"",""5"",""16214""
","
",1442.780000041239,NA,48,NA,NA,3000,1,NA,NA,images/purpleplanet.jpg,images/alien4,images/alien3,images/rocket2,images/alien4,images/t.png,2,real,true,2,common,1,2020-06-16T16:56:00Z,sub27
two-step-fixation,266,872237,0.0-76.0-2.43,FALSE,TRUE,TRUE,TRUE,"""event"",""trial"",""time""
""fullscreenenter"",""5"",""16214""
","
","
","""event"",""trial"",""time""
""fullscreenenter"",""5"",""16214""
","
",NA,images/earth.jpg,NA,NA,NA,NA,NA,NA,NA,NA,NA,NA,NA,NA,NA,fixation,NA,NA,NA,NA,NA,NA,sub27
d3-animate-choice,267,874435,0.0-76.0-0.44,FALSE,TRUE,TRUE,TRUE,"""event"",""trial"",""time""
""fullscreenenter"",""5"",""16214""
","
","
","""event"",""trial"",""time""
""fullscreenenter"",""5"",""16214""
","
",190.34500000998378,NA,49,NA,NA,3000,1,NA,NA,images/earth.jpg,images/rocket1,images/rocket2,null,images/rocket2,NA,1,real,null,1,NA,NA,NA,sub27
d3-animate-choice,268,877611,0.0-76.0-1.44,FALSE,TRUE,TRUE,TRUE,"""event"",""trial"",""time""
""fullscreenenter"",""5"",""16214""
","
","
","""event"",""trial"",""time""
""fullscreenenter"",""5"",""16214""
","
",1171.7950000893325,NA,48,NA,NA,3000,1,NA,NA,images/purpleplanet.jpg,images/alien4,images/alien3,images/rocket2,images/alien4,images/t.png,2,real,true,2,common,1,2020-06-16T16:56:07Z,sub27
two-step-fixation,269,878616,0.0-76.0-2.44,FALSE,TRUE,TRUE,TRUE,"""event"",""trial"",""time""
""fullscreenenter"",""5"",""16214""
","
","
","""event"",""trial"",""time""
""fullscreenenter"",""5"",""16214""
","
",NA,images/earth.jpg,NA,NA,NA,NA,NA,NA,NA,NA,NA,NA,NA,NA,NA,fixation,NA,NA,NA,NA,NA,NA,sub27
d3-animate-choice,270,881042,0.0-76.0-0.45,FALSE,TRUE,TRUE,TRUE,"""event"",""trial"",""time""
""fullscreenenter"",""5"",""16214""
","
","
","""event"",""trial"",""time""
""fullscreenenter"",""5"",""16214""
","
",421.26999993342906,NA,49,NA,NA,3000,1,NA,NA,images/earth.jpg,images/rocket1,images/rocket2,null,images/rocket2,NA,1,real,null,1,NA,NA,NA,sub27
d3-animate-choice,271,883845,0.0-76.0-1.45,FALSE,TRUE,TRUE,TRUE,"""event"",""trial"",""time""
""fullscreenenter"",""5"",""16214""
","
","
","""event"",""trial"",""time""
""fullscreenenter"",""5"",""16214""
","
",798.3399999793619,NA,48,NA,NA,3000,1,NA,NA,images/purpleplanet.jpg,images/alien4,images/alien3,images/rocket2,images/alien4,images/nothing.png,2,real,true,2,common,0,2020-06-16T16:56:13Z,sub27
two-step-fixation,272,884849,0.0-76.0-2.45,FALSE,TRUE,TRUE,TRUE,"""event"",""trial"",""time""
""fullscreenenter"",""5"",""16214""
","
","
","""event"",""trial"",""time""
""fullscreenenter"",""5"",""16214""
","
",NA,images/earth.jpg,NA,NA,NA,NA,NA,NA,NA,NA,NA,NA,NA,NA,NA,fixation,NA,NA,NA,NA,NA,NA,sub27
d3-animate-choice,273,887160,0.0-76.0-0.46,FALSE,TRUE,TRUE,TRUE,"""event"",""trial"",""time""
""fullscreenenter"",""5"",""16214""
","
","
","""event"",""trial"",""time""
""fullscreenenter"",""5"",""16214""
","
",302.70000000018626,NA,49,NA,NA,3000,1,NA,NA,images/earth.jpg,images/rocket1,images/rocket2,null,images/rocket2,NA,1,real,null,1,NA,NA,NA,sub27
d3-animate-choice,274,889802,0.0-76.0-1.46,FALSE,TRUE,TRUE,TRUE,"""event"",""trial"",""time""
""fullscreenenter"",""5"",""16214""
","
","
","""event"",""trial"",""time""
""fullscreenenter"",""5"",""16214""
","
",636.5099999820814,NA,49,NA,NA,3000,1,NA,NA,images/redplanet1.jpg,images/alien2,images/alien1,images/rocket2,images/alien1,images/nothing.png,2,real,false,1,rare,0,2020-06-16T16:56:19Z,sub27
two-step-fixation,275,890807,0.0-76.0-2.46,FALSE,TRUE,TRUE,TRUE,"""event"",""trial"",""time""
""fullscreenenter"",""5"",""16214""
","
","
","""event"",""trial"",""time""
""fullscreenenter"",""5"",""16214""
","
",NA,images/earth.jpg,NA,NA,NA,NA,NA,NA,NA,NA,NA,NA,NA,NA,NA,fixation,NA,NA,NA,NA,NA,NA,sub27
d3-animate-choice,276,893231,0.0-76.0-0.47,FALSE,TRUE,TRUE,TRUE,"""event"",""trial"",""time""
""fullscreenenter"",""5"",""16214""
","
","
","""event"",""trial"",""time""
""fullscreenenter"",""5"",""16214""
","
",416.9150000670925,NA,49,NA,NA,3000,1,NA,NA,images/earth.jpg,images/rocket1,images/rocket2,null,images/rocket2,NA,1,real,null,1,NA,NA,NA,sub27
d3-animate-choice,277,896493,0.0-76.0-1.47,FALSE,TRUE,TRUE,TRUE,"""event"",""trial"",""time""
""fullscreenenter"",""5"",""16214""
","
","
","""event"",""trial"",""time""
""fullscreenenter"",""5"",""16214""
","
",1253.2800000626594,NA,48,NA,NA,3000,1,NA,NA,images/purpleplanet.jpg,images/alien4,images/alien3,images/rocket2,images/alien4,images/nothing.png,2,real,true,2,common,0,2020-06-16T16:56:25Z,sub27
two-step-fixation,278,897499,0.0-76.0-2.47,FALSE,TRUE,TRUE,TRUE,"""event"",""trial"",""time""
""fullscreenenter"",""5"",""16214""
","
","
","""event"",""trial"",""time""
""fullscreenenter"",""5"",""16214""
","
",NA,images/earth.jpg,NA,NA,NA,NA,NA,NA,NA,NA,NA,NA,NA,NA,NA,fixation,NA,NA,NA,NA,NA,NA,sub27
d3-animate-choice,279,900088,0.0-76.0-0.48,FALSE,TRUE,TRUE,TRUE,"""event"",""trial"",""time""
""fullscreenenter"",""5"",""16214""
","
","
","""event"",""trial"",""time""
""fullscreenenter"",""5"",""16214""
","
",583.7749999482185,NA,49,NA,NA,3000,1,NA,NA,images/earth.jpg,images/rocket1,images/rocket2,null,images/rocket2,NA,1,real,null,1,NA,NA,NA,sub27
d3-animate-choice,280,903979,0.0-76.0-1.48,FALSE,TRUE,TRUE,TRUE,"""event"",""trial"",""time""
""fullscreenenter"",""5"",""16214""
","
","
","""event"",""trial"",""time""
""fullscreenenter"",""5"",""16214""
","
",1884.6250000642613,NA,48,NA,NA,3000,1,NA,NA,images/purpleplanet.jpg,images/alien4,images/alien3,images/rocket2,images/alien4,images/nothing.png,2,real,true,2,common,0,2020-06-16T16:56:33Z,sub27
two-step-fixation,281,904984,0.0-76.0-2.48,FALSE,TRUE,TRUE,TRUE,"""event"",""trial"",""time""
""fullscreenenter"",""5"",""16214""
","
","
","""event"",""trial"",""time""
""fullscreenenter"",""5"",""16214""
","
",NA,images/earth.jpg,NA,NA,NA,NA,NA,NA,NA,NA,NA,NA,NA,NA,NA,fixation,NA,NA,NA,NA,NA,NA,sub27
d3-animate-choice,282,907443,0.0-76.0-0.49,FALSE,TRUE,TRUE,TRUE,"""event"",""trial"",""time""
""fullscreenenter"",""5"",""16214""
","
","
","""event"",""trial"",""time""
""fullscreenenter"",""5"",""16214""
","
",453.6450000014156,NA,49,NA,NA,3000,1,NA,NA,images/earth.jpg,images/rocket1,images/rocket2,null,images/rocket2,NA,1,real,null,1,NA,NA,NA,sub27
d3-animate-choice,283,910462,0.0-76.0-1.49,FALSE,TRUE,TRUE,TRUE,"""event"",""trial"",""time""
""fullscreenenter"",""5"",""16214""
","
","
","""event"",""trial"",""time""
""fullscreenenter"",""5"",""16214""
","
",1013.2300000404939,NA,49,NA,NA,3000,1,NA,NA,images/purpleplanet.jpg,images/alien4,images/alien3,images/rocket2,images/alien3,images/nothing.png,2,real,true,1,common,0,2020-06-16T16:56:39Z,sub27
two-step-fixation,284,911466,0.0-76.0-2.49,FALSE,TRUE,TRUE,TRUE,"""event"",""trial"",""time""
""fullscreenenter"",""5"",""16214""
","
","
","""event"",""trial"",""time""
""fullscreenenter"",""5"",""16214""
","
