trial_type,trial_index,time_elapsed,internal_node_id,rocket_sides,red_planet_first_rocket,red_display_order,purple_display_order,interactions,blur_events,focus_events,fullscreenenter_events,fullscreenexit_events,rt,stimulus,key_press,button_pressed,success,duration,valid_pressed,rts,keys,planet_text,right_text,left_text,center_text,chosen_text,reward_text,trial_stage,practice_trial,transition_type,choice,transition,reward,timestamp,subject_id
pavlovia,0,13,0.0-0.0,TRUE,TRUE,TRUE,TRUE,"
","
","
","
","
",NA,NA,NA,NA,NA,NA,NA,NA,NA,NA,NA,NA,NA,NA,NA,NA,NA,NA,NA,NA,NA,NA,sub79
html-keyboard-response,1,1396,0.0-1.0,TRUE,TRUE,TRUE,TRUE,"
","
","
","
","
",1379.7649999905843,Welcome! Press the space bar to begin.,32,NA,NA,NA,NA,NA,NA,NA,NA,NA,NA,NA,NA,NA,NA,NA,NA,NA,NA,NA,sub79
audio-keyboard-response,2,5424,0.0-2.0,TRUE,TRUE,TRUE,TRUE,"
","
","
","
","
",3893,audio/beep_loop.wav,32,NA,NA,NA,NA,NA,NA,NA,NA,NA,NA,NA,NA,NA,NA,NA,NA,NA,NA,NA,sub79
audio-button-response,3,8020,0.0-3.0,TRUE,TRUE,TRUE,TRUE,"
","
","
","
","
",NaN,audio/fish.mp3,NA,1,NA,NA,NA,NA,NA,NA,NA,NA,NA,NA,NA,NA,NA,NA,NA,NA,NA,NA,sub79
audio-button-response,4,10801,0.0-4.0,TRUE,TRUE,TRUE,TRUE,"""event"",""trial"",""time""
""fullscreenenter"",""5"",""15337""
","
","
","""event"",""trial"",""time""
""fullscreenenter"",""5"",""15337""
","
",NaN,audio/tiger.mp3,NA,4,NA,NA,NA,NA,NA,NA,NA,NA,NA,NA,NA,NA,NA,NA,NA,NA,NA,NA,sub79
fullscreen,5,16179,0.0-5.0,TRUE,TRUE,TRUE,TRUE,"""event"",""trial"",""time""
""fullscreenenter"",""5"",""15337""
","
","
","""event"",""trial"",""time""
""fullscreenenter"",""5"",""15337""
","
",NA,NA,NA,NA,TRUE,NA,NA,NA,NA,NA,NA,NA,NA,NA,NA,NA,NA,NA,NA,NA,NA,NA,sub79
d3-instructions,6,29431,0.0-6.0,TRUE,TRUE,TRUE,TRUE,"""event"",""trial"",""time""
""fullscreenenter"",""5"",""15337""
","
","
","""event"",""trial"",""time""
""fullscreenenter"",""5"",""15337""
","
",NA,NA,NA,NA,NA,NA,NA,NA,NA,NA,NA,NA,NA,NA,NA,NA,NA,NA,NA,NA,NA,NA,sub79
d3-instructions,7,36961,0.0-7.0,TRUE,TRUE,TRUE,TRUE,"""event"",""trial"",""time""
""fullscreenenter"",""5"",""15337""
","
","
","""event"",""trial"",""time""
""fullscreenenter"",""5"",""15337""
","
",NA,NA,NA,NA,NA,NA,NA,NA,NA,NA,NA,NA,NA,NA,NA,NA,NA,NA,NA,NA,NA,NA,sub79
d3-instructions,8,43919,0.0-8.0,TRUE,TRUE,TRUE,TRUE,"""event"",""trial"",""time""
""fullscreenenter"",""5"",""15337""
","
","
","""event"",""trial"",""time""
""fullscreenenter"",""5"",""15337""
","
",NA,NA,NA,NA,NA,NA,NA,NA,NA,NA,NA,NA,NA,NA,NA,NA,NA,NA,NA,NA,NA,NA,sub79
d3-instructions,9,60805,0.0-9.0,TRUE,TRUE,TRUE,TRUE,"""event"",""trial"",""time""
""fullscreenenter"",""5"",""15337""
","
","
","""event"",""trial"",""time""
""fullscreenenter"",""5"",""15337""
","
",NA,NA,NA,NA,NA,NA,NA,NA,NA,NA,NA,NA,NA,NA,NA,NA,NA,NA,NA,NA,NA,NA,sub79
d3-instructions,10,80318,0.0-10.0,TRUE,TRUE,TRUE,TRUE,"""event"",""trial"",""time""
""fullscreenenter"",""5"",""15337""
","
","
","""event"",""trial"",""time""
""fullscreenenter"",""5"",""15337""
","
",NA,NA,NA,NA,NA,NA,NA,NA,NA,NA,NA,NA,NA,NA,NA,NA,NA,NA,NA,NA,NA,NA,sub79
d3-animate-choice,11,83542,0.0-11.0,TRUE,TRUE,TRUE,TRUE,"""event"",""trial"",""time""
""fullscreenenter"",""5"",""15337""
","
","
","""event"",""trial"",""time""
""fullscreenenter"",""5"",""15337""
","
",1199.6399999770802,NA,49,NA,NA,3000,1,"2347.0699999888893,3003.0149999947753",4849,images/tutgreenplanet.jpg,images/tutalien1,images/tutalien2,null,images/tutalien2,NA,NA,practice,null,NA,NA,NA,NA,sub79
d3-animate-choice,12,86046,0.0-12.0,TRUE,TRUE,TRUE,TRUE,"""event"",""trial"",""time""
""fullscreenenter"",""5"",""15337""
","
","
","""event"",""trial"",""time""
""fullscreenenter"",""5"",""15337""
","
",489.6000000007916,NA,48,NA,NA,3000,1,"1338.6250000039581,2158.5899999772664",4848,images/tutgreenplanet.jpg,images/tutalien1,images/tutalien2,null,images/tutalien1,NA,NA,practice,null,NA,NA,NA,NA,sub79
d3-animate-choice,13,88492,0.0-13.0,TRUE,TRUE,TRUE,TRUE,"""event"",""trial"",""time""
""fullscreenenter"",""5"",""15337""
","
","
","""event"",""trial"",""time""
""fullscreenenter"",""5"",""15337""
","
",431.6500000131782,NA,49,NA,NA,3000,1,"993.77000000095,1541.495000012219",4849,images/tutgreenplanet.jpg,images/tutalien1,images/tutalien2,null,images/tutalien2,NA,NA,practice,null,NA,NA,NA,NA,sub79
d3-animate-choice,14,90902,0.0-14.0,TRUE,TRUE,TRUE,TRUE,"""event"",""trial"",""time""
""fullscreenenter"",""5"",""15337""
","
","
","""event"",""trial"",""time""
""fullscreenenter"",""5"",""15337""
","
",396.1750000016764,NA,48,NA,NA,3000,1,"1154.8449999827426,2252.6549999893177",4848,images/tutgreenplanet.jpg,images/tutalien1,images/tutalien2,null,images/tutalien1,NA,NA,practice,null,NA,NA,NA,NA,sub79
d3-instructions,15,99274,0.0-15.0,TRUE,TRUE,TRUE,TRUE,"""event"",""trial"",""time""
""fullscreenenter"",""5"",""15337""
","
","
","""event"",""trial"",""time""
""fullscreenenter"",""5"",""15337""
","
",NA,NA,NA,NA,NA,NA,NA,NA,NA,NA,NA,NA,NA,NA,NA,NA,NA,NA,NA,NA,NA,NA,sub79
d3-instructions,16,106350,0.0-16.0,TRUE,TRUE,TRUE,TRUE,"""event"",""trial"",""time""
""fullscreenenter"",""5"",""15337""
","
","
","""event"",""trial"",""time""
""fullscreenenter"",""5"",""15337""
","
",NA,NA,NA,NA,NA,NA,NA,NA,NA,NA,NA,NA,NA,NA,NA,NA,NA,NA,NA,NA,NA,NA,sub79
d3-instructions,17,119114,0.0-17.0,TRUE,TRUE,TRUE,TRUE,"""event"",""trial"",""time""
""fullscreenenter"",""5"",""15337""
","
","
","""event"",""trial"",""time""
""fullscreenenter"",""5"",""15337""
","
",NA,NA,NA,NA,NA,NA,NA,NA,NA,NA,NA,NA,NA,NA,NA,NA,NA,NA,NA,NA,NA,NA,sub79
d3-instructions,18,132216,0.0-18.0,TRUE,TRUE,TRUE,TRUE,"""event"",""trial"",""time""
""fullscreenenter"",""5"",""15337""
","
","
","""event"",""trial"",""time""
""fullscreenenter"",""5"",""15337""
","
",NA,NA,NA,NA,NA,NA,NA,NA,NA,NA,NA,NA,NA,NA,NA,NA,NA,NA,NA,NA,NA,NA,sub79
d3-instructions,19,146301,0.0-19.0,TRUE,TRUE,TRUE,TRUE,"""event"",""trial"",""time""
""fullscreenenter"",""5"",""15337""
","
","
","""event"",""trial"",""time""
""fullscreenenter"",""5"",""15337""
","
",NA,NA,NA,NA,NA,NA,NA,NA,NA,NA,NA,NA,NA,NA,NA,NA,NA,NA,NA,NA,NA,NA,sub79
d3-animate-choice,20,150225,0.0-20.0,TRUE,TRUE,TRUE,TRUE,"""event"",""trial"",""time""
""fullscreenenter"",""5"",""15337""
","
","
","""event"",""trial"",""time""
""fullscreenenter"",""5"",""15337""
","
",1909.799999993993,NA,49,NA,NA,3000,1,"2267.2399999864865,2624.595000001136,3046.889999997802,3412.624999997206,3820.1999999873806",4949494949,images/tutyellowplanet.jpg,null,images/tutalien3,null,images/tutalien3,images/nothing.png,NA,practice,null,NA,NA,NA,NA,sub79
d3-animate-choice,21,152622,0.0-21.0,TRUE,TRUE,TRUE,TRUE,"""event"",""trial"",""time""
""fullscreenenter"",""5"",""15337""
","
","
","""event"",""trial"",""time""
""fullscreenenter"",""5"",""15337""
","
",383.37500000488944,NA,49,NA,NA,3000,1,"761.5900000091642,1108.4649999975227,1525.805000012042",494949,images/tutyellowplanet.jpg,null,images/tutalien3,null,images/tutalien3,images/t.png,NA,practice,null,NA,NA,NA,NA,sub79
d3-animate-choice,22,156632,0.0-22.0,TRUE,TRUE,TRUE,TRUE,"""event"",""trial"",""time""
""fullscreenenter"",""5"",""15337""
","
","
","""event"",""trial"",""time""
""fullscreenenter"",""5"",""15337""
","
",1996.885000000475,NA,49,NA,NA,3000,1,"2451.889999996638,2766.070000012405,3181.2600000121165,3800.4500000097323",49494949,images/tutyellowplanet.jpg,null,images/tutalien3,null,images/tutalien3,images/nothing.png,NA,practice,null,NA,NA,NA,NA,sub79
d3-animate-choice,23,158947,0.0-23.0,TRUE,TRUE,TRUE,TRUE,"""event"",""trial"",""time""
""fullscreenenter"",""5"",""15337""
","
","
","""event"",""trial"",""time""
""fullscreenenter"",""5"",""15337""
","
",304.4050000025891,NA,49,NA,NA,3000,1,"603.2299999787938,925.1399999775458,1301.3799999898765,1985.1249999774154",49494949,images/tutyellowplanet.jpg,null,images/tutalien3,null,images/tutalien3,images/t.png,NA,practice,null,NA,NA,NA,NA,sub79
d3-animate-choice,24,163287,0.0-24.0,TRUE,TRUE,TRUE,TRUE,"""event"",""trial"",""time""
""fullscreenenter"",""5"",""15337""
","
","
","""event"",""trial"",""time""
""fullscreenenter"",""5"",""15337""
","
",2322.5950000050943,NA,49,NA,NA,3000,1,"2650.465000013355,2951.310000004014,3285.2549999952316,3582.3850000160746",49494949,images/tutyellowplanet.jpg,null,images/tutalien3,null,images/tutalien3,images/t.png,NA,practice,null,NA,NA,NA,NA,sub79
d3-animate-choice,25,165635,0.0-25.0,TRUE,TRUE,TRUE,TRUE,"""event"",""trial"",""time""
""fullscreenenter"",""5"",""15337""
","
","
","""event"",""trial"",""time""
""fullscreenenter"",""5"",""15337""
","
",338.3999999787193,NA,49,NA,NA,3000,1,"635.439999983646,940.7499999797437,1280.7749999919906,1597.9550000047311",49494949,images/tutyellowplanet.jpg,null,images/tutalien3,null,images/tutalien3,images/t.png,NA,practice,null,NA,NA,NA,NA,sub79
d3-animate-choice,26,167979,0.0-26.0,TRUE,TRUE,TRUE,TRUE,"""event"",""trial"",""time""
""fullscreenenter"",""5"",""15337""
","
","
","""event"",""trial"",""time""
""fullscreenenter"",""5"",""15337""
","
",329.81500000460073,NA,49,NA,NA,3000,1,"619.9450000131037,920.2700000023469,1228.8399999961257,1524.4300000194926",49494949,images/tutyellowplanet.jpg,null,images/tutalien3,null,images/tutalien3,images/t.png,NA,practice,null,NA,NA,NA,NA,sub79
d3-animate-choice,27,170442,0.0-27.0,TRUE,TRUE,TRUE,TRUE,"""event"",""trial"",""time""
""fullscreenenter"",""5"",""15337""
","
","
","""event"",""trial"",""time""
""fullscreenenter"",""5"",""15337""
","
",454.2899999942165,NA,49,NA,NA,3000,1,"737.9549999895971,1071.1799999990035,1352.4599999946076,1623.424999997951",49494949,images/tutyellowplanet.jpg,null,images/tutalien3,null,images/tutalien3,images/t.png,NA,practice,null,NA,NA,NA,NA,sub79
d3-animate-choice,28,172649,0.0-28.0,TRUE,TRUE,TRUE,TRUE,"""event"",""trial"",""time""
""fullscreenenter"",""5"",""15337""
","
","
","""event"",""trial"",""time""
""fullscreenenter"",""5"",""15337""
","
",193.37500000256114,NA,49,NA,NA,3000,1,"478.51499999524094,757.7649999875575,1041.720000008354,1338.9700000116136",49494949,images/tutyellowplanet.jpg,null,images/tutalien3,null,images/tutalien3,images/t.png,NA,practice,null,NA,NA,NA,NA,sub79
d3-animate-choice,29,176258,0.0-29.0,TRUE,TRUE,TRUE,TRUE,"""event"",""trial"",""time""
""fullscreenenter"",""5"",""15337""
","
","
","""event"",""trial"",""time""
""fullscreenenter"",""5"",""15337""
","
",1599.1650000214577,NA,49,NA,NA,3000,1,"1905.1800000015646,2174.845000001369,2408.625000010943,2683.6850000254344,2983.4800000244286",4949494949,images/tutyellowplanet.jpg,null,images/tutalien3,null,images/tutalien3,images/t.png,NA,practice,null,NA,NA,NA,NA,sub79
d3-instructions,30,182568,0.0-30.0,TRUE,TRUE,TRUE,TRUE,"""event"",""trial"",""time""
""fullscreenenter"",""5"",""15337""
","
","
","""event"",""trial"",""time""
""fullscreenenter"",""5"",""15337""
","
",NA,NA,NA,NA,NA,NA,NA,NA,NA,NA,NA,NA,NA,NA,NA,NA,NA,NA,NA,NA,NA,NA,sub79
d3-instructions,31,193026,0.0-31.0,TRUE,TRUE,TRUE,TRUE,"""event"",""trial"",""time""
""fullscreenenter"",""5"",""15337""
","
","
","""event"",""trial"",""time""
""fullscreenenter"",""5"",""15337""
","
",NA,NA,NA,NA,NA,NA,NA,NA,NA,NA,NA,NA,NA,NA,NA,NA,NA,NA,NA,NA,NA,NA,sub79
d3-instructions,32,202558,0.0-32.0,TRUE,TRUE,TRUE,TRUE,"""event"",""trial"",""time""
""fullscreenenter"",""5"",""15337""
","
","
","""event"",""trial"",""time""
""fullscreenenter"",""5"",""15337""
","
",NA,NA,NA,NA,NA,NA,NA,NA,NA,NA,NA,NA,NA,NA,NA,NA,NA,NA,NA,NA,NA,NA,sub79
d3-instructions,33,210944,0.0-33.0,TRUE,TRUE,TRUE,TRUE,"""event"",""trial"",""time""
""fullscreenenter"",""5"",""15337""
","
","
","""event"",""trial"",""time""
""fullscreenenter"",""5"",""15337""
","
",NA,NA,NA,NA,NA,NA,NA,NA,NA,NA,NA,NA,NA,NA,NA,NA,NA,NA,NA,NA,NA,NA,sub79
d3-animate-choice,34,214386,0.0-34.0,TRUE,TRUE,TRUE,TRUE,"""event"",""trial"",""time""
""fullscreenenter"",""5"",""15337""
","
","
","""event"",""trial"",""time""
""fullscreenenter"",""5"",""15337""
","
",1429.2150000110269,NA,49,NA,NA,3000,1,"2109.570000000531,3091.310000017984",4949,images/tutgreenplanet.jpg,images/tutalien1,images/tutalien2,null,images/tutalien2,images/t.png,NA,practice,null,NA,NA,NA,NA,sub79
d3-animate-choice,35,217081,0.0-35.0,TRUE,TRUE,TRUE,TRUE,"""event"",""trial"",""time""
""fullscreenenter"",""5"",""15337""
","
","
","""event"",""trial"",""time""
""fullscreenenter"",""5"",""15337""
","
",680.7100000150967,NA,49,NA,NA,3000,1,"1135.3000000235625,1689.4350000075065",4949,images/tutgreenplanet.jpg,images/tutalien1,images/tutalien2,null,images/tutalien2,images/t.png,NA,practice,null,NA,NA,NA,NA,sub79
d3-animate-choice,36,219519,0.0-36.0,TRUE,TRUE,TRUE,TRUE,"""event"",""trial"",""time""
""fullscreenenter"",""5"",""15337""
","
","
","""event"",""trial"",""time""
""fullscreenenter"",""5"",""15337""
","
",423.0600000009872,NA,49,NA,NA,3000,1,"806.4749999903142,1193.0799999972805,2337.7049999835435",494949,images/tutgreenplanet.jpg,images/tutalien1,images/tutalien2,null,images/tutalien2,images/nothing.png,NA,practice,null,NA,NA,NA,NA,sub79
d3-animate-choice,37,221952,0.0-37.0,TRUE,TRUE,TRUE,TRUE,"""event"",""trial"",""time""
""fullscreenenter"",""5"",""15337""
","
","
","""event"",""trial"",""time""
""fullscreenenter"",""5"",""15337""
","
",420.71999999461696,NA,48,NA,NA,3000,1,"726.2199999822769,981.9299999799114,1435.879999975441",484848,images/tutgreenplanet.jpg,images/tutalien1,images/tutalien2,null,images/tutalien1,images/nothing.png,NA,practice,null,NA,NA,NA,NA,sub79
d3-animate-choice,38,224314,0.0-38.0,TRUE,TRUE,TRUE,TRUE,"""event"",""trial"",""time""
""fullscreenenter"",""5"",""15337""
","
","
","""event"",""trial"",""time""
""fullscreenenter"",""5"",""15337""
","
",348.0899999849498,NA,48,NA,NA,3000,1,"604.1649999970105,797.4000000103842,1300.7400000060443",484848,images/tutgreenplanet.jpg,images/tutalien1,images/tutalien2,null,images/tutalien1,images/nothing.png,NA,practice,null,NA,NA,NA,NA,sub79
d3-animate-choice,39,226563,0.0-39.0,TRUE,TRUE,TRUE,TRUE,"""event"",""trial"",""time""
""fullscreenenter"",""5"",""15337""
","
","
","""event"",""trial"",""time""
""fullscreenenter"",""5"",""15337""
","
",234.85999999684282,NA,49,NA,NA,3000,1,"513.2600000069942,770.3200000105426",4949,images/tutgreenplanet.jpg,images/tutalien1,images/tutalien2,null,images/tutalien2,images/t.png,NA,practice,null,NA,NA,NA,NA,sub79
d3-animate-choice,40,228999,0.0-40.0,TRUE,TRUE,TRUE,TRUE,"""event"",""trial"",""time""
""fullscreenenter"",""5"",""15337""
","
","
","""event"",""trial"",""time""
""fullscreenenter"",""5"",""15337""
","
",422.9300000006333,NA,49,NA,NA,3000,1,"695.4400000104215,957.0999999996275,1454.4300000125077",494949,images/tutgreenplanet.jpg,images/tutalien1,images/tutalien2,null,images/tutalien2,images/t.png,NA,practice,null,NA,NA,NA,NA,sub79
d3-animate-choice,41,231458,0.0-41.0,TRUE,TRUE,TRUE,TRUE,"""event"",""trial"",""time""
""fullscreenenter"",""5"",""15337""
","
","
","""event"",""trial"",""time""
""fullscreenenter"",""5"",""15337""
","
",446.7700000095647,NA,49,NA,NA,3000,1,"696.2900000216905,969.5400000200607,1232.8200000047218,2148.0650000157766",49494949,images/tutgreenplanet.jpg,images/tutalien1,images/tutalien2,null,images/tutalien2,images/t.png,NA,practice,null,NA,NA,NA,NA,sub79
d3-animate-choice,42,233808,0.0-42.0,TRUE,TRUE,TRUE,TRUE,"""event"",""trial"",""time""
""fullscreenenter"",""5"",""15337""
","
","
","""event"",""trial"",""time""
""fullscreenenter"",""5"",""15337""
","
",335.5650000157766,NA,49,NA,NA,3000,1,"614.640000014333,882.3100000154227,1143.3499999984633,2294.335000013234",49494949,images/tutgreenplanet.jpg,images/tutalien1,images/tutalien2,null,images/tutalien2,images/t.png,NA,practice,null,NA,NA,NA,NA,sub79
d3-animate-choice,43,236156,0.0-43.0,TRUE,TRUE,TRUE,TRUE,"""event"",""trial"",""time""
""fullscreenenter"",""5"",""15337""
","
","
","""event"",""trial"",""time""
""fullscreenenter"",""5"",""15337""
","
",336.3100000133272,NA,49,NA,NA,3000,1,"594.2750000103842,860.5450000031851,1136.659999989206,1419.7649999987334",49494949,images/tutgreenplanet.jpg,images/tutalien1,images/tutalien2,null,images/tutalien2,images/t.png,NA,practice,null,NA,NA,NA,NA,sub79
d3-instructions,44,248525,0.0-44.0,TRUE,TRUE,TRUE,TRUE,"""event"",""trial"",""time""
""fullscreenenter"",""5"",""15337""
","
","
","""event"",""trial"",""time""
""fullscreenenter"",""5"",""15337""
","
",NA,NA,NA,NA,NA,NA,NA,NA,NA,NA,NA,NA,NA,NA,NA,NA,NA,NA,NA,NA,NA,NA,sub79
d3-instructions,45,254242,0.0-45.0,TRUE,TRUE,TRUE,TRUE,"""event"",""trial"",""time""
""fullscreenenter"",""5"",""15337""
","
","
","""event"",""trial"",""time""
""fullscreenenter"",""5"",""15337""
","
",NA,NA,NA,NA,NA,NA,NA,NA,NA,NA,NA,NA,NA,NA,NA,NA,NA,NA,NA,NA,NA,NA,sub79
d3-instructions,46,259152,0.0-46.0,TRUE,TRUE,TRUE,TRUE,"""event"",""trial"",""time""
""fullscreenenter"",""5"",""15337""
","
","
","""event"",""trial"",""time""
""fullscreenenter"",""5"",""15337""
","
",NA,NA,NA,NA,NA,NA,NA,NA,NA,NA,NA,NA,NA,NA,NA,NA,NA,NA,NA,NA,NA,NA,sub79
d3-instructions,47,276657,0.0-47.0,TRUE,TRUE,TRUE,TRUE,"""event"",""trial"",""time""
""fullscreenenter"",""5"",""15337""
","
","
","""event"",""trial"",""time""
""fullscreenenter"",""5"",""15337""
","
",NA,NA,NA,NA,NA,NA,NA,NA,NA,NA,NA,NA,NA,NA,NA,NA,NA,NA,NA,NA,NA,NA,sub79
d3-instructions,48,286493,0.0-48.0,TRUE,TRUE,TRUE,TRUE,"""event"",""trial"",""time""
""fullscreenenter"",""5"",""15337""
","
","
","""event"",""trial"",""time""
""fullscreenenter"",""5"",""15337""
","
",NA,NA,NA,NA,NA,NA,NA,NA,NA,NA,NA,NA,NA,NA,NA,NA,NA,NA,NA,NA,NA,NA,sub79
d3-instructions,49,297436,0.0-49.0,TRUE,TRUE,TRUE,TRUE,"""event"",""trial"",""time""
""fullscreenenter"",""5"",""15337""
","
","
","""event"",""trial"",""time""
""fullscreenenter"",""5"",""15337""
","
",NA,NA,NA,NA,NA,NA,NA,NA,NA,NA,NA,NA,NA,NA,NA,NA,NA,NA,NA,NA,NA,NA,sub79
d3-instructions,50,306162,0.0-50.0,TRUE,TRUE,TRUE,TRUE,"""event"",""trial"",""time""
""fullscreenenter"",""5"",""15337""
","
","
","""event"",""trial"",""time""
""fullscreenenter"",""5"",""15337""
","
",NA,NA,NA,NA,NA,NA,NA,NA,NA,NA,NA,NA,NA,NA,NA,NA,NA,NA,NA,NA,NA,NA,sub79
d3-instructions,51,309920,0.0-51.0,TRUE,TRUE,TRUE,TRUE,"""event"",""trial"",""time""
""fullscreenenter"",""5"",""15337""
","
","
","""event"",""trial"",""time""
""fullscreenenter"",""5"",""15337""
","
",NA,NA,NA,NA,NA,NA,NA,NA,NA,NA,NA,NA,NA,NA,NA,NA,NA,NA,NA,NA,NA,NA,sub79
d3-instructions,52,312520,0.0-52.0,TRUE,TRUE,TRUE,TRUE,"""event"",""trial"",""time""
""fullscreenenter"",""5"",""15337""
","
","
","""event"",""trial"",""time""
""fullscreenenter"",""5"",""15337""
","
",NA,NA,NA,NA,NA,NA,NA,NA,NA,NA,NA,NA,NA,NA,NA,NA,NA,NA,NA,NA,NA,NA,sub79
d3-instructions,53,325917,0.0-53.0,TRUE,TRUE,TRUE,TRUE,"""event"",""trial"",""time""
""fullscreenenter"",""5"",""15337""
","
","
","""event"",""trial"",""time""
""fullscreenenter"",""5"",""15337""
","
",NA,NA,NA,NA,NA,NA,NA,NA,NA,NA,NA,NA,NA,NA,NA,NA,NA,NA,NA,NA,NA,NA,sub79
d3-instructions,54,338144,0.0-54.0,TRUE,TRUE,TRUE,TRUE,"""event"",""trial"",""time""
""fullscreenenter"",""5"",""15337""
","
","
","""event"",""trial"",""time""
""fullscreenenter"",""5"",""15337""
","
",NA,NA,NA,NA,NA,NA,NA,NA,NA,NA,NA,NA,NA,NA,NA,NA,NA,NA,NA,NA,NA,NA,sub79
d3-instructions,55,348041,0.0-55.0,TRUE,TRUE,TRUE,TRUE,"""event"",""trial"",""time""
""fullscreenenter"",""5"",""15337""
","
","
","""event"",""trial"",""time""
""fullscreenenter"",""5"",""15337""
","
",NA,NA,NA,NA,NA,NA,NA,NA,NA,NA,NA,NA,NA,NA,NA,NA,NA,NA,NA,NA,NA,NA,sub79
d3-instructions,56,358800,0.0-56.0,TRUE,TRUE,TRUE,TRUE,"""event"",""trial"",""time""
""fullscreenenter"",""5"",""15337""
","
","
","""event"",""trial"",""time""
""fullscreenenter"",""5"",""15337""
","
",NA,NA,NA,NA,NA,NA,NA,NA,NA,NA,NA,NA,NA,NA,NA,NA,NA,NA,NA,NA,NA,NA,sub79
d3-instructions,57,373342,0.0-57.0,TRUE,TRUE,TRUE,TRUE,"""event"",""trial"",""time""
""fullscreenenter"",""5"",""15337""
","
","
","""event"",""trial"",""time""
""fullscreenenter"",""5"",""15337""
","
",NA,NA,NA,NA,NA,NA,NA,NA,NA,NA,NA,NA,NA,NA,NA,NA,NA,NA,NA,NA,NA,NA,sub79
d3-instructions,58,383944,0.0-58.0,TRUE,TRUE,TRUE,TRUE,"""event"",""trial"",""time""
""fullscreenenter"",""5"",""15337""
","
","
","""event"",""trial"",""time""
""fullscreenenter"",""5"",""15337""
","
",NA,NA,NA,NA,NA,NA,NA,NA,NA,NA,NA,NA,NA,NA,NA,NA,NA,NA,NA,NA,NA,NA,sub79
d3-instructions,59,389335,0.0-59.0,TRUE,TRUE,TRUE,TRUE,"""event"",""trial"",""time""
""fullscreenenter"",""5"",""15337""
","
","
","""event"",""trial"",""time""
""fullscreenenter"",""5"",""15337""
","
",NA,NA,NA,NA,NA,NA,NA,NA,NA,NA,NA,NA,NA,NA,NA,NA,NA,NA,NA,NA,NA,NA,sub79
d3-instructions,60,397251,0.0-60.0,TRUE,TRUE,TRUE,TRUE,"""event"",""trial"",""time""
""fullscreenenter"",""5"",""15337""
","
","
","""event"",""trial"",""time""
""fullscreenenter"",""5"",""15337""
","
",NA,NA,NA,NA,NA,NA,NA,NA,NA,NA,NA,NA,NA,NA,NA,NA,NA,NA,NA,NA,NA,NA,sub79
d3-animate-choice,61,401265,0.0-61.0-0.0,TRUE,TRUE,TRUE,TRUE,"""event"",""trial"",""time""
""fullscreenenter"",""5"",""15337""
","
","
","""event"",""trial"",""time""
""fullscreenenter"",""5"",""15337""
","
",2622.6049999822862,NA,48,NA,NA,3000,1,3732.9200000094716,48,images/earth.jpg,images/tutrocket1,images/tutrocket2,null,images/tutrocket1,NA,1,practice,null,2,NA,NA,NA,sub79
d3-animate-choice,62,404860,0.0-61.0-1.0,TRUE,TRUE,TRUE,TRUE,"""event"",""trial"",""time""
""fullscreenenter"",""5"",""15337""
","
","
","""event"",""trial"",""time""
""fullscreenenter"",""5"",""15337""
","
",1576.435000024503,NA,49,NA,NA,3000,1,"2329.34500000556,2856.935000017984,3048.5500000067987",494949,images/tutgreenplanet.jpg,images/tutalien2,images/tutalien1,images/tutrocket1,images/tutalien1,images/nothing.png,2,practice,true,1,common,0,2020-06-16T23:23:53Z,sub79
two-step-fixation,63,405870,0.0-61.0-2.0,TRUE,TRUE,TRUE,TRUE,"""event"",""trial"",""time""
""fullscreenenter"",""5"",""15337""
","
","
","""event"",""trial"",""time""
""fullscreenenter"",""5"",""15337""
","
",NA,images/earth.jpg,NA,NA,NA,NA,NA,NA,NA,NA,NA,NA,NA,NA,NA,fixation,NA,NA,NA,NA,NA,NA,sub79
d3-animate-choice,64,409482,0.0-61.0-0.1,TRUE,TRUE,TRUE,TRUE,"""event"",""trial"",""time""
""fullscreenenter"",""5"",""15337""
","
","
","""event"",""trial"",""time""
""fullscreenenter"",""5"",""15337""
","
",1599.4000000064261,NA,49,NA,NA,3000,1,NA,NA,images/earth.jpg,images/tutrocket1,images/tutrocket2,null,images/tutrocket2,NA,1,practice,null,1,NA,NA,NA,sub79
d3-animate-choice,65,412728,0.0-61.0-1.1,TRUE,TRUE,TRUE,TRUE,"""event"",""trial"",""time""
""fullscreenenter"",""5"",""15337""
","
","
","""event"",""trial"",""time""
""fullscreenenter"",""5"",""15337""
","
",1232.1099999826401,NA,49,NA,NA,3000,1,2063.9349999837577,49,images/tutgreenplanet.jpg,images/tutalien2,images/tutalien1,images/tutrocket2,images/tutalien1,images/nothing.png,2,practice,false,1,rare,0,2020-06-16T23:24:01Z,sub79
two-step-fixation,66,413732,0.0-61.0-2.1,TRUE,TRUE,TRUE,TRUE,"""event"",""trial"",""time""
""fullscreenenter"",""5"",""15337""
","
","
","""event"",""trial"",""time""
""fullscreenenter"",""5"",""15337""
","
",NA,images/earth.jpg,NA,NA,NA,NA,NA,NA,NA,NA,NA,NA,NA,NA,NA,fixation,NA,NA,NA,NA,NA,NA,sub79
d3-animate-choice,67,416847,0.0-61.0-0.2,TRUE,TRUE,TRUE,TRUE,"""event"",""trial"",""time""
""fullscreenenter"",""5"",""15337""
","
","
","""event"",""trial"",""time""
""fullscreenenter"",""5"",""15337""
","
",1101.9049999886192,NA,48,NA,NA,3000,1,NA,NA,images/earth.jpg,images/tutrocket1,images/tutrocket2,null,images/tutrocket1,NA,1,practice,null,2,NA,NA,NA,sub79
d3-animate-choice,68,419318,0.0-61.0-1.2,TRUE,TRUE,TRUE,TRUE,"""event"",""trial"",""time""
""fullscreenenter"",""5"",""15337""
","
","
","""event"",""trial"",""time""
""fullscreenenter"",""5"",""15337""
","
",457.18500000657514,NA,48,NA,NA,3000,1,NA,NA,images/tutyellowplanet.jpg,images/tutalien4,images/tutalien3,images/tutrocket1,images/tutalien4,images/t.png,2,practice,false,2,rare,1,2020-06-16T23:24:08Z,sub79
two-step-fixation,69,420327,0.0-61.0-2.2,TRUE,TRUE,TRUE,TRUE,"""event"",""trial"",""time""
""fullscreenenter"",""5"",""15337""
","
","
","""event"",""trial"",""time""
""fullscreenenter"",""5"",""15337""
","
",NA,images/earth.jpg,NA,NA,NA,NA,NA,NA,NA,NA,NA,NA,NA,NA,NA,fixation,NA,NA,NA,NA,NA,NA,sub79
d3-animate-choice,70,423394,0.0-61.0-0.3,TRUE,TRUE,TRUE,TRUE,"""event"",""trial"",""time""
""fullscreenenter"",""5"",""15337""
","
","
","""event"",""trial"",""time""
""fullscreenenter"",""5"",""15337""
","
",1048.1200000212993,NA,48,NA,NA,3000,1,NA,NA,images/earth.jpg,images/tutrocket1,images/tutrocket2,null,images/tutrocket1,NA,1,practice,null,2,NA,NA,NA,sub79
d3-animate-choice,71,425786,0.0-61.0-1.3,TRUE,TRUE,TRUE,TRUE,"""event"",""trial"",""time""
""fullscreenenter"",""5"",""15337""
","
","
","""event"",""trial"",""time""
""fullscreenenter"",""5"",""15337""
","
",378.39999998686835,NA,48,NA,NA,3000,1,NA,NA,images/tutgreenplanet.jpg,images/tutalien2,images/tutalien1,images/tutrocket1,images/tutalien2,images/nothing.png,2,practice,true,2,common,0,2020-06-16T23:24:14Z,sub79
two-step-fixation,72,426794,0.0-61.0-2.3,TRUE,TRUE,TRUE,TRUE,"""event"",""trial"",""time""
""fullscreenenter"",""5"",""15337""
","
","
","""event"",""trial"",""time""
""fullscreenenter"",""5"",""15337""
","
",NA,images/earth.jpg,NA,NA,NA,NA,NA,NA,NA,NA,NA,NA,NA,NA,NA,fixation,NA,NA,NA,NA,NA,NA,sub79
d3-animate-choice,73,429817,0.0-61.0-0.4,TRUE,TRUE,TRUE,TRUE,"""event"",""trial"",""time""
""fullscreenenter"",""5"",""15337""
","
","
","""event"",""trial"",""time""
""fullscreenenter"",""5"",""15337""
","
",1008.6449999944307,NA,48,NA,NA,3000,1,NA,NA,images/earth.jpg,images/tutrocket1,images/tutrocket2,null,images/tutrocket1,NA,1,practice,null,2,NA,NA,NA,sub79
d3-animate-choice,74,432630,0.0-61.0-1.4,TRUE,TRUE,TRUE,TRUE,"""event"",""trial"",""time""
""fullscreenenter"",""5"",""15337""
","
","
","""event"",""trial"",""time""
""fullscreenenter"",""5"",""15337""
","
",793.4149999928195,NA,48,NA,NA,3000,1,NA,NA,images/tutyellowplanet.jpg,images/tutalien4,images/tutalien3,images/tutrocket1,images/tutalien4,images/t.png,2,practice,false,2,rare,1,2020-06-16T23:24:21Z,sub79
two-step-fixation,75,433638,0.0-61.0-2.4,TRUE,TRUE,TRUE,TRUE,"""event"",""trial"",""time""
""fullscreenenter"",""5"",""15337""
","
","
","""event"",""trial"",""time""
""fullscreenenter"",""5"",""15337""
","
",NA,images/earth.jpg,NA,NA,NA,NA,NA,NA,NA,NA,NA,NA,NA,NA,NA,fixation,NA,NA,NA,NA,NA,NA,sub79
d3-animate-choice,76,436260,0.0-61.0-0.5,TRUE,TRUE,TRUE,TRUE,"""event"",""trial"",""time""
""fullscreenenter"",""5"",""15337""
","
","
","""event"",""trial"",""time""
""fullscreenenter"",""5"",""15337""
","
",606.1300000001211,NA,48,NA,NA,3000,1,NA,NA,images/earth.jpg,images/tutrocket1,images/tutrocket2,null,images/tutrocket1,NA,1,practice,null,2,NA,NA,NA,sub79
d3-animate-choice,77,439172,0.0-61.0-1.5,TRUE,TRUE,TRUE,TRUE,"""event"",""trial"",""time""
""fullscreenenter"",""5"",""15337""
","
","
","""event"",""trial"",""time""
""fullscreenenter"",""5"",""15337""
","
",898.4899999923073,NA,49,NA,NA,3000,1,NA,NA,images/tutgreenplanet.jpg,images/tutalien2,images/tutalien1,images/tutrocket1,images/tutalien1,images/nothing.png,2,practice,true,1,common,0,2020-06-16T23:24:28Z,sub79
two-step-fixation,78,440182,0.0-61.0-2.5,TRUE,TRUE,TRUE,TRUE,"""event"",""trial"",""time""
""fullscreenenter"",""5"",""15337""
","
","
","""event"",""trial"",""time""
""fullscreenenter"",""5"",""15337""
","
",NA,images/earth.jpg,NA,NA,NA,NA,NA,NA,NA,NA,NA,NA,NA,NA,NA,fixation,NA,NA,NA,NA,NA,NA,sub79
d3-animate-choice,79,442811,0.0-61.0-0.6,TRUE,TRUE,TRUE,TRUE,"""event"",""trial"",""time""
""fullscreenenter"",""5"",""15337""
","
","
","""event"",""trial"",""time""
""fullscreenenter"",""5"",""15337""
","
",612.1550000098068,NA,49,NA,NA,3000,1,NA,NA,images/earth.jpg,images/tutrocket1,images/tutrocket2,null,images/tutrocket2,NA,1,practice,null,1,NA,NA,NA,sub79
d3-animate-choice,80,445794,0.0-61.0-1.6,TRUE,TRUE,TRUE,TRUE,"""event"",""trial"",""time""
""fullscreenenter"",""5"",""15337""
","
","
","""event"",""trial"",""time""
""fullscreenenter"",""5"",""15337""
","
",967.160000000149,NA,48,NA,NA,3000,1,NA,NA,images/tutyellowplanet.jpg,images/tutalien4,images/tutalien3,images/tutrocket2,images/tutalien4,images/t.png,2,practice,true,2,common,1,2020-06-16T23:24:34Z,sub79
two-step-fixation,81,446804,0.0-61.0-2.6,TRUE,TRUE,TRUE,TRUE,"""event"",""trial"",""time""
""fullscreenenter"",""5"",""15337""
","
","
","""event"",""trial"",""time""
""fullscreenenter"",""5"",""15337""
","
",NA,images/earth.jpg,NA,NA,NA,NA,NA,NA,NA,NA,NA,NA,NA,NA,NA,fixation,NA,NA,NA,NA,NA,NA,sub79
d3-animate-choice,82,449676,0.0-61.0-0.7,TRUE,TRUE,TRUE,TRUE,"""event"",""trial"",""time""
""fullscreenenter"",""5"",""15337""
","
","
","""event"",""trial"",""time""
""fullscreenenter"",""5"",""15337""
","
",852.5950000039302,NA,48,NA,NA,3000,1,NA,NA,images/earth.jpg,images/tutrocket1,images/tutrocket2,null,images/tutrocket1,NA,1,practice,null,2,NA,NA,NA,sub79
d3-animate-choice,83,452803,0.0-61.0-1.7,TRUE,TRUE,TRUE,TRUE,"""event"",""trial"",""time""
""fullscreenenter"",""5"",""15337""
","
","
","""event"",""trial"",""time""
""fullscreenenter"",""5"",""15337""
","
",1112.074999982724,NA,48,NA,NA,3000,1,NA,NA,images/tutgreenplanet.jpg,images/tutalien2,images/tutalien1,images/tutrocket1,images/tutalien2,images/nothing.png,2,practice,true,2,common,0,2020-06-16T23:24:41Z,sub79
two-step-fixation,84,453810,0.0-61.0-2.7,TRUE,TRUE,TRUE,TRUE,"""event"",""trial"",""time""
""fullscreenenter"",""5"",""15337""
","
","
","""event"",""trial"",""time""
""fullscreenenter"",""5"",""15337""
","
",NA,images/earth.jpg,NA,NA,NA,NA,NA,NA,NA,NA,NA,NA,NA,NA,NA,fixation,NA,NA,NA,NA,NA,NA,sub79
d3-animate-choice,85,456306,0.0-61.0-0.8,TRUE,TRUE,TRUE,TRUE,"""event"",""trial"",""time""
""fullscreenenter"",""5"",""15337""
","
","
","""event"",""trial"",""time""
""fullscreenenter"",""5"",""15337""
","
",477.1900000050664,NA,49,NA,NA,3000,1,NA,NA,images/earth.jpg,images/tutrocket1,images/tutrocket2,null,images/tutrocket2,NA,1,practice,null,1,NA,NA,NA,sub79
d3-animate-choice,86,459399,0.0-61.0-1.8,TRUE,TRUE,TRUE,TRUE,"""event"",""trial"",""time""
""fullscreenenter"",""5"",""15337""
","
","
","""event"",""trial"",""time""
""fullscreenenter"",""5"",""15337""
","
",1077.0600000105333,NA,49,NA,NA,3000,1,NA,NA,images/tutgreenplanet.jpg,images/tutalien2,images/tutalien1,images/tutrocket2,images/tutalien1,images/nothing.png,2,practice,false,1,rare,0,2020-06-16T23:24:48Z,sub79
two-step-fixation,87,460406,0.0-61.0-2.8,TRUE,TRUE,TRUE,TRUE,"""event"",""trial"",""time""
""fullscreenenter"",""5"",""15337""
","
","
","""event"",""trial"",""time""
""fullscreenenter"",""5"",""15337""
","
",NA,images/earth.jpg,NA,NA,NA,NA,NA,NA,NA,NA,NA,NA,NA,NA,NA,fixation,NA,NA,NA,NA,NA,NA,sub79
d3-animate-choice,88,463413,0.0-61.0-0.9,TRUE,TRUE,TRUE,TRUE,"""event"",""trial"",""time""
""fullscreenenter"",""5"",""15337""
","
","
","""event"",""trial"",""time""
""fullscreenenter"",""5"",""15337""
","
",992.0699999784119,NA,48,NA,NA,3000,1,NA,NA,images/earth.jpg,images/tutrocket1,images/tutrocket2,null,images/tutrocket1,NA,1,practice,null,2,NA,NA,NA,sub79
d3-animate-choice,89,467057,0.0-61.0-1.9,TRUE,TRUE,TRUE,TRUE,"""event"",""trial"",""time""
""fullscreenenter"",""5"",""15337""
","
","
","""event"",""trial"",""time""
""fullscreenenter"",""5"",""15337""
","
",1630.8749999734573,NA,49,NA,NA,3000,1,NA,NA,images/tutgreenplanet.jpg,images/tutalien2,images/tutalien1,images/tutrocket1,images/tutalien1,images/nothing.png,2,practice,true,1,common,0,2020-06-16T23:24:56Z,sub79
two-step-fixation,90,468065,0.0-61.0-2.9,TRUE,TRUE,TRUE,TRUE,"""event"",""trial"",""time""
""fullscreenenter"",""5"",""15337""
","
","
","""event"",""trial"",""time""
""fullscreenenter"",""5"",""15337""
","
",NA,images/earth.jpg,NA,NA,NA,NA,NA,NA,NA,NA,NA,NA,NA,NA,NA,fixation,NA,NA,NA,NA,NA,NA,sub79
d3-animate-choice,91,470398,0.0-61.0-0.10,TRUE,TRUE,TRUE,TRUE,"""event"",""trial"",""time""
""fullscreenenter"",""5"",""15337""
","
","
","""event"",""trial"",""time""
""fullscreenenter"",""5"",""15337""
","
",318.0200000060722,NA,48,NA,NA,3000,1,NA,NA,images/earth.jpg,images/tutrocket1,images/tutrocket2,null,images/tutrocket1,NA,1,practice,null,2,NA,NA,NA,sub79
d3-animate-choice,92,473151,0.0-61.0-1.10,TRUE,TRUE,TRUE,TRUE,"""event"",""trial"",""time""
""fullscreenenter"",""5"",""15337""
","
","
","""event"",""trial"",""time""
""fullscreenenter"",""5"",""15337""
","
",740.9500000067055,NA,49,NA,NA,3000,1,NA,NA,images/tutgreenplanet.jpg,images/tutalien2,images/tutalien1,images/tutrocket1,images/tutalien1,images/nothing.png,2,practice,true,1,common,0,2020-06-16T23:25:02Z,sub79
two-step-fixation,93,474158,0.0-61.0-2.10,TRUE,TRUE,TRUE,TRUE,"""event"",""trial"",""time""
""fullscreenenter"",""5"",""15337""
","
","
","""event"",""trial"",""time""
""fullscreenenter"",""5"",""15337""
","
",NA,images/earth.jpg,NA,NA,NA,NA,NA,NA,NA,NA,NA,NA,NA,NA,NA,fixation,NA,NA,NA,NA,NA,NA,sub79
d3-animate-choice,94,476449,0.0-61.0-0.11,TRUE,TRUE,TRUE,TRUE,"""event"",""trial"",""time""
""fullscreenenter"",""5"",""15337""
","
","
","""event"",""trial"",""time""
""fullscreenenter"",""5"",""15337""
","
",273.05499999783933,NA,48,NA,NA,3000,1,NA,NA,images/earth.jpg,images/tutrocket1,images/tutrocket2,null,images/tutrocket1,NA,1,practice,null,2,NA,NA,NA,sub79
d3-animate-choice,95,479370,0.0-61.0-1.11,TRUE,TRUE,TRUE,TRUE,"""event"",""trial"",""time""
""fullscreenenter"",""5"",""15337""
","
","
","""event"",""trial"",""time""
""fullscreenenter"",""5"",""15337""
","
",908.3650000102352,NA,49,NA,NA,3000,1,NA,NA,images/tutgreenplanet.jpg,images/tutalien2,images/tutalien1,images/tutrocket1,images/tutalien1,images/nothing.png,2,practice,true,1,common,0,2020-06-16T23:25:08Z,sub79
two-step-fixation,96,480375,0.0-61.0-2.11,TRUE,TRUE,TRUE,TRUE,"""event"",""trial"",""time""
""fullscreenenter"",""5"",""15337""
","
","
","""event"",""trial"",""time""
""fullscreenenter"",""5"",""15337""
","
",NA,images/earth.jpg,NA,NA,NA,NA,NA,NA,NA,NA,NA,NA,NA,NA,NA,fixation,NA,NA,NA,NA,NA,NA,sub79
d3-animate-choice,97,482711,0.0-61.0-0.12,TRUE,TRUE,TRUE,TRUE,"""event"",""trial"",""time""
""fullscreenenter"",""5"",""15337""
","
","
","""event"",""trial"",""time""
""fullscreenenter"",""5"",""15337""
","
",322.2700000042096,NA,49,NA,NA,3000,1,NA,NA,images/earth.jpg,images/tutrocket1,images/tutrocket2,null,images/tutrocket2,NA,1,practice,null,1,NA,NA,NA,sub79
d3-animate-choice,98,485502,0.0-61.0-1.12,TRUE,TRUE,TRUE,TRUE,"""event"",""trial"",""time""
""fullscreenenter"",""5"",""15337""
","
","
","""event"",""trial"",""time""
""fullscreenenter"",""5"",""15337""
","
",777.3949999827892,NA,48,NA,NA,3000,1,NA,NA,images/tutgreenplanet.jpg,images/tutalien2,images/tutalien1,images/tutrocket2,images/tutalien2,images/nothing.png,2,practice,false,2,rare,0,2020-06-16T23:25:14Z,sub79
two-step-fixation,99,486511,0.0-61.0-2.12,TRUE,TRUE,TRUE,TRUE,"""event"",""trial"",""time""
""fullscreenenter"",""5"",""15337""
","
","
","""event"",""trial"",""time""
""fullscreenenter"",""5"",""15337""
","
",NA,images/earth.jpg,NA,NA,NA,NA,NA,NA,NA,NA,NA,NA,NA,NA,NA,fixation,NA,NA,NA,NA,NA,NA,sub79
d3-animate-choice,100,488800,0.0-61.0-0.13,TRUE,TRUE,TRUE,TRUE,"""event"",""trial"",""time""
""fullscreenenter"",""5"",""15337""
","
","
","""event"",""trial"",""time""
""fullscreenenter"",""5"",""15337""
","
",274.440000008326,NA,49,NA,NA,3000,1,NA,NA,images/earth.jpg,images/tutrocket1,images/tutrocket2,null,images/tutrocket2,NA,1,practice,null,1,NA,NA,NA,sub79
d3-animate-choice,101,491587,0.0-61.0-1.13,TRUE,TRUE,TRUE,TRUE,"""event"",""trial"",""time""
""fullscreenenter"",""5"",""15337""
","
","
","""event"",""trial"",""time""
""fullscreenenter"",""5"",""15337""
","
",772.8050000150688,NA,48,NA,NA,3000,1,NA,NA,images/tutyellowplanet.jpg,images/tutalien4,images/tutalien3,images/tutrocket2,images/tutalien4,images/t.png,2,practice,true,2,common,1,2020-06-16T23:25:20Z,sub79
two-step-fixation,102,492594,0.0-61.0-2.13,TRUE,TRUE,TRUE,TRUE,"""event"",""trial"",""time""
""fullscreenenter"",""5"",""15337""
","
","
","""event"",""trial"",""time""
""fullscreenenter"",""5"",""15337""
","
",NA,images/earth.jpg,NA,NA,NA,NA,NA,NA,NA,NA,NA,NA,NA,NA,NA,fixation,NA,NA,NA,NA,NA,NA,sub79
d3-animate-choice,103,494965,0.0-61.0-0.14,TRUE,TRUE,TRUE,TRUE,"""event"",""trial"",""time""
""fullscreenenter"",""5"",""15337""
","
","
","""event"",""trial"",""time""
""fullscreenenter"",""5"",""15337""
","
",355.0749999994878,NA,49,NA,NA,3000,1,NA,NA,images/earth.jpg,images/tutrocket1,images/tutrocket2,null,images/tutrocket2,NA,1,practice,null,1,NA,NA,NA,sub79
d3-animate-choice,104,497549,0.0-61.0-1.14,TRUE,TRUE,TRUE,TRUE,"""event"",""trial"",""time""
""fullscreenenter"",""5"",""15337""
","
","
","""event"",""trial"",""time""
""fullscreenenter"",""5"",""15337""
","
",568.6400000122376,NA,48,NA,NA,3000,1,NA,NA,images/tutyellowplanet.jpg,images/tutalien4,images/tutalien3,images/tutrocket2,images/tutalien4,images/t.png,2,practice,true,2,common,1,2020-06-16T23:25:26Z,sub79
two-step-fixation,105,498558,0.0-61.0-2.14,TRUE,TRUE,TRUE,TRUE,"""event"",""trial"",""time""
""fullscreenenter"",""5"",""15337""
","
","
","""event"",""trial"",""time""
""fullscreenenter"",""5"",""15337""
","
",NA,images/earth.jpg,NA,NA,NA,NA,NA,NA,NA,NA,NA,NA,NA,NA,NA,fixation,NA,NA,NA,NA,NA,NA,sub79
d3-animate-choice,106,500923,0.0-61.0-0.15,TRUE,TRUE,TRUE,TRUE,"""event"",""trial"",""time""
""fullscreenenter"",""5"",""15337""
","
","
","""event"",""trial"",""time""
""fullscreenenter"",""5"",""15337""
","
",352.75999997975305,NA,49,NA,NA,3000,1,NA,NA,images/earth.jpg,images/tutrocket1,images/tutrocket2,null,images/tutrocket2,NA,1,practice,null,1,NA,NA,NA,sub79
d3-animate-choice,107,503610,0.0-61.0-1.15,TRUE,TRUE,TRUE,TRUE,"""event"",""trial"",""time""
""fullscreenenter"",""5"",""15337""
","
","
","""event"",""trial"",""time""
""fullscreenenter"",""5"",""15337""
","
",676.034999982221,NA,48,NA,NA,3000,1,NA,NA,images/tutyellowplanet.jpg,images/tutalien4,images/tutalien3,images/tutrocket2,images/tutalien4,images/nothing.png,2,practice,true,2,common,0,2020-06-16T23:25:32Z,sub79
two-step-fixation,108,504620,0.0-61.0-2.15,TRUE,TRUE,TRUE,TRUE,"""event"",""trial"",""time""
""fullscreenenter"",""5"",""15337""
","
","
","""event"",""trial"",""time""
""fullscreenenter"",""5"",""15337""
","
",NA,images/earth.jpg,NA,NA,NA,NA,NA,NA,NA,NA,NA,NA,NA,NA,NA,fixation,NA,NA,NA,NA,NA,NA,sub79
d3-animate-choice,109,507025,0.0-61.0-0.16,TRUE,TRUE,TRUE,TRUE,"""event"",""trial"",""time""
""fullscreenenter"",""5"",""15337""
","
","
","""event"",""trial"",""time""
""fullscreenenter"",""5"",""15337""
","
",392.89000001735985,NA,49,NA,NA,3000,1,NA,NA,images/earth.jpg,images/tutrocket1,images/tutrocket2,null,images/tutrocket2,NA,1,practice,null,1,NA,NA,NA,sub79
d3-animate-choice,110,509574,0.0-61.0-1.16,TRUE,TRUE,TRUE,TRUE,"""event"",""trial"",""time""
""fullscreenenter"",""5"",""15337""
","
","
","""event"",""trial"",""time""
""fullscreenenter"",""5"",""15337""
","
",535.2950000087731,NA,48,NA,NA,3000,1,NA,NA,images/tutyellowplanet.jpg,images/tutalien4,images/tutalien3,images/tutrocket2,images/tutalien4,images/nothing.png,2,practice,true,2,common,0,2020-06-16T23:25:38Z,sub79
two-step-fixation,111,510584,0.0-61.0-2.16,TRUE,TRUE,TRUE,TRUE,"""event"",""trial"",""time""
""fullscreenenter"",""5"",""15337""
","
","
","""event"",""trial"",""time""
""fullscreenenter"",""5"",""15337""
","
",NA,images/earth.jpg,NA,NA,NA,NA,NA,NA,NA,NA,NA,NA,NA,NA,NA,fixation,NA,NA,NA,NA,NA,NA,sub79
d3-animate-choice,112,512607,0.0-61.0-0.17,TRUE,TRUE,TRUE,TRUE,"""event"",""trial"",""time""
""fullscreenenter"",""5"",""15337""
","
","
","""event"",""trial"",""time""
""fullscreenenter"",""5"",""15337""
","
",12.759999983245507,NA,49,NA,NA,3000,1,649.0749999938998,48,images/earth.jpg,images/tutrocket1,images/tutrocket2,null,images/tutrocket2,NA,1,practice,null,1,NA,NA,NA,sub79
d3-animate-choice,113,514788,0.0-61.0-1.17,TRUE,TRUE,TRUE,TRUE,"""event"",""trial"",""time""
""fullscreenenter"",""5"",""15337""
","
","
","""event"",""trial"",""time""
""fullscreenenter"",""5"",""15337""
","
",166.174999991199,NA,49,NA,NA,3000,1,NA,NA,images/tutyellowplanet.jpg,images/tutalien4,images/tutalien3,images/tutrocket2,images/tutalien3,images/nothing.png,2,practice,true,1,common,0,2020-06-16T23:25:43Z,sub79
two-step-fixation,114,515794,0.0-61.0-2.17,TRUE,TRUE,TRUE,TRUE,"""event"",""trial"",""time""
""fullscreenenter"",""5"",""15337""
","
","
","""event"",""trial"",""time""
""fullscreenenter"",""5"",""15337""
","
",NA,images/earth.jpg,NA,NA,NA,NA,NA,NA,NA,NA,NA,NA,NA,NA,NA,fixation,NA,NA,NA,NA,NA,NA,sub79
d3-animate-choice,115,518086,0.0-61.0-0.18,TRUE,TRUE,TRUE,TRUE,"""event"",""trial"",""time""
""fullscreenenter"",""5"",""15337""
","
","
","""event"",""trial"",""time""
""fullscreenenter"",""5"",""15337""
","
",277.0099999906961,NA,49,NA,NA,3000,1,NA,NA,images/earth.jpg,images/tutrocket1,images/tutrocket2,null,images/tutrocket2,NA,1,practice,null,1,NA,NA,NA,sub79
d3-animate-choice,116,520544,0.0-61.0-1.18,TRUE,TRUE,TRUE,TRUE,"""event"",""trial"",""time""
""fullscreenenter"",""5"",""15337""
","
","
","""event"",""trial"",""time""
""fullscreenenter"",""5"",""15337""
","
",444.26499999826774,NA,48,NA,NA,3000,1,NA,NA,images/tutyellowplanet.jpg,images/tutalien4,images/tutalien3,images/tutrocket2,images/tutalien4,images/t.png,2,practice,true,2,common,1,2020-06-16T23:25:49Z,sub79
two-step-fixation,117,521549,0.0-61.0-2.18,TRUE,TRUE,TRUE,TRUE,"""event"",""trial"",""time""
""fullscreenenter"",""5"",""15337""
","
","
","""event"",""trial"",""time""
""fullscreenenter"",""5"",""15337""
","
",NA,images/earth.jpg,NA,NA,NA,NA,NA,NA,NA,NA,NA,NA,NA,NA,NA,fixation,NA,NA,NA,NA,NA,NA,sub79
d3-animate-choice,118,523914,0.0-61.0-0.19,TRUE,TRUE,TRUE,TRUE,"""event"",""trial"",""time""
""fullscreenenter"",""5"",""15337""
","
","
","""event"",""trial"",""time""
""fullscreenenter"",""5"",""15337""
","
",353.1799999764189,NA,49,NA,NA,3000,1,NA,NA,images/earth.jpg,images/tutrocket1,images/tutrocket2,null,images/tutrocket2,NA,1,practice,null,1,NA,NA,NA,sub79
d3-animate-choice,119,527332,0.0-61.0-1.19,TRUE,TRUE,TRUE,TRUE,"""event"",""trial"",""time""
""fullscreenenter"",""5"",""15337""
","
","
","""event"",""trial"",""time""
""fullscreenenter"",""5"",""15337""
","
",1405.8300000033341,NA,48,NA,NA,3000,1,NA,NA,images/tutgreenplanet.jpg,images/tutalien2,images/tutalien1,images/tutrocket2,images/tutalien2,images/nothing.png,2,practice,false,2,rare,0,2020-06-16T23:25:56Z,sub79
two-step-fixation,120,528342,0.0-61.0-2.19,TRUE,TRUE,TRUE,TRUE,"""event"",""trial"",""time""
""fullscreenenter"",""5"",""15337""
","
","
","""event"",""trial"",""time""
""fullscreenenter"",""5"",""15337""
","
",NA,images/earth.jpg,NA,NA,NA,NA,NA,NA,NA,NA,NA,NA,NA,NA,NA,fixation,NA,NA,NA,NA,NA,NA,sub79
d3-instructions,121,533115,0.0-62.0,TRUE,TRUE,TRUE,TRUE,"""event"",""trial"",""time""
""fullscreenenter"",""5"",""15337""
","
","
","""event"",""trial"",""time""
""fullscreenenter"",""5"",""15337""
","
",NA,NA,NA,NA,NA,NA,NA,NA,NA,NA,NA,NA,NA,NA,NA,NA,NA,NA,NA,NA,NA,NA,sub79
audio-keyboard-response,122,535411,0.0-63.0,TRUE,TRUE,TRUE,TRUE,"""event"",""trial"",""time""
""fullscreenenter"",""5"",""15337""
","
","
","""event"",""trial"",""time""
""fullscreenenter"",""5"",""15337""
","
",2283,audio/instructions/treasure_feedback.wav,32,NA,NA,NA,NA,NA,NA,NA,NA,NA,NA,NA,NA,NA,NA,NA,NA,NA,NA,NA,sub79
d3-instructions,123,552349,0.0-64.0,TRUE,TRUE,TRUE,TRUE,"""event"",""trial"",""time""
""fullscreenenter"",""5"",""15337""
","
","
","""event"",""trial"",""time""
""fullscreenenter"",""5"",""15337""
","
",NA,NA,NA,NA,NA,NA,NA,NA,NA,NA,NA,NA,NA,NA,NA,NA,NA,NA,NA,NA,NA,NA,sub79
d3-instructions,124,565791,0.0-65.0,TRUE,TRUE,TRUE,TRUE,"""event"",""trial"",""time""
""fullscreenenter"",""5"",""15337""
","
","
","""event"",""trial"",""time""
""fullscreenenter"",""5"",""15337""
","
",NA,NA,NA,NA,NA,NA,NA,NA,NA,NA,NA,NA,NA,NA,NA,NA,NA,NA,NA,NA,NA,NA,sub79
d3-instructions,125,593812,0.0-66.0,TRUE,TRUE,TRUE,TRUE,"""event"",""trial"",""time""
""fullscreenenter"",""5"",""15337""
","
","
","""event"",""trial"",""time""
""fullscreenenter"",""5"",""15337""
","
",NA,NA,NA,NA,NA,NA,NA,NA,NA,NA,NA,NA,NA,NA,NA,NA,NA,NA,NA,NA,NA,NA,sub79
d3-instructions,126,609633,0.0-67.0,TRUE,TRUE,TRUE,TRUE,"""event"",""trial"",""time""
""fullscreenenter"",""5"",""15337""
","
","
","""event"",""trial"",""time""
""fullscreenenter"",""5"",""15337""
","
",NA,NA,NA,NA,NA,NA,NA,NA,NA,NA,NA,NA,NA,NA,NA,NA,NA,NA,NA,NA,NA,NA,sub79
d3-instructions,127,613717,0.0-68.0,TRUE,TRUE,TRUE,TRUE,"""event"",""trial"",""time""
""fullscreenenter"",""5"",""15337""
","
","
","""event"",""trial"",""time""
""fullscreenenter"",""5"",""15337""
","
",NA,NA,NA,NA,NA,NA,NA,NA,NA,NA,NA,NA,NA,NA,NA,NA,NA,NA,NA,NA,NA,NA,sub79
instructions-quiz,128,616566,0.0-69.0,TRUE,TRUE,TRUE,TRUE,"""event"",""trial"",""time""
""fullscreenenter"",""5"",""15337""
","
","
","""event"",""trial"",""time""
""fullscreenenter"",""5"",""15337""
","
",2842.7349999838043,audio/quiz/Q1_Prompt.wav,NA,1,NA,NA,NA,NA,NA,NA,NA,NA,NA,NA,NA,NA,NA,NA,NA,NA,NA,NA,sub79
audio-keyboard-response,129,625741,0.0-70.0,TRUE,TRUE,TRUE,TRUE,"""event"",""trial"",""time""
""fullscreenenter"",""5"",""15337""
","
","
","""event"",""trial"",""time""
""fullscreenenter"",""5"",""15337""
","
",null,audio/quiz/Q1_Correct.wav,null,NA,NA,NA,NA,NA,NA,NA,NA,NA,NA,NA,NA,NA,NA,NA,NA,NA,NA,NA,sub79
instructions-quiz,130,631999,0.0-71.0,TRUE,TRUE,TRUE,TRUE,"""event"",""trial"",""time""
""fullscreenenter"",""5"",""15337""
","
","
","""event"",""trial"",""time""
""fullscreenenter"",""5"",""15337""
","
",6252.230000012787,audio/quiz/Q2_Prompt.wav,NA,0,NA,NA,NA,NA,NA,NA,NA,NA,NA,NA,NA,NA,NA,NA,NA,NA,NA,NA,sub79
audio-keyboard-response,131,633714,0.0-72.0,TRUE,TRUE,TRUE,TRUE,"""event"",""trial"",""time""
""fullscreenenter"",""5"",""15337""
","
","
","""event"",""trial"",""time""
""fullscreenenter"",""5"",""15337""
","
",1707,audio/quiz/Q2_Correct.wav,32,NA,NA,NA,NA,NA,NA,NA,NA,NA,NA,NA,NA,NA,NA,NA,NA,NA,NA,NA,sub79
instructions-quiz,132,637277,0.0-73.0,TRUE,TRUE,TRUE,TRUE,"""event"",""trial"",""time""
""fullscreenenter"",""5"",""15337""
","
","
","""event"",""trial"",""time""
""fullscreenenter"",""5"",""15337""
","
",3557.425000006333,audio/quiz/Q3_Prompt.wav,NA,1,NA,NA,NA,NA,NA,NA,NA,NA,NA,NA,NA,NA,NA,NA,NA,NA,NA,NA,sub79
audio-keyboard-response,133,637610,0.0-74.0,TRUE,TRUE,TRUE,TRUE,"""event"",""trial"",""time""
""fullscreenenter"",""5"",""15337""
","
","
","""event"",""trial"",""time""
""fullscreenenter"",""5"",""15337""
","
",320,audio/quiz/Q3_Correct.wav,32,NA,NA,NA,NA,NA,NA,NA,NA,NA,NA,NA,NA,NA,NA,NA,NA,NA,NA,NA,sub79
d3-instructions,134,646626,0.0-75.0,TRUE,TRUE,TRUE,TRUE,"""event"",""trial"",""time""
""fullscreenenter"",""5"",""15337""
","
","
","""event"",""trial"",""time""
""fullscreenenter"",""5"",""15337""
","
",NA,NA,NA,NA,NA,NA,NA,NA,NA,NA,NA,NA,NA,NA,NA,NA,NA,NA,NA,NA,NA,NA,sub79
d3-animate-choice,135,650166,0.0-76.0-0.0,TRUE,TRUE,TRUE,TRUE,"""event"",""trial"",""time""
""fullscreenenter"",""5"",""15337""
","
","
","""event"",""trial"",""time""
""fullscreenenter"",""5"",""15337""
","
",1524.2250000010245,NA,49,NA,NA,3000,1,NA,NA,images/earth.jpg,images/rocket2,images/rocket1,null,images/rocket1,NA,1,real,null,1,NA,NA,NA,sub79
d3-animate-choice,136,653032,0.0-76.0-1.0,TRUE,TRUE,TRUE,TRUE,"""event"",""trial"",""time""
""fullscreenenter"",""5"",""15337""
","
","
","""event"",""trial"",""time""
""fullscreenenter"",""5"",""15337""
","
",852.790000004461,NA,49,NA,NA,3000,1,NA,NA,images/redplanet1.jpg,images/alien2,images/alien1,images/rocket1,images/alien1,images/nothing.png,2,real,true,1,common,0,2020-06-16T23:28:02Z,sub79
two-step-fixation,137,654037,0.0-76.0-2.0,TRUE,TRUE,TRUE,TRUE,"""event"",""trial"",""time""
""fullscreenenter"",""5"",""15337""
","
","
","""event"",""trial"",""time""
""fullscreenenter"",""5"",""15337""
","
",NA,images/earth.jpg,NA,NA,NA,NA,NA,NA,NA,NA,NA,NA,NA,NA,NA,fixation,NA,NA,NA,NA,NA,NA,sub79
d3-animate-choice,138,656468,0.0-76.0-0.1,TRUE,TRUE,TRUE,TRUE,"""event"",""trial"",""time""
""fullscreenenter"",""5"",""15337""
","
","
","""event"",""trial"",""time""
""fullscreenenter"",""5"",""15337""
","
",415.01500000595115,NA,49,NA,NA,3000,1,NA,NA,images/earth.jpg,images/rocket2,images/rocket1,null,images/rocket1,NA,1,real,null,1,NA,NA,NA,sub79
d3-animate-choice,139,658841,0.0-76.0-1.1,TRUE,TRUE,TRUE,TRUE,"""event"",""trial"",""time""
""fullscreenenter"",""5"",""15337""
","
","
","""event"",""trial"",""time""
""fullscreenenter"",""5"",""15337""
","
",357.2799999965355,NA,48,NA,NA,3000,1,NA,NA,images/purpleplanet.jpg,images/alien4,images/alien3,images/rocket1,images/alien4,images/t.png,2,real,false,2,rare,1,2020-06-16T23:28:07Z,sub79
two-step-fixation,140,659852,0.0-76.0-2.1,TRUE,TRUE,TRUE,TRUE,"""event"",""trial"",""time""
""fullscreenenter"",""5"",""15337""
","
","
","""event"",""trial"",""time""
""fullscreenenter"",""5"",""15337""
","
",NA,images/earth.jpg,NA,NA,NA,NA,NA,NA,NA,NA,NA,NA,NA,NA,NA,fixation,NA,NA,NA,NA,NA,NA,sub79
d3-animate-choice,141,662249,0.0-76.0-0.2,TRUE,TRUE,TRUE,TRUE,"""event"",""trial"",""time""
""fullscreenenter"",""5"",""15337""
","
","
","""event"",""trial"",""time""
""fullscreenenter"",""5"",""15337""
","
",382.6100000005681,NA,49,NA,NA,3000,1,NA,NA,images/earth.jpg,images/rocket2,images/rocket1,null,images/rocket1,NA,1,real,null,1,NA,NA,NA,sub79
d3-animate-choice,142,665463,0.0-76.0-1.2,TRUE,TRUE,TRUE,TRUE,"""event"",""trial"",""time""
""fullscreenenter"",""5"",""15337""
","
","
","""event"",""trial"",""time""
""fullscreenenter"",""5"",""15337""
","
",1198.6249999899883,NA,48,NA,NA,3000,1,NA,NA,images/redplanet1.jpg,images/alien2,images/alien1,images/rocket1,images/alien2,images/nothing.png,2,real,true,2,common,0,2020-06-16T23:28:14Z,sub79
two-step-fixation,143,666473,0.0-76.0-2.2,TRUE,TRUE,TRUE,TRUE,"""event"",""trial"",""time""
""fullscreenenter"",""5"",""15337""
","
","
","""event"",""trial"",""time""
""fullscreenenter"",""5"",""15337""
","
",NA,images/earth.jpg,NA,NA,NA,NA,NA,NA,NA,NA,NA,NA,NA,NA,NA,fixation,NA,NA,NA,NA,NA,NA,sub79
d3-animate-choice,144,668862,0.0-76.0-0.3,TRUE,TRUE,TRUE,TRUE,"""event"",""trial"",""time""
""fullscreenenter"",""5"",""15337""
","
","
","""event"",""trial"",""time""
""fullscreenenter"",""5"",""15337""
","
",377.0000000076834,NA,48,NA,NA,3000,1,NA,NA,images/earth.jpg,images/rocket2,images/rocket1,null,images/rocket2,NA,1,real,null,2,NA,NA,NA,sub79
d3-animate-choice,145,671861,0.0-76.0-1.3,TRUE,TRUE,TRUE,TRUE,"""event"",""trial"",""time""
""fullscreenenter"",""5"",""15337""
","
","
","""event"",""trial"",""time""
""fullscreenenter"",""5"",""15337""
","
",986.5549999813084,NA,49,NA,NA,3000,1,NA,NA,images/redplanet1.jpg,images/alien2,images/alien1,images/rocket2,images/alien1,images/nothing.png,2,real,false,1,rare,0,2020-06-16T23:28:20Z,sub79
two-step-fixation,146,672866,0.0-76.0-2.3,TRUE,TRUE,TRUE,TRUE,"""event"",""trial"",""time""
""fullscreenenter"",""5"",""15337""
","
","
","""event"",""trial"",""time""
""fullscreenenter"",""5"",""15337""
","
",NA,images/earth.jpg,NA,NA,NA,NA,NA,NA,NA,NA,NA,NA,NA,NA,NA,fixation,NA,NA,NA,NA,NA,NA,sub79
d3-animate-choice,147,675196,0.0-76.0-0.4,TRUE,TRUE,TRUE,TRUE,"""event"",""trial"",""time""
""fullscreenenter"",""5"",""15337""
","
","
","""event"",""trial"",""time""
""fullscreenenter"",""5"",""15337""
","
",314.45000000530854,NA,49,NA,NA,3000,1,NA,NA,images/earth.jpg,images/rocket2,images/rocket1,null,images/rocket1,NA,1,real,null,1,NA,NA,NA,sub79
d3-animate-choice,148,678048,0.0-76.0-1.4,TRUE,TRUE,TRUE,TRUE,"""event"",""trial"",""time""
""fullscreenenter"",""5"",""15337""
","
","
","""event"",""trial"",""time""
""fullscreenenter"",""5"",""15337""
","
",838.7650000222493,NA,48,NA,NA,3000,1,NA,NA,images/redplanet1.jpg,images/alien2,images/alien1,images/rocket1,images/alien2,images/nothing.png,2,real,true,2,common,0,2020-06-16T23:28:27Z,sub79
two-step-fixation,149,679052,0.0-76.0-2.4,TRUE,TRUE,TRUE,TRUE,"""event"",""trial"",""time""
""fullscreenenter"",""5"",""15337""
","
","
","""event"",""trial"",""time""
""fullscreenenter"",""5"",""15337""
","
",NA,images/earth.jpg,NA,NA,NA,NA,NA,NA,NA,NA,NA,NA,NA,NA,NA,fixation,NA,NA,NA,NA,NA,NA,sub79
d3-animate-choice,150,681411,0.0-76.0-0.5,TRUE,TRUE,TRUE,TRUE,"""event"",""trial"",""time""
""fullscreenenter"",""5"",""15337""
","
","
","""event"",""trial"",""time""
""fullscreenenter"",""5"",""15337""
","
",344.3200000037905,NA,49,NA,NA,3000,1,NA,NA,images/earth.jpg,images/rocket2,images/rocket1,null,images/rocket1,NA,1,real,null,1,NA,NA,NA,sub79
d3-animate-choice,151,684312,0.0-76.0-1.5,TRUE,TRUE,TRUE,TRUE,"""event"",""trial"",""time""
""fullscreenenter"",""5"",""15337""
","
","
","""event"",""trial"",""time""
""fullscreenenter"",""5"",""15337""
","
",886.7100000206847,NA,49,NA,NA,3000,1,NA,NA,images/redplanet1.jpg,images/alien2,images/alien1,images/rocket1,images/alien1,images/t.png,2,real,true,1,common,1,2020-06-16T23:28:33Z,sub79
two-step-fixation,152,685322,0.0-76.0-2.5,TRUE,TRUE,TRUE,TRUE,"""event"",""trial"",""time""
""fullscreenenter"",""5"",""15337""
","
","
","""event"",""trial"",""time""
""fullscreenenter"",""5"",""15337""
","
",NA,images/earth.jpg,NA,NA,NA,NA,NA,NA,NA,NA,NA,NA,NA,NA,NA,fixation,NA,NA,NA,NA,NA,NA,sub79
d3-animate-choice,153,687724,0.0-76.0-0.6,TRUE,TRUE,TRUE,TRUE,"""event"",""trial"",""time""
""fullscreenenter"",""5"",""15337""
","
","
","""event"",""trial"",""time""
""fullscreenenter"",""5"",""15337""
","
",389.1750000184402,NA,49,NA,NA,3000,1,NA,NA,images/earth.jpg,images/rocket2,images/rocket1,null,images/rocket1,NA,1,real,null,1,NA,NA,NA,sub79
d3-animate-choice,154,690258,0.0-76.0-1.6,TRUE,TRUE,TRUE,TRUE,"""event"",""trial"",""time""
""fullscreenenter"",""5"",""15337""
","
","
","""event"",""trial"",""time""
""fullscreenenter"",""5"",""15337""
","
",518.4000000008382,NA,49,NA,NA,3000,1,NA,NA,images/redplanet1.jpg,images/alien2,images/alien1,images/rocket1,images/alien1,images/nothing.png,2,real,true,1,common,0,2020-06-16T23:28:39Z,sub79
two-step-fixation,155,691265,0.0-76.0-2.6,TRUE,TRUE,TRUE,TRUE,"""event"",""trial"",""time""
""fullscreenenter"",""5"",""15337""
","
","
","""event"",""trial"",""time""
""fullscreenenter"",""5"",""15337""
","
",NA,images/earth.jpg,NA,NA,NA,NA,NA,NA,NA,NA,NA,NA,NA,NA,NA,fixation,NA,NA,NA,NA,NA,NA,sub79
d3-animate-choice,156,693549,0.0-76.0-0.7,TRUE,TRUE,TRUE,TRUE,"""event"",""trial"",""time""
""fullscreenenter"",""5"",""15337""
","
","
","""event"",""trial"",""time""
""fullscreenenter"",""5"",""15337""
","
",268.74500000849366,NA,48,NA,NA,3000,1,NA,NA,images/earth.jpg,images/rocket2,images/rocket1,null,images/rocket2,NA,1,real,null,2,NA,NA,NA,sub79
d3-animate-choice,157,696518,0.0-76.0-1.7,TRUE,TRUE,TRUE,TRUE,"""event"",""trial"",""time""
""fullscreenenter"",""5"",""15337""
","
","
","""event"",""trial"",""time""
""fullscreenenter"",""5"",""15337""
","
",959.1200000140816,NA,49,NA,NA,3000,1,NA,NA,images/purpleplanet.jpg,images/alien4,images/alien3,images/rocket2,images/alien3,images/nothing.png,2,real,true,1,common,0,2020-06-16T23:28:45Z,sub79
two-step-fixation,158,697528,0.0-76.0-2.7,TRUE,TRUE,TRUE,TRUE,"""event"",""trial"",""time""
""fullscreenenter"",""5"",""15337""
","
","
","""event"",""trial"",""time""
""fullscreenenter"",""5"",""15337""
","
",NA,images/earth.jpg,NA,NA,NA,NA,NA,NA,NA,NA,NA,NA,NA,NA,NA,fixation,NA,NA,NA,NA,NA,NA,sub79
d3-animate-choice,159,699805,0.0-76.0-0.8,TRUE,TRUE,TRUE,TRUE,"""event"",""trial"",""time""
""fullscreenenter"",""5"",""15337""
","
","
","""event"",""trial"",""time""
""fullscreenenter"",""5"",""15337""
","
",260.1650000142399,NA,48,NA,NA,3000,1,NA,NA,images/earth.jpg,images/rocket2,images/rocket1,null,images/rocket2,NA,1,real,null,2,NA,NA,NA,sub79
d3-animate-choice,160,702810,0.0-76.0-1.8,TRUE,TRUE,TRUE,TRUE,"""event"",""trial"",""time""
""fullscreenenter"",""5"",""15337""
","
","
","""event"",""trial"",""time""
""fullscreenenter"",""5"",""15337""
","
",989.545000018552,NA,49,NA,NA,3000,1,NA,NA,images/redplanet1.jpg,images/alien2,images/alien1,images/rocket2,images/alien1,images/t.png,2,real,false,1,rare,1,2020-06-16T23:28:51Z,sub79
two-step-fixation,161,703820,0.0-76.0-2.8,TRUE,TRUE,TRUE,TRUE,"""event"",""trial"",""time""
""fullscreenenter"",""5"",""15337""
","
","
","""event"",""trial"",""time""
""fullscreenenter"",""5"",""15337""
","
",NA,images/earth.jpg,NA,NA,NA,NA,NA,NA,NA,NA,NA,NA,NA,NA,NA,fixation,NA,NA,NA,NA,NA,NA,sub79
d3-animate-choice,162,706117,0.0-76.0-0.9,TRUE,TRUE,TRUE,TRUE,"""event"",""trial"",""time""
""fullscreenenter"",""5"",""15337""
","
","
","""event"",""trial"",""time""
""fullscreenenter"",""5"",""15337""
","
",279.57499999320135,NA,48,NA,NA,3000,1,NA,NA,images/earth.jpg,images/rocket2,images/rocket1,null,images/rocket2,NA,1,real,null,2,NA,NA,NA,sub79
d3-animate-choice,163,708737,0.0-76.0-1.9,TRUE,TRUE,TRUE,TRUE,"""event"",""trial"",""time""
""fullscreenenter"",""5"",""15337""
","
","
","""event"",""trial"",""time""
""fullscreenenter"",""5"",""15337""
","
",609.3249999976251,NA,48,NA,NA,3000,1,NA,NA,images/purpleplanet.jpg,images/alien4,images/alien3,images/rocket2,images/alien4,images/t.png,2,real,true,2,common,1,2020-06-16T23:28:57Z,sub79
two-step-fixation,164,709745,0.0-76.0-2.9,TRUE,TRUE,TRUE,TRUE,"""event"",""trial"",""time""
""fullscreenenter"",""5"",""15337""
","
","
","""event"",""trial"",""time""
""fullscreenenter"",""5"",""15337""
","
",NA,images/earth.jpg,NA,NA,NA,NA,NA,NA,NA,NA,NA,NA,NA,NA,NA,fixation,NA,NA,NA,NA,NA,NA,sub79
d3-animate-choice,165,712212,0.0-76.0-0.10,TRUE,TRUE,TRUE,TRUE,"""event"",""trial"",""time""
""fullscreenenter"",""5"",""15337""
","
","
","""event"",""trial"",""time""
""fullscreenenter"",""5"",""15337""
","
",449.1849999758415,NA,48,NA,NA,3000,1,NA,NA,images/earth.jpg,images/rocket2,images/rocket1,null,images/rocket2,NA,1,real,null,2,NA,NA,NA,sub79
d3-animate-choice,166,714844,0.0-76.0-1.10,TRUE,TRUE,TRUE,TRUE,"""event"",""trial"",""time""
""fullscreenenter"",""5"",""15337""
","
","
","""event"",""trial"",""time""
""fullscreenenter"",""5"",""15337""
","
",617.5900000089314,NA,49,NA,NA,3000,1,NA,NA,images/redplanet1.jpg,images/alien2,images/alien1,images/rocket2,images/alien1,images/t.png,2,real,false,1,rare,1,2020-06-16T23:29:03Z,sub79
two-step-fixation,167,715855,0.0-76.0-2.10,TRUE,TRUE,TRUE,TRUE,"""event"",""trial"",""time""
""fullscreenenter"",""5"",""15337""
","
","
","""event"",""trial"",""time""
""fullscreenenter"",""5"",""15337""
","
",NA,images/earth.jpg,NA,NA,NA,NA,NA,NA,NA,NA,NA,NA,NA,NA,NA,fixation,NA,NA,NA,NA,NA,NA,sub79
d3-animate-choice,168,718203,0.0-76.0-0.11,TRUE,TRUE,TRUE,TRUE,"""event"",""trial"",""time""
""fullscreenenter"",""5"",""15337""
","
","
","""event"",""trial"",""time""
""fullscreenenter"",""5"",""15337""
","
",332.67499998328276,NA,48,NA,NA,3000,1,NA,NA,images/earth.jpg,images/rocket2,images/rocket1,null,images/rocket2,NA,1,real,null,2,NA,NA,NA,sub79
d3-animate-choice,169,721397,0.0-76.0-1.11,TRUE,TRUE,TRUE,TRUE,"""event"",""trial"",""time""
""fullscreenenter"",""5"",""15337""
","
","
","""event"",""trial"",""time""
""fullscreenenter"",""5"",""15337""
","
",1180.6499999947846,NA,48,NA,NA,3000,1,NA,NA,images/redplanet1.jpg,images/alien2,images/alien1,images/rocket2,images/alien2,images/t.png,2,real,false,2,rare,1,2020-06-16T23:29:10Z,sub79
two-step-fixation,170,722404,0.0-76.0-2.11,TRUE,TRUE,TRUE,TRUE,"""event"",""trial"",""time""
""fullscreenenter"",""5"",""15337""
","
","
","""event"",""trial"",""time""
""fullscreenenter"",""5"",""15337""
","
",NA,images/earth.jpg,NA,NA,NA,NA,NA,NA,NA,NA,NA,NA,NA,NA,NA,fixation,NA,NA,NA,NA,NA,NA,sub79
d3-animate-choice,171,724778,0.0-76.0-0.12,TRUE,TRUE,TRUE,TRUE,"""event"",""trial"",""time""
""fullscreenenter"",""5"",""15337""
","
","
","""event"",""trial"",""time""
""fullscreenenter"",""5"",""15337""
","
",359.03500000131316,NA,48,NA,NA,3000,1,NA,NA,images/earth.jpg,images/rocket2,images/rocket1,null,images/rocket2,NA,1,real,null,2,NA,NA,NA,sub79
d3-animate-choice,172,727532,0.0-76.0-1.12,TRUE,TRUE,TRUE,TRUE,"""event"",""trial"",""time""
""fullscreenenter"",""5"",""15337""
","
","
","""event"",""trial"",""time""
""fullscreenenter"",""5"",""15337""
","
",741.890000004787,NA,49,NA,NA,3000,1,NA,NA,images/redplanet1.jpg,images/alien2,images/alien1,images/rocket2,images/alien1,images/t.png,2,real,false,1,rare,1,2020-06-16T23:29:16Z,sub79
two-step-fixation,173,728540,0.0-76.0-2.12,TRUE,TRUE,TRUE,TRUE,"""event"",""trial"",""time""
""fullscreenenter"",""5"",""15337""
","
","
","""event"",""trial"",""time""
""fullscreenenter"",""5"",""15337""
","
",NA,images/earth.jpg,NA,NA,NA,NA,NA,NA,NA,NA,NA,NA,NA,NA,NA,fixation,NA,NA,NA,NA,NA,NA,sub79
d3-animate-choice,174,730841,0.0-76.0-0.13,TRUE,TRUE,TRUE,TRUE,"""event"",""trial"",""time""
""fullscreenenter"",""5"",""15337""
","
","
","""event"",""trial"",""time""
""fullscreenenter"",""5"",""15337""
","
",287.86500002024695,NA,48,NA,NA,3000,1,NA,NA,images/earth.jpg,images/rocket2,images/rocket1,null,images/rocket2,NA,1,real,null,2,NA,NA,NA,sub79
d3-animate-choice,175,733439,0.0-76.0-1.13,TRUE,TRUE,TRUE,TRUE,"""event"",""trial"",""time""
""fullscreenenter"",""5"",""15337""
","
","
","""event"",""trial"",""time""
""fullscreenenter"",""5"",""15337""
","
",584.4799999904353,NA,49,NA,NA,3000,1,NA,NA,images/redplanet1.jpg,images/alien2,images/alien1,images/rocket2,images/alien1,images/t.png,2,real,false,1,rare,1,2020-06-16T23:29:22Z,sub79
two-step-fixation,176,734446,0.0-76.0-2.13,TRUE,TRUE,TRUE,TRUE,"""event"",""trial"",""time""
""fullscreenenter"",""5"",""15337""
","
","
","""event"",""trial"",""time""
""fullscreenenter"",""5"",""15337""
","
",NA,images/earth.jpg,NA,NA,NA,NA,NA,NA,NA,NA,NA,NA,NA,NA,NA,fixation,NA,NA,NA,NA,NA,NA,sub79
d3-animate-choice,177,736749,0.0-76.0-0.14,TRUE,TRUE,TRUE,TRUE,"""event"",""trial"",""time""
""fullscreenenter"",""5"",""15337""
","
","
","""event"",""trial"",""time""
""fullscreenenter"",""5"",""15337""
","
",289.45999999996275,NA,48,NA,NA,3000,1,NA,NA,images/earth.jpg,images/rocket2,images/rocket1,null,images/rocket2,NA,1,real,null,2,NA,NA,NA,sub79
d3-animate-choice,178,739448,0.0-76.0-1.14,TRUE,TRUE,TRUE,TRUE,"""event"",""trial"",""time""
""fullscreenenter"",""5"",""15337""
","
","
","""event"",""trial"",""time""
""fullscreenenter"",""5"",""15337""
","
",683.9499999769032,NA,48,NA,NA,3000,1,NA,NA,images/purpleplanet.jpg,images/alien4,images/alien3,images/rocket2,images/alien4,images/t.png,2,real,true,2,common,1,2020-06-16T23:29:28Z,sub79
two-step-fixation,179,740455,0.0-76.0-2.14,TRUE,TRUE,TRUE,TRUE,"""event"",""trial"",""time""
""fullscreenenter"",""5"",""15337""
","
","
","""event"",""trial"",""time""
""fullscreenenter"",""5"",""15337""
","
",NA,images/earth.jpg,NA,NA,NA,NA,NA,NA,NA,NA,NA,NA,NA,NA,NA,fixation,NA,NA,NA,NA,NA,NA,sub79
d3-animate-choice,180,743284,0.0-76.0-0.15,TRUE,TRUE,TRUE,TRUE,"""event"",""trial"",""time""
""fullscreenenter"",""5"",""15337""
","
","
","""event"",""trial"",""time""
""fullscreenenter"",""5"",""15337""
","
",811.27999999444,NA,48,NA,NA,3000,1,NA,NA,images/earth.jpg,images/rocket2,images/rocket1,null,images/rocket2,NA,1,real,null,2,NA,NA,NA,sub79
d3-animate-choice,181,745831,0.0-76.0-1.15,TRUE,TRUE,TRUE,TRUE,"""event"",""trial"",""time""
""fullscreenenter"",""5"",""15337""
","
","
","""event"",""trial"",""time""
""fullscreenenter"",""5"",""15337""
","
",534.1049999988172,NA,49,NA,NA,3000,1,NA,NA,images/purpleplanet.jpg,images/alien4,images/alien3,images/rocket2,images/alien3,images/nothing.png,2,real,true,1,common,0,2020-06-16T23:29:34Z,sub79
two-step-fixation,182,746838,0.0-76.0-2.15,TRUE,TRUE,TRUE,TRUE,"""event"",""trial"",""time""
""fullscreenenter"",""5"",""15337""
","
","
","""event"",""trial"",""time""
""fullscreenenter"",""5"",""15337""
","
",NA,images/earth.jpg,NA,NA,NA,NA,NA,NA,NA,NA,NA,NA,NA,NA,NA,fixation,NA,NA,NA,NA,NA,NA,sub79
d3-animate-choice,183,749083,0.0-76.0-0.16,TRUE,TRUE,TRUE,TRUE,"""event"",""trial"",""time""
""fullscreenenter"",""5"",""15337""
","
","
","""event"",""trial"",""time""
""fullscreenenter"",""5"",""15337""
","
",232.7250000089407,NA,48,NA,NA,3000,1,NA,NA,images/earth.jpg,images/rocket2,images/rocket1,null,images/rocket2,NA,1,real,null,2,NA,NA,NA,sub79
d3-animate-choice,184,751509,0.0-76.0-1.16,TRUE,TRUE,TRUE,TRUE,"""event"",""trial"",""time""
""fullscreenenter"",""5"",""15337""
","
","
","""event"",""trial"",""time""
""fullscreenenter"",""5"",""15337""
","
",411.8749999906868,NA,48,NA,NA,3000,1,NA,NA,images/purpleplanet.jpg,images/alien4,images/alien3,images/rocket2,images/alien4,images/t.png,2,real,true,2,common,1,2020-06-16T23:29:40Z,sub79
two-step-fixation,185,752520,0.0-76.0-2.16,TRUE,TRUE,TRUE,TRUE,"""event"",""trial"",""time""
""fullscreenenter"",""5"",""15337""
","
","
","""event"",""trial"",""time""
""fullscreenenter"",""5"",""15337""
","
",NA,images/earth.jpg,NA,NA,NA,NA,NA,NA,NA,NA,NA,NA,NA,NA,NA,fixation,NA,NA,NA,NA,NA,NA,sub79
d3-animate-choice,186,754825,0.0-76.0-0.17,TRUE,TRUE,TRUE,TRUE,"""event"",""trial"",""time""
""fullscreenenter"",""5"",""15337""
","
","
","""event"",""trial"",""time""
""fullscreenenter"",""5"",""15337""
","
",289.56999999354593,NA,49,NA,NA,3000,1,NA,NA,images/earth.jpg,images/rocket2,images/rocket1,null,images/rocket1,NA,1,real,null,1,NA,NA,NA,sub79
d3-animate-choice,187,757544,0.0-76.0-1.17,TRUE,TRUE,TRUE,TRUE,"""event"",""trial"",""time""
""fullscreenenter"",""5"",""15337""
","
","
","""event"",""trial"",""time""
""fullscreenenter"",""5"",""15337""
","
",704.2850000143517,NA,48,NA,NA,3000,1,NA,NA,images/purpleplanet.jpg,images/alien4,images/alien3,images/rocket1,images/alien4,images/t.png,2,real,false,2,rare,1,2020-06-16T23:29:46Z,sub79
two-step-fixation,188,758551,0.0-76.0-2.17,TRUE,TRUE,TRUE,TRUE,"""event"",""trial"",""time""
""fullscreenenter"",""5"",""15337""
","
","
","""event"",""trial"",""time""
""fullscreenenter"",""5"",""15337""
","
",NA,images/earth.jpg,NA,NA,NA,NA,NA,NA,NA,NA,NA,NA,NA,NA,NA,fixation,NA,NA,NA,NA,NA,NA,sub79
d3-animate-choice,189,760894,0.0-76.0-0.18,TRUE,TRUE,TRUE,TRUE,"""event"",""trial"",""time""
""fullscreenenter"",""5"",""15337""
","
","
","""event"",""trial"",""time""
""fullscreenenter"",""5"",""15337""
","
",330.2200000034645,NA,48,NA,NA,3000,1,NA,NA,images/earth.jpg,images/rocket2,images/rocket1,null,images/rocket2,NA,1,real,null,2,NA,NA,NA,sub79
d3-animate-choice,190,763470,0.0-76.0-1.18,TRUE,TRUE,TRUE,TRUE,"""event"",""trial"",""time""
""fullscreenenter"",""5"",""15337""
","
","
","""event"",""trial"",""time""
""fullscreenenter"",""5"",""15337""
","
",560.7449999952223,NA,48,NA,NA,3000,1,NA,NA,images/purpleplanet.jpg,images/alien4,images/alien3,images/rocket2,images/alien4,images/t.png,2,real,true,2,common,1,2020-06-16T23:29:52Z,sub79
two-step-fixation,191,764481,0.0-76.0-2.18,TRUE,TRUE,TRUE,TRUE,"""event"",""trial"",""time""
""fullscreenenter"",""5"",""15337""
","
","
","""event"",""trial"",""time""
""fullscreenenter"",""5"",""15337""
","
",NA,images/earth.jpg,NA,NA,NA,NA,NA,NA,NA,NA,NA,NA,NA,NA,NA,fixation,NA,NA,NA,NA,NA,NA,sub79
d3-animate-choice,192,766819,0.0-76.0-0.19,TRUE,TRUE,TRUE,TRUE,"""event"",""trial"",""time""
""fullscreenenter"",""5"",""15337""
","
","
","""event"",""trial"",""time""
""fullscreenenter"",""5"",""15337""
","
",320.50500001059845,NA,48,NA,NA,3000,1,NA,NA,images/earth.jpg,images/rocket2,images/rocket1,null,images/rocket2,NA,1,real,null,2,NA,NA,NA,sub79
d3-animate-choice,193,769337,0.0-76.0-1.19,TRUE,TRUE,TRUE,TRUE,"""event"",""trial"",""time""
""fullscreenenter"",""5"",""15337""
","
","
","""event"",""trial"",""time""
""fullscreenenter"",""5"",""15337""
","
",500.8949999755714,NA,48,NA,NA,3000,1,NA,NA,images/purpleplanet.jpg,images/alien4,images/alien3,images/rocket2,images/alien4,images/nothing.png,2,real,true,2,common,0,2020-06-16T23:29:58Z,sub79
two-step-fixation,194,770347,0.0-76.0-2.19,TRUE,TRUE,TRUE,TRUE,"""event"",""trial"",""time""
""fullscreenenter"",""5"",""15337""
","
","
","""event"",""trial"",""time""
""fullscreenenter"",""5"",""15337""
","
",NA,images/earth.jpg,NA,NA,NA,NA,NA,NA,NA,NA,NA,NA,NA,NA,NA,fixation,NA,NA,NA,NA,NA,NA,sub79
d3-animate-choice,195,772935,0.0-76.0-0.20,TRUE,TRUE,TRUE,TRUE,"""event"",""trial"",""time""
""fullscreenenter"",""5"",""15337""
","
","
","""event"",""trial"",""time""
""fullscreenenter"",""5"",""15337""
","
",575.154999998631,NA,48,NA,NA,3000,1,NA,NA,images/earth.jpg,images/rocket2,images/rocket1,null,images/rocket2,NA,1,real,null,2,NA,NA,NA,sub79
d3-animate-choice,196,775209,0.0-76.0-1.20,TRUE,TRUE,TRUE,TRUE,"""event"",""trial"",""time""
""fullscreenenter"",""5"",""15337""
","
","
","""event"",""trial"",""time""
""fullscreenenter"",""5"",""15337""
","
",260.6249999953434,NA,49,NA,NA,3000,1,NA,NA,images/purpleplanet.jpg,images/alien4,images/alien3,images/rocket2,images/alien3,images/t.png,2,real,true,1,common,1,2020-06-16T23:30:04Z,sub79
two-step-fixation,197,776219,0.0-76.0-2.20,TRUE,TRUE,TRUE,TRUE,"""event"",""trial"",""time""
""fullscreenenter"",""5"",""15337""
","
","
","""event"",""trial"",""time""
""fullscreenenter"",""5"",""15337""
","
",NA,images/earth.jpg,NA,NA,NA,NA,NA,NA,NA,NA,NA,NA,NA,NA,NA,fixation,NA,NA,NA,NA,NA,NA,sub79
d3-animate-choice,198,778321,0.0-76.0-0.21,TRUE,TRUE,TRUE,TRUE,"""event"",""trial"",""time""
""fullscreenenter"",""5"",""15337""
","
","
","""event"",""trial"",""time""
""fullscreenenter"",""5"",""15337""
","
",83.90999998664483,NA,48,NA,NA,3000,1,NA,NA,images/earth.jpg,images/rocket2,images/rocket1,null,images/rocket2,NA,1,real,null,2,NA,NA,NA,sub79
d3-animate-choice,199,780976,0.0-76.0-1.21,TRUE,TRUE,TRUE,TRUE,"""event"",""trial"",""time""
""fullscreenenter"",""5"",""15337""
","
","
","""event"",""trial"",""time""
""fullscreenenter"",""5"",""15337""
","
",640.4649999749381,NA,49,NA,NA,3000,1,NA,NA,images/purpleplanet.jpg,images/alien4,images/alien3,images/rocket2,images/alien3,images/t.png,2,real,true,1,common,1,2020-06-16T23:30:10Z,sub79
two-step-fixation,200,781981,0.0-76.0-2.21,TRUE,TRUE,TRUE,TRUE,"""event"",""trial"",""time""
""fullscreenenter"",""5"",""15337""
","
","
","""event"",""trial"",""time""
""fullscreenenter"",""5"",""15337""
","
",NA,images/earth.jpg,NA,NA,NA,NA,NA,NA,NA,NA,NA,NA,NA,NA,NA,fixation,NA,NA,NA,NA,NA,NA,sub79
d3-animate-choice,201,784300,0.0-76.0-0.22,TRUE,TRUE,TRUE,TRUE,"""event"",""trial"",""time""
""fullscreenenter"",""5"",""15337""
","
","
","""event"",""trial"",""time""
""fullscreenenter"",""5"",""15337""
","
",303.3249999862164,NA,48,NA,NA,3000,1,NA,NA,images/earth.jpg,images/rocket2,images/rocket1,null,images/rocket2,NA,1,real,null,2,NA,NA,NA,sub79
d3-animate-choice,202,787353,0.0-76.0-1.22,TRUE,TRUE,TRUE,TRUE,"""event"",""trial"",""time""
""fullscreenenter"",""5"",""15337""
","
","
","""event"",""trial"",""time""
""fullscreenenter"",""5"",""15337""
","
",1035.795000003418,NA,48,NA,NA,3000,1,NA,NA,images/redplanet1.jpg,images/alien2,images/alien1,images/rocket2,images/alien2,images/nothing.png,2,real,false,2,rare,0,2020-06-16T23:30:16Z,sub79
two-step-fixation,203,788360,0.0-76.0-2.22,TRUE,TRUE,TRUE,TRUE,"""event"",""trial"",""time""
""fullscreenenter"",""5"",""15337""
","
","
","""event"",""trial"",""time""
""fullscreenenter"",""5"",""15337""
","
",NA,images/earth.jpg,NA,NA,NA,NA,NA,NA,NA,NA,NA,NA,NA,NA,NA,fixation,NA,NA,NA,NA,NA,NA,sub79
d3-animate-choice,204,790649,0.0-76.0-0.23,TRUE,TRUE,TRUE,TRUE,"""event"",""trial"",""time""
""fullscreenenter"",""5"",""15337""
","
","
","""event"",""trial"",""time""
""fullscreenenter"",""5"",""15337""
","
",276.6750000009779,NA,48,NA,NA,3000,1,NA,NA,images/earth.jpg,images/rocket2,images/rocket1,null,images/rocket2,NA,1,real,null,2,NA,NA,NA,sub79
d3-animate-choice,205,793450,0.0-76.0-1.23,TRUE,TRUE,TRUE,TRUE,"""event"",""trial"",""time""
""fullscreenenter"",""5"",""15337""
","
","
","""event"",""trial"",""time""
""fullscreenenter"",""5"",""15337""
","
",785.394999984419,NA,49,NA,NA,3000,1,NA,NA,images/purpleplanet.jpg,images/alien4,images/alien3,images/rocket2,images/alien3,images/nothing.png,2,real,true,1,common,0,2020-06-16T23:30:22Z,sub79
two-step-fixation,206,794457,0.0-76.0-2.23,TRUE,TRUE,TRUE,TRUE,"""event"",""trial"",""time""
""fullscreenenter"",""5"",""15337""
","
","
","""event"",""trial"",""time""
""fullscreenenter"",""5"",""15337""
","
",NA,images/earth.jpg,NA,NA,NA,NA,NA,NA,NA,NA,NA,NA,NA,NA,NA,fixation,NA,NA,NA,NA,NA,NA,sub79
d3-animate-choice,207,797662,0.0-76.0-0.24,TRUE,TRUE,TRUE,TRUE,"""event"",""trial"",""time""
""fullscreenenter"",""5"",""15337""
","
","
","""event"",""trial"",""time""
""fullscreenenter"",""5"",""15337""
","
",1190.1899999938905,NA,48,NA,NA,3000,1,NA,NA,images/earth.jpg,images/rocket2,images/rocket1,null,images/rocket2,NA,1,real,null,2,NA,NA,NA,sub79
d3-animate-choice,208,800064,0.0-76.0-1.24,TRUE,TRUE,TRUE,TRUE,"""event"",""trial"",""time""
""fullscreenenter"",""5"",""15337""
","
","
","""event"",""trial"",""time""
""fullscreenenter"",""5"",""15337""
","
",387.3800000001211,NA,49,NA,NA,3000,1,NA,NA,images/redplanet1.jpg,images/alien2,images/alien1,images/rocket2,images/alien1,images/t.png,2,real,false,1,rare,1,2020-06-16T23:30:29Z,sub79
two-step-fixation,209,801070,0.0-76.0-2.24,TRUE,TRUE,TRUE,TRUE,"""event"",""trial"",""time""
""fullscreenenter"",""5"",""15337""
","
","
","""event"",""trial"",""time""
""fullscreenenter"",""5"",""15337""
","
",NA,images/earth.jpg,NA,NA,NA,NA,NA,NA,NA,NA,NA,NA,NA,NA,NA,fixation,NA,NA,NA,NA,NA,NA,sub79
d3-animate-choice,210,803419,0.0-76.0-0.25,TRUE,TRUE,TRUE,TRUE,"""event"",""trial"",""time""
""fullscreenenter"",""5"",""15337""
","
","
","""event"",""trial"",""time""
""fullscreenenter"",""5"",""15337""
","
",337.4799999874085,NA,48,NA,NA,3000,1,NA,NA,images/earth.jpg,images/rocket2,images/rocket1,null,images/rocket2,NA,1,real,null,2,NA,NA,NA,sub79
d3-animate-choice,211,806349,0.0-76.0-1.25,TRUE,TRUE,TRUE,TRUE,"""event"",""trial"",""time""
""fullscreenenter"",""5"",""15337""
","
","
","""event"",""trial"",""time""
""fullscreenenter"",""5"",""15337""
","
",916.7549999838229,NA,48,NA,NA,3000,1,NA,NA,images/purpleplanet.jpg,images/alien4,images/alien3,images/rocket2,images/alien4,images/nothing.png,2,real,true,2,common,0,2020-06-16T23:30:35Z,sub79
two-step-fixation,212,807356,0.0-76.0-2.25,TRUE,TRUE,TRUE,TRUE,"""event"",""trial"",""time""
""fullscreenenter"",""5"",""15337""
","
","
","""event"",""trial"",""time""
""fullscreenenter"",""5"",""15337""
","
",NA,images/earth.jpg,NA,NA,NA,NA,NA,NA,NA,NA,NA,NA,NA,NA,NA,fixation,NA,NA,NA,NA,NA,NA,sub79
d3-animate-choice,213,809705,0.0-76.0-0.26,TRUE,TRUE,TRUE,TRUE,"""event"",""trial"",""time""
""fullscreenenter"",""5"",""15337""
","
","
","""event"",""trial"",""time""
""fullscreenenter"",""5"",""15337""
","
",333.66999999270774,NA,48,NA,NA,3000,1,NA,NA,images/earth.jpg,images/rocket2,images/rocket1,null,images/rocket2,NA,1,real,null,2,NA,NA,NA,sub79
d3-animate-choice,214,812266,0.0-76.0-1.26,TRUE,TRUE,TRUE,TRUE,"""event"",""trial"",""time""
""fullscreenenter"",""5"",""15337""
","
","
","""event"",""trial"",""time""
""fullscreenenter"",""5"",""15337""
","
",545.3450000204612,NA,49,NA,NA,3000,1,NA,NA,images/redplanet1.jpg,images/alien2,images/alien1,images/rocket2,images/alien1,images/nothing.png,2,real,false,1,rare,0,2020-06-16T23:30:41Z,sub79
two-step-fixation,215,813277,0.0-76.0-2.26,TRUE,TRUE,TRUE,TRUE,"""event"",""trial"",""time""
""fullscreenenter"",""5"",""15337""
","
","
","""event"",""trial"",""time""
""fullscreenenter"",""5"",""15337""
","
",NA,images/earth.jpg,NA,NA,NA,NA,NA,NA,NA,NA,NA,NA,NA,NA,NA,fixation,NA,NA,NA,NA,NA,NA,sub79
d3-animate-choice,216,815555,0.0-76.0-0.27,TRUE,TRUE,TRUE,TRUE,"""event"",""trial"",""time""
""fullscreenenter"",""5"",""15337""
","
","
","""event"",""trial"",""time""
""fullscreenenter"",""5"",""15337""
","
",264.3499999830965,NA,48,NA,NA,3000,1,NA,NA,images/earth.jpg,images/rocket2,images/rocket1,null,images/rocket2,NA,1,real,null,2,NA,NA,NA,sub79
d3-animate-choice,217,818220,0.0-76.0-1.27,TRUE,TRUE,TRUE,TRUE,"""event"",""trial"",""time""
""fullscreenenter"",""5"",""15337""
","
","
","""event"",""trial"",""time""
""fullscreenenter"",""5"",""15337""
","
",651.7750000057276,NA,49,NA,NA,3000,1,NA,NA,images/purpleplanet.jpg,images/alien4,images/alien3,images/rocket2,images/alien3,images/nothing.png,2,real,true,1,common,0,2020-06-16T23:30:47Z,sub79
two-step-fixation,218,819231,0.0-76.0-2.27,TRUE,TRUE,TRUE,TRUE,"""event"",""trial"",""time""
""fullscreenenter"",""5"",""15337""
","
","
","""event"",""trial"",""time""
""fullscreenenter"",""5"",""15337""
","
",NA,images/earth.jpg,NA,NA,NA,NA,NA,NA,NA,NA,NA,NA,NA,NA,NA,fixation,NA,NA,NA,NA,NA,NA,sub79
d3-animate-choice,219,821526,0.0-76.0-0.28,TRUE,TRUE,TRUE,TRUE,"""event"",""trial"",""time""
""fullscreenenter"",""5"",""15337""
","
","
","""event"",""trial"",""time""
""fullscreenenter"",""5"",""15337""
","
",280.0400000123773,NA,49,NA,NA,3000,1,NA,NA,images/earth.jpg,images/rocket2,images/rocket1,null,images/rocket1,NA,1,real,null,1,NA,NA,NA,sub79
d3-animate-choice,220,824298,0.0-76.0-1.28,TRUE,TRUE,TRUE,TRUE,"""event"",""trial"",""time""
""fullscreenenter"",""5"",""15337""
","
","
","""event"",""trial"",""time""
""fullscreenenter"",""5"",""15337""
","
",756.8049999827053,NA,48,NA,NA,3000,1,NA,NA,images/purpleplanet.jpg,images/alien4,images/alien3,images/rocket1,images/alien4,images/t.png,2,real,false,2,rare,1,2020-06-16T23:30:53Z,sub79
two-step-fixation,221,825308,0.0-76.0-2.28,TRUE,TRUE,TRUE,TRUE,"""event"",""trial"",""time""
""fullscreenenter"",""5"",""15337""
","
","
","""event"",""trial"",""time""
""fullscreenenter"",""5"",""15337""
","
",NA,images/earth.jpg,NA,NA,NA,NA,NA,NA,NA,NA,NA,NA,NA,NA,NA,fixation,NA,NA,NA,NA,NA,NA,sub79
d3-animate-choice,222,827593,0.0-76.0-0.29,TRUE,TRUE,TRUE,TRUE,"""event"",""trial"",""time""
""fullscreenenter"",""5"",""15337""
","
","
","""event"",""trial"",""time""
""fullscreenenter"",""5"",""15337""
","
",265.6849999912083,NA,49,NA,NA,3000,1,NA,NA,images/earth.jpg,images/rocket2,images/rocket1,null,images/rocket1,NA,1,real,null,1,NA,NA,NA,sub79
d3-animate-choice,223,830280,0.0-76.0-1.29,TRUE,TRUE,TRUE,TRUE,"""event"",""trial"",""time""
""fullscreenenter"",""5"",""15337""
","
","
","""event"",""trial"",""time""
""fullscreenenter"",""5"",""15337""
","
",670.6249999988358,NA,49,NA,NA,3000,1,NA,NA,images/redplanet1.jpg,images/alien2,images/alien1,images/rocket1,images/alien1,images/t.png,2,real,true,1,common,1,2020-06-16T23:30:59Z,sub79
two-step-fixation,224,831286,0.0-76.0-2.29,TRUE,TRUE,TRUE,TRUE,"""event"",""trial"",""time""
""fullscreenenter"",""5"",""15337""
","
","
","""event"",""trial"",""time""
""fullscreenenter"",""5"",""15337""
","
",NA,images/earth.jpg,NA,NA,NA,NA,NA,NA,NA,NA,NA,NA,NA,NA,NA,fixation,NA,NA,NA,NA,NA,NA,sub79
d3-animate-choice,225,833353,0.0-76.0-0.30,TRUE,TRUE,TRUE,TRUE,"""event"",""trial"",""time""
""fullscreenenter"",""5"",""15337""
","
","
","""event"",""trial"",""time""
""fullscreenenter"",""5"",""15337""
","
",49.709999992046505,NA,49,NA,NA,3000,1,NA,NA,images/earth.jpg,images/rocket2,images/rocket1,null,images/rocket1,NA,1,real,null,1,NA,NA,NA,sub79
d3-animate-choice,226,836099,0.0-76.0-1.30,TRUE,TRUE,TRUE,TRUE,"""event"",""trial"",""time""
""fullscreenenter"",""5"",""15337""
","
","
","""event"",""trial"",""time""
""fullscreenenter"",""5"",""15337""
","
",733.8250000029802,NA,49,NA,NA,3000,1,NA,NA,images/redplanet1.jpg,images/alien2,images/alien1,images/rocket1,images/alien1,images/t.png,2,real,true,1,common,1,2020-06-16T23:31:05Z,sub79
two-step-fixation,227,837106,0.0-76.0-2.30,TRUE,TRUE,TRUE,TRUE,"""event"",""trial"",""time""
""fullscreenenter"",""5"",""15337""
","
","
","""event"",""trial"",""time""
""fullscreenenter"",""5"",""15337""
","
",NA,images/earth.jpg,NA,NA,NA,NA,NA,NA,NA,NA,NA,NA,NA,NA,NA,fixation,NA,NA,NA,NA,NA,NA,sub79
d3-animate-choice,228,839426,0.0-76.0-0.31,TRUE,TRUE,TRUE,TRUE,"""event"",""trial"",""time""
""fullscreenenter"",""5"",""15337""
","
","
","""event"",""trial"",""time""
""fullscreenenter"",""5"",""15337""
","
",303.78500002552755,NA,49,NA,NA,3000,1,NA,NA,images/earth.jpg,images/rocket2,images/rocket1,null,images/rocket1,NA,1,real,null,1,NA,NA,NA,sub79
d3-animate-choice,229,841981,0.0-76.0-1.31,TRUE,TRUE,TRUE,TRUE,"""event"",""trial"",""time""
""fullscreenenter"",""5"",""15337""
","
","
","""event"",""trial"",""time""
""fullscreenenter"",""5"",""15337""
","
",539.0749999787658,NA,49,NA,NA,3000,1,NA,NA,images/redplanet1.jpg,images/alien2,images/alien1,images/rocket1,images/alien1,images/nothing.png,2,real,true,1,common,0,2020-06-16T23:31:11Z,sub79
two-step-fixation,230,842989,0.0-76.0-2.31,TRUE,TRUE,TRUE,TRUE,"""event"",""trial"",""time""
""fullscreenenter"",""5"",""15337""
","
","
","""event"",""trial"",""time""
""fullscreenenter"",""5"",""15337""
","
",NA,images/earth.jpg,NA,NA,NA,NA,NA,NA,NA,NA,NA,NA,NA,NA,NA,fixation,NA,NA,NA,NA,NA,NA,sub79
d3-animate-choice,231,845364,0.0-76.0-0.32,TRUE,TRUE,TRUE,TRUE,"""event"",""trial"",""time""
""fullscreenenter"",""5"",""15337""
","
","
","""event"",""trial"",""time""
""fullscreenenter"",""5"",""15337""
","
",355.7499999878928,NA,49,NA,NA,3000,1,NA,NA,images/earth.jpg,images/rocket2,images/rocket1,null,images/rocket1,NA,1,real,null,1,NA,NA,NA,sub79
d3-animate-choice,232,847754,0.0-76.0-1.32,TRUE,TRUE,TRUE,TRUE,"""event"",""trial"",""time""
""fullscreenenter"",""5"",""15337""
","
","
","""event"",""trial"",""time""
""fullscreenenter"",""5"",""15337""
","
",374.8300000152085,NA,49,NA,NA,3000,1,NA,NA,images/redplanet1.jpg,images/alien2,images/alien1,images/rocket1,images/alien1,images/t.png,2,real,true,1,common,1,2020-06-16T23:31:16Z,sub79
two-step-fixation,233,848761,0.0-76.0-2.32,TRUE,TRUE,TRUE,TRUE,"""event"",""trial"",""time""
""fullscreenenter"",""5"",""15337""
","
","
","""event"",""trial"",""time""
""fullscreenenter"",""5"",""15337""
","
",NA,images/earth.jpg,NA,NA,NA,NA,NA,NA,NA,NA,NA,NA,NA,NA,NA,fixation,NA,NA,NA,NA,NA,NA,sub79
d3-animate-choice,234,851080,0.0-76.0-0.33,TRUE,TRUE,TRUE,TRUE,"""event"",""trial"",""time""
""fullscreenenter"",""5"",""15337""
","
","
","""event"",""trial"",""time""
""fullscreenenter"",""5"",""15337""
","
",299.7849999810569,NA,49,NA,NA,3000,1,NA,NA,images/earth.jpg,images/rocket2,images/rocket1,null,images/rocket1,NA,1,real,null,1,NA,NA,NA,sub79
d3-animate-choice,235,853583,0.0-76.0-1.33,TRUE,TRUE,TRUE,TRUE,"""event"",""trial"",""time""
""fullscreenenter"",""5"",""15337""
","
","
","""event"",""trial"",""time""
""fullscreenenter"",""5"",""15337""
","
",487.88500000955537,NA,49,NA,NA,3000,1,NA,NA,images/redplanet1.jpg,images/alien2,images/alien1,images/rocket1,images/alien1,images/t.png,2,real,true,1,common,1,2020-06-16T23:31:22Z,sub79
two-step-fixation,236,854590,0.0-76.0-2.33,TRUE,TRUE,TRUE,TRUE,"""event"",""trial"",""time""
""fullscreenenter"",""5"",""15337""
","
","
","""event"",""trial"",""time""
""fullscreenenter"",""5"",""15337""
","
",NA,images/earth.jpg,NA,NA,NA,NA,NA,NA,NA,NA,NA,NA,NA,NA,NA,fixation,NA,NA,NA,NA,NA,NA,sub79
d3-animate-choice,237,856717,0.0-76.0-0.34,TRUE,TRUE,TRUE,TRUE,"""event"",""trial"",""time""
""fullscreenenter"",""5"",""15337""
","
","
","""event"",""trial"",""time""
""fullscreenenter"",""5"",""15337""
","
",113.61500000930391,NA,49,NA,NA,3000,1,NA,NA,images/earth.jpg,images/rocket2,images/rocket1,null,images/rocket1,NA,1,real,null,1,NA,NA,NA,sub79
d3-animate-choice,238,859765,0.0-76.0-1.34,TRUE,TRUE,TRUE,TRUE,"""event"",""trial"",""time""
""fullscreenenter"",""5"",""15337""
","
","
","""event"",""trial"",""time""
""fullscreenenter"",""5"",""15337""
","
",1034.6299999800976,NA,48,NA,NA,3000,1,NA,NA,images/purpleplanet.jpg,images/alien4,images/alien3,images/rocket1,images/alien4,images/t.png,2,real,false,2,rare,1,2020-06-16T23:31:28Z,sub79
two-step-fixation,239,860773,0.0-76.0-2.34,TRUE,TRUE,TRUE,TRUE,"""event"",""trial"",""time""
""fullscreenenter"",""5"",""15337""
","
","
","""event"",""trial"",""time""
""fullscreenenter"",""5"",""15337""
","
",NA,images/earth.jpg,NA,NA,NA,NA,NA,NA,NA,NA,NA,NA,NA,NA,NA,fixation,NA,NA,NA,NA,NA,NA,sub79
d3-animate-choice,240,862974,0.0-76.0-0.35,TRUE,TRUE,TRUE,TRUE,"""event"",""trial"",""time""
""fullscreenenter"",""5"",""15337""
","
","
","""event"",""trial"",""time""
""fullscreenenter"",""5"",""15337""
","
",186.58999999752268,NA,49,NA,NA,3000,1,NA,NA,images/earth.jpg,images/rocket2,images/rocket1,null,images/rocket1,NA,1,real,null,1,NA,NA,NA,sub79
d3-animate-choice,241,865610,0.0-76.0-1.35,TRUE,TRUE,TRUE,TRUE,"""event"",""trial"",""time""
""fullscreenenter"",""5"",""15337""
","
","
","""event"",""trial"",""time""
""fullscreenenter"",""5"",""15337""
","
",620.6499999971129,NA,48,NA,NA,3000,1,NA,NA,images/purpleplanet.jpg,images/alien4,images/alien3,images/rocket1,images/alien4,images/t.png,2,real,false,2,rare,1,2020-06-16T23:31:34Z,sub79
two-step-fixation,242,866620,0.0-76.0-2.35,TRUE,TRUE,TRUE,TRUE,"""event"",""trial"",""time""
""fullscreenenter"",""5"",""15337""
","
","
","""event"",""trial"",""time""
""fullscreenenter"",""5"",""15337""
","
",NA,images/earth.jpg,NA,NA,NA,NA,NA,NA,NA,NA,NA,NA,NA,NA,NA,fixation,NA,NA,NA,NA,NA,NA,sub79
d3-animate-choice,243,868855,0.0-76.0-0.36,TRUE,TRUE,TRUE,TRUE,"""event"",""trial"",""time""
""fullscreenenter"",""5"",""15337""
","
","
","""event"",""trial"",""time""
""fullscreenenter"",""5"",""15337""
","
",221.22500001569279,NA,49,NA,NA,3000,1,NA,NA,images/earth.jpg,images/rocket2,images/rocket1,null,images/rocket1,NA,1,real,null,1,NA,NA,NA,sub79
d3-animate-choice,244,871475,0.0-76.0-1.36,TRUE,TRUE,TRUE,TRUE,"""event"",""trial"",""time""
""fullscreenenter"",""5"",""15337""
","
","
","""event"",""trial"",""time""
""fullscreenenter"",""5"",""15337""
","
",604.974999994738,NA,49,NA,NA,3000,1,NA,NA,images/redplanet1.jpg,images/alien2,images/alien1,images/rocket1,images/alien1,images/t.png,2,real,true,1,common,1,2020-06-16T23:31:40Z,sub79
two-step-fixation,245,872481,0.0-76.0-2.36,TRUE,TRUE,TRUE,TRUE,"""event"",""trial"",""time""
""fullscreenenter"",""5"",""15337""
","
","
","""event"",""trial"",""time""
""fullscreenenter"",""5"",""15337""
","
",NA,images/earth.jpg,NA,NA,NA,NA,NA,NA,NA,NA,NA,NA,NA,NA,NA,fixation,NA,NA,NA,NA,NA,NA,sub79
d3-animate-choice,246,874712,0.0-76.0-0.37,TRUE,TRUE,TRUE,TRUE,"""event"",""trial"",""time""
""fullscreenenter"",""5"",""15337""
","
","
","""event"",""trial"",""time""
""fullscreenenter"",""5"",""15337""
","
",214.78499998920597,NA,49,NA,NA,3000,1,NA,NA,images/earth.jpg,images/rocket2,images/rocket1,null,images/rocket1,NA,1,real,null,1,NA,NA,NA,sub79
d3-animate-choice,247,877361,0.0-76.0-1.37,TRUE,TRUE,TRUE,TRUE,"""event"",""trial"",""time""
""fullscreenenter"",""5"",""15337""
","
","
","""event"",""trial"",""time""
""fullscreenenter"",""5"",""15337""
","
",635.7900000002701,NA,49,NA,NA,3000,1,NA,NA,images/redplanet1.jpg,images/alien2,images/alien1,images/rocket1,images/alien1,images/nothing.png,2,real,true,1,common,0,2020-06-16T23:31:46Z,sub79
two-step-fixation,248,878368,0.0-76.0-2.37,TRUE,TRUE,TRUE,TRUE,"""event"",""trial"",""time""
""fullscreenenter"",""5"",""15337""
","
","
","""event"",""trial"",""time""
""fullscreenenter"",""5"",""15337""
","
",NA,images/earth.jpg,NA,NA,NA,NA,NA,NA,NA,NA,NA,NA,NA,NA,NA,fixation,NA,NA,NA,NA,NA,NA,sub79
d3-animate-choice,249,880762,0.0-76.0-0.38,TRUE,TRUE,TRUE,TRUE,"""event"",""trial"",""time""
""fullscreenenter"",""5"",""15337""
","
","
","""event"",""trial"",""time""
""fullscreenenter"",""5"",""15337""
","
",377.6100000250153,NA,49,NA,NA,3000,1,NA,NA,images/earth.jpg,images/rocket2,images/rocket1,null,images/rocket1,NA,1,real,null,1,NA,NA,NA,sub79
d3-animate-choice,250,883736,0.0-76.0-1.38,TRUE,TRUE,TRUE,TRUE,"""event"",""trial"",""time""
""fullscreenenter"",""5"",""15337""
","
","
","""event"",""trial"",""time""
""fullscreenenter"",""5"",""15337""
","
",957.974999997532,NA,49,NA,NA,3000,1,NA,NA,images/redplanet1.jpg,images/alien2,images/alien1,images/rocket1,images/alien1,images/t.png,2,real,true,1,common,1,2020-06-16T23:31:52Z,sub79
two-step-fixation,251,884746,0.0-76.0-2.38,TRUE,TRUE,TRUE,TRUE,"""event"",""trial"",""time""
""fullscreenenter"",""5"",""15337""
","
","
","""event"",""trial"",""time""
""fullscreenenter"",""5"",""15337""
","
",NA,images/earth.jpg,NA,NA,NA,NA,NA,NA,NA,NA,NA,NA,NA,NA,NA,fixation,NA,NA,NA,NA,NA,NA,sub79
d3-animate-choice,252,887648,0.0-76.0-0.39,TRUE,TRUE,TRUE,TRUE,"""event"",""trial"",""time""
""fullscreenenter"",""5"",""15337""
","
","
","""event"",""trial"",""time""
""fullscreenenter"",""5"",""15337""
","
",885.3700000036042,NA,49,NA,NA,3000,1,NA,NA,images/earth.jpg,images/rocket2,images/rocket1,null,images/rocket1,NA,1,real,null,1,NA,NA,NA,sub79
d3-animate-choice,253,890037,0.0-76.0-1.39,TRUE,TRUE,TRUE,TRUE,"""event"",""trial"",""time""
""fullscreenenter"",""5"",""15337""
","
","
","""event"",""trial"",""time""
""fullscreenenter"",""5"",""15337""
","
",373.154999979306,NA,49,NA,NA,3000,1,NA,NA,images/redplanet1.jpg,images/alien2,images/alien1,images/rocket1,images/alien1,images/nothing.png,2,real,true,1,common,0,2020-06-16T23:31:59Z,sub79
two-step-fixation,254,891044,0.0-76.0-2.39,TRUE,TRUE,TRUE,TRUE,"""event"",""trial"",""time""
""fullscreenenter"",""5"",""15337""
","
","
","""event"",""trial"",""time""
""fullscreenenter"",""5"",""15337""
","
",NA,images/earth.jpg,NA,NA,NA,NA,NA,NA,NA,NA,NA,NA,NA,NA,NA,fixation,NA,NA,NA,NA,NA,NA,sub79
d3-animate-choice,255,893295,0.0-76.0-0.40,TRUE,TRUE,TRUE,TRUE,"""event"",""trial"",""time""
""fullscreenenter"",""5"",""15337""
","
","
","""event"",""trial"",""time""
""fullscreenenter"",""5"",""15337""
","
",234.10499998135492,NA,49,NA,NA,3000,1,NA,NA,images/earth.jpg,images/rocket2,images/rocket1,null,images/rocket1,NA,1,real,null,1,NA,NA,NA,sub79
d3-animate-choice,256,895980,0.0-76.0-1.40,TRUE,TRUE,TRUE,TRUE,"""event"",""trial"",""time""
""fullscreenenter"",""5"",""15337""
","
","
","""event"",""trial"",""time""
""fullscreenenter"",""5"",""15337""
","
",670.5800000054296,NA,49,NA,NA,3000,1,NA,NA,images/redplanet1.jpg,images/alien2,images/alien1,images/rocket1,images/alien1,images/nothing.png,2,real,true,1,common,0,2020-06-16T23:32:05Z,sub79
two-step-fixation,257,896988,0.0-76.0-2.40,TRUE,TRUE,TRUE,TRUE,"""event"",""trial"",""time""
""fullscreenenter"",""5"",""15337""
","
","
","""event"",""trial"",""time""
""fullscreenenter"",""5"",""15337""
","
",NA,images/earth.jpg,NA,NA,NA,NA,NA,NA,NA,NA,NA,NA,NA,NA,NA,fixation,NA,NA,NA,NA,NA,NA,sub79
d3-animate-choice,258,899520,0.0-76.0-0.41,TRUE,TRUE,TRUE,TRUE,"""event"",""trial"",""time""
""fullscreenenter"",""5"",""15337""
","
","
","""event"",""trial"",""time""
""fullscreenenter"",""5"",""15337""
","
",518.6099999991711,NA,48,NA,NA,3000,1,NA,NA,images/earth.jpg,images/rocket2,images/rocket1,null,images/rocket2,NA,1,real,null,2,NA,NA,NA,sub79
d3-animate-choice,259,902009,0.0-76.0-1.41,TRUE,TRUE,TRUE,TRUE,"""event"",""trial"",""time""
""fullscreenenter"",""5"",""15337""
","
","
","""event"",""trial"",""time""
""fullscreenenter"",""5"",""15337""
","
",477.09000000031665,NA,49,NA,NA,3000,1,NA,NA,images/purpleplanet.jpg,images/alien4,images/alien3,images/rocket2,images/alien3,images/nothing.png,2,real,true,1,common,0,2020-06-16T23:32:11Z,sub79
two-step-fixation,260,903020,0.0-76.0-2.41,TRUE,TRUE,TRUE,TRUE,"""event"",""trial"",""time""
""fullscreenenter"",""5"",""15337""
","
","
","""event"",""trial"",""time""
""fullscreenenter"",""5"",""15337""
","
",NA,images/earth.jpg,NA,NA,NA,NA,NA,NA,NA,NA,NA,NA,NA,NA,NA,fixation,NA,NA,NA,NA,NA,NA,sub79
d3-animate-choice,261,905298,0.0-76.0-0.42,TRUE,TRUE,TRUE,TRUE,"""event"",""trial"",""time""
""fullscreenenter"",""5"",""15337""
","
","
","""event"",""trial"",""time""
""fullscreenenter"",""5"",""15337""
","
",260.8349999936763,NA,48,NA,NA,3000,1,NA,NA,images/earth.jpg,images/rocket2,images/rocket1,null,images/rocket2,NA,1,real,null,2,NA,NA,NA,sub79
d3-animate-choice,262,907889,0.0-76.0-1.42,TRUE,TRUE,TRUE,TRUE,"""event"",""trial"",""time""
""fullscreenenter"",""5"",""15337""
","
","
","""event"",""trial"",""time""
""fullscreenenter"",""5"",""15337""
","
",574.7350000019651,NA,49,NA,NA,3000,1,NA,NA,images/redplanet1.jpg,images/alien2,images/alien1,images/rocket2,images/alien1,images/nothing.png,2,real,false,1,rare,0,2020-06-16T23:32:16Z,sub79
two-step-fixation,263,908898,0.0-76.0-2.42,TRUE,TRUE,TRUE,TRUE,"""event"",""trial"",""time""
""fullscreenenter"",""5"",""15337""
","
","
","""event"",""trial"",""time""
""fullscreenenter"",""5"",""15337""
","
",NA,images/earth.jpg,NA,NA,NA,NA,NA,NA,NA,NA,NA,NA,NA,NA,NA,fixation,NA,NA,NA,NA,NA,NA,sub79
d3-animate-choice,264,911206,0.0-76.0-0.43,TRUE,TRUE,TRUE,TRUE,"""event"",""trial"",""time""
""fullscreenenter"",""5"",""15337""
","
","
","""event"",""trial"",""time""
""fullscreenenter"",""5"",""15337""
","
",294.51499998685904,NA,48,NA,NA,3000,1,NA,NA,images/earth.jpg,images/rocket2,images/rocket1,null,images/rocket2,NA,1,real,null,2,NA,NA,NA,sub79
d3-animate-choice,265,913966,0.0-76.0-1.43,TRUE,TRUE,TRUE,TRUE,"""event"",""trial"",""time""
""fullscreenenter"",""5"",""15337""
","
","
","""event"",""trial"",""time""
""fullscreenenter"",""5"",""15337""
","
",745.9450000023935,NA,48,NA,NA,3000,1,NA,NA,images/purpleplanet.jpg,images/alien4,images/alien3,images/rocket2,images/alien4,images/t.png,2,real,true,2,common,1,2020-06-16T23:32:23Z,sub79
two-step-fixation,266,914973,0.0-76.0-2.43,TRUE,TRUE,TRUE,TRUE,"""event"",""trial"",""time""
""fullscreenenter"",""5"",""15337""
","
","
","""event"",""trial"",""time""
""fullscreenenter"",""5"",""15337""
","
",NA,images/earth.jpg,NA,NA,NA,NA,NA,NA,NA,NA,NA,NA,NA,NA,NA,fixation,NA,NA,NA,NA,NA,NA,sub79
d3-animate-choice,267,917349,0.0-76.0-0.44,TRUE,TRUE,TRUE,TRUE,"""event"",""trial"",""time""
""fullscreenenter"",""5"",""15337""
","
","
","""event"",""trial"",""time""
""fullscreenenter"",""5"",""15337""
","
",360.56500000995584,NA,48,NA,NA,3000,1,431.0150000092108,32,images/earth.jpg,images/rocket2,images/rocket1,null,images/rocket2,NA,1,real,null,2,NA,NA,NA,sub79
d3-animate-choice,268,919964,0.0-76.0-1.44,TRUE,TRUE,TRUE,TRUE,"""event"",""trial"",""time""
""fullscreenenter"",""5"",""15337""
","
","
","""event"",""trial"",""time""
""fullscreenenter"",""5"",""15337""
","
",600.4200000024866,NA,48,NA,NA,3000,1,NA,NA,images/purpleplanet.jpg,images/alien4,images/alien3,images/rocket2,images/alien4,images/t.png,2,real,true,2,common,1,2020-06-16T23:32:28Z,sub79
two-step-fixation,269,920970,0.0-76.0-2.44,TRUE,TRUE,TRUE,TRUE,"""event"",""trial"",""time""
""fullscreenenter"",""5"",""15337""
","
","
","""event"",""trial"",""time""
""fullscreenenter"",""5"",""15337""
","
",NA,images/earth.jpg,NA,NA,NA,NA,NA,NA,NA,NA,NA,NA,NA,NA,NA,fixation,NA,NA,NA,NA,NA,NA,sub79
d3-animate-choice,270,923025,0.0-76.0-0.45,TRUE,TRUE,TRUE,TRUE,"""event"",""trial"",""time""
""fullscreenenter"",""5"",""15337""
","
","
","""event"",""trial"",""time""
""fullscreenenter"",""5"",""15337""
","
",45.50999999628402,NA,48,NA,NA,3000,1,NA,NA,images/earth.jpg,images/rocket2,images/rocket1,null,images/rocket2,NA,1,real,null,2,NA,NA,NA,sub79
d3-animate-choice,271,925456,0.0-76.0-1.45,TRUE,TRUE,TRUE,TRUE,"""event"",""trial"",""time""
""fullscreenenter"",""5"",""15337""
","
","
","""event"",""trial"",""time""
""fullscreenenter"",""5"",""15337""
","
",414.954999985639,NA,48,NA,NA,3000,1,NA,NA,images/purpleplanet.jpg,images/alien4,images/alien3,images/rocket2,images/alien4,images/t.png,2,real,true,2,common,1,2020-06-16T23:32:34Z,sub79
two-step-fixation,272,926464,0.0-76.0-2.45,TRUE,TRUE,TRUE,TRUE,"""event"",""trial"",""time""
""fullscreenenter"",""5"",""15337""
","
","
","""event"",""trial"",""time""
""fullscreenenter"",""5"",""15337""
","
",NA,images/earth.jpg,NA,NA,NA,NA,NA,NA,NA,NA,NA,NA,NA,NA,NA,fixation,NA,NA,NA,NA,NA,NA,sub79
d3-animate-choice,273,928839,0.0-76.0-0.46,TRUE,TRUE,TRUE,TRUE,"""event"",""trial"",""time""
""fullscreenenter"",""5"",""15337""
","
","
","""event"",""trial"",""time""
""fullscreenenter"",""5"",""15337""
","
",357.9549999849405,NA,48,NA,NA,3000,1,NA,NA,images/earth.jpg,images/rocket2,images/rocket1,null,images/rocket2,NA,1,real,null,2,NA,NA,NA,sub79
d3-animate-choice,274,932009,0.0-76.0-1.46,TRUE,TRUE,TRUE,TRUE,"""event"",""trial"",""time""
""fullscreenenter"",""5"",""15337""
","
","
","""event"",""trial"",""time""
""fullscreenenter"",""5"",""15337""
","
",1155.9000000124797,NA,48,NA,NA,3000,1,NA,NA,images/purpleplanet.jpg,images/alien4,images/alien3,images/rocket2,images/alien4,images/t.png,2,real,true,2,common,1,2020-06-16T23:32:41Z,sub79
two-step-fixation,275,933016,0.0-76.0-2.46,TRUE,TRUE,TRUE,TRUE,"""event"",""trial"",""time""
""fullscreenenter"",""5"",""15337""
","
","
","""event"",""trial"",""time""
""fullscreenenter"",""5"",""15337""
","
",NA,images/earth.jpg,NA,NA,NA,NA,NA,NA,NA,NA,NA,NA,NA,NA,NA,fixation,NA,NA,NA,NA,NA,NA,sub79
d3-animate-choice,276,935319,0.0-76.0-0.47,TRUE,TRUE,TRUE,TRUE,"""event"",""trial"",""time""
""fullscreenenter"",""5"",""15337""
","
","
","""event"",""trial"",""time""
""fullscreenenter"",""5"",""15337""
","
",286.4349999872502,NA,48,NA,NA,3000,1,NA,NA,images/earth.jpg,images/rocket2,images/rocket1,null,images/rocket2,NA,1,real,null,2,NA,NA,NA,sub79
d3-animate-choice,277,937695,0.0-76.0-1.47,TRUE,TRUE,TRUE,TRUE,"""event"",""trial"",""time""
""fullscreenenter"",""5"",""15337""
","
","
","""event"",""trial"",""time""
""fullscreenenter"",""5"",""15337""
","
",362.40000001271255,NA,49,NA,NA,3000,1,NA,NA,images/purpleplanet.jpg,images/alien4,images/alien3,images/rocket2,images/alien3,images/nothing.png,2,real,true,1,common,0,2020-06-16T23:32:46Z,sub79
two-step-fixation,278,938706,0.0-76.0-2.47,TRUE,TRUE,TRUE,TRUE,"""event"",""trial"",""time""
""fullscreenenter"",""5"",""15337""
","
","
","""event"",""trial"",""time""
""fullscreenenter"",""5"",""15337""
","
",NA,images/earth.jpg,NA,NA,NA,NA,NA,NA,NA,NA,NA,NA,NA,NA,NA,fixation,NA,NA,NA,NA,NA,NA,sub79
d3-animate-choice,279,941506,0.0-76.0-0.48,TRUE,TRUE,TRUE,TRUE,"""event"",""trial"",""time""
""fullscreenenter"",""5"",""15337""
","
","
","""event"",""trial"",""time""
""fullscreenenter"",""5"",""15337""
","
",786.9650000066031,NA,48,NA,NA,3000,1,NA,NA,images/earth.jpg,images/rocket2,images/rocket1,null,images/rocket2,NA,1,real,null,2,NA,NA,NA,sub79
d3-animate-choice,280,943877,0.0-76.0-1.48,TRUE,TRUE,TRUE,TRUE,"""event"",""trial"",""time""
""fullscreenenter"",""5"",""15337""
","
","
","""event"",""trial"",""time""
""fullscreenenter"",""5"",""15337""
","
