trial_type,trial_index,time_elapsed,internal_node_id,rocket_sides,red_planet_first_rocket,red_display_order,purple_display_order,interactions,blur_events,focus_events,fullscreenenter_events,fullscreenexit_events,rt,stimulus,key_press,button_pressed,success,duration,valid_pressed,rts,keys,planet_text,right_text,left_text,center_text,chosen_text,reward_text,trial_stage,practice_trial,transition_type,choice,transition,reward,timestamp,subject_id
pavlovia,0,9,0.0-0.0,TRUE,FALSE,TRUE,TRUE,"
","
","
","
","
",NA,NA,NA,NA,NA,NA,NA,NA,NA,NA,NA,NA,NA,NA,NA,NA,NA,NA,NA,NA,NA,NA,sub37
html-keyboard-response,1,1559,0.0-1.0,TRUE,FALSE,TRUE,TRUE,"
","
","
","
","
",1548.0100000000893,Welcome! Press the space bar to begin.,32,NA,NA,NA,NA,NA,NA,NA,NA,NA,NA,NA,NA,NA,NA,NA,NA,NA,NA,NA,sub37
audio-keyboard-response,2,4537,0.0-2.0,TRUE,FALSE,TRUE,TRUE,"
","
","
","
","
",2861,audio/beep_loop.wav,32,NA,NA,NA,NA,NA,NA,NA,NA,NA,NA,NA,NA,NA,NA,NA,NA,NA,NA,NA,sub37
audio-button-response,3,7777,0.0-3.0,TRUE,FALSE,TRUE,TRUE,"
","
","
","
","
",NaN,audio/fish.mp3,NA,1,NA,NA,NA,NA,NA,NA,NA,NA,NA,NA,NA,NA,NA,NA,NA,NA,NA,NA,sub37
audio-button-response,4,10704,0.0-4.0,TRUE,FALSE,TRUE,TRUE,"""event"",""trial"",""time""
""fullscreenenter"",""5"",""17258""
","
","
","""event"",""trial"",""time""
""fullscreenenter"",""5"",""17258""
","
",NaN,audio/tiger.mp3,NA,4,NA,NA,NA,NA,NA,NA,NA,NA,NA,NA,NA,NA,NA,NA,NA,NA,NA,NA,sub37
fullscreen,5,18222,0.0-5.0,TRUE,FALSE,TRUE,TRUE,"""event"",""trial"",""time""
""fullscreenenter"",""5"",""17258""
","
","
","""event"",""trial"",""time""
""fullscreenenter"",""5"",""17258""
","
",NA,NA,NA,NA,TRUE,NA,NA,NA,NA,NA,NA,NA,NA,NA,NA,NA,NA,NA,NA,NA,NA,NA,sub37
d3-instructions,6,36351,0.0-6.0,TRUE,FALSE,TRUE,TRUE,"""event"",""trial"",""time""
""fullscreenenter"",""5"",""17258""
","
","
","""event"",""trial"",""time""
""fullscreenenter"",""5"",""17258""
","
",NA,NA,NA,NA,NA,NA,NA,NA,NA,NA,NA,NA,NA,NA,NA,NA,NA,NA,NA,NA,NA,NA,sub37
d3-instructions,7,45184,0.0-7.0,TRUE,FALSE,TRUE,TRUE,"""event"",""trial"",""time""
""fullscreenenter"",""5"",""17258""
","
","
","""event"",""trial"",""time""
""fullscreenenter"",""5"",""17258""
","
",NA,NA,NA,NA,NA,NA,NA,NA,NA,NA,NA,NA,NA,NA,NA,NA,NA,NA,NA,NA,NA,NA,sub37
d3-instructions,8,52826,0.0-8.0,TRUE,FALSE,TRUE,TRUE,"""event"",""trial"",""time""
""fullscreenenter"",""5"",""17258""
","
","
","""event"",""trial"",""time""
""fullscreenenter"",""5"",""17258""
","
",NA,NA,NA,NA,NA,NA,NA,NA,NA,NA,NA,NA,NA,NA,NA,NA,NA,NA,NA,NA,NA,NA,sub37
d3-instructions,9,64240,0.0-9.0,TRUE,FALSE,TRUE,TRUE,"""event"",""trial"",""time""
""fullscreenenter"",""5"",""17258""
","
","
","""event"",""trial"",""time""
""fullscreenenter"",""5"",""17258""
","
",NA,NA,NA,NA,NA,NA,NA,NA,NA,NA,NA,NA,NA,NA,NA,NA,NA,NA,NA,NA,NA,NA,sub37
d3-instructions,10,92908,0.0-10.0,TRUE,FALSE,TRUE,TRUE,"""event"",""trial"",""time""
""fullscreenenter"",""5"",""17258""
","
","
","""event"",""trial"",""time""
""fullscreenenter"",""5"",""17258""
","
",NA,NA,NA,NA,NA,NA,NA,NA,NA,NA,NA,NA,NA,NA,NA,NA,NA,NA,NA,NA,NA,NA,sub37
d3-animate-choice,11,96993,0.0-11.0,TRUE,FALSE,TRUE,TRUE,"""event"",""trial"",""time""
""fullscreenenter"",""5"",""17258""
","
","
","""event"",""trial"",""time""
""fullscreenenter"",""5"",""17258""
","
",2068.8649999999616,NA,49,NA,NA,3000,1,NA,NA,images/tutgreenplanet.jpg,images/tutalien1,images/tutalien2,null,images/tutalien2,NA,NA,practice,null,NA,NA,NA,NA,sub37
d3-animate-choice,12,100642,0.0-12.0,TRUE,FALSE,TRUE,TRUE,"""event"",""trial"",""time""
""fullscreenenter"",""5"",""17258""
","
","
","""event"",""trial"",""time""
""fullscreenenter"",""5"",""17258""
","
",1643.3500000000495,NA,48,NA,NA,3000,1,NA,NA,images/tutgreenplanet.jpg,images/tutalien1,images/tutalien2,null,images/tutalien1,NA,NA,practice,null,NA,NA,NA,NA,sub37
d3-animate-choice,13,104180,0.0-13.0,TRUE,FALSE,TRUE,TRUE,"""event"",""trial"",""time""
""fullscreenenter"",""5"",""17258""
","
","
","""event"",""trial"",""time""
""fullscreenenter"",""5"",""17258""
","
",1532.8899999999558,NA,49,NA,NA,3000,1,2234.86500000002,48,images/tutgreenplanet.jpg,images/tutalien1,images/tutalien2,null,images/tutalien2,NA,NA,practice,null,NA,NA,NA,NA,sub37
d3-animate-choice,14,106533,0.0-14.0,TRUE,FALSE,TRUE,TRUE,"""event"",""trial"",""time""
""fullscreenenter"",""5"",""17258""
","
","
","""event"",""trial"",""time""
""fullscreenenter"",""5"",""17258""
","
",348.2799999999261,NA,48,NA,NA,3000,1,NA,NA,images/tutgreenplanet.jpg,images/tutalien1,images/tutalien2,null,images/tutalien1,NA,NA,practice,null,NA,NA,NA,NA,sub37
d3-instructions,15,114544,0.0-15.0,TRUE,FALSE,TRUE,TRUE,"""event"",""trial"",""time""
""fullscreenenter"",""5"",""17258""
","
","
","""event"",""trial"",""time""
""fullscreenenter"",""5"",""17258""
","
",NA,NA,NA,NA,NA,NA,NA,NA,NA,NA,NA,NA,NA,NA,NA,NA,NA,NA,NA,NA,NA,NA,sub37
d3-instructions,16,122180,0.0-16.0,TRUE,FALSE,TRUE,TRUE,"""event"",""trial"",""time""
""fullscreenenter"",""5"",""17258""
","
","
","""event"",""trial"",""time""
""fullscreenenter"",""5"",""17258""
","
",NA,NA,NA,NA,NA,NA,NA,NA,NA,NA,NA,NA,NA,NA,NA,NA,NA,NA,NA,NA,NA,NA,sub37
d3-instructions,17,132122,0.0-17.0,TRUE,FALSE,TRUE,TRUE,"""event"",""trial"",""time""
""fullscreenenter"",""5"",""17258""
","
","
","""event"",""trial"",""time""
""fullscreenenter"",""5"",""17258""
","
",NA,NA,NA,NA,NA,NA,NA,NA,NA,NA,NA,NA,NA,NA,NA,NA,NA,NA,NA,NA,NA,NA,sub37
d3-instructions,18,145612,0.0-18.0,TRUE,FALSE,TRUE,TRUE,"""event"",""trial"",""time""
""fullscreenenter"",""5"",""17258""
","
","
","""event"",""trial"",""time""
""fullscreenenter"",""5"",""17258""
","
",NA,NA,NA,NA,NA,NA,NA,NA,NA,NA,NA,NA,NA,NA,NA,NA,NA,NA,NA,NA,NA,NA,sub37
d3-instructions,19,160128,0.0-19.0,TRUE,FALSE,TRUE,TRUE,"""event"",""trial"",""time""
""fullscreenenter"",""5"",""17258""
","
","
","""event"",""trial"",""time""
""fullscreenenter"",""5"",""17258""
","
",NA,NA,NA,NA,NA,NA,NA,NA,NA,NA,NA,NA,NA,NA,NA,NA,NA,NA,NA,NA,NA,NA,sub37
d3-animate-choice,20,163831,0.0-20.0,TRUE,FALSE,TRUE,TRUE,"""event"",""trial"",""time""
""fullscreenenter"",""5"",""17258""
","
","
","""event"",""trial"",""time""
""fullscreenenter"",""5"",""17258""
","
",1699.0950000000594,NA,49,NA,NA,3000,1,NA,NA,images/tutyellowplanet.jpg,null,images/tutalien3,null,images/tutalien3,images/t.png,NA,practice,null,NA,NA,NA,NA,sub37
d3-animate-choice,21,166476,0.0-21.0,TRUE,FALSE,TRUE,TRUE,"""event"",""trial"",""time""
""fullscreenenter"",""5"",""17258""
","
","
","""event"",""trial"",""time""
""fullscreenenter"",""5"",""17258""
","
",641.5749999999825,NA,49,NA,NA,3000,1,NA,NA,images/tutyellowplanet.jpg,null,images/tutalien3,null,images/tutalien3,images/t.png,NA,practice,null,NA,NA,NA,NA,sub37
d3-animate-choice,22,168755,0.0-22.0,TRUE,FALSE,TRUE,TRUE,"""event"",""trial"",""time""
""fullscreenenter"",""5"",""17258""
","
","
","""event"",""trial"",""time""
""fullscreenenter"",""5"",""17258""
","
",275.06500000006054,NA,49,NA,NA,3000,1,NA,NA,images/tutyellowplanet.jpg,null,images/tutalien3,null,images/tutalien3,images/t.png,NA,practice,null,NA,NA,NA,NA,sub37
d3-animate-choice,23,171023,0.0-23.0,TRUE,FALSE,TRUE,TRUE,"""event"",""trial"",""time""
""fullscreenenter"",""5"",""17258""
","
","
","""event"",""trial"",""time""
""fullscreenenter"",""5"",""17258""
","
",264.88000000006286,NA,49,NA,NA,3000,1,NA,NA,images/tutyellowplanet.jpg,null,images/tutalien3,null,images/tutalien3,images/nothing.png,NA,practice,null,NA,NA,NA,NA,sub37
d3-animate-choice,24,173547,0.0-24.0,TRUE,FALSE,TRUE,TRUE,"""event"",""trial"",""time""
""fullscreenenter"",""5"",""17258""
","
","
","""event"",""trial"",""time""
""fullscreenenter"",""5"",""17258""
","
",521.6350000000675,NA,49,NA,NA,3000,1,NA,NA,images/tutyellowplanet.jpg,null,images/tutalien3,null,images/tutalien3,images/t.png,NA,practice,null,NA,NA,NA,NA,sub37
d3-animate-choice,25,175671,0.0-25.0,TRUE,FALSE,TRUE,TRUE,"""event"",""trial"",""time""
""fullscreenenter"",""5"",""17258""
","
","
","""event"",""trial"",""time""
""fullscreenenter"",""5"",""17258""
","
",119.4199999999837,NA,49,NA,NA,3000,1,NA,NA,images/tutyellowplanet.jpg,null,images/tutalien3,null,images/tutalien3,images/t.png,NA,practice,null,NA,NA,NA,NA,sub37
d3-animate-choice,26,177769,0.0-26.0,TRUE,FALSE,TRUE,TRUE,"""event"",""trial"",""time""
""fullscreenenter"",""5"",""17258""
","
","
","""event"",""trial"",""time""
""fullscreenenter"",""5"",""17258""
","
",94.6150000001071,NA,49,NA,NA,3000,1,2049.170000000013,49,images/tutyellowplanet.jpg,null,images/tutalien3,null,images/tutalien3,images/nothing.png,NA,practice,null,NA,NA,NA,NA,sub37
d3-animate-choice,27,180713,0.0-27.0,TRUE,FALSE,TRUE,TRUE,"""event"",""trial"",""time""
""fullscreenenter"",""5"",""17258""
","
","
","""event"",""trial"",""time""
""fullscreenenter"",""5"",""17258""
","
",937.0950000000012,NA,49,NA,NA,3000,1,2751.390000000014,49,images/tutyellowplanet.jpg,null,images/tutalien3,null,images/tutalien3,images/nothing.png,NA,practice,null,NA,NA,NA,NA,sub37
d3-animate-choice,28,183238,0.0-28.0,TRUE,FALSE,TRUE,TRUE,"""event"",""trial"",""time""
""fullscreenenter"",""5"",""17258""
","
","
","""event"",""trial"",""time""
""fullscreenenter"",""5"",""17258""
","
",521.5650000000314,NA,49,NA,NA,3000,1,2190.3399999999965,49,images/tutyellowplanet.jpg,null,images/tutalien3,null,images/tutalien3,images/nothing.png,NA,practice,null,NA,NA,NA,NA,sub37
d3-animate-choice,29,185770,0.0-29.0,TRUE,FALSE,TRUE,TRUE,"""event"",""trial"",""time""
""fullscreenenter"",""5"",""17258""
","
","
","""event"",""trial"",""time""
""fullscreenenter"",""5"",""17258""
","
",528.820000000007,NA,49,NA,NA,3000,1,NA,NA,images/tutyellowplanet.jpg,null,images/tutalien3,null,images/tutalien3,images/t.png,NA,practice,null,NA,NA,NA,NA,sub37
d3-instructions,30,193743,0.0-30.0,TRUE,FALSE,TRUE,TRUE,"""event"",""trial"",""time""
""fullscreenenter"",""5"",""17258""
","
","
","""event"",""trial"",""time""
""fullscreenenter"",""5"",""17258""
","
",NA,NA,NA,NA,NA,NA,NA,NA,NA,NA,NA,NA,NA,NA,NA,NA,NA,NA,NA,NA,NA,NA,sub37
d3-instructions,31,204969,0.0-31.0,TRUE,FALSE,TRUE,TRUE,"""event"",""trial"",""time""
""fullscreenenter"",""5"",""17258""
","
","
","""event"",""trial"",""time""
""fullscreenenter"",""5"",""17258""
","
",NA,NA,NA,NA,NA,NA,NA,NA,NA,NA,NA,NA,NA,NA,NA,NA,NA,NA,NA,NA,NA,NA,sub37
d3-instructions,32,213409,0.0-32.0,TRUE,FALSE,TRUE,TRUE,"""event"",""trial"",""time""
""fullscreenenter"",""5"",""17258""
","
","
","""event"",""trial"",""time""
""fullscreenenter"",""5"",""17258""
","
",NA,NA,NA,NA,NA,NA,NA,NA,NA,NA,NA,NA,NA,NA,NA,NA,NA,NA,NA,NA,NA,NA,sub37
d3-instructions,33,224161,0.0-33.0,TRUE,FALSE,TRUE,TRUE,"""event"",""trial"",""time""
""fullscreenenter"",""5"",""17258""
","
","
","""event"",""trial"",""time""
""fullscreenenter"",""5"",""17258""
","
",NA,NA,NA,NA,NA,NA,NA,NA,NA,NA,NA,NA,NA,NA,NA,NA,NA,NA,NA,NA,NA,NA,sub37
d3-animate-choice,34,227876,0.0-34.0,TRUE,FALSE,TRUE,TRUE,"""event"",""trial"",""time""
""fullscreenenter"",""5"",""17258""
","
","
","""event"",""trial"",""time""
""fullscreenenter"",""5"",""17258""
","
",1711.5800000000163,NA,49,NA,NA,3000,1,NA,NA,images/tutgreenplanet.jpg,images/tutalien1,images/tutalien2,null,images/tutalien2,images/t.png,NA,practice,null,NA,NA,NA,NA,sub37
d3-animate-choice,35,231325,0.0-35.0,TRUE,FALSE,TRUE,TRUE,"""event"",""trial"",""time""
""fullscreenenter"",""5"",""17258""
","
","
","""event"",""trial"",""time""
""fullscreenenter"",""5"",""17258""
","
",1445.0600000000268,NA,48,NA,NA,3000,1,NA,NA,images/tutgreenplanet.jpg,images/tutalien1,images/tutalien2,null,images/tutalien1,images/nothing.png,NA,practice,null,NA,NA,NA,NA,sub37
d3-animate-choice,36,233796,0.0-36.0,TRUE,FALSE,TRUE,TRUE,"""event"",""trial"",""time""
""fullscreenenter"",""5"",""17258""
","
","
","""event"",""trial"",""time""
""fullscreenenter"",""5"",""17258""
","
",466.84499999991385,NA,49,NA,NA,3000,1,NA,NA,images/tutgreenplanet.jpg,images/tutalien1,images/tutalien2,null,images/tutalien2,images/t.png,NA,practice,null,NA,NA,NA,NA,sub37
d3-animate-choice,37,236325,0.0-37.0,TRUE,FALSE,TRUE,TRUE,"""event"",""trial"",""time""
""fullscreenenter"",""5"",""17258""
","
","
","""event"",""trial"",""time""
""fullscreenenter"",""5"",""17258""
","
",525.1900000000896,NA,49,NA,NA,3000,1,NA,NA,images/tutgreenplanet.jpg,images/tutalien1,images/tutalien2,null,images/tutalien2,images/t.png,NA,practice,null,NA,NA,NA,NA,sub37
d3-animate-choice,38,238645,0.0-38.0,TRUE,FALSE,TRUE,TRUE,"""event"",""trial"",""time""
""fullscreenenter"",""5"",""17258""
","
","
","""event"",""trial"",""time""
""fullscreenenter"",""5"",""17258""
","
",314.7699999999604,NA,49,NA,NA,3000,1,NA,NA,images/tutgreenplanet.jpg,images/tutalien1,images/tutalien2,null,images/tutalien2,images/t.png,NA,practice,null,NA,NA,NA,NA,sub37
d3-animate-choice,39,240926,0.0-39.0,TRUE,FALSE,TRUE,TRUE,"""event"",""trial"",""time""
""fullscreenenter"",""5"",""17258""
","
","
","""event"",""trial"",""time""
""fullscreenenter"",""5"",""17258""
","
",276.0200000000186,NA,49,NA,NA,3000,1,NA,NA,images/tutgreenplanet.jpg,images/tutalien1,images/tutalien2,null,images/tutalien2,images/t.png,NA,practice,null,NA,NA,NA,NA,sub37
d3-animate-choice,40,243265,0.0-40.0,TRUE,FALSE,TRUE,TRUE,"""event"",""trial"",""time""
""fullscreenenter"",""5"",""17258""
","
","
","""event"",""trial"",""time""
""fullscreenenter"",""5"",""17258""
","
",333.83500000002095,NA,49,NA,NA,3000,1,NA,NA,images/tutgreenplanet.jpg,images/tutalien1,images/tutalien2,null,images/tutalien2,images/t.png,NA,practice,null,NA,NA,NA,NA,sub37
d3-animate-choice,41,245618,0.0-41.0,TRUE,FALSE,TRUE,TRUE,"""event"",""trial"",""time""
""fullscreenenter"",""5"",""17258""
","
","
","""event"",""trial"",""time""
""fullscreenenter"",""5"",""17258""
","
",349.1149999999907,NA,49,NA,NA,3000,1,NA,NA,images/tutgreenplanet.jpg,images/tutalien1,images/tutalien2,null,images/tutalien2,images/t.png,NA,practice,null,NA,NA,NA,NA,sub37
d3-animate-choice,42,247940,0.0-42.0,TRUE,FALSE,TRUE,TRUE,"""event"",""trial"",""time""
""fullscreenenter"",""5"",""17258""
","
","
","""event"",""trial"",""time""
""fullscreenenter"",""5"",""17258""
","
",317.8149999999441,NA,49,NA,NA,3000,1,NA,NA,images/tutgreenplanet.jpg,images/tutalien1,images/tutalien2,null,images/tutalien2,images/t.png,NA,practice,null,NA,NA,NA,NA,sub37
d3-animate-choice,43,250491,0.0-43.0,TRUE,FALSE,TRUE,TRUE,"""event"",""trial"",""time""
""fullscreenenter"",""5"",""17258""
","
","
","""event"",""trial"",""time""
""fullscreenenter"",""5"",""17258""
","
",546.6500000000233,NA,49,NA,NA,3000,1,NA,NA,images/tutgreenplanet.jpg,images/tutalien1,images/tutalien2,null,images/tutalien2,images/t.png,NA,practice,null,NA,NA,NA,NA,sub37
d3-instructions,44,263821,0.0-44.0,TRUE,FALSE,TRUE,TRUE,"""event"",""trial"",""time""
""fullscreenenter"",""5"",""17258""
","
","
","""event"",""trial"",""time""
""fullscreenenter"",""5"",""17258""
","
",NA,NA,NA,NA,NA,NA,NA,NA,NA,NA,NA,NA,NA,NA,NA,NA,NA,NA,NA,NA,NA,NA,sub37
d3-instructions,45,270611,0.0-45.0,TRUE,FALSE,TRUE,TRUE,"""event"",""trial"",""time""
""fullscreenenter"",""5"",""17258""
","
","
","""event"",""trial"",""time""
""fullscreenenter"",""5"",""17258""
","
",NA,NA,NA,NA,NA,NA,NA,NA,NA,NA,NA,NA,NA,NA,NA,NA,NA,NA,NA,NA,NA,NA,sub37
d3-instructions,46,276133,0.0-46.0,TRUE,FALSE,TRUE,TRUE,"""event"",""trial"",""time""
""fullscreenenter"",""5"",""17258""
","
","
","""event"",""trial"",""time""
""fullscreenenter"",""5"",""17258""
","
",NA,NA,NA,NA,NA,NA,NA,NA,NA,NA,NA,NA,NA,NA,NA,NA,NA,NA,NA,NA,NA,NA,sub37
d3-instructions,47,293009,0.0-47.0,TRUE,FALSE,TRUE,TRUE,"""event"",""trial"",""time""
""fullscreenenter"",""5"",""17258""
","
","
","""event"",""trial"",""time""
""fullscreenenter"",""5"",""17258""
","
",NA,NA,NA,NA,NA,NA,NA,NA,NA,NA,NA,NA,NA,NA,NA,NA,NA,NA,NA,NA,NA,NA,sub37
d3-instructions,48,300454,0.0-48.0,TRUE,FALSE,TRUE,TRUE,"""event"",""trial"",""time""
""fullscreenenter"",""5"",""17258""
","
","
","""event"",""trial"",""time""
""fullscreenenter"",""5"",""17258""
","
",NA,NA,NA,NA,NA,NA,NA,NA,NA,NA,NA,NA,NA,NA,NA,NA,NA,NA,NA,NA,NA,NA,sub37
d3-instructions,49,311869,0.0-49.0,TRUE,FALSE,TRUE,TRUE,"""event"",""trial"",""time""
""fullscreenenter"",""5"",""17258""
","
","
","""event"",""trial"",""time""
""fullscreenenter"",""5"",""17258""
","
",NA,NA,NA,NA,NA,NA,NA,NA,NA,NA,NA,NA,NA,NA,NA,NA,NA,NA,NA,NA,NA,NA,sub37
d3-instructions,50,320963,0.0-50.0,TRUE,FALSE,TRUE,TRUE,"""event"",""trial"",""time""
""fullscreenenter"",""5"",""17258""
","
","
","""event"",""trial"",""time""
""fullscreenenter"",""5"",""17258""
","
",NA,NA,NA,NA,NA,NA,NA,NA,NA,NA,NA,NA,NA,NA,NA,NA,NA,NA,NA,NA,NA,NA,sub37
d3-instructions,51,324111,0.0-51.0,TRUE,FALSE,TRUE,TRUE,"""event"",""trial"",""time""
""fullscreenenter"",""5"",""17258""
","
","
","""event"",""trial"",""time""
""fullscreenenter"",""5"",""17258""
","
",NA,NA,NA,NA,NA,NA,NA,NA,NA,NA,NA,NA,NA,NA,NA,NA,NA,NA,NA,NA,NA,NA,sub37
d3-instructions,52,326895,0.0-52.0,TRUE,FALSE,TRUE,TRUE,"""event"",""trial"",""time""
""fullscreenenter"",""5"",""17258""
","
","
","""event"",""trial"",""time""
""fullscreenenter"",""5"",""17258""
","
",NA,NA,NA,NA,NA,NA,NA,NA,NA,NA,NA,NA,NA,NA,NA,NA,NA,NA,NA,NA,NA,NA,sub37
d3-instructions,53,340048,0.0-53.0,TRUE,FALSE,TRUE,TRUE,"""event"",""trial"",""time""
""fullscreenenter"",""5"",""17258""
","
","
","""event"",""trial"",""time""
""fullscreenenter"",""5"",""17258""
","
",NA,NA,NA,NA,NA,NA,NA,NA,NA,NA,NA,NA,NA,NA,NA,NA,NA,NA,NA,NA,NA,NA,sub37
d3-instructions,54,354517,0.0-54.0,TRUE,FALSE,TRUE,TRUE,"""event"",""trial"",""time""
""fullscreenenter"",""5"",""17258""
","
","
","""event"",""trial"",""time""
""fullscreenenter"",""5"",""17258""
","
",NA,NA,NA,NA,NA,NA,NA,NA,NA,NA,NA,NA,NA,NA,NA,NA,NA,NA,NA,NA,NA,NA,sub37
d3-instructions,55,367570,0.0-55.0,TRUE,FALSE,TRUE,TRUE,"""event"",""trial"",""time""
""fullscreenenter"",""5"",""17258""
","
","
","""event"",""trial"",""time""
""fullscreenenter"",""5"",""17258""
","
",NA,NA,NA,NA,NA,NA,NA,NA,NA,NA,NA,NA,NA,NA,NA,NA,NA,NA,NA,NA,NA,NA,sub37
d3-instructions,56,376427,0.0-56.0,TRUE,FALSE,TRUE,TRUE,"""event"",""trial"",""time""
""fullscreenenter"",""5"",""17258""
","
","
","""event"",""trial"",""time""
""fullscreenenter"",""5"",""17258""
","
",NA,NA,NA,NA,NA,NA,NA,NA,NA,NA,NA,NA,NA,NA,NA,NA,NA,NA,NA,NA,NA,NA,sub37
d3-instructions,57,387999,0.0-57.0,TRUE,FALSE,TRUE,TRUE,"""event"",""trial"",""time""
""fullscreenenter"",""5"",""17258""
","
","
","""event"",""trial"",""time""
""fullscreenenter"",""5"",""17258""
","
",NA,NA,NA,NA,NA,NA,NA,NA,NA,NA,NA,NA,NA,NA,NA,NA,NA,NA,NA,NA,NA,NA,sub37
d3-instructions,58,399127,0.0-58.0,TRUE,FALSE,TRUE,TRUE,"""event"",""trial"",""time""
""fullscreenenter"",""5"",""17258""
","
","
","""event"",""trial"",""time""
""fullscreenenter"",""5"",""17258""
","
",NA,NA,NA,NA,NA,NA,NA,NA,NA,NA,NA,NA,NA,NA,NA,NA,NA,NA,NA,NA,NA,NA,sub37
d3-instructions,59,404845,0.0-59.0,TRUE,FALSE,TRUE,TRUE,"""event"",""trial"",""time""
""fullscreenenter"",""5"",""17258""
","
","
","""event"",""trial"",""time""
""fullscreenenter"",""5"",""17258""
","
",NA,NA,NA,NA,NA,NA,NA,NA,NA,NA,NA,NA,NA,NA,NA,NA,NA,NA,NA,NA,NA,NA,sub37
d3-instructions,60,412348,0.0-60.0,TRUE,FALSE,TRUE,TRUE,"""event"",""trial"",""time""
""fullscreenenter"",""5"",""17258""
","
","
","""event"",""trial"",""time""
""fullscreenenter"",""5"",""17258""
","
",NA,NA,NA,NA,NA,NA,NA,NA,NA,NA,NA,NA,NA,NA,NA,NA,NA,NA,NA,NA,NA,NA,sub37
d3-animate-choice,61,415972,0.0-61.0-0.0,TRUE,FALSE,TRUE,TRUE,"""event"",""trial"",""time""
""fullscreenenter"",""5"",""17258""
","
","
","""event"",""trial"",""time""
""fullscreenenter"",""5"",""17258""
","
",1616.7900000000373,NA,48,NA,NA,3000,1,NA,NA,images/earth.jpg,images/tutrocket2,images/tutrocket1,null,images/tutrocket2,NA,1,practice,null,2,NA,NA,NA,sub37
d3-animate-choice,62,419740,0.0-61.0-1.0,TRUE,FALSE,TRUE,TRUE,"""event"",""trial"",""time""
""fullscreenenter"",""5"",""17258""
","
","
","""event"",""trial"",""time""
""fullscreenenter"",""5"",""17258""
","
",1757.7499999999418,NA,48,NA,NA,3000,1,NA,NA,images/tutyellowplanet.jpg,images/tutalien4,images/tutalien3,images/tutrocket2,images/tutalien4,images/t.png,2,practice,false,2,rare,1,2020-06-09T20:02:39Z,sub37
two-step-fixation,63,420749,0.0-61.0-2.0,TRUE,FALSE,TRUE,TRUE,"""event"",""trial"",""time""
""fullscreenenter"",""5"",""17258""
","
","
","""event"",""trial"",""time""
""fullscreenenter"",""5"",""17258""
","
",NA,images/earth.jpg,NA,NA,NA,NA,NA,NA,NA,NA,NA,NA,NA,NA,NA,fixation,NA,NA,NA,NA,NA,NA,sub37
d3-animate-choice,64,423496,0.0-61.0-0.1,TRUE,FALSE,TRUE,TRUE,"""event"",""trial"",""time""
""fullscreenenter"",""5"",""17258""
","
","
","""event"",""trial"",""time""
""fullscreenenter"",""5"",""17258""
","
",741.0599999999395,NA,49,NA,NA,3000,1,NA,NA,images/earth.jpg,images/tutrocket2,images/tutrocket1,null,images/tutrocket1,NA,1,practice,null,1,NA,NA,NA,sub37
d3-animate-choice,65,426334,0.0-61.0-1.1,TRUE,FALSE,TRUE,TRUE,"""event"",""trial"",""time""
""fullscreenenter"",""5"",""17258""
","
","
","""event"",""trial"",""time""
""fullscreenenter"",""5"",""17258""
","
",832.7150000000256,NA,48,NA,NA,3000,1,NA,NA,images/tutyellowplanet.jpg,images/tutalien4,images/tutalien3,images/tutrocket1,images/tutalien4,images/t.png,2,practice,true,2,common,1,2020-06-09T20:02:45Z,sub37
two-step-fixation,66,427339,0.0-61.0-2.1,TRUE,FALSE,TRUE,TRUE,"""event"",""trial"",""time""
""fullscreenenter"",""5"",""17258""
","
","
","""event"",""trial"",""time""
""fullscreenenter"",""5"",""17258""
","
",NA,images/earth.jpg,NA,NA,NA,NA,NA,NA,NA,NA,NA,NA,NA,NA,NA,fixation,NA,NA,NA,NA,NA,NA,sub37
d3-animate-choice,67,430580,0.0-61.0-0.2,TRUE,FALSE,TRUE,TRUE,"""event"",""trial"",""time""
""fullscreenenter"",""5"",""17258""
","
","
","""event"",""trial"",""time""
""fullscreenenter"",""5"",""17258""
","
",1235.4100000000326,NA,48,NA,NA,3000,1,NA,NA,images/earth.jpg,images/tutrocket2,images/tutrocket1,null,images/tutrocket2,NA,1,practice,null,2,NA,NA,NA,sub37
d3-animate-choice,68,433890,0.0-61.0-1.2,TRUE,FALSE,TRUE,TRUE,"""event"",""trial"",""time""
""fullscreenenter"",""5"",""17258""
","
","
","""event"",""trial"",""time""
""fullscreenenter"",""5"",""17258""
","
",1304.6600000000326,NA,49,NA,NA,3000,1,NA,NA,images/tutgreenplanet.jpg,images/tutalien2,images/tutalien1,images/tutrocket2,images/tutalien1,images/t.png,2,practice,true,1,common,1,2020-06-09T20:02:53Z,sub37
two-step-fixation,69,434895,0.0-61.0-2.2,TRUE,FALSE,TRUE,TRUE,"""event"",""trial"",""time""
""fullscreenenter"",""5"",""17258""
","
","
","""event"",""trial"",""time""
""fullscreenenter"",""5"",""17258""
","
",NA,images/earth.jpg,NA,NA,NA,NA,NA,NA,NA,NA,NA,NA,NA,NA,NA,fixation,NA,NA,NA,NA,NA,NA,sub37
d3-animate-choice,70,437586,0.0-61.0-0.3,TRUE,FALSE,TRUE,TRUE,"""event"",""trial"",""time""
""fullscreenenter"",""5"",""17258""
","
","
","""event"",""trial"",""time""
""fullscreenenter"",""5"",""17258""
","
",685.1199999999953,NA,49,NA,NA,3000,1,NA,NA,images/earth.jpg,images/tutrocket2,images/tutrocket1,null,images/tutrocket1,NA,1,practice,null,1,NA,NA,NA,sub37
d3-animate-choice,71,440228,0.0-61.0-1.3,TRUE,FALSE,TRUE,TRUE,"""event"",""trial"",""time""
""fullscreenenter"",""5"",""17258""
","
","
","""event"",""trial"",""time""
""fullscreenenter"",""5"",""17258""
","
",635.6350000000093,NA,48,NA,NA,3000,1,NA,NA,images/tutyellowplanet.jpg,images/tutalien4,images/tutalien3,images/tutrocket1,images/tutalien4,images/nothing.png,2,practice,true,2,common,0,2020-06-09T20:02:59Z,sub37
two-step-fixation,72,441234,0.0-61.0-2.3,TRUE,FALSE,TRUE,TRUE,"""event"",""trial"",""time""
""fullscreenenter"",""5"",""17258""
","
","
","""event"",""trial"",""time""
""fullscreenenter"",""5"",""17258""
","
",NA,images/earth.jpg,NA,NA,NA,NA,NA,NA,NA,NA,NA,NA,NA,NA,NA,fixation,NA,NA,NA,NA,NA,NA,sub37
d3-animate-choice,73,443947,0.0-61.0-0.4,TRUE,FALSE,TRUE,TRUE,"""event"",""trial"",""time""
""fullscreenenter"",""5"",""17258""
","
","
","""event"",""trial"",""time""
""fullscreenenter"",""5"",""17258""
","
",707.085000000021,NA,49,NA,NA,3000,1,NA,NA,images/earth.jpg,images/tutrocket2,images/tutrocket1,null,images/tutrocket1,NA,1,practice,null,1,NA,NA,NA,sub37
d3-animate-choice,74,446596,0.0-61.0-1.4,TRUE,FALSE,TRUE,TRUE,"""event"",""trial"",""time""
""fullscreenenter"",""5"",""17258""
","
","
","""event"",""trial"",""time""
""fullscreenenter"",""5"",""17258""
","
",644.335000000021,NA,49,NA,NA,3000,1,NA,NA,images/tutyellowplanet.jpg,images/tutalien4,images/tutalien3,images/tutrocket1,images/tutalien3,images/nothing.png,2,practice,true,1,common,0,2020-06-09T20:03:05Z,sub37
two-step-fixation,75,447601,0.0-61.0-2.4,TRUE,FALSE,TRUE,TRUE,"""event"",""trial"",""time""
""fullscreenenter"",""5"",""17258""
","
","
","""event"",""trial"",""time""
""fullscreenenter"",""5"",""17258""
","
",NA,images/earth.jpg,NA,NA,NA,NA,NA,NA,NA,NA,NA,NA,NA,NA,NA,fixation,NA,NA,NA,NA,NA,NA,sub37
d3-animate-choice,76,450205,0.0-61.0-0.5,TRUE,FALSE,TRUE,TRUE,"""event"",""trial"",""time""
""fullscreenenter"",""5"",""17258""
","
","
","""event"",""trial"",""time""
""fullscreenenter"",""5"",""17258""
","
",598.7449999999953,NA,48,NA,NA,3000,1,NA,NA,images/earth.jpg,images/tutrocket2,images/tutrocket1,null,images/tutrocket2,NA,1,practice,null,2,NA,NA,NA,sub37
d3-animate-choice,77,453413,0.0-61.0-1.5,TRUE,FALSE,TRUE,TRUE,"""event"",""trial"",""time""
""fullscreenenter"",""5"",""17258""
","
","
","""event"",""trial"",""time""
""fullscreenenter"",""5"",""17258""
","
",1202.8649999999907,NA,48,NA,NA,3000,1,NA,NA,images/tutyellowplanet.jpg,images/tutalien4,images/tutalien3,images/tutrocket2,images/tutalien4,images/t.png,2,practice,false,2,rare,1,2020-06-09T20:03:12Z,sub37
two-step-fixation,78,454418,0.0-61.0-2.5,TRUE,FALSE,TRUE,TRUE,"""event"",""trial"",""time""
""fullscreenenter"",""5"",""17258""
","
","
","""event"",""trial"",""time""
""fullscreenenter"",""5"",""17258""
","
",NA,images/earth.jpg,NA,NA,NA,NA,NA,NA,NA,NA,NA,NA,NA,NA,NA,fixation,NA,NA,NA,NA,NA,NA,sub37
d3-animate-choice,79,457076,0.0-61.0-0.6,TRUE,FALSE,TRUE,TRUE,"""event"",""trial"",""time""
""fullscreenenter"",""5"",""17258""
","
","
","""event"",""trial"",""time""
""fullscreenenter"",""5"",""17258""
","
",650.0049999999464,NA,49,NA,NA,3000,1,NA,NA,images/earth.jpg,images/tutrocket2,images/tutrocket1,null,images/tutrocket1,NA,1,practice,null,1,NA,NA,NA,sub37
d3-animate-choice,80,460026,0.0-61.0-1.6,TRUE,FALSE,TRUE,TRUE,"""event"",""trial"",""time""
""fullscreenenter"",""5"",""17258""
","
","
","""event"",""trial"",""time""
""fullscreenenter"",""5"",""17258""
","
",944.3999999998487,NA,48,NA,NA,3000,1,NA,NA,images/tutgreenplanet.jpg,images/tutalien2,images/tutalien1,images/tutrocket1,images/tutalien2,images/nothing.png,2,practice,false,2,rare,0,2020-06-09T20:03:19Z,sub37
two-step-fixation,81,461031,0.0-61.0-2.6,TRUE,FALSE,TRUE,TRUE,"""event"",""trial"",""time""
""fullscreenenter"",""5"",""17258""
","
","
","""event"",""trial"",""time""
""fullscreenenter"",""5"",""17258""
","
",NA,images/earth.jpg,NA,NA,NA,NA,NA,NA,NA,NA,NA,NA,NA,NA,NA,fixation,NA,NA,NA,NA,NA,NA,sub37
d3-animate-choice,82,463773,0.0-61.0-0.7,TRUE,FALSE,TRUE,TRUE,"""event"",""trial"",""time""
""fullscreenenter"",""5"",""17258""
","
","
","""event"",""trial"",""time""
""fullscreenenter"",""5"",""17258""
","
",736.4599999998463,NA,48,NA,NA,3000,1,NA,NA,images/earth.jpg,images/tutrocket2,images/tutrocket1,null,images/tutrocket2,NA,1,practice,null,2,NA,NA,NA,sub37
d3-animate-choice,83,466461,0.0-61.0-1.7,TRUE,FALSE,TRUE,TRUE,"""event"",""trial"",""time""
""fullscreenenter"",""5"",""17258""
","
","
","""event"",""trial"",""time""
""fullscreenenter"",""5"",""17258""
","
",682.640000000014,NA,49,NA,NA,3000,1,NA,NA,images/tutgreenplanet.jpg,images/tutalien2,images/tutalien1,images/tutrocket2,images/tutalien1,images/t.png,2,practice,true,1,common,1,2020-06-09T20:03:25Z,sub37
two-step-fixation,84,467466,0.0-61.0-2.7,TRUE,FALSE,TRUE,TRUE,"""event"",""trial"",""time""
""fullscreenenter"",""5"",""17258""
","
","
","""event"",""trial"",""time""
""fullscreenenter"",""5"",""17258""
","
",NA,images/earth.jpg,NA,NA,NA,NA,NA,NA,NA,NA,NA,NA,NA,NA,NA,fixation,NA,NA,NA,NA,NA,NA,sub37
d3-animate-choice,85,470527,0.0-61.0-0.8,TRUE,FALSE,TRUE,TRUE,"""event"",""trial"",""time""
""fullscreenenter"",""5"",""17258""
","
","
","""event"",""trial"",""time""
""fullscreenenter"",""5"",""17258""
","
",1055.0499999999302,NA,49,NA,NA,3000,1,NA,NA,images/earth.jpg,images/tutrocket2,images/tutrocket1,null,images/tutrocket1,NA,1,practice,null,1,NA,NA,NA,sub37
d3-animate-choice,86,473120,0.0-61.0-1.8,TRUE,FALSE,TRUE,TRUE,"""event"",""trial"",""time""
""fullscreenenter"",""5"",""17258""
","
","
","""event"",""trial"",""time""
""fullscreenenter"",""5"",""17258""
","
",587.9399999998859,NA,49,NA,NA,3000,1,NA,NA,images/tutgreenplanet.jpg,images/tutalien2,images/tutalien1,images/tutrocket1,images/tutalien1,images/nothing.png,2,practice,false,1,rare,0,2020-06-09T20:03:32Z,sub37
two-step-fixation,87,474125,0.0-61.0-2.8,TRUE,FALSE,TRUE,TRUE,"""event"",""trial"",""time""
""fullscreenenter"",""5"",""17258""
","
","
","""event"",""trial"",""time""
""fullscreenenter"",""5"",""17258""
","
",NA,images/earth.jpg,NA,NA,NA,NA,NA,NA,NA,NA,NA,NA,NA,NA,NA,fixation,NA,NA,NA,NA,NA,NA,sub37
d3-animate-choice,88,477089,0.0-61.0-0.9,TRUE,FALSE,TRUE,TRUE,"""event"",""trial"",""time""
""fullscreenenter"",""5"",""17258""
","
","
","""event"",""trial"",""time""
""fullscreenenter"",""5"",""17258""
","
",958.6850000000559,NA,48,NA,NA,3000,1,NA,NA,images/earth.jpg,images/tutrocket2,images/tutrocket1,null,images/tutrocket2,NA,1,practice,null,2,NA,NA,NA,sub37
d3-animate-choice,89,480618,0.0-61.0-1.9,TRUE,FALSE,TRUE,TRUE,"""event"",""trial"",""time""
""fullscreenenter"",""5"",""17258""
","
","
","""event"",""trial"",""time""
""fullscreenenter"",""5"",""17258""
","
",1523.8250000000116,NA,49,NA,NA,3000,1,NA,NA,images/tutyellowplanet.jpg,images/tutalien4,images/tutalien3,images/tutrocket2,images/tutalien3,images/t.png,2,practice,false,1,rare,1,2020-06-09T20:03:39Z,sub37
two-step-fixation,90,481623,0.0-61.0-2.9,TRUE,FALSE,TRUE,TRUE,"""event"",""trial"",""time""
""fullscreenenter"",""5"",""17258""
","
","
","""event"",""trial"",""time""
""fullscreenenter"",""5"",""17258""
","
",NA,images/earth.jpg,NA,NA,NA,NA,NA,NA,NA,NA,NA,NA,NA,NA,NA,fixation,NA,NA,NA,NA,NA,NA,sub37
d3-animate-choice,91,484416,0.0-61.0-0.10,TRUE,FALSE,TRUE,TRUE,"""event"",""trial"",""time""
""fullscreenenter"",""5"",""17258""
","
","
","""event"",""trial"",""time""
""fullscreenenter"",""5"",""17258""
","
",786.5100000001839,NA,49,NA,NA,3000,1,NA,NA,images/earth.jpg,images/tutrocket2,images/tutrocket1,null,images/tutrocket1,NA,1,practice,null,1,NA,NA,NA,sub37
d3-animate-choice,92,487669,0.0-61.0-1.10,TRUE,FALSE,TRUE,TRUE,"""event"",""trial"",""time""
""fullscreenenter"",""5"",""17258""
","
","
","""event"",""trial"",""time""
""fullscreenenter"",""5"",""17258""
","
",1247.7050000000163,NA,49,NA,NA,3000,1,NA,NA,images/tutyellowplanet.jpg,images/tutalien4,images/tutalien3,images/tutrocket1,images/tutalien3,images/nothing.png,2,practice,true,1,common,0,2020-06-09T20:03:46Z,sub37
two-step-fixation,93,488673,0.0-61.0-2.10,TRUE,FALSE,TRUE,TRUE,"""event"",""trial"",""time""
""fullscreenenter"",""5"",""17258""
","
","
","""event"",""trial"",""time""
""fullscreenenter"",""5"",""17258""
","
",NA,images/earth.jpg,NA,NA,NA,NA,NA,NA,NA,NA,NA,NA,NA,NA,NA,fixation,NA,NA,NA,NA,NA,NA,sub37
d3-animate-choice,94,491419,0.0-61.0-0.11,TRUE,FALSE,TRUE,TRUE,"""event"",""trial"",""time""
""fullscreenenter"",""5"",""17258""
","
","
","""event"",""trial"",""time""
""fullscreenenter"",""5"",""17258""
","
",740.4850000000442,NA,49,NA,NA,3000,1,NA,NA,images/earth.jpg,images/tutrocket2,images/tutrocket1,null,images/tutrocket1,NA,1,practice,null,1,NA,NA,NA,sub37
d3-animate-choice,95,494439,0.0-61.0-1.11,TRUE,FALSE,TRUE,TRUE,"""event"",""trial"",""time""
""fullscreenenter"",""5"",""17258""
","
","
","""event"",""trial"",""time""
""fullscreenenter"",""5"",""17258""
","
",1015.2800000000861,NA,48,NA,NA,3000,1,NA,NA,images/tutyellowplanet.jpg,images/tutalien4,images/tutalien3,images/tutrocket1,images/tutalien4,images/nothing.png,2,practice,true,2,common,0,2020-06-09T20:03:53Z,sub37
two-step-fixation,96,495445,0.0-61.0-2.11,TRUE,FALSE,TRUE,TRUE,"""event"",""trial"",""time""
""fullscreenenter"",""5"",""17258""
","
","
","""event"",""trial"",""time""
""fullscreenenter"",""5"",""17258""
","
",NA,images/earth.jpg,NA,NA,NA,NA,NA,NA,NA,NA,NA,NA,NA,NA,NA,fixation,NA,NA,NA,NA,NA,NA,sub37
d3-animate-choice,97,498175,0.0-61.0-0.12,TRUE,FALSE,TRUE,TRUE,"""event"",""trial"",""time""
""fullscreenenter"",""5"",""17258""
","
","
","""event"",""trial"",""time""
""fullscreenenter"",""5"",""17258""
","
",723.7450000000536,NA,48,NA,NA,3000,1,NA,NA,images/earth.jpg,images/tutrocket2,images/tutrocket1,null,images/tutrocket2,NA,1,practice,null,2,NA,NA,NA,sub37
d3-animate-choice,98,501040,0.0-61.0-1.12,TRUE,FALSE,TRUE,TRUE,"""event"",""trial"",""time""
""fullscreenenter"",""5"",""17258""
","
","
","""event"",""trial"",""time""
""fullscreenenter"",""5"",""17258""
","
",859.1850000000559,NA,49,NA,NA,3000,1,NA,NA,images/tutyellowplanet.jpg,images/tutalien4,images/tutalien3,images/tutrocket2,images/tutalien3,images/t.png,2,practice,false,1,rare,1,2020-06-09T20:04:00Z,sub37
two-step-fixation,99,502045,0.0-61.0-2.12,TRUE,FALSE,TRUE,TRUE,"""event"",""trial"",""time""
""fullscreenenter"",""5"",""17258""
","
","
","""event"",""trial"",""time""
""fullscreenenter"",""5"",""17258""
","
",NA,images/earth.jpg,NA,NA,NA,NA,NA,NA,NA,NA,NA,NA,NA,NA,NA,fixation,NA,NA,NA,NA,NA,NA,sub37
d3-animate-choice,100,504460,0.0-61.0-0.13,TRUE,FALSE,TRUE,TRUE,"""event"",""trial"",""time""
""fullscreenenter"",""5"",""17258""
","
","
","""event"",""trial"",""time""
""fullscreenenter"",""5"",""17258""
","
",409.09499999997206,NA,48,NA,NA,3000,1,NA,NA,images/earth.jpg,images/tutrocket2,images/tutrocket1,null,images/tutrocket2,NA,1,practice,null,2,NA,NA,NA,sub37
d3-animate-choice,101,507245,0.0-61.0-1.13,TRUE,FALSE,TRUE,TRUE,"""event"",""trial"",""time""
""fullscreenenter"",""5"",""17258""
","
","
","""event"",""trial"",""time""
""fullscreenenter"",""5"",""17258""
","
",779.9150000000373,NA,49,NA,NA,3000,1,NA,NA,images/tutyellowplanet.jpg,images/tutalien4,images/tutalien3,images/tutrocket2,images/tutalien3,images/nothing.png,2,practice,false,1,rare,0,2020-06-09T20:04:06Z,sub37
two-step-fixation,102,508250,0.0-61.0-2.13,TRUE,FALSE,TRUE,TRUE,"""event"",""trial"",""time""
""fullscreenenter"",""5"",""17258""
","
","
","""event"",""trial"",""time""
""fullscreenenter"",""5"",""17258""
","
",NA,images/earth.jpg,NA,NA,NA,NA,NA,NA,NA,NA,NA,NA,NA,NA,NA,fixation,NA,NA,NA,NA,NA,NA,sub37
d3-animate-choice,103,510820,0.0-61.0-0.14,TRUE,FALSE,TRUE,TRUE,"""event"",""trial"",""time""
""fullscreenenter"",""5"",""17258""
","
","
","""event"",""trial"",""time""
""fullscreenenter"",""5"",""17258""
","
",564.2550000000047,NA,49,NA,NA,3000,1,NA,NA,images/earth.jpg,images/tutrocket2,images/tutrocket1,null,images/tutrocket1,NA,1,practice,null,1,NA,NA,NA,sub37
d3-animate-choice,104,513617,0.0-61.0-1.14,TRUE,FALSE,TRUE,TRUE,"""event"",""trial"",""time""
""fullscreenenter"",""5"",""17258""
","
","
","""event"",""trial"",""time""
""fullscreenenter"",""5"",""17258""
","
",792.2299999999814,NA,48,NA,NA,3000,1,NA,NA,images/tutyellowplanet.jpg,images/tutalien4,images/tutalien3,images/tutrocket1,images/tutalien4,images/nothing.png,2,practice,true,2,common,0,2020-06-09T20:04:12Z,sub37
two-step-fixation,105,514622,0.0-61.0-2.14,TRUE,FALSE,TRUE,TRUE,"""event"",""trial"",""time""
""fullscreenenter"",""5"",""17258""
","
","
","""event"",""trial"",""time""
""fullscreenenter"",""5"",""17258""
","
",NA,images/earth.jpg,NA,NA,NA,NA,NA,NA,NA,NA,NA,NA,NA,NA,NA,fixation,NA,NA,NA,NA,NA,NA,sub37
d3-animate-choice,106,517771,0.0-61.0-0.15,TRUE,FALSE,TRUE,TRUE,"""event"",""trial"",""time""
""fullscreenenter"",""5"",""17258""
","
","
","""event"",""trial"",""time""
""fullscreenenter"",""5"",""17258""
","
",1141.9599999999627,NA,48,NA,NA,3000,1,NA,NA,images/earth.jpg,images/tutrocket2,images/tutrocket1,null,images/tutrocket2,NA,1,practice,null,2,NA,NA,NA,sub37
d3-animate-choice,107,520675,0.0-61.0-1.15,TRUE,FALSE,TRUE,TRUE,"""event"",""trial"",""time""
""fullscreenenter"",""5"",""17258""
","
","
","""event"",""trial"",""time""
""fullscreenenter"",""5"",""17258""
","
",898.8850000001257,NA,49,NA,NA,3000,1,NA,NA,images/tutyellowplanet.jpg,images/tutalien4,images/tutalien3,images/tutrocket2,images/tutalien3,images/nothing.png,2,practice,false,1,rare,0,2020-06-09T20:04:19Z,sub37
two-step-fixation,108,521680,0.0-61.0-2.15,TRUE,FALSE,TRUE,TRUE,"""event"",""trial"",""time""
""fullscreenenter"",""5"",""17258""
","
","
","""event"",""trial"",""time""
""fullscreenenter"",""5"",""17258""
","
",NA,images/earth.jpg,NA,NA,NA,NA,NA,NA,NA,NA,NA,NA,NA,NA,NA,fixation,NA,NA,NA,NA,NA,NA,sub37
d3-animate-choice,109,524224,0.0-61.0-0.16,TRUE,FALSE,TRUE,TRUE,"""event"",""trial"",""time""
""fullscreenenter"",""5"",""17258""
","
","
","""event"",""trial"",""time""
""fullscreenenter"",""5"",""17258""
","
",538.2150000000838,NA,49,NA,NA,3000,1,NA,NA,images/earth.jpg,images/tutrocket2,images/tutrocket1,null,images/tutrocket1,NA,1,practice,null,1,NA,NA,NA,sub37
d3-animate-choice,110,526947,0.0-61.0-1.16,TRUE,FALSE,TRUE,TRUE,"""event"",""trial"",""time""
""fullscreenenter"",""5"",""17258""
","
","
","""event"",""trial"",""time""
""fullscreenenter"",""5"",""17258""
","
",717.6600000000326,NA,48,NA,NA,3000,1,NA,NA,images/tutyellowplanet.jpg,images/tutalien4,images/tutalien3,images/tutrocket1,images/tutalien4,images/nothing.png,2,practice,true,2,common,0,2020-06-09T20:04:26Z,sub37
two-step-fixation,111,527952,0.0-61.0-2.16,TRUE,FALSE,TRUE,TRUE,"""event"",""trial"",""time""
""fullscreenenter"",""5"",""17258""
","
","
","""event"",""trial"",""time""
""fullscreenenter"",""5"",""17258""
","
",NA,images/earth.jpg,NA,NA,NA,NA,NA,NA,NA,NA,NA,NA,NA,NA,NA,fixation,NA,NA,NA,NA,NA,NA,sub37
d3-animate-choice,112,530747,0.0-61.0-0.17,TRUE,FALSE,TRUE,TRUE,"""event"",""trial"",""time""
""fullscreenenter"",""5"",""17258""
","
","
","""event"",""trial"",""time""
""fullscreenenter"",""5"",""17258""
","
",789.9449999999488,NA,49,NA,NA,3000,1,NA,NA,images/earth.jpg,images/tutrocket2,images/tutrocket1,null,images/tutrocket1,NA,1,practice,null,1,NA,NA,NA,sub37
d3-animate-choice,113,533415,0.0-61.0-1.17,TRUE,FALSE,TRUE,TRUE,"""event"",""trial"",""time""
""fullscreenenter"",""5"",""17258""
","
","
","""event"",""trial"",""time""
""fullscreenenter"",""5"",""17258""
","
",662.6300000001211,NA,49,NA,NA,3000,1,NA,NA,images/tutyellowplanet.jpg,images/tutalien4,images/tutalien3,images/tutrocket1,images/tutalien3,images/nothing.png,2,practice,true,1,common,0,2020-06-09T20:04:32Z,sub37
two-step-fixation,114,534420,0.0-61.0-2.17,TRUE,FALSE,TRUE,TRUE,"""event"",""trial"",""time""
""fullscreenenter"",""5"",""17258""
","
","
","""event"",""trial"",""time""
""fullscreenenter"",""5"",""17258""
","
",NA,images/earth.jpg,NA,NA,NA,NA,NA,NA,NA,NA,NA,NA,NA,NA,NA,fixation,NA,NA,NA,NA,NA,NA,sub37
d3-animate-choice,115,536911,0.0-61.0-0.18,TRUE,FALSE,TRUE,TRUE,"""event"",""trial"",""time""
""fullscreenenter"",""5"",""17258""
","
","
","""event"",""trial"",""time""
""fullscreenenter"",""5"",""17258""
","
",485.62999999988824,NA,48,NA,NA,3000,1,NA,NA,images/earth.jpg,images/tutrocket2,images/tutrocket1,null,images/tutrocket2,NA,1,practice,null,2,NA,NA,NA,sub37
d3-animate-choice,116,539751,0.0-61.0-1.18,TRUE,FALSE,TRUE,TRUE,"""event"",""trial"",""time""
""fullscreenenter"",""5"",""17258""
","
","
","""event"",""trial"",""time""
""fullscreenenter"",""5"",""17258""
","
",833.6049999999814,NA,49,NA,NA,3000,1,NA,NA,images/tutgreenplanet.jpg,images/tutalien2,images/tutalien1,images/tutrocket2,images/tutalien1,images/nothing.png,2,practice,true,1,common,0,2020-06-09T20:04:39Z,sub37
two-step-fixation,117,540756,0.0-61.0-2.18,TRUE,FALSE,TRUE,TRUE,"""event"",""trial"",""time""
""fullscreenenter"",""5"",""17258""
","
","
","""event"",""trial"",""time""
""fullscreenenter"",""5"",""17258""
","
",NA,images/earth.jpg,NA,NA,NA,NA,NA,NA,NA,NA,NA,NA,NA,NA,NA,fixation,NA,NA,NA,NA,NA,NA,sub37
d3-animate-choice,118,543211,0.0-61.0-0.19,TRUE,FALSE,TRUE,TRUE,"""event"",""trial"",""time""
""fullscreenenter"",""5"",""17258""
","
","
","""event"",""trial"",""time""
""fullscreenenter"",""5"",""17258""
","
",448.94000000006054,NA,48,NA,NA,3000,1,NA,NA,images/earth.jpg,images/tutrocket2,images/tutrocket1,null,images/tutrocket2,NA,1,practice,null,2,NA,NA,NA,sub37
d3-animate-choice,119,545866,0.0-61.0-1.19,TRUE,FALSE,TRUE,TRUE,"""event"",""trial"",""time""
""fullscreenenter"",""5"",""17258""
","
","
","""event"",""trial"",""time""
""fullscreenenter"",""5"",""17258""
","
",649.2399999999907,NA,48,NA,NA,3000,1,NA,NA,images/tutyellowplanet.jpg,images/tutalien4,images/tutalien3,images/tutrocket2,images/tutalien4,images/t.png,2,practice,false,2,rare,1,2020-06-09T20:04:45Z,sub37
two-step-fixation,120,546871,0.0-61.0-2.19,TRUE,FALSE,TRUE,TRUE,"""event"",""trial"",""time""
""fullscreenenter"",""5"",""17258""
","
","
","""event"",""trial"",""time""
""fullscreenenter"",""5"",""17258""
","
",NA,images/earth.jpg,NA,NA,NA,NA,NA,NA,NA,NA,NA,NA,NA,NA,NA,fixation,NA,NA,NA,NA,NA,NA,sub37
d3-instructions,121,554923,0.0-62.0,TRUE,FALSE,TRUE,TRUE,"""event"",""trial"",""time""
""fullscreenenter"",""5"",""17258""
","
","
","""event"",""trial"",""time""
""fullscreenenter"",""5"",""17258""
","
",NA,NA,NA,NA,NA,NA,NA,NA,NA,NA,NA,NA,NA,NA,NA,NA,NA,NA,NA,NA,NA,NA,sub37
audio-keyboard-response,122,560288,0.0-63.0,TRUE,FALSE,TRUE,TRUE,"""event"",""trial"",""time""
""fullscreenenter"",""5"",""17258""
","
","
","""event"",""trial"",""time""
""fullscreenenter"",""5"",""17258""
","
",5360,audio/instructions/treasure_feedback.wav,32,NA,NA,NA,NA,NA,NA,NA,NA,NA,NA,NA,NA,NA,NA,NA,NA,NA,NA,NA,sub37
d3-instructions,123,579928,0.0-64.0,TRUE,FALSE,TRUE,TRUE,"""event"",""trial"",""time""
""fullscreenenter"",""5"",""17258""
","
","
","""event"",""trial"",""time""
""fullscreenenter"",""5"",""17258""
","
",NA,NA,NA,NA,NA,NA,NA,NA,NA,NA,NA,NA,NA,NA,NA,NA,NA,NA,NA,NA,NA,NA,sub37
d3-instructions,124,594836,0.0-65.0,TRUE,FALSE,TRUE,TRUE,"""event"",""trial"",""time""
""fullscreenenter"",""5"",""17258""
","
","
","""event"",""trial"",""time""
""fullscreenenter"",""5"",""17258""
","
",NA,NA,NA,NA,NA,NA,NA,NA,NA,NA,NA,NA,NA,NA,NA,NA,NA,NA,NA,NA,NA,NA,sub37
d3-instructions,125,619638,0.0-66.0,TRUE,FALSE,TRUE,TRUE,"""event"",""trial"",""time""
""fullscreenenter"",""5"",""17258""
","
","
","""event"",""trial"",""time""
""fullscreenenter"",""5"",""17258""
","
",NA,NA,NA,NA,NA,NA,NA,NA,NA,NA,NA,NA,NA,NA,NA,NA,NA,NA,NA,NA,NA,NA,sub37
d3-instructions,126,637801,0.0-67.0,TRUE,FALSE,TRUE,TRUE,"""event"",""trial"",""time""
""fullscreenenter"",""5"",""17258""
","
","
","""event"",""trial"",""time""
""fullscreenenter"",""5"",""17258""
","
",NA,NA,NA,NA,NA,NA,NA,NA,NA,NA,NA,NA,NA,NA,NA,NA,NA,NA,NA,NA,NA,NA,sub37
d3-instructions,127,647457,0.0-68.0,TRUE,FALSE,TRUE,TRUE,"""event"",""trial"",""time""
""fullscreenenter"",""5"",""17258""
","
","
","""event"",""trial"",""time""
""fullscreenenter"",""5"",""17258""
","
",NA,NA,NA,NA,NA,NA,NA,NA,NA,NA,NA,NA,NA,NA,NA,NA,NA,NA,NA,NA,NA,NA,sub37
instructions-quiz,128,653581,0.0-69.0,TRUE,FALSE,TRUE,TRUE,"""event"",""trial"",""time""
""fullscreenenter"",""5"",""17258""
","
","
","""event"",""trial"",""time""
""fullscreenenter"",""5"",""17258""
","
",6119.794999999809,audio/quiz/Q1_Prompt.wav,NA,1,NA,NA,NA,NA,NA,NA,NA,NA,NA,NA,NA,NA,NA,NA,NA,NA,NA,NA,sub37
audio-keyboard-response,129,662751,0.0-70.0,TRUE,FALSE,TRUE,TRUE,"""event"",""trial"",""time""
""fullscreenenter"",""5"",""17258""
","
","
","""event"",""trial"",""time""
""fullscreenenter"",""5"",""17258""
","
",null,audio/quiz/Q1_Correct.wav,null,NA,NA,NA,NA,NA,NA,NA,NA,NA,NA,NA,NA,NA,NA,NA,NA,NA,NA,NA,sub37
instructions-quiz,130,672201,0.0-71.0,TRUE,FALSE,TRUE,TRUE,"""event"",""trial"",""time""
""fullscreenenter"",""5"",""17258""
","
","
","""event"",""trial"",""time""
""fullscreenenter"",""5"",""17258""
","
",9447.040000000037,audio/quiz/Q2_Prompt.wav,NA,0,NA,NA,NA,NA,NA,NA,NA,NA,NA,NA,NA,NA,NA,NA,NA,NA,NA,NA,sub37
audio-keyboard-response,131,685071,0.0-72.0,TRUE,FALSE,TRUE,TRUE,"""event"",""trial"",""time""
""fullscreenenter"",""5"",""17258""
","
","
","""event"",""trial"",""time""
""fullscreenenter"",""5"",""17258""
","
",null,audio/quiz/Q2_Correct.wav,null,NA,NA,NA,NA,NA,NA,NA,NA,NA,NA,NA,NA,NA,NA,NA,NA,NA,NA,NA,sub37
instructions-quiz,132,689851,0.0-73.0,TRUE,FALSE,TRUE,TRUE,"""event"",""trial"",""time""
""fullscreenenter"",""5"",""17258""
","
","
","""event"",""trial"",""time""
""fullscreenenter"",""5"",""17258""
","
",4777.235000000102,audio/quiz/Q3_Prompt.wav,NA,1,NA,NA,NA,NA,NA,NA,NA,NA,NA,NA,NA,NA,NA,NA,NA,NA,NA,NA,sub37
audio-keyboard-response,133,695650,0.0-74.0,TRUE,FALSE,TRUE,TRUE,"""event"",""trial"",""time""
""fullscreenenter"",""5"",""17258""
","
","
","""event"",""trial"",""time""
""fullscreenenter"",""5"",""17258""
","
",null,audio/quiz/Q3_Correct.wav,null,NA,NA,NA,NA,NA,NA,NA,NA,NA,NA,NA,NA,NA,NA,NA,NA,NA,NA,NA,sub37
d3-instructions,134,710249,0.0-75.0,TRUE,FALSE,TRUE,TRUE,"""event"",""trial"",""time""
""fullscreenenter"",""5"",""17258""
","
","
","""event"",""trial"",""time""
""fullscreenenter"",""5"",""17258""
","
",NA,NA,NA,NA,NA,NA,NA,NA,NA,NA,NA,NA,NA,NA,NA,NA,NA,NA,NA,NA,NA,NA,sub37
d3-animate-choice,135,713634,0.0-76.0-0.0,TRUE,FALSE,TRUE,TRUE,"""event"",""trial"",""time""
""fullscreenenter"",""5"",""17258""
","
","
","""event"",""trial"",""time""
""fullscreenenter"",""5"",""17258""
","
",1379.3249999999534,NA,49,NA,NA,3000,1,NA,NA,images/earth.jpg,images/rocket2,images/rocket1,null,images/rocket1,NA,1,real,null,1,NA,NA,NA,sub37
d3-animate-choice,136,716598,0.0-76.0-1.0,TRUE,FALSE,TRUE,TRUE,"""event"",""trial"",""time""
""fullscreenenter"",""5"",""17258""
","
","
","""event"",""trial"",""time""
""fullscreenenter"",""5"",""17258""
","
",958.5400000000373,NA,48,NA,NA,3000,1,NA,NA,images/redplanet1.jpg,images/alien2,images/alien1,images/rocket1,images/alien2,images/nothing.png,2,real,false,2,rare,0,2020-06-09T20:07:35Z,sub37
two-step-fixation,137,717603,0.0-76.0-2.0,TRUE,FALSE,TRUE,TRUE,"""event"",""trial"",""time""
""fullscreenenter"",""5"",""17258""
","
","
","""event"",""trial"",""time""
""fullscreenenter"",""5"",""17258""
","
",NA,images/earth.jpg,NA,NA,NA,NA,NA,NA,NA,NA,NA,NA,NA,NA,NA,fixation,NA,NA,NA,NA,NA,NA,sub37
d3-animate-choice,138,720252,0.0-76.0-0.1,TRUE,FALSE,TRUE,TRUE,"""event"",""trial"",""time""
""fullscreenenter"",""5"",""17258""
","
","
","""event"",""trial"",""time""
""fullscreenenter"",""5"",""17258""
","
",643.5450000001583,NA,49,NA,NA,3000,1,NA,NA,images/earth.jpg,images/rocket2,images/rocket1,null,images/rocket1,NA,1,real,null,1,NA,NA,NA,sub37
d3-animate-choice,139,723179,0.0-76.0-1.1,TRUE,FALSE,TRUE,TRUE,"""event"",""trial"",""time""
""fullscreenenter"",""5"",""17258""
","
","
","""event"",""trial"",""time""
""fullscreenenter"",""5"",""17258""
","
",921.3449999999721,NA,49,NA,NA,3000,1,NA,NA,images/redplanet1.jpg,images/alien2,images/alien1,images/rocket1,images/alien1,images/nothing.png,2,real,false,1,rare,0,2020-06-09T20:07:42Z,sub37
two-step-fixation,140,724184,0.0-76.0-2.1,TRUE,FALSE,TRUE,TRUE,"""event"",""trial"",""time""
""fullscreenenter"",""5"",""17258""
","
","
","""event"",""trial"",""time""
""fullscreenenter"",""5"",""17258""
","
",NA,images/earth.jpg,NA,NA,NA,NA,NA,NA,NA,NA,NA,NA,NA,NA,NA,fixation,NA,NA,NA,NA,NA,NA,sub37
d3-animate-choice,141,726824,0.0-76.0-0.2,TRUE,FALSE,TRUE,TRUE,"""event"",""trial"",""time""
""fullscreenenter"",""5"",""17258""
","
","
","""event"",""trial"",""time""
""fullscreenenter"",""5"",""17258""
","
",634.8299999999581,NA,48,NA,NA,3000,1,NA,NA,images/earth.jpg,images/rocket2,images/rocket1,null,images/rocket2,NA,1,real,null,2,NA,NA,NA,sub37
d3-animate-choice,142,729936,0.0-76.0-1.2,TRUE,FALSE,TRUE,TRUE,"""event"",""trial"",""time""
""fullscreenenter"",""5"",""17258""
","
","
","""event"",""trial"",""time""
""fullscreenenter"",""5"",""17258""
","
",1106.234999999986,NA,48,NA,NA,3000,1,NA,NA,images/purpleplanet.jpg,images/alien4,images/alien3,images/rocket2,images/alien4,images/t.png,2,real,false,2,rare,1,2020-06-09T20:07:49Z,sub37
two-step-fixation,143,730941,0.0-76.0-2.2,TRUE,FALSE,TRUE,TRUE,"""event"",""trial"",""time""
""fullscreenenter"",""5"",""17258""
","
","
","""event"",""trial"",""time""
""fullscreenenter"",""5"",""17258""
","
",NA,images/earth.jpg,NA,NA,NA,NA,NA,NA,NA,NA,NA,NA,NA,NA,NA,fixation,NA,NA,NA,NA,NA,NA,sub37
d3-animate-choice,144,734373,0.0-76.0-0.3,TRUE,FALSE,TRUE,TRUE,"""event"",""trial"",""time""
""fullscreenenter"",""5"",""17258""
","
","
","""event"",""trial"",""time""
""fullscreenenter"",""5"",""17258""
","
",1426.5,NA,48,NA,NA,3000,1,NA,NA,images/earth.jpg,images/rocket2,images/rocket1,null,images/rocket2,NA,1,real,null,2,NA,NA,NA,sub37
d3-animate-choice,145,737072,0.0-76.0-1.3,TRUE,FALSE,TRUE,TRUE,"""event"",""trial"",""time""
""fullscreenenter"",""5"",""17258""
","
","
","""event"",""trial"",""time""
""fullscreenenter"",""5"",""17258""
","
",693.9450000000652,NA,48,NA,NA,3000,1,NA,NA,images/purpleplanet.jpg,images/alien4,images/alien3,images/rocket2,images/alien4,images/t.png,2,real,false,2,rare,1,2020-06-09T20:07:56Z,sub37
two-step-fixation,146,738077,0.0-76.0-2.3,TRUE,FALSE,TRUE,TRUE,"""event"",""trial"",""time""
""fullscreenenter"",""5"",""17258""
","
","
","""event"",""trial"",""time""
""fullscreenenter"",""5"",""17258""
","
",NA,images/earth.jpg,NA,NA,NA,NA,NA,NA,NA,NA,NA,NA,NA,NA,NA,fixation,NA,NA,NA,NA,NA,NA,sub37
d3-animate-choice,147,741052,0.0-76.0-0.4,TRUE,FALSE,TRUE,TRUE,"""event"",""trial"",""time""
""fullscreenenter"",""5"",""17258""
","
","
","""event"",""trial"",""time""
""fullscreenenter"",""5"",""17258""
","
",969.3699999998789,NA,48,NA,NA,3000,1,NA,NA,images/earth.jpg,images/rocket2,images/rocket1,null,images/rocket2,NA,1,real,null,2,NA,NA,NA,sub37
d3-animate-choice,148,743812,0.0-76.0-1.4,TRUE,FALSE,TRUE,TRUE,"""event"",""trial"",""time""
""fullscreenenter"",""5"",""17258""
","
","
","""event"",""trial"",""time""
""fullscreenenter"",""5"",""17258""
","
",754.7350000002189,NA,49,NA,NA,3000,1,NA,NA,images/redplanet1.jpg,images/alien2,images/alien1,images/rocket2,images/alien1,images/nothing.png,2,real,true,1,common,0,2020-06-09T20:08:03Z,sub37
two-step-fixation,149,744818,0.0-76.0-2.4,TRUE,FALSE,TRUE,TRUE,"""event"",""trial"",""time""
""fullscreenenter"",""5"",""17258""
","
","
","""event"",""trial"",""time""
""fullscreenenter"",""5"",""17258""
","
",NA,images/earth.jpg,NA,NA,NA,NA,NA,NA,NA,NA,NA,NA,NA,NA,NA,fixation,NA,NA,NA,NA,NA,NA,sub37
d3-animate-choice,150,747174,0.0-76.0-0.5,TRUE,FALSE,TRUE,TRUE,"""event"",""trial"",""time""
""fullscreenenter"",""5"",""17258""
","
","
","""event"",""trial"",""time""
""fullscreenenter"",""5"",""17258""
","
",351.0999999999767,NA,48,NA,NA,3000,1,NA,NA,images/earth.jpg,images/rocket2,images/rocket1,null,images/rocket2,NA,1,real,null,2,NA,NA,NA,sub37
d3-animate-choice,151,749938,0.0-76.0-1.5,TRUE,FALSE,TRUE,TRUE,"""event"",""trial"",""time""
""fullscreenenter"",""5"",""17258""
","
","
","""event"",""trial"",""time""
""fullscreenenter"",""5"",""17258""
","
",760.3850000000093,NA,48,NA,NA,3000,1,NA,NA,images/purpleplanet.jpg,images/alien4,images/alien3,images/rocket2,images/alien4,images/t.png,2,real,false,2,rare,1,2020-06-09T20:08:09Z,sub37
two-step-fixation,152,750944,0.0-76.0-2.5,TRUE,FALSE,TRUE,TRUE,"""event"",""trial"",""time""
""fullscreenenter"",""5"",""17258""
","
","
","""event"",""trial"",""time""
""fullscreenenter"",""5"",""17258""
","
",NA,images/earth.jpg,NA,NA,NA,NA,NA,NA,NA,NA,NA,NA,NA,NA,NA,fixation,NA,NA,NA,NA,NA,NA,sub37
d3-animate-choice,153,753470,0.0-76.0-0.6,TRUE,FALSE,TRUE,TRUE,"""event"",""trial"",""time""
""fullscreenenter"",""5"",""17258""
","
","
","""event"",""trial"",""time""
""fullscreenenter"",""5"",""17258""
","
",520.9850000001024,NA,49,NA,NA,3000,1,NA,NA,images/earth.jpg,images/rocket2,images/rocket1,null,images/rocket1,NA,1,real,null,1,NA,NA,NA,sub37
d3-animate-choice,154,756249,0.0-76.0-1.6,TRUE,FALSE,TRUE,TRUE,"""event"",""trial"",""time""
""fullscreenenter"",""5"",""17258""
","
","
","""event"",""trial"",""time""
""fullscreenenter"",""5"",""17258""
","
",770.5799999998417,NA,48,NA,NA,3000,1,NA,NA,images/redplanet1.jpg,images/alien2,images/alien1,images/rocket1,images/alien2,images/t.png,2,real,false,2,rare,1,2020-06-09T20:08:15Z,sub37
two-step-fixation,155,757254,0.0-76.0-2.6,TRUE,FALSE,TRUE,TRUE,"""event"",""trial"",""time""
""fullscreenenter"",""5"",""17258""
","
","
","""event"",""trial"",""time""
""fullscreenenter"",""5"",""17258""
","
",NA,images/earth.jpg,NA,NA,NA,NA,NA,NA,NA,NA,NA,NA,NA,NA,NA,fixation,NA,NA,NA,NA,NA,NA,sub37
d3-animate-choice,156,759655,0.0-76.0-0.7,TRUE,FALSE,TRUE,TRUE,"""event"",""trial"",""time""
""fullscreenenter"",""5"",""17258""
","
","
","""event"",""trial"",""time""
""fullscreenenter"",""5"",""17258""
","
",394.8849999998929,NA,48,NA,NA,3000,1,NA,NA,images/earth.jpg,images/rocket2,images/rocket1,null,images/rocket2,NA,1,real,null,2,NA,NA,NA,sub37
d3-animate-choice,157,762205,0.0-76.0-1.7,TRUE,FALSE,TRUE,TRUE,"""event"",""trial"",""time""
""fullscreenenter"",""5"",""17258""
","
","
","""event"",""trial"",""time""
""fullscreenenter"",""5"",""17258""
","
",544.339999999851,NA,48,NA,NA,3000,1,NA,NA,images/redplanet1.jpg,images/alien2,images/alien1,images/rocket2,images/alien2,images/t.png,2,real,true,2,common,1,2020-06-09T20:08:21Z,sub37
two-step-fixation,158,763210,0.0-76.0-2.7,TRUE,FALSE,TRUE,TRUE,"""event"",""trial"",""time""
""fullscreenenter"",""5"",""17258""
","
","
","""event"",""trial"",""time""
""fullscreenenter"",""5"",""17258""
","
",NA,images/earth.jpg,NA,NA,NA,NA,NA,NA,NA,NA,NA,NA,NA,NA,NA,fixation,NA,NA,NA,NA,NA,NA,sub37
d3-animate-choice,159,765704,0.0-76.0-0.8,TRUE,FALSE,TRUE,TRUE,"""event"",""trial"",""time""
""fullscreenenter"",""5"",""17258""
","
","
","""event"",""trial"",""time""
""fullscreenenter"",""5"",""17258""
","
",487.8900000001304,NA,48,NA,NA,3000,1,NA,NA,images/earth.jpg,images/rocket2,images/rocket1,null,images/rocket2,NA,1,real,null,2,NA,NA,NA,sub37
d3-animate-choice,160,768511,0.0-76.0-1.8,TRUE,FALSE,TRUE,TRUE,"""event"",""trial"",""time""
""fullscreenenter"",""5"",""17258""
","
","
","""event"",""trial"",""time""
""fullscreenenter"",""5"",""17258""
","
",801.5850000001956,NA,48,NA,NA,3000,1,NA,NA,images/redplanet1.jpg,images/alien2,images/alien1,images/rocket2,images/alien2,images/t.png,2,real,true,2,common,1,2020-06-09T20:08:27Z,sub37
two-step-fixation,161,769516,0.0-76.0-2.8,TRUE,FALSE,TRUE,TRUE,"""event"",""trial"",""time""
""fullscreenenter"",""5"",""17258""
","
","
","""event"",""trial"",""time""
""fullscreenenter"",""5"",""17258""
","
",NA,images/earth.jpg,NA,NA,NA,NA,NA,NA,NA,NA,NA,NA,NA,NA,NA,fixation,NA,NA,NA,NA,NA,NA,sub37
d3-animate-choice,162,772217,0.0-76.0-0.9,TRUE,FALSE,TRUE,TRUE,"""event"",""trial"",""time""
""fullscreenenter"",""5"",""17258""
","
","
","""event"",""trial"",""time""
""fullscreenenter"",""5"",""17258""
","
",695.8850000001257,NA,49,NA,NA,3000,1,NA,NA,images/earth.jpg,images/rocket2,images/rocket1,null,images/rocket1,NA,1,real,null,1,NA,NA,NA,sub37
d3-animate-choice,163,774767,0.0-76.0-1.9,TRUE,FALSE,TRUE,TRUE,"""event"",""trial"",""time""
""fullscreenenter"",""5"",""17258""
","
","
","""event"",""trial"",""time""
""fullscreenenter"",""5"",""17258""
","
",544.7200000000885,NA,48,NA,NA,3000,1,NA,NA,images/purpleplanet.jpg,images/alien4,images/alien3,images/rocket1,images/alien4,images/t.png,2,real,true,2,common,1,2020-06-09T20:08:34Z,sub37
two-step-fixation,164,775772,0.0-76.0-2.9,TRUE,FALSE,TRUE,TRUE,"""event"",""trial"",""time""
""fullscreenenter"",""5"",""17258""
","
","
","""event"",""trial"",""time""
""fullscreenenter"",""5"",""17258""
","
",NA,images/earth.jpg,NA,NA,NA,NA,NA,NA,NA,NA,NA,NA,NA,NA,NA,fixation,NA,NA,NA,NA,NA,NA,sub37
d3-animate-choice,165,778149,0.0-76.0-0.10,TRUE,FALSE,TRUE,TRUE,"""event"",""trial"",""time""
""fullscreenenter"",""5"",""17258""
","
","
","""event"",""trial"",""time""
""fullscreenenter"",""5"",""17258""
","
",371.17499999993015,NA,48,NA,NA,3000,1,NA,NA,images/earth.jpg,images/rocket2,images/rocket1,null,images/rocket2,NA,1,real,null,2,NA,NA,NA,sub37
d3-animate-choice,166,780869,0.0-76.0-1.10,TRUE,FALSE,TRUE,TRUE,"""event"",""trial"",""time""
""fullscreenenter"",""5"",""17258""
","
","
","""event"",""trial"",""time""
""fullscreenenter"",""5"",""17258""
","
",714.6500000001397,NA,48,NA,NA,3000,1,NA,NA,images/redplanet1.jpg,images/alien2,images/alien1,images/rocket2,images/alien2,images/t.png,2,real,true,2,common,1,2020-06-09T20:08:40Z,sub37
two-step-fixation,167,781874,0.0-76.0-2.10,TRUE,FALSE,TRUE,TRUE,"""event"",""trial"",""time""
""fullscreenenter"",""5"",""17258""
","
","
","""event"",""trial"",""time""
""fullscreenenter"",""5"",""17258""
","
",NA,images/earth.jpg,NA,NA,NA,NA,NA,NA,NA,NA,NA,NA,NA,NA,NA,fixation,NA,NA,NA,NA,NA,NA,sub37
d3-animate-choice,168,784514,0.0-76.0-0.11,TRUE,FALSE,TRUE,TRUE,"""event"",""trial"",""time""
""fullscreenenter"",""5"",""17258""
","
","
","""event"",""trial"",""time""
""fullscreenenter"",""5"",""17258""
","
",634.8850000002421,NA,49,NA,NA,3000,1,NA,NA,images/earth.jpg,images/rocket2,images/rocket1,null,images/rocket1,NA,1,real,null,1,NA,NA,NA,sub37
d3-animate-choice,169,787228,0.0-76.0-1.11,TRUE,FALSE,TRUE,TRUE,"""event"",""trial"",""time""
""fullscreenenter"",""5"",""17258""
","
","
","""event"",""trial"",""time""
""fullscreenenter"",""5"",""17258""
","
",709.7249999998603,NA,48,NA,NA,3000,1,NA,NA,images/purpleplanet.jpg,images/alien4,images/alien3,images/rocket1,images/alien4,images/t.png,2,real,true,2,common,1,2020-06-09T20:08:46Z,sub37
two-step-fixation,170,788233,0.0-76.0-2.11,TRUE,FALSE,TRUE,TRUE,"""event"",""trial"",""time""
""fullscreenenter"",""5"",""17258""
","
","
","""event"",""trial"",""time""
""fullscreenenter"",""5"",""17258""
","
",NA,images/earth.jpg,NA,NA,NA,NA,NA,NA,NA,NA,NA,NA,NA,NA,NA,fixation,NA,NA,NA,NA,NA,NA,sub37
d3-animate-choice,171,790855,0.0-76.0-0.12,TRUE,FALSE,TRUE,TRUE,"""event"",""trial"",""time""
""fullscreenenter"",""5"",""17258""
","
","
","""event"",""trial"",""time""
""fullscreenenter"",""5"",""17258""
","
",617.5149999998976,NA,48,NA,NA,3000,1,NA,NA,images/earth.jpg,images/rocket2,images/rocket1,null,images/rocket2,NA,1,real,null,2,NA,NA,NA,sub37
d3-animate-choice,172,793901,0.0-76.0-1.12,TRUE,FALSE,TRUE,TRUE,"""event"",""trial"",""time""
""fullscreenenter"",""5"",""17258""
","
","
","""event"",""trial"",""time""
""fullscreenenter"",""5"",""17258""
","
",1040.740000000107,NA,48,NA,NA,3000,1,NA,NA,images/purpleplanet.jpg,images/alien4,images/alien3,images/rocket2,images/alien4,images/t.png,2,real,false,2,rare,1,2020-06-09T20:08:53Z,sub37
two-step-fixation,173,794906,0.0-76.0-2.12,TRUE,FALSE,TRUE,TRUE,"""event"",""trial"",""time""
""fullscreenenter"",""5"",""17258""
","
","
","""event"",""trial"",""time""
""fullscreenenter"",""5"",""17258""
","
",NA,images/earth.jpg,NA,NA,NA,NA,NA,NA,NA,NA,NA,NA,NA,NA,NA,fixation,NA,NA,NA,NA,NA,NA,sub37
d3-animate-choice,174,797420,0.0-76.0-0.13,TRUE,FALSE,TRUE,TRUE,"""event"",""trial"",""time""
""fullscreenenter"",""5"",""17258""
","
","
","""event"",""trial"",""time""
""fullscreenenter"",""5"",""17258""
","
",508.55999999993946,NA,48,NA,NA,3000,1,NA,NA,images/earth.jpg,images/rocket2,images/rocket1,null,images/rocket2,NA,1,real,null,2,NA,NA,NA,sub37
d3-animate-choice,175,800337,0.0-76.0-1.13,TRUE,FALSE,TRUE,TRUE,"""event"",""trial"",""time""
""fullscreenenter"",""5"",""17258""
","
","
","""event"",""trial"",""time""
""fullscreenenter"",""5"",""17258""
","
",911.1849999999395,NA,48,NA,NA,3000,1,NA,NA,images/redplanet1.jpg,images/alien2,images/alien1,images/rocket2,images/alien2,images/t.png,2,real,true,2,common,1,2020-06-09T20:08:59Z,sub37
two-step-fixation,176,801342,0.0-76.0-2.13,TRUE,FALSE,TRUE,TRUE,"""event"",""trial"",""time""
""fullscreenenter"",""5"",""17258""
","
","
","""event"",""trial"",""time""
""fullscreenenter"",""5"",""17258""
","
",NA,images/earth.jpg,NA,NA,NA,NA,NA,NA,NA,NA,NA,NA,NA,NA,NA,fixation,NA,NA,NA,NA,NA,NA,sub37
d3-animate-choice,177,803786,0.0-76.0-0.14,TRUE,FALSE,TRUE,TRUE,"""event"",""trial"",""time""
""fullscreenenter"",""5"",""17258""
","
","
","""event"",""trial"",""time""
""fullscreenenter"",""5"",""17258""
","
",437.97999999986496,NA,49,NA,NA,3000,1,NA,NA,images/earth.jpg,images/rocket2,images/rocket1,null,images/rocket1,NA,1,real,null,1,NA,NA,NA,sub37
d3-animate-choice,178,806840,0.0-76.0-1.14,TRUE,FALSE,TRUE,TRUE,"""event"",""trial"",""time""
""fullscreenenter"",""5"",""17258""
","
","
","""event"",""trial"",""time""
""fullscreenenter"",""5"",""17258""
","
",1048.2449999999953,NA,48,NA,NA,3000,1,NA,NA,images/purpleplanet.jpg,images/alien4,images/alien3,images/rocket1,images/alien4,images/t.png,2,real,true,2,common,1,2020-06-09T20:09:06Z,sub37
two-step-fixation,179,807845,0.0-76.0-2.14,TRUE,FALSE,TRUE,TRUE,"""event"",""trial"",""time""
""fullscreenenter"",""5"",""17258""
","
","
","""event"",""trial"",""time""
""fullscreenenter"",""5"",""17258""
","
",NA,images/earth.jpg,NA,NA,NA,NA,NA,NA,NA,NA,NA,NA,NA,NA,NA,fixation,NA,NA,NA,NA,NA,NA,sub37
d3-animate-choice,180,810218,0.0-76.0-0.15,TRUE,FALSE,TRUE,TRUE,"""event"",""trial"",""time""
""fullscreenenter"",""5"",""17258""
","
","
","""event"",""trial"",""time""
""fullscreenenter"",""5"",""17258""
","
",367.0899999999674,NA,48,NA,NA,3000,1,NA,NA,images/earth.jpg,images/rocket2,images/rocket1,null,images/rocket2,NA,1,real,null,2,NA,NA,NA,sub37
d3-animate-choice,181,812906,0.0-76.0-1.15,TRUE,FALSE,TRUE,TRUE,"""event"",""trial"",""time""
""fullscreenenter"",""5"",""17258""
","
","
","""event"",""trial"",""time""
""fullscreenenter"",""5"",""17258""
","
",681.6750000000466,NA,48,NA,NA,3000,1,NA,NA,images/redplanet1.jpg,images/alien2,images/alien1,images/rocket2,images/alien2,images/t.png,2,real,true,2,common,1,2020-06-09T20:09:12Z,sub37
two-step-fixation,182,813911,0.0-76.0-2.15,TRUE,FALSE,TRUE,TRUE,"""event"",""trial"",""time""
""fullscreenenter"",""5"",""17258""
","
","
","""event"",""trial"",""time""
""fullscreenenter"",""5"",""17258""
","
",NA,images/earth.jpg,NA,NA,NA,NA,NA,NA,NA,NA,NA,NA,NA,NA,NA,fixation,NA,NA,NA,NA,NA,NA,sub37
d3-animate-choice,183,816526,0.0-76.0-0.16,TRUE,FALSE,TRUE,TRUE,"""event"",""trial"",""time""
""fullscreenenter"",""5"",""17258""
","
","
","""event"",""trial"",""time""
""fullscreenenter"",""5"",""17258""
","
",606.1550000001444,NA,49,NA,NA,3000,1,NA,NA,images/earth.jpg,images/rocket2,images/rocket1,null,images/rocket1,NA,1,real,null,1,NA,NA,NA,sub37
d3-animate-choice,184,819330,0.0-76.0-1.16,TRUE,FALSE,TRUE,TRUE,"""event"",""trial"",""time""
""fullscreenenter"",""5"",""17258""
","
","
","""event"",""trial"",""time""
""fullscreenenter"",""5"",""17258""
","
",798.0200000002515,NA,48,NA,NA,3000,1,NA,NA,images/purpleplanet.jpg,images/alien4,images/alien3,images/rocket1,images/alien4,images/t.png,2,real,true,2,common,1,2020-06-09T20:09:18Z,sub37
two-step-fixation,185,820335,0.0-76.0-2.16,TRUE,FALSE,TRUE,TRUE,"""event"",""trial"",""time""
""fullscreenenter"",""5"",""17258""
","
","
","""event"",""trial"",""time""
""fullscreenenter"",""5"",""17258""
","
",NA,images/earth.jpg,NA,NA,NA,NA,NA,NA,NA,NA,NA,NA,NA,NA,NA,fixation,NA,NA,NA,NA,NA,NA,sub37
d3-animate-choice,186,823299,0.0-76.0-0.17,TRUE,FALSE,TRUE,TRUE,"""event"",""trial"",""time""
""fullscreenenter"",""5"",""17258""
","
","
","""event"",""trial"",""time""
""fullscreenenter"",""5"",""17258""
","
",958.7800000001444,NA,49,NA,NA,3000,1,NA,NA,images/earth.jpg,images/rocket2,images/rocket1,null,images/rocket1,NA,1,real,null,1,NA,NA,NA,sub37
d3-animate-choice,187,825945,0.0-76.0-1.17,TRUE,FALSE,TRUE,TRUE,"""event"",""trial"",""time""
""fullscreenenter"",""5"",""17258""
","
","
","""event"",""trial"",""time""
""fullscreenenter"",""5"",""17258""
","
",641.1400000002468,NA,48,NA,NA,3000,1,NA,NA,images/purpleplanet.jpg,images/alien4,images/alien3,images/rocket1,images/alien4,images/t.png,2,real,true,2,common,1,2020-06-09T20:09:25Z,sub37
two-step-fixation,188,826950,0.0-76.0-2.17,TRUE,FALSE,TRUE,TRUE,"""event"",""trial"",""time""
""fullscreenenter"",""5"",""17258""
","
","
","""event"",""trial"",""time""
""fullscreenenter"",""5"",""17258""
","
",NA,images/earth.jpg,NA,NA,NA,NA,NA,NA,NA,NA,NA,NA,NA,NA,NA,fixation,NA,NA,NA,NA,NA,NA,sub37
d3-animate-choice,189,829499,0.0-76.0-0.18,TRUE,FALSE,TRUE,TRUE,"""event"",""trial"",""time""
""fullscreenenter"",""5"",""17258""
","
","
","""event"",""trial"",""time""
""fullscreenenter"",""5"",""17258""
","
",543.8699999999953,NA,49,NA,NA,3000,1,NA,NA,images/earth.jpg,images/rocket2,images/rocket1,null,images/rocket1,NA,1,real,null,1,NA,NA,NA,sub37
d3-animate-choice,190,832657,0.0-76.0-1.18,TRUE,FALSE,TRUE,TRUE,"""event"",""trial"",""time""
""fullscreenenter"",""5"",""17258""
","
","
","""event"",""trial"",""time""
""fullscreenenter"",""5"",""17258""
","
",1152.484999999986,NA,48,NA,NA,3000,1,NA,NA,images/redplanet1.jpg,images/alien2,images/alien1,images/rocket1,images/alien2,images/t.png,2,real,false,2,rare,1,2020-06-09T20:09:31Z,sub37
two-step-fixation,191,833662,0.0-76.0-2.18,TRUE,FALSE,TRUE,TRUE,"""event"",""trial"",""time""
""fullscreenenter"",""5"",""17258""
","
","
","""event"",""trial"",""time""
""fullscreenenter"",""5"",""17258""
","
",NA,images/earth.jpg,NA,NA,NA,NA,NA,NA,NA,NA,NA,NA,NA,NA,NA,fixation,NA,NA,NA,NA,NA,NA,sub37
d3-animate-choice,192,836318,0.0-76.0-0.19,TRUE,FALSE,TRUE,TRUE,"""event"",""trial"",""time""
""fullscreenenter"",""5"",""17258""
","
","
","""event"",""trial"",""time""
""fullscreenenter"",""5"",""17258""
","
",651.1399999998976,NA,48,NA,NA,3000,1,NA,NA,images/earth.jpg,images/rocket2,images/rocket1,null,images/rocket2,NA,1,real,null,2,NA,NA,NA,sub37
d3-animate-choice,193,839071,0.0-76.0-1.19,TRUE,FALSE,TRUE,TRUE,"""event"",""trial"",""time""
""fullscreenenter"",""5"",""17258""
","
","
","""event"",""trial"",""time""
""fullscreenenter"",""5"",""17258""
","
",747.9599999999627,NA,48,NA,NA,3000,1,NA,NA,images/redplanet1.jpg,images/alien2,images/alien1,images/rocket2,images/alien2,images/t.png,2,real,true,2,common,1,2020-06-09T20:09:38Z,sub37
two-step-fixation,194,840076,0.0-76.0-2.19,TRUE,FALSE,TRUE,TRUE,"""event"",""trial"",""time""
""fullscreenenter"",""5"",""17258""
","
","
","""event"",""trial"",""time""
""fullscreenenter"",""5"",""17258""
","
",NA,images/earth.jpg,NA,NA,NA,NA,NA,NA,NA,NA,NA,NA,NA,NA,NA,fixation,NA,NA,NA,NA,NA,NA,sub37
d3-animate-choice,195,842424,0.0-76.0-0.20,TRUE,FALSE,TRUE,TRUE,"""event"",""trial"",""time""
""fullscreenenter"",""5"",""17258""
","
","
","""event"",""trial"",""time""
""fullscreenenter"",""5"",""17258""
","
",342.699999999837,NA,49,NA,NA,3000,1,NA,NA,images/earth.jpg,images/rocket2,images/rocket1,null,images/rocket1,NA,1,real,null,1,NA,NA,NA,sub37
d3-animate-choice,196,845309,0.0-76.0-1.20,TRUE,FALSE,TRUE,TRUE,"""event"",""trial"",""time""
""fullscreenenter"",""5"",""17258""
","
","
","""event"",""trial"",""time""
""fullscreenenter"",""5"",""17258""
","
",879.6149999997579,NA,48,NA,NA,3000,1,NA,NA,images/purpleplanet.jpg,images/alien4,images/alien3,images/rocket1,images/alien4,images/t.png,2,real,true,2,common,1,2020-06-09T20:09:44Z,sub37
two-step-fixation,197,846315,0.0-76.0-2.20,TRUE,FALSE,TRUE,TRUE,"""event"",""trial"",""time""
""fullscreenenter"",""5"",""17258""
","
","
","""event"",""trial"",""time""
""fullscreenenter"",""5"",""17258""
","
",NA,images/earth.jpg,NA,NA,NA,NA,NA,NA,NA,NA,NA,NA,NA,NA,NA,fixation,NA,NA,NA,NA,NA,NA,sub37
d3-animate-choice,198,849138,0.0-76.0-0.21,TRUE,FALSE,TRUE,TRUE,"""event"",""trial"",""time""
""fullscreenenter"",""5"",""17258""
","
","
","""event"",""trial"",""time""
""fullscreenenter"",""5"",""17258""
","
",816.4249999999302,NA,48,NA,NA,3000,1,NA,NA,images/earth.jpg,images/rocket2,images/rocket1,null,images/rocket2,NA,1,real,null,2,NA,NA,NA,sub37
d3-animate-choice,199,851750,0.0-76.0-1.21,TRUE,FALSE,TRUE,TRUE,"""event"",""trial"",""time""
""fullscreenenter"",""5"",""17258""
","
","
","""event"",""trial"",""time""
""fullscreenenter"",""5"",""17258""
","
",605.5349999999162,NA,48,NA,NA,3000,1,NA,NA,images/redplanet1.jpg,images/alien2,images/alien1,images/rocket2,images/alien2,images/nothing.png,2,real,true,2,common,0,2020-06-09T20:09:51Z,sub37
two-step-fixation,200,852755,0.0-76.0-2.21,TRUE,FALSE,TRUE,TRUE,"""event"",""trial"",""time""
""fullscreenenter"",""5"",""17258""
","
","
","""event"",""trial"",""time""
""fullscreenenter"",""5"",""17258""
","
",NA,images/earth.jpg,NA,NA,NA,NA,NA,NA,NA,NA,NA,NA,NA,NA,NA,fixation,NA,NA,NA,NA,NA,NA,sub37
d3-animate-choice,201,855485,0.0-76.0-0.22,TRUE,FALSE,TRUE,TRUE,"""event"",""trial"",""time""
""fullscreenenter"",""5"",""17258""
","
","
","""event"",""trial"",""time""
""fullscreenenter"",""5"",""17258""
","
",724.5849999999627,NA,48,NA,NA,3000,1,NA,NA,images/earth.jpg,images/rocket2,images/rocket1,null,images/rocket2,NA,1,real,null,2,NA,NA,NA,sub37
d3-animate-choice,202,858085,0.0-76.0-1.22,TRUE,FALSE,TRUE,TRUE,"""event"",""trial"",""time""
""fullscreenenter"",""5"",""17258""
","
","
","""event"",""trial"",""time""
""fullscreenenter"",""5"",""17258""
","
",594.4449999999488,NA,48,NA,NA,3000,1,NA,NA,images/purpleplanet.jpg,images/alien4,images/alien3,images/rocket2,images/alien4,images/t.png,2,real,false,2,rare,1,2020-06-09T20:09:57Z,sub37
two-step-fixation,203,859090,0.0-76.0-2.22,TRUE,FALSE,TRUE,TRUE,"""event"",""trial"",""time""
""fullscreenenter"",""5"",""17258""
","
","
","""event"",""trial"",""time""
""fullscreenenter"",""5"",""17258""
","
",NA,images/earth.jpg,NA,NA,NA,NA,NA,NA,NA,NA,NA,NA,NA,NA,NA,fixation,NA,NA,NA,NA,NA,NA,sub37
d3-animate-choice,204,861533,0.0-76.0-0.23,TRUE,FALSE,TRUE,TRUE,"""event"",""trial"",""time""
""fullscreenenter"",""5"",""17258""
","
","
","""event"",""trial"",""time""
""fullscreenenter"",""5"",""17258""
","
",436.82499999995343,NA,49,NA,NA,3000,1,NA,NA,images/earth.jpg,images/rocket2,images/rocket1,null,images/rocket1,NA,1,real,null,1,NA,NA,NA,sub37
d3-animate-choice,205,864359,0.0-76.0-1.23,TRUE,FALSE,TRUE,TRUE,"""event"",""trial"",""time""
""fullscreenenter"",""5"",""17258""
","
","
","""event"",""trial"",""time""
""fullscreenenter"",""5"",""17258""
","
",820.9999999998836,NA,48,NA,NA,3000,1,NA,NA,images/purpleplanet.jpg,images/alien4,images/alien3,images/rocket1,images/alien4,images/t.png,2,real,true,2,common,1,2020-06-09T20:10:03Z,sub37
two-step-fixation,206,865364,0.0-76.0-2.23,TRUE,FALSE,TRUE,TRUE,"""event"",""trial"",""time""
""fullscreenenter"",""5"",""17258""
","
","
","""event"",""trial"",""time""
""fullscreenenter"",""5"",""17258""
","
",NA,images/earth.jpg,NA,NA,NA,NA,NA,NA,NA,NA,NA,NA,NA,NA,NA,fixation,NA,NA,NA,NA,NA,NA,sub37
d3-animate-choice,207,867884,0.0-76.0-0.24,TRUE,FALSE,TRUE,TRUE,"""event"",""trial"",""time""
""fullscreenenter"",""5"",""17258""
","
","
","""event"",""trial"",""time""
""fullscreenenter"",""5"",""17258""
","
",514.5999999999767,NA,49,NA,NA,3000,1,NA,NA,images/earth.jpg,images/rocket2,images/rocket1,null,images/rocket1,NA,1,real,null,1,NA,NA,NA,sub37
d3-animate-choice,208,870554,0.0-76.0-1.24,TRUE,FALSE,TRUE,TRUE,"""event"",""trial"",""time""
""fullscreenenter"",""5"",""17258""
","
","
","""event"",""trial"",""time""
""fullscreenenter"",""5"",""17258""
","
",666.1500000000233,NA,48,NA,NA,3000,1,NA,NA,images/purpleplanet.jpg,images/alien4,images/alien3,images/rocket1,images/alien4,images/nothing.png,2,real,true,2,common,0,2020-06-09T20:10:09Z,sub37
two-step-fixation,209,871558,0.0-76.0-2.24,TRUE,FALSE,TRUE,TRUE,"""event"",""trial"",""time""
""fullscreenenter"",""5"",""17258""
","
","
","""event"",""trial"",""time""
""fullscreenenter"",""5"",""17258""
","
",NA,images/earth.jpg,NA,NA,NA,NA,NA,NA,NA,NA,NA,NA,NA,NA,NA,fixation,NA,NA,NA,NA,NA,NA,sub37
d3-animate-choice,210,874199,0.0-76.0-0.25,TRUE,FALSE,TRUE,TRUE,"""event"",""trial"",""time""
""fullscreenenter"",""5"",""17258""
","
","
","""event"",""trial"",""time""
""fullscreenenter"",""5"",""17258""
","
",635.785000000149,NA,49,NA,NA,3000,1,NA,NA,images/earth.jpg,images/rocket2,images/rocket1,null,images/rocket1,NA,1,real,null,1,NA,NA,NA,sub37
d3-animate-choice,211,876883,0.0-76.0-1.25,TRUE,FALSE,TRUE,TRUE,"""event"",""trial"",""time""
""fullscreenenter"",""5"",""17258""
","
","
","""event"",""trial"",""time""
""fullscreenenter"",""5"",""17258""
","
",676.854999999865,NA,49,NA,NA,3000,1,NA,NA,images/purpleplanet.jpg,images/alien4,images/alien3,images/rocket1,images/alien3,images/nothing.png,2,real,true,1,common,0,2020-06-09T20:10:16Z,sub37
two-step-fixation,212,877888,0.0-76.0-2.25,TRUE,FALSE,TRUE,TRUE,"""event"",""trial"",""time""
""fullscreenenter"",""5"",""17258""
","
","
","""event"",""trial"",""time""
""fullscreenenter"",""5"",""17258""
","
",NA,images/earth.jpg,NA,NA,NA,NA,NA,NA,NA,NA,NA,NA,NA,NA,NA,fixation,NA,NA,NA,NA,NA,NA,sub37
d3-animate-choice,213,880572,0.0-76.0-0.26,TRUE,FALSE,TRUE,TRUE,"""event"",""trial"",""time""
""fullscreenenter"",""5"",""17258""
","
","
","""event"",""trial"",""time""
""fullscreenenter"",""5"",""17258""
","
",678.7899999999208,NA,48,NA,NA,3000,1,NA,NA,images/earth.jpg,images/rocket2,images/rocket1,null,images/rocket2,NA,1,real,null,2,NA,NA,NA,sub37
d3-animate-choice,214,883187,0.0-76.0-1.26,TRUE,FALSE,TRUE,TRUE,"""event"",""trial"",""time""
""fullscreenenter"",""5"",""17258""
","
","
","""event"",""trial"",""time""
""fullscreenenter"",""5"",""17258""
","
",609.0750000000698,NA,48,NA,NA,3000,1,NA,NA,images/purpleplanet.jpg,images/alien4,images/alien3,images/rocket2,images/alien4,images/nothing.png,2,real,false,2,rare,0,2020-06-09T20:10:22Z,sub37
two-step-fixation,215,884192,0.0-76.0-2.26,TRUE,FALSE,TRUE,TRUE,"""event"",""trial"",""time""
""fullscreenenter"",""5"",""17258""
","
","
","""event"",""trial"",""time""
""fullscreenenter"",""5"",""17258""
","
",NA,images/earth.jpg,NA,NA,NA,NA,NA,NA,NA,NA,NA,NA,NA,NA,NA,fixation,NA,NA,NA,NA,NA,NA,sub37
d3-animate-choice,216,886303,0.0-76.0-0.27,TRUE,FALSE,TRUE,TRUE,"""event"",""trial"",""time""
""fullscreenenter"",""5"",""17258""
","
","
","""event"",""trial"",""time""
""fullscreenenter"",""5"",""17258""
","
",106.03999999992084,NA,48,NA,NA,3000,1,NA,NA,images/earth.jpg,images/rocket2,images/rocket1,null,images/rocket2,NA,1,real,null,2,NA,NA,NA,sub37
d3-animate-choice,217,888992,0.0-76.0-1.27,TRUE,FALSE,TRUE,TRUE,"""event"",""trial"",""time""
""fullscreenenter"",""5"",""17258""
","
","
","""event"",""trial"",""time""
""fullscreenenter"",""5"",""17258""
","
",683.0899999999674,NA,48,NA,NA,3000,1,NA,NA,images/redplanet1.jpg,images/alien2,images/alien1,images/rocket2,images/alien2,images/nothing.png,2,real,true,2,common,0,2020-06-09T20:10:28Z,sub37
two-step-fixation,218,889997,0.0-76.0-2.27,TRUE,FALSE,TRUE,TRUE,"""event"",""trial"",""time""
""fullscreenenter"",""5"",""17258""
","
","
","""event"",""trial"",""time""
""fullscreenenter"",""5"",""17258""
","
",NA,images/earth.jpg,NA,NA,NA,NA,NA,NA,NA,NA,NA,NA,NA,NA,NA,fixation,NA,NA,NA,NA,NA,NA,sub37
d3-animate-choice,219,892455,0.0-76.0-0.28,TRUE,FALSE,TRUE,TRUE,"""event"",""trial"",""time""
""fullscreenenter"",""5"",""17258""
","
","
","""event"",""trial"",""time""
""fullscreenenter"",""5"",""17258""
","
",453.0350000000326,NA,48,NA,NA,3000,1,NA,NA,images/earth.jpg,images/rocket2,images/rocket1,null,images/rocket2,NA,1,real,null,2,NA,NA,NA,sub37
d3-animate-choice,220,895779,0.0-76.0-1.28,TRUE,FALSE,TRUE,TRUE,"""event"",""trial"",""time""
""fullscreenenter"",""5"",""17258""
","
","
","""event"",""trial"",""time""
""fullscreenenter"",""5"",""17258""
","
",1317.6400000002468,NA,49,NA,NA,3000,1,NA,NA,images/purpleplanet.jpg,images/alien4,images/alien3,images/rocket2,images/alien3,images/nothing.png,2,real,false,1,rare,0,2020-06-09T20:10:35Z,sub37
two-step-fixation,221,896784,0.0-76.0-2.28,TRUE,FALSE,TRUE,TRUE,"""event"",""trial"",""time""
""fullscreenenter"",""5"",""17258""
","
","
","""event"",""trial"",""time""
""fullscreenenter"",""5"",""17258""
","
",NA,images/earth.jpg,NA,NA,NA,NA,NA,NA,NA,NA,NA,NA,NA,NA,NA,fixation,NA,NA,NA,NA,NA,NA,sub37
d3-animate-choice,222,899310,0.0-76.0-0.29,TRUE,FALSE,TRUE,TRUE,"""event"",""trial"",""time""
""fullscreenenter"",""5"",""17258""
","
","
","""event"",""trial"",""time""
""fullscreenenter"",""5"",""17258""
","
",520.1300000001211,NA,48,NA,NA,3000,1,NA,NA,images/earth.jpg,images/rocket2,images/rocket1,null,images/rocket2,NA,1,real,null,2,NA,NA,NA,sub37
d3-animate-choice,223,902038,0.0-76.0-1.29,TRUE,FALSE,TRUE,TRUE,"""event"",""trial"",""time""
""fullscreenenter"",""5"",""17258""
","
","
","""event"",""trial"",""time""
""fullscreenenter"",""5"",""17258""
","
",722.1799999999348,NA,49,NA,NA,3000,1,NA,NA,images/redplanet1.jpg,images/alien2,images/alien1,images/rocket2,images/alien1,images/nothing.png,2,real,true,1,common,0,2020-06-09T20:10:41Z,sub37
two-step-fixation,224,903043,0.0-76.0-2.29,TRUE,FALSE,TRUE,TRUE,"""event"",""trial"",""time""
""fullscreenenter"",""5"",""17258""
","
","
","""event"",""trial"",""time""
""fullscreenenter"",""5"",""17258""
","
",NA,images/earth.jpg,NA,NA,NA,NA,NA,NA,NA,NA,NA,NA,NA,NA,NA,fixation,NA,NA,NA,NA,NA,NA,sub37
d3-animate-choice,225,905552,0.0-76.0-0.30,TRUE,FALSE,TRUE,TRUE,"""event"",""trial"",""time""
""fullscreenenter"",""5"",""17258""
","
","
","""event"",""trial"",""time""
""fullscreenenter"",""5"",""17258""
","
",503.45999999984633,NA,49,NA,NA,3000,1,NA,NA,images/earth.jpg,images/rocket2,images/rocket1,null,images/rocket1,NA,1,real,null,1,NA,NA,NA,sub37
d3-animate-choice,226,908212,0.0-76.0-1.30,TRUE,FALSE,TRUE,TRUE,"""event"",""trial"",""time""
""fullscreenenter"",""5"",""17258""
","
","
","""event"",""trial"",""time""
""fullscreenenter"",""5"",""17258""
","
",654.8949999999022,NA,48,NA,NA,3000,1,NA,NA,images/purpleplanet.jpg,images/alien4,images/alien3,images/rocket1,images/alien4,images/t.png,2,real,true,2,common,1,2020-06-09T20:10:47Z,sub37
two-step-fixation,227,909217,0.0-76.0-2.30,TRUE,FALSE,TRUE,TRUE,"""event"",""trial"",""time""
""fullscreenenter"",""5"",""17258""
","
","
","""event"",""trial"",""time""
""fullscreenenter"",""5"",""17258""
","
",NA,images/earth.jpg,NA,NA,NA,NA,NA,NA,NA,NA,NA,NA,NA,NA,NA,fixation,NA,NA,NA,NA,NA,NA,sub37
d3-animate-choice,228,911826,0.0-76.0-0.31,TRUE,FALSE,TRUE,TRUE,"""event"",""trial"",""time""
""fullscreenenter"",""5"",""17258""
","
","
","""event"",""trial"",""time""
""fullscreenenter"",""5"",""17258""
","
",603.5999999998603,NA,49,NA,NA,3000,1,NA,NA,images/earth.jpg,images/rocket2,images/rocket1,null,images/rocket1,NA,1,real,null,1,NA,NA,NA,sub37
d3-animate-choice,229,914619,0.0-76.0-1.31,TRUE,FALSE,TRUE,TRUE,"""event"",""trial"",""time""
""fullscreenenter"",""5"",""17258""
","
","
","""event"",""trial"",""time""
""fullscreenenter"",""5"",""17258""
","
",787.2150000000838,NA,48,NA,NA,3000,1,NA,NA,images/redplanet1.jpg,images/alien2,images/alien1,images/rocket1,images/alien2,images/t.png,2,real,false,2,rare,1,2020-06-09T20:10:53Z,sub37
two-step-fixation,230,915624,0.0-76.0-2.31,TRUE,FALSE,TRUE,TRUE,"""event"",""trial"",""time""
""fullscreenenter"",""5"",""17258""
","
","
","""event"",""trial"",""time""
""fullscreenenter"",""5"",""17258""
","
",NA,images/earth.jpg,NA,NA,NA,NA,NA,NA,NA,NA,NA,NA,NA,NA,NA,fixation,NA,NA,NA,NA,NA,NA,sub37
d3-animate-choice,231,918334,0.0-76.0-0.32,TRUE,FALSE,TRUE,TRUE,"""event"",""trial"",""time""
""fullscreenenter"",""5"",""17258""
","
","
","""event"",""trial"",""time""
""fullscreenenter"",""5"",""17258""
","
",704.2249999999767,NA,49,NA,NA,3000,1,NA,NA,images/earth.jpg,images/rocket2,images/rocket1,null,images/rocket1,NA,1,real,null,1,NA,NA,NA,sub37
d3-animate-choice,232,921012,0.0-76.0-1.32,TRUE,FALSE,TRUE,TRUE,"""event"",""trial"",""time""
""fullscreenenter"",""5"",""17258""
","
","
","""event"",""trial"",""time""
""fullscreenenter"",""5"",""17258""
","
",671.4699999999721,NA,48,NA,NA,3000,1,NA,NA,images/purpleplanet.jpg,images/alien4,images/alien3,images/rocket1,images/alien4,images/t.png,2,real,true,2,common,1,2020-06-09T20:11:00Z,sub37
two-step-fixation,233,922016,0.0-76.0-2.32,TRUE,FALSE,TRUE,TRUE,"""event"",""trial"",""time""
""fullscreenenter"",""5"",""17258""
","
","
","""event"",""trial"",""time""
""fullscreenenter"",""5"",""17258""
","
",NA,images/earth.jpg,NA,NA,NA,NA,NA,NA,NA,NA,NA,NA,NA,NA,NA,fixation,NA,NA,NA,NA,NA,NA,sub37
d3-animate-choice,234,924725,0.0-76.0-0.33,TRUE,FALSE,TRUE,TRUE,"""event"",""trial"",""time""
""fullscreenenter"",""5"",""17258""
","
","
","""event"",""trial"",""time""
""fullscreenenter"",""5"",""17258""
","
",703.9000000000233,NA,48,NA,NA,3000,1,NA,NA,images/earth.jpg,images/rocket2,images/rocket1,null,images/rocket2,NA,1,real,null,2,NA,NA,NA,sub37
d3-animate-choice,235,928091,0.0-76.0-1.33,TRUE,FALSE,TRUE,TRUE,"""event"",""trial"",""time""
""fullscreenenter"",""5"",""17258""
","
","
","""event"",""trial"",""time""
""fullscreenenter"",""5"",""17258""
","
",1359.729999999865,NA,48,NA,NA,3000,1,NA,NA,images/redplanet1.jpg,images/alien2,images/alien1,images/rocket2,images/alien2,images/t.png,2,real,true,2,common,1,2020-06-09T20:11:07Z,sub37
two-step-fixation,236,929098,0.0-76.0-2.33,TRUE,FALSE,TRUE,TRUE,"""event"",""trial"",""time""
""fullscreenenter"",""5"",""17258""
","
","
","""event"",""trial"",""time""
""fullscreenenter"",""5"",""17258""
","
",NA,images/earth.jpg,NA,NA,NA,NA,NA,NA,NA,NA,NA,NA,NA,NA,NA,fixation,NA,NA,NA,NA,NA,NA,sub37
d3-animate-choice,237,931745,0.0-76.0-0.34,TRUE,FALSE,TRUE,TRUE,"""event"",""trial"",""time""
""fullscreenenter"",""5"",""17258""
","
","
","""event"",""trial"",""time""
""fullscreenenter"",""5"",""17258""
","
",639.3950000000186,NA,48,NA,NA,3000,1,NA,NA,images/earth.jpg,images/rocket2,images/rocket1,null,images/rocket2,NA,1,real,null,2,NA,NA,NA,sub37
d3-animate-choice,238,934427,0.0-76.0-1.34,TRUE,FALSE,TRUE,TRUE,"""event"",""trial"",""time""
""fullscreenenter"",""5"",""17258""
","
","
","""event"",""trial"",""time""
""fullscreenenter"",""5"",""17258""
","
",676.4250000000466,NA,48,NA,NA,3000,1,NA,NA,images/redplanet1.jpg,images/alien2,images/alien1,images/rocket2,images/alien2,images/t.png,2,real,true,2,common,1,2020-06-09T20:11:13Z,sub37
two-step-fixation,239,935432,0.0-76.0-2.34,TRUE,FALSE,TRUE,TRUE,"""event"",""trial"",""time""
""fullscreenenter"",""5"",""17258""
","
","
","""event"",""trial"",""time""
""fullscreenenter"",""5"",""17258""
","
",NA,images/earth.jpg,NA,NA,NA,NA,NA,NA,NA,NA,NA,NA,NA,NA,NA,fixation,NA,NA,NA,NA,NA,NA,sub37
d3-animate-choice,240,937806,0.0-76.0-0.35,TRUE,FALSE,TRUE,TRUE,"""event"",""trial"",""time""
""fullscreenenter"",""5"",""17258""
","
","
","""event"",""trial"",""time""
""fullscreenenter"",""5"",""17258""
","
",366.0349999999162,NA,49,NA,NA,3000,1,NA,NA,images/earth.jpg,images/rocket2,images/rocket1,null,images/rocket1,NA,1,real,null,1,NA,NA,NA,sub37
d3-animate-choice,241,940407,0.0-76.0-1.35,TRUE,FALSE,TRUE,TRUE,"""event"",""trial"",""time""
""fullscreenenter"",""5"",""17258""
","
","
","""event"",""trial"",""time""
""fullscreenenter"",""5"",""17258""
","
",595.2649999998976,NA,48,NA,NA,3000,1,NA,NA,images/redplanet1.jpg,images/alien2,images/alien1,images/rocket1,images/alien2,images/t.png,2,real,false,2,rare,1,2020-06-09T20:11:19Z,sub37
two-step-fixation,242,941412,0.0-76.0-2.35,TRUE,FALSE,TRUE,TRUE,"""event"",""trial"",""time""
""fullscreenenter"",""5"",""17258""
","
","
","""event"",""trial"",""time""
""fullscreenenter"",""5"",""17258""
","
",NA,images/earth.jpg,NA,NA,NA,NA,NA,NA,NA,NA,NA,NA,NA,NA,NA,fixation,NA,NA,NA,NA,NA,NA,sub37
d3-animate-choice,243,943469,0.0-76.0-0.36,TRUE,FALSE,TRUE,TRUE,"""event"",""trial"",""time""
""fullscreenenter"",""5"",""17258""
","
","
","""event"",""trial"",""time""
""fullscreenenter"",""5"",""17258""
","
",51.50499999988824,NA,49,NA,NA,3000,1,NA,NA,images/earth.jpg,images/rocket2,images/rocket1,null,images/rocket1,NA,1,real,null,1,NA,NA,NA,sub37
d3-animate-choice,244,946146,0.0-76.0-1.36,TRUE,FALSE,TRUE,TRUE,"""event"",""trial"",""time""
""fullscreenenter"",""5"",""17258""
","
","
","""event"",""trial"",""time""
""fullscreenenter"",""5"",""17258""
","
",671.8599999998696,NA,48,NA,NA,3000,1,NA,NA,images/purpleplanet.jpg,images/alien4,images/alien3,images/rocket1,images/alien4,images/nothing.png,2,real,true,2,common,0,2020-06-09T20:11:25Z,sub37
two-step-fixation,245,947151,0.0-76.0-2.36,TRUE,FALSE,TRUE,TRUE,"""event"",""trial"",""time""
""fullscreenenter"",""5"",""17258""
","
","
","""event"",""trial"",""time""
""fullscreenenter"",""5"",""17258""
","
",NA,images/earth.jpg,NA,NA,NA,NA,NA,NA,NA,NA,NA,NA,NA,NA,NA,fixation,NA,NA,NA,NA,NA,NA,sub37
d3-animate-choice,246,949767,0.0-76.0-0.37,TRUE,FALSE,TRUE,TRUE,"""event"",""trial"",""time""
""fullscreenenter"",""5"",""17258""
","
","
","""event"",""trial"",""time""
""fullscreenenter"",""5"",""17258""
","
",609.6650000001537,NA,48,NA,NA,3000,1,NA,NA,images/earth.jpg,images/rocket2,images/rocket1,null,images/rocket2,NA,1,real,null,2,NA,NA,NA,sub37
d3-animate-choice,247,952613,0.0-76.0-1.37,TRUE,FALSE,TRUE,TRUE,"""event"",""trial"",""time""
""fullscreenenter"",""5"",""17258""
","
","
","""event"",""trial"",""time""
""fullscreenenter"",""5"",""17258""
","
",841.2499999998836,NA,48,NA,NA,3000,1,NA,NA,images/purpleplanet.jpg,images/alien4,images/alien3,images/rocket2,images/alien4,images/t.png,2,real,false,2,rare,1,2020-06-09T20:11:31Z,sub37
two-step-fixation,248,953618,0.0-76.0-2.37,TRUE,FALSE,TRUE,TRUE,"""event"",""trial"",""time""
""fullscreenenter"",""5"",""17258""
","
","
","""event"",""trial"",""time""
""fullscreenenter"",""5"",""17258""
","
",NA,images/earth.jpg,NA,NA,NA,NA,NA,NA,NA,NA,NA,NA,NA,NA,NA,fixation,NA,NA,NA,NA,NA,NA,sub37
d3-animate-choice,249,956002,0.0-76.0-0.38,TRUE,FALSE,TRUE,TRUE,"""event"",""trial"",""time""
""fullscreenenter"",""5"",""17258""
","
","
","""event"",""trial"",""time""
""fullscreenenter"",""5"",""17258""
","
",379.50500000000466,NA,48,NA,NA,3000,1,NA,NA,images/earth.jpg,images/rocket2,images/rocket1,null,images/rocket2,NA,1,real,null,2,NA,NA,NA,sub37
d3-animate-choice,250,958435,0.0-76.0-1.38,TRUE,FALSE,TRUE,TRUE,"""event"",""trial"",""time""
""fullscreenenter"",""5"",""17258""
","
","
","""event"",""trial"",""time""
""fullscreenenter"",""5"",""17258""
","
",427.75499999988824,NA,48,NA,NA,3000,1,NA,NA,images/redplanet1.jpg,images/alien2,images/alien1,images/rocket2,images/alien2,images/t.png,2,real,true,2,common,1,2020-06-09T20:11:37Z,sub37
two-step-fixation,251,959440,0.0-76.0-2.38,TRUE,FALSE,TRUE,TRUE,"""event"",""trial"",""time""
""fullscreenenter"",""5"",""17258""
","
","
","""event"",""trial"",""time""
""fullscreenenter"",""5"",""17258""
","
",NA,images/earth.jpg,NA,NA,NA,NA,NA,NA,NA,NA,NA,NA,NA,NA,NA,fixation,NA,NA,NA,NA,NA,NA,sub37
d3-animate-choice,252,962684,0.0-76.0-0.39,TRUE,FALSE,TRUE,TRUE,"""event"",""trial"",""time""
""fullscreenenter"",""5"",""17258""
","
","
","""event"",""trial"",""time""
""fullscreenenter"",""5"",""17258""
","
",1238.285000000149,NA,48,NA,NA,3000,1,NA,NA,images/earth.jpg,images/rocket2,images/rocket1,null,images/rocket2,NA,1,real,null,2,NA,NA,NA,sub37
d3-animate-choice,253,965667,0.0-76.0-1.39,TRUE,FALSE,TRUE,TRUE,"""event"",""trial"",""time""
""fullscreenenter"",""5"",""17258""
","
","
","""event"",""trial"",""time""
""fullscreenenter"",""5"",""17258""
","
",977.5799999999581,NA,49,NA,NA,3000,1,NA,NA,images/purpleplanet.jpg,images/alien4,images/alien3,images/rocket2,images/alien3,images/nothing.png,2,real,false,1,rare,0,2020-06-09T20:11:44Z,sub37
two-step-fixation,254,966672,0.0-76.0-2.39,TRUE,FALSE,TRUE,TRUE,"""event"",""trial"",""time""
""fullscreenenter"",""5"",""17258""
","
","
","""event"",""trial"",""time""
""fullscreenenter"",""5"",""17258""
","
",NA,images/earth.jpg,NA,NA,NA,NA,NA,NA,NA,NA,NA,NA,NA,NA,NA,fixation,NA,NA,NA,NA,NA,NA,sub37
d3-animate-choice,255,969147,0.0-76.0-0.40,TRUE,FALSE,TRUE,TRUE,"""event"",""trial"",""time""
""fullscreenenter"",""5"",""17258""
","
","
","""event"",""trial"",""time""
""fullscreenenter"",""5"",""17258""
","
",469.0400000002701,NA,48,NA,NA,3000,1,NA,NA,images/earth.jpg,images/rocket2,images/rocket1,null,images/rocket2,NA,1,real,null,2,NA,NA,NA,sub37
d3-animate-choice,256,972173,0.0-76.0-1.40,TRUE,FALSE,TRUE,TRUE,"""event"",""trial"",""time""
""fullscreenenter"",""5"",""17258""
","
","
","""event"",""trial"",""time""
""fullscreenenter"",""5"",""17258""
","
",1021.1450000000186,NA,48,NA,NA,3000,1,NA,NA,images/purpleplanet.jpg,images/alien4,images/alien3,images/rocket2,images/alien4,images/t.png,2,real,false,2,rare,1,2020-06-09T20:11:51Z,sub37
two-step-fixation,257,973177,0.0-76.0-2.40,TRUE,FALSE,TRUE,TRUE,"""event"",""trial"",""time""
""fullscreenenter"",""5"",""17258""
","
","
","""event"",""trial"",""time""
""fullscreenenter"",""5"",""17258""
","
",NA,images/earth.jpg,NA,NA,NA,NA,NA,NA,NA,NA,NA,NA,NA,NA,NA,fixation,NA,NA,NA,NA,NA,NA,sub37
d3-animate-choice,258,975803,0.0-76.0-0.41,TRUE,FALSE,TRUE,TRUE,"""event"",""trial"",""time""
""fullscreenenter"",""5"",""17258""
","
","
","""event"",""trial"",""time""
""fullscreenenter"",""5"",""17258""
","
",620.1850000000559,NA,48,NA,NA,3000,1,NA,NA,images/earth.jpg,images/rocket2,images/rocket1,null,images/rocket2,NA,1,real,null,2,NA,NA,NA,sub37
d3-animate-choice,259,978508,0.0-76.0-1.41,TRUE,FALSE,TRUE,TRUE,"""event"",""trial"",""time""
""fullscreenenter"",""5"",""17258""
","
","
","""event"",""trial"",""time""
""fullscreenenter"",""5"",""17258""
","
",700.0250000000233,NA,48,NA,NA,3000,1,NA,NA,images/redplanet1.jpg,images/alien2,images/alien1,images/rocket2,images/alien2,images/t.png,2,real,true,2,common,1,2020-06-09T20:11:57Z,sub37
two-step-fixation,260,979514,0.0-76.0-2.41,TRUE,FALSE,TRUE,TRUE,"""event"",""trial"",""time""
""fullscreenenter"",""5"",""17258""
","
","
","""event"",""trial"",""time""
""fullscreenenter"",""5"",""17258""
","
",NA,images/earth.jpg,NA,NA,NA,NA,NA,NA,NA,NA,NA,NA,NA,NA,NA,fixation,NA,NA,NA,NA,NA,NA,sub37
d3-animate-choice,261,981989,0.0-76.0-0.42,TRUE,FALSE,TRUE,TRUE,"""event"",""trial"",""time""
""fullscreenenter"",""5"",""17258""
","
","
","""event"",""trial"",""time""
""fullscreenenter"",""5"",""17258""
","
",469.45999999996275,NA,49,NA,NA,3000,1,NA,NA,images/earth.jpg,images/rocket2,images/rocket1,null,images/rocket1,NA,1,real,null,1,NA,NA,NA,sub37
d3-animate-choice,262,984640,0.0-76.0-1.42,TRUE,FALSE,TRUE,TRUE,"""event"",""trial"",""time""
""fullscreenenter"",""5"",""17258""
","
","
","""event"",""trial"",""time""
""fullscreenenter"",""5"",""17258""
","
",645.9750000000931,NA,48,NA,NA,3000,1,NA,NA,images/purpleplanet.jpg,images/alien4,images/alien3,images/rocket1,images/alien4,images/nothing.png,2,real,true,2,common,0,2020-06-09T20:12:03Z,sub37
two-step-fixation,263,985645,0.0-76.0-2.42,TRUE,FALSE,TRUE,TRUE,"""event"",""trial"",""time""
""fullscreenenter"",""5"",""17258""
","
","
","""event"",""trial"",""time""
""fullscreenenter"",""5"",""17258""
","
",NA,images/earth.jpg,NA,NA,NA,NA,NA,NA,NA,NA,NA,NA,NA,NA,NA,fixation,NA,NA,NA,NA,NA,NA,sub37
d3-animate-choice,264,988273,0.0-76.0-0.43,TRUE,FALSE,TRUE,TRUE,"""event"",""trial"",""time""
""fullscreenenter"",""5"",""17258""
","
","
","""event"",""trial"",""time""
""fullscreenenter"",""5"",""17258""
","
",622.9300000000512,NA,48,NA,NA,3000,1,NA,NA,images/earth.jpg,images/rocket2,images/rocket1,null,images/rocket2,NA,1,real,null,2,NA,NA,NA,sub37
d3-animate-choice,265,990802,0.0-76.0-1.43,TRUE,FALSE,TRUE,TRUE,"""event"",""trial"",""time""
""fullscreenenter"",""5"",""17258""
","
","
","""event"",""trial"",""time""
""fullscreenenter"",""5"",""17258""
","
",524.1000000000931,NA,48,NA,NA,3000,1,NA,NA,images/redplanet1.jpg,images/alien2,images/alien1,images/rocket2,images/alien2,images/nothing.png,2,real,true,2,common,0,2020-06-09T20:12:10Z,sub37
two-step-fixation,266,991807,0.0-76.0-2.43,TRUE,FALSE,TRUE,TRUE,"""event"",""trial"",""time""
""fullscreenenter"",""5"",""17258""
","
","
","""event"",""trial"",""time""
""fullscreenenter"",""5"",""17258""
","
",NA,images/earth.jpg,NA,NA,NA,NA,NA,NA,NA,NA,NA,NA,NA,NA,NA,fixation,NA,NA,NA,NA,NA,NA,sub37
d3-animate-choice,267,994190,0.0-76.0-0.44,TRUE,FALSE,TRUE,TRUE,"""event"",""trial"",""time""
""fullscreenenter"",""5"",""17258""
","
","
","""event"",""trial"",""time""
""fullscreenenter"",""5"",""17258""
","
",377.63500000012573,NA,49,NA,NA,3000,1,NA,NA,images/earth.jpg,images/rocket2,images/rocket1,null,images/rocket1,NA,1,real,null,1,NA,NA,NA,sub37
d3-animate-choice,268,996552,0.0-76.0-1.44,TRUE,FALSE,TRUE,TRUE,"""event"",""trial"",""time""
""fullscreenenter"",""5"",""17258""
","
","
","""event"",""trial"",""time""
""fullscreenenter"",""5"",""17258""
","
",354.15500000002794,NA,49,NA,NA,3000,1,NA,NA,images/purpleplanet.jpg,images/alien4,images/alien3,images/rocket1,images/alien3,images/nothing.png,2,real,true,1,common,0,2020-06-09T20:12:15Z,sub37
two-step-fixation,269,997557,0.0-76.0-2.44,TRUE,FALSE,TRUE,TRUE,"""event"",""trial"",""time""
""fullscreenenter"",""5"",""17258""
","
","
","""event"",""trial"",""time""
""fullscreenenter"",""5"",""17258""
","
",NA,images/earth.jpg,NA,NA,NA,NA,NA,NA,NA,NA,NA,NA,NA,NA,NA,fixation,NA,NA,NA,NA,NA,NA,sub37
d3-animate-choice,270,999996,0.0-76.0-0.45,TRUE,FALSE,TRUE,TRUE,"""event"",""trial"",""time""
""fullscreenenter"",""5"",""17258""
","
","
","""event"",""trial"",""time""
""fullscreenenter"",""5"",""17258""
","
",433.90999999968335,NA,48,NA,NA,3000,1,NA,NA,images/earth.jpg,images/rocket2,images/rocket1,null,images/rocket2,NA,1,real,null,2,NA,NA,NA,sub37
d3-animate-choice,271,1003236,0.0-76.0-1.45,TRUE,FALSE,TRUE,TRUE,"""event"",""trial"",""time""
""fullscreenenter"",""5"",""17258""
","
","
","""event"",""trial"",""time""
""fullscreenenter"",""5"",""17258""
","
",1233.5200000002515,NA,48,NA,NA,3000,1,NA,NA,images/purpleplanet.jpg,images/alien4,images/alien3,images/rocket2,images/alien4,images/nothing.png,2,real,false,2,rare,0,2020-06-09T20:12:22Z,sub37
two-step-fixation,272,1004241,0.0-76.0-2.45,TRUE,FALSE,TRUE,TRUE,"""event"",""trial"",""time""
""fullscreenenter"",""5"",""17258""
","
","
","""event"",""trial"",""time""
""fullscreenenter"",""5"",""17258""
","
",NA,images/earth.jpg,NA,NA,NA,NA,NA,NA,NA,NA,NA,NA,NA,NA,NA,fixation,NA,NA,NA,NA,NA,NA,sub37
d3-animate-choice,273,1006784,0.0-76.0-0.46,TRUE,FALSE,TRUE,TRUE,"""event"",""trial"",""time""
""fullscreenenter"",""5"",""17258""
","
","
","""event"",""trial"",""time""
""fullscreenenter"",""5"",""17258""
","
",537.7850000000326,NA,49,NA,NA,3000,1,NA,NA,images/earth.jpg,images/rocket2,images/rocket1,null,images/rocket1,NA,1,real,null,1,NA,NA,NA,sub37
d3-animate-choice,274,1009459,0.0-76.0-1.46,TRUE,FALSE,TRUE,TRUE,"""event"",""trial"",""time""
""fullscreenenter"",""5"",""17258""
","
","
","""event"",""trial"",""time""
""fullscreenenter"",""5"",""17258""
","
",669.2399999997579,NA,49,NA,NA,3000,1,NA,NA,images/purpleplanet.jpg,images/alien4,images/alien3,images/rocket1,images/alien3,images/nothing.png,2,real,true,1,common,0,2020-06-09T20:12:28Z,sub37
two-step-fixation,275,1010464,0.0-76.0-2.46,TRUE,FALSE,TRUE,TRUE,"""event"",""trial"",""time""
""fullscreenenter"",""5"",""17258""
","
","
","""event"",""trial"",""time""
""fullscreenenter"",""5"",""17258""
","
",NA,images/earth.jpg,NA,NA,NA,NA,NA,NA,NA,NA,NA,NA,NA,NA,NA,fixation,NA,NA,NA,NA,NA,NA,sub37
d3-animate-choice,276,1012785,0.0-76.0-0.47,TRUE,FALSE,TRUE,TRUE,"""event"",""trial"",""time""
""fullscreenenter"",""5"",""17258""
","
","
","""event"",""trial"",""time""
""fullscreenenter"",""5"",""17258""
","
",315.8499999999767,NA,48,NA,NA,3000,1,NA,NA,images/earth.jpg,images/rocket2,images/rocket1,null,images/rocket2,NA,1,real,null,2,NA,NA,NA,sub37
d3-animate-choice,277,1016223,0.0-76.0-1.47,TRUE,FALSE,TRUE,TRUE,"""event"",""trial"",""time""
""fullscreenenter"",""5"",""17258""
","
","
","""event"",""trial"",""time""
""fullscreenenter"",""5"",""17258""
","
",1432.2750000000233,NA,49,NA,NA,3000,1,NA,NA,images/redplanet1.jpg,images/alien2,images/alien1,images/rocket2,images/alien1,images/nothing.png,2,real,true,1,common,0,2020-06-09T20:12:35Z,sub37
two-step-fixation,278,1017228,0.0-76.0-2.47,TRUE,FALSE,TRUE,TRUE,"""event"",""trial"",""time""
""fullscreenenter"",""5"",""17258""
","
","
","""event"",""trial"",""time""
""fullscreenenter"",""5"",""17258""
","
",NA,images/earth.jpg,NA,NA,NA,NA,NA,NA,NA,NA,NA,NA,NA,NA,NA,fixation,NA,NA,NA,NA,NA,NA,sub37
d3-animate-choice,279,1019574,0.0-76.0-0.48,TRUE,FALSE,TRUE,TRUE,"""event"",""trial"",""time""
""fullscreenenter"",""5"",""17258""
","
","
","""event"",""trial"",""time""
""fullscreenenter"",""5"",""17258""
","
",340.7050000000745,NA,48,NA,NA,3000,1,NA,NA,images/earth.jpg,images/rocket2,images/rocket1,null,images/rocket2,NA,1,real,null,2,NA,NA,NA,sub37
d3-animate-choice,280,1022202,0.0-76.0-1.48,TRUE,FALSE,TRUE,TRUE,"""event"",""trial"",""time""
""fullscreenenter"",""5"",""17258""
","
","
","""event"",""trial"",""time""
""fullscreenenter"",""5"",""17258""
","
",623.1399999996647,NA,48,NA,NA,3000,1,NA,NA,images/redplanet1.jpg,images/alien2,images/alien1,images/rocket2,images/alien2,images/t.png,2,real,true,2,common,1,2020-06-09T20:12:41Z,sub37
two-step-fixation,281,1023207,0.0-76.0-2.48,TRUE,FALSE,TRUE,TRUE,"""event"",""trial"",""time""
""fullscreenenter"",""5"",""17258""
","
","
","""event"",""trial"",""time""
""fullscreenenter"",""5"",""17258""
","
",NA,images/earth.jpg,NA,NA,NA,NA,NA,NA,NA,NA,NA,NA,NA,NA,NA,fixation,NA,NA,NA,NA,NA,NA,sub37
d3-animate-choice,282,1025550,0.0-76.0-0.49,TRUE,FALSE,TRUE,TRUE,"""event"",""trial"",""time""
""fullscreenenter"",""5"",""17258""
","
","
","""event"",""trial"",""time""
""fullscreenenter"",""5"",""17258""
","
",337.44999999995343,NA,48,NA,NA,3000,1,NA,NA,images/earth.jpg,images/rocket2,images/rocket1,null,images/rocket2,NA,1,real,null,2,NA,NA,NA,sub37
d3-animate-choice,283,1028200,0.0-76.0-1.49,TRUE,FALSE,TRUE,TRUE,"""event"",""trial"",""time""
""fullscreenenter"",""5"",""17258""
","
","
","""event"",""trial"",""time""
""fullscreenenter"",""5"",""17258""
","
",644.2849999999162,NA,48,NA,NA,3000,1,NA,NA,images/redplanet1.jpg,images/alien2,images/alien1,images/rocket2,images/alien2,images/t.png,2,real,true,2,common,1,2020-06-09T20:12:47Z,sub37
two-step-fixation,284,1029205,0.0-76.0-2.49,TRUE,FALSE,TRUE,TRUE,"""event"",""trial"",""time""
""fullscreenenter"",""5"",""17258""
","
","
","""event"",""trial"",""time""
""fullscreenenter"",""5"",""17258""
","
