trial_type,trial_index,time_elapsed,internal_node_id,rocket_sides,red_planet_first_rocket,red_display_order,purple_display_order,interactions,blur_events,focus_events,fullscreenenter_events,fullscreenexit_events,rt,stimulus,key_press,button_pressed,success,duration,valid_pressed,rts,keys,planet_text,right_text,left_text,center_text,chosen_text,reward_text,trial_stage,practice_trial,transition_type,choice,transition,reward,timestamp,subject_id
pavlovia,0,4,0.0-0.0,FALSE,FALSE,FALSE,TRUE,"
","
","
","
","
",NA,NA,NA,NA,NA,NA,NA,NA,NA,NA,NA,NA,NA,NA,NA,NA,NA,NA,NA,NA,NA,NA,sub66
html-keyboard-response,1,1453,0.0-1.0,FALSE,FALSE,FALSE,TRUE,"
","
","
","
","
",1446.8849999975646,Welcome! Press the space bar to begin.,32,NA,NA,NA,NA,NA,NA,NA,NA,NA,NA,NA,NA,NA,NA,NA,NA,NA,NA,NA,sub66
audio-keyboard-response,2,3491,0.0-2.0,FALSE,FALSE,FALSE,TRUE,"""event"",""trial"",""time""
""blur"",""3"",""4425""
""focus"",""3"",""10642""
","""event"",""trial"",""time""
""blur"",""3"",""4425""
","""event"",""trial"",""time""
""focus"",""3"",""10642""
","
","
",2029,audio/beep_loop.wav,32,NA,NA,NA,NA,NA,NA,NA,NA,NA,NA,NA,NA,NA,NA,NA,NA,NA,NA,NA,sub66
audio-button-response,3,12158,0.0-3.0,FALSE,FALSE,FALSE,TRUE,"""event"",""trial"",""time""
""blur"",""3"",""4425""
""focus"",""3"",""10642""
","""event"",""trial"",""time""
""blur"",""3"",""4425""
","""event"",""trial"",""time""
""focus"",""3"",""10642""
","
","
",NaN,audio/fish.mp3,NA,1,NA,NA,NA,NA,NA,NA,NA,NA,NA,NA,NA,NA,NA,NA,NA,NA,NA,NA,sub66
audio-button-response,4,14559,0.0-4.0,FALSE,FALSE,FALSE,TRUE,"""event"",""trial"",""time""
""blur"",""3"",""4425""
""focus"",""3"",""10642""
""fullscreenenter"",""5"",""17152""
","""event"",""trial"",""time""
""blur"",""3"",""4425""
","""event"",""trial"",""time""
""focus"",""3"",""10642""
","""event"",""trial"",""time""
""fullscreenenter"",""5"",""17152""
","
",NaN,audio/tiger.mp3,NA,4,NA,NA,NA,NA,NA,NA,NA,NA,NA,NA,NA,NA,NA,NA,NA,NA,NA,NA,sub66
fullscreen,5,18064,0.0-5.0,FALSE,FALSE,FALSE,TRUE,"""event"",""trial"",""time""
""blur"",""3"",""4425""
""focus"",""3"",""10642""
""fullscreenenter"",""5"",""17152""
","""event"",""trial"",""time""
""blur"",""3"",""4425""
","""event"",""trial"",""time""
""focus"",""3"",""10642""
","""event"",""trial"",""time""
""fullscreenenter"",""5"",""17152""
","
",NA,NA,NA,NA,TRUE,NA,NA,NA,NA,NA,NA,NA,NA,NA,NA,NA,NA,NA,NA,NA,NA,NA,sub66
d3-instructions,6,30267,0.0-6.0,FALSE,FALSE,FALSE,TRUE,"""event"",""trial"",""time""
""blur"",""3"",""4425""
""focus"",""3"",""10642""
""fullscreenenter"",""5"",""17152""
","""event"",""trial"",""time""
""blur"",""3"",""4425""
","""event"",""trial"",""time""
""focus"",""3"",""10642""
","""event"",""trial"",""time""
""fullscreenenter"",""5"",""17152""
","
",NA,NA,NA,NA,NA,NA,NA,NA,NA,NA,NA,NA,NA,NA,NA,NA,NA,NA,NA,NA,NA,NA,sub66
d3-instructions,7,37014,0.0-7.0,FALSE,FALSE,FALSE,TRUE,"""event"",""trial"",""time""
""blur"",""3"",""4425""
""focus"",""3"",""10642""
""fullscreenenter"",""5"",""17152""
","""event"",""trial"",""time""
""blur"",""3"",""4425""
","""event"",""trial"",""time""
""focus"",""3"",""10642""
","""event"",""trial"",""time""
""fullscreenenter"",""5"",""17152""
","
",NA,NA,NA,NA,NA,NA,NA,NA,NA,NA,NA,NA,NA,NA,NA,NA,NA,NA,NA,NA,NA,NA,sub66
d3-instructions,8,43286,0.0-8.0,FALSE,FALSE,FALSE,TRUE,"""event"",""trial"",""time""
""blur"",""3"",""4425""
""focus"",""3"",""10642""
""fullscreenenter"",""5"",""17152""
","""event"",""trial"",""time""
""blur"",""3"",""4425""
","""event"",""trial"",""time""
""focus"",""3"",""10642""
","""event"",""trial"",""time""
""fullscreenenter"",""5"",""17152""
","
",NA,NA,NA,NA,NA,NA,NA,NA,NA,NA,NA,NA,NA,NA,NA,NA,NA,NA,NA,NA,NA,NA,sub66
d3-instructions,9,53855,0.0-9.0,FALSE,FALSE,FALSE,TRUE,"""event"",""trial"",""time""
""blur"",""3"",""4425""
""focus"",""3"",""10642""
""fullscreenenter"",""5"",""17152""
","""event"",""trial"",""time""
""blur"",""3"",""4425""
","""event"",""trial"",""time""
""focus"",""3"",""10642""
","""event"",""trial"",""time""
""fullscreenenter"",""5"",""17152""
","
",NA,NA,NA,NA,NA,NA,NA,NA,NA,NA,NA,NA,NA,NA,NA,NA,NA,NA,NA,NA,NA,NA,sub66
d3-instructions,10,72749,0.0-10.0,FALSE,FALSE,FALSE,TRUE,"""event"",""trial"",""time""
""blur"",""3"",""4425""
""focus"",""3"",""10642""
""fullscreenenter"",""5"",""17152""
","""event"",""trial"",""time""
""blur"",""3"",""4425""
","""event"",""trial"",""time""
""focus"",""3"",""10642""
","""event"",""trial"",""time""
""fullscreenenter"",""5"",""17152""
","
",NA,NA,NA,NA,NA,NA,NA,NA,NA,NA,NA,NA,NA,NA,NA,NA,NA,NA,NA,NA,NA,NA,sub66
d3-animate-choice,11,79756,0.0-11.0,FALSE,FALSE,FALSE,TRUE,"""event"",""trial"",""time""
""blur"",""3"",""4425""
""focus"",""3"",""10642""
""fullscreenenter"",""5"",""17152""
","""event"",""trial"",""time""
""blur"",""3"",""4425""
","""event"",""trial"",""time""
""focus"",""3"",""10642""
","""event"",""trial"",""time""
""fullscreenenter"",""5"",""17152""
","
",1283.6800000077346,NA,97,NA,NA,3000,1,4993.77000000095,49,images/tutgreenplanet.jpg,images/tutalien1,images/tutalien2,null,images/tutalien2,NA,NA,practice,null,NA,NA,NA,NA,sub66
d3-animate-choice,12,85368,0.0-12.0,FALSE,FALSE,FALSE,TRUE,"""event"",""trial"",""time""
""blur"",""3"",""4425""
""focus"",""3"",""10642""
""fullscreenenter"",""5"",""17152""
","""event"",""trial"",""time""
""blur"",""3"",""4425""
","""event"",""trial"",""time""
""focus"",""3"",""10642""
","""event"",""trial"",""time""
""fullscreenenter"",""5"",""17152""
","
",898.6600000062026,NA,144,NA,NA,3000,1,"1285.4050000023562,3604.445000004489",4548,images/tutgreenplanet.jpg,images/tutalien1,images/tutalien2,null,images/tutalien1,NA,NA,practice,null,NA,NA,NA,NA,sub66
d3-animate-choice,13,88393,0.0-13.0,FALSE,FALSE,FALSE,TRUE,"""event"",""trial"",""time""
""blur"",""3"",""4425""
""focus"",""3"",""10642""
""fullscreenenter"",""5"",""17152""
","""event"",""trial"",""time""
""blur"",""3"",""4425""
","""event"",""trial"",""time""
""focus"",""3"",""10642""
","""event"",""trial"",""time""
""fullscreenenter"",""5"",""17152""
","
",1018.9099999988684,NA,49,NA,NA,3000,1,NA,NA,images/tutgreenplanet.jpg,images/tutalien1,images/tutalien2,null,images/tutalien2,NA,NA,practice,null,NA,NA,NA,NA,sub66
d3-animate-choice,14,91132,0.0-14.0,FALSE,FALSE,FALSE,TRUE,"""event"",""trial"",""time""
""blur"",""3"",""4425""
""focus"",""3"",""10642""
""fullscreenenter"",""5"",""17152""
","""event"",""trial"",""time""
""blur"",""3"",""4425""
","""event"",""trial"",""time""
""focus"",""3"",""10642""
","""event"",""trial"",""time""
""fullscreenenter"",""5"",""17152""
","
",733.4649999975227,NA,48,NA,NA,3000,1,NA,NA,images/tutgreenplanet.jpg,images/tutalien1,images/tutalien2,null,images/tutalien1,NA,NA,practice,null,NA,NA,NA,NA,sub66
d3-instructions,15,99720,0.0-15.0,FALSE,FALSE,FALSE,TRUE,"""event"",""trial"",""time""
""blur"",""3"",""4425""
""focus"",""3"",""10642""
""fullscreenenter"",""5"",""17152""
","""event"",""trial"",""time""
""blur"",""3"",""4425""
","""event"",""trial"",""time""
""focus"",""3"",""10642""
","""event"",""trial"",""time""
""fullscreenenter"",""5"",""17152""
","
",NA,NA,NA,NA,NA,NA,NA,NA,NA,NA,NA,NA,NA,NA,NA,NA,NA,NA,NA,NA,NA,NA,sub66
d3-instructions,16,105787,0.0-16.0,FALSE,FALSE,FALSE,TRUE,"""event"",""trial"",""time""
""blur"",""3"",""4425""
""focus"",""3"",""10642""
""fullscreenenter"",""5"",""17152""
","""event"",""trial"",""time""
""blur"",""3"",""4425""
","""event"",""trial"",""time""
""focus"",""3"",""10642""
","""event"",""trial"",""time""
""fullscreenenter"",""5"",""17152""
","
",NA,NA,NA,NA,NA,NA,NA,NA,NA,NA,NA,NA,NA,NA,NA,NA,NA,NA,NA,NA,NA,NA,sub66
d3-instructions,17,114282,0.0-17.0,FALSE,FALSE,FALSE,TRUE,"""event"",""trial"",""time""
""blur"",""3"",""4425""
""focus"",""3"",""10642""
""fullscreenenter"",""5"",""17152""
","""event"",""trial"",""time""
""blur"",""3"",""4425""
","""event"",""trial"",""time""
""focus"",""3"",""10642""
","""event"",""trial"",""time""
""fullscreenenter"",""5"",""17152""
","
",NA,NA,NA,NA,NA,NA,NA,NA,NA,NA,NA,NA,NA,NA,NA,NA,NA,NA,NA,NA,NA,NA,sub66
d3-instructions,18,126733,0.0-18.0,FALSE,FALSE,FALSE,TRUE,"""event"",""trial"",""time""
""blur"",""3"",""4425""
""focus"",""3"",""10642""
""fullscreenenter"",""5"",""17152""
","""event"",""trial"",""time""
""blur"",""3"",""4425""
","""event"",""trial"",""time""
""focus"",""3"",""10642""
","""event"",""trial"",""time""
""fullscreenenter"",""5"",""17152""
","
",NA,NA,NA,NA,NA,NA,NA,NA,NA,NA,NA,NA,NA,NA,NA,NA,NA,NA,NA,NA,NA,NA,sub66
d3-instructions,19,134949,0.0-19.0,FALSE,FALSE,FALSE,TRUE,"""event"",""trial"",""time""
""blur"",""3"",""4425""
""focus"",""3"",""10642""
""fullscreenenter"",""5"",""17152""
","""event"",""trial"",""time""
""blur"",""3"",""4425""
","""event"",""trial"",""time""
""focus"",""3"",""10642""
","""event"",""trial"",""time""
""fullscreenenter"",""5"",""17152""
","
",NA,NA,NA,NA,NA,NA,NA,NA,NA,NA,NA,NA,NA,NA,NA,NA,NA,NA,NA,NA,NA,NA,sub66
d3-animate-choice,20,138173,0.0-20.0,FALSE,FALSE,FALSE,TRUE,"""event"",""trial"",""time""
""blur"",""3"",""4425""
""focus"",""3"",""10642""
""fullscreenenter"",""5"",""17152""
","""event"",""trial"",""time""
""blur"",""3"",""4425""
","""event"",""trial"",""time""
""focus"",""3"",""10642""
","""event"",""trial"",""time""
""fullscreenenter"",""5"",""17152""
","
",1217.640000002575,NA,49,NA,NA,3000,1,NA,NA,images/tutyellowplanet.jpg,null,images/tutalien3,null,images/tutalien3,images/nothing.png,NA,practice,null,NA,NA,NA,NA,sub66
d3-animate-choice,21,140510,0.0-21.0,FALSE,FALSE,FALSE,TRUE,"""event"",""trial"",""time""
""blur"",""3"",""4425""
""focus"",""3"",""10642""
""fullscreenenter"",""5"",""17152""
","""event"",""trial"",""time""
""blur"",""3"",""4425""
","""event"",""trial"",""time""
""focus"",""3"",""10642""
","""event"",""trial"",""time""
""fullscreenenter"",""5"",""17152""
","
",332.85999999498017,NA,49,NA,NA,3000,1,1723.2399999920744,49,images/tutyellowplanet.jpg,null,images/tutalien3,null,images/tutalien3,images/t.png,NA,practice,null,NA,NA,NA,NA,sub66
d3-animate-choice,22,142788,0.0-22.0,FALSE,FALSE,FALSE,TRUE,"""event"",""trial"",""time""
""blur"",""3"",""4425""
""focus"",""3"",""10642""
""fullscreenenter"",""5"",""17152""
","""event"",""trial"",""time""
""blur"",""3"",""4425""
","""event"",""trial"",""time""
""focus"",""3"",""10642""
","""event"",""trial"",""time""
""fullscreenenter"",""5"",""17152""
","
",273.26000000175554,NA,49,NA,NA,3000,1,1768.7000000005355,49,images/tutyellowplanet.jpg,null,images/tutalien3,null,images/tutalien3,images/t.png,NA,practice,null,NA,NA,NA,NA,sub66
d3-animate-choice,23,145049,0.0-23.0,FALSE,FALSE,FALSE,TRUE,"""event"",""trial"",""time""
""blur"",""3"",""4425""
""focus"",""3"",""10642""
""fullscreenenter"",""5"",""17152""
","""event"",""trial"",""time""
""blur"",""3"",""4425""
","""event"",""trial"",""time""
""focus"",""3"",""10642""
","""event"",""trial"",""time""
""fullscreenenter"",""5"",""17152""
","
",256.5500000055181,NA,49,NA,NA,3000,1,NA,NA,images/tutyellowplanet.jpg,null,images/tutalien3,null,images/tutalien3,images/t.png,NA,practice,null,NA,NA,NA,NA,sub66
d3-animate-choice,24,147317,0.0-24.0,FALSE,FALSE,FALSE,TRUE,"""event"",""trial"",""time""
""blur"",""3"",""4425""
""focus"",""3"",""10642""
""fullscreenenter"",""5"",""17152""
","""event"",""trial"",""time""
""blur"",""3"",""4425""
","""event"",""trial"",""time""
""focus"",""3"",""10642""
","""event"",""trial"",""time""
""fullscreenenter"",""5"",""17152""
","
",262.9549999983283,NA,49,NA,NA,3000,1,NA,NA,images/tutyellowplanet.jpg,null,images/tutalien3,null,images/tutalien3,images/t.png,NA,practice,null,NA,NA,NA,NA,sub66
d3-animate-choice,25,149773,0.0-25.0,FALSE,FALSE,FALSE,TRUE,"""event"",""trial"",""time""
""blur"",""3"",""4425""
""focus"",""3"",""10642""
""fullscreenenter"",""5"",""17152""
","""event"",""trial"",""time""
""blur"",""3"",""4425""
","""event"",""trial"",""time""
""focus"",""3"",""10642""
","""event"",""trial"",""time""
""fullscreenenter"",""5"",""17152""
","
",451.6999999905238,NA,49,NA,NA,3000,1,NA,NA,images/tutyellowplanet.jpg,null,images/tutalien3,null,images/tutalien3,images/nothing.png,NA,practice,null,NA,NA,NA,NA,sub66
d3-animate-choice,26,151864,0.0-26.0,FALSE,FALSE,FALSE,TRUE,"""event"",""trial"",""time""
""blur"",""3"",""4425""
""focus"",""3"",""10642""
""fullscreenenter"",""5"",""17152""
","""event"",""trial"",""time""
""blur"",""3"",""4425""
","""event"",""trial"",""time""
""focus"",""3"",""10642""
","""event"",""trial"",""time""
""fullscreenenter"",""5"",""17152""
","
",86.2899999920046,NA,49,NA,NA,3000,1,NA,NA,images/tutyellowplanet.jpg,null,images/tutalien3,null,images/tutalien3,images/t.png,NA,practice,null,NA,NA,NA,NA,sub66
d3-animate-choice,27,154174,0.0-27.0,FALSE,FALSE,FALSE,TRUE,"""event"",""trial"",""time""
""blur"",""3"",""4425""
""focus"",""3"",""10642""
""fullscreenenter"",""5"",""17152""
","""event"",""trial"",""time""
""blur"",""3"",""4425""
","""event"",""trial"",""time""
""focus"",""3"",""10642""
","""event"",""trial"",""time""
""fullscreenenter"",""5"",""17152""
","
",303.34499999298714,NA,49,NA,NA,3000,1,NA,NA,images/tutyellowplanet.jpg,null,images/tutalien3,null,images/tutalien3,images/nothing.png,NA,practice,null,NA,NA,NA,NA,sub66
d3-animate-choice,28,156505,0.0-28.0,FALSE,FALSE,FALSE,TRUE,"""event"",""trial"",""time""
""blur"",""3"",""4425""
""focus"",""3"",""10642""
""fullscreenenter"",""5"",""17152""
","""event"",""trial"",""time""
""blur"",""3"",""4425""
","""event"",""trial"",""time""
""focus"",""3"",""10642""
","""event"",""trial"",""time""
""fullscreenenter"",""5"",""17152""
","
",327.24499999312684,NA,49,NA,NA,3000,1,NA,NA,images/tutyellowplanet.jpg,null,images/tutalien3,null,images/tutalien3,images/t.png,NA,practice,null,NA,NA,NA,NA,sub66
d3-animate-choice,29,158900,0.0-29.0,FALSE,FALSE,FALSE,TRUE,"""event"",""trial"",""time""
""blur"",""3"",""4425""
""focus"",""3"",""10642""
""fullscreenenter"",""5"",""17152""
","""event"",""trial"",""time""
""blur"",""3"",""4425""
","""event"",""trial"",""time""
""focus"",""3"",""10642""
","""event"",""trial"",""time""
""fullscreenenter"",""5"",""17152""
","
",390.83499999833293,NA,49,NA,NA,3000,1,NA,NA,images/tutyellowplanet.jpg,null,images/tutalien3,null,images/tutalien3,images/t.png,NA,practice,null,NA,NA,NA,NA,sub66
d3-instructions,30,166195,0.0-30.0,FALSE,FALSE,FALSE,TRUE,"""event"",""trial"",""time""
""blur"",""3"",""4425""
""focus"",""3"",""10642""
""fullscreenenter"",""5"",""17152""
","""event"",""trial"",""time""
""blur"",""3"",""4425""
","""event"",""trial"",""time""
""focus"",""3"",""10642""
","""event"",""trial"",""time""
""fullscreenenter"",""5"",""17152""
","
",NA,NA,NA,NA,NA,NA,NA,NA,NA,NA,NA,NA,NA,NA,NA,NA,NA,NA,NA,NA,NA,NA,sub66
d3-instructions,31,177683,0.0-31.0,FALSE,FALSE,FALSE,TRUE,"""event"",""trial"",""time""
""blur"",""3"",""4425""
""focus"",""3"",""10642""
""fullscreenenter"",""5"",""17152""
","""event"",""trial"",""time""
""blur"",""3"",""4425""
","""event"",""trial"",""time""
""focus"",""3"",""10642""
","""event"",""trial"",""time""
""fullscreenenter"",""5"",""17152""
","
",NA,NA,NA,NA,NA,NA,NA,NA,NA,NA,NA,NA,NA,NA,NA,NA,NA,NA,NA,NA,NA,NA,sub66
d3-instructions,32,185762,0.0-32.0,FALSE,FALSE,FALSE,TRUE,"""event"",""trial"",""time""
""blur"",""3"",""4425""
""focus"",""3"",""10642""
""fullscreenenter"",""5"",""17152""
","""event"",""trial"",""time""
""blur"",""3"",""4425""
","""event"",""trial"",""time""
""focus"",""3"",""10642""
","""event"",""trial"",""time""
""fullscreenenter"",""5"",""17152""
","
",NA,NA,NA,NA,NA,NA,NA,NA,NA,NA,NA,NA,NA,NA,NA,NA,NA,NA,NA,NA,NA,NA,sub66
d3-instructions,33,197392,0.0-33.0,FALSE,FALSE,FALSE,TRUE,"""event"",""trial"",""time""
""blur"",""3"",""4425""
""focus"",""3"",""10642""
""fullscreenenter"",""5"",""17152""
","""event"",""trial"",""time""
""blur"",""3"",""4425""
","""event"",""trial"",""time""
""focus"",""3"",""10642""
","""event"",""trial"",""time""
""fullscreenenter"",""5"",""17152""
","
",NA,NA,NA,NA,NA,NA,NA,NA,NA,NA,NA,NA,NA,NA,NA,NA,NA,NA,NA,NA,NA,NA,sub66
d3-animate-choice,34,200890,0.0-34.0,FALSE,FALSE,FALSE,TRUE,"""event"",""trial"",""time""
""blur"",""3"",""4425""
""focus"",""3"",""10642""
""fullscreenenter"",""5"",""17152""
","""event"",""trial"",""time""
""blur"",""3"",""4425""
","""event"",""trial"",""time""
""focus"",""3"",""10642""
","""event"",""trial"",""time""
""fullscreenenter"",""5"",""17152""
","
",1493.5399999958463,NA,49,NA,NA,3000,1,2908.964999995078,49,images/tutgreenplanet.jpg,images/tutalien1,images/tutalien2,null,images/tutalien2,images/t.png,NA,practice,null,NA,NA,NA,NA,sub66
d3-animate-choice,35,203186,0.0-35.0,FALSE,FALSE,FALSE,TRUE,"""event"",""trial"",""time""
""blur"",""3"",""4425""
""focus"",""3"",""10642""
""fullscreenenter"",""5"",""17152""
","""event"",""trial"",""time""
""blur"",""3"",""4425""
","""event"",""trial"",""time""
""focus"",""3"",""10642""
","""event"",""trial"",""time""
""fullscreenenter"",""5"",""17152""
","
",290.3200000000652,NA,49,NA,NA,3000,1,NA,NA,images/tutgreenplanet.jpg,images/tutalien1,images/tutalien2,null,images/tutalien2,images/t.png,NA,practice,null,NA,NA,NA,NA,sub66
d3-animate-choice,36,205497,0.0-36.0,FALSE,FALSE,FALSE,TRUE,"""event"",""trial"",""time""
""blur"",""3"",""4425""
""focus"",""3"",""10642""
""fullscreenenter"",""5"",""17152""
","""event"",""trial"",""time""
""blur"",""3"",""4425""
","""event"",""trial"",""time""
""focus"",""3"",""10642""
","""event"",""trial"",""time""
""fullscreenenter"",""5"",""17152""
","
",306.93500000052154,NA,49,NA,NA,3000,1,NA,NA,images/tutgreenplanet.jpg,images/tutalien1,images/tutalien2,null,images/tutalien2,images/t.png,NA,practice,null,NA,NA,NA,NA,sub66
d3-animate-choice,37,207807,0.0-37.0,FALSE,FALSE,FALSE,TRUE,"""event"",""trial"",""time""
""blur"",""3"",""4425""
""focus"",""3"",""10642""
""fullscreenenter"",""5"",""17152""
","""event"",""trial"",""time""
""blur"",""3"",""4425""
","""event"",""trial"",""time""
""focus"",""3"",""10642""
","""event"",""trial"",""time""
""fullscreenenter"",""5"",""17152""
","
",305.06500000774395,NA,49,NA,NA,3000,1,NA,NA,images/tutgreenplanet.jpg,images/tutalien1,images/tutalien2,null,images/tutalien2,images/t.png,NA,practice,null,NA,NA,NA,NA,sub66
d3-animate-choice,38,210112,0.0-38.0,FALSE,FALSE,FALSE,TRUE,"""event"",""trial"",""time""
""blur"",""3"",""4425""
""focus"",""3"",""10642""
""fullscreenenter"",""5"",""17152""
","""event"",""trial"",""time""
""blur"",""3"",""4425""
","""event"",""trial"",""time""
""focus"",""3"",""10642""
","""event"",""trial"",""time""
""fullscreenenter"",""5"",""17152""
","
",299.43500000808854,NA,49,NA,NA,3000,1,NA,NA,images/tutgreenplanet.jpg,images/tutalien1,images/tutalien2,null,images/tutalien2,images/t.png,NA,practice,null,NA,NA,NA,NA,sub66
d3-animate-choice,39,212401,0.0-39.0,FALSE,FALSE,FALSE,TRUE,"""event"",""trial"",""time""
""blur"",""3"",""4425""
""focus"",""3"",""10642""
""fullscreenenter"",""5"",""17152""
","""event"",""trial"",""time""
""blur"",""3"",""4425""
","""event"",""trial"",""time""
""focus"",""3"",""10642""
","""event"",""trial"",""time""
""fullscreenenter"",""5"",""17152""
","
",282.6050000003306,NA,49,NA,NA,3000,1,NA,NA,images/tutgreenplanet.jpg,images/tutalien1,images/tutalien2,null,images/tutalien2,images/t.png,NA,practice,null,NA,NA,NA,NA,sub66
d3-animate-choice,40,214630,0.0-40.0,FALSE,FALSE,FALSE,TRUE,"""event"",""trial"",""time""
""blur"",""3"",""4425""
""focus"",""3"",""10642""
""fullscreenenter"",""5"",""17152""
","""event"",""trial"",""time""
""blur"",""3"",""4425""
","""event"",""trial"",""time""
""focus"",""3"",""10642""
","""event"",""trial"",""time""
""fullscreenenter"",""5"",""17152""
","
",224.37499999068677,NA,49,NA,NA,3000,1,NA,NA,images/tutgreenplanet.jpg,images/tutalien1,images/tutalien2,null,images/tutalien2,images/t.png,NA,practice,null,NA,NA,NA,NA,sub66
d3-animate-choice,41,217022,0.0-41.0,FALSE,FALSE,FALSE,TRUE,"""event"",""trial"",""time""
""blur"",""3"",""4425""
""focus"",""3"",""10642""
""fullscreenenter"",""5"",""17152""
","""event"",""trial"",""time""
""blur"",""3"",""4425""
","""event"",""trial"",""time""
""focus"",""3"",""10642""
","""event"",""trial"",""time""
""fullscreenenter"",""5"",""17152""
","
",387.0499999902677,NA,49,NA,NA,3000,1,NA,NA,images/tutgreenplanet.jpg,images/tutalien1,images/tutalien2,null,images/tutalien2,images/t.png,NA,practice,null,NA,NA,NA,NA,sub66
d3-animate-choice,42,219338,0.0-42.0,FALSE,FALSE,FALSE,TRUE,"""event"",""trial"",""time""
""blur"",""3"",""4425""
""focus"",""3"",""10642""
""fullscreenenter"",""5"",""17152""
","""event"",""trial"",""time""
""blur"",""3"",""4425""
","""event"",""trial"",""time""
""focus"",""3"",""10642""
","""event"",""trial"",""time""
""fullscreenenter"",""5"",""17152""
","
",311.0900000028778,NA,49,NA,NA,3000,1,NA,NA,images/tutgreenplanet.jpg,images/tutalien1,images/tutalien2,null,images/tutalien2,images/t.png,NA,practice,null,NA,NA,NA,NA,sub66
d3-animate-choice,43,221642,0.0-43.0,FALSE,FALSE,FALSE,TRUE,"""event"",""trial"",""time""
""blur"",""3"",""4425""
""focus"",""3"",""10642""
""fullscreenenter"",""5"",""17152""
","""event"",""trial"",""time""
""blur"",""3"",""4425""
","""event"",""trial"",""time""
""focus"",""3"",""10642""
","""event"",""trial"",""time""
""fullscreenenter"",""5"",""17152""
","
",298.8150000019232,NA,49,NA,NA,3000,1,NA,NA,images/tutgreenplanet.jpg,images/tutalien1,images/tutalien2,null,images/tutalien2,images/t.png,NA,practice,null,NA,NA,NA,NA,sub66
d3-instructions,44,235815,0.0-44.0,FALSE,FALSE,FALSE,TRUE,"""event"",""trial"",""time""
""blur"",""3"",""4425""
""focus"",""3"",""10642""
""fullscreenenter"",""5"",""17152""
","""event"",""trial"",""time""
""blur"",""3"",""4425""
","""event"",""trial"",""time""
""focus"",""3"",""10642""
","""event"",""trial"",""time""
""fullscreenenter"",""5"",""17152""
","
",NA,NA,NA,NA,NA,NA,NA,NA,NA,NA,NA,NA,NA,NA,NA,NA,NA,NA,NA,NA,NA,NA,sub66
d3-instructions,45,241725,0.0-45.0,FALSE,FALSE,FALSE,TRUE,"""event"",""trial"",""time""
""blur"",""3"",""4425""
""focus"",""3"",""10642""
""fullscreenenter"",""5"",""17152""
","""event"",""trial"",""time""
""blur"",""3"",""4425""
","""event"",""trial"",""time""
""focus"",""3"",""10642""
","""event"",""trial"",""time""
""fullscreenenter"",""5"",""17152""
","
",NA,NA,NA,NA,NA,NA,NA,NA,NA,NA,NA,NA,NA,NA,NA,NA,NA,NA,NA,NA,NA,NA,sub66
d3-instructions,46,247478,0.0-46.0,FALSE,FALSE,FALSE,TRUE,"""event"",""trial"",""time""
""blur"",""3"",""4425""
""focus"",""3"",""10642""
""fullscreenenter"",""5"",""17152""
","""event"",""trial"",""time""
""blur"",""3"",""4425""
","""event"",""trial"",""time""
""focus"",""3"",""10642""
","""event"",""trial"",""time""
""fullscreenenter"",""5"",""17152""
","
",NA,NA,NA,NA,NA,NA,NA,NA,NA,NA,NA,NA,NA,NA,NA,NA,NA,NA,NA,NA,NA,NA,sub66
d3-instructions,47,270047,0.0-47.0,FALSE,FALSE,FALSE,TRUE,"""event"",""trial"",""time""
""blur"",""3"",""4425""
""focus"",""3"",""10642""
""fullscreenenter"",""5"",""17152""
","""event"",""trial"",""time""
""blur"",""3"",""4425""
","""event"",""trial"",""time""
""focus"",""3"",""10642""
","""event"",""trial"",""time""
""fullscreenenter"",""5"",""17152""
","
",NA,NA,NA,NA,NA,NA,NA,NA,NA,NA,NA,NA,NA,NA,NA,NA,NA,NA,NA,NA,NA,NA,sub66
d3-instructions,48,276427,0.0-48.0,FALSE,FALSE,FALSE,TRUE,"""event"",""trial"",""time""
""blur"",""3"",""4425""
""focus"",""3"",""10642""
""fullscreenenter"",""5"",""17152""
","""event"",""trial"",""time""
""blur"",""3"",""4425""
","""event"",""trial"",""time""
""focus"",""3"",""10642""
","""event"",""trial"",""time""
""fullscreenenter"",""5"",""17152""
","
",NA,NA,NA,NA,NA,NA,NA,NA,NA,NA,NA,NA,NA,NA,NA,NA,NA,NA,NA,NA,NA,NA,sub66
d3-instructions,49,287069,0.0-49.0,FALSE,FALSE,FALSE,TRUE,"""event"",""trial"",""time""
""blur"",""3"",""4425""
""focus"",""3"",""10642""
""fullscreenenter"",""5"",""17152""
","""event"",""trial"",""time""
""blur"",""3"",""4425""
","""event"",""trial"",""time""
""focus"",""3"",""10642""
","""event"",""trial"",""time""
""fullscreenenter"",""5"",""17152""
","
",NA,NA,NA,NA,NA,NA,NA,NA,NA,NA,NA,NA,NA,NA,NA,NA,NA,NA,NA,NA,NA,NA,sub66
d3-instructions,50,295285,0.0-50.0,FALSE,FALSE,FALSE,TRUE,"""event"",""trial"",""time""
""blur"",""3"",""4425""
""focus"",""3"",""10642""
""fullscreenenter"",""5"",""17152""
","""event"",""trial"",""time""
""blur"",""3"",""4425""
","""event"",""trial"",""time""
""focus"",""3"",""10642""
","""event"",""trial"",""time""
""fullscreenenter"",""5"",""17152""
","
",NA,NA,NA,NA,NA,NA,NA,NA,NA,NA,NA,NA,NA,NA,NA,NA,NA,NA,NA,NA,NA,NA,sub66
d3-instructions,51,297620,0.0-51.0,FALSE,FALSE,FALSE,TRUE,"""event"",""trial"",""time""
""blur"",""3"",""4425""
""focus"",""3"",""10642""
""fullscreenenter"",""5"",""17152""
","""event"",""trial"",""time""
""blur"",""3"",""4425""
","""event"",""trial"",""time""
""focus"",""3"",""10642""
","""event"",""trial"",""time""
""fullscreenenter"",""5"",""17152""
","
",NA,NA,NA,NA,NA,NA,NA,NA,NA,NA,NA,NA,NA,NA,NA,NA,NA,NA,NA,NA,NA,NA,sub66
d3-instructions,52,299968,0.0-52.0,FALSE,FALSE,FALSE,TRUE,"""event"",""trial"",""time""
""blur"",""3"",""4425""
""focus"",""3"",""10642""
""fullscreenenter"",""5"",""17152""
","""event"",""trial"",""time""
""blur"",""3"",""4425""
","""event"",""trial"",""time""
""focus"",""3"",""10642""
","""event"",""trial"",""time""
""fullscreenenter"",""5"",""17152""
","
",NA,NA,NA,NA,NA,NA,NA,NA,NA,NA,NA,NA,NA,NA,NA,NA,NA,NA,NA,NA,NA,NA,sub66
d3-instructions,53,311461,0.0-53.0,FALSE,FALSE,FALSE,TRUE,"""event"",""trial"",""time""
""blur"",""3"",""4425""
""focus"",""3"",""10642""
""fullscreenenter"",""5"",""17152""
","""event"",""trial"",""time""
""blur"",""3"",""4425""
","""event"",""trial"",""time""
""focus"",""3"",""10642""
","""event"",""trial"",""time""
""fullscreenenter"",""5"",""17152""
","
",NA,NA,NA,NA,NA,NA,NA,NA,NA,NA,NA,NA,NA,NA,NA,NA,NA,NA,NA,NA,NA,NA,sub66
d3-instructions,54,324369,0.0-54.0,FALSE,FALSE,FALSE,TRUE,"""event"",""trial"",""time""
""blur"",""3"",""4425""
""focus"",""3"",""10642""
""fullscreenenter"",""5"",""17152""
","""event"",""trial"",""time""
""blur"",""3"",""4425""
","""event"",""trial"",""time""
""focus"",""3"",""10642""
","""event"",""trial"",""time""
""fullscreenenter"",""5"",""17152""
","
",NA,NA,NA,NA,NA,NA,NA,NA,NA,NA,NA,NA,NA,NA,NA,NA,NA,NA,NA,NA,NA,NA,sub66
d3-instructions,55,334650,0.0-55.0,FALSE,FALSE,FALSE,TRUE,"""event"",""trial"",""time""
""blur"",""3"",""4425""
""focus"",""3"",""10642""
""fullscreenenter"",""5"",""17152""
","""event"",""trial"",""time""
""blur"",""3"",""4425""
","""event"",""trial"",""time""
""focus"",""3"",""10642""
","""event"",""trial"",""time""
""fullscreenenter"",""5"",""17152""
","
",NA,NA,NA,NA,NA,NA,NA,NA,NA,NA,NA,NA,NA,NA,NA,NA,NA,NA,NA,NA,NA,NA,sub66
d3-instructions,56,342533,0.0-56.0,FALSE,FALSE,FALSE,TRUE,"""event"",""trial"",""time""
""blur"",""3"",""4425""
""focus"",""3"",""10642""
""fullscreenenter"",""5"",""17152""
","""event"",""trial"",""time""
""blur"",""3"",""4425""
","""event"",""trial"",""time""
""focus"",""3"",""10642""
","""event"",""trial"",""time""
""fullscreenenter"",""5"",""17152""
","
",NA,NA,NA,NA,NA,NA,NA,NA,NA,NA,NA,NA,NA,NA,NA,NA,NA,NA,NA,NA,NA,NA,sub66
d3-instructions,57,353431,0.0-57.0,FALSE,FALSE,FALSE,TRUE,"""event"",""trial"",""time""
""blur"",""3"",""4425""
""focus"",""3"",""10642""
""fullscreenenter"",""5"",""17152""
","""event"",""trial"",""time""
""blur"",""3"",""4425""
","""event"",""trial"",""time""
""focus"",""3"",""10642""
","""event"",""trial"",""time""
""fullscreenenter"",""5"",""17152""
","
",NA,NA,NA,NA,NA,NA,NA,NA,NA,NA,NA,NA,NA,NA,NA,NA,NA,NA,NA,NA,NA,NA,sub66
d3-instructions,58,365238,0.0-58.0,FALSE,FALSE,FALSE,TRUE,"""event"",""trial"",""time""
""blur"",""3"",""4425""
""focus"",""3"",""10642""
""fullscreenenter"",""5"",""17152""
","""event"",""trial"",""time""
""blur"",""3"",""4425""
","""event"",""trial"",""time""
""focus"",""3"",""10642""
","""event"",""trial"",""time""
""fullscreenenter"",""5"",""17152""
","
",NA,NA,NA,NA,NA,NA,NA,NA,NA,NA,NA,NA,NA,NA,NA,NA,NA,NA,NA,NA,NA,NA,sub66
d3-instructions,59,370027,0.0-59.0,FALSE,FALSE,FALSE,TRUE,"""event"",""trial"",""time""
""blur"",""3"",""4425""
""focus"",""3"",""10642""
""fullscreenenter"",""5"",""17152""
","""event"",""trial"",""time""
""blur"",""3"",""4425""
","""event"",""trial"",""time""
""focus"",""3"",""10642""
","""event"",""trial"",""time""
""fullscreenenter"",""5"",""17152""
","
",NA,NA,NA,NA,NA,NA,NA,NA,NA,NA,NA,NA,NA,NA,NA,NA,NA,NA,NA,NA,NA,NA,sub66
d3-instructions,60,377639,0.0-60.0,FALSE,FALSE,FALSE,TRUE,"""event"",""trial"",""time""
""blur"",""3"",""4425""
""focus"",""3"",""10642""
""fullscreenenter"",""5"",""17152""
","""event"",""trial"",""time""
""blur"",""3"",""4425""
","""event"",""trial"",""time""
""focus"",""3"",""10642""
","""event"",""trial"",""time""
""fullscreenenter"",""5"",""17152""
","
",NA,NA,NA,NA,NA,NA,NA,NA,NA,NA,NA,NA,NA,NA,NA,NA,NA,NA,NA,NA,NA,NA,sub66
d3-animate-choice,61,380751,0.0-61.0-0.0,FALSE,FALSE,FALSE,TRUE,"""event"",""trial"",""time""
""blur"",""3"",""4425""
""focus"",""3"",""10642""
""fullscreenenter"",""5"",""17152""
","""event"",""trial"",""time""
""blur"",""3"",""4425""
","""event"",""trial"",""time""
""focus"",""3"",""10642""
","""event"",""trial"",""time""
""fullscreenenter"",""5"",""17152""
","
",1103.9600000076462,NA,49,NA,NA,3000,1,NA,NA,images/earth.jpg,images/tutrocket1,images/tutrocket2,null,images/tutrocket2,NA,1,practice,null,1,NA,NA,NA,sub66
d3-animate-choice,62,384121,0.0-61.0-1.0,FALSE,FALSE,FALSE,TRUE,"""event"",""trial"",""time""
""blur"",""3"",""4425""
""focus"",""3"",""10642""
""fullscreenenter"",""5"",""17152""
","""event"",""trial"",""time""
""blur"",""3"",""4425""
","""event"",""trial"",""time""
""focus"",""3"",""10642""
","""event"",""trial"",""time""
""fullscreenenter"",""5"",""17152""
","
",1360.079999998561,NA,49,NA,NA,3000,1,NA,NA,images/tutyellowplanet.jpg,images/tutalien4,images/tutalien3,images/tutrocket2,images/tutalien3,images/nothing.png,2,practice,false,1,rare,0,2020-06-16T17:47:06Z,sub66
two-step-fixation,63,385128,0.0-61.0-2.0,FALSE,FALSE,FALSE,TRUE,"""event"",""trial"",""time""
""blur"",""3"",""4425""
""focus"",""3"",""10642""
""fullscreenenter"",""5"",""17152""
","""event"",""trial"",""time""
""blur"",""3"",""4425""
","""event"",""trial"",""time""
""focus"",""3"",""10642""
","""event"",""trial"",""time""
""fullscreenenter"",""5"",""17152""
","
",NA,images/earth.jpg,NA,NA,NA,NA,NA,NA,NA,NA,NA,NA,NA,NA,NA,fixation,NA,NA,NA,NA,NA,NA,sub66
d3-animate-choice,64,388670,0.0-61.0-0.1,FALSE,FALSE,FALSE,TRUE,"""event"",""trial"",""time""
""blur"",""3"",""4425""
""focus"",""3"",""10642""
""fullscreenenter"",""5"",""17152""
","""event"",""trial"",""time""
""blur"",""3"",""4425""
","""event"",""trial"",""time""
""focus"",""3"",""10642""
","""event"",""trial"",""time""
""fullscreenenter"",""5"",""17152""
","
",1536.9250000076136,NA,49,NA,NA,3000,1,NA,NA,images/earth.jpg,images/tutrocket1,images/tutrocket2,null,images/tutrocket2,NA,1,practice,null,1,NA,NA,NA,sub66
d3-animate-choice,65,391641,0.0-61.0-1.1,FALSE,FALSE,FALSE,TRUE,"""event"",""trial"",""time""
""blur"",""3"",""4425""
""focus"",""3"",""10642""
""fullscreenenter"",""5"",""17152""
","""event"",""trial"",""time""
""blur"",""3"",""4425""
","""event"",""trial"",""time""
""focus"",""3"",""10642""
","""event"",""trial"",""time""
""fullscreenenter"",""5"",""17152""
","
",965.8950000011828,NA,48,NA,NA,3000,1,NA,NA,images/tutgreenplanet.jpg,images/tutalien2,images/tutalien1,images/tutrocket2,images/tutalien2,images/nothing.png,2,practice,true,2,common,0,2020-06-16T17:47:13Z,sub66
two-step-fixation,66,392648,0.0-61.0-2.1,FALSE,FALSE,FALSE,TRUE,"""event"",""trial"",""time""
""blur"",""3"",""4425""
""focus"",""3"",""10642""
""fullscreenenter"",""5"",""17152""
","""event"",""trial"",""time""
""blur"",""3"",""4425""
","""event"",""trial"",""time""
""focus"",""3"",""10642""
","""event"",""trial"",""time""
""fullscreenenter"",""5"",""17152""
","
",NA,images/earth.jpg,NA,NA,NA,NA,NA,NA,NA,NA,NA,NA,NA,NA,NA,fixation,NA,NA,NA,NA,NA,NA,sub66
d3-animate-choice,67,396653,0.0-61.0-0.2,FALSE,FALSE,FALSE,TRUE,"""event"",""trial"",""time""
""blur"",""3"",""4425""
""focus"",""3"",""10642""
""fullscreenenter"",""5"",""17152""
","""event"",""trial"",""time""
""blur"",""3"",""4425""
","""event"",""trial"",""time""
""focus"",""3"",""10642""
","""event"",""trial"",""time""
""fullscreenenter"",""5"",""17152""
","
",1487.71499999566,NA,50,NA,NA,3000,1,2717.5549999956274,48,images/earth.jpg,images/tutrocket1,images/tutrocket2,null,images/tutrocket1,NA,1,practice,null,NA,NA,NA,NA,sub66
d3-animate-choice,68,399744,0.0-61.0-1.2,FALSE,FALSE,FALSE,TRUE,"""event"",""trial"",""time""
""blur"",""3"",""4425""
""focus"",""3"",""10642""
""fullscreenenter"",""5"",""17152""
","""event"",""trial"",""time""
""blur"",""3"",""4425""
","""event"",""trial"",""time""
""focus"",""3"",""10642""
","""event"",""trial"",""time""
""fullscreenenter"",""5"",""17152""
","
",1083.4450000111246,NA,49,NA,NA,3000,1,NA,NA,images/tutgreenplanet.jpg,images/tutalien2,images/tutalien1,images/tutrocket1,images/tutalien1,images/nothing.png,2,practice,false,1,rare,0,2020-06-16T17:47:21Z,sub66
two-step-fixation,69,400750,0.0-61.0-2.2,FALSE,FALSE,FALSE,TRUE,"""event"",""trial"",""time""
""blur"",""3"",""4425""
""focus"",""3"",""10642""
""fullscreenenter"",""5"",""17152""
","""event"",""trial"",""time""
""blur"",""3"",""4425""
","""event"",""trial"",""time""
""focus"",""3"",""10642""
","""event"",""trial"",""time""
""fullscreenenter"",""5"",""17152""
","
",NA,images/earth.jpg,NA,NA,NA,NA,NA,NA,NA,NA,NA,NA,NA,NA,NA,fixation,NA,NA,NA,NA,NA,NA,sub66
d3-animate-choice,70,402902,0.0-61.0-0.3,FALSE,FALSE,FALSE,TRUE,"""event"",""trial"",""time""
""blur"",""3"",""4425""
""focus"",""3"",""10642""
""fullscreenenter"",""5"",""17152""
","""event"",""trial"",""time""
""blur"",""3"",""4425""
","""event"",""trial"",""time""
""focus"",""3"",""10642""
","""event"",""trial"",""time""
""fullscreenenter"",""5"",""17152""
","
",145.73000000382308,NA,48,NA,NA,3000,1,NA,NA,images/earth.jpg,images/tutrocket1,images/tutrocket2,null,images/tutrocket1,NA,1,practice,null,2,NA,NA,NA,sub66
d3-animate-choice,71,405405,0.0-61.0-1.3,FALSE,FALSE,FALSE,TRUE,"""event"",""trial"",""time""
""blur"",""3"",""4425""
""focus"",""3"",""10642""
""fullscreenenter"",""5"",""17152""
","""event"",""trial"",""time""
""blur"",""3"",""4425""
","""event"",""trial"",""time""
""focus"",""3"",""10642""
","""event"",""trial"",""time""
""fullscreenenter"",""5"",""17152""
","
",496.3550000102259,NA,48,NA,NA,3000,1,NA,NA,images/tutyellowplanet.jpg,images/tutalien4,images/tutalien3,images/tutrocket1,images/tutalien4,images/t.png,2,practice,true,2,common,1,2020-06-16T17:47:27Z,sub66
two-step-fixation,72,406408,0.0-61.0-2.3,FALSE,FALSE,FALSE,TRUE,"""event"",""trial"",""time""
""blur"",""3"",""4425""
""focus"",""3"",""10642""
""fullscreenenter"",""5"",""17152""
","""event"",""trial"",""time""
""blur"",""3"",""4425""
","""event"",""trial"",""time""
""focus"",""3"",""10642""
","""event"",""trial"",""time""
""fullscreenenter"",""5"",""17152""
","
",NA,images/earth.jpg,NA,NA,NA,NA,NA,NA,NA,NA,NA,NA,NA,NA,NA,fixation,NA,NA,NA,NA,NA,NA,sub66
d3-animate-choice,73,409942,0.0-61.0-0.4,FALSE,FALSE,FALSE,TRUE,"""event"",""trial"",""time""
""blur"",""3"",""4425""
""focus"",""3"",""10642""
""fullscreenenter"",""5"",""17152""
","""event"",""trial"",""time""
""blur"",""3"",""4425""
","""event"",""trial"",""time""
""focus"",""3"",""10642""
","""event"",""trial"",""time""
""fullscreenenter"",""5"",""17152""
","
",1530.3449999919394,NA,49,NA,NA,3000,1,NA,NA,images/earth.jpg,images/tutrocket1,images/tutrocket2,null,images/tutrocket2,NA,1,practice,null,1,NA,NA,NA,sub66
d3-animate-choice,74,412557,0.0-61.0-1.4,FALSE,FALSE,FALSE,TRUE,"""event"",""trial"",""time""
""blur"",""3"",""4425""
""focus"",""3"",""10642""
""fullscreenenter"",""5"",""17152""
","""event"",""trial"",""time""
""blur"",""3"",""4425""
","""event"",""trial"",""time""
""focus"",""3"",""10642""
","""event"",""trial"",""time""
""fullscreenenter"",""5"",""17152""
","
",609.2599999974482,NA,49,NA,NA,3000,1,NA,NA,images/tutgreenplanet.jpg,images/tutalien2,images/tutalien1,images/tutrocket2,images/tutalien1,images/nothing.png,2,practice,true,1,common,0,2020-06-16T17:47:34Z,sub66
two-step-fixation,75,413563,0.0-61.0-2.4,FALSE,FALSE,FALSE,TRUE,"""event"",""trial"",""time""
""blur"",""3"",""4425""
""focus"",""3"",""10642""
""fullscreenenter"",""5"",""17152""
","""event"",""trial"",""time""
""blur"",""3"",""4425""
","""event"",""trial"",""time""
""focus"",""3"",""10642""
","""event"",""trial"",""time""
""fullscreenenter"",""5"",""17152""
","
",NA,images/earth.jpg,NA,NA,NA,NA,NA,NA,NA,NA,NA,NA,NA,NA,NA,fixation,NA,NA,NA,NA,NA,NA,sub66
d3-animate-choice,76,416265,0.0-61.0-0.5,FALSE,FALSE,FALSE,TRUE,"""event"",""trial"",""time""
""blur"",""3"",""4425""
""focus"",""3"",""10642""
""fullscreenenter"",""5"",""17152""
","""event"",""trial"",""time""
""blur"",""3"",""4425""
","""event"",""trial"",""time""
""focus"",""3"",""10642""
","""event"",""trial"",""time""
""fullscreenenter"",""5"",""17152""
","
",696.5449999988778,NA,48,NA,NA,3000,1,NA,NA,images/earth.jpg,images/tutrocket1,images/tutrocket2,null,images/tutrocket1,NA,1,practice,null,2,NA,NA,NA,sub66
d3-animate-choice,77,418615,0.0-61.0-1.5,FALSE,FALSE,FALSE,TRUE,"""event"",""trial"",""time""
""blur"",""3"",""4425""
""focus"",""3"",""10642""
""fullscreenenter"",""5"",""17152""
","""event"",""trial"",""time""
""blur"",""3"",""4425""
","""event"",""trial"",""time""
""focus"",""3"",""10642""
","""event"",""trial"",""time""
""fullscreenenter"",""5"",""17152""
","
",344.21999999904074,NA,48,NA,NA,3000,1,NA,NA,images/tutyellowplanet.jpg,images/tutalien4,images/tutalien3,images/tutrocket1,images/tutalien4,images/nothing.png,2,practice,true,2,common,0,2020-06-16T17:47:40Z,sub66
two-step-fixation,78,419621,0.0-61.0-2.5,FALSE,FALSE,FALSE,TRUE,"""event"",""trial"",""time""
""blur"",""3"",""4425""
""focus"",""3"",""10642""
""fullscreenenter"",""5"",""17152""
","""event"",""trial"",""time""
""blur"",""3"",""4425""
","""event"",""trial"",""time""
""focus"",""3"",""10642""
","""event"",""trial"",""time""
""fullscreenenter"",""5"",""17152""
","
",NA,images/earth.jpg,NA,NA,NA,NA,NA,NA,NA,NA,NA,NA,NA,NA,NA,fixation,NA,NA,NA,NA,NA,NA,sub66
d3-animate-choice,79,421899,0.0-61.0-0.6,FALSE,FALSE,FALSE,TRUE,"""event"",""trial"",""time""
""blur"",""3"",""4425""
""focus"",""3"",""10642""
""fullscreenenter"",""5"",""17152""
","""event"",""trial"",""time""
""blur"",""3"",""4425""
","""event"",""trial"",""time""
""focus"",""3"",""10642""
","""event"",""trial"",""time""
""fullscreenenter"",""5"",""17152""
","
",271.8999999924563,NA,48,NA,NA,3000,1,NA,NA,images/earth.jpg,images/tutrocket1,images/tutrocket2,null,images/tutrocket1,NA,1,practice,null,2,NA,NA,NA,sub66
d3-animate-choice,80,424236,0.0-61.0-1.6,FALSE,FALSE,FALSE,TRUE,"""event"",""trial"",""time""
""blur"",""3"",""4425""
""focus"",""3"",""10642""
""fullscreenenter"",""5"",""17152""
","""event"",""trial"",""time""
""blur"",""3"",""4425""
","""event"",""trial"",""time""
""focus"",""3"",""10642""
","""event"",""trial"",""time""
""fullscreenenter"",""5"",""17152""
","
",331.4899999968475,NA,48,NA,NA,3000,1,NA,NA,images/tutyellowplanet.jpg,images/tutalien4,images/tutalien3,images/tutrocket1,images/tutalien4,images/t.png,2,practice,true,2,common,1,2020-06-16T17:47:46Z,sub66
two-step-fixation,81,425243,0.0-61.0-2.6,FALSE,FALSE,FALSE,TRUE,"""event"",""trial"",""time""
""blur"",""3"",""4425""
""focus"",""3"",""10642""
""fullscreenenter"",""5"",""17152""
","""event"",""trial"",""time""
""blur"",""3"",""4425""
","""event"",""trial"",""time""
""focus"",""3"",""10642""
","""event"",""trial"",""time""
""fullscreenenter"",""5"",""17152""
","
",NA,images/earth.jpg,NA,NA,NA,NA,NA,NA,NA,NA,NA,NA,NA,NA,NA,fixation,NA,NA,NA,NA,NA,NA,sub66
d3-animate-choice,82,427555,0.0-61.0-0.7,FALSE,FALSE,FALSE,TRUE,"""event"",""trial"",""time""
""blur"",""3"",""4425""
""focus"",""3"",""10642""
""fullscreenenter"",""5"",""17152""
","""event"",""trial"",""time""
""blur"",""3"",""4425""
","""event"",""trial"",""time""
""focus"",""3"",""10642""
","""event"",""trial"",""time""
""fullscreenenter"",""5"",""17152""
","
",306.9850000028964,NA,48,NA,NA,3000,1,NA,NA,images/earth.jpg,images/tutrocket1,images/tutrocket2,null,images/tutrocket1,NA,1,practice,null,2,NA,NA,NA,sub66
d3-animate-choice,83,429979,0.0-61.0-1.7,FALSE,FALSE,FALSE,TRUE,"""event"",""trial"",""time""
""blur"",""3"",""4425""
""focus"",""3"",""10642""
""fullscreenenter"",""5"",""17152""
","""event"",""trial"",""time""
""blur"",""3"",""4425""
","""event"",""trial"",""time""
""focus"",""3"",""10642""
","""event"",""trial"",""time""
""fullscreenenter"",""5"",""17152""
","
",417.4150000035297,NA,48,NA,NA,3000,1,NA,NA,images/tutgreenplanet.jpg,images/tutalien2,images/tutalien1,images/tutrocket1,images/tutalien2,images/nothing.png,2,practice,false,2,rare,0,2020-06-16T17:47:52Z,sub66
two-step-fixation,84,430984,0.0-61.0-2.7,FALSE,FALSE,FALSE,TRUE,"""event"",""trial"",""time""
""blur"",""3"",""4425""
""focus"",""3"",""10642""
""fullscreenenter"",""5"",""17152""
","""event"",""trial"",""time""
""blur"",""3"",""4425""
","""event"",""trial"",""time""
""focus"",""3"",""10642""
","""event"",""trial"",""time""
""fullscreenenter"",""5"",""17152""
","
",NA,images/earth.jpg,NA,NA,NA,NA,NA,NA,NA,NA,NA,NA,NA,NA,NA,fixation,NA,NA,NA,NA,NA,NA,sub66
d3-animate-choice,85,433498,0.0-61.0-0.8,FALSE,FALSE,FALSE,TRUE,"""event"",""trial"",""time""
""blur"",""3"",""4425""
""focus"",""3"",""10642""
""fullscreenenter"",""5"",""17152""
","""event"",""trial"",""time""
""blur"",""3"",""4425""
","""event"",""trial"",""time""
""focus"",""3"",""10642""
","""event"",""trial"",""time""
""fullscreenenter"",""5"",""17152""
","
",510.72999999450985,NA,48,NA,NA,3000,1,NA,NA,images/earth.jpg,images/tutrocket1,images/tutrocket2,null,images/tutrocket1,NA,1,practice,null,2,NA,NA,NA,sub66
d3-animate-choice,86,436457,0.0-61.0-1.8,FALSE,FALSE,FALSE,TRUE,"""event"",""trial"",""time""
""blur"",""3"",""4425""
""focus"",""3"",""10642""
""fullscreenenter"",""5"",""17152""
","""event"",""trial"",""time""
""blur"",""3"",""4425""
","""event"",""trial"",""time""
""focus"",""3"",""10642""
","""event"",""trial"",""time""
""fullscreenenter"",""5"",""17152""
","
",952.5100000028033,NA,48,NA,NA,3000,1,NA,NA,images/tutyellowplanet.jpg,images/tutalien4,images/tutalien3,images/tutrocket1,images/tutalien4,images/nothing.png,2,practice,true,2,common,0,2020-06-16T17:47:58Z,sub66
two-step-fixation,87,437460,0.0-61.0-2.8,FALSE,FALSE,FALSE,TRUE,"""event"",""trial"",""time""
""blur"",""3"",""4425""
""focus"",""3"",""10642""
""fullscreenenter"",""5"",""17152""
","""event"",""trial"",""time""
""blur"",""3"",""4425""
","""event"",""trial"",""time""
""focus"",""3"",""10642""
","""event"",""trial"",""time""
""fullscreenenter"",""5"",""17152""
","
",NA,images/earth.jpg,NA,NA,NA,NA,NA,NA,NA,NA,NA,NA,NA,NA,NA,fixation,NA,NA,NA,NA,NA,NA,sub66
d3-animate-choice,88,439785,0.0-61.0-0.9,FALSE,FALSE,FALSE,TRUE,"""event"",""trial"",""time""
""blur"",""3"",""4425""
""focus"",""3"",""10642""
""fullscreenenter"",""5"",""17152""
","""event"",""trial"",""time""
""blur"",""3"",""4425""
","""event"",""trial"",""time""
""focus"",""3"",""10642""
","""event"",""trial"",""time""
""fullscreenenter"",""5"",""17152""
","
",318.9649999985704,NA,48,NA,NA,3000,1,NA,NA,images/earth.jpg,images/tutrocket1,images/tutrocket2,null,images/tutrocket1,NA,1,practice,null,2,NA,NA,NA,sub66
d3-animate-choice,89,442686,0.0-61.0-1.9,FALSE,FALSE,FALSE,TRUE,"""event"",""trial"",""time""
""blur"",""3"",""4425""
""focus"",""3"",""10642""
""fullscreenenter"",""5"",""17152""
","""event"",""trial"",""time""
""blur"",""3"",""4425""
","""event"",""trial"",""time""
""focus"",""3"",""10642""
","""event"",""trial"",""time""
""fullscreenenter"",""5"",""17152""
","
",895.9800000011455,NA,49,NA,NA,3000,1,NA,NA,images/tutgreenplanet.jpg,images/tutalien2,images/tutalien1,images/tutrocket1,images/tutalien1,images/nothing.png,2,practice,false,1,rare,0,2020-06-16T17:48:04Z,sub66
two-step-fixation,90,443692,0.0-61.0-2.9,FALSE,FALSE,FALSE,TRUE,"""event"",""trial"",""time""
""blur"",""3"",""4425""
""focus"",""3"",""10642""
""fullscreenenter"",""5"",""17152""
","""event"",""trial"",""time""
""blur"",""3"",""4425""
","""event"",""trial"",""time""
""focus"",""3"",""10642""
","""event"",""trial"",""time""
""fullscreenenter"",""5"",""17152""
","
",NA,images/earth.jpg,NA,NA,NA,NA,NA,NA,NA,NA,NA,NA,NA,NA,NA,fixation,NA,NA,NA,NA,NA,NA,sub66
d3-animate-choice,91,445735,0.0-61.0-0.10,FALSE,FALSE,FALSE,TRUE,"""event"",""trial"",""time""
""blur"",""3"",""4425""
""focus"",""3"",""10642""
""fullscreenenter"",""5"",""17152""
","""event"",""trial"",""time""
""blur"",""3"",""4425""
","""event"",""trial"",""time""
""focus"",""3"",""10642""
","""event"",""trial"",""time""
""fullscreenenter"",""5"",""17152""
","
",37.4149999988731,NA,48,NA,NA,3000,1,NA,NA,images/earth.jpg,images/tutrocket1,images/tutrocket2,null,images/tutrocket1,NA,1,practice,null,2,NA,NA,NA,sub66
d3-animate-choice,92,448215,0.0-61.0-1.10,FALSE,FALSE,FALSE,TRUE,"""event"",""trial"",""time""
""blur"",""3"",""4425""
""focus"",""3"",""10642""
""fullscreenenter"",""5"",""17152""
","""event"",""trial"",""time""
""blur"",""3"",""4425""
","""event"",""trial"",""time""
""focus"",""3"",""10642""
","""event"",""trial"",""time""
""fullscreenenter"",""5"",""17152""
","
",475.08500001276843,NA,49,NA,NA,3000,1,NA,NA,images/tutyellowplanet.jpg,images/tutalien4,images/tutalien3,images/tutrocket1,images/tutalien3,images/nothing.png,2,practice,true,1,common,0,2020-06-16T17:48:10Z,sub66
two-step-fixation,93,449221,0.0-61.0-2.10,FALSE,FALSE,FALSE,TRUE,"""event"",""trial"",""time""
""blur"",""3"",""4425""
""focus"",""3"",""10642""
""fullscreenenter"",""5"",""17152""
","""event"",""trial"",""time""
""blur"",""3"",""4425""
","""event"",""trial"",""time""
""focus"",""3"",""10642""
","""event"",""trial"",""time""
""fullscreenenter"",""5"",""17152""
","
",NA,images/earth.jpg,NA,NA,NA,NA,NA,NA,NA,NA,NA,NA,NA,NA,NA,fixation,NA,NA,NA,NA,NA,NA,sub66
d3-animate-choice,94,451556,0.0-61.0-0.11,FALSE,FALSE,FALSE,TRUE,"""event"",""trial"",""time""
""blur"",""3"",""4425""
""focus"",""3"",""10642""
""fullscreenenter"",""5"",""17152""
","""event"",""trial"",""time""
""blur"",""3"",""4425""
","""event"",""trial"",""time""
""focus"",""3"",""10642""
","""event"",""trial"",""time""
""fullscreenenter"",""5"",""17152""
","
",331.4600000012433,NA,48,NA,NA,3000,1,NA,NA,images/earth.jpg,images/tutrocket1,images/tutrocket2,null,images/tutrocket1,NA,1,practice,null,2,NA,NA,NA,sub66
d3-animate-choice,95,454053,0.0-61.0-1.11,FALSE,FALSE,FALSE,TRUE,"""event"",""trial"",""time""
""blur"",""3"",""4425""
""focus"",""3"",""10642""
""fullscreenenter"",""5"",""17152""
","""event"",""trial"",""time""
""blur"",""3"",""4425""
","""event"",""trial"",""time""
""focus"",""3"",""10642""
","""event"",""trial"",""time""
""fullscreenenter"",""5"",""17152""
","
",491.65500000526663,NA,48,NA,NA,3000,1,NA,NA,images/tutyellowplanet.jpg,images/tutalien4,images/tutalien3,images/tutrocket1,images/tutalien4,images/nothing.png,2,practice,true,2,common,0,2020-06-16T17:48:16Z,sub66
two-step-fixation,96,455060,0.0-61.0-2.11,FALSE,FALSE,FALSE,TRUE,"""event"",""trial"",""time""
""blur"",""3"",""4425""
""focus"",""3"",""10642""
""fullscreenenter"",""5"",""17152""
","""event"",""trial"",""time""
""blur"",""3"",""4425""
","""event"",""trial"",""time""
""focus"",""3"",""10642""
","""event"",""trial"",""time""
""fullscreenenter"",""5"",""17152""
","
",NA,images/earth.jpg,NA,NA,NA,NA,NA,NA,NA,NA,NA,NA,NA,NA,NA,fixation,NA,NA,NA,NA,NA,NA,sub66
d3-animate-choice,97,458393,0.0-61.0-0.12,FALSE,FALSE,FALSE,TRUE,"""event"",""trial"",""time""
""blur"",""3"",""4425""
""focus"",""3"",""10642""
""fullscreenenter"",""5"",""17152""
","""event"",""trial"",""time""
""blur"",""3"",""4425""
","""event"",""trial"",""time""
""focus"",""3"",""10642""
","""event"",""trial"",""time""
""fullscreenenter"",""5"",""17152""
","
",1326.9000000000233,NA,49,NA,NA,3000,1,NA,NA,images/earth.jpg,images/tutrocket1,images/tutrocket2,null,images/tutrocket2,NA,1,practice,null,1,NA,NA,NA,sub66
d3-animate-choice,98,461344,0.0-61.0-1.12,FALSE,FALSE,FALSE,TRUE,"""event"",""trial"",""time""
""blur"",""3"",""4425""
""focus"",""3"",""10642""
""fullscreenenter"",""5"",""17152""
","""event"",""trial"",""time""
""blur"",""3"",""4425""
","""event"",""trial"",""time""
""focus"",""3"",""10642""
","""event"",""trial"",""time""
""fullscreenenter"",""5"",""17152""
","
",945.3450000000885,NA,48,NA,NA,3000,1,NA,NA,images/tutyellowplanet.jpg,images/tutalien4,images/tutalien3,images/tutrocket2,images/tutalien4,images/nothing.png,2,practice,false,2,rare,0,2020-06-16T17:48:23Z,sub66
two-step-fixation,99,462349,0.0-61.0-2.12,FALSE,FALSE,FALSE,TRUE,"""event"",""trial"",""time""
""blur"",""3"",""4425""
""focus"",""3"",""10642""
""fullscreenenter"",""5"",""17152""
","""event"",""trial"",""time""
""blur"",""3"",""4425""
","""event"",""trial"",""time""
""focus"",""3"",""10642""
","""event"",""trial"",""time""
""fullscreenenter"",""5"",""17152""
","
",NA,images/earth.jpg,NA,NA,NA,NA,NA,NA,NA,NA,NA,NA,NA,NA,NA,fixation,NA,NA,NA,NA,NA,NA,sub66
d3-animate-choice,100,465283,0.0-61.0-0.13,FALSE,FALSE,FALSE,TRUE,"""event"",""trial"",""time""
""blur"",""3"",""4425""
""focus"",""3"",""10642""
""fullscreenenter"",""5"",""17152""
","""event"",""trial"",""time""
""blur"",""3"",""4425""
","""event"",""trial"",""time""
""focus"",""3"",""10642""
","""event"",""trial"",""time""
""fullscreenenter"",""5"",""17152""
","
",928.090000001248,NA,48,NA,NA,3000,1,NA,NA,images/earth.jpg,images/tutrocket1,images/tutrocket2,null,images/tutrocket1,NA,1,practice,null,2,NA,NA,NA,sub66
d3-animate-choice,101,467922,0.0-61.0-1.13,FALSE,FALSE,FALSE,TRUE,"""event"",""trial"",""time""
""blur"",""3"",""4425""
""focus"",""3"",""10642""
""fullscreenenter"",""5"",""17152""
","""event"",""trial"",""time""
""blur"",""3"",""4425""
","""event"",""trial"",""time""
""focus"",""3"",""10642""
","""event"",""trial"",""time""
""fullscreenenter"",""5"",""17152""
","
",633.5300000064308,NA,48,NA,NA,3000,1,NA,NA,images/tutyellowplanet.jpg,images/tutalien4,images/tutalien3,images/tutrocket1,images/tutalien4,images/nothing.png,2,practice,true,2,common,0,2020-06-16T17:48:30Z,sub66
two-step-fixation,102,468929,0.0-61.0-2.13,FALSE,FALSE,FALSE,TRUE,"""event"",""trial"",""time""
""blur"",""3"",""4425""
""focus"",""3"",""10642""
""fullscreenenter"",""5"",""17152""
","""event"",""trial"",""time""
""blur"",""3"",""4425""
","""event"",""trial"",""time""
""focus"",""3"",""10642""
","""event"",""trial"",""time""
""fullscreenenter"",""5"",""17152""
","
",NA,images/earth.jpg,NA,NA,NA,NA,NA,NA,NA,NA,NA,NA,NA,NA,NA,fixation,NA,NA,NA,NA,NA,NA,sub66
d3-animate-choice,103,471809,0.0-61.0-0.14,FALSE,FALSE,FALSE,TRUE,"""event"",""trial"",""time""
""blur"",""3"",""4425""
""focus"",""3"",""10642""
""fullscreenenter"",""5"",""17152""
","""event"",""trial"",""time""
""blur"",""3"",""4425""
","""event"",""trial"",""time""
""focus"",""3"",""10642""
","""event"",""trial"",""time""
""fullscreenenter"",""5"",""17152""
","
",870.5600000103004,NA,49,NA,NA,3000,1,NA,NA,images/earth.jpg,images/tutrocket1,images/tutrocket2,null,images/tutrocket2,NA,1,practice,null,1,NA,NA,NA,sub66
d3-animate-choice,104,474962,0.0-61.0-1.14,FALSE,FALSE,FALSE,TRUE,"""event"",""trial"",""time""
""blur"",""3"",""4425""
""focus"",""3"",""10642""
""fullscreenenter"",""5"",""17152""
","""event"",""trial"",""time""
""blur"",""3"",""4425""
","""event"",""trial"",""time""
""focus"",""3"",""10642""
","""event"",""trial"",""time""
""fullscreenenter"",""5"",""17152""
","
",1150.179999996908,NA,49,NA,NA,3000,1,NA,NA,images/tutyellowplanet.jpg,images/tutalien4,images/tutalien3,images/tutrocket2,images/tutalien3,images/nothing.png,2,practice,false,1,rare,0,2020-06-16T17:48:37Z,sub66
two-step-fixation,105,475968,0.0-61.0-2.14,FALSE,FALSE,FALSE,TRUE,"""event"",""trial"",""time""
""blur"",""3"",""4425""
""focus"",""3"",""10642""
""fullscreenenter"",""5"",""17152""
","""event"",""trial"",""time""
""blur"",""3"",""4425""
","""event"",""trial"",""time""
""focus"",""3"",""10642""
","""event"",""trial"",""time""
""fullscreenenter"",""5"",""17152""
","
",NA,images/earth.jpg,NA,NA,NA,NA,NA,NA,NA,NA,NA,NA,NA,NA,NA,fixation,NA,NA,NA,NA,NA,NA,sub66
d3-animate-choice,106,478326,0.0-61.0-0.15,FALSE,FALSE,FALSE,TRUE,"""event"",""trial"",""time""
""blur"",""3"",""4425""
""focus"",""3"",""10642""
""fullscreenenter"",""5"",""17152""
","""event"",""trial"",""time""
""blur"",""3"",""4425""
","""event"",""trial"",""time""
""focus"",""3"",""10642""
","""event"",""trial"",""time""
""fullscreenenter"",""5"",""17152""
","
",352.2999999986496,NA,49,NA,NA,3000,1,NA,NA,images/earth.jpg,images/tutrocket1,images/tutrocket2,null,images/tutrocket2,NA,1,practice,null,1,NA,NA,NA,sub66
d3-animate-choice,107,481917,0.0-61.0-1.15,FALSE,FALSE,FALSE,TRUE,"""event"",""trial"",""time""
""blur"",""3"",""4425""
""focus"",""3"",""10642""
""fullscreenenter"",""5"",""17152""
","""event"",""trial"",""time""
""blur"",""3"",""4425""
","""event"",""trial"",""time""
""focus"",""3"",""10642""
","""event"",""trial"",""time""
""fullscreenenter"",""5"",""17152""
","
",1585.5200000078185,NA,48,NA,NA,3000,1,NA,NA,images/tutgreenplanet.jpg,images/tutalien2,images/tutalien1,images/tutrocket2,images/tutalien2,images/nothing.png,2,practice,true,2,common,0,2020-06-16T17:48:44Z,sub66
two-step-fixation,108,482923,0.0-61.0-2.15,FALSE,FALSE,FALSE,TRUE,"""event"",""trial"",""time""
""blur"",""3"",""4425""
""focus"",""3"",""10642""
""fullscreenenter"",""5"",""17152""
","""event"",""trial"",""time""
""blur"",""3"",""4425""
","""event"",""trial"",""time""
""focus"",""3"",""10642""
","""event"",""trial"",""time""
""fullscreenenter"",""5"",""17152""
","
",NA,images/earth.jpg,NA,NA,NA,NA,NA,NA,NA,NA,NA,NA,NA,NA,NA,fixation,NA,NA,NA,NA,NA,NA,sub66
d3-animate-choice,109,485219,0.0-61.0-0.16,FALSE,FALSE,FALSE,TRUE,"""event"",""trial"",""time""
""blur"",""3"",""4425""
""focus"",""3"",""10642""
""fullscreenenter"",""5"",""17152""
","""event"",""trial"",""time""
""blur"",""3"",""4425""
","""event"",""trial"",""time""
""focus"",""3"",""10642""
","""event"",""trial"",""time""
""fullscreenenter"",""5"",""17152""
","
",289.375000007567,NA,49,NA,NA,3000,1,NA,NA,images/earth.jpg,images/tutrocket1,images/tutrocket2,null,images/tutrocket2,NA,1,practice,null,1,NA,NA,NA,sub66
d3-animate-choice,110,487586,0.0-61.0-1.16,FALSE,FALSE,FALSE,TRUE,"""event"",""trial"",""time""
""blur"",""3"",""4425""
""focus"",""3"",""10642""
""fullscreenenter"",""5"",""17152""
","""event"",""trial"",""time""
""blur"",""3"",""4425""
","""event"",""trial"",""time""
""focus"",""3"",""10642""
","""event"",""trial"",""time""
""fullscreenenter"",""5"",""17152""
","
",362.1100000018487,NA,49,NA,NA,3000,1,NA,NA,images/tutgreenplanet.jpg,images/tutalien2,images/tutalien1,images/tutrocket2,images/tutalien1,images/t.png,2,practice,true,1,common,1,2020-06-16T17:48:49Z,sub66
two-step-fixation,111,488592,0.0-61.0-2.16,FALSE,FALSE,FALSE,TRUE,"""event"",""trial"",""time""
""blur"",""3"",""4425""
""focus"",""3"",""10642""
""fullscreenenter"",""5"",""17152""
","""event"",""trial"",""time""
""blur"",""3"",""4425""
","""event"",""trial"",""time""
""focus"",""3"",""10642""
","""event"",""trial"",""time""
""fullscreenenter"",""5"",""17152""
","
",NA,images/earth.jpg,NA,NA,NA,NA,NA,NA,NA,NA,NA,NA,NA,NA,NA,fixation,NA,NA,NA,NA,NA,NA,sub66
d3-animate-choice,112,490752,0.0-61.0-0.17,FALSE,FALSE,FALSE,TRUE,"""event"",""trial"",""time""
""blur"",""3"",""4425""
""focus"",""3"",""10642""
""fullscreenenter"",""5"",""17152""
","""event"",""trial"",""time""
""blur"",""3"",""4425""
","""event"",""trial"",""time""
""focus"",""3"",""10642""
","""event"",""trial"",""time""
""fullscreenenter"",""5"",""17152""
","
",153.68000000307802,NA,49,NA,NA,3000,1,NA,NA,images/earth.jpg,images/tutrocket1,images/tutrocket2,null,images/tutrocket2,NA,1,practice,null,1,NA,NA,NA,sub66
d3-animate-choice,113,493136,0.0-61.0-1.17,FALSE,FALSE,FALSE,TRUE,"""event"",""trial"",""time""
""blur"",""3"",""4425""
""focus"",""3"",""10642""
""fullscreenenter"",""5"",""17152""
","""event"",""trial"",""time""
""blur"",""3"",""4425""
","""event"",""trial"",""time""
""focus"",""3"",""10642""
","""event"",""trial"",""time""
""fullscreenenter"",""5"",""17152""
","
",378.4499999892432,NA,49,NA,NA,3000,1,NA,NA,images/tutgreenplanet.jpg,images/tutalien2,images/tutalien1,images/tutrocket2,images/tutalien1,images/nothing.png,2,practice,true,1,common,0,2020-06-16T17:48:55Z,sub66
two-step-fixation,114,494141,0.0-61.0-2.17,FALSE,FALSE,FALSE,TRUE,"""event"",""trial"",""time""
""blur"",""3"",""4425""
""focus"",""3"",""10642""
""fullscreenenter"",""5"",""17152""
","""event"",""trial"",""time""
""blur"",""3"",""4425""
","""event"",""trial"",""time""
""focus"",""3"",""10642""
","""event"",""trial"",""time""
""fullscreenenter"",""5"",""17152""
","
",NA,images/earth.jpg,NA,NA,NA,NA,NA,NA,NA,NA,NA,NA,NA,NA,NA,fixation,NA,NA,NA,NA,NA,NA,sub66
d3-animate-choice,115,496427,0.0-61.0-0.18,FALSE,FALSE,FALSE,TRUE,"""event"",""trial"",""time""
""blur"",""3"",""4425""
""focus"",""3"",""10642""
""fullscreenenter"",""5"",""17152""
","""event"",""trial"",""time""
""blur"",""3"",""4425""
","""event"",""trial"",""time""
""focus"",""3"",""10642""
","""event"",""trial"",""time""
""fullscreenenter"",""5"",""17152""
","
",280.83000000333413,NA,48,NA,NA,3000,1,NA,NA,images/earth.jpg,images/tutrocket1,images/tutrocket2,null,images/tutrocket1,NA,1,practice,null,2,NA,NA,NA,sub66
d3-animate-choice,116,499137,0.0-61.0-1.18,FALSE,FALSE,FALSE,TRUE,"""event"",""trial"",""time""
""blur"",""3"",""4425""
""focus"",""3"",""10642""
""fullscreenenter"",""5"",""17152""
","""event"",""trial"",""time""
""blur"",""3"",""4425""
","""event"",""trial"",""time""
""focus"",""3"",""10642""
","""event"",""trial"",""time""
""fullscreenenter"",""5"",""17152""
","
",703.8699999975506,NA,49,NA,NA,3000,1,NA,NA,images/tutgreenplanet.jpg,images/tutalien2,images/tutalien1,images/tutrocket1,images/tutalien1,images/nothing.png,2,practice,false,1,rare,0,2020-06-16T17:49:01Z,sub66
two-step-fixation,117,500144,0.0-61.0-2.18,FALSE,FALSE,FALSE,TRUE,"""event"",""trial"",""time""
""blur"",""3"",""4425""
""focus"",""3"",""10642""
""fullscreenenter"",""5"",""17152""
","""event"",""trial"",""time""
""blur"",""3"",""4425""
","""event"",""trial"",""time""
""focus"",""3"",""10642""
","""event"",""trial"",""time""
""fullscreenenter"",""5"",""17152""
","
",NA,images/earth.jpg,NA,NA,NA,NA,NA,NA,NA,NA,NA,NA,NA,NA,NA,fixation,NA,NA,NA,NA,NA,NA,sub66
d3-animate-choice,118,502512,0.0-61.0-0.19,FALSE,FALSE,FALSE,TRUE,"""event"",""trial"",""time""
""blur"",""3"",""4425""
""focus"",""3"",""10642""
""fullscreenenter"",""5"",""17152""
","""event"",""trial"",""time""
""blur"",""3"",""4425""
","""event"",""trial"",""time""
""focus"",""3"",""10642""
","""event"",""trial"",""time""
""fullscreenenter"",""5"",""17152""
","
",362.99499998858664,NA,48,NA,NA,3000,1,NA,NA,images/earth.jpg,images/tutrocket1,images/tutrocket2,null,images/tutrocket1,NA,1,practice,null,2,NA,NA,NA,sub66
d3-animate-choice,119,505808,0.0-61.0-1.19,FALSE,FALSE,FALSE,TRUE,"""event"",""trial"",""time""
""blur"",""3"",""4425""
""focus"",""3"",""10642""
""fullscreenenter"",""5"",""17152""
","""event"",""trial"",""time""
""blur"",""3"",""4425""
","""event"",""trial"",""time""
""focus"",""3"",""10642""
","""event"",""trial"",""time""
""fullscreenenter"",""5"",""17152""
","
",464.78000000934117,NA,50,NA,NA,3000,1,1290.1899999997113,48,images/tutyellowplanet.jpg,images/tutalien4,images/tutalien3,images/tutrocket1,images/tutalien4,images/nothing.png,2,practice,true,NA,common,0,2020-06-16T17:49:08Z,sub66
two-step-fixation,120,506813,0.0-61.0-2.19,FALSE,FALSE,FALSE,TRUE,"""event"",""trial"",""time""
""blur"",""3"",""4425""
""focus"",""3"",""10642""
""fullscreenenter"",""5"",""17152""
","""event"",""trial"",""time""
""blur"",""3"",""4425""
","""event"",""trial"",""time""
""focus"",""3"",""10642""
","""event"",""trial"",""time""
""fullscreenenter"",""5"",""17152""
","
",NA,images/earth.jpg,NA,NA,NA,NA,NA,NA,NA,NA,NA,NA,NA,NA,NA,fixation,NA,NA,NA,NA,NA,NA,sub66
d3-instructions,121,514113,0.0-62.0,FALSE,FALSE,FALSE,TRUE,"""event"",""trial"",""time""
""blur"",""3"",""4425""
""focus"",""3"",""10642""
""fullscreenenter"",""5"",""17152""
","""event"",""trial"",""time""
""blur"",""3"",""4425""
","""event"",""trial"",""time""
""focus"",""3"",""10642""
","""event"",""trial"",""time""
""fullscreenenter"",""5"",""17152""
","
",NA,NA,NA,NA,NA,NA,NA,NA,NA,NA,NA,NA,NA,NA,NA,NA,NA,NA,NA,NA,NA,NA,sub66
audio-keyboard-response,122,518646,0.0-63.0,FALSE,FALSE,FALSE,TRUE,"""event"",""trial"",""time""
""blur"",""3"",""4425""
""focus"",""3"",""10642""
""fullscreenenter"",""5"",""17152""
","""event"",""trial"",""time""
""blur"",""3"",""4425""
","""event"",""trial"",""time""
""focus"",""3"",""10642""
","""event"",""trial"",""time""
""fullscreenenter"",""5"",""17152""
","
",4531,audio/instructions/treasure_feedback.wav,32,NA,NA,NA,NA,NA,NA,NA,NA,NA,NA,NA,NA,NA,NA,NA,NA,NA,NA,NA,sub66
d3-instructions,123,537518,0.0-64.0,FALSE,FALSE,FALSE,TRUE,"""event"",""trial"",""time""
""blur"",""3"",""4425""
""focus"",""3"",""10642""
""fullscreenenter"",""5"",""17152""
","""event"",""trial"",""time""
""blur"",""3"",""4425""
","""event"",""trial"",""time""
""focus"",""3"",""10642""
","""event"",""trial"",""time""
""fullscreenenter"",""5"",""17152""
","
",NA,NA,NA,NA,NA,NA,NA,NA,NA,NA,NA,NA,NA,NA,NA,NA,NA,NA,NA,NA,NA,NA,sub66
d3-instructions,124,551762,0.0-65.0,FALSE,FALSE,FALSE,TRUE,"""event"",""trial"",""time""
""blur"",""3"",""4425""
""focus"",""3"",""10642""
""fullscreenenter"",""5"",""17152""
","""event"",""trial"",""time""
""blur"",""3"",""4425""
","""event"",""trial"",""time""
""focus"",""3"",""10642""
","""event"",""trial"",""time""
""fullscreenenter"",""5"",""17152""
","
",NA,NA,NA,NA,NA,NA,NA,NA,NA,NA,NA,NA,NA,NA,NA,NA,NA,NA,NA,NA,NA,NA,sub66
d3-instructions,125,576552,0.0-66.0,FALSE,FALSE,FALSE,TRUE,"""event"",""trial"",""time""
""blur"",""3"",""4425""
""focus"",""3"",""10642""
""fullscreenenter"",""5"",""17152""
","""event"",""trial"",""time""
""blur"",""3"",""4425""
","""event"",""trial"",""time""
""focus"",""3"",""10642""
","""event"",""trial"",""time""
""fullscreenenter"",""5"",""17152""
","
",NA,NA,NA,NA,NA,NA,NA,NA,NA,NA,NA,NA,NA,NA,NA,NA,NA,NA,NA,NA,NA,NA,sub66
d3-instructions,126,592731,0.0-67.0,FALSE,FALSE,FALSE,TRUE,"""event"",""trial"",""time""
""blur"",""3"",""4425""
""focus"",""3"",""10642""
""fullscreenenter"",""5"",""17152""
","""event"",""trial"",""time""
""blur"",""3"",""4425""
","""event"",""trial"",""time""
""focus"",""3"",""10642""
","""event"",""trial"",""time""
""fullscreenenter"",""5"",""17152""
","
",NA,NA,NA,NA,NA,NA,NA,NA,NA,NA,NA,NA,NA,NA,NA,NA,NA,NA,NA,NA,NA,NA,sub66
d3-instructions,127,601437,0.0-68.0,FALSE,FALSE,FALSE,TRUE,"""event"",""trial"",""time""
""blur"",""3"",""4425""
""focus"",""3"",""10642""
""fullscreenenter"",""5"",""17152""
","""event"",""trial"",""time""
""blur"",""3"",""4425""
","""event"",""trial"",""time""
""focus"",""3"",""10642""
","""event"",""trial"",""time""
""fullscreenenter"",""5"",""17152""
","
",NA,NA,NA,NA,NA,NA,NA,NA,NA,NA,NA,NA,NA,NA,NA,NA,NA,NA,NA,NA,NA,NA,sub66
instructions-quiz,128,605919,0.0-69.0,FALSE,FALSE,FALSE,TRUE,"""event"",""trial"",""time""
""blur"",""3"",""4425""
""focus"",""3"",""10642""
""fullscreenenter"",""5"",""17152""
","""event"",""trial"",""time""
""blur"",""3"",""4425""
","""event"",""trial"",""time""
""focus"",""3"",""10642""
","""event"",""trial"",""time""
""fullscreenenter"",""5"",""17152""
","
",4479.755000007572,audio/quiz/Q1_Prompt.wav,NA,1,NA,NA,NA,NA,NA,NA,NA,NA,NA,NA,NA,NA,NA,NA,NA,NA,NA,NA,sub66
audio-keyboard-response,129,615088,0.0-70.0,FALSE,FALSE,FALSE,TRUE,"""event"",""trial"",""time""
""blur"",""3"",""4425""
""focus"",""3"",""10642""
""fullscreenenter"",""5"",""17152""
","""event"",""trial"",""time""
""blur"",""3"",""4425""
","""event"",""trial"",""time""
""focus"",""3"",""10642""
","""event"",""trial"",""time""
""fullscreenenter"",""5"",""17152""
","
",null,audio/quiz/Q1_Correct.wav,null,NA,NA,NA,NA,NA,NA,NA,NA,NA,NA,NA,NA,NA,NA,NA,NA,NA,NA,NA,sub66
instructions-quiz,130,623377,0.0-71.0,FALSE,FALSE,FALSE,TRUE,"""event"",""trial"",""time""
""blur"",""3"",""4425""
""focus"",""3"",""10642""
""fullscreenenter"",""5"",""17152""
","""event"",""trial"",""time""
""blur"",""3"",""4425""
","""event"",""trial"",""time""
""focus"",""3"",""10642""
","""event"",""trial"",""time""
""fullscreenenter"",""5"",""17152""
","
",8285.459999999148,audio/quiz/Q2_Prompt.wav,NA,0,NA,NA,NA,NA,NA,NA,NA,NA,NA,NA,NA,NA,NA,NA,NA,NA,NA,NA,sub66
audio-keyboard-response,131,636247,0.0-72.0,FALSE,FALSE,FALSE,TRUE,"""event"",""trial"",""time""
""blur"",""3"",""4425""
""focus"",""3"",""10642""
""fullscreenenter"",""5"",""17152""
","""event"",""trial"",""time""
""blur"",""3"",""4425""
","""event"",""trial"",""time""
""focus"",""3"",""10642""
","""event"",""trial"",""time""
""fullscreenenter"",""5"",""17152""
","
",null,audio/quiz/Q2_Correct.wav,null,NA,NA,NA,NA,NA,NA,NA,NA,NA,NA,NA,NA,NA,NA,NA,NA,NA,NA,NA,sub66
instructions-quiz,132,638350,0.0-73.0,FALSE,FALSE,FALSE,TRUE,"""event"",""trial"",""time""
""blur"",""3"",""4425""
""focus"",""3"",""10642""
""fullscreenenter"",""5"",""17152""
","""event"",""trial"",""time""
""blur"",""3"",""4425""
","""event"",""trial"",""time""
""focus"",""3"",""10642""
","""event"",""trial"",""time""
""fullscreenenter"",""5"",""17152""
","
",2100.0850000127684,audio/quiz/Q3_Prompt.wav,NA,1,NA,NA,NA,NA,NA,NA,NA,NA,NA,NA,NA,NA,NA,NA,NA,NA,NA,NA,sub66
audio-keyboard-response,133,644147,0.0-74.0,FALSE,FALSE,FALSE,TRUE,"""event"",""trial"",""time""
""blur"",""3"",""4425""
""focus"",""3"",""10642""
""fullscreenenter"",""5"",""17152""
","""event"",""trial"",""time""
""blur"",""3"",""4425""
","""event"",""trial"",""time""
""focus"",""3"",""10642""
","""event"",""trial"",""time""
""fullscreenenter"",""5"",""17152""
","
",null,audio/quiz/Q3_Correct.wav,null,NA,NA,NA,NA,NA,NA,NA,NA,NA,NA,NA,NA,NA,NA,NA,NA,NA,NA,NA,sub66
d3-instructions,134,658073,0.0-75.0,FALSE,FALSE,FALSE,TRUE,"""event"",""trial"",""time""
""blur"",""3"",""4425""
""focus"",""3"",""10642""
""fullscreenenter"",""5"",""17152""
","""event"",""trial"",""time""
""blur"",""3"",""4425""
","""event"",""trial"",""time""
""focus"",""3"",""10642""
","""event"",""trial"",""time""
""fullscreenenter"",""5"",""17152""
","
",NA,NA,NA,NA,NA,NA,NA,NA,NA,NA,NA,NA,NA,NA,NA,NA,NA,NA,NA,NA,NA,NA,sub66
d3-animate-choice,135,661773,0.0-76.0-0.0,FALSE,FALSE,FALSE,TRUE,"""event"",""trial"",""time""
""blur"",""3"",""4425""
""focus"",""3"",""10642""
""fullscreenenter"",""5"",""17152""
","""event"",""trial"",""time""
""blur"",""3"",""4425""
","""event"",""trial"",""time""
""focus"",""3"",""10642""
","""event"",""trial"",""time""
""fullscreenenter"",""5"",""17152""
","
",1691.6849999979604,NA,49,NA,NA,3000,1,NA,NA,images/earth.jpg,images/rocket1,images/rocket2,null,images/rocket2,NA,1,real,null,1,NA,NA,NA,sub66
d3-animate-choice,136,664586,0.0-76.0-1.0,FALSE,FALSE,FALSE,TRUE,"""event"",""trial"",""time""
""blur"",""3"",""4425""
""focus"",""3"",""10642""
""fullscreenenter"",""5"",""17152""
","""event"",""trial"",""time""
""blur"",""3"",""4425""
","""event"",""trial"",""time""
""focus"",""3"",""10642""
","""event"",""trial"",""time""
""fullscreenenter"",""5"",""17152""
","
",809.7750000015367,NA,49,NA,NA,3000,1,NA,NA,images/redplanet1.jpg,images/alien2,images/alien1,images/rocket2,images/alien1,images/nothing.png,2,real,true,1,common,0,2020-06-16T17:51:46Z,sub66
two-step-fixation,137,665592,0.0-76.0-2.0,FALSE,FALSE,FALSE,TRUE,"""event"",""trial"",""time""
""blur"",""3"",""4425""
""focus"",""3"",""10642""
""fullscreenenter"",""5"",""17152""
","""event"",""trial"",""time""
""blur"",""3"",""4425""
","""event"",""trial"",""time""
""focus"",""3"",""10642""
","""event"",""trial"",""time""
""fullscreenenter"",""5"",""17152""
","
",NA,images/earth.jpg,NA,NA,NA,NA,NA,NA,NA,NA,NA,NA,NA,NA,NA,fixation,NA,NA,NA,NA,NA,NA,sub66
d3-animate-choice,138,667930,0.0-76.0-0.1,FALSE,FALSE,FALSE,TRUE,"""event"",""trial"",""time""
""blur"",""3"",""4425""
""focus"",""3"",""10642""
""fullscreenenter"",""5"",""17152""
","""event"",""trial"",""time""
""blur"",""3"",""4425""
","""event"",""trial"",""time""
""focus"",""3"",""10642""
","""event"",""trial"",""time""
""fullscreenenter"",""5"",""17152""
","
",332.5650000042515,NA,49,NA,NA,3000,1,NA,NA,images/earth.jpg,images/rocket1,images/rocket2,null,images/rocket2,NA,1,real,null,1,NA,NA,NA,sub66
d3-animate-choice,139,670664,0.0-76.0-1.1,FALSE,FALSE,FALSE,TRUE,"""event"",""trial"",""time""
""blur"",""3"",""4425""
""focus"",""3"",""10642""
""fullscreenenter"",""5"",""17152""
","""event"",""trial"",""time""
""blur"",""3"",""4425""
","""event"",""trial"",""time""
""focus"",""3"",""10642""
","""event"",""trial"",""time""
""fullscreenenter"",""5"",""17152""
","
",727.6899999997113,NA,49,NA,NA,3000,1,NA,NA,images/redplanet1.jpg,images/alien2,images/alien1,images/rocket2,images/alien1,images/t.png,2,real,true,1,common,1,2020-06-16T17:51:52Z,sub66
two-step-fixation,140,671670,0.0-76.0-2.1,FALSE,FALSE,FALSE,TRUE,"""event"",""trial"",""time""
""blur"",""3"",""4425""
""focus"",""3"",""10642""
""fullscreenenter"",""5"",""17152""
","""event"",""trial"",""time""
""blur"",""3"",""4425""
","""event"",""trial"",""time""
""focus"",""3"",""10642""
","""event"",""trial"",""time""
""fullscreenenter"",""5"",""17152""
","
",NA,images/earth.jpg,NA,NA,NA,NA,NA,NA,NA,NA,NA,NA,NA,NA,NA,fixation,NA,NA,NA,NA,NA,NA,sub66
d3-animate-choice,141,674070,0.0-76.0-0.2,FALSE,FALSE,FALSE,TRUE,"""event"",""trial"",""time""
""blur"",""3"",""4425""
""focus"",""3"",""10642""
""fullscreenenter"",""5"",""17152""
","""event"",""trial"",""time""
""blur"",""3"",""4425""
","""event"",""trial"",""time""
""focus"",""3"",""10642""
","""event"",""trial"",""time""
""fullscreenenter"",""5"",""17152""
","
",394.22499999636784,NA,49,NA,NA,3000,1,NA,NA,images/earth.jpg,images/rocket1,images/rocket2,null,images/rocket2,NA,1,real,null,1,NA,NA,NA,sub66
d3-animate-choice,142,676405,0.0-76.0-1.2,FALSE,FALSE,FALSE,TRUE,"""event"",""trial"",""time""
""blur"",""3"",""4425""
""focus"",""3"",""10642""
""fullscreenenter"",""5"",""17152""
","""event"",""trial"",""time""
""blur"",""3"",""4425""
","""event"",""trial"",""time""
""focus"",""3"",""10642""
","""event"",""trial"",""time""
""fullscreenenter"",""5"",""17152""
","
",329.2950000031851,NA,49,NA,NA,3000,1,NA,NA,images/redplanet1.jpg,images/alien2,images/alien1,images/rocket2,images/alien1,images/nothing.png,2,real,true,1,common,0,2020-06-16T17:51:58Z,sub66
two-step-fixation,143,677410,0.0-76.0-2.2,FALSE,FALSE,FALSE,TRUE,"""event"",""trial"",""time""
""blur"",""3"",""4425""
""focus"",""3"",""10642""
""fullscreenenter"",""5"",""17152""
","""event"",""trial"",""time""
""blur"",""3"",""4425""
","""event"",""trial"",""time""
""focus"",""3"",""10642""
","""event"",""trial"",""time""
""fullscreenenter"",""5"",""17152""
","
",NA,images/earth.jpg,NA,NA,NA,NA,NA,NA,NA,NA,NA,NA,NA,NA,NA,fixation,NA,NA,NA,NA,NA,NA,sub66
d3-animate-choice,144,679735,0.0-76.0-0.3,FALSE,FALSE,FALSE,TRUE,"""event"",""trial"",""time""
""blur"",""3"",""4425""
""focus"",""3"",""10642""
""fullscreenenter"",""5"",""17152""
","""event"",""trial"",""time""
""blur"",""3"",""4425""
","""event"",""trial"",""time""
""focus"",""3"",""10642""
","""event"",""trial"",""time""
""fullscreenenter"",""5"",""17152""
","
",318.93500000296626,NA,49,NA,NA,3000,1,NA,NA,images/earth.jpg,images/rocket1,images/rocket2,null,images/rocket2,NA,1,real,null,1,NA,NA,NA,sub66
d3-animate-choice,145,683123,0.0-76.0-1.3,FALSE,FALSE,FALSE,TRUE,"""event"",""trial"",""time""
""blur"",""3"",""4425""
""focus"",""3"",""10642""
""fullscreenenter"",""5"",""17152""
","""event"",""trial"",""time""
""blur"",""3"",""4425""
","""event"",""trial"",""time""
""focus"",""3"",""10642""
","""event"",""trial"",""time""
""fullscreenenter"",""5"",""17152""
","
",1383.2300000067335,NA,49,NA,NA,3000,1,NA,NA,images/purpleplanet.jpg,images/alien4,images/alien3,images/rocket2,images/alien3,images/t.png,2,real,false,1,rare,1,2020-06-16T17:52:05Z,sub66
two-step-fixation,146,684128,0.0-76.0-2.3,FALSE,FALSE,FALSE,TRUE,"""event"",""trial"",""time""
""blur"",""3"",""4425""
""focus"",""3"",""10642""
""fullscreenenter"",""5"",""17152""
","""event"",""trial"",""time""
""blur"",""3"",""4425""
","""event"",""trial"",""time""
""focus"",""3"",""10642""
","""event"",""trial"",""time""
""fullscreenenter"",""5"",""17152""
","
",NA,images/earth.jpg,NA,NA,NA,NA,NA,NA,NA,NA,NA,NA,NA,NA,NA,fixation,NA,NA,NA,NA,NA,NA,sub66
d3-animate-choice,147,686550,0.0-76.0-0.4,FALSE,FALSE,FALSE,TRUE,"""event"",""trial"",""time""
""blur"",""3"",""4425""
""focus"",""3"",""10642""
""fullscreenenter"",""5"",""17152""
","""event"",""trial"",""time""
""blur"",""3"",""4425""
","""event"",""trial"",""time""
""focus"",""3"",""10642""
","""event"",""trial"",""time""
""fullscreenenter"",""5"",""17152""
","
",415.88499999488704,NA,49,NA,NA,3000,1,NA,NA,images/earth.jpg,images/rocket1,images/rocket2,null,images/rocket2,NA,1,real,null,1,NA,NA,NA,sub66
d3-animate-choice,148,688927,0.0-76.0-1.4,FALSE,FALSE,FALSE,TRUE,"""event"",""trial"",""time""
""blur"",""3"",""4425""
""focus"",""3"",""10642""
""fullscreenenter"",""5"",""17152""
","""event"",""trial"",""time""
""blur"",""3"",""4425""
","""event"",""trial"",""time""
""focus"",""3"",""10642""
","""event"",""trial"",""time""
""fullscreenenter"",""5"",""17152""
","
",372.12499999441206,NA,48,NA,NA,3000,1,NA,NA,images/redplanet1.jpg,images/alien2,images/alien1,images/rocket2,images/alien2,images/t.png,2,real,true,2,common,1,2020-06-16T17:52:11Z,sub66
two-step-fixation,149,689935,0.0-76.0-2.4,FALSE,FALSE,FALSE,TRUE,"""event"",""trial"",""time""
""blur"",""3"",""4425""
""focus"",""3"",""10642""
""fullscreenenter"",""5"",""17152""
","""event"",""trial"",""time""
""blur"",""3"",""4425""
","""event"",""trial"",""time""
""focus"",""3"",""10642""
","""event"",""trial"",""time""
""fullscreenenter"",""5"",""17152""
","
",NA,images/earth.jpg,NA,NA,NA,NA,NA,NA,NA,NA,NA,NA,NA,NA,NA,fixation,NA,NA,NA,NA,NA,NA,sub66
d3-animate-choice,150,692248,0.0-76.0-0.5,FALSE,FALSE,FALSE,TRUE,"""event"",""trial"",""time""
""blur"",""3"",""4425""
""focus"",""3"",""10642""
""fullscreenenter"",""5"",""17152""
","""event"",""trial"",""time""
""blur"",""3"",""4425""
","""event"",""trial"",""time""
""focus"",""3"",""10642""
","""event"",""trial"",""time""
""fullscreenenter"",""5"",""17152""
","
",307.7249999914784,NA,49,NA,NA,3000,1,NA,NA,images/earth.jpg,images/rocket1,images/rocket2,null,images/rocket2,NA,1,real,null,1,NA,NA,NA,sub66
d3-animate-choice,151,694550,0.0-76.0-1.5,FALSE,FALSE,FALSE,TRUE,"""event"",""trial"",""time""
""blur"",""3"",""4425""
""focus"",""3"",""10642""
""fullscreenenter"",""5"",""17152""
","""event"",""trial"",""time""
""blur"",""3"",""4425""
","""event"",""trial"",""time""
""focus"",""3"",""10642""
","""event"",""trial"",""time""
""fullscreenenter"",""5"",""17152""
","
",295.71999999461696,NA,48,NA,NA,3000,1,NA,NA,images/redplanet1.jpg,images/alien2,images/alien1,images/rocket2,images/alien2,images/t.png,2,real,true,2,common,1,2020-06-16T17:52:16Z,sub66
two-step-fixation,152,695556,0.0-76.0-2.5,FALSE,FALSE,FALSE,TRUE,"""event"",""trial"",""time""
""blur"",""3"",""4425""
""focus"",""3"",""10642""
""fullscreenenter"",""5"",""17152""
","""event"",""trial"",""time""
""blur"",""3"",""4425""
","""event"",""trial"",""time""
""focus"",""3"",""10642""
","""event"",""trial"",""time""
""fullscreenenter"",""5"",""17152""
","
",NA,images/earth.jpg,NA,NA,NA,NA,NA,NA,NA,NA,NA,NA,NA,NA,NA,fixation,NA,NA,NA,NA,NA,NA,sub66
d3-animate-choice,153,697859,0.0-76.0-0.6,FALSE,FALSE,FALSE,TRUE,"""event"",""trial"",""time""
""blur"",""3"",""4425""
""focus"",""3"",""10642""
""fullscreenenter"",""5"",""17152""
","""event"",""trial"",""time""
""blur"",""3"",""4425""
","""event"",""trial"",""time""
""focus"",""3"",""10642""
","""event"",""trial"",""time""
""fullscreenenter"",""5"",""17152""
","
",297.60499999974854,NA,49,NA,NA,3000,1,NA,NA,images/earth.jpg,images/rocket1,images/rocket2,null,images/rocket2,NA,1,real,null,1,NA,NA,NA,sub66
d3-animate-choice,154,700249,0.0-76.0-1.6,FALSE,FALSE,FALSE,TRUE,"""event"",""trial"",""time""
""blur"",""3"",""4425""
""focus"",""3"",""10642""
""fullscreenenter"",""5"",""17152""
","""event"",""trial"",""time""
""blur"",""3"",""4425""
","""event"",""trial"",""time""
""focus"",""3"",""10642""
","""event"",""trial"",""time""
""fullscreenenter"",""5"",""17152""
","
",383.3900000026915,NA,48,NA,NA,3000,1,NA,NA,images/redplanet1.jpg,images/alien2,images/alien1,images/rocket2,images/alien2,images/t.png,2,real,true,2,common,1,2020-06-16T17:52:22Z,sub66
two-step-fixation,155,701255,0.0-76.0-2.6,FALSE,FALSE,FALSE,TRUE,"""event"",""trial"",""time""
""blur"",""3"",""4425""
""focus"",""3"",""10642""
""fullscreenenter"",""5"",""17152""
","""event"",""trial"",""time""
""blur"",""3"",""4425""
","""event"",""trial"",""time""
""focus"",""3"",""10642""
","""event"",""trial"",""time""
""fullscreenenter"",""5"",""17152""
","
",NA,images/earth.jpg,NA,NA,NA,NA,NA,NA,NA,NA,NA,NA,NA,NA,NA,fixation,NA,NA,NA,NA,NA,NA,sub66
d3-animate-choice,156,703985,0.0-76.0-0.7,FALSE,FALSE,FALSE,TRUE,"""event"",""trial"",""time""
""blur"",""3"",""4425""
""focus"",""3"",""10642""
""fullscreenenter"",""5"",""17152""
","""event"",""trial"",""time""
""blur"",""3"",""4425""
","""event"",""trial"",""time""
""focus"",""3"",""10642""
","""event"",""trial"",""time""
""fullscreenenter"",""5"",""17152""
","
",725.5250000016531,NA,49,NA,NA,3000,1,NA,NA,images/earth.jpg,images/rocket1,images/rocket2,null,images/rocket2,NA,1,real,null,1,NA,NA,NA,sub66
d3-animate-choice,157,706368,0.0-76.0-1.7,FALSE,FALSE,FALSE,TRUE,"""event"",""trial"",""time""
""blur"",""3"",""4425""
""focus"",""3"",""10642""
""fullscreenenter"",""5"",""17152""
","""event"",""trial"",""time""
""blur"",""3"",""4425""
","""event"",""trial"",""time""
""focus"",""3"",""10642""
","""event"",""trial"",""time""
""fullscreenenter"",""5"",""17152""
","
",377.87500000558794,NA,48,NA,NA,3000,1,NA,NA,images/redplanet1.jpg,images/alien2,images/alien1,images/rocket2,images/alien2,images/t.png,2,real,true,2,common,1,2020-06-16T17:52:28Z,sub66
two-step-fixation,158,707374,0.0-76.0-2.7,FALSE,FALSE,FALSE,TRUE,"""event"",""trial"",""time""
""blur"",""3"",""4425""
""focus"",""3"",""10642""
""fullscreenenter"",""5"",""17152""
","""event"",""trial"",""time""
""blur"",""3"",""4425""
","""event"",""trial"",""time""
""focus"",""3"",""10642""
","""event"",""trial"",""time""
""fullscreenenter"",""5"",""17152""
","
",NA,images/earth.jpg,NA,NA,NA,NA,NA,NA,NA,NA,NA,NA,NA,NA,NA,fixation,NA,NA,NA,NA,NA,NA,sub66
d3-animate-choice,159,709664,0.0-76.0-0.8,FALSE,FALSE,FALSE,TRUE,"""event"",""trial"",""time""
""blur"",""3"",""4425""
""focus"",""3"",""10642""
""fullscreenenter"",""5"",""17152""
","""event"",""trial"",""time""
""blur"",""3"",""4425""
","""event"",""trial"",""time""
""focus"",""3"",""10642""
","""event"",""trial"",""time""
""fullscreenenter"",""5"",""17152""
","
",284.7499999916181,NA,49,NA,NA,3000,1,NA,NA,images/earth.jpg,images/rocket1,images/rocket2,null,images/rocket2,NA,1,real,null,1,NA,NA,NA,sub66
d3-animate-choice,160,711926,0.0-76.0-1.8,FALSE,FALSE,FALSE,TRUE,"""event"",""trial"",""time""
""blur"",""3"",""4425""
""focus"",""3"",""10642""
""fullscreenenter"",""5"",""17152""
","""event"",""trial"",""time""
""blur"",""3"",""4425""
","""event"",""trial"",""time""
""focus"",""3"",""10642""
","""event"",""trial"",""time""
""fullscreenenter"",""5"",""17152""
","
",256.37500001175795,NA,48,NA,NA,3000,1,NA,NA,images/purpleplanet.jpg,images/alien4,images/alien3,images/rocket2,images/alien4,images/t.png,2,real,false,2,rare,1,2020-06-16T17:52:34Z,sub66
two-step-fixation,161,712932,0.0-76.0-2.8,FALSE,FALSE,FALSE,TRUE,"""event"",""trial"",""time""
""blur"",""3"",""4425""
""focus"",""3"",""10642""
""fullscreenenter"",""5"",""17152""
","""event"",""trial"",""time""
""blur"",""3"",""4425""
","""event"",""trial"",""time""
""focus"",""3"",""10642""
","""event"",""trial"",""time""
""fullscreenenter"",""5"",""17152""
","
",NA,images/earth.jpg,NA,NA,NA,NA,NA,NA,NA,NA,NA,NA,NA,NA,NA,fixation,NA,NA,NA,NA,NA,NA,sub66
d3-animate-choice,162,715255,0.0-76.0-0.9,FALSE,FALSE,FALSE,TRUE,"""event"",""trial"",""time""
""blur"",""3"",""4425""
""focus"",""3"",""10642""
""fullscreenenter"",""5"",""17152""
","""event"",""trial"",""time""
""blur"",""3"",""4425""
","""event"",""trial"",""time""
""focus"",""3"",""10642""
","""event"",""trial"",""time""
""fullscreenenter"",""5"",""17152""
","
",318.08000001183245,NA,49,NA,NA,3000,1,NA,NA,images/earth.jpg,images/rocket1,images/rocket2,null,images/rocket2,NA,1,real,null,1,NA,NA,NA,sub66
d3-animate-choice,163,717693,0.0-76.0-1.9,FALSE,FALSE,FALSE,TRUE,"""event"",""trial"",""time""
""blur"",""3"",""4425""
""focus"",""3"",""10642""
""fullscreenenter"",""5"",""17152""
","""event"",""trial"",""time""
""blur"",""3"",""4425""
","""event"",""trial"",""time""
""focus"",""3"",""10642""
","""event"",""trial"",""time""
""fullscreenenter"",""5"",""17152""
","
",431.95499999274034,NA,48,NA,NA,3000,1,NA,NA,images/redplanet1.jpg,images/alien2,images/alien1,images/rocket2,images/alien2,images/t.png,2,real,true,2,common,1,2020-06-16T17:52:39Z,sub66
two-step-fixation,164,718699,0.0-76.0-2.9,FALSE,FALSE,FALSE,TRUE,"""event"",""trial"",""time""
""blur"",""3"",""4425""
""focus"",""3"",""10642""
""fullscreenenter"",""5"",""17152""
","""event"",""trial"",""time""
""blur"",""3"",""4425""
","""event"",""trial"",""time""
""focus"",""3"",""10642""
","""event"",""trial"",""time""
""fullscreenenter"",""5"",""17152""
","
",NA,images/earth.jpg,NA,NA,NA,NA,NA,NA,NA,NA,NA,NA,NA,NA,NA,fixation,NA,NA,NA,NA,NA,NA,sub66
d3-animate-choice,165,720980,0.0-76.0-0.10,FALSE,FALSE,FALSE,TRUE,"""event"",""trial"",""time""
""blur"",""3"",""4425""
""focus"",""3"",""10642""
""fullscreenenter"",""5"",""17152""
","""event"",""trial"",""time""
""blur"",""3"",""4425""
","""event"",""trial"",""time""
""focus"",""3"",""10642""
","""event"",""trial"",""time""
""fullscreenenter"",""5"",""17152""
","
",277.459999997518,NA,49,NA,NA,3000,1,NA,NA,images/earth.jpg,images/rocket1,images/rocket2,null,images/rocket2,NA,1,real,null,1,NA,NA,NA,sub66
d3-animate-choice,166,723326,0.0-76.0-1.10,FALSE,FALSE,FALSE,TRUE,"""event"",""trial"",""time""
""blur"",""3"",""4425""
""focus"",""3"",""10642""
""fullscreenenter"",""5"",""17152""
","""event"",""trial"",""time""
""blur"",""3"",""4425""
","""event"",""trial"",""time""
""focus"",""3"",""10642""
","""event"",""trial"",""time""
""fullscreenenter"",""5"",""17152""
","
",339.5850000088103,NA,48,NA,NA,3000,1,NA,NA,images/redplanet1.jpg,images/alien2,images/alien1,images/rocket2,images/alien2,images/nothing.png,2,real,true,2,common,0,2020-06-16T17:52:45Z,sub66
two-step-fixation,167,724331,0.0-76.0-2.10,FALSE,FALSE,FALSE,TRUE,"""event"",""trial"",""time""
""blur"",""3"",""4425""
""focus"",""3"",""10642""
""fullscreenenter"",""5"",""17152""
","""event"",""trial"",""time""
""blur"",""3"",""4425""
","""event"",""trial"",""time""
""focus"",""3"",""10642""
","""event"",""trial"",""time""
""fullscreenenter"",""5"",""17152""
","
",NA,images/earth.jpg,NA,NA,NA,NA,NA,NA,NA,NA,NA,NA,NA,NA,NA,fixation,NA,NA,NA,NA,NA,NA,sub66
d3-animate-choice,168,726638,0.0-76.0-0.11,FALSE,FALSE,FALSE,TRUE,"""event"",""trial"",""time""
""blur"",""3"",""4425""
""focus"",""3"",""10642""
""fullscreenenter"",""5"",""17152""
","""event"",""trial"",""time""
""blur"",""3"",""4425""
","""event"",""trial"",""time""
""focus"",""3"",""10642""
","""event"",""trial"",""time""
""fullscreenenter"",""5"",""17152""
","
",300.9449999954086,NA,49,NA,NA,3000,1,NA,NA,images/earth.jpg,images/rocket1,images/rocket2,null,images/rocket2,NA,1,real,null,1,NA,NA,NA,sub66
d3-animate-choice,169,729276,0.0-76.0-1.11,FALSE,FALSE,FALSE,TRUE,"""event"",""trial"",""time""
""blur"",""3"",""4425""
""focus"",""3"",""10642""
""fullscreenenter"",""5"",""17152""
","""event"",""trial"",""time""
""blur"",""3"",""4425""
","""event"",""trial"",""time""
""focus"",""3"",""10642""
","""event"",""trial"",""time""
""fullscreenenter"",""5"",""17152""
","
",633.1300000019837,NA,48,NA,NA,3000,1,NA,NA,images/redplanet1.jpg,images/alien2,images/alien1,images/rocket2,images/alien2,images/t.png,2,real,true,2,common,1,2020-06-16T17:52:51Z,sub66
two-step-fixation,170,730282,0.0-76.0-2.11,FALSE,FALSE,FALSE,TRUE,"""event"",""trial"",""time""
""blur"",""3"",""4425""
""focus"",""3"",""10642""
""fullscreenenter"",""5"",""17152""
","""event"",""trial"",""time""
""blur"",""3"",""4425""
","""event"",""trial"",""time""
""focus"",""3"",""10642""
","""event"",""trial"",""time""
""fullscreenenter"",""5"",""17152""
","
",NA,images/earth.jpg,NA,NA,NA,NA,NA,NA,NA,NA,NA,NA,NA,NA,NA,fixation,NA,NA,NA,NA,NA,NA,sub66
d3-animate-choice,171,732598,0.0-76.0-0.12,FALSE,FALSE,FALSE,TRUE,"""event"",""trial"",""time""
""blur"",""3"",""4425""
""focus"",""3"",""10642""
""fullscreenenter"",""5"",""17152""
","""event"",""trial"",""time""
""blur"",""3"",""4425""
","""event"",""trial"",""time""
""focus"",""3"",""10642""
","""event"",""trial"",""time""
""fullscreenenter"",""5"",""17152""
","
",310.84499999997206,NA,49,NA,NA,3000,1,NA,NA,images/earth.jpg,images/rocket1,images/rocket2,null,images/rocket2,NA,1,real,null,1,NA,NA,NA,sub66
d3-animate-choice,172,734974,0.0-76.0-1.12,FALSE,FALSE,FALSE,TRUE,"""event"",""trial"",""time""
""blur"",""3"",""4425""
""focus"",""3"",""10642""
""fullscreenenter"",""5"",""17152""
","""event"",""trial"",""time""
""blur"",""3"",""4425""
","""event"",""trial"",""time""
""focus"",""3"",""10642""
","""event"",""trial"",""time""
""fullscreenenter"",""5"",""17152""
","
",370.56500000471715,NA,48,NA,NA,3000,1,NA,NA,images/redplanet1.jpg,images/alien2,images/alien1,images/rocket2,images/alien2,images/t.png,2,real,true,2,common,1,2020-06-16T17:52:57Z,sub66
two-step-fixation,173,735979,0.0-76.0-2.12,FALSE,FALSE,FALSE,TRUE,"""event"",""trial"",""time""
""blur"",""3"",""4425""
""focus"",""3"",""10642""
""fullscreenenter"",""5"",""17152""
","""event"",""trial"",""time""
""blur"",""3"",""4425""
","""event"",""trial"",""time""
""focus"",""3"",""10642""
","""event"",""trial"",""time""
""fullscreenenter"",""5"",""17152""
","
",NA,images/earth.jpg,NA,NA,NA,NA,NA,NA,NA,NA,NA,NA,NA,NA,NA,fixation,NA,NA,NA,NA,NA,NA,sub66
d3-animate-choice,174,738366,0.0-76.0-0.13,FALSE,FALSE,FALSE,TRUE,"""event"",""trial"",""time""
""blur"",""3"",""4425""
""focus"",""3"",""10642""
""fullscreenenter"",""5"",""17152""
","""event"",""trial"",""time""
""blur"",""3"",""4425""
","""event"",""trial"",""time""
""focus"",""3"",""10642""
","""event"",""trial"",""time""
""fullscreenenter"",""5"",""17152""
","
",380.96999999834225,NA,49,NA,NA,3000,1,NA,NA,images/earth.jpg,images/rocket1,images/rocket2,null,images/rocket2,NA,1,real,null,1,NA,NA,NA,sub66
d3-animate-choice,175,740841,0.0-76.0-1.13,FALSE,FALSE,FALSE,TRUE,"""event"",""trial"",""time""
""blur"",""3"",""4425""
""focus"",""3"",""10642""
""fullscreenenter"",""5"",""17152""
","""event"",""trial"",""time""
""blur"",""3"",""4425""
","""event"",""trial"",""time""
""focus"",""3"",""10642""
","""event"",""trial"",""time""
""fullscreenenter"",""5"",""17152""
","
",468.9000000071246,NA,48,NA,NA,3000,1,NA,NA,images/purpleplanet.jpg,images/alien4,images/alien3,images/rocket2,images/alien4,images/t.png,2,real,false,2,rare,1,2020-06-16T17:53:03Z,sub66
two-step-fixation,176,741846,0.0-76.0-2.13,FALSE,FALSE,FALSE,TRUE,"""event"",""trial"",""time""
""blur"",""3"",""4425""
""focus"",""3"",""10642""
""fullscreenenter"",""5"",""17152""
","""event"",""trial"",""time""
""blur"",""3"",""4425""
","""event"",""trial"",""time""
""focus"",""3"",""10642""
","""event"",""trial"",""time""
""fullscreenenter"",""5"",""17152""
","
",NA,images/earth.jpg,NA,NA,NA,NA,NA,NA,NA,NA,NA,NA,NA,NA,NA,fixation,NA,NA,NA,NA,NA,NA,sub66
d3-animate-choice,177,744221,0.0-76.0-0.14,FALSE,FALSE,FALSE,TRUE,"""event"",""trial"",""time""
""blur"",""3"",""4425""
""focus"",""3"",""10642""
""fullscreenenter"",""5"",""17152""
","""event"",""trial"",""time""
""blur"",""3"",""4425""
","""event"",""trial"",""time""
""focus"",""3"",""10642""
","""event"",""trial"",""time""
""fullscreenenter"",""5"",""17152""
","
",368.52500001259614,NA,49,NA,NA,3000,1,NA,NA,images/earth.jpg,images/rocket1,images/rocket2,null,images/rocket2,NA,1,real,null,1,NA,NA,NA,sub66
d3-animate-choice,178,746545,0.0-76.0-1.14,FALSE,FALSE,FALSE,TRUE,"""event"",""trial"",""time""
""blur"",""3"",""4425""
""focus"",""3"",""10642""
""fullscreenenter"",""5"",""17152""
","""event"",""trial"",""time""
""blur"",""3"",""4425""
","""event"",""trial"",""time""
""focus"",""3"",""10642""
","""event"",""trial"",""time""
""fullscreenenter"",""5"",""17152""
","
",317.8550000011455,NA,48,NA,NA,3000,1,NA,NA,images/redplanet1.jpg,images/alien2,images/alien1,images/rocket2,images/alien2,images/t.png,2,real,true,2,common,1,2020-06-16T17:53:08Z,sub66
two-step-fixation,179,747551,0.0-76.0-2.14,FALSE,FALSE,FALSE,TRUE,"""event"",""trial"",""time""
""blur"",""3"",""4425""
""focus"",""3"",""10642""
""fullscreenenter"",""5"",""17152""
","""event"",""trial"",""time""
""blur"",""3"",""4425""
","""event"",""trial"",""time""
""focus"",""3"",""10642""
","""event"",""trial"",""time""
""fullscreenenter"",""5"",""17152""
","
",NA,images/earth.jpg,NA,NA,NA,NA,NA,NA,NA,NA,NA,NA,NA,NA,NA,fixation,NA,NA,NA,NA,NA,NA,sub66
d3-animate-choice,180,749916,0.0-76.0-0.15,FALSE,FALSE,FALSE,TRUE,"""event"",""trial"",""time""
""blur"",""3"",""4425""
""focus"",""3"",""10642""
""fullscreenenter"",""5"",""17152""
","""event"",""trial"",""time""
""blur"",""3"",""4425""
","""event"",""trial"",""time""
""focus"",""3"",""10642""
","""event"",""trial"",""time""
""fullscreenenter"",""5"",""17152""
","
",358.9700000011362,NA,49,NA,NA,3000,1,NA,NA,images/earth.jpg,images/rocket1,images/rocket2,null,images/rocket2,NA,1,real,null,1,NA,NA,NA,sub66
d3-animate-choice,181,752252,0.0-76.0-1.15,FALSE,FALSE,FALSE,TRUE,"""event"",""trial"",""time""
""blur"",""3"",""4425""
""focus"",""3"",""10642""
""fullscreenenter"",""5"",""17152""
","""event"",""trial"",""time""
""blur"",""3"",""4425""
","""event"",""trial"",""time""
""focus"",""3"",""10642""
","""event"",""trial"",""time""
""fullscreenenter"",""5"",""17152""
","
",329.7500000044238,NA,48,NA,NA,3000,1,NA,NA,images/purpleplanet.jpg,images/alien4,images/alien3,images/rocket2,images/alien4,images/t.png,2,real,false,2,rare,1,2020-06-16T17:53:14Z,sub66
two-step-fixation,182,753259,0.0-76.0-2.15,FALSE,FALSE,FALSE,TRUE,"""event"",""trial"",""time""
""blur"",""3"",""4425""
""focus"",""3"",""10642""
""fullscreenenter"",""5"",""17152""
","""event"",""trial"",""time""
""blur"",""3"",""4425""
","""event"",""trial"",""time""
""focus"",""3"",""10642""
","""event"",""trial"",""time""
""fullscreenenter"",""5"",""17152""
","
",NA,images/earth.jpg,NA,NA,NA,NA,NA,NA,NA,NA,NA,NA,NA,NA,NA,fixation,NA,NA,NA,NA,NA,NA,sub66
d3-animate-choice,183,755574,0.0-76.0-0.16,FALSE,FALSE,FALSE,TRUE,"""event"",""trial"",""time""
""blur"",""3"",""4425""
""focus"",""3"",""10642""
""fullscreenenter"",""5"",""17152""
","""event"",""trial"",""time""
""blur"",""3"",""4425""
","""event"",""trial"",""time""
""focus"",""3"",""10642""
","""event"",""trial"",""time""
""fullscreenenter"",""5"",""17152""
","
",308.8500000012573,NA,49,NA,NA,3000,1,NA,NA,images/earth.jpg,images/rocket1,images/rocket2,null,images/rocket2,NA,1,real,null,1,NA,NA,NA,sub66
d3-animate-choice,184,757878,0.0-76.0-1.16,FALSE,FALSE,FALSE,TRUE,"""event"",""trial"",""time""
""blur"",""3"",""4425""
""focus"",""3"",""10642""
""fullscreenenter"",""5"",""17152""
","""event"",""trial"",""time""
""blur"",""3"",""4425""
","""event"",""trial"",""time""
""focus"",""3"",""10642""
","""event"",""trial"",""time""
""fullscreenenter"",""5"",""17152""
","
",298.2800000027055,NA,48,NA,NA,3000,1,NA,NA,images/purpleplanet.jpg,images/alien4,images/alien3,images/rocket2,images/alien4,images/t.png,2,real,false,2,rare,1,2020-06-16T17:53:20Z,sub66
two-step-fixation,185,758883,0.0-76.0-2.16,FALSE,FALSE,FALSE,TRUE,"""event"",""trial"",""time""
""blur"",""3"",""4425""
""focus"",""3"",""10642""
""fullscreenenter"",""5"",""17152""
","""event"",""trial"",""time""
""blur"",""3"",""4425""
","""event"",""trial"",""time""
""focus"",""3"",""10642""
","""event"",""trial"",""time""
""fullscreenenter"",""5"",""17152""
","
",NA,images/earth.jpg,NA,NA,NA,NA,NA,NA,NA,NA,NA,NA,NA,NA,NA,fixation,NA,NA,NA,NA,NA,NA,sub66
d3-animate-choice,186,761176,0.0-76.0-0.17,FALSE,FALSE,FALSE,TRUE,"""event"",""trial"",""time""
""blur"",""3"",""4425""
""focus"",""3"",""10642""
""fullscreenenter"",""5"",""17152""
","""event"",""trial"",""time""
""blur"",""3"",""4425""
","""event"",""trial"",""time""
""focus"",""3"",""10642""
","""event"",""trial"",""time""
""fullscreenenter"",""5"",""17152""
","
",286.92500000761356,NA,49,NA,NA,3000,1,NA,NA,images/earth.jpg,images/rocket1,images/rocket2,null,images/rocket2,NA,1,real,null,1,NA,NA,NA,sub66
d3-animate-choice,187,763505,0.0-76.0-1.17,FALSE,FALSE,FALSE,TRUE,"""event"",""trial"",""time""
""blur"",""3"",""4425""
""focus"",""3"",""10642""
""fullscreenenter"",""5"",""17152""
","""event"",""trial"",""time""
""blur"",""3"",""4425""
","""event"",""trial"",""time""
""focus"",""3"",""10642""
","""event"",""trial"",""time""
""fullscreenenter"",""5"",""17152""
","
",324.28499999514315,NA,48,NA,NA,3000,1,NA,NA,images/redplanet1.jpg,images/alien2,images/alien1,images/rocket2,images/alien2,images/t.png,2,real,true,2,common,1,2020-06-16T17:53:25Z,sub66
two-step-fixation,188,764514,0.0-76.0-2.17,FALSE,FALSE,FALSE,TRUE,"""event"",""trial"",""time""
""blur"",""3"",""4425""
""focus"",""3"",""10642""
""fullscreenenter"",""5"",""17152""
","""event"",""trial"",""time""
""blur"",""3"",""4425""
","""event"",""trial"",""time""
""focus"",""3"",""10642""
","""event"",""trial"",""time""
""fullscreenenter"",""5"",""17152""
","
",NA,images/earth.jpg,NA,NA,NA,NA,NA,NA,NA,NA,NA,NA,NA,NA,NA,fixation,NA,NA,NA,NA,NA,NA,sub66
d3-animate-choice,189,766815,0.0-76.0-0.18,FALSE,FALSE,FALSE,TRUE,"""event"",""trial"",""time""
""blur"",""3"",""4425""
""focus"",""3"",""10642""
""fullscreenenter"",""5"",""17152""
","""event"",""trial"",""time""
""blur"",""3"",""4425""
","""event"",""trial"",""time""
""focus"",""3"",""10642""
","""event"",""trial"",""time""
""fullscreenenter"",""5"",""17152""
","
",295.2649999933783,NA,49,NA,NA,3000,1,NA,NA,images/earth.jpg,images/rocket1,images/rocket2,null,images/rocket2,NA,1,real,null,1,NA,NA,NA,sub66
d3-animate-choice,190,769225,0.0-76.0-1.18,FALSE,FALSE,FALSE,TRUE,"""event"",""trial"",""time""
""blur"",""3"",""4425""
""focus"",""3"",""10642""
""fullscreenenter"",""5"",""17152""
","""event"",""trial"",""time""
""blur"",""3"",""4425""
","""event"",""trial"",""time""
""focus"",""3"",""10642""
","""event"",""trial"",""time""
""fullscreenenter"",""5"",""17152""
","
",404.59499999997206,NA,48,NA,NA,3000,1,NA,NA,images/purpleplanet.jpg,images/alien4,images/alien3,images/rocket2,images/alien4,images/nothing.png,2,real,false,2,rare,0,2020-06-16T17:53:31Z,sub66
two-step-fixation,191,770229,0.0-76.0-2.18,FALSE,FALSE,FALSE,TRUE,"""event"",""trial"",""time""
""blur"",""3"",""4425""
""focus"",""3"",""10642""
""fullscreenenter"",""5"",""17152""
","""event"",""trial"",""time""
""blur"",""3"",""4425""
","""event"",""trial"",""time""
""focus"",""3"",""10642""
","""event"",""trial"",""time""
""fullscreenenter"",""5"",""17152""
","
",NA,images/earth.jpg,NA,NA,NA,NA,NA,NA,NA,NA,NA,NA,NA,NA,NA,fixation,NA,NA,NA,NA,NA,NA,sub66
d3-animate-choice,192,772498,0.0-76.0-0.19,FALSE,FALSE,FALSE,TRUE,"""event"",""trial"",""time""
""blur"",""3"",""4425""
""focus"",""3"",""10642""
""fullscreenenter"",""5"",""17152""
","""event"",""trial"",""time""
""blur"",""3"",""4425""
","""event"",""trial"",""time""
""focus"",""3"",""10642""
","""event"",""trial"",""time""
""fullscreenenter"",""5"",""17152""
","
",263.6999999958789,NA,49,NA,NA,3000,1,NA,NA,images/earth.jpg,images/rocket1,images/rocket2,null,images/rocket2,NA,1,real,null,1,NA,NA,NA,sub66
d3-animate-choice,193,774949,0.0-76.0-1.19,FALSE,FALSE,FALSE,TRUE,"""event"",""trial"",""time""
""blur"",""3"",""4425""
""focus"",""3"",""10642""
""fullscreenenter"",""5"",""17152""
","""event"",""trial"",""time""
""blur"",""3"",""4425""
","""event"",""trial"",""time""
""focus"",""3"",""10642""
","""event"",""trial"",""time""
""fullscreenenter"",""5"",""17152""
","
",444.9600000079954,NA,48,NA,NA,3000,1,NA,NA,images/redplanet1.jpg,images/alien2,images/alien1,images/rocket2,images/alien2,images/t.png,2,real,true,2,common,1,2020-06-16T17:53:37Z,sub66
two-step-fixation,194,775954,0.0-76.0-2.19,FALSE,FALSE,FALSE,TRUE,"""event"",""trial"",""time""
""blur"",""3"",""4425""
""focus"",""3"",""10642""
""fullscreenenter"",""5"",""17152""
","""event"",""trial"",""time""
""blur"",""3"",""4425""
","""event"",""trial"",""time""
""focus"",""3"",""10642""
","""event"",""trial"",""time""
""fullscreenenter"",""5"",""17152""
","
",NA,images/earth.jpg,NA,NA,NA,NA,NA,NA,NA,NA,NA,NA,NA,NA,NA,fixation,NA,NA,NA,NA,NA,NA,sub66
d3-animate-choice,195,778267,0.0-76.0-0.20,FALSE,FALSE,FALSE,TRUE,"""event"",""trial"",""time""
""blur"",""3"",""4425""
""focus"",""3"",""10642""
""fullscreenenter"",""5"",""17152""
","""event"",""trial"",""time""
""blur"",""3"",""4425""
","""event"",""trial"",""time""
""focus"",""3"",""10642""
","""event"",""trial"",""time""
""fullscreenenter"",""5"",""17152""
","
",307.2249999968335,NA,49,NA,NA,3000,1,NA,NA,images/earth.jpg,images/rocket1,images/rocket2,null,images/rocket2,NA,1,real,null,1,NA,NA,NA,sub66
d3-animate-choice,196,780616,0.0-76.0-1.20,FALSE,FALSE,FALSE,TRUE,"""event"",""trial"",""time""
""blur"",""3"",""4425""
""focus"",""3"",""10642""
""fullscreenenter"",""5"",""17152""
","""event"",""trial"",""time""
""blur"",""3"",""4425""
","""event"",""trial"",""time""
""focus"",""3"",""10642""
","""event"",""trial"",""time""
""fullscreenenter"",""5"",""17152""
","
