trial_type,trial_index,time_elapsed,internal_node_id,rocket_sides,red_planet_first_rocket,red_display_order,purple_display_order,interactions,blur_events,focus_events,fullscreenenter_events,fullscreenexit_events,rt,stimulus,key_press,button_pressed,success,duration,valid_pressed,rts,keys,planet_text,right_text,left_text,center_text,chosen_text,reward_text,trial_stage,practice_trial,transition_type,choice,transition,reward,timestamp,subject_id
pavlovia,0,9,0.0-0.0,TRUE,FALSE,TRUE,TRUE,"
","
","
","
","
",NA,NA,NA,NA,NA,NA,NA,NA,NA,NA,NA,NA,NA,NA,NA,NA,NA,NA,NA,NA,NA,NA,sub38
html-keyboard-response,1,2501,0.0-1.0,TRUE,FALSE,TRUE,TRUE,"
","
","
","
","
",2489.820000017062,Welcome! Press the space bar to begin.,32,NA,NA,NA,NA,NA,NA,NA,NA,NA,NA,NA,NA,NA,NA,NA,NA,NA,NA,NA,sub38
audio-keyboard-response,2,6412,0.0-2.0,TRUE,FALSE,TRUE,TRUE,"
","
","
","
","
",3828,audio/beep_loop.wav,32,NA,NA,NA,NA,NA,NA,NA,NA,NA,NA,NA,NA,NA,NA,NA,NA,NA,NA,NA,sub38
audio-button-response,3,16989,0.0-3.0,TRUE,FALSE,TRUE,TRUE,"
","
","
","
","
",NaN,audio/fish.mp3,NA,1,NA,NA,NA,NA,NA,NA,NA,NA,NA,NA,NA,NA,NA,NA,NA,NA,NA,NA,sub38
audio-button-response,4,19222,0.0-4.0,TRUE,FALSE,TRUE,TRUE,"""event"",""trial"",""time""
""fullscreenenter"",""5"",""22807""
","
","
","""event"",""trial"",""time""
""fullscreenenter"",""5"",""22807""
","
",NaN,audio/tiger.mp3,NA,4,NA,NA,NA,NA,NA,NA,NA,NA,NA,NA,NA,NA,NA,NA,NA,NA,NA,NA,sub38
fullscreen,5,23767,0.0-5.0,TRUE,FALSE,TRUE,TRUE,"""event"",""trial"",""time""
""fullscreenenter"",""5"",""22807""
","
","
","""event"",""trial"",""time""
""fullscreenenter"",""5"",""22807""
","
",NA,NA,NA,NA,TRUE,NA,NA,NA,NA,NA,NA,NA,NA,NA,NA,NA,NA,NA,NA,NA,NA,NA,sub38
d3-instructions,6,37858,0.0-6.0,TRUE,FALSE,TRUE,TRUE,"""event"",""trial"",""time""
""fullscreenenter"",""5"",""22807""
","
","
","""event"",""trial"",""time""
""fullscreenenter"",""5"",""22807""
","
",NA,NA,NA,NA,NA,NA,NA,NA,NA,NA,NA,NA,NA,NA,NA,NA,NA,NA,NA,NA,NA,NA,sub38
d3-instructions,7,44489,0.0-7.0,TRUE,FALSE,TRUE,TRUE,"""event"",""trial"",""time""
""fullscreenenter"",""5"",""22807""
","
","
","""event"",""trial"",""time""
""fullscreenenter"",""5"",""22807""
","
",NA,NA,NA,NA,NA,NA,NA,NA,NA,NA,NA,NA,NA,NA,NA,NA,NA,NA,NA,NA,NA,NA,sub38
d3-instructions,8,50557,0.0-8.0,TRUE,FALSE,TRUE,TRUE,"""event"",""trial"",""time""
""fullscreenenter"",""5"",""22807""
","
","
","""event"",""trial"",""time""
""fullscreenenter"",""5"",""22807""
","
",NA,NA,NA,NA,NA,NA,NA,NA,NA,NA,NA,NA,NA,NA,NA,NA,NA,NA,NA,NA,NA,NA,sub38
d3-instructions,9,63803,0.0-9.0,TRUE,FALSE,TRUE,TRUE,"""event"",""trial"",""time""
""fullscreenenter"",""5"",""22807""
","
","
","""event"",""trial"",""time""
""fullscreenenter"",""5"",""22807""
","
",NA,NA,NA,NA,NA,NA,NA,NA,NA,NA,NA,NA,NA,NA,NA,NA,NA,NA,NA,NA,NA,NA,sub38
d3-instructions,10,89522,0.0-10.0,TRUE,FALSE,TRUE,TRUE,"""event"",""trial"",""time""
""fullscreenenter"",""5"",""22807""
","
","
","""event"",""trial"",""time""
""fullscreenenter"",""5"",""22807""
","
",NA,NA,NA,NA,NA,NA,NA,NA,NA,NA,NA,NA,NA,NA,NA,NA,NA,NA,NA,NA,NA,NA,sub38
d3-animate-choice,11,100873,0.0-11.0,TRUE,FALSE,TRUE,TRUE,"""event"",""trial"",""time""
""fullscreenenter"",""5"",""22807""
","
","
","""event"",""trial"",""time""
""fullscreenenter"",""5"",""22807""
","
",9334.085000009509,NA,49,NA,NA,3000,1,10330.300000001444,48,images/tutgreenplanet.jpg,images/tutalien1,images/tutalien2,null,images/tutalien2,NA,NA,practice,null,NA,NA,NA,NA,sub38
d3-animate-choice,12,103645,0.0-12.0,TRUE,FALSE,TRUE,TRUE,"""event"",""trial"",""time""
""fullscreenenter"",""5"",""22807""
","
","
","""event"",""trial"",""time""
""fullscreenenter"",""5"",""22807""
","
",763.4449999895878,NA,48,NA,NA,3000,1,2695.944999984931,49,images/tutgreenplanet.jpg,images/tutalien1,images/tutalien2,null,images/tutalien1,NA,NA,practice,null,NA,NA,NA,NA,sub38
d3-animate-choice,13,106060,0.0-13.0,TRUE,FALSE,TRUE,TRUE,"""event"",""trial"",""time""
""fullscreenenter"",""5"",""22807""
","
","
","""event"",""trial"",""time""
""fullscreenenter"",""5"",""22807""
","
",409.4000000040978,NA,49,NA,NA,3000,1,1985.4900000209454,49,images/tutgreenplanet.jpg,images/tutalien1,images/tutalien2,null,images/tutalien2,NA,NA,practice,null,NA,NA,NA,NA,sub38
d3-animate-choice,14,108282,0.0-14.0,TRUE,FALSE,TRUE,TRUE,"""event"",""trial"",""time""
""fullscreenenter"",""5"",""22807""
","
","
","""event"",""trial"",""time""
""fullscreenenter"",""5"",""22807""
","
",215.5100000090897,NA,49,NA,NA,3000,1,1834.0600000228733,48,images/tutgreenplanet.jpg,images/tutalien1,images/tutalien2,null,images/tutalien2,NA,NA,practice,null,NA,NA,NA,NA,sub38
d3-instructions,15,120222,0.0-15.0,TRUE,FALSE,TRUE,TRUE,"""event"",""trial"",""time""
""fullscreenenter"",""5"",""22807""
","
","
","""event"",""trial"",""time""
""fullscreenenter"",""5"",""22807""
","
",NA,NA,NA,NA,NA,NA,NA,NA,NA,NA,NA,NA,NA,NA,NA,NA,NA,NA,NA,NA,NA,NA,sub38
d3-instructions,16,132423,0.0-16.0,TRUE,FALSE,TRUE,TRUE,"""event"",""trial"",""time""
""fullscreenenter"",""5"",""22807""
","
","
","""event"",""trial"",""time""
""fullscreenenter"",""5"",""22807""
","
",NA,NA,NA,NA,NA,NA,NA,NA,NA,NA,NA,NA,NA,NA,NA,NA,NA,NA,NA,NA,NA,NA,sub38
d3-instructions,17,146645,0.0-17.0,TRUE,FALSE,TRUE,TRUE,"""event"",""trial"",""time""
""fullscreenenter"",""5"",""22807""
","
","
","""event"",""trial"",""time""
""fullscreenenter"",""5"",""22807""
","
",NA,NA,NA,NA,NA,NA,NA,NA,NA,NA,NA,NA,NA,NA,NA,NA,NA,NA,NA,NA,NA,NA,sub38
d3-instructions,18,160102,0.0-18.0,TRUE,FALSE,TRUE,TRUE,"""event"",""trial"",""time""
""fullscreenenter"",""5"",""22807""
","
","
","""event"",""trial"",""time""
""fullscreenenter"",""5"",""22807""
","
",NA,NA,NA,NA,NA,NA,NA,NA,NA,NA,NA,NA,NA,NA,NA,NA,NA,NA,NA,NA,NA,NA,sub38
d3-instructions,19,176600,0.0-19.0,TRUE,FALSE,TRUE,TRUE,"""event"",""trial"",""time""
""fullscreenenter"",""5"",""22807""
","
","
","""event"",""trial"",""time""
""fullscreenenter"",""5"",""22807""
","
",NA,NA,NA,NA,NA,NA,NA,NA,NA,NA,NA,NA,NA,NA,NA,NA,NA,NA,NA,NA,NA,NA,sub38
d3-animate-choice,20,183316,0.0-20.0,TRUE,FALSE,TRUE,TRUE,"""event"",""trial"",""time""
""fullscreenenter"",""5"",""22807""
","
","
","""event"",""trial"",""time""
""fullscreenenter"",""5"",""22807""
","
",4708.539999992354,NA,49,NA,NA,3000,1,"6168.13999999431,6582.354999991367",4949,images/tutyellowplanet.jpg,null,images/tutalien3,null,images/tutalien3,images/t.png,NA,practice,null,NA,NA,NA,NA,sub38
d3-animate-choice,21,185636,0.0-21.0,TRUE,FALSE,TRUE,TRUE,"""event"",""trial"",""time""
""fullscreenenter"",""5"",""22807""
","
","
","""event"",""trial"",""time""
""fullscreenenter"",""5"",""22807""
","
",315.0899999891408,NA,49,NA,NA,3000,1,1794.5349999936298,49,images/tutyellowplanet.jpg,null,images/tutalien3,null,images/tutalien3,images/t.png,NA,practice,null,NA,NA,NA,NA,sub38
d3-animate-choice,22,187944,0.0-22.0,TRUE,FALSE,TRUE,TRUE,"""event"",""trial"",""time""
""fullscreenenter"",""5"",""22807""
","
","
","""event"",""trial"",""time""
""fullscreenenter"",""5"",""22807""
","
",303.3900000154972,NA,49,NA,NA,3000,1,2049.2599999997765,49,images/tutyellowplanet.jpg,null,images/tutalien3,null,images/tutalien3,images/t.png,NA,practice,null,NA,NA,NA,NA,sub38
d3-animate-choice,23,190563,0.0-23.0,TRUE,FALSE,TRUE,TRUE,"""event"",""trial"",""time""
""fullscreenenter"",""5"",""22807""
","
","
","""event"",""trial"",""time""
""fullscreenenter"",""5"",""22807""
","
",613.8650000211783,NA,49,NA,NA,3000,1,2137.5150000094436,49,images/tutyellowplanet.jpg,null,images/tutalien3,null,images/tutalien3,images/t.png,NA,practice,null,NA,NA,NA,NA,sub38
d3-animate-choice,24,193042,0.0-24.0,TRUE,FALSE,TRUE,TRUE,"""event"",""trial"",""time""
""fullscreenenter"",""5"",""22807""
","
","
","""event"",""trial"",""time""
""fullscreenenter"",""5"",""22807""
","
",473.93999999621883,NA,49,NA,NA,3000,1,2016.8649999832269,49,images/tutyellowplanet.jpg,null,images/tutalien3,null,images/tutalien3,images/t.png,NA,practice,null,NA,NA,NA,NA,sub38
d3-animate-choice,25,195169,0.0-25.0,TRUE,FALSE,TRUE,TRUE,"""event"",""trial"",""time""
""fullscreenenter"",""5"",""22807""
","
","
","""event"",""trial"",""time""
""fullscreenenter"",""5"",""22807""
","
",123.33000000216998,NA,49,NA,NA,3000,1,2099.2149999947287,49,images/tutyellowplanet.jpg,null,images/tutalien3,null,images/tutalien3,images/t.png,NA,practice,null,NA,NA,NA,NA,sub38
d3-animate-choice,26,198213,0.0-26.0,TRUE,FALSE,TRUE,TRUE,"""event"",""trial"",""time""
""fullscreenenter"",""5"",""22807""
","
","
","""event"",""trial"",""time""
""fullscreenenter"",""5"",""22807""
","
",1039.455000020098,NA,49,NA,NA,3000,1,2354.844999994384,49,images/tutyellowplanet.jpg,null,images/tutalien3,null,images/tutalien3,images/t.png,NA,practice,null,NA,NA,NA,NA,sub38
d3-animate-choice,27,200310,0.0-27.0,TRUE,FALSE,TRUE,TRUE,"""event"",""trial"",""time""
""fullscreenenter"",""5"",""22807""
","
","
","""event"",""trial"",""time""
""fullscreenenter"",""5"",""22807""
","
",91.45000000717118,NA,49,NA,NA,3000,1,1595.4750000091735,49,images/tutyellowplanet.jpg,null,images/tutalien3,null,images/tutalien3,images/t.png,NA,practice,null,NA,NA,NA,NA,sub38
d3-animate-choice,28,202716,0.0-28.0,TRUE,FALSE,TRUE,TRUE,"""event"",""trial"",""time""
""fullscreenenter"",""5"",""22807""
","
","
","""event"",""trial"",""time""
""fullscreenenter"",""5"",""22807""
","
",400.03999997861683,NA,49,NA,NA,3000,1,1957.1699999796692,49,images/tutyellowplanet.jpg,null,images/tutalien3,null,images/tutalien3,images/t.png,NA,practice,null,NA,NA,NA,NA,sub38
d3-animate-choice,29,205378,0.0-29.0,TRUE,FALSE,TRUE,TRUE,"""event"",""trial"",""time""
""fullscreenenter"",""5"",""22807""
","
","
","""event"",""trial"",""time""
""fullscreenenter"",""5"",""22807""
","
",656.8799999949988,NA,49,NA,NA,3000,1,NA,NA,images/tutyellowplanet.jpg,null,images/tutalien3,null,images/tutalien3,images/t.png,NA,practice,null,NA,NA,NA,NA,sub38
d3-instructions,30,214047,0.0-30.0,TRUE,FALSE,TRUE,TRUE,"""event"",""trial"",""time""
""fullscreenenter"",""5"",""22807""
","
","
","""event"",""trial"",""time""
""fullscreenenter"",""5"",""22807""
","
",NA,NA,NA,NA,NA,NA,NA,NA,NA,NA,NA,NA,NA,NA,NA,NA,NA,NA,NA,NA,NA,NA,sub38
d3-instructions,31,224795,0.0-31.0,TRUE,FALSE,TRUE,TRUE,"""event"",""trial"",""time""
""fullscreenenter"",""5"",""22807""
","
","
","""event"",""trial"",""time""
""fullscreenenter"",""5"",""22807""
","
",NA,NA,NA,NA,NA,NA,NA,NA,NA,NA,NA,NA,NA,NA,NA,NA,NA,NA,NA,NA,NA,NA,sub38
d3-instructions,32,234357,0.0-32.0,TRUE,FALSE,TRUE,TRUE,"""event"",""trial"",""time""
""fullscreenenter"",""5"",""22807""
","
","
","""event"",""trial"",""time""
""fullscreenenter"",""5"",""22807""
","
",NA,NA,NA,NA,NA,NA,NA,NA,NA,NA,NA,NA,NA,NA,NA,NA,NA,NA,NA,NA,NA,NA,sub38
d3-instructions,33,246596,0.0-33.0,TRUE,FALSE,TRUE,TRUE,"""event"",""trial"",""time""
""fullscreenenter"",""5"",""22807""
","
","
","""event"",""trial"",""time""
""fullscreenenter"",""5"",""22807""
","
",NA,NA,NA,NA,NA,NA,NA,NA,NA,NA,NA,NA,NA,NA,NA,NA,NA,NA,NA,NA,NA,NA,sub38
d3-animate-choice,34,256523,0.0-34.0,TRUE,FALSE,TRUE,TRUE,"""event"",""trial"",""time""
""fullscreenenter"",""5"",""22807""
","
","
","""event"",""trial"",""time""
""fullscreenenter"",""5"",""22807""
","
",7920.825000008335,NA,49,NA,NA,3000,1,NA,NA,images/tutgreenplanet.jpg,images/tutalien1,images/tutalien2,null,images/tutalien2,images/t.png,NA,practice,null,NA,NA,NA,NA,sub38
d3-animate-choice,35,259380,0.0-35.0,TRUE,FALSE,TRUE,TRUE,"""event"",""trial"",""time""
""fullscreenenter"",""5"",""22807""
","
","
","""event"",""trial"",""time""
""fullscreenenter"",""5"",""22807""
","
",852.2550000052433,NA,49,NA,NA,3000,1,2383.3850000228267,49,images/tutgreenplanet.jpg,images/tutalien1,images/tutalien2,null,images/tutalien2,images/t.png,NA,practice,null,NA,NA,NA,NA,sub38
d3-animate-choice,36,261732,0.0-36.0,TRUE,FALSE,TRUE,TRUE,"""event"",""trial"",""time""
""fullscreenenter"",""5"",""22807""
","
","
","""event"",""trial"",""time""
""fullscreenenter"",""5"",""22807""
","
",346.2100000178907,NA,49,NA,NA,3000,1,NA,NA,images/tutgreenplanet.jpg,images/tutalien1,images/tutalien2,null,images/tutalien2,images/t.png,NA,practice,null,NA,NA,NA,NA,sub38
d3-animate-choice,37,268707,0.0-37.0,TRUE,FALSE,TRUE,TRUE,"""event"",""trial"",""time""
""fullscreenenter"",""5"",""22807""
","
","
","""event"",""trial"",""time""
""fullscreenenter"",""5"",""22807""
","
",4968.759999988833,NA,49,NA,NA,3000,1,NA,NA,images/tutgreenplanet.jpg,images/tutalien1,images/tutalien2,null,images/tutalien2,images/t.png,NA,practice,null,NA,NA,NA,NA,sub38
d3-animate-choice,38,272609,0.0-38.0,TRUE,FALSE,TRUE,TRUE,"""event"",""trial"",""time""
""fullscreenenter"",""5"",""22807""
","
","
","""event"",""trial"",""time""
""fullscreenenter"",""5"",""22807""
","
",1892.149999999674,NA,49,NA,NA,3000,1,NA,NA,images/tutgreenplanet.jpg,images/tutalien1,images/tutalien2,null,images/tutalien2,images/t.png,NA,practice,null,NA,NA,NA,NA,sub38
d3-animate-choice,39,277109,0.0-39.0,TRUE,FALSE,TRUE,TRUE,"""event"",""trial"",""time""
""fullscreenenter"",""5"",""22807""
","
","
","""event"",""trial"",""time""
""fullscreenenter"",""5"",""22807""
","
",2495.2550000161864,NA,49,NA,NA,3000,1,NA,NA,images/tutgreenplanet.jpg,images/tutalien1,images/tutalien2,null,images/tutalien2,images/t.png,NA,practice,null,NA,NA,NA,NA,sub38
d3-animate-choice,40,281129,0.0-40.0,TRUE,FALSE,TRUE,TRUE,"""event"",""trial"",""time""
""fullscreenenter"",""5"",""22807""
","
","
","""event"",""trial"",""time""
""fullscreenenter"",""5"",""22807""
","
",2013.8199999928474,NA,49,NA,NA,3000,1,NA,NA,images/tutgreenplanet.jpg,images/tutalien1,images/tutalien2,null,images/tutalien2,images/t.png,NA,practice,null,NA,NA,NA,NA,sub38
d3-animate-choice,41,285328,0.0-41.0,TRUE,FALSE,TRUE,TRUE,"""event"",""trial"",""time""
""fullscreenenter"",""5"",""22807""
","
","
","""event"",""trial"",""time""
""fullscreenenter"",""5"",""22807""
","
",2194.049999990966,NA,49,NA,NA,3000,1,NA,NA,images/tutgreenplanet.jpg,images/tutalien1,images/tutalien2,null,images/tutalien2,images/t.png,NA,practice,null,NA,NA,NA,NA,sub38
d3-animate-choice,42,288197,0.0-42.0,TRUE,FALSE,TRUE,TRUE,"""event"",""trial"",""time""
""fullscreenenter"",""5"",""22807""
","
","
","""event"",""trial"",""time""
""fullscreenenter"",""5"",""22807""
","
",862.1749999874737,NA,49,NA,NA,3000,1,NA,NA,images/tutgreenplanet.jpg,images/tutalien1,images/tutalien2,null,images/tutalien2,images/t.png,NA,practice,null,NA,NA,NA,NA,sub38
d3-animate-choice,43,290734,0.0-43.0,TRUE,FALSE,TRUE,TRUE,"""event"",""trial"",""time""
""fullscreenenter"",""5"",""22807""
","
","
","""event"",""trial"",""time""
""fullscreenenter"",""5"",""22807""
","
",531.4950000029057,NA,49,NA,NA,3000,1,NA,NA,images/tutgreenplanet.jpg,images/tutalien1,images/tutalien2,null,images/tutalien2,images/t.png,NA,practice,null,NA,NA,NA,NA,sub38
d3-instructions,44,306204,0.0-44.0,TRUE,FALSE,TRUE,TRUE,"""event"",""trial"",""time""
""fullscreenenter"",""5"",""22807""
","
","
","""event"",""trial"",""time""
""fullscreenenter"",""5"",""22807""
","
",NA,NA,NA,NA,NA,NA,NA,NA,NA,NA,NA,NA,NA,NA,NA,NA,NA,NA,NA,NA,NA,NA,sub38
d3-instructions,45,315414,0.0-45.0,TRUE,FALSE,TRUE,TRUE,"""event"",""trial"",""time""
""fullscreenenter"",""5"",""22807""
","
","
","""event"",""trial"",""time""
""fullscreenenter"",""5"",""22807""
","
",NA,NA,NA,NA,NA,NA,NA,NA,NA,NA,NA,NA,NA,NA,NA,NA,NA,NA,NA,NA,NA,NA,sub38
d3-instructions,46,318187,0.0-46.0,TRUE,FALSE,TRUE,TRUE,"""event"",""trial"",""time""
""fullscreenenter"",""5"",""22807""
","
","
","""event"",""trial"",""time""
""fullscreenenter"",""5"",""22807""
","
",NA,NA,NA,NA,NA,NA,NA,NA,NA,NA,NA,NA,NA,NA,NA,NA,NA,NA,NA,NA,NA,NA,sub38
d3-instructions,47,336504,0.0-47.0,TRUE,FALSE,TRUE,TRUE,"""event"",""trial"",""time""
""fullscreenenter"",""5"",""22807""
","
","
","""event"",""trial"",""time""
""fullscreenenter"",""5"",""22807""
","
",NA,NA,NA,NA,NA,NA,NA,NA,NA,NA,NA,NA,NA,NA,NA,NA,NA,NA,NA,NA,NA,NA,sub38
d3-instructions,48,349279,0.0-48.0,TRUE,FALSE,TRUE,TRUE,"""event"",""trial"",""time""
""fullscreenenter"",""5"",""22807""
","
","
","""event"",""trial"",""time""
""fullscreenenter"",""5"",""22807""
","
",NA,NA,NA,NA,NA,NA,NA,NA,NA,NA,NA,NA,NA,NA,NA,NA,NA,NA,NA,NA,NA,NA,sub38
d3-instructions,49,367240,0.0-49.0,TRUE,FALSE,TRUE,TRUE,"""event"",""trial"",""time""
""fullscreenenter"",""5"",""22807""
","
","
","""event"",""trial"",""time""
""fullscreenenter"",""5"",""22807""
","
",NA,NA,NA,NA,NA,NA,NA,NA,NA,NA,NA,NA,NA,NA,NA,NA,NA,NA,NA,NA,NA,NA,sub38
d3-instructions,50,376878,0.0-50.0,TRUE,FALSE,TRUE,TRUE,"""event"",""trial"",""time""
""fullscreenenter"",""5"",""22807""
","
","
","""event"",""trial"",""time""
""fullscreenenter"",""5"",""22807""
","
",NA,NA,NA,NA,NA,NA,NA,NA,NA,NA,NA,NA,NA,NA,NA,NA,NA,NA,NA,NA,NA,NA,sub38
d3-instructions,51,381626,0.0-51.0,TRUE,FALSE,TRUE,TRUE,"""event"",""trial"",""time""
""fullscreenenter"",""5"",""22807""
","
","
","""event"",""trial"",""time""
""fullscreenenter"",""5"",""22807""
","
",NA,NA,NA,NA,NA,NA,NA,NA,NA,NA,NA,NA,NA,NA,NA,NA,NA,NA,NA,NA,NA,NA,sub38
d3-instructions,52,385016,0.0-52.0,TRUE,FALSE,TRUE,TRUE,"""event"",""trial"",""time""
""fullscreenenter"",""5"",""22807""
","
","
","""event"",""trial"",""time""
""fullscreenenter"",""5"",""22807""
","
",NA,NA,NA,NA,NA,NA,NA,NA,NA,NA,NA,NA,NA,NA,NA,NA,NA,NA,NA,NA,NA,NA,sub38
d3-instructions,53,397006,0.0-53.0,TRUE,FALSE,TRUE,TRUE,"""event"",""trial"",""time""
""fullscreenenter"",""5"",""22807""
","
","
","""event"",""trial"",""time""
""fullscreenenter"",""5"",""22807""
","
",NA,NA,NA,NA,NA,NA,NA,NA,NA,NA,NA,NA,NA,NA,NA,NA,NA,NA,NA,NA,NA,NA,sub38
d3-instructions,54,409767,0.0-54.0,TRUE,FALSE,TRUE,TRUE,"""event"",""trial"",""time""
""fullscreenenter"",""5"",""22807""
","
","
","""event"",""trial"",""time""
""fullscreenenter"",""5"",""22807""
","
",NA,NA,NA,NA,NA,NA,NA,NA,NA,NA,NA,NA,NA,NA,NA,NA,NA,NA,NA,NA,NA,NA,sub38
d3-instructions,55,421105,0.0-55.0,TRUE,FALSE,TRUE,TRUE,"""event"",""trial"",""time""
""fullscreenenter"",""5"",""22807""
","
","
","""event"",""trial"",""time""
""fullscreenenter"",""5"",""22807""
","
",NA,NA,NA,NA,NA,NA,NA,NA,NA,NA,NA,NA,NA,NA,NA,NA,NA,NA,NA,NA,NA,NA,sub38
d3-instructions,56,433491,0.0-56.0,TRUE,FALSE,TRUE,TRUE,"""event"",""trial"",""time""
""fullscreenenter"",""5"",""22807""
","
","
","""event"",""trial"",""time""
""fullscreenenter"",""5"",""22807""
","
",NA,NA,NA,NA,NA,NA,NA,NA,NA,NA,NA,NA,NA,NA,NA,NA,NA,NA,NA,NA,NA,NA,sub38
d3-instructions,57,444022,0.0-57.0,TRUE,FALSE,TRUE,TRUE,"""event"",""trial"",""time""
""fullscreenenter"",""5"",""22807""
","
","
","""event"",""trial"",""time""
""fullscreenenter"",""5"",""22807""
","
",NA,NA,NA,NA,NA,NA,NA,NA,NA,NA,NA,NA,NA,NA,NA,NA,NA,NA,NA,NA,NA,NA,sub38
d3-instructions,58,456801,0.0-58.0,TRUE,FALSE,TRUE,TRUE,"""event"",""trial"",""time""
""fullscreenenter"",""5"",""22807""
","
","
","""event"",""trial"",""time""
""fullscreenenter"",""5"",""22807""
","
",NA,NA,NA,NA,NA,NA,NA,NA,NA,NA,NA,NA,NA,NA,NA,NA,NA,NA,NA,NA,NA,NA,sub38
d3-instructions,59,478678,0.0-59.0,TRUE,FALSE,TRUE,TRUE,"""event"",""trial"",""time""
""fullscreenenter"",""5"",""22807""
","
","
","""event"",""trial"",""time""
""fullscreenenter"",""5"",""22807""
","
",NA,NA,NA,NA,NA,NA,NA,NA,NA,NA,NA,NA,NA,NA,NA,NA,NA,NA,NA,NA,NA,NA,sub38
d3-instructions,60,487985,0.0-60.0,TRUE,FALSE,TRUE,TRUE,"""event"",""trial"",""time""
""fullscreenenter"",""5"",""22807""
","
","
","""event"",""trial"",""time""
""fullscreenenter"",""5"",""22807""
","
",NA,NA,NA,NA,NA,NA,NA,NA,NA,NA,NA,NA,NA,NA,NA,NA,NA,NA,NA,NA,NA,NA,sub38
d3-animate-choice,61,491753,0.0-61.0-0.0,TRUE,FALSE,TRUE,TRUE,"""event"",""trial"",""time""
""fullscreenenter"",""5"",""22807""
","
","
","""event"",""trial"",""time""
""fullscreenenter"",""5"",""22807""
","
",1760.5299999995623,NA,49,NA,NA,3000,1,NA,NA,images/earth.jpg,images/tutrocket2,images/tutrocket1,null,images/tutrocket1,NA,1,practice,null,1,NA,NA,NA,sub38
d3-animate-choice,62,495765,0.0-61.0-1.0,TRUE,FALSE,TRUE,TRUE,"""event"",""trial"",""time""
""fullscreenenter"",""5"",""22807""
","
","
","""event"",""trial"",""time""
""fullscreenenter"",""5"",""22807""
","
",null,NA,null,NA,NA,3000,0,NA,NA,images/tutyellowplanet.jpg,images/tutalien4,images/tutalien3,images/tutrocket1,NA,NA,2,practice,true,NA,common,0,2020-06-12T16:37:10Z,sub38
two-step-fixation,63,496771,0.0-61.0-2.0,TRUE,FALSE,TRUE,TRUE,"""event"",""trial"",""time""
""fullscreenenter"",""5"",""22807""
","
","
","""event"",""trial"",""time""
""fullscreenenter"",""5"",""22807""
","
",NA,images/earth.jpg,NA,NA,NA,NA,NA,NA,NA,NA,NA,NA,NA,NA,NA,fixation,NA,NA,NA,NA,NA,NA,sub38
d3-animate-choice,64,500254,0.0-61.0-0.1,TRUE,FALSE,TRUE,TRUE,"""event"",""trial"",""time""
""fullscreenenter"",""5"",""22807""
","
","
","""event"",""trial"",""time""
""fullscreenenter"",""5"",""22807""
","
",1476.5649999899324,NA,49,NA,NA,3000,1,NA,NA,images/earth.jpg,images/tutrocket2,images/tutrocket1,null,images/tutrocket1,NA,1,practice,null,1,NA,NA,NA,sub38
d3-animate-choice,65,504260,0.0-61.0-1.1,TRUE,FALSE,TRUE,TRUE,"""event"",""trial"",""time""
""fullscreenenter"",""5"",""22807""
","
","
","""event"",""trial"",""time""
""fullscreenenter"",""5"",""22807""
","
",2495.924999995623,NA,48,NA,NA,3000,1,NA,NA,images/tutgreenplanet.jpg,images/tutalien2,images/tutalien1,images/tutrocket1,images/tutalien2,images/nothing.png,2,practice,false,2,rare,0,2020-06-12T16:37:18Z,sub38
two-step-fixation,66,505263,0.0-61.0-2.1,TRUE,FALSE,TRUE,TRUE,"""event"",""trial"",""time""
""fullscreenenter"",""5"",""22807""
","
","
","""event"",""trial"",""time""
""fullscreenenter"",""5"",""22807""
","
",NA,images/earth.jpg,NA,NA,NA,NA,NA,NA,NA,NA,NA,NA,NA,NA,NA,fixation,NA,NA,NA,NA,NA,NA,sub38
d3-animate-choice,67,508832,0.0-61.0-0.2,TRUE,FALSE,TRUE,TRUE,"""event"",""trial"",""time""
""fullscreenenter"",""5"",""22807""
","
","
","""event"",""trial"",""time""
""fullscreenenter"",""5"",""22807""
","
",1563.9899999951012,NA,48,NA,NA,3000,1,NA,NA,images/earth.jpg,images/tutrocket2,images/tutrocket1,null,images/tutrocket2,NA,1,practice,null,2,NA,NA,NA,sub38
d3-animate-choice,68,511397,0.0-61.0-1.2,TRUE,FALSE,TRUE,TRUE,"""event"",""trial"",""time""
""fullscreenenter"",""5"",""22807""
","
","
","""event"",""trial"",""time""
""fullscreenenter"",""5"",""22807""
","
",559.1649999842048,NA,49,NA,NA,3000,1,NA,NA,images/tutgreenplanet.jpg,images/tutalien2,images/tutalien1,images/tutrocket2,images/tutalien1,images/t.png,2,practice,true,1,common,1,2020-06-12T16:37:26Z,sub38
two-step-fixation,69,512405,0.0-61.0-2.2,TRUE,FALSE,TRUE,TRUE,"""event"",""trial"",""time""
""fullscreenenter"",""5"",""22807""
","
","
","""event"",""trial"",""time""
""fullscreenenter"",""5"",""22807""
","
",NA,images/earth.jpg,NA,NA,NA,NA,NA,NA,NA,NA,NA,NA,NA,NA,NA,fixation,NA,NA,NA,NA,NA,NA,sub38
d3-animate-choice,70,515396,0.0-61.0-0.3,TRUE,FALSE,TRUE,TRUE,"""event"",""trial"",""time""
""fullscreenenter"",""5"",""22807""
","
","
","""event"",""trial"",""time""
""fullscreenenter"",""5"",""22807""
","
",984.4849999935832,NA,49,NA,NA,3000,1,NA,NA,images/earth.jpg,images/tutrocket2,images/tutrocket1,null,images/tutrocket1,NA,1,practice,null,1,NA,NA,NA,sub38
d3-animate-choice,71,518303,0.0-61.0-1.3,TRUE,FALSE,TRUE,TRUE,"""event"",""trial"",""time""
""fullscreenenter"",""5"",""22807""
","
","
","""event"",""trial"",""time""
""fullscreenenter"",""5"",""22807""
","
",899.3149999878369,NA,48,NA,NA,3000,1,NA,NA,images/tutyellowplanet.jpg,images/tutalien4,images/tutalien3,images/tutrocket1,images/tutalien4,images/nothing.png,2,practice,true,2,common,0,2020-06-12T16:37:32Z,sub38
two-step-fixation,72,519308,0.0-61.0-2.3,TRUE,FALSE,TRUE,TRUE,"""event"",""trial"",""time""
""fullscreenenter"",""5"",""22807""
","
","
","""event"",""trial"",""time""
""fullscreenenter"",""5"",""22807""
","
",NA,images/earth.jpg,NA,NA,NA,NA,NA,NA,NA,NA,NA,NA,NA,NA,NA,fixation,NA,NA,NA,NA,NA,NA,sub38
d3-animate-choice,73,523298,0.0-61.0-0.4,TRUE,FALSE,TRUE,TRUE,"""event"",""trial"",""time""
""fullscreenenter"",""5"",""22807""
","
","
","""event"",""trial"",""time""
""fullscreenenter"",""5"",""22807""
","
",1982.7799999911804,NA,48,NA,NA,3000,1,NA,NA,images/earth.jpg,images/tutrocket2,images/tutrocket1,null,images/tutrocket2,NA,1,practice,null,2,NA,NA,NA,sub38
d3-animate-choice,74,526383,0.0-61.0-1.4,TRUE,FALSE,TRUE,TRUE,"""event"",""trial"",""time""
""fullscreenenter"",""5"",""22807""
","
","
","""event"",""trial"",""time""
""fullscreenenter"",""5"",""22807""
","
",1079.3199999898206,NA,49,NA,NA,3000,1,NA,NA,images/tutyellowplanet.jpg,images/tutalien4,images/tutalien3,images/tutrocket2,images/tutalien3,images/nothing.png,2,practice,false,1,rare,0,2020-06-12T16:37:40Z,sub38
two-step-fixation,75,527389,0.0-61.0-2.4,TRUE,FALSE,TRUE,TRUE,"""event"",""trial"",""time""
""fullscreenenter"",""5"",""22807""
","
","
","""event"",""trial"",""time""
""fullscreenenter"",""5"",""22807""
","
",NA,images/earth.jpg,NA,NA,NA,NA,NA,NA,NA,NA,NA,NA,NA,NA,NA,fixation,NA,NA,NA,NA,NA,NA,sub38
d3-animate-choice,76,530114,0.0-61.0-0.5,TRUE,FALSE,TRUE,TRUE,"""event"",""trial"",""time""
""fullscreenenter"",""5"",""22807""
","
","
","""event"",""trial"",""time""
""fullscreenenter"",""5"",""22807""
","
",717.0949999999721,NA,48,NA,NA,3000,1,NA,NA,images/earth.jpg,images/tutrocket2,images/tutrocket1,null,images/tutrocket2,NA,1,practice,null,2,NA,NA,NA,sub38
d3-animate-choice,77,532710,0.0-61.0-1.5,TRUE,FALSE,TRUE,TRUE,"""event"",""trial"",""time""
""fullscreenenter"",""5"",""22807""
","
","
","""event"",""trial"",""time""
""fullscreenenter"",""5"",""22807""
","
",590.4950000112876,NA,48,NA,NA,3000,1,NA,NA,images/tutgreenplanet.jpg,images/tutalien2,images/tutalien1,images/tutrocket2,images/tutalien2,images/t.png,2,practice,true,2,common,1,2020-06-12T16:37:47Z,sub38
two-step-fixation,78,533716,0.0-61.0-2.5,TRUE,FALSE,TRUE,TRUE,"""event"",""trial"",""time""
""fullscreenenter"",""5"",""22807""
","
","
","""event"",""trial"",""time""
""fullscreenenter"",""5"",""22807""
","
",NA,images/earth.jpg,NA,NA,NA,NA,NA,NA,NA,NA,NA,NA,NA,NA,NA,fixation,NA,NA,NA,NA,NA,NA,sub38
d3-animate-choice,79,536471,0.0-61.0-0.6,TRUE,FALSE,TRUE,TRUE,"""event"",""trial"",""time""
""fullscreenenter"",""5"",""22807""
","
","
","""event"",""trial"",""time""
""fullscreenenter"",""5"",""22807""
","
",747.4050000018906,NA,48,NA,NA,3000,1,NA,NA,images/earth.jpg,images/tutrocket2,images/tutrocket1,null,images/tutrocket2,NA,1,practice,null,2,NA,NA,NA,sub38
d3-animate-choice,80,538547,0.0-61.0-1.6,TRUE,FALSE,TRUE,TRUE,"""event"",""trial"",""time""
""fullscreenenter"",""5"",""22807""
","
","
","""event"",""trial"",""time""
""fullscreenenter"",""5"",""22807""
","
",69.76499999291264,NA,49,NA,NA,3000,1,NA,NA,images/tutgreenplanet.jpg,images/tutalien2,images/tutalien1,images/tutrocket2,images/tutalien1,images/nothing.png,2,practice,true,1,common,0,2020-06-12T16:37:53Z,sub38
two-step-fixation,81,539553,0.0-61.0-2.6,TRUE,FALSE,TRUE,TRUE,"""event"",""trial"",""time""
""fullscreenenter"",""5"",""22807""
","
","
","""event"",""trial"",""time""
""fullscreenenter"",""5"",""22807""
","
",NA,images/earth.jpg,NA,NA,NA,NA,NA,NA,NA,NA,NA,NA,NA,NA,NA,fixation,NA,NA,NA,NA,NA,NA,sub38
d3-animate-choice,82,542079,0.0-61.0-0.7,TRUE,FALSE,TRUE,TRUE,"""event"",""trial"",""time""
""fullscreenenter"",""5"",""22807""
","
","
","""event"",""trial"",""time""
""fullscreenenter"",""5"",""22807""
","
",519.3499999877531,NA,48,NA,NA,3000,1,NA,NA,images/earth.jpg,images/tutrocket2,images/tutrocket1,null,images/tutrocket2,NA,1,practice,null,2,NA,NA,NA,sub38
d3-animate-choice,83,544872,0.0-61.0-1.7,TRUE,FALSE,TRUE,TRUE,"""event"",""trial"",""time""
""fullscreenenter"",""5"",""22807""
","
","
","""event"",""trial"",""time""
""fullscreenenter"",""5"",""22807""
","
",787.2450000140816,NA,49,NA,NA,3000,1,NA,NA,images/tutgreenplanet.jpg,images/tutalien2,images/tutalien1,images/tutrocket2,images/tutalien1,images/nothing.png,2,practice,true,1,common,0,2020-06-12T16:37:59Z,sub38
two-step-fixation,84,545876,0.0-61.0-2.7,TRUE,FALSE,TRUE,TRUE,"""event"",""trial"",""time""
""fullscreenenter"",""5"",""22807""
","
","
","""event"",""trial"",""time""
""fullscreenenter"",""5"",""22807""
","
",NA,images/earth.jpg,NA,NA,NA,NA,NA,NA,NA,NA,NA,NA,NA,NA,NA,fixation,NA,NA,NA,NA,NA,NA,sub38
d3-animate-choice,85,548322,0.0-61.0-0.8,TRUE,FALSE,TRUE,TRUE,"""event"",""trial"",""time""
""fullscreenenter"",""5"",""22807""
","
","
","""event"",""trial"",""time""
""fullscreenenter"",""5"",""22807""
","
",440.02999999793246,NA,49,NA,NA,3000,1,NA,NA,images/earth.jpg,images/tutrocket2,images/tutrocket1,null,images/tutrocket1,NA,1,practice,null,1,NA,NA,NA,sub38
d3-animate-choice,86,550729,0.0-61.0-1.8,TRUE,FALSE,TRUE,TRUE,"""event"",""trial"",""time""
""fullscreenenter"",""5"",""22807""
","
","
","""event"",""trial"",""time""
""fullscreenenter"",""5"",""22807""
","
",401.01999999023974,NA,49,NA,NA,3000,1,NA,NA,images/tutyellowplanet.jpg,images/tutalien4,images/tutalien3,images/tutrocket1,images/tutalien3,images/nothing.png,2,practice,true,1,common,0,2020-06-12T16:38:05Z,sub38
two-step-fixation,87,551734,0.0-61.0-2.8,TRUE,FALSE,TRUE,TRUE,"""event"",""trial"",""time""
""fullscreenenter"",""5"",""22807""
","
","
","""event"",""trial"",""time""
""fullscreenenter"",""5"",""22807""
","
",NA,images/earth.jpg,NA,NA,NA,NA,NA,NA,NA,NA,NA,NA,NA,NA,NA,fixation,NA,NA,NA,NA,NA,NA,sub38
d3-animate-choice,88,554217,0.0-61.0-0.9,TRUE,FALSE,TRUE,TRUE,"""event"",""trial"",""time""
""fullscreenenter"",""5"",""22807""
","
","
","""event"",""trial"",""time""
""fullscreenenter"",""5"",""22807""
","
",477.3900000145659,NA,49,NA,NA,3000,1,2304.295000009006,48,images/earth.jpg,images/tutrocket2,images/tutrocket1,null,images/tutrocket1,NA,1,practice,null,1,NA,NA,NA,sub38
d3-animate-choice,89,556680,0.0-61.0-1.9,TRUE,FALSE,TRUE,TRUE,"""event"",""trial"",""time""
""fullscreenenter"",""5"",""22807""
","
","
","""event"",""trial"",""time""
""fullscreenenter"",""5"",""22807""
","
",456.7749999987427,NA,48,NA,NA,3000,1,NA,NA,images/tutyellowplanet.jpg,images/tutalien4,images/tutalien3,images/tutrocket1,images/tutalien4,images/nothing.png,2,practice,true,2,common,0,2020-06-12T16:38:11Z,sub38
two-step-fixation,90,557686,0.0-61.0-2.9,TRUE,FALSE,TRUE,TRUE,"""event"",""trial"",""time""
""fullscreenenter"",""5"",""22807""
","
","
","""event"",""trial"",""time""
""fullscreenenter"",""5"",""22807""
","
",NA,images/earth.jpg,NA,NA,NA,NA,NA,NA,NA,NA,NA,NA,NA,NA,NA,fixation,NA,NA,NA,NA,NA,NA,sub38
d3-animate-choice,91,561300,0.0-61.0-0.10,TRUE,FALSE,TRUE,TRUE,"""event"",""trial"",""time""
""fullscreenenter"",""5"",""22807""
","
","
","""event"",""trial"",""time""
""fullscreenenter"",""5"",""22807""
","
",1607.545000006212,NA,49,NA,NA,3000,1,3515.385000006063,48,images/earth.jpg,images/tutrocket2,images/tutrocket1,null,images/tutrocket1,NA,1,practice,null,1,NA,NA,NA,sub38
d3-animate-choice,92,564307,0.0-61.0-1.10,TRUE,FALSE,TRUE,TRUE,"""event"",""trial"",""time""
""fullscreenenter"",""5"",""22807""
","
","
","""event"",""trial"",""time""
""fullscreenenter"",""5"",""22807""
","
",1000.2450000029057,NA,49,NA,NA,3000,1,NA,NA,images/tutyellowplanet.jpg,images/tutalien4,images/tutalien3,images/tutrocket1,images/tutalien3,images/t.png,2,practice,true,1,common,1,2020-06-12T16:38:18Z,sub38
two-step-fixation,93,565313,0.0-61.0-2.10,TRUE,FALSE,TRUE,TRUE,"""event"",""trial"",""time""
""fullscreenenter"",""5"",""22807""
","
","
","""event"",""trial"",""time""
""fullscreenenter"",""5"",""22807""
","
",NA,images/earth.jpg,NA,NA,NA,NA,NA,NA,NA,NA,NA,NA,NA,NA,NA,fixation,NA,NA,NA,NA,NA,NA,sub38
d3-animate-choice,94,568729,0.0-61.0-0.11,TRUE,FALSE,TRUE,TRUE,"""event"",""trial"",""time""
""fullscreenenter"",""5"",""22807""
","
","
","""event"",""trial"",""time""
""fullscreenenter"",""5"",""22807""
","
",1409.0699999942444,NA,49,NA,NA,3000,1,NA,NA,images/earth.jpg,images/tutrocket2,images/tutrocket1,null,images/tutrocket1,NA,1,practice,null,1,NA,NA,NA,sub38
d3-animate-choice,95,571656,0.0-61.0-1.11,TRUE,FALSE,TRUE,TRUE,"""event"",""trial"",""time""
""fullscreenenter"",""5"",""22807""
","
","
","""event"",""trial"",""time""
""fullscreenenter"",""5"",""22807""
","
",920.0500000151806,NA,48,NA,NA,3000,1,NA,NA,images/tutyellowplanet.jpg,images/tutalien4,images/tutalien3,images/tutrocket1,images/tutalien4,images/t.png,2,practice,true,2,common,1,2020-06-12T16:38:26Z,sub38
two-step-fixation,96,572661,0.0-61.0-2.11,TRUE,FALSE,TRUE,TRUE,"""event"",""trial"",""time""
""fullscreenenter"",""5"",""22807""
","
","
","""event"",""trial"",""time""
""fullscreenenter"",""5"",""22807""
","
",NA,images/earth.jpg,NA,NA,NA,NA,NA,NA,NA,NA,NA,NA,NA,NA,NA,fixation,NA,NA,NA,NA,NA,NA,sub38
d3-animate-choice,97,576117,0.0-61.0-0.12,TRUE,FALSE,TRUE,TRUE,"""event"",""trial"",""time""
""fullscreenenter"",""5"",""22807""
","
","
","""event"",""trial"",""time""
""fullscreenenter"",""5"",""22807""
","
",1450.459999992745,NA,49,NA,NA,3000,1,NA,NA,images/earth.jpg,images/tutrocket2,images/tutrocket1,null,images/tutrocket1,NA,1,practice,null,1,NA,NA,NA,sub38
d3-animate-choice,98,579473,0.0-61.0-1.12,TRUE,FALSE,TRUE,TRUE,"""event"",""trial"",""time""
""fullscreenenter"",""5"",""22807""
","
","
","""event"",""trial"",""time""
""fullscreenenter"",""5"",""22807""
","
",1349.7900000074878,NA,48,NA,NA,3000,1,NA,NA,images/tutyellowplanet.jpg,images/tutalien4,images/tutalien3,images/tutrocket1,images/tutalien4,images/nothing.png,2,practice,true,2,common,0,2020-06-12T16:38:34Z,sub38
two-step-fixation,99,580478,0.0-61.0-2.12,TRUE,FALSE,TRUE,TRUE,"""event"",""trial"",""time""
""fullscreenenter"",""5"",""22807""
","
","
","""event"",""trial"",""time""
""fullscreenenter"",""5"",""22807""
","
",NA,images/earth.jpg,NA,NA,NA,NA,NA,NA,NA,NA,NA,NA,NA,NA,NA,fixation,NA,NA,NA,NA,NA,NA,sub38
d3-animate-choice,100,583412,0.0-61.0-0.13,TRUE,FALSE,TRUE,TRUE,"""event"",""trial"",""time""
""fullscreenenter"",""5"",""22807""
","
","
","""event"",""trial"",""time""
""fullscreenenter"",""5"",""22807""
","
",927.125000016531,NA,48,NA,NA,3000,1,NA,NA,images/earth.jpg,images/tutrocket2,images/tutrocket1,null,images/tutrocket2,NA,1,practice,null,2,NA,NA,NA,sub38
d3-animate-choice,101,586163,0.0-61.0-1.13,TRUE,FALSE,TRUE,TRUE,"""event"",""trial"",""time""
""fullscreenenter"",""5"",""22807""
","
","
","""event"",""trial"",""time""
""fullscreenenter"",""5"",""22807""
","
",743.4549999888986,NA,49,NA,NA,3000,1,NA,NA,images/tutyellowplanet.jpg,images/tutalien4,images/tutalien3,images/tutrocket2,images/tutalien3,images/nothing.png,2,practice,false,1,rare,0,2020-06-12T16:38:40Z,sub38
two-step-fixation,102,587168,0.0-61.0-2.13,TRUE,FALSE,TRUE,TRUE,"""event"",""trial"",""time""
""fullscreenenter"",""5"",""22807""
","
","
","""event"",""trial"",""time""
""fullscreenenter"",""5"",""22807""
","
",NA,images/earth.jpg,NA,NA,NA,NA,NA,NA,NA,NA,NA,NA,NA,NA,NA,fixation,NA,NA,NA,NA,NA,NA,sub38
d3-animate-choice,103,590466,0.0-61.0-0.14,TRUE,FALSE,TRUE,TRUE,"""event"",""trial"",""time""
""fullscreenenter"",""5"",""22807""
","
","
","""event"",""trial"",""time""
""fullscreenenter"",""5"",""22807""
","
",1292.5950000062585,NA,48,NA,NA,3000,1,NA,NA,images/earth.jpg,images/tutrocket2,images/tutrocket1,null,images/tutrocket2,NA,1,practice,null,2,NA,NA,NA,sub38
d3-animate-choice,104,593162,0.0-61.0-1.14,TRUE,FALSE,TRUE,TRUE,"""event"",""trial"",""time""
""fullscreenenter"",""5"",""22807""
","
","
","""event"",""trial"",""time""
""fullscreenenter"",""5"",""22807""
","
",690.1099999959115,NA,49,NA,NA,3000,1,NA,NA,images/tutgreenplanet.jpg,images/tutalien2,images/tutalien1,images/tutrocket2,images/tutalien1,images/nothing.png,2,practice,true,1,common,0,2020-06-12T16:38:47Z,sub38
two-step-fixation,105,594167,0.0-61.0-2.14,TRUE,FALSE,TRUE,TRUE,"""event"",""trial"",""time""
""fullscreenenter"",""5"",""22807""
","
","
","""event"",""trial"",""time""
""fullscreenenter"",""5"",""22807""
","
",NA,images/earth.jpg,NA,NA,NA,NA,NA,NA,NA,NA,NA,NA,NA,NA,NA,fixation,NA,NA,NA,NA,NA,NA,sub38
d3-animate-choice,106,596700,0.0-61.0-0.15,TRUE,FALSE,TRUE,TRUE,"""event"",""trial"",""time""
""fullscreenenter"",""5"",""22807""
","
","
","""event"",""trial"",""time""
""fullscreenenter"",""5"",""22807""
","
",525.5950000137091,NA,49,NA,NA,3000,1,2018.5200000123587,49,images/earth.jpg,images/tutrocket2,images/tutrocket1,null,images/tutrocket1,NA,1,practice,null,1,NA,NA,NA,sub38
d3-animate-choice,107,598751,0.0-61.0-1.15,TRUE,FALSE,TRUE,TRUE,"""event"",""trial"",""time""
""fullscreenenter"",""5"",""22807""
","
","
","""event"",""trial"",""time""
""fullscreenenter"",""5"",""22807""
","
",44.865000003483146,NA,49,NA,NA,3000,1,570.1799999806099,49,images/tutyellowplanet.jpg,images/tutalien4,images/tutalien3,images/tutrocket1,images/tutalien3,images/nothing.png,2,practice,true,1,common,0,2020-06-12T16:38:53Z,sub38
two-step-fixation,108,599755,0.0-61.0-2.15,TRUE,FALSE,TRUE,TRUE,"""event"",""trial"",""time""
""fullscreenenter"",""5"",""22807""
","
","
","""event"",""trial"",""time""
""fullscreenenter"",""5"",""22807""
","
",NA,images/earth.jpg,NA,NA,NA,NA,NA,NA,NA,NA,NA,NA,NA,NA,NA,fixation,NA,NA,NA,NA,NA,NA,sub38
d3-animate-choice,109,602406,0.0-61.0-0.16,TRUE,FALSE,TRUE,TRUE,"""event"",""trial"",""time""
""fullscreenenter"",""5"",""22807""
","
","
","""event"",""trial"",""time""
""fullscreenenter"",""5"",""22807""
","
",644.0100000181701,NA,48,NA,NA,3000,1,NA,NA,images/earth.jpg,images/tutrocket2,images/tutrocket1,null,images/tutrocket2,NA,1,practice,null,2,NA,NA,NA,sub38
d3-animate-choice,110,604866,0.0-61.0-1.16,TRUE,FALSE,TRUE,TRUE,"""event"",""trial"",""time""
""fullscreenenter"",""5"",""22807""
","
","
","""event"",""trial"",""time""
""fullscreenenter"",""5"",""22807""
","
",454.2749999964144,NA,48,NA,NA,3000,1,NA,NA,images/tutgreenplanet.jpg,images/tutalien2,images/tutalien1,images/tutrocket2,images/tutalien2,images/nothing.png,2,practice,true,2,common,0,2020-06-12T16:38:59Z,sub38
two-step-fixation,111,605871,0.0-61.0-2.16,TRUE,FALSE,TRUE,TRUE,"""event"",""trial"",""time""
""fullscreenenter"",""5"",""22807""
","
","
","""event"",""trial"",""time""
""fullscreenenter"",""5"",""22807""
","
",NA,images/earth.jpg,NA,NA,NA,NA,NA,NA,NA,NA,NA,NA,NA,NA,NA,fixation,NA,NA,NA,NA,NA,NA,sub38
d3-animate-choice,112,608527,0.0-61.0-0.17,TRUE,FALSE,TRUE,TRUE,"""event"",""trial"",""time""
""fullscreenenter"",""5"",""22807""
","
","
","""event"",""trial"",""time""
""fullscreenenter"",""5"",""22807""
","
",650.3850000153761,NA,49,NA,NA,3000,1,NA,NA,images/earth.jpg,images/tutrocket2,images/tutrocket1,null,images/tutrocket1,NA,1,practice,null,1,NA,NA,NA,sub38
d3-animate-choice,113,610864,0.0-61.0-1.17,TRUE,FALSE,TRUE,TRUE,"""event"",""trial"",""time""
""fullscreenenter"",""5"",""22807""
","
","
","""event"",""trial"",""time""
""fullscreenenter"",""5"",""22807""
","
",332.4599999759812,NA,48,NA,NA,3000,1,NA,NA,images/tutyellowplanet.jpg,images/tutalien4,images/tutalien3,images/tutrocket1,images/tutalien4,images/nothing.png,2,practice,true,2,common,0,2020-06-12T16:39:05Z,sub38
two-step-fixation,114,611869,0.0-61.0-2.17,TRUE,FALSE,TRUE,TRUE,"""event"",""trial"",""time""
""fullscreenenter"",""5"",""22807""
","
","
","""event"",""trial"",""time""
""fullscreenenter"",""5"",""22807""
","
",NA,images/earth.jpg,NA,NA,NA,NA,NA,NA,NA,NA,NA,NA,NA,NA,NA,fixation,NA,NA,NA,NA,NA,NA,sub38
d3-animate-choice,115,615181,0.0-61.0-0.18,TRUE,FALSE,TRUE,TRUE,"""event"",""trial"",""time""
""fullscreenenter"",""5"",""22807""
","
","
","""event"",""trial"",""time""
""fullscreenenter"",""5"",""22807""
","
",1306.2449999852106,NA,48,NA,NA,3000,1,NA,NA,images/earth.jpg,images/tutrocket2,images/tutrocket1,null,images/tutrocket2,NA,1,practice,null,2,NA,NA,NA,sub38
d3-animate-choice,116,618073,0.0-61.0-1.18,TRUE,FALSE,TRUE,TRUE,"""event"",""trial"",""time""
""fullscreenenter"",""5"",""22807""
","
","
","""event"",""trial"",""time""
""fullscreenenter"",""5"",""22807""
","
",885.4750000173226,NA,49,NA,NA,3000,1,NA,NA,images/tutgreenplanet.jpg,images/tutalien2,images/tutalien1,images/tutrocket2,images/tutalien1,images/nothing.png,2,practice,true,1,common,0,2020-06-12T16:39:12Z,sub38
two-step-fixation,117,619079,0.0-61.0-2.18,TRUE,FALSE,TRUE,TRUE,"""event"",""trial"",""time""
""fullscreenenter"",""5"",""22807""
","
","
","""event"",""trial"",""time""
""fullscreenenter"",""5"",""22807""
","
",NA,images/earth.jpg,NA,NA,NA,NA,NA,NA,NA,NA,NA,NA,NA,NA,NA,fixation,NA,NA,NA,NA,NA,NA,sub38
d3-animate-choice,118,623085,0.0-61.0-0.19,TRUE,FALSE,TRUE,TRUE,"""event"",""trial"",""time""
""fullscreenenter"",""5"",""22807""
","
","
","""event"",""trial"",""time""
""fullscreenenter"",""5"",""22807""
","
",2751.5699999930803,NA,48,NA,NA,3000,1,NA,NA,images/earth.jpg,images/tutrocket2,images/tutrocket1,null,images/tutrocket2,NA,1,practice,null,2,NA,NA,NA,sub38
d3-animate-choice,119,625822,0.0-61.0-1.19,TRUE,FALSE,TRUE,TRUE,"""event"",""trial"",""time""
""fullscreenenter"",""5"",""22807""
","
","
","""event"",""trial"",""time""
""fullscreenenter"",""5"",""22807""
","
",731.5750000125263,NA,48,NA,NA,3000,1,NA,NA,images/tutgreenplanet.jpg,images/tutalien2,images/tutalien1,images/tutrocket2,images/tutalien2,images/nothing.png,2,practice,true,2,common,0,2020-06-12T16:39:20Z,sub38
two-step-fixation,120,626827,0.0-61.0-2.19,TRUE,FALSE,TRUE,TRUE,"""event"",""trial"",""time""
""fullscreenenter"",""5"",""22807""
","
","
","""event"",""trial"",""time""
""fullscreenenter"",""5"",""22807""
","
",NA,images/earth.jpg,NA,NA,NA,NA,NA,NA,NA,NA,NA,NA,NA,NA,NA,fixation,NA,NA,NA,NA,NA,NA,sub38
d3-instructions,121,640859,0.0-62.0,TRUE,FALSE,TRUE,TRUE,"""event"",""trial"",""time""
""fullscreenenter"",""5"",""22807""
","
","
","""event"",""trial"",""time""
""fullscreenenter"",""5"",""22807""
","
",NA,NA,NA,NA,NA,NA,NA,NA,NA,NA,NA,NA,NA,NA,NA,NA,NA,NA,NA,NA,NA,NA,sub38
audio-keyboard-response,122,646342,0.0-63.0,TRUE,FALSE,TRUE,TRUE,"""event"",""trial"",""time""
""fullscreenenter"",""5"",""22807""
","
","
","""event"",""trial"",""time""
""fullscreenenter"",""5"",""22807""
","
",5486,audio/instructions/treasure_feedback.wav,32,NA,NA,NA,NA,NA,NA,NA,NA,NA,NA,NA,NA,NA,NA,NA,NA,NA,NA,NA,sub38
d3-instructions,123,667379,0.0-64.0,TRUE,FALSE,TRUE,TRUE,"""event"",""trial"",""time""
""fullscreenenter"",""5"",""22807""
","
","
","""event"",""trial"",""time""
""fullscreenenter"",""5"",""22807""
","
",NA,NA,NA,NA,NA,NA,NA,NA,NA,NA,NA,NA,NA,NA,NA,NA,NA,NA,NA,NA,NA,NA,sub38
d3-instructions,124,680346,0.0-65.0,TRUE,FALSE,TRUE,TRUE,"""event"",""trial"",""time""
""fullscreenenter"",""5"",""22807""
","
","
","""event"",""trial"",""time""
""fullscreenenter"",""5"",""22807""
","
",NA,NA,NA,NA,NA,NA,NA,NA,NA,NA,NA,NA,NA,NA,NA,NA,NA,NA,NA,NA,NA,NA,sub38
d3-instructions,125,704643,0.0-66.0,TRUE,FALSE,TRUE,TRUE,"""event"",""trial"",""time""
""fullscreenenter"",""5"",""22807""
","
","
","""event"",""trial"",""time""
""fullscreenenter"",""5"",""22807""
","
",NA,NA,NA,NA,NA,NA,NA,NA,NA,NA,NA,NA,NA,NA,NA,NA,NA,NA,NA,NA,NA,NA,sub38
d3-instructions,126,720782,0.0-67.0,TRUE,FALSE,TRUE,TRUE,"""event"",""trial"",""time""
""fullscreenenter"",""5"",""22807""
","
","
","""event"",""trial"",""time""
""fullscreenenter"",""5"",""22807""
","
",NA,NA,NA,NA,NA,NA,NA,NA,NA,NA,NA,NA,NA,NA,NA,NA,NA,NA,NA,NA,NA,NA,sub38
d3-instructions,127,733115,0.0-68.0,TRUE,FALSE,TRUE,TRUE,"""event"",""trial"",""time""
""fullscreenenter"",""5"",""22807""
","
","
","""event"",""trial"",""time""
""fullscreenenter"",""5"",""22807""
","
",NA,NA,NA,NA,NA,NA,NA,NA,NA,NA,NA,NA,NA,NA,NA,NA,NA,NA,NA,NA,NA,NA,sub38
instructions-quiz,128,737493,0.0-69.0,TRUE,FALSE,TRUE,TRUE,"""event"",""trial"",""time""
""fullscreenenter"",""5"",""22807""
","
","
","""event"",""trial"",""time""
""fullscreenenter"",""5"",""22807""
","
",4374.1549999977,audio/quiz/Q1_Prompt.wav,NA,1,NA,NA,NA,NA,NA,NA,NA,NA,NA,NA,NA,NA,NA,NA,NA,NA,NA,NA,sub38
audio-keyboard-response,129,743685,0.0-70.0,TRUE,FALSE,TRUE,TRUE,"""event"",""trial"",""time""
""fullscreenenter"",""5"",""22807""
","
","
","""event"",""trial"",""time""
""fullscreenenter"",""5"",""22807""
","
",6197,audio/quiz/Q1_Correct.wav,32,NA,NA,NA,NA,NA,NA,NA,NA,NA,NA,NA,NA,NA,NA,NA,NA,NA,NA,NA,sub38
instructions-quiz,130,754976,0.0-71.0,TRUE,FALSE,TRUE,TRUE,"""event"",""trial"",""time""
""fullscreenenter"",""5"",""22807""
","
","
","""event"",""trial"",""time""
""fullscreenenter"",""5"",""22807""
","
",11288.765000004787,audio/quiz/Q2_Prompt.wav,NA,0,NA,NA,NA,NA,NA,NA,NA,NA,NA,NA,NA,NA,NA,NA,NA,NA,NA,NA,sub38
audio-keyboard-response,131,767841,0.0-72.0,TRUE,FALSE,TRUE,TRUE,"""event"",""trial"",""time""
""fullscreenenter"",""5"",""22807""
","
","
","""event"",""trial"",""time""
""fullscreenenter"",""5"",""22807""
","
",null,audio/quiz/Q2_Correct.wav,null,NA,NA,NA,NA,NA,NA,NA,NA,NA,NA,NA,NA,NA,NA,NA,NA,NA,NA,NA,sub38
instructions-quiz,132,771849,0.0-73.0,TRUE,FALSE,TRUE,TRUE,"""event"",""trial"",""time""
""fullscreenenter"",""5"",""22807""
","
","
","""event"",""trial"",""time""
""fullscreenenter"",""5"",""22807""
","
",4006.5299999841955,audio/quiz/Q3_Prompt.wav,NA,1,NA,NA,NA,NA,NA,NA,NA,NA,NA,NA,NA,NA,NA,NA,NA,NA,NA,NA,sub38
audio-keyboard-response,133,777645,0.0-74.0,TRUE,FALSE,TRUE,TRUE,"""event"",""trial"",""time""
""fullscreenenter"",""5"",""22807""
","
","
","""event"",""trial"",""time""
""fullscreenenter"",""5"",""22807""
","
",null,audio/quiz/Q3_Correct.wav,null,NA,NA,NA,NA,NA,NA,NA,NA,NA,NA,NA,NA,NA,NA,NA,NA,NA,NA,NA,sub38
d3-instructions,134,791156,0.0-75.0,TRUE,FALSE,TRUE,TRUE,"""event"",""trial"",""time""
""fullscreenenter"",""5"",""22807""
","
","
","""event"",""trial"",""time""
""fullscreenenter"",""5"",""22807""
","
",NA,NA,NA,NA,NA,NA,NA,NA,NA,NA,NA,NA,NA,NA,NA,NA,NA,NA,NA,NA,NA,NA,sub38
d3-animate-choice,135,795164,0.0-76.0-0.0,TRUE,FALSE,TRUE,TRUE,"""event"",""trial"",""time""
""fullscreenenter"",""5"",""22807""
","
","
","""event"",""trial"",""time""
""fullscreenenter"",""5"",""22807""
","
",2232.6650000177324,NA,49,NA,NA,3000,1,NA,NA,images/earth.jpg,images/rocket2,images/rocket1,null,images/rocket1,NA,1,real,null,1,NA,NA,NA,sub38
d3-animate-choice,136,798362,0.0-76.0-1.0,TRUE,FALSE,TRUE,TRUE,"""event"",""trial"",""time""
""fullscreenenter"",""5"",""22807""
","
","
","""event"",""trial"",""time""
""fullscreenenter"",""5"",""22807""
","
",1192.3550000065006,NA,49,NA,NA,3000,1,NA,NA,images/redplanet1.jpg,images/alien2,images/alien1,images/rocket1,images/alien1,images/nothing.png,2,real,false,1,rare,0,2020-06-12T16:42:12Z,sub38
two-step-fixation,137,799368,0.0-76.0-2.0,TRUE,FALSE,TRUE,TRUE,"""event"",""trial"",""time""
""fullscreenenter"",""5"",""22807""
","
","
","""event"",""trial"",""time""
""fullscreenenter"",""5"",""22807""
","
",NA,images/earth.jpg,NA,NA,NA,NA,NA,NA,NA,NA,NA,NA,NA,NA,NA,fixation,NA,NA,NA,NA,NA,NA,sub38
d3-animate-choice,138,801808,0.0-76.0-0.1,TRUE,FALSE,TRUE,TRUE,"""event"",""trial"",""time""
""fullscreenenter"",""5"",""22807""
","
","
","""event"",""trial"",""time""
""fullscreenenter"",""5"",""22807""
","
",433.1650000240188,NA,48,NA,NA,3000,1,NA,NA,images/earth.jpg,images/rocket2,images/rocket1,null,images/rocket2,NA,1,real,null,2,NA,NA,NA,sub38
d3-animate-choice,139,804619,0.0-76.0-1.1,TRUE,FALSE,TRUE,TRUE,"""event"",""trial"",""time""
""fullscreenenter"",""5"",""22807""
","
","
","""event"",""trial"",""time""
""fullscreenenter"",""5"",""22807""
","
",804.9099999770988,NA,49,NA,NA,3000,1,NA,NA,images/purpleplanet.jpg,images/alien4,images/alien3,images/rocket2,images/alien3,images/nothing.png,2,real,false,1,rare,0,2020-06-12T16:42:19Z,sub38
two-step-fixation,140,805625,0.0-76.0-2.1,TRUE,FALSE,TRUE,TRUE,"""event"",""trial"",""time""
""fullscreenenter"",""5"",""22807""
","
","
","""event"",""trial"",""time""
""fullscreenenter"",""5"",""22807""
","
",NA,images/earth.jpg,NA,NA,NA,NA,NA,NA,NA,NA,NA,NA,NA,NA,NA,fixation,NA,NA,NA,NA,NA,NA,sub38
d3-animate-choice,141,807922,0.0-76.0-0.2,TRUE,FALSE,TRUE,TRUE,"""event"",""trial"",""time""
""fullscreenenter"",""5"",""22807""
","
","
","""event"",""trial"",""time""
""fullscreenenter"",""5"",""22807""
","
",291.93999999552034,NA,49,NA,NA,3000,1,NA,NA,images/earth.jpg,images/rocket2,images/rocket1,null,images/rocket1,NA,1,real,null,1,NA,NA,NA,sub38
d3-animate-choice,142,810354,0.0-76.0-1.2,TRUE,FALSE,TRUE,TRUE,"""event"",""trial"",""time""
""fullscreenenter"",""5"",""22807""
","
","
","""event"",""trial"",""time""
""fullscreenenter"",""5"",""22807""
","
",425.45999999856576,NA,48,NA,NA,3000,1,NA,NA,images/purpleplanet.jpg,images/alien4,images/alien3,images/rocket1,images/alien4,images/t.png,2,real,true,2,common,1,2020-06-12T16:42:24Z,sub38
two-step-fixation,143,811358,0.0-76.0-2.2,TRUE,FALSE,TRUE,TRUE,"""event"",""trial"",""time""
""fullscreenenter"",""5"",""22807""
","
","
","""event"",""trial"",""time""
""fullscreenenter"",""5"",""22807""
","
",NA,images/earth.jpg,NA,NA,NA,NA,NA,NA,NA,NA,NA,NA,NA,NA,NA,fixation,NA,NA,NA,NA,NA,NA,sub38
d3-animate-choice,144,813742,0.0-76.0-0.3,TRUE,FALSE,TRUE,TRUE,"""event"",""trial"",""time""
""fullscreenenter"",""5"",""22807""
","
","
","""event"",""trial"",""time""
""fullscreenenter"",""5"",""22807""
","
",376.6800000157673,NA,49,NA,NA,3000,1,NA,NA,images/earth.jpg,images/rocket2,images/rocket1,null,images/rocket1,NA,1,real,null,1,NA,NA,NA,sub38
d3-animate-choice,145,816017,0.0-76.0-1.3,TRUE,FALSE,TRUE,TRUE,"""event"",""trial"",""time""
""fullscreenenter"",""5"",""22807""
","
","
","""event"",""trial"",""time""
""fullscreenenter"",""5"",""22807""
","
",270.61000000685453,NA,48,NA,NA,3000,1,NA,NA,images/purpleplanet.jpg,images/alien4,images/alien3,images/rocket1,images/alien4,images/t.png,2,real,true,2,common,1,2020-06-12T16:42:30Z,sub38
two-step-fixation,146,817024,0.0-76.0-2.3,TRUE,FALSE,TRUE,TRUE,"""event"",""trial"",""time""
""fullscreenenter"",""5"",""22807""
","
","
","""event"",""trial"",""time""
""fullscreenenter"",""5"",""22807""
","
",NA,images/earth.jpg,NA,NA,NA,NA,NA,NA,NA,NA,NA,NA,NA,NA,NA,fixation,NA,NA,NA,NA,NA,NA,sub38
d3-animate-choice,147,819701,0.0-76.0-0.4,TRUE,FALSE,TRUE,TRUE,"""event"",""trial"",""time""
""fullscreenenter"",""5"",""22807""
","
","
","""event"",""trial"",""time""
""fullscreenenter"",""5"",""22807""
","
",670.4550000140443,NA,48,NA,NA,3000,1,NA,NA,images/earth.jpg,images/rocket2,images/rocket1,null,images/rocket2,NA,1,real,null,2,NA,NA,NA,sub38
d3-animate-choice,148,821716,0.0-76.0-1.4,TRUE,FALSE,TRUE,TRUE,"""event"",""trial"",""time""
""fullscreenenter"",""5"",""22807""
","
","
","""event"",""trial"",""time""
""fullscreenenter"",""5"",""22807""
","
",9.109999984502792,NA,48,NA,NA,3000,1,NA,NA,images/redplanet1.jpg,images/alien2,images/alien1,images/rocket2,images/alien2,images/t.png,2,real,true,2,common,1,2020-06-12T16:42:36Z,sub38
two-step-fixation,149,822721,0.0-76.0-2.4,TRUE,FALSE,TRUE,TRUE,"""event"",""trial"",""time""
""fullscreenenter"",""5"",""22807""
","
","
","""event"",""trial"",""time""
""fullscreenenter"",""5"",""22807""
","
",NA,images/earth.jpg,NA,NA,NA,NA,NA,NA,NA,NA,NA,NA,NA,NA,NA,fixation,NA,NA,NA,NA,NA,NA,sub38
d3-animate-choice,150,825159,0.0-76.0-0.5,TRUE,FALSE,TRUE,TRUE,"""event"",""trial"",""time""
""fullscreenenter"",""5"",""22807""
","
","
","""event"",""trial"",""time""
""fullscreenenter"",""5"",""22807""
","
",433.21499999728985,NA,48,NA,NA,3000,1,NA,NA,images/earth.jpg,images/rocket2,images/rocket1,null,images/rocket2,NA,1,real,null,2,NA,NA,NA,sub38
d3-animate-choice,151,827237,0.0-76.0-1.5,TRUE,FALSE,TRUE,TRUE,"""event"",""trial"",""time""
""fullscreenenter"",""5"",""22807""
","
","
","""event"",""trial"",""time""
""fullscreenenter"",""5"",""22807""
","
",72.0900000014808,NA,48,NA,NA,3000,1,NA,NA,images/redplanet1.jpg,images/alien2,images/alien1,images/rocket2,images/alien2,images/nothing.png,2,real,true,2,common,0,2020-06-12T16:42:41Z,sub38
two-step-fixation,152,828243,0.0-76.0-2.5,TRUE,FALSE,TRUE,TRUE,"""event"",""trial"",""time""
""fullscreenenter"",""5"",""22807""
","
","
","""event"",""trial"",""time""
""fullscreenenter"",""5"",""22807""
","
",NA,images/earth.jpg,NA,NA,NA,NA,NA,NA,NA,NA,NA,NA,NA,NA,NA,fixation,NA,NA,NA,NA,NA,NA,sub38
d3-animate-choice,153,831213,0.0-76.0-0.6,TRUE,FALSE,TRUE,TRUE,"""event"",""trial"",""time""
""fullscreenenter"",""5"",""22807""
","
","
","""event"",""trial"",""time""
""fullscreenenter"",""5"",""22807""
","
",961.9549999770243,NA,48,NA,NA,3000,1,NA,NA,images/earth.jpg,images/rocket2,images/rocket1,null,images/rocket2,NA,1,real,null,2,NA,NA,NA,sub38
d3-animate-choice,154,833558,0.0-76.0-1.6,TRUE,FALSE,TRUE,TRUE,"""event"",""trial"",""time""
""fullscreenenter"",""5"",""22807""
","
","
","""event"",""trial"",""time""
""fullscreenenter"",""5"",""22807""
","
",340.42500000214204,NA,49,NA,NA,3000,1,NA,NA,images/redplanet1.jpg,images/alien2,images/alien1,images/rocket2,images/alien1,images/t.png,2,real,true,1,common,1,2020-06-12T16:42:48Z,sub38
two-step-fixation,155,834564,0.0-76.0-2.6,TRUE,FALSE,TRUE,TRUE,"""event"",""trial"",""time""
""fullscreenenter"",""5"",""22807""
","
","
","""event"",""trial"",""time""
""fullscreenenter"",""5"",""22807""
","
",NA,images/earth.jpg,NA,NA,NA,NA,NA,NA,NA,NA,NA,NA,NA,NA,NA,fixation,NA,NA,NA,NA,NA,NA,sub38
d3-animate-choice,156,836949,0.0-76.0-0.7,TRUE,FALSE,TRUE,TRUE,"""event"",""trial"",""time""
""fullscreenenter"",""5"",""22807""
","
","
","""event"",""trial"",""time""
""fullscreenenter"",""5"",""22807""
","
",377.91499999002554,NA,48,NA,NA,3000,1,2035.2399999974295,49,images/earth.jpg,images/rocket2,images/rocket1,null,images/rocket2,NA,1,real,null,2,NA,NA,NA,sub38
d3-animate-choice,157,839426,0.0-76.0-1.7,TRUE,FALSE,TRUE,TRUE,"""event"",""trial"",""time""
""fullscreenenter"",""5"",""22807""
","
","
","""event"",""trial"",""time""
""fullscreenenter"",""5"",""22807""
","
",469.64500000467524,NA,49,NA,NA,3000,1,NA,NA,images/redplanet1.jpg,images/alien2,images/alien1,images/rocket2,images/alien1,images/nothing.png,2,real,true,1,common,0,2020-06-12T16:42:54Z,sub38
two-step-fixation,158,840432,0.0-76.0-2.7,TRUE,FALSE,TRUE,TRUE,"""event"",""trial"",""time""
""fullscreenenter"",""5"",""22807""
","
","
","""event"",""trial"",""time""
""fullscreenenter"",""5"",""22807""
","
",NA,images/earth.jpg,NA,NA,NA,NA,NA,NA,NA,NA,NA,NA,NA,NA,NA,fixation,NA,NA,NA,NA,NA,NA,sub38
d3-animate-choice,159,842815,0.0-76.0-0.8,TRUE,FALSE,TRUE,TRUE,"""event"",""trial"",""time""
""fullscreenenter"",""5"",""22807""
","
","
","""event"",""trial"",""time""
""fullscreenenter"",""5"",""22807""
","
",378.9099999994505,NA,48,NA,NA,3000,1,NA,NA,images/earth.jpg,images/rocket2,images/rocket1,null,images/rocket2,NA,1,real,null,2,NA,NA,NA,sub38
d3-animate-choice,160,845855,0.0-76.0-1.8,TRUE,FALSE,TRUE,TRUE,"""event"",""trial"",""time""
""fullscreenenter"",""5"",""22807""
","
","
","""event"",""trial"",""time""
""fullscreenenter"",""5"",""22807""
","
",1033.899999980349,NA,48,NA,NA,3000,1,NA,NA,images/redplanet1.jpg,images/alien2,images/alien1,images/rocket2,images/alien2,images/nothing.png,2,real,true,2,common,0,2020-06-12T16:43:00Z,sub38
two-step-fixation,161,846860,0.0-76.0-2.8,TRUE,FALSE,TRUE,TRUE,"""event"",""trial"",""time""
""fullscreenenter"",""5"",""22807""
","
","
","""event"",""trial"",""time""
""fullscreenenter"",""5"",""22807""
","
",NA,images/earth.jpg,NA,NA,NA,NA,NA,NA,NA,NA,NA,NA,NA,NA,NA,fixation,NA,NA,NA,NA,NA,NA,sub38
d3-animate-choice,162,849777,0.0-76.0-0.9,TRUE,FALSE,TRUE,TRUE,"""event"",""trial"",""time""
""fullscreenenter"",""5"",""22807""
","
","
","""event"",""trial"",""time""
""fullscreenenter"",""5"",""22807""
","
",910.5449999915436,NA,49,NA,NA,3000,1,NA,NA,images/earth.jpg,images/rocket2,images/rocket1,null,images/rocket1,NA,1,real,null,1,NA,NA,NA,sub38
d3-animate-choice,163,852458,0.0-76.0-1.9,TRUE,FALSE,TRUE,TRUE,"""event"",""trial"",""time""
""fullscreenenter"",""5"",""22807""
","
","
","""event"",""trial"",""time""
""fullscreenenter"",""5"",""22807""
","
",674.6649999986403,NA,48,NA,NA,3000,1,NA,NA,images/purpleplanet.jpg,images/alien4,images/alien3,images/rocket1,images/alien4,images/nothing.png,2,real,true,2,common,0,2020-06-12T16:43:07Z,sub38
two-step-fixation,164,853464,0.0-76.0-2.9,TRUE,FALSE,TRUE,TRUE,"""event"",""trial"",""time""
""fullscreenenter"",""5"",""22807""
","
","
","""event"",""trial"",""time""
""fullscreenenter"",""5"",""22807""
","
",NA,images/earth.jpg,NA,NA,NA,NA,NA,NA,NA,NA,NA,NA,NA,NA,NA,fixation,NA,NA,NA,NA,NA,NA,sub38
d3-animate-choice,165,855886,0.0-76.0-0.10,TRUE,FALSE,TRUE,TRUE,"""event"",""trial"",""time""
""fullscreenenter"",""5"",""22807""
","
","
","""event"",""trial"",""time""
""fullscreenenter"",""5"",""22807""
","
",416.0649999976158,NA,49,NA,NA,3000,1,2308.900000003632,49,images/earth.jpg,images/rocket2,images/rocket1,null,images/rocket1,NA,1,real,null,1,NA,NA,NA,sub38
d3-animate-choice,166,858324,0.0-76.0-1.10,TRUE,FALSE,TRUE,TRUE,"""event"",""trial"",""time""
""fullscreenenter"",""5"",""22807""
","
","
","""event"",""trial"",""time""
""fullscreenenter"",""5"",""22807""
","
",432.89500000537373,NA,49,NA,NA,3000,1,NA,NA,images/redplanet1.jpg,images/alien2,images/alien1,images/rocket1,images/alien1,images/t.png,2,real,false,1,rare,1,2020-06-12T16:43:12Z,sub38
two-step-fixation,167,859330,0.0-76.0-2.10,TRUE,FALSE,TRUE,TRUE,"""event"",""trial"",""time""
""fullscreenenter"",""5"",""22807""
","
","
","""event"",""trial"",""time""
""fullscreenenter"",""5"",""22807""
","
",NA,images/earth.jpg,NA,NA,NA,NA,NA,NA,NA,NA,NA,NA,NA,NA,NA,fixation,NA,NA,NA,NA,NA,NA,sub38
d3-animate-choice,168,861699,0.0-76.0-0.11,TRUE,FALSE,TRUE,TRUE,"""event"",""trial"",""time""
""fullscreenenter"",""5"",""22807""
","
","
","""event"",""trial"",""time""
""fullscreenenter"",""5"",""22807""
","
",363.3700000063982,NA,49,NA,NA,3000,1,NA,NA,images/earth.jpg,images/rocket2,images/rocket1,null,images/rocket1,NA,1,real,null,1,NA,NA,NA,sub38
d3-animate-choice,169,864200,0.0-76.0-1.11,TRUE,FALSE,TRUE,TRUE,"""event"",""trial"",""time""
""fullscreenenter"",""5"",""22807""
","
","
","""event"",""trial"",""time""
""fullscreenenter"",""5"",""22807""
","
",497.4250000086613,NA,49,NA,NA,3000,1,NA,NA,images/redplanet1.jpg,images/alien2,images/alien1,images/rocket1,images/alien1,images/t.png,2,real,false,1,rare,1,2020-06-12T16:43:18Z,sub38
two-step-fixation,170,865207,0.0-76.0-2.11,TRUE,FALSE,TRUE,TRUE,"""event"",""trial"",""time""
""fullscreenenter"",""5"",""22807""
","
","
","""event"",""trial"",""time""
""fullscreenenter"",""5"",""22807""
","
",NA,images/earth.jpg,NA,NA,NA,NA,NA,NA,NA,NA,NA,NA,NA,NA,NA,fixation,NA,NA,NA,NA,NA,NA,sub38
d3-animate-choice,171,868140,0.0-76.0-0.12,TRUE,FALSE,TRUE,TRUE,"""event"",""trial"",""time""
""fullscreenenter"",""5"",""22807""
","
","
","""event"",""trial"",""time""
""fullscreenenter"",""5"",""22807""
","
",927.3499999835622,NA,49,NA,NA,3000,1,2544.3099999974947,48,images/earth.jpg,images/rocket2,images/rocket1,null,images/rocket1,NA,1,real,null,1,NA,NA,NA,sub38
d3-animate-choice,172,870593,0.0-76.0-1.12,TRUE,FALSE,TRUE,TRUE,"""event"",""trial"",""time""
""fullscreenenter"",""5"",""22807""
","
","
","""event"",""trial"",""time""
""fullscreenenter"",""5"",""22807""
","
",446.9999999855645,NA,48,NA,NA,3000,1,NA,NA,images/purpleplanet.jpg,images/alien4,images/alien3,images/rocket1,images/alien4,images/t.png,2,real,true,2,common,1,2020-06-12T16:43:25Z,sub38
two-step-fixation,173,871598,0.0-76.0-2.12,TRUE,FALSE,TRUE,TRUE,"""event"",""trial"",""time""
""fullscreenenter"",""5"",""22807""
","
","
","""event"",""trial"",""time""
""fullscreenenter"",""5"",""22807""
","
",NA,images/earth.jpg,NA,NA,NA,NA,NA,NA,NA,NA,NA,NA,NA,NA,NA,fixation,NA,NA,NA,NA,NA,NA,sub38
d3-animate-choice,174,873728,0.0-76.0-0.13,TRUE,FALSE,TRUE,TRUE,"""event"",""trial"",""time""
""fullscreenenter"",""5"",""22807""
","
","
","""event"",""trial"",""time""
""fullscreenenter"",""5"",""22807""
","
",123.39500000234693,NA,49,NA,NA,3000,1,NA,NA,images/earth.jpg,images/rocket2,images/rocket1,null,images/rocket1,NA,1,real,null,1,NA,NA,NA,sub38
d3-animate-choice,175,876142,0.0-76.0-1.13,TRUE,FALSE,TRUE,TRUE,"""event"",""trial"",""time""
""fullscreenenter"",""5"",""22807""
","
","
","""event"",""trial"",""time""
""fullscreenenter"",""5"",""22807""
","
",408.40499999467283,NA,49,NA,NA,3000,1,NA,NA,images/redplanet1.jpg,images/alien2,images/alien1,images/rocket1,images/alien1,images/t.png,2,real,false,1,rare,1,2020-06-12T16:43:30Z,sub38
two-step-fixation,176,877148,0.0-76.0-2.13,TRUE,FALSE,TRUE,TRUE,"""event"",""trial"",""time""
""fullscreenenter"",""5"",""22807""
","
","
","""event"",""trial"",""time""
""fullscreenenter"",""5"",""22807""
","
",NA,images/earth.jpg,NA,NA,NA,NA,NA,NA,NA,NA,NA,NA,NA,NA,NA,fixation,NA,NA,NA,NA,NA,NA,sub38
d3-animate-choice,177,879500,0.0-76.0-0.14,TRUE,FALSE,TRUE,TRUE,"""event"",""trial"",""time""
""fullscreenenter"",""5"",""22807""
","
","
","""event"",""trial"",""time""
""fullscreenenter"",""5"",""22807""
","
",346.3449999981094,NA,49,NA,NA,3000,1,NA,NA,images/earth.jpg,images/rocket2,images/rocket1,null,images/rocket1,NA,1,real,null,1,NA,NA,NA,sub38
d3-animate-choice,178,882093,0.0-76.0-1.14,TRUE,FALSE,TRUE,TRUE,"""event"",""trial"",""time""
""fullscreenenter"",""5"",""22807""
","
","
","""event"",""trial"",""time""
""fullscreenenter"",""5"",""22807""
","
",586.9050000037532,NA,49,NA,NA,3000,1,NA,NA,images/purpleplanet.jpg,images/alien4,images/alien3,images/rocket1,images/alien3,images/t.png,2,real,true,1,common,1,2020-06-12T16:43:36Z,sub38
two-step-fixation,179,883099,0.0-76.0-2.14,TRUE,FALSE,TRUE,TRUE,"""event"",""trial"",""time""
""fullscreenenter"",""5"",""22807""
","
","
","""event"",""trial"",""time""
""fullscreenenter"",""5"",""22807""
","
",NA,images/earth.jpg,NA,NA,NA,NA,NA,NA,NA,NA,NA,NA,NA,NA,NA,fixation,NA,NA,NA,NA,NA,NA,sub38
d3-animate-choice,180,885479,0.0-76.0-0.15,TRUE,FALSE,TRUE,TRUE,"""event"",""trial"",""time""
""fullscreenenter"",""5"",""22807""
","
","
","""event"",""trial"",""time""
""fullscreenenter"",""5"",""22807""
","
",376.28500000573695,NA,49,NA,NA,3000,1,NA,NA,images/earth.jpg,images/rocket2,images/rocket1,null,images/rocket1,NA,1,real,null,1,NA,NA,NA,sub38
d3-animate-choice,181,887982,0.0-76.0-1.15,TRUE,FALSE,TRUE,TRUE,"""event"",""trial"",""time""
""fullscreenenter"",""5"",""22807""
","
","
","""event"",""trial"",""time""
""fullscreenenter"",""5"",""22807""
","
",496.90499997814186,NA,48,NA,NA,3000,1,NA,NA,images/purpleplanet.jpg,images/alien4,images/alien3,images/rocket1,images/alien4,images/t.png,2,real,true,2,common,1,2020-06-12T16:43:42Z,sub38
two-step-fixation,182,888987,0.0-76.0-2.15,TRUE,FALSE,TRUE,TRUE,"""event"",""trial"",""time""
""fullscreenenter"",""5"",""22807""
","
","
","""event"",""trial"",""time""
""fullscreenenter"",""5"",""22807""
","
",NA,images/earth.jpg,NA,NA,NA,NA,NA,NA,NA,NA,NA,NA,NA,NA,NA,fixation,NA,NA,NA,NA,NA,NA,sub38
d3-animate-choice,183,891293,0.0-76.0-0.16,TRUE,FALSE,TRUE,TRUE,"""event"",""trial"",""time""
""fullscreenenter"",""5"",""22807""
","
","
","""event"",""trial"",""time""
""fullscreenenter"",""5"",""22807""
","
",300.2850000048056,NA,48,NA,NA,3000,1,NA,NA,images/earth.jpg,images/rocket2,images/rocket1,null,images/rocket2,NA,1,real,null,2,NA,NA,NA,sub38
d3-animate-choice,184,893756,0.0-76.0-1.16,TRUE,FALSE,TRUE,TRUE,"""event"",""trial"",""time""
""fullscreenenter"",""5"",""22807""
","
","
","""event"",""trial"",""time""
""fullscreenenter"",""5"",""22807""
","
",458.09999998891726,NA,48,NA,NA,3000,1,NA,NA,images/redplanet1.jpg,images/alien2,images/alien1,images/rocket2,images/alien2,images/t.png,2,real,true,2,common,1,2020-06-12T16:43:48Z,sub38
two-step-fixation,185,894762,0.0-76.0-2.16,TRUE,FALSE,TRUE,TRUE,"""event"",""trial"",""time""
""fullscreenenter"",""5"",""22807""
","
","
","""event"",""trial"",""time""
""fullscreenenter"",""5"",""22807""
","
",NA,images/earth.jpg,NA,NA,NA,NA,NA,NA,NA,NA,NA,NA,NA,NA,NA,fixation,NA,NA,NA,NA,NA,NA,sub38
d3-animate-choice,186,897316,0.0-76.0-0.17,TRUE,FALSE,TRUE,TRUE,"""event"",""trial"",""time""
""fullscreenenter"",""5"",""22807""
","
","
","""event"",""trial"",""time""
""fullscreenenter"",""5"",""22807""
","
",546.2799999804702,NA,49,NA,NA,3000,1,NA,NA,images/earth.jpg,images/rocket2,images/rocket1,null,images/rocket1,NA,1,real,null,1,NA,NA,NA,sub38
d3-animate-choice,187,899363,0.0-76.0-1.17,TRUE,FALSE,TRUE,TRUE,"""event"",""trial"",""time""
""fullscreenenter"",""5"",""22807""
","
","
","""event"",""trial"",""time""
""fullscreenenter"",""5"",""22807""
","
",41.88000000431202,NA,48,NA,NA,3000,1,NA,NA,images/purpleplanet.jpg,images/alien4,images/alien3,images/rocket1,images/alien4,images/nothing.png,2,real,true,2,common,0,2020-06-12T16:43:53Z,sub38
two-step-fixation,188,900369,0.0-76.0-2.17,TRUE,FALSE,TRUE,TRUE,"""event"",""trial"",""time""
""fullscreenenter"",""5"",""22807""
","
","
","""event"",""trial"",""time""
""fullscreenenter"",""5"",""22807""
","
",NA,images/earth.jpg,NA,NA,NA,NA,NA,NA,NA,NA,NA,NA,NA,NA,NA,fixation,NA,NA,NA,NA,NA,NA,sub38
d3-animate-choice,189,902533,0.0-76.0-0.18,TRUE,FALSE,TRUE,TRUE,"""event"",""trial"",""time""
""fullscreenenter"",""5"",""22807""
","
","
","""event"",""trial"",""time""
""fullscreenenter"",""5"",""22807""
","
",158.77499998896383,NA,49,NA,NA,3000,1,NA,NA,images/earth.jpg,images/rocket2,images/rocket1,null,images/rocket1,NA,1,real,null,1,NA,NA,NA,sub38
d3-animate-choice,190,905005,0.0-76.0-1.18,TRUE,FALSE,TRUE,TRUE,"""event"",""trial"",""time""
""fullscreenenter"",""5"",""22807""
","
","
","""event"",""trial"",""time""
""fullscreenenter"",""5"",""22807""
","
",466.8400000082329,NA,48,NA,NA,3000,1,NA,NA,images/purpleplanet.jpg,images/alien4,images/alien3,images/rocket1,images/alien4,images/nothing.png,2,real,true,2,common,0,2020-06-12T16:43:59Z,sub38
two-step-fixation,191,906011,0.0-76.0-2.18,TRUE,FALSE,TRUE,TRUE,"""event"",""trial"",""time""
""fullscreenenter"",""5"",""22807""
","
","
","""event"",""trial"",""time""
""fullscreenenter"",""5"",""22807""
","
",NA,images/earth.jpg,NA,NA,NA,NA,NA,NA,NA,NA,NA,NA,NA,NA,NA,fixation,NA,NA,NA,NA,NA,NA,sub38
d3-animate-choice,192,908479,0.0-76.0-0.19,TRUE,FALSE,TRUE,TRUE,"""event"",""trial"",""time""
""fullscreenenter"",""5"",""22807""
","
","
","""event"",""trial"",""time""
""fullscreenenter"",""5"",""22807""
","
",460.77999999397434,NA,48,NA,NA,3000,1,2036.3950000028126,48,images/earth.jpg,images/rocket2,images/rocket1,null,images/rocket2,NA,1,real,null,2,NA,NA,NA,sub38
d3-animate-choice,193,910536,0.0-76.0-1.19,TRUE,FALSE,TRUE,TRUE,"""event"",""trial"",""time""
""fullscreenenter"",""5"",""22807""
","
","
","""event"",""trial"",""time""
""fullscreenenter"",""5"",""22807""
","
",52.49000000185333,NA,48,NA,NA,3000,1,NA,NA,images/redplanet1.jpg,images/alien2,images/alien1,images/rocket2,images/alien2,images/nothing.png,2,real,true,2,common,0,2020-06-12T16:44:05Z,sub38
two-step-fixation,194,911542,0.0-76.0-2.19,TRUE,FALSE,TRUE,TRUE,"""event"",""trial"",""time""
""fullscreenenter"",""5"",""22807""
","
","
","""event"",""trial"",""time""
""fullscreenenter"",""5"",""22807""
","
",NA,images/earth.jpg,NA,NA,NA,NA,NA,NA,NA,NA,NA,NA,NA,NA,NA,fixation,NA,NA,NA,NA,NA,NA,sub38
d3-animate-choice,195,914130,0.0-76.0-0.20,TRUE,FALSE,TRUE,TRUE,"""event"",""trial"",""time""
""fullscreenenter"",""5"",""22807""
","
","
","""event"",""trial"",""time""
""fullscreenenter"",""5"",""22807""
","
",583.2900000095833,NA,48,NA,NA,3000,1,NA,NA,images/earth.jpg,images/rocket2,images/rocket1,null,images/rocket2,NA,1,real,null,2,NA,NA,NA,sub38
d3-animate-choice,196,916946,0.0-76.0-1.20,TRUE,FALSE,TRUE,TRUE,"""event"",""trial"",""time""
""fullscreenenter"",""5"",""22807""
","
","
","""event"",""trial"",""time""
""fullscreenenter"",""5"",""22807""
","
",809.3700000026729,NA,48,NA,NA,3000,1,2626.3550000148825,48,images/redplanet1.jpg,images/alien2,images/alien1,images/rocket2,images/alien2,images/t.png,2,real,true,2,common,1,2020-06-12T16:44:11Z,sub38
two-step-fixation,197,917951,0.0-76.0-2.20,TRUE,FALSE,TRUE,TRUE,"""event"",""trial"",""time""
""fullscreenenter"",""5"",""22807""
","
","
","""event"",""trial"",""time""
""fullscreenenter"",""5"",""22807""
","
",NA,images/earth.jpg,NA,NA,NA,NA,NA,NA,NA,NA,NA,NA,NA,NA,NA,fixation,NA,NA,NA,NA,NA,NA,sub38
d3-animate-choice,198,920320,0.0-76.0-0.21,TRUE,FALSE,TRUE,TRUE,"""event"",""trial"",""time""
""fullscreenenter"",""5"",""22807""
","
","
","""event"",""trial"",""time""
""fullscreenenter"",""5"",""22807""
","
",364.3349999911152,NA,49,NA,NA,3000,1,NA,NA,images/earth.jpg,images/rocket2,images/rocket1,null,images/rocket1,NA,1,real,null,1,NA,NA,NA,sub38
d3-animate-choice,199,923050,0.0-76.0-1.21,TRUE,FALSE,TRUE,TRUE,"""event"",""trial"",""time""
""fullscreenenter"",""5"",""22807""
","
","
","""event"",""trial"",""time""
""fullscreenenter"",""5"",""22807""
","
",723.7150000000838,NA,49,NA,NA,3000,1,NA,NA,images/purpleplanet.jpg,images/alien4,images/alien3,images/rocket1,images/alien3,images/t.png,2,real,true,1,common,1,2020-06-12T16:44:17Z,sub38
two-step-fixation,200,924055,0.0-76.0-2.21,TRUE,FALSE,TRUE,TRUE,"""event"",""trial"",""time""
""fullscreenenter"",""5"",""22807""
","
","
","""event"",""trial"",""time""
""fullscreenenter"",""5"",""22807""
","
",NA,images/earth.jpg,NA,NA,NA,NA,NA,NA,NA,NA,NA,NA,NA,NA,NA,fixation,NA,NA,NA,NA,NA,NA,sub38
d3-animate-choice,201,926462,0.0-76.0-0.22,TRUE,FALSE,TRUE,TRUE,"""event"",""trial"",""time""
""fullscreenenter"",""5"",""22807""
","
","
","""event"",""trial"",""time""
""fullscreenenter"",""5"",""22807""
","
",401.3050000066869,NA,48,NA,NA,3000,1,NA,NA,images/earth.jpg,images/rocket2,images/rocket1,null,images/rocket2,NA,1,real,null,2,NA,NA,NA,sub38
d3-animate-choice,202,928625,0.0-76.0-1.22,TRUE,FALSE,TRUE,TRUE,"""event"",""trial"",""time""
""fullscreenenter"",""5"",""22807""
","
","
","""event"",""trial"",""time""
""fullscreenenter"",""5"",""22807""
","
",156.97999999974854,NA,49,NA,NA,3000,1,NA,NA,images/redplanet1.jpg,images/alien2,images/alien1,images/rocket2,images/alien1,images/t.png,2,real,true,1,common,1,2020-06-12T16:44:23Z,sub38
two-step-fixation,203,929631,0.0-76.0-2.22,TRUE,FALSE,TRUE,TRUE,"""event"",""trial"",""time""
""fullscreenenter"",""5"",""22807""
","
","
","""event"",""trial"",""time""
""fullscreenenter"",""5"",""22807""
","
",NA,images/earth.jpg,NA,NA,NA,NA,NA,NA,NA,NA,NA,NA,NA,NA,NA,fixation,NA,NA,NA,NA,NA,NA,sub38
d3-animate-choice,204,932168,0.0-76.0-0.23,TRUE,FALSE,TRUE,TRUE,"""event"",""trial"",""time""
""fullscreenenter"",""5"",""22807""
","
","
","""event"",""trial"",""time""
""fullscreenenter"",""5"",""22807""
","
",530.1199999812525,NA,48,NA,NA,3000,1,NA,NA,images/earth.jpg,images/rocket2,images/rocket1,null,images/rocket2,NA,1,real,null,2,NA,NA,NA,sub38
d3-animate-choice,205,934996,0.0-76.0-1.23,TRUE,FALSE,TRUE,TRUE,"""event"",""trial"",""time""
""fullscreenenter"",""5"",""22807""
","
","
","""event"",""trial"",""time""
""fullscreenenter"",""5"",""22807""
","
",822.8750000125729,NA,48,NA,NA,3000,1,NA,NA,images/purpleplanet.jpg,images/alien4,images/alien3,images/rocket2,images/alien4,images/t.png,2,real,false,2,rare,1,2020-06-12T16:44:29Z,sub38
two-step-fixation,206,936002,0.0-76.0-2.23,TRUE,FALSE,TRUE,TRUE,"""event"",""trial"",""time""
""fullscreenenter"",""5"",""22807""
","
","
","""event"",""trial"",""time""
""fullscreenenter"",""5"",""22807""
","
",NA,images/earth.jpg,NA,NA,NA,NA,NA,NA,NA,NA,NA,NA,NA,NA,NA,fixation,NA,NA,NA,NA,NA,NA,sub38
d3-animate-choice,207,938760,0.0-76.0-0.24,TRUE,FALSE,TRUE,TRUE,"""event"",""trial"",""time""
""fullscreenenter"",""5"",""22807""
","
","
","""event"",""trial"",""time""
""fullscreenenter"",""5"",""22807""
","
",751.9150000007357,NA,48,NA,NA,3000,1,NA,NA,images/earth.jpg,images/rocket2,images/rocket1,null,images/rocket2,NA,1,real,null,2,NA,NA,NA,sub38
d3-animate-choice,208,942765,0.0-76.0-1.24,TRUE,FALSE,TRUE,TRUE,"""event"",""trial"",""time""
""fullscreenenter"",""5"",""22807""
","
","
","""event"",""trial"",""time""
""fullscreenenter"",""5"",""22807""
","
",2254.6000000147615,NA,49,NA,NA,3000,1,NA,NA,images/redplanet1.jpg,images/alien2,images/alien1,images/rocket2,images/alien1,images/t.png,2,real,true,1,common,1,2020-06-12T16:44:37Z,sub38
two-step-fixation,209,943769,0.0-76.0-2.24,TRUE,FALSE,TRUE,TRUE,"""event"",""trial"",""time""
""fullscreenenter"",""5"",""22807""
","
","
","""event"",""trial"",""time""
""fullscreenenter"",""5"",""22807""
","
",NA,images/earth.jpg,NA,NA,NA,NA,NA,NA,NA,NA,NA,NA,NA,NA,NA,fixation,NA,NA,NA,NA,NA,NA,sub38
d3-animate-choice,210,946218,0.0-76.0-0.25,TRUE,FALSE,TRUE,TRUE,"""event"",""trial"",""time""
""fullscreenenter"",""5"",""22807""
","
","
","""event"",""trial"",""time""
""fullscreenenter"",""5"",""22807""
","
",443.9750000019558,NA,49,NA,NA,3000,1,NA,NA,images/earth.jpg,images/rocket2,images/rocket1,null,images/rocket1,NA,1,real,null,1,NA,NA,NA,sub38
d3-animate-choice,211,948796,0.0-76.0-1.25,TRUE,FALSE,TRUE,TRUE,"""event"",""trial"",""time""
""fullscreenenter"",""5"",""22807""
","
","
","""event"",""trial"",""time""
""fullscreenenter"",""5"",""22807""
","
",572.9949999949895,NA,48,NA,NA,3000,1,NA,NA,images/purpleplanet.jpg,images/alien4,images/alien3,images/rocket1,images/alien4,images/t.png,2,real,true,2,common,1,2020-06-12T16:44:43Z,sub38
two-step-fixation,212,949802,0.0-76.0-2.25,TRUE,FALSE,TRUE,TRUE,"""event"",""trial"",""time""
""fullscreenenter"",""5"",""22807""
","
","
","""event"",""trial"",""time""
""fullscreenenter"",""5"",""22807""
","
",NA,images/earth.jpg,NA,NA,NA,NA,NA,NA,NA,NA,NA,NA,NA,NA,NA,fixation,NA,NA,NA,NA,NA,NA,sub38
d3-animate-choice,213,953485,0.0-76.0-0.26,TRUE,FALSE,TRUE,TRUE,"""event"",""trial"",""time""
""fullscreenenter"",""5"",""22807""
","
","
","""event"",""trial"",""time""
""fullscreenenter"",""5"",""22807""
","
",1679.00499998359,NA,48,NA,NA,3000,1,NA,NA,images/earth.jpg,images/rocket2,images/rocket1,null,images/rocket2,NA,1,real,null,2,NA,NA,NA,sub38
d3-animate-choice,214,957281,0.0-76.0-1.26,TRUE,FALSE,TRUE,TRUE,"""event"",""trial"",""time""
""fullscreenenter"",""5"",""22807""
","
","
","""event"",""trial"",""time""
""fullscreenenter"",""5"",""22807""
","
",1788.6500000022352,NA,48,NA,NA,3000,1,NA,NA,images/redplanet1.jpg,images/alien2,images/alien1,images/rocket2,images/alien2,images/t.png,2,real,true,2,common,1,2020-06-12T16:44:51Z,sub38
two-step-fixation,215,958287,0.0-76.0-2.26,TRUE,FALSE,TRUE,TRUE,"""event"",""trial"",""time""
""fullscreenenter"",""5"",""22807""
","
","
","""event"",""trial"",""time""
""fullscreenenter"",""5"",""22807""
","
",NA,images/earth.jpg,NA,NA,NA,NA,NA,NA,NA,NA,NA,NA,NA,NA,NA,fixation,NA,NA,NA,NA,NA,NA,sub38
d3-animate-choice,216,962185,0.0-76.0-0.27,TRUE,FALSE,TRUE,TRUE,"""event"",""trial"",""time""
""fullscreenenter"",""5"",""22807""
","
","
","""event"",""trial"",""time""
""fullscreenenter"",""5"",""22807""
","
",1891.2449999770615,NA,49,NA,NA,3000,1,NA,NA,images/earth.jpg,images/rocket2,images/rocket1,null,images/rocket1,NA,1,real,null,1,NA,NA,NA,sub38
d3-animate-choice,217,965041,0.0-76.0-1.27,TRUE,FALSE,TRUE,TRUE,"""event"",""trial"",""time""
""fullscreenenter"",""5"",""22807""
","
","
","""event"",""trial"",""time""
""fullscreenenter"",""5"",""22807""
","
",848.6099999863654,NA,48,NA,NA,3000,1,NA,NA,images/purpleplanet.jpg,images/alien4,images/alien3,images/rocket1,images/alien4,images/nothing.png,2,real,true,2,common,0,2020-06-12T16:44:59Z,sub38
two-step-fixation,218,966047,0.0-76.0-2.27,TRUE,FALSE,TRUE,TRUE,"""event"",""trial"",""time""
""fullscreenenter"",""5"",""22807""
","
","
","""event"",""trial"",""time""
""fullscreenenter"",""5"",""22807""
","
",NA,images/earth.jpg,NA,NA,NA,NA,NA,NA,NA,NA,NA,NA,NA,NA,NA,fixation,NA,NA,NA,NA,NA,NA,sub38
d3-animate-choice,219,969126,0.0-76.0-0.28,TRUE,FALSE,TRUE,TRUE,"""event"",""trial"",""time""
""fullscreenenter"",""5"",""22807""
","
","
","""event"",""trial"",""time""
""fullscreenenter"",""5"",""22807""
","
",1073.499999998603,NA,48,NA,NA,3000,1,2974.6549999981653,48,images/earth.jpg,images/rocket2,images/rocket1,null,images/rocket2,NA,1,real,null,2,NA,NA,NA,sub38
d3-animate-choice,220,971963,0.0-76.0-1.28,TRUE,FALSE,TRUE,TRUE,"""event"",""trial"",""time""
""fullscreenenter"",""5"",""22807""
","
","
","""event"",""trial"",""time""
""fullscreenenter"",""5"",""22807""
","
",832.0999999996275,NA,49,NA,NA,3000,1,NA,NA,images/redplanet1.jpg,images/alien2,images/alien1,images/rocket2,images/alien1,images/t.png,2,real,true,1,common,1,2020-06-12T16:45:06Z,sub38
two-step-fixation,221,972968,0.0-76.0-2.28,TRUE,FALSE,TRUE,TRUE,"""event"",""trial"",""time""
""fullscreenenter"",""5"",""22807""
","
","
","""event"",""trial"",""time""
""fullscreenenter"",""5"",""22807""
","
",NA,images/earth.jpg,NA,NA,NA,NA,NA,NA,NA,NA,NA,NA,NA,NA,NA,fixation,NA,NA,NA,NA,NA,NA,sub38
d3-animate-choice,222,975463,0.0-76.0-0.29,TRUE,FALSE,TRUE,TRUE,"""event"",""trial"",""time""
""fullscreenenter"",""5"",""22807""
","
","
","""event"",""trial"",""time""
""fullscreenenter"",""5"",""22807""
","
",489.3949999823235,NA,49,NA,NA,3000,1,NA,NA,images/earth.jpg,images/rocket2,images/rocket1,null,images/rocket1,NA,1,real,null,1,NA,NA,NA,sub38
d3-animate-choice,223,978655,0.0-76.0-1.29,TRUE,FALSE,TRUE,TRUE,"""event"",""trial"",""time""
""fullscreenenter"",""5"",""22807""
","
","
","""event"",""trial"",""time""
""fullscreenenter"",""5"",""22807""
","
",1186.359999992419,NA,49,NA,NA,3000,1,NA,NA,images/purpleplanet.jpg,images/alien4,images/alien3,images/rocket1,images/alien3,images/nothing.png,2,real,true,1,common,0,2020-06-12T16:45:13Z,sub38
two-step-fixation,224,979660,0.0-76.0-2.29,TRUE,FALSE,TRUE,TRUE,"""event"",""trial"",""time""
""fullscreenenter"",""5"",""22807""
","
","
","""event"",""trial"",""time""
""fullscreenenter"",""5"",""22807""
","
",NA,images/earth.jpg,NA,NA,NA,NA,NA,NA,NA,NA,NA,NA,NA,NA,NA,fixation,NA,NA,NA,NA,NA,NA,sub38
d3-animate-choice,225,982088,0.0-76.0-0.30,TRUE,FALSE,TRUE,TRUE,"""event"",""trial"",""time""
""fullscreenenter"",""5"",""22807""
","
","
","""event"",""trial"",""time""
""fullscreenenter"",""5"",""22807""
","
",420.99499999312684,NA,48,NA,NA,3000,1,NA,NA,images/earth.jpg,images/rocket2,images/rocket1,null,images/rocket2,NA,1,real,null,2,NA,NA,NA,sub38
d3-animate-choice,226,984566,0.0-76.0-1.30,TRUE,FALSE,TRUE,TRUE,"""event"",""trial"",""time""
""fullscreenenter"",""5"",""22807""
","
","
","""event"",""trial"",""time""
""fullscreenenter"",""5"",""22807""
","
",471.6049999988172,NA,48,NA,NA,3000,1,NA,NA,images/purpleplanet.jpg,images/alien4,images/alien3,images/rocket2,images/alien4,images/t.png,2,real,false,2,rare,1,2020-06-12T16:45:19Z,sub38
two-step-fixation,227,985573,0.0-76.0-2.30,TRUE,FALSE,TRUE,TRUE,"""event"",""trial"",""time""
""fullscreenenter"",""5"",""22807""
","
","
","""event"",""trial"",""time""
""fullscreenenter"",""5"",""22807""
","
",NA,images/earth.jpg,NA,NA,NA,NA,NA,NA,NA,NA,NA,NA,NA,NA,NA,fixation,NA,NA,NA,NA,NA,NA,sub38
d3-animate-choice,228,987968,0.0-76.0-0.31,TRUE,FALSE,TRUE,TRUE,"""event"",""trial"",""time""
""fullscreenenter"",""5"",""22807""
","
","
","""event"",""trial"",""time""
""fullscreenenter"",""5"",""22807""
","
",390.59000002453104,NA,49,NA,NA,3000,1,NA,NA,images/earth.jpg,images/rocket2,images/rocket1,null,images/rocket1,NA,1,real,null,1,NA,NA,NA,sub38
d3-animate-choice,229,990712,0.0-76.0-1.31,TRUE,FALSE,TRUE,TRUE,"""event"",""trial"",""time""
""fullscreenenter"",""5"",""22807""
","
","
","""event"",""trial"",""time""
""fullscreenenter"",""5"",""22807""
","
",738.374999986263,NA,48,NA,NA,3000,1,NA,NA,images/purpleplanet.jpg,images/alien4,images/alien3,images/rocket1,images/alien4,images/t.png,2,real,true,2,common,1,2020-06-12T16:45:25Z,sub38
two-step-fixation,230,991717,0.0-76.0-2.31,TRUE,FALSE,TRUE,TRUE,"""event"",""trial"",""time""
""fullscreenenter"",""5"",""22807""
","
","
","""event"",""trial"",""time""
""fullscreenenter"",""5"",""22807""
","
",NA,images/earth.jpg,NA,NA,NA,NA,NA,NA,NA,NA,NA,NA,NA,NA,NA,fixation,NA,NA,NA,NA,NA,NA,sub38
d3-animate-choice,231,994353,0.0-76.0-0.32,TRUE,FALSE,TRUE,TRUE,"""event"",""trial"",""time""
""fullscreenenter"",""5"",""22807""
","
","
","""event"",""trial"",""time""
""fullscreenenter"",""5"",""22807""
","
",629.1899999778252,NA,48,NA,NA,3000,1,NA,NA,images/earth.jpg,images/rocket2,images/rocket1,null,images/rocket2,NA,1,real,null,2,NA,NA,NA,sub38
d3-animate-choice,232,997557,0.0-76.0-1.32,TRUE,FALSE,TRUE,TRUE,"""event"",""trial"",""time""
""fullscreenenter"",""5"",""22807""
","
","
","""event"",""trial"",""time""
""fullscreenenter"",""5"",""22807""
","
",1198.2549999956973,NA,49,NA,NA,3000,1,NA,NA,images/redplanet1.jpg,images/alien2,images/alien1,images/rocket2,images/alien1,images/t.png,2,real,true,1,common,1,2020-06-12T16:45:32Z,sub38
two-step-fixation,233,998563,0.0-76.0-2.32,TRUE,FALSE,TRUE,TRUE,"""event"",""trial"",""time""
""fullscreenenter"",""5"",""22807""
","
","
","""event"",""trial"",""time""
""fullscreenenter"",""5"",""22807""
","
",NA,images/earth.jpg,NA,NA,NA,NA,NA,NA,NA,NA,NA,NA,NA,NA,NA,fixation,NA,NA,NA,NA,NA,NA,sub38
d3-animate-choice,234,1000929,0.0-76.0-0.33,TRUE,FALSE,TRUE,TRUE,"""event"",""trial"",""time""
""fullscreenenter"",""5"",""22807""
","
","
","""event"",""trial"",""time""
""fullscreenenter"",""5"",""22807""
","
",359.5750000094995,NA,48,NA,NA,3000,1,2172.259999992093,49,images/earth.jpg,images/rocket2,images/rocket1,null,images/rocket2,NA,1,real,null,2,NA,NA,NA,sub38
d3-animate-choice,235,1003388,0.0-76.0-1.33,TRUE,FALSE,TRUE,TRUE,"""event"",""trial"",""time""
""fullscreenenter"",""5"",""22807""
","
","
","""event"",""trial"",""time""
""fullscreenenter"",""5"",""22807""
","
",451.70500001404434,NA,49,NA,NA,3000,1,NA,NA,images/redplanet1.jpg,images/alien2,images/alien1,images/rocket2,images/alien1,images/t.png,2,real,true,1,common,1,2020-06-12T16:45:37Z,sub38
two-step-fixation,236,1004397,0.0-76.0-2.33,TRUE,FALSE,TRUE,TRUE,"""event"",""trial"",""time""
""fullscreenenter"",""5"",""22807""
","
","
","""event"",""trial"",""time""
""fullscreenenter"",""5"",""22807""
","
",NA,images/earth.jpg,NA,NA,NA,NA,NA,NA,NA,NA,NA,NA,NA,NA,NA,fixation,NA,NA,NA,NA,NA,NA,sub38
d3-animate-choice,237,1007523,0.0-76.0-0.34,TRUE,FALSE,TRUE,TRUE,"""event"",""trial"",""time""
""fullscreenenter"",""5"",""22807""
","
","
","""event"",""trial"",""time""
""fullscreenenter"",""5"",""22807""
","
",1117.4250000040047,NA,48,NA,NA,3000,1,NA,NA,images/earth.jpg,images/rocket2,images/rocket1,null,images/rocket2,NA,1,real,null,2,NA,NA,NA,sub38
d3-animate-choice,238,1010393,0.0-76.0-1.34,TRUE,FALSE,TRUE,TRUE,"""event"",""trial"",""time""
""fullscreenenter"",""5"",""22807""
","
","
","""event"",""trial"",""time""
""fullscreenenter"",""5"",""22807""
","
",864.5850000029895,NA,48,NA,NA,3000,1,NA,NA,images/redplanet1.jpg,images/alien2,images/alien1,images/rocket2,images/alien2,images/t.png,2,real,true,2,common,1,2020-06-12T16:45:44Z,sub38
two-step-fixation,239,1011398,0.0-76.0-2.34,TRUE,FALSE,TRUE,TRUE,"""event"",""trial"",""time""
""fullscreenenter"",""5"",""22807""
","
","
","""event"",""trial"",""time""
""fullscreenenter"",""5"",""22807""
","
",NA,images/earth.jpg,NA,NA,NA,NA,NA,NA,NA,NA,NA,NA,NA,NA,NA,fixation,NA,NA,NA,NA,NA,NA,sub38
d3-animate-choice,240,1013591,0.0-76.0-0.35,TRUE,FALSE,TRUE,TRUE,"""event"",""trial"",""time""
""fullscreenenter"",""5"",""22807""
","
","
","""event"",""trial"",""time""
""fullscreenenter"",""5"",""22807""
","
",186.06999999610707,NA,49,NA,NA,3000,1,NA,NA,images/earth.jpg,images/rocket2,images/rocket1,null,images/rocket1,NA,1,real,null,1,NA,NA,NA,sub38
d3-animate-choice,241,1016015,0.0-76.0-1.35,TRUE,FALSE,TRUE,TRUE,"""event"",""trial"",""time""
""fullscreenenter"",""5"",""22807""
","
","
","""event"",""trial"",""time""
""fullscreenenter"",""5"",""22807""
","
",417.6699999952689,NA,48,NA,NA,3000,1,NA,NA,images/redplanet1.jpg,images/alien2,images/alien1,images/rocket1,images/alien2,images/nothing.png,2,real,false,2,rare,0,2020-06-12T16:45:50Z,sub38
two-step-fixation,242,1017022,0.0-76.0-2.35,TRUE,FALSE,TRUE,TRUE,"""event"",""trial"",""time""
""fullscreenenter"",""5"",""22807""
","
","
","""event"",""trial"",""time""
""fullscreenenter"",""5"",""22807""
","
",NA,images/earth.jpg,NA,NA,NA,NA,NA,NA,NA,NA,NA,NA,NA,NA,NA,fixation,NA,NA,NA,NA,NA,NA,sub38
d3-animate-choice,243,1019204,0.0-76.0-0.36,TRUE,FALSE,TRUE,TRUE,"""event"",""trial"",""time""
""fullscreenenter"",""5"",""22807""
","
","
","""event"",""trial"",""time""
""fullscreenenter"",""5"",""22807""
","
",175.98999998881482,NA,49,NA,NA,3000,1,"534.1299999854527,1854.9300000013318",4949,images/earth.jpg,images/rocket2,images/rocket1,null,images/rocket1,NA,1,real,null,1,NA,NA,NA,sub38
d3-animate-choice,244,1021647,0.0-76.0-1.36,TRUE,FALSE,TRUE,TRUE,"""event"",""trial"",""time""
""fullscreenenter"",""5"",""22807""
","
","
","""event"",""trial"",""time""
""fullscreenenter"",""5"",""22807""
","
",437.76999998954125,NA,49,NA,NA,3000,1,NA,NA,images/purpleplanet.jpg,images/alien4,images/alien3,images/rocket1,images/alien3,images/nothing.png,2,real,true,1,common,0,2020-06-12T16:45:56Z,sub38
two-step-fixation,245,1022653,0.0-76.0-2.36,TRUE,FALSE,TRUE,TRUE,"""event"",""trial"",""time""
""fullscreenenter"",""5"",""22807""
","
","
","""event"",""trial"",""time""
""fullscreenenter"",""5"",""22807""
","
",NA,images/earth.jpg,NA,NA,NA,NA,NA,NA,NA,NA,NA,NA,NA,NA,NA,fixation,NA,NA,NA,NA,NA,NA,sub38
d3-animate-choice,246,1024958,0.0-76.0-0.37,TRUE,FALSE,TRUE,TRUE,"""event"",""trial"",""time""
""fullscreenenter"",""5"",""22807""
","
","
","""event"",""trial"",""time""
""fullscreenenter"",""5"",""22807""
","
",298.8400000031106,NA,48,NA,NA,3000,1,637.879999994766,48,images/earth.jpg,images/rocket2,images/rocket1,null,images/rocket2,NA,1,real,null,2,NA,NA,NA,sub38
d3-animate-choice,247,1027958,0.0-76.0-1.37,TRUE,FALSE,TRUE,TRUE,"""event"",""trial"",""time""
""fullscreenenter"",""5"",""22807""
","
","
","""event"",""trial"",""time""
""fullscreenenter"",""5"",""22807""
","
",993.9399999857415,NA,48,NA,NA,3000,1,NA,NA,images/purpleplanet.jpg,images/alien4,images/alien3,images/rocket2,images/alien4,images/nothing.png,2,real,false,2,rare,0,2020-06-12T16:46:02Z,sub38
two-step-fixation,248,1028963,0.0-76.0-2.37,TRUE,FALSE,TRUE,TRUE,"""event"",""trial"",""time""
""fullscreenenter"",""5"",""22807""
","
","
","""event"",""trial"",""time""
""fullscreenenter"",""5"",""22807""
","
",NA,images/earth.jpg,NA,NA,NA,NA,NA,NA,NA,NA,NA,NA,NA,NA,NA,fixation,NA,NA,NA,NA,NA,NA,sub38
d3-animate-choice,249,1031554,0.0-76.0-0.38,TRUE,FALSE,TRUE,TRUE,"""event"",""trial"",""time""
""fullscreenenter"",""5"",""22807""
","
","
","""event"",""trial"",""time""
""fullscreenenter"",""5"",""22807""
","
",585.4249999974854,NA,48,NA,NA,3000,1,NA,NA,images/earth.jpg,images/rocket2,images/rocket1,null,images/rocket2,NA,1,real,null,2,NA,NA,NA,sub38
d3-animate-choice,250,1034023,0.0-76.0-1.38,TRUE,FALSE,TRUE,TRUE,"""event"",""trial"",""time""
""fullscreenenter"",""5"",""22807""
","
","
","""event"",""trial"",""time""
""fullscreenenter"",""5"",""22807""
","
",463.0649999890011,NA,48,NA,NA,3000,1,482.0299999846611,49,images/redplanet1.jpg,images/alien2,images/alien1,images/rocket2,images/alien2,images/t.png,2,real,true,2,common,1,2020-06-12T16:46:08Z,sub38
two-step-fixation,251,1035029,0.0-76.0-2.38,TRUE,FALSE,TRUE,TRUE,"""event"",""trial"",""time""
""fullscreenenter"",""5"",""22807""
","
","
","""event"",""trial"",""time""
""fullscreenenter"",""5"",""22807""
","
",NA,images/earth.jpg,NA,NA,NA,NA,NA,NA,NA,NA,NA,NA,NA,NA,NA,fixation,NA,NA,NA,NA,NA,NA,sub38
d3-animate-choice,252,1037627,0.0-76.0-0.39,TRUE,FALSE,TRUE,TRUE,"""event"",""trial"",""time""
""fullscreenenter"",""5"",""22807""
","
","
","""event"",""trial"",""time""
""fullscreenenter"",""5"",""22807""
","
",591.6599999764003,NA,48,NA,NA,3000,1,NA,NA,images/earth.jpg,images/rocket2,images/rocket1,null,images/rocket2,NA,1,real,null,2,NA,NA,NA,sub38
d3-animate-choice,253,1040088,0.0-76.0-1.39,TRUE,FALSE,TRUE,TRUE,"""event"",""trial"",""time""
""fullscreenenter"",""5"",""22807""
","
","
","""event"",""trial"",""time""
""fullscreenenter"",""5"",""22807""
","
",454.85999999800697,NA,48,NA,NA,3000,1,521.2049999972805,49,images/redplanet1.jpg,images/alien2,images/alien1,images/rocket2,images/alien2,images/nothing.png,2,real,true,2,common,0,2020-06-12T16:46:14Z,sub38
two-step-fixation,254,1041094,0.0-76.0-2.39,TRUE,FALSE,TRUE,TRUE,"""event"",""trial"",""time""
""fullscreenenter"",""5"",""22807""
","
","
","""event"",""trial"",""time""
""fullscreenenter"",""5"",""22807""
","
",NA,images/earth.jpg,NA,NA,NA,NA,NA,NA,NA,NA,NA,NA,NA,NA,NA,fixation,NA,NA,NA,NA,NA,NA,sub38
d3-animate-choice,255,1044006,0.0-76.0-0.40,TRUE,FALSE,TRUE,TRUE,"""event"",""trial"",""time""
""fullscreenenter"",""5"",""22807""
","
","
","""event"",""trial"",""time""
""fullscreenenter"",""5"",""22807""
","
",906.6600000078324,NA,49,NA,NA,3000,1,NA,NA,images/earth.jpg,images/rocket2,images/rocket1,null,images/rocket1,NA,1,real,null,1,NA,NA,NA,sub38
d3-animate-choice,256,1047638,0.0-76.0-1.40,TRUE,FALSE,TRUE,TRUE,"""event"",""trial"",""time""
""fullscreenenter"",""5"",""22807""
","
","
","""event"",""trial"",""time""
""fullscreenenter"",""5"",""22807""
","
",1624.3249999824911,NA,49,NA,NA,3000,1,NA,NA,images/purpleplanet.jpg,images/alien4,images/alien3,images/rocket1,images/alien3,images/t.png,2,real,true,1,common,1,2020-06-12T16:46:22Z,sub38
two-step-fixation,257,1048643,0.0-76.0-2.40,TRUE,FALSE,TRUE,TRUE,"""event"",""trial"",""time""
""fullscreenenter"",""5"",""22807""
","
","
","""event"",""trial"",""time""
""fullscreenenter"",""5"",""22807""
","
",NA,images/earth.jpg,NA,NA,NA,NA,NA,NA,NA,NA,NA,NA,NA,NA,NA,fixation,NA,NA,NA,NA,NA,NA,sub38
d3-animate-choice,258,1051300,0.0-76.0-0.41,TRUE,FALSE,TRUE,TRUE,"""event"",""trial"",""time""
""fullscreenenter"",""5"",""22807""
","
","
","""event"",""trial"",""time""
""fullscreenenter"",""5"",""22807""
","
",651.1049999971874,NA,49,NA,NA,3000,1,NA,NA,images/earth.jpg,images/rocket2,images/rocket1,null,images/rocket1,NA,1,real,null,1,NA,NA,NA,sub38
d3-animate-choice,259,1053838,0.0-76.0-1.41,TRUE,FALSE,TRUE,TRUE,"""event"",""trial"",""time""
""fullscreenenter"",""5"",""22807""
","
","
","""event"",""trial"",""time""
""fullscreenenter"",""5"",""22807""
","
",531.2400000111666,NA,48,NA,NA,3000,1,NA,NA,images/redplanet1.jpg,images/alien2,images/alien1,images/rocket1,images/alien2,images/t.png,2,real,false,2,rare,1,2020-06-12T16:46:28Z,sub38
two-step-fixation,260,1054843,0.0-76.0-2.41,TRUE,FALSE,TRUE,TRUE,"""event"",""trial"",""time""
""fullscreenenter"",""5"",""22807""
","
","
","""event"",""trial"",""time""
""fullscreenenter"",""5"",""22807""
","
",NA,images/earth.jpg,NA,NA,NA,NA,NA,NA,NA,NA,NA,NA,NA,NA,NA,fixation,NA,NA,NA,NA,NA,NA,sub38
d3-animate-choice,261,1057001,0.0-76.0-0.42,TRUE,FALSE,TRUE,TRUE,"""event"",""trial"",""time""
""fullscreenenter"",""5"",""22807""
","
","
","""event"",""trial"",""time""
""fullscreenenter"",""5"",""22807""
","
",150.9799999766983,NA,48,NA,NA,3000,1,NA,NA,images/earth.jpg,images/rocket2,images/rocket1,null,images/rocket2,NA,1,real,null,2,NA,NA,NA,sub38
d3-animate-choice,262,1059564,0.0-76.0-1.42,TRUE,FALSE,TRUE,TRUE,"""event"",""trial"",""time""
""fullscreenenter"",""5"",""22807""
","
","
","""event"",""trial"",""time""
""fullscreenenter"",""5"",""22807""
","
",558.2099999883212,NA,49,NA,NA,3000,1,NA,NA,images/redplanet1.jpg,images/alien2,images/alien1,images/rocket2,images/alien1,images/nothing.png,2,real,true,1,common,0,2020-06-12T16:46:34Z,sub38
two-step-fixation,263,1060569,0.0-76.0-2.42,TRUE,FALSE,TRUE,TRUE,"""event"",""trial"",""time""
""fullscreenenter"",""5"",""22807""
","
","
","""event"",""trial"",""time""
""fullscreenenter"",""5"",""22807""
","
",NA,images/earth.jpg,NA,NA,NA,NA,NA,NA,NA,NA,NA,NA,NA,NA,NA,fixation,NA,NA,NA,NA,NA,NA,sub38
d3-animate-choice,264,1062871,0.0-76.0-0.43,TRUE,FALSE,TRUE,TRUE,"""event"",""trial"",""time""
""fullscreenenter"",""5"",""22807""
","
","
","""event"",""trial"",""time""
""fullscreenenter"",""5"",""22807""
","
",295.01500001060776,NA,48,NA,NA,3000,1,1850.590000016382,48,images/earth.jpg,images/rocket2,images/rocket1,null,images/rocket2,NA,1,real,null,2,NA,NA,NA,sub38
d3-animate-choice,265,1064924,0.0-76.0-1.43,TRUE,FALSE,TRUE,TRUE,"""event"",""trial"",""time""
""fullscreenenter"",""5"",""22807""
","
","
","""event"",""trial"",""time""
""fullscreenenter"",""5"",""22807""
","
",49.564999993890524,NA,48,NA,NA,3000,1,NA,NA,images/redplanet1.jpg,images/alien2,images/alien1,images/rocket2,images/alien2,images/t.png,2,real,true,2,common,1,2020-06-12T16:46:39Z,sub38
two-step-fixation,266,1065929,0.0-76.0-2.43,TRUE,FALSE,TRUE,TRUE,"""event"",""trial"",""time""
""fullscreenenter"",""5"",""22807""
","
","
","""event"",""trial"",""time""
""fullscreenenter"",""5"",""22807""
","
",NA,images/earth.jpg,NA,NA,NA,NA,NA,NA,NA,NA,NA,NA,NA,NA,NA,fixation,NA,NA,NA,NA,NA,NA,sub38
d3-animate-choice,267,1069062,0.0-76.0-0.44,TRUE,FALSE,TRUE,TRUE,"""event"",""trial"",""time""
""fullscreenenter"",""5"",""22807""
","
","
","""event"",""trial"",""time""
""fullscreenenter"",""5"",""22807""
","
",1126.7100000113714,NA,49,NA,NA,3000,1,NA,NA,images/earth.jpg,images/rocket2,images/rocket1,null,images/rocket1,NA,1,real,null,1,NA,NA,NA,sub38
d3-animate-choice,268,1071571,0.0-76.0-1.44,TRUE,FALSE,TRUE,TRUE,"""event"",""trial"",""time""
""fullscreenenter"",""5"",""22807""
","
","
","""event"",""trial"",""time""
""fullscreenenter"",""5"",""22807""
","
",503.88499998371117,NA,49,NA,NA,3000,1,714.9599999829661,48,images/purpleplanet.jpg,images/alien4,images/alien3,images/rocket1,images/alien3,images/t.png,2,real,true,1,common,1,2020-06-12T16:46:46Z,sub38
two-step-fixation,269,1072577,0.0-76.0-2.44,TRUE,FALSE,TRUE,TRUE,"""event"",""trial"",""time""
""fullscreenenter"",""5"",""22807""
","
","
","""event"",""trial"",""time""
""fullscreenenter"",""5"",""22807""
","
",NA,images/earth.jpg,NA,NA,NA,NA,NA,NA,NA,NA,NA,NA,NA,NA,NA,fixation,NA,NA,NA,NA,NA,NA,sub38
d3-animate-choice,270,1076582,0.0-76.0-0.45,TRUE,FALSE,TRUE,TRUE,"""event"",""trial"",""time""
""fullscreenenter"",""5"",""22807""
","
","
","""event"",""trial"",""time""
""fullscreenenter"",""5"",""22807""
","
",2148.814999993192,NA,49,NA,NA,3000,1,NA,NA,images/earth.jpg,images/rocket2,images/rocket1,null,images/rocket1,NA,1,real,null,1,NA,NA,NA,sub38
d3-animate-choice,271,1079707,0.0-76.0-1.45,TRUE,FALSE,TRUE,TRUE,"""event"",""trial"",""time""
""fullscreenenter"",""5"",""22807""
","
","
","""event"",""trial"",""time""
""fullscreenenter"",""5"",""22807""
","
",1116.3700000033714,NA,48,NA,NA,3000,1,NA,NA,images/redplanet1.jpg,images/alien2,images/alien1,images/rocket1,images/alien2,images/nothing.png,2,real,false,2,rare,0,2020-06-12T16:46:54Z,sub38
two-step-fixation,272,1080712,0.0-76.0-2.45,TRUE,FALSE,TRUE,TRUE,"""event"",""trial"",""time""
""fullscreenenter"",""5"",""22807""
","
","
","""event"",""trial"",""time""
""fullscreenenter"",""5"",""22807""
","
",NA,images/earth.jpg,NA,NA,NA,NA,NA,NA,NA,NA,NA,NA,NA,NA,NA,fixation,NA,NA,NA,NA,NA,NA,sub38
d3-animate-choice,273,1083442,0.0-76.0-0.46,TRUE,FALSE,TRUE,TRUE,"""event"",""trial"",""time""
""fullscreenenter"",""5"",""22807""
","
","
","""event"",""trial"",""time""
""fullscreenenter"",""5"",""22807""
","
",724.0999999921769,NA,49,NA,NA,3000,1,NA,NA,images/earth.jpg,images/rocket2,images/rocket1,null,images/rocket1,NA,1,real,null,1,NA,NA,NA,sub38
d3-animate-choice,274,1086012,0.0-76.0-1.46,TRUE,FALSE,TRUE,TRUE,"""event"",""trial"",""time""
""fullscreenenter"",""5"",""22807""
","
","
","""event"",""trial"",""time""
""fullscreenenter"",""5"",""22807""
","
",563.7950000236742,NA,49,NA,NA,3000,1,NA,NA,images/purpleplanet.jpg,images/alien4,images/alien3,images/rocket1,images/alien3,images/nothing.png,2,real,true,1,common,0,2020-06-12T16:47:00Z,sub38
two-step-fixation,275,1087018,0.0-76.0-2.46,TRUE,FALSE,TRUE,TRUE,"""event"",""trial"",""time""
""fullscreenenter"",""5"",""22807""
","
","
","""event"",""trial"",""time""
""fullscreenenter"",""5"",""22807""
","
",NA,images/earth.jpg,NA,NA,NA,NA,NA,NA,NA,NA,NA,NA,NA,NA,NA,fixation,NA,NA,NA,NA,NA,NA,sub38
d3-animate-choice,276,1089144,0.0-76.0-0.47,TRUE,FALSE,TRUE,TRUE,"""event"",""trial"",""time""
""fullscreenenter"",""5"",""22807""
","
","
","""event"",""trial"",""time""
""fullscreenenter"",""5"",""22807""
","
",120.3150000073947,NA,48,NA,NA,3000,1,NA,NA,images/earth.jpg,images/rocket2,images/rocket1,null,images/rocket2,NA,1,real,null,2,NA,NA,NA,sub38
d3-animate-choice,277,1091935,0.0-76.0-1.47,TRUE,FALSE,TRUE,TRUE,"""event"",""trial"",""time""
""fullscreenenter"",""5"",""22807""
","
","
","""event"",""trial"",""time""
""fullscreenenter"",""5"",""22807""
","
",783.4950000105891,NA,48,NA,NA,3000,1,NA,NA,images/redplanet1.jpg,images/alien2,images/alien1,images/rocket2,images/alien2,images/t.png,2,real,true,2,common,1,2020-06-12T16:47:06Z,sub38
two-step-fixation,278,1092940,0.0-76.0-2.47,TRUE,FALSE,TRUE,TRUE,"""event"",""trial"",""time""
""fullscreenenter"",""5"",""22807""
","
","
","""event"",""trial"",""time""
""fullscreenenter"",""5"",""22807""
","
",NA,images/earth.jpg,NA,NA,NA,NA,NA,NA,NA,NA,NA,NA,NA,NA,NA,fixation,NA,NA,NA,NA,NA,NA,sub38
d3-animate-choice,279,1096519,0.0-76.0-0.48,TRUE,FALSE,TRUE,TRUE,"""event"",""trial"",""time""
""fullscreenenter"",""5"",""22807""
","
","
","""event"",""trial"",""time""
""fullscreenenter"",""5"",""22807""
","
",1574.5549999992363,NA,48,NA,NA,3000,1,NA,NA,images/earth.jpg,images/rocket2,images/rocket1,null,images/rocket2,NA,1,real,null,2,NA,NA,NA,sub38
d3-animate-choice,280,1099239,0.0-76.0-1.48,TRUE,FALSE,TRUE,TRUE,"""event"",""trial"",""time""
""fullscreenenter"",""5"",""22807""
","
","
","""event"",""trial"",""time""
""fullscreenenter"",""5"",""22807""
","
",713.9900000183843,NA,48,NA,NA,3000,1,NA,NA,images/purpleplanet.jpg,images/alien4,images/alien3,images/rocket2,images/alien4,images/nothing.png,2,real,false,2,rare,0,2020-06-12T16:47:13Z,sub38
two-step-fixation,281,1100243,0.0-76.0-2.48,TRUE,FALSE,TRUE,TRUE,"""event"",""trial"",""time""
""fullscreenenter"",""5"",""22807""
","
","
","""event"",""trial"",""time""
""fullscreenenter"",""5"",""22807""
","
",NA,images/earth.jpg,NA,NA,NA,NA,NA,NA,NA,NA,NA,NA,NA,NA,NA,fixation,NA,NA,NA,NA,NA,NA,sub38
d3-animate-choice,282,1102828,0.0-76.0-0.49,TRUE,FALSE,TRUE,TRUE,"""event"",""trial"",""time""
""fullscreenenter"",""5"",""22807""
","
","
","""event"",""trial"",""time""
""fullscreenenter"",""5"",""22807""
","
",578.8699999975506,NA,49,NA,NA,3000,1,NA,NA,images/earth.jpg,images/rocket2,images/rocket1,null,images/rocket1,NA,1,real,null,1,NA,NA,NA,sub38
d3-animate-choice,283,1105448,0.0-76.0-1.49,TRUE,FALSE,TRUE,TRUE,"""event"",""trial"",""time""
""fullscreenenter"",""5"",""22807""
","
","
