trial_type,trial_index,time_elapsed,internal_node_id,rocket_sides,red_planet_first_rocket,red_display_order,purple_display_order,interactions,blur_events,focus_events,fullscreenenter_events,fullscreenexit_events,rt,stimulus,key_press,button_pressed,success,duration,valid_pressed,rts,keys,planet_text,right_text,left_text,center_text,chosen_text,reward_text,trial_stage,practice_trial,transition_type,choice,transition,reward,timestamp,subject_id
pavlovia,0,4,0.0-0.0,TRUE,TRUE,FALSE,TRUE,"""event"",""trial"",""time""
""blur"",""0"",""0""
""focus"",""1"",""29167""
","""event"",""trial"",""time""
""blur"",""0"",""0""
","""event"",""trial"",""time""
""focus"",""1"",""29167""
","
","
",NA,NA,NA,NA,NA,NA,NA,NA,NA,NA,NA,NA,NA,NA,NA,NA,NA,NA,NA,NA,NA,NA,sub42
html-keyboard-response,1,30213,0.0-1.0,TRUE,TRUE,FALSE,TRUE,"""event"",""trial"",""time""
""blur"",""0"",""0""
""focus"",""1"",""29167""
","""event"",""trial"",""time""
""blur"",""0"",""0""
","""event"",""trial"",""time""
""focus"",""1"",""29167""
","
","
",30207,Welcome! Press the space bar to begin.,32,NA,NA,NA,NA,NA,NA,NA,NA,NA,NA,NA,NA,NA,NA,NA,NA,NA,NA,NA,sub42
audio-keyboard-response,2,31451,0.0-2.0,TRUE,TRUE,FALSE,TRUE,"""event"",""trial"",""time""
""blur"",""0"",""0""
""focus"",""1"",""29167""
","""event"",""trial"",""time""
""blur"",""0"",""0""
","""event"",""trial"",""time""
""focus"",""1"",""29167""
","
","
",1228,audio/beep_loop.wav,32,NA,NA,NA,NA,NA,NA,NA,NA,NA,NA,NA,NA,NA,NA,NA,NA,NA,NA,NA,sub42
audio-button-response,3,32994,0.0-3.0,TRUE,TRUE,FALSE,TRUE,"""event"",""trial"",""time""
""blur"",""0"",""0""
""focus"",""1"",""29167""
","""event"",""trial"",""time""
""blur"",""0"",""0""
","""event"",""trial"",""time""
""focus"",""1"",""29167""
","
","
",NaN,audio/fish.mp3,NA,1,NA,NA,NA,NA,NA,NA,NA,NA,NA,NA,NA,NA,NA,NA,NA,NA,NA,NA,sub42
audio-button-response,4,34667,0.0-4.0,TRUE,TRUE,FALSE,TRUE,"""event"",""trial"",""time""
""blur"",""0"",""0""
""focus"",""1"",""29167""
""fullscreenenter"",""5"",""37271""
","""event"",""trial"",""time""
""blur"",""0"",""0""
","""event"",""trial"",""time""
""focus"",""1"",""29167""
","""event"",""trial"",""time""
""fullscreenenter"",""5"",""37271""
","
",NaN,audio/tiger.mp3,NA,4,NA,NA,NA,NA,NA,NA,NA,NA,NA,NA,NA,NA,NA,NA,NA,NA,NA,NA,sub42
fullscreen,5,38204,0.0-5.0,TRUE,TRUE,FALSE,TRUE,"""event"",""trial"",""time""
""blur"",""0"",""0""
""focus"",""1"",""29167""
""fullscreenenter"",""5"",""37271""
","""event"",""trial"",""time""
""blur"",""0"",""0""
","""event"",""trial"",""time""
""focus"",""1"",""29167""
","""event"",""trial"",""time""
""fullscreenenter"",""5"",""37271""
","
",NA,NA,NA,NA,TRUE,NA,NA,NA,NA,NA,NA,NA,NA,NA,NA,NA,NA,NA,NA,NA,NA,NA,sub42
d3-instructions,6,40532,0.0-6.0,TRUE,TRUE,FALSE,TRUE,"""event"",""trial"",""time""
""blur"",""0"",""0""
""focus"",""1"",""29167""
""fullscreenenter"",""5"",""37271""
","""event"",""trial"",""time""
""blur"",""0"",""0""
","""event"",""trial"",""time""
""focus"",""1"",""29167""
","""event"",""trial"",""time""
""fullscreenenter"",""5"",""37271""
","
",NA,NA,NA,NA,NA,NA,NA,NA,NA,NA,NA,NA,NA,NA,NA,NA,NA,NA,NA,NA,NA,NA,sub42
d3-instructions,7,41178,0.0-7.0,TRUE,TRUE,FALSE,TRUE,"""event"",""trial"",""time""
""blur"",""0"",""0""
""focus"",""1"",""29167""
""fullscreenenter"",""5"",""37271""
","""event"",""trial"",""time""
""blur"",""0"",""0""
","""event"",""trial"",""time""
""focus"",""1"",""29167""
","""event"",""trial"",""time""
""fullscreenenter"",""5"",""37271""
","
",NA,NA,NA,NA,NA,NA,NA,NA,NA,NA,NA,NA,NA,NA,NA,NA,NA,NA,NA,NA,NA,NA,sub42
d3-instructions,8,41632,0.0-8.0,TRUE,TRUE,FALSE,TRUE,"""event"",""trial"",""time""
""blur"",""0"",""0""
""focus"",""1"",""29167""
""fullscreenenter"",""5"",""37271""
","""event"",""trial"",""time""
""blur"",""0"",""0""
","""event"",""trial"",""time""
""focus"",""1"",""29167""
","""event"",""trial"",""time""
""fullscreenenter"",""5"",""37271""
","
",NA,NA,NA,NA,NA,NA,NA,NA,NA,NA,NA,NA,NA,NA,NA,NA,NA,NA,NA,NA,NA,NA,sub42
d3-instructions,9,42044,0.0-9.0,TRUE,TRUE,FALSE,TRUE,"""event"",""trial"",""time""
""blur"",""0"",""0""
""focus"",""1"",""29167""
""fullscreenenter"",""5"",""37271""
","""event"",""trial"",""time""
""blur"",""0"",""0""
","""event"",""trial"",""time""
""focus"",""1"",""29167""
","""event"",""trial"",""time""
""fullscreenenter"",""5"",""37271""
","
",NA,NA,NA,NA,NA,NA,NA,NA,NA,NA,NA,NA,NA,NA,NA,NA,NA,NA,NA,NA,NA,NA,sub42
d3-instructions,10,43465,0.0-10.0,TRUE,TRUE,FALSE,TRUE,"""event"",""trial"",""time""
""blur"",""0"",""0""
""focus"",""1"",""29167""
""fullscreenenter"",""5"",""37271""
","""event"",""trial"",""time""
""blur"",""0"",""0""
","""event"",""trial"",""time""
""focus"",""1"",""29167""
","""event"",""trial"",""time""
""fullscreenenter"",""5"",""37271""
","
",NA,NA,NA,NA,NA,NA,NA,NA,NA,NA,NA,NA,NA,NA,NA,NA,NA,NA,NA,NA,NA,NA,sub42
d3-animate-choice,11,46755,0.0-11.0,TRUE,TRUE,FALSE,TRUE,"""event"",""trial"",""time""
""blur"",""0"",""0""
""focus"",""1"",""29167""
""fullscreenenter"",""5"",""37271""
","""event"",""trial"",""time""
""blur"",""0"",""0""
","""event"",""trial"",""time""
""focus"",""1"",""29167""
","""event"",""trial"",""time""
""fullscreenenter"",""5"",""37271""
","
",1284,NA,49,NA,NA,3000,1,NA,NA,images/tutgreenplanet.jpg,images/tutalien1,images/tutalien2,null,images/tutalien2,NA,NA,practice,null,NA,NA,NA,NA,sub42
d3-animate-choice,12,50053,0.0-12.0,TRUE,TRUE,FALSE,TRUE,"""event"",""trial"",""time""
""blur"",""0"",""0""
""focus"",""1"",""29167""
""fullscreenenter"",""5"",""37271""
","""event"",""trial"",""time""
""blur"",""0"",""0""
","""event"",""trial"",""time""
""focus"",""1"",""29167""
","""event"",""trial"",""time""
""fullscreenenter"",""5"",""37271""
","
",1294.9999999999927,NA,49,NA,NA,3000,1,NA,NA,images/tutgreenplanet.jpg,images/tutalien1,images/tutalien2,null,images/tutalien2,NA,NA,practice,null,NA,NA,NA,NA,sub42
d3-animate-choice,13,52650,0.0-13.0,TRUE,TRUE,FALSE,TRUE,"""event"",""trial"",""time""
""blur"",""0"",""0""
""focus"",""1"",""29167""
""fullscreenenter"",""5"",""37271""
","""event"",""trial"",""time""
""blur"",""0"",""0""
","""event"",""trial"",""time""
""focus"",""1"",""29167""
","""event"",""trial"",""time""
""fullscreenenter"",""5"",""37271""
","
",595,NA,48,NA,NA,3000,1,NA,NA,images/tutgreenplanet.jpg,images/tutalien1,images/tutalien2,null,images/tutalien1,NA,NA,practice,null,NA,NA,NA,NA,sub42
d3-animate-choice,14,55034,0.0-14.0,TRUE,TRUE,FALSE,TRUE,"""event"",""trial"",""time""
""blur"",""0"",""0""
""focus"",""1"",""29167""
""fullscreenenter"",""5"",""37271""
","""event"",""trial"",""time""
""blur"",""0"",""0""
","""event"",""trial"",""time""
""focus"",""1"",""29167""
","""event"",""trial"",""time""
""fullscreenenter"",""5"",""37271""
","
",381,NA,49,NA,NA,3000,1,1826,48,images/tutgreenplanet.jpg,images/tutalien1,images/tutalien2,null,images/tutalien2,NA,NA,practice,null,NA,NA,NA,NA,sub42
d3-instructions,15,57045,0.0-15.0,TRUE,TRUE,FALSE,TRUE,"""event"",""trial"",""time""
""blur"",""0"",""0""
""focus"",""1"",""29167""
""fullscreenenter"",""5"",""37271""
","""event"",""trial"",""time""
""blur"",""0"",""0""
","""event"",""trial"",""time""
""focus"",""1"",""29167""
","""event"",""trial"",""time""
""fullscreenenter"",""5"",""37271""
","
",NA,NA,NA,NA,NA,NA,NA,NA,NA,NA,NA,NA,NA,NA,NA,NA,NA,NA,NA,NA,NA,NA,sub42
d3-instructions,16,57859,0.0-16.0,TRUE,TRUE,FALSE,TRUE,"""event"",""trial"",""time""
""blur"",""0"",""0""
""focus"",""1"",""29167""
""fullscreenenter"",""5"",""37271""
","""event"",""trial"",""time""
""blur"",""0"",""0""
","""event"",""trial"",""time""
""focus"",""1"",""29167""
","""event"",""trial"",""time""
""fullscreenenter"",""5"",""37271""
","
",NA,NA,NA,NA,NA,NA,NA,NA,NA,NA,NA,NA,NA,NA,NA,NA,NA,NA,NA,NA,NA,NA,sub42
d3-instructions,17,58839,0.0-17.0,TRUE,TRUE,FALSE,TRUE,"""event"",""trial"",""time""
""blur"",""0"",""0""
""focus"",""1"",""29167""
""fullscreenenter"",""5"",""37271""
","""event"",""trial"",""time""
""blur"",""0"",""0""
","""event"",""trial"",""time""
""focus"",""1"",""29167""
","""event"",""trial"",""time""
""fullscreenenter"",""5"",""37271""
","
",NA,NA,NA,NA,NA,NA,NA,NA,NA,NA,NA,NA,NA,NA,NA,NA,NA,NA,NA,NA,NA,NA,sub42
d3-instructions,18,59684,0.0-18.0,TRUE,TRUE,FALSE,TRUE,"""event"",""trial"",""time""
""blur"",""0"",""0""
""focus"",""1"",""29167""
""fullscreenenter"",""5"",""37271""
","""event"",""trial"",""time""
""blur"",""0"",""0""
","""event"",""trial"",""time""
""focus"",""1"",""29167""
","""event"",""trial"",""time""
""fullscreenenter"",""5"",""37271""
","
",NA,NA,NA,NA,NA,NA,NA,NA,NA,NA,NA,NA,NA,NA,NA,NA,NA,NA,NA,NA,NA,NA,sub42
d3-instructions,19,61223,0.0-19.0,TRUE,TRUE,FALSE,TRUE,"""event"",""trial"",""time""
""blur"",""0"",""0""
""focus"",""1"",""29167""
""fullscreenenter"",""5"",""37271""
","""event"",""trial"",""time""
""blur"",""0"",""0""
","""event"",""trial"",""time""
""focus"",""1"",""29167""
","""event"",""trial"",""time""
""fullscreenenter"",""5"",""37271""
","
",NA,NA,NA,NA,NA,NA,NA,NA,NA,NA,NA,NA,NA,NA,NA,NA,NA,NA,NA,NA,NA,NA,sub42
d3-animate-choice,20,64839,0.0-20.0,TRUE,TRUE,FALSE,TRUE,"""event"",""trial"",""time""
""blur"",""0"",""0""
""focus"",""1"",""29167""
""fullscreenenter"",""5"",""37271""
","""event"",""trial"",""time""
""blur"",""0"",""0""
","""event"",""trial"",""time""
""focus"",""1"",""29167""
","""event"",""trial"",""time""
""fullscreenenter"",""5"",""37271""
","
",1613.0000000000073,NA,49,NA,NA,3000,1,NA,NA,images/tutyellowplanet.jpg,null,images/tutalien3,null,images/tutalien3,images/t.png,NA,practice,null,NA,NA,NA,NA,sub42
d3-animate-choice,21,67446,0.0-21.0,TRUE,TRUE,FALSE,TRUE,"""event"",""trial"",""time""
""blur"",""0"",""0""
""focus"",""1"",""29167""
""fullscreenenter"",""5"",""37271""
","""event"",""trial"",""time""
""blur"",""0"",""0""
","""event"",""trial"",""time""
""focus"",""1"",""29167""
","""event"",""trial"",""time""
""fullscreenenter"",""5"",""37271""
","
",605,NA,49,NA,NA,3000,1,NA,NA,images/tutyellowplanet.jpg,null,images/tutalien3,null,images/tutalien3,images/t.png,NA,practice,null,NA,NA,NA,NA,sub42
d3-animate-choice,22,69970,0.0-22.0,TRUE,TRUE,FALSE,TRUE,"""event"",""trial"",""time""
""blur"",""0"",""0""
""focus"",""1"",""29167""
""fullscreenenter"",""5"",""37271""
","""event"",""trial"",""time""
""blur"",""0"",""0""
","""event"",""trial"",""time""
""focus"",""1"",""29167""
","""event"",""trial"",""time""
""fullscreenenter"",""5"",""37271""
","
",521,NA,49,NA,NA,3000,1,NA,NA,images/tutyellowplanet.jpg,null,images/tutalien3,null,images/tutalien3,images/t.png,NA,practice,null,NA,NA,NA,NA,sub42
d3-animate-choice,23,72506,0.0-23.0,TRUE,TRUE,FALSE,TRUE,"""event"",""trial"",""time""
""blur"",""0"",""0""
""focus"",""1"",""29167""
""fullscreenenter"",""5"",""37271""
","""event"",""trial"",""time""
""blur"",""0"",""0""
","""event"",""trial"",""time""
""focus"",""1"",""29167""
","""event"",""trial"",""time""
""fullscreenenter"",""5"",""37271""
","
",534,NA,49,NA,NA,3000,1,NA,NA,images/tutyellowplanet.jpg,null,images/tutalien3,null,images/tutalien3,images/t.png,NA,practice,null,NA,NA,NA,NA,sub42
d3-animate-choice,24,74810,0.0-24.0,TRUE,TRUE,FALSE,TRUE,"""event"",""trial"",""time""
""blur"",""0"",""0""
""focus"",""1"",""29167""
""fullscreenenter"",""5"",""37271""
","""event"",""trial"",""time""
""blur"",""0"",""0""
","""event"",""trial"",""time""
""focus"",""1"",""29167""
","""event"",""trial"",""time""
""fullscreenenter"",""5"",""37271""
","
",302,NA,49,NA,NA,3000,1,NA,NA,images/tutyellowplanet.jpg,null,images/tutalien3,null,images/tutalien3,images/t.png,NA,practice,null,NA,NA,NA,NA,sub42
d3-animate-choice,25,77395,0.0-25.0,TRUE,TRUE,FALSE,TRUE,"""event"",""trial"",""time""
""blur"",""0"",""0""
""focus"",""1"",""29167""
""fullscreenenter"",""5"",""37271""
","""event"",""trial"",""time""
""blur"",""0"",""0""
","""event"",""trial"",""time""
""focus"",""1"",""29167""
","""event"",""trial"",""time""
""fullscreenenter"",""5"",""37271""
","
",582,NA,49,NA,NA,3000,1,NA,NA,images/tutyellowplanet.jpg,null,images/tutalien3,null,images/tutalien3,images/nothing.png,NA,practice,null,NA,NA,NA,NA,sub42
d3-animate-choice,26,79975,0.0-26.0,TRUE,TRUE,FALSE,TRUE,"""event"",""trial"",""time""
""blur"",""0"",""0""
""focus"",""1"",""29167""
""fullscreenenter"",""5"",""37271""
","""event"",""trial"",""time""
""blur"",""0"",""0""
","""event"",""trial"",""time""
""focus"",""1"",""29167""
","""event"",""trial"",""time""
""fullscreenenter"",""5"",""37271""
","
",576,NA,49,NA,NA,3000,1,NA,NA,images/tutyellowplanet.jpg,null,images/tutalien3,null,images/tutalien3,images/nothing.png,NA,practice,null,NA,NA,NA,NA,sub42
d3-animate-choice,27,82568,0.0-27.0,TRUE,TRUE,FALSE,TRUE,"""event"",""trial"",""time""
""blur"",""0"",""0""
""focus"",""1"",""29167""
""fullscreenenter"",""5"",""37271""
","""event"",""trial"",""time""
""blur"",""0"",""0""
","""event"",""trial"",""time""
""focus"",""1"",""29167""
","""event"",""trial"",""time""
""fullscreenenter"",""5"",""37271""
","
",591,NA,49,NA,NA,3000,1,NA,NA,images/tutyellowplanet.jpg,null,images/tutalien3,null,images/tutalien3,images/t.png,NA,practice,null,NA,NA,NA,NA,sub42
d3-animate-choice,28,85216,0.0-28.0,TRUE,TRUE,FALSE,TRUE,"""event"",""trial"",""time""
""blur"",""0"",""0""
""focus"",""1"",""29167""
""fullscreenenter"",""5"",""37271""
","""event"",""trial"",""time""
""blur"",""0"",""0""
","""event"",""trial"",""time""
""focus"",""1"",""29167""
","""event"",""trial"",""time""
""fullscreenenter"",""5"",""37271""
","
",647,NA,49,NA,NA,3000,1,NA,NA,images/tutyellowplanet.jpg,null,images/tutalien3,null,images/tutalien3,images/t.png,NA,practice,null,NA,NA,NA,NA,sub42
d3-animate-choice,29,87629,0.0-29.0,TRUE,TRUE,FALSE,TRUE,"""event"",""trial"",""time""
""blur"",""0"",""0""
""focus"",""1"",""29167""
""fullscreenenter"",""5"",""37271""
","""event"",""trial"",""time""
""blur"",""0"",""0""
","""event"",""trial"",""time""
""focus"",""1"",""29167""
","""event"",""trial"",""time""
""fullscreenenter"",""5"",""37271""
","
",411,NA,49,NA,NA,3000,1,NA,NA,images/tutyellowplanet.jpg,null,images/tutalien3,null,images/tutalien3,images/t.png,NA,practice,null,NA,NA,NA,NA,sub42
d3-instructions,30,89518,0.0-30.0,TRUE,TRUE,FALSE,TRUE,"""event"",""trial"",""time""
""blur"",""0"",""0""
""focus"",""1"",""29167""
""fullscreenenter"",""5"",""37271""
","""event"",""trial"",""time""
""blur"",""0"",""0""
","""event"",""trial"",""time""
""focus"",""1"",""29167""
","""event"",""trial"",""time""
""fullscreenenter"",""5"",""37271""
","
",NA,NA,NA,NA,NA,NA,NA,NA,NA,NA,NA,NA,NA,NA,NA,NA,NA,NA,NA,NA,NA,NA,sub42
d3-instructions,31,90475,0.0-31.0,TRUE,TRUE,FALSE,TRUE,"""event"",""trial"",""time""
""blur"",""0"",""0""
""focus"",""1"",""29167""
""fullscreenenter"",""5"",""37271""
","""event"",""trial"",""time""
""blur"",""0"",""0""
","""event"",""trial"",""time""
""focus"",""1"",""29167""
","""event"",""trial"",""time""
""fullscreenenter"",""5"",""37271""
","
",NA,NA,NA,NA,NA,NA,NA,NA,NA,NA,NA,NA,NA,NA,NA,NA,NA,NA,NA,NA,NA,NA,sub42
d3-instructions,32,91972,0.0-32.0,TRUE,TRUE,FALSE,TRUE,"""event"",""trial"",""time""
""blur"",""0"",""0""
""focus"",""1"",""29167""
""fullscreenenter"",""5"",""37271""
","""event"",""trial"",""time""
""blur"",""0"",""0""
","""event"",""trial"",""time""
""focus"",""1"",""29167""
","""event"",""trial"",""time""
""fullscreenenter"",""5"",""37271""
","
",NA,NA,NA,NA,NA,NA,NA,NA,NA,NA,NA,NA,NA,NA,NA,NA,NA,NA,NA,NA,NA,NA,sub42
d3-instructions,33,93282,0.0-33.0,TRUE,TRUE,FALSE,TRUE,"""event"",""trial"",""time""
""blur"",""0"",""0""
""focus"",""1"",""29167""
""fullscreenenter"",""5"",""37271""
","""event"",""trial"",""time""
""blur"",""0"",""0""
","""event"",""trial"",""time""
""focus"",""1"",""29167""
","""event"",""trial"",""time""
""fullscreenenter"",""5"",""37271""
","
",NA,NA,NA,NA,NA,NA,NA,NA,NA,NA,NA,NA,NA,NA,NA,NA,NA,NA,NA,NA,NA,NA,sub42
d3-animate-choice,34,96465,0.0-34.0,TRUE,TRUE,FALSE,TRUE,"""event"",""trial"",""time""
""blur"",""0"",""0""
""focus"",""1"",""29167""
""fullscreenenter"",""5"",""37271""
","""event"",""trial"",""time""
""blur"",""0"",""0""
","""event"",""trial"",""time""
""focus"",""1"",""29167""
","""event"",""trial"",""time""
""fullscreenenter"",""5"",""37271""
","
",1179.9999999999854,NA,49,NA,NA,3000,1,NA,NA,images/tutgreenplanet.jpg,images/tutalien1,images/tutalien2,null,images/tutalien2,images/t.png,NA,practice,null,NA,NA,NA,NA,sub42
d3-animate-choice,35,98923,0.0-35.0,TRUE,TRUE,FALSE,TRUE,"""event"",""trial"",""time""
""blur"",""0"",""0""
""focus"",""1"",""29167""
""fullscreenenter"",""5"",""37271""
","""event"",""trial"",""time""
""blur"",""0"",""0""
","""event"",""trial"",""time""
""focus"",""1"",""29167""
","""event"",""trial"",""time""
""fullscreenenter"",""5"",""37271""
","
",455.00000000001455,NA,49,NA,NA,3000,1,NA,NA,images/tutgreenplanet.jpg,images/tutalien1,images/tutalien2,null,images/tutalien2,images/t.png,NA,practice,null,NA,NA,NA,NA,sub42
d3-animate-choice,36,101383,0.0-36.0,TRUE,TRUE,FALSE,TRUE,"""event"",""trial"",""time""
""blur"",""0"",""0""
""focus"",""1"",""29167""
""fullscreenenter"",""5"",""37271""
","""event"",""trial"",""time""
""blur"",""0"",""0""
","""event"",""trial"",""time""
""focus"",""1"",""29167""
","""event"",""trial"",""time""
""fullscreenenter"",""5"",""37271""
","
",458.99999999998545,NA,49,NA,NA,3000,1,NA,NA,images/tutgreenplanet.jpg,images/tutalien1,images/tutalien2,null,images/tutalien2,images/t.png,NA,practice,null,NA,NA,NA,NA,sub42
d3-animate-choice,37,103841,0.0-37.0,TRUE,TRUE,FALSE,TRUE,"""event"",""trial"",""time""
""blur"",""0"",""0""
""focus"",""1"",""29167""
""fullscreenenter"",""5"",""37271""
","""event"",""trial"",""time""
""blur"",""0"",""0""
","""event"",""trial"",""time""
""focus"",""1"",""29167""
","""event"",""trial"",""time""
""fullscreenenter"",""5"",""37271""
","
",455,NA,49,NA,NA,3000,1,NA,NA,images/tutgreenplanet.jpg,images/tutalien1,images/tutalien2,null,images/tutalien2,images/t.png,NA,practice,null,NA,NA,NA,NA,sub42
d3-animate-choice,38,106130,0.0-38.0,TRUE,TRUE,FALSE,TRUE,"""event"",""trial"",""time""
""blur"",""0"",""0""
""focus"",""1"",""29167""
""fullscreenenter"",""5"",""37271""
","""event"",""trial"",""time""
""blur"",""0"",""0""
","""event"",""trial"",""time""
""focus"",""1"",""29167""
","""event"",""trial"",""time""
""fullscreenenter"",""5"",""37271""
","
",286,NA,49,NA,NA,3000,1,1734.0000000000146,49,images/tutgreenplanet.jpg,images/tutalien1,images/tutalien2,null,images/tutalien2,images/t.png,NA,practice,null,NA,NA,NA,NA,sub42
d3-animate-choice,39,108621,0.0-39.0,TRUE,TRUE,FALSE,TRUE,"""event"",""trial"",""time""
""blur"",""0"",""0""
""focus"",""1"",""29167""
""fullscreenenter"",""5"",""37271""
","""event"",""trial"",""time""
""blur"",""0"",""0""
","""event"",""trial"",""time""
""focus"",""1"",""29167""
","""event"",""trial"",""time""
""fullscreenenter"",""5"",""37271""
","
",489,NA,49,NA,NA,3000,1,1962,49,images/tutgreenplanet.jpg,images/tutalien1,images/tutalien2,null,images/tutalien2,images/t.png,NA,practice,null,NA,NA,NA,NA,sub42
d3-animate-choice,40,111008,0.0-40.0,TRUE,TRUE,FALSE,TRUE,"""event"",""trial"",""time""
""blur"",""0"",""0""
""focus"",""1"",""29167""
""fullscreenenter"",""5"",""37271""
","""event"",""trial"",""time""
""blur"",""0"",""0""
","""event"",""trial"",""time""
""focus"",""1"",""29167""
","""event"",""trial"",""time""
""fullscreenenter"",""5"",""37271""
","
",385,NA,49,NA,NA,3000,1,NA,NA,images/tutgreenplanet.jpg,images/tutalien1,images/tutalien2,null,images/tutalien2,images/t.png,NA,practice,null,NA,NA,NA,NA,sub42
d3-animate-choice,41,113442,0.0-41.0,TRUE,TRUE,FALSE,TRUE,"""event"",""trial"",""time""
""blur"",""0"",""0""
""focus"",""1"",""29167""
""fullscreenenter"",""5"",""37271""
","""event"",""trial"",""time""
""blur"",""0"",""0""
","""event"",""trial"",""time""
""focus"",""1"",""29167""
","""event"",""trial"",""time""
""fullscreenenter"",""5"",""37271""
","
",432,NA,49,NA,NA,3000,1,NA,NA,images/tutgreenplanet.jpg,images/tutalien1,images/tutalien2,null,images/tutalien2,images/t.png,NA,practice,null,NA,NA,NA,NA,sub42
d3-animate-choice,42,115982,0.0-42.0,TRUE,TRUE,FALSE,TRUE,"""event"",""trial"",""time""
""blur"",""0"",""0""
""focus"",""1"",""29167""
""fullscreenenter"",""5"",""37271""
","""event"",""trial"",""time""
""blur"",""0"",""0""
","""event"",""trial"",""time""
""focus"",""1"",""29167""
","""event"",""trial"",""time""
""fullscreenenter"",""5"",""37271""
","
",538,NA,49,NA,NA,3000,1,NA,NA,images/tutgreenplanet.jpg,images/tutalien1,images/tutalien2,null,images/tutalien2,images/t.png,NA,practice,null,NA,NA,NA,NA,sub42
d3-animate-choice,43,118228,0.0-43.0,TRUE,TRUE,FALSE,TRUE,"""event"",""trial"",""time""
""blur"",""0"",""0""
""focus"",""1"",""29167""
""fullscreenenter"",""5"",""37271""
","""event"",""trial"",""time""
""blur"",""0"",""0""
","""event"",""trial"",""time""
""focus"",""1"",""29167""
","""event"",""trial"",""time""
""fullscreenenter"",""5"",""37271""
","
",246,NA,49,NA,NA,3000,1,NA,NA,images/tutgreenplanet.jpg,images/tutalien1,images/tutalien2,null,images/tutalien2,images/t.png,NA,practice,null,NA,NA,NA,NA,sub42
d3-instructions,44,121111,0.0-44.0,TRUE,TRUE,FALSE,TRUE,"""event"",""trial"",""time""
""blur"",""0"",""0""
""focus"",""1"",""29167""
""fullscreenenter"",""5"",""37271""
","""event"",""trial"",""time""
""blur"",""0"",""0""
","""event"",""trial"",""time""
""focus"",""1"",""29167""
","""event"",""trial"",""time""
""fullscreenenter"",""5"",""37271""
","
",NA,NA,NA,NA,NA,NA,NA,NA,NA,NA,NA,NA,NA,NA,NA,NA,NA,NA,NA,NA,NA,NA,sub42
d3-instructions,45,121855,0.0-45.0,TRUE,TRUE,FALSE,TRUE,"""event"",""trial"",""time""
""blur"",""0"",""0""
""focus"",""1"",""29167""
""fullscreenenter"",""5"",""37271""
","""event"",""trial"",""time""
""blur"",""0"",""0""
","""event"",""trial"",""time""
""focus"",""1"",""29167""
","""event"",""trial"",""time""
""fullscreenenter"",""5"",""37271""
","
",NA,NA,NA,NA,NA,NA,NA,NA,NA,NA,NA,NA,NA,NA,NA,NA,NA,NA,NA,NA,NA,NA,sub42
d3-instructions,46,122537,0.0-46.0,TRUE,TRUE,FALSE,TRUE,"""event"",""trial"",""time""
""blur"",""0"",""0""
""focus"",""1"",""29167""
""fullscreenenter"",""5"",""37271""
","""event"",""trial"",""time""
""blur"",""0"",""0""
","""event"",""trial"",""time""
""focus"",""1"",""29167""
","""event"",""trial"",""time""
""fullscreenenter"",""5"",""37271""
","
",NA,NA,NA,NA,NA,NA,NA,NA,NA,NA,NA,NA,NA,NA,NA,NA,NA,NA,NA,NA,NA,NA,sub42
d3-instructions,47,123153,0.0-47.0,TRUE,TRUE,FALSE,TRUE,"""event"",""trial"",""time""
""blur"",""0"",""0""
""focus"",""1"",""29167""
""fullscreenenter"",""5"",""37271""
","""event"",""trial"",""time""
""blur"",""0"",""0""
","""event"",""trial"",""time""
""focus"",""1"",""29167""
","""event"",""trial"",""time""
""fullscreenenter"",""5"",""37271""
","
",NA,NA,NA,NA,NA,NA,NA,NA,NA,NA,NA,NA,NA,NA,NA,NA,NA,NA,NA,NA,NA,NA,sub42
d3-instructions,48,123682,0.0-48.0,TRUE,TRUE,FALSE,TRUE,"""event"",""trial"",""time""
""blur"",""0"",""0""
""focus"",""1"",""29167""
""fullscreenenter"",""5"",""37271""
","""event"",""trial"",""time""
""blur"",""0"",""0""
","""event"",""trial"",""time""
""focus"",""1"",""29167""
","""event"",""trial"",""time""
""fullscreenenter"",""5"",""37271""
","
",NA,NA,NA,NA,NA,NA,NA,NA,NA,NA,NA,NA,NA,NA,NA,NA,NA,NA,NA,NA,NA,NA,sub42
d3-instructions,49,124412,0.0-49.0,TRUE,TRUE,FALSE,TRUE,"""event"",""trial"",""time""
""blur"",""0"",""0""
""focus"",""1"",""29167""
""fullscreenenter"",""5"",""37271""
","""event"",""trial"",""time""
""blur"",""0"",""0""
","""event"",""trial"",""time""
""focus"",""1"",""29167""
","""event"",""trial"",""time""
""fullscreenenter"",""5"",""37271""
","
",NA,NA,NA,NA,NA,NA,NA,NA,NA,NA,NA,NA,NA,NA,NA,NA,NA,NA,NA,NA,NA,NA,sub42
d3-instructions,50,124981,0.0-50.0,TRUE,TRUE,FALSE,TRUE,"""event"",""trial"",""time""
""blur"",""0"",""0""
""focus"",""1"",""29167""
""fullscreenenter"",""5"",""37271""
","""event"",""trial"",""time""
""blur"",""0"",""0""
","""event"",""trial"",""time""
""focus"",""1"",""29167""
","""event"",""trial"",""time""
""fullscreenenter"",""5"",""37271""
","
",NA,NA,NA,NA,NA,NA,NA,NA,NA,NA,NA,NA,NA,NA,NA,NA,NA,NA,NA,NA,NA,NA,sub42
d3-instructions,51,125594,0.0-51.0,TRUE,TRUE,FALSE,TRUE,"""event"",""trial"",""time""
""blur"",""0"",""0""
""focus"",""1"",""29167""
""fullscreenenter"",""5"",""37271""
","""event"",""trial"",""time""
""blur"",""0"",""0""
","""event"",""trial"",""time""
""focus"",""1"",""29167""
","""event"",""trial"",""time""
""fullscreenenter"",""5"",""37271""
","
",NA,NA,NA,NA,NA,NA,NA,NA,NA,NA,NA,NA,NA,NA,NA,NA,NA,NA,NA,NA,NA,NA,sub42
d3-instructions,52,126140,0.0-52.0,TRUE,TRUE,FALSE,TRUE,"""event"",""trial"",""time""
""blur"",""0"",""0""
""focus"",""1"",""29167""
""fullscreenenter"",""5"",""37271""
","""event"",""trial"",""time""
""blur"",""0"",""0""
","""event"",""trial"",""time""
""focus"",""1"",""29167""
","""event"",""trial"",""time""
""fullscreenenter"",""5"",""37271""
","
",NA,NA,NA,NA,NA,NA,NA,NA,NA,NA,NA,NA,NA,NA,NA,NA,NA,NA,NA,NA,NA,NA,sub42
d3-instructions,53,126657,0.0-53.0,TRUE,TRUE,FALSE,TRUE,"""event"",""trial"",""time""
""blur"",""0"",""0""
""focus"",""1"",""29167""
""fullscreenenter"",""5"",""37271""
","""event"",""trial"",""time""
""blur"",""0"",""0""
","""event"",""trial"",""time""
""focus"",""1"",""29167""
","""event"",""trial"",""time""
""fullscreenenter"",""5"",""37271""
","
",NA,NA,NA,NA,NA,NA,NA,NA,NA,NA,NA,NA,NA,NA,NA,NA,NA,NA,NA,NA,NA,NA,sub42
d3-instructions,54,127383,0.0-54.0,TRUE,TRUE,FALSE,TRUE,"""event"",""trial"",""time""
""blur"",""0"",""0""
""focus"",""1"",""29167""
""fullscreenenter"",""5"",""37271""
","""event"",""trial"",""time""
""blur"",""0"",""0""
","""event"",""trial"",""time""
""focus"",""1"",""29167""
","""event"",""trial"",""time""
""fullscreenenter"",""5"",""37271""
","
",NA,NA,NA,NA,NA,NA,NA,NA,NA,NA,NA,NA,NA,NA,NA,NA,NA,NA,NA,NA,NA,NA,sub42
d3-instructions,55,127803,0.0-55.0,TRUE,TRUE,FALSE,TRUE,"""event"",""trial"",""time""
""blur"",""0"",""0""
""focus"",""1"",""29167""
""fullscreenenter"",""5"",""37271""
","""event"",""trial"",""time""
""blur"",""0"",""0""
","""event"",""trial"",""time""
""focus"",""1"",""29167""
","""event"",""trial"",""time""
""fullscreenenter"",""5"",""37271""
","
",NA,NA,NA,NA,NA,NA,NA,NA,NA,NA,NA,NA,NA,NA,NA,NA,NA,NA,NA,NA,NA,NA,sub42
d3-instructions,56,128360,0.0-56.0,TRUE,TRUE,FALSE,TRUE,"""event"",""trial"",""time""
""blur"",""0"",""0""
""focus"",""1"",""29167""
""fullscreenenter"",""5"",""37271""
","""event"",""trial"",""time""
""blur"",""0"",""0""
","""event"",""trial"",""time""
""focus"",""1"",""29167""
","""event"",""trial"",""time""
""fullscreenenter"",""5"",""37271""
","
",NA,NA,NA,NA,NA,NA,NA,NA,NA,NA,NA,NA,NA,NA,NA,NA,NA,NA,NA,NA,NA,NA,sub42
d3-instructions,57,130347,0.0-57.0,TRUE,TRUE,FALSE,TRUE,"""event"",""trial"",""time""
""blur"",""0"",""0""
""focus"",""1"",""29167""
""fullscreenenter"",""5"",""37271""
","""event"",""trial"",""time""
""blur"",""0"",""0""
","""event"",""trial"",""time""
""focus"",""1"",""29167""
","""event"",""trial"",""time""
""fullscreenenter"",""5"",""37271""
","
",NA,NA,NA,NA,NA,NA,NA,NA,NA,NA,NA,NA,NA,NA,NA,NA,NA,NA,NA,NA,NA,NA,sub42
d3-instructions,58,131238,0.0-58.0,TRUE,TRUE,FALSE,TRUE,"""event"",""trial"",""time""
""blur"",""0"",""0""
""focus"",""1"",""29167""
""fullscreenenter"",""5"",""37271""
","""event"",""trial"",""time""
""blur"",""0"",""0""
","""event"",""trial"",""time""
""focus"",""1"",""29167""
","""event"",""trial"",""time""
""fullscreenenter"",""5"",""37271""
","
",NA,NA,NA,NA,NA,NA,NA,NA,NA,NA,NA,NA,NA,NA,NA,NA,NA,NA,NA,NA,NA,NA,sub42
d3-instructions,59,131972,0.0-59.0,TRUE,TRUE,FALSE,TRUE,"""event"",""trial"",""time""
""blur"",""0"",""0""
""focus"",""1"",""29167""
""fullscreenenter"",""5"",""37271""
","""event"",""trial"",""time""
""blur"",""0"",""0""
","""event"",""trial"",""time""
""focus"",""1"",""29167""
","""event"",""trial"",""time""
""fullscreenenter"",""5"",""37271""
","
",NA,NA,NA,NA,NA,NA,NA,NA,NA,NA,NA,NA,NA,NA,NA,NA,NA,NA,NA,NA,NA,NA,sub42
d3-instructions,60,132853,0.0-60.0,TRUE,TRUE,FALSE,TRUE,"""event"",""trial"",""time""
""blur"",""0"",""0""
""focus"",""1"",""29167""
""fullscreenenter"",""5"",""37271""
","""event"",""trial"",""time""
""blur"",""0"",""0""
","""event"",""trial"",""time""
""focus"",""1"",""29167""
","""event"",""trial"",""time""
""fullscreenenter"",""5"",""37271""
","
",NA,NA,NA,NA,NA,NA,NA,NA,NA,NA,NA,NA,NA,NA,NA,NA,NA,NA,NA,NA,NA,NA,sub42
d3-animate-choice,61,135853,0.0-61.0-0.0,TRUE,TRUE,FALSE,TRUE,"""event"",""trial"",""time""
""blur"",""0"",""0""
""focus"",""1"",""29167""
""fullscreenenter"",""5"",""37271""
","""event"",""trial"",""time""
""blur"",""0"",""0""
","""event"",""trial"",""time""
""focus"",""1"",""29167""
","""event"",""trial"",""time""
""fullscreenenter"",""5"",""37271""
","
",998,NA,49,NA,NA,3000,1,NA,NA,images/earth.jpg,images/tutrocket1,images/tutrocket2,null,images/tutrocket2,NA,1,practice,null,1,NA,NA,NA,sub42
d3-animate-choice,62,139535,0.0-61.0-1.0,TRUE,TRUE,FALSE,TRUE,"""event"",""trial"",""time""
""blur"",""0"",""0""
""focus"",""1"",""29167""
""fullscreenenter"",""5"",""37271""
","""event"",""trial"",""time""
""blur"",""0"",""0""
","""event"",""trial"",""time""
""focus"",""1"",""29167""
","""event"",""trial"",""time""
""fullscreenenter"",""5"",""37271""
","
",626.0000000000291,NA,32,NA,NA,3000,1,1679,49,images/tutgreenplanet.jpg,images/tutalien2,images/tutalien1,images/tutrocket2,images/tutalien1,images/nothing.png,2,practice,false,NA,rare,0,2020-06-12T18:30:46Z,sub42
two-step-fixation,63,140536,0.0-61.0-2.0,TRUE,TRUE,FALSE,TRUE,"""event"",""trial"",""time""
""blur"",""0"",""0""
""focus"",""1"",""29167""
""fullscreenenter"",""5"",""37271""
","""event"",""trial"",""time""
""blur"",""0"",""0""
","""event"",""trial"",""time""
""focus"",""1"",""29167""
","""event"",""trial"",""time""
""fullscreenenter"",""5"",""37271""
","
",NA,images/earth.jpg,NA,NA,NA,NA,NA,NA,NA,NA,NA,NA,NA,NA,NA,fixation,NA,NA,NA,NA,NA,NA,sub42
d3-animate-choice,64,143823,0.0-61.0-0.1,TRUE,TRUE,FALSE,TRUE,"""event"",""trial"",""time""
""blur"",""0"",""0""
""focus"",""1"",""29167""
""fullscreenenter"",""5"",""37271""
","""event"",""trial"",""time""
""blur"",""0"",""0""
","""event"",""trial"",""time""
""focus"",""1"",""29167""
","""event"",""trial"",""time""
""fullscreenenter"",""5"",""37271""
","
",1284,NA,49,NA,NA,3000,1,NA,NA,images/earth.jpg,images/tutrocket1,images/tutrocket2,null,images/tutrocket2,NA,1,practice,null,1,NA,NA,NA,sub42
d3-animate-choice,65,146684,0.0-61.0-1.1,TRUE,TRUE,FALSE,TRUE,"""event"",""trial"",""time""
""blur"",""0"",""0""
""focus"",""1"",""29167""
""fullscreenenter"",""5"",""37271""
","""event"",""trial"",""time""
""blur"",""0"",""0""
","""event"",""trial"",""time""
""focus"",""1"",""29167""
","""event"",""trial"",""time""
""fullscreenenter"",""5"",""37271""
","
",859,NA,49,NA,NA,3000,1,NA,NA,images/tutyellowplanet.jpg,images/tutalien4,images/tutalien3,images/tutrocket2,images/tutalien3,images/nothing.png,2,practice,true,1,common,0,2020-06-12T18:30:53Z,sub42
two-step-fixation,66,147686,0.0-61.0-2.1,TRUE,TRUE,FALSE,TRUE,"""event"",""trial"",""time""
""blur"",""0"",""0""
""focus"",""1"",""29167""
""fullscreenenter"",""5"",""37271""
","""event"",""trial"",""time""
""blur"",""0"",""0""
","""event"",""trial"",""time""
""focus"",""1"",""29167""
","""event"",""trial"",""time""
""fullscreenenter"",""5"",""37271""
","
",NA,images/earth.jpg,NA,NA,NA,NA,NA,NA,NA,NA,NA,NA,NA,NA,NA,fixation,NA,NA,NA,NA,NA,NA,sub42
d3-animate-choice,67,150171,0.0-61.0-0.2,TRUE,TRUE,FALSE,TRUE,"""event"",""trial"",""time""
""blur"",""0"",""0""
""focus"",""1"",""29167""
""fullscreenenter"",""5"",""37271""
","""event"",""trial"",""time""
""blur"",""0"",""0""
","""event"",""trial"",""time""
""focus"",""1"",""29167""
","""event"",""trial"",""time""
""fullscreenenter"",""5"",""37271""
","
",483,NA,49,NA,NA,3000,1,NA,NA,images/earth.jpg,images/tutrocket1,images/tutrocket2,null,images/tutrocket2,NA,1,practice,null,1,NA,NA,NA,sub42
d3-animate-choice,68,152928,0.0-61.0-1.2,TRUE,TRUE,FALSE,TRUE,"""event"",""trial"",""time""
""blur"",""0"",""0""
""focus"",""1"",""29167""
""fullscreenenter"",""5"",""37271""
","""event"",""trial"",""time""
""blur"",""0"",""0""
","""event"",""trial"",""time""
""focus"",""1"",""29167""
","""event"",""trial"",""time""
""fullscreenenter"",""5"",""37271""
","
",756,NA,49,NA,NA,3000,1,NA,NA,images/tutyellowplanet.jpg,images/tutalien4,images/tutalien3,images/tutrocket2,images/tutalien3,images/t.png,2,practice,true,1,common,1,2020-06-12T18:31:00Z,sub42
two-step-fixation,69,153930,0.0-61.0-2.2,TRUE,TRUE,FALSE,TRUE,"""event"",""trial"",""time""
""blur"",""0"",""0""
""focus"",""1"",""29167""
""fullscreenenter"",""5"",""37271""
","""event"",""trial"",""time""
""blur"",""0"",""0""
","""event"",""trial"",""time""
""focus"",""1"",""29167""
","""event"",""trial"",""time""
""fullscreenenter"",""5"",""37271""
","
",NA,images/earth.jpg,NA,NA,NA,NA,NA,NA,NA,NA,NA,NA,NA,NA,NA,fixation,NA,NA,NA,NA,NA,NA,sub42
d3-animate-choice,70,156471,0.0-61.0-0.3,TRUE,TRUE,FALSE,TRUE,"""event"",""trial"",""time""
""blur"",""0"",""0""
""focus"",""1"",""29167""
""fullscreenenter"",""5"",""37271""
","""event"",""trial"",""time""
""blur"",""0"",""0""
","""event"",""trial"",""time""
""focus"",""1"",""29167""
","""event"",""trial"",""time""
""fullscreenenter"",""5"",""37271""
","
",537,NA,49,NA,NA,3000,1,NA,NA,images/earth.jpg,images/tutrocket1,images/tutrocket2,null,images/tutrocket2,NA,1,practice,null,1,NA,NA,NA,sub42
d3-animate-choice,71,159031,0.0-61.0-1.3,TRUE,TRUE,FALSE,TRUE,"""event"",""trial"",""time""
""blur"",""0"",""0""
""focus"",""1"",""29167""
""fullscreenenter"",""5"",""37271""
","""event"",""trial"",""time""
""blur"",""0"",""0""
","""event"",""trial"",""time""
""focus"",""1"",""29167""
","""event"",""trial"",""time""
""fullscreenenter"",""5"",""37271""
","
",558,NA,49,NA,NA,3000,1,NA,NA,images/tutyellowplanet.jpg,images/tutalien4,images/tutalien3,images/tutrocket2,images/tutalien3,images/nothing.png,2,practice,true,1,common,0,2020-06-12T18:31:06Z,sub42
two-step-fixation,72,160034,0.0-61.0-2.3,TRUE,TRUE,FALSE,TRUE,"""event"",""trial"",""time""
""blur"",""0"",""0""
""focus"",""1"",""29167""
""fullscreenenter"",""5"",""37271""
","""event"",""trial"",""time""
""blur"",""0"",""0""
","""event"",""trial"",""time""
""focus"",""1"",""29167""
","""event"",""trial"",""time""
""fullscreenenter"",""5"",""37271""
","
",NA,images/earth.jpg,NA,NA,NA,NA,NA,NA,NA,NA,NA,NA,NA,NA,NA,fixation,NA,NA,NA,NA,NA,NA,sub42
d3-animate-choice,73,162527,0.0-61.0-0.4,TRUE,TRUE,FALSE,TRUE,"""event"",""trial"",""time""
""blur"",""0"",""0""
""focus"",""1"",""29167""
""fullscreenenter"",""5"",""37271""
","""event"",""trial"",""time""
""blur"",""0"",""0""
","""event"",""trial"",""time""
""focus"",""1"",""29167""
","""event"",""trial"",""time""
""fullscreenenter"",""5"",""37271""
","
",491,NA,49,NA,NA,3000,1,NA,NA,images/earth.jpg,images/tutrocket1,images/tutrocket2,null,images/tutrocket2,NA,1,practice,null,1,NA,NA,NA,sub42
d3-animate-choice,74,165536,0.0-61.0-1.4,TRUE,TRUE,FALSE,TRUE,"""event"",""trial"",""time""
""blur"",""0"",""0""
""focus"",""1"",""29167""
""fullscreenenter"",""5"",""37271""
","""event"",""trial"",""time""
""blur"",""0"",""0""
","""event"",""trial"",""time""
""focus"",""1"",""29167""
","""event"",""trial"",""time""
""fullscreenenter"",""5"",""37271""
","
",1006.9999999999709,NA,48,NA,NA,3000,1,NA,NA,images/tutyellowplanet.jpg,images/tutalien4,images/tutalien3,images/tutrocket2,images/tutalien4,images/t.png,2,practice,true,2,common,1,2020-06-12T18:31:12Z,sub42
two-step-fixation,75,166537,0.0-61.0-2.4,TRUE,TRUE,FALSE,TRUE,"""event"",""trial"",""time""
""blur"",""0"",""0""
""focus"",""1"",""29167""
""fullscreenenter"",""5"",""37271""
","""event"",""trial"",""time""
""blur"",""0"",""0""
","""event"",""trial"",""time""
""focus"",""1"",""29167""
","""event"",""trial"",""time""
""fullscreenenter"",""5"",""37271""
","
",NA,images/earth.jpg,NA,NA,NA,NA,NA,NA,NA,NA,NA,NA,NA,NA,NA,fixation,NA,NA,NA,NA,NA,NA,sub42
d3-animate-choice,76,169982,0.0-61.0-0.5,TRUE,TRUE,FALSE,TRUE,"""event"",""trial"",""time""
""blur"",""0"",""0""
""focus"",""1"",""29167""
""fullscreenenter"",""5"",""37271""
","""event"",""trial"",""time""
""blur"",""0"",""0""
","""event"",""trial"",""time""
""focus"",""1"",""29167""
","""event"",""trial"",""time""
""fullscreenenter"",""5"",""37271""
","
",1442.000000000029,NA,49,NA,NA,3000,1,NA,NA,images/earth.jpg,images/tutrocket1,images/tutrocket2,null,images/tutrocket2,NA,1,practice,null,1,NA,NA,NA,sub42
d3-animate-choice,77,173975,0.0-61.0-1.5,TRUE,TRUE,FALSE,TRUE,"""event"",""trial"",""time""
""blur"",""0"",""0""
""focus"",""1"",""29167""
""fullscreenenter"",""5"",""37271""
","""event"",""trial"",""time""
""blur"",""0"",""0""
","""event"",""trial"",""time""
""focus"",""1"",""29167""
","""event"",""trial"",""time""
""fullscreenenter"",""5"",""37271""
","
",1989,NA,49,NA,NA,3000,1,NA,NA,images/tutgreenplanet.jpg,images/tutalien2,images/tutalien1,images/tutrocket2,images/tutalien1,images/nothing.png,2,practice,false,1,rare,0,2020-06-12T18:31:21Z,sub42
two-step-fixation,78,174976,0.0-61.0-2.5,TRUE,TRUE,FALSE,TRUE,"""event"",""trial"",""time""
""blur"",""0"",""0""
""focus"",""1"",""29167""
""fullscreenenter"",""5"",""37271""
","""event"",""trial"",""time""
""blur"",""0"",""0""
","""event"",""trial"",""time""
""focus"",""1"",""29167""
","""event"",""trial"",""time""
""fullscreenenter"",""5"",""37271""
","
",NA,images/earth.jpg,NA,NA,NA,NA,NA,NA,NA,NA,NA,NA,NA,NA,NA,fixation,NA,NA,NA,NA,NA,NA,sub42
d3-animate-choice,79,177621,0.0-61.0-0.6,TRUE,TRUE,FALSE,TRUE,"""event"",""trial"",""time""
""blur"",""0"",""0""
""focus"",""1"",""29167""
""fullscreenenter"",""5"",""37271""
","""event"",""trial"",""time""
""blur"",""0"",""0""
","""event"",""trial"",""time""
""focus"",""1"",""29167""
","""event"",""trial"",""time""
""fullscreenenter"",""5"",""37271""
","
",642,NA,49,NA,NA,3000,1,NA,NA,images/earth.jpg,images/tutrocket1,images/tutrocket2,null,images/tutrocket2,NA,1,practice,null,1,NA,NA,NA,sub42
d3-animate-choice,80,180107,0.0-61.0-1.6,TRUE,TRUE,FALSE,TRUE,"""event"",""trial"",""time""
""blur"",""0"",""0""
""focus"",""1"",""29167""
""fullscreenenter"",""5"",""37271""
","""event"",""trial"",""time""
""blur"",""0"",""0""
","""event"",""trial"",""time""
""focus"",""1"",""29167""
","""event"",""trial"",""time""
""fullscreenenter"",""5"",""37271""
","
",484.0000000000291,NA,48,NA,NA,3000,1,NA,NA,images/tutyellowplanet.jpg,images/tutalien4,images/tutalien3,images/tutrocket2,images/tutalien4,images/nothing.png,2,practice,true,2,common,0,2020-06-12T18:31:27Z,sub42
two-step-fixation,81,181109,0.0-61.0-2.6,TRUE,TRUE,FALSE,TRUE,"""event"",""trial"",""time""
""blur"",""0"",""0""
""focus"",""1"",""29167""
""fullscreenenter"",""5"",""37271""
","""event"",""trial"",""time""
""blur"",""0"",""0""
","""event"",""trial"",""time""
""focus"",""1"",""29167""
","""event"",""trial"",""time""
""fullscreenenter"",""5"",""37271""
","
",NA,images/earth.jpg,NA,NA,NA,NA,NA,NA,NA,NA,NA,NA,NA,NA,NA,fixation,NA,NA,NA,NA,NA,NA,sub42
d3-animate-choice,82,184374,0.0-61.0-0.7,TRUE,TRUE,FALSE,TRUE,"""event"",""trial"",""time""
""blur"",""0"",""0""
""focus"",""1"",""29167""
""fullscreenenter"",""5"",""37271""
","""event"",""trial"",""time""
""blur"",""0"",""0""
","""event"",""trial"",""time""
""focus"",""1"",""29167""
","""event"",""trial"",""time""
""fullscreenenter"",""5"",""37271""
","
",1263,NA,48,NA,NA,3000,1,NA,NA,images/earth.jpg,images/tutrocket1,images/tutrocket2,null,images/tutrocket1,NA,1,practice,null,2,NA,NA,NA,sub42
d3-animate-choice,83,186883,0.0-61.0-1.7,TRUE,TRUE,FALSE,TRUE,"""event"",""trial"",""time""
""blur"",""0"",""0""
""focus"",""1"",""29167""
""fullscreenenter"",""5"",""37271""
","""event"",""trial"",""time""
""blur"",""0"",""0""
","""event"",""trial"",""time""
""focus"",""1"",""29167""
","""event"",""trial"",""time""
""fullscreenenter"",""5"",""37271""
","
",506,NA,48,NA,NA,3000,1,NA,NA,images/tutgreenplanet.jpg,images/tutalien2,images/tutalien1,images/tutrocket1,images/tutalien2,images/t.png,2,practice,true,2,common,1,2020-06-12T18:31:33Z,sub42
two-step-fixation,84,187884,0.0-61.0-2.7,TRUE,TRUE,FALSE,TRUE,"""event"",""trial"",""time""
""blur"",""0"",""0""
""focus"",""1"",""29167""
""fullscreenenter"",""5"",""37271""
","""event"",""trial"",""time""
""blur"",""0"",""0""
","""event"",""trial"",""time""
""focus"",""1"",""29167""
","""event"",""trial"",""time""
""fullscreenenter"",""5"",""37271""
","
",NA,images/earth.jpg,NA,NA,NA,NA,NA,NA,NA,NA,NA,NA,NA,NA,NA,fixation,NA,NA,NA,NA,NA,NA,sub42
d3-animate-choice,85,190435,0.0-61.0-0.8,TRUE,TRUE,FALSE,TRUE,"""event"",""trial"",""time""
""blur"",""0"",""0""
""focus"",""1"",""29167""
""fullscreenenter"",""5"",""37271""
","""event"",""trial"",""time""
""blur"",""0"",""0""
","""event"",""trial"",""time""
""focus"",""1"",""29167""
","""event"",""trial"",""time""
""fullscreenenter"",""5"",""37271""
","
",550,NA,48,NA,NA,3000,1,NA,NA,images/earth.jpg,images/tutrocket1,images/tutrocket2,null,images/tutrocket1,NA,1,practice,null,2,NA,NA,NA,sub42
d3-animate-choice,86,194439,0.0-61.0-1.8,TRUE,TRUE,FALSE,TRUE,"""event"",""trial"",""time""
""blur"",""0"",""0""
""focus"",""1"",""29167""
""fullscreenenter"",""5"",""37271""
","""event"",""trial"",""time""
""blur"",""0"",""0""
","""event"",""trial"",""time""
""focus"",""1"",""29167""
","""event"",""trial"",""time""
""fullscreenenter"",""5"",""37271""
","
",2074.000000000029,NA,49,NA,NA,3000,1,NA,NA,images/tutyellowplanet.jpg,images/tutalien4,images/tutalien3,images/tutrocket1,images/tutalien3,images/nothing.png,2,practice,false,1,rare,0,2020-06-12T18:31:41Z,sub42
two-step-fixation,87,195441,0.0-61.0-2.8,TRUE,TRUE,FALSE,TRUE,"""event"",""trial"",""time""
""blur"",""0"",""0""
""focus"",""1"",""29167""
""fullscreenenter"",""5"",""37271""
","""event"",""trial"",""time""
""blur"",""0"",""0""
","""event"",""trial"",""time""
""focus"",""1"",""29167""
","""event"",""trial"",""time""
""fullscreenenter"",""5"",""37271""
","
",NA,images/earth.jpg,NA,NA,NA,NA,NA,NA,NA,NA,NA,NA,NA,NA,NA,fixation,NA,NA,NA,NA,NA,NA,sub42
d3-animate-choice,88,197895,0.0-61.0-0.9,TRUE,TRUE,FALSE,TRUE,"""event"",""trial"",""time""
""blur"",""0"",""0""
""focus"",""1"",""29167""
""fullscreenenter"",""5"",""37271""
","""event"",""trial"",""time""
""blur"",""0"",""0""
","""event"",""trial"",""time""
""focus"",""1"",""29167""
","""event"",""trial"",""time""
""fullscreenenter"",""5"",""37271""
","
",452,NA,48,NA,NA,3000,1,NA,NA,images/earth.jpg,images/tutrocket1,images/tutrocket2,null,images/tutrocket1,NA,1,practice,null,2,NA,NA,NA,sub42
d3-animate-choice,89,200503,0.0-61.0-1.9,TRUE,TRUE,FALSE,TRUE,"""event"",""trial"",""time""
""blur"",""0"",""0""
""focus"",""1"",""29167""
""fullscreenenter"",""5"",""37271""
","""event"",""trial"",""time""
""blur"",""0"",""0""
","""event"",""trial"",""time""
""focus"",""1"",""29167""
","""event"",""trial"",""time""
""fullscreenenter"",""5"",""37271""
","
",606,NA,48,NA,NA,3000,1,NA,NA,images/tutgreenplanet.jpg,images/tutalien2,images/tutalien1,images/tutrocket1,images/tutalien2,images/nothing.png,2,practice,true,2,common,0,2020-06-12T18:31:47Z,sub42
two-step-fixation,90,201506,0.0-61.0-2.9,TRUE,TRUE,FALSE,TRUE,"""event"",""trial"",""time""
""blur"",""0"",""0""
""focus"",""1"",""29167""
""fullscreenenter"",""5"",""37271""
","""event"",""trial"",""time""
""blur"",""0"",""0""
","""event"",""trial"",""time""
""focus"",""1"",""29167""
","""event"",""trial"",""time""
""fullscreenenter"",""5"",""37271""
","
",NA,images/earth.jpg,NA,NA,NA,NA,NA,NA,NA,NA,NA,NA,NA,NA,NA,fixation,NA,NA,NA,NA,NA,NA,sub42
d3-animate-choice,91,204015,0.0-61.0-0.10,TRUE,TRUE,FALSE,TRUE,"""event"",""trial"",""time""
""blur"",""0"",""0""
""focus"",""1"",""29167""
""fullscreenenter"",""5"",""37271""
","""event"",""trial"",""time""
""blur"",""0"",""0""
","""event"",""trial"",""time""
""focus"",""1"",""29167""
","""event"",""trial"",""time""
""fullscreenenter"",""5"",""37271""
","
",506,NA,48,NA,NA,3000,1,NA,NA,images/earth.jpg,images/tutrocket1,images/tutrocket2,null,images/tutrocket1,NA,1,practice,null,2,NA,NA,NA,sub42
d3-animate-choice,92,207851,0.0-61.0-1.10,TRUE,TRUE,FALSE,TRUE,"""event"",""trial"",""time""
""blur"",""0"",""0""
""focus"",""1"",""29167""
""fullscreenenter"",""5"",""37271""
","""event"",""trial"",""time""
""blur"",""0"",""0""
","""event"",""trial"",""time""
""focus"",""1"",""29167""
","""event"",""trial"",""time""
""fullscreenenter"",""5"",""37271""
","
",1833,NA,48,NA,NA,3000,1,NA,NA,images/tutyellowplanet.jpg,images/tutalien4,images/tutalien3,images/tutrocket1,images/tutalien4,images/nothing.png,2,practice,false,2,rare,0,2020-06-12T18:31:54Z,sub42
two-step-fixation,93,208852,0.0-61.0-2.10,TRUE,TRUE,FALSE,TRUE,"""event"",""trial"",""time""
""blur"",""0"",""0""
""focus"",""1"",""29167""
""fullscreenenter"",""5"",""37271""
","""event"",""trial"",""time""
""blur"",""0"",""0""
","""event"",""trial"",""time""
""focus"",""1"",""29167""
","""event"",""trial"",""time""
""fullscreenenter"",""5"",""37271""
","
",NA,images/earth.jpg,NA,NA,NA,NA,NA,NA,NA,NA,NA,NA,NA,NA,NA,fixation,NA,NA,NA,NA,NA,NA,sub42
d3-animate-choice,94,211232,0.0-61.0-0.11,TRUE,TRUE,FALSE,TRUE,"""event"",""trial"",""time""
""blur"",""0"",""0""
""focus"",""1"",""29167""
""fullscreenenter"",""5"",""37271""
","""event"",""trial"",""time""
""blur"",""0"",""0""
","""event"",""trial"",""time""
""focus"",""1"",""29167""
","""event"",""trial"",""time""
""fullscreenenter"",""5"",""37271""
","
",377,NA,48,NA,NA,3000,1,NA,NA,images/earth.jpg,images/tutrocket1,images/tutrocket2,null,images/tutrocket1,NA,1,practice,null,2,NA,NA,NA,sub42
d3-animate-choice,95,214840,0.0-61.0-1.11,TRUE,TRUE,FALSE,TRUE,"""event"",""trial"",""time""
""blur"",""0"",""0""
""focus"",""1"",""29167""
""fullscreenenter"",""5"",""37271""
","""event"",""trial"",""time""
""blur"",""0"",""0""
","""event"",""trial"",""time""
""focus"",""1"",""29167""
","""event"",""trial"",""time""
""fullscreenenter"",""5"",""37271""
","
",1604,NA,48,NA,NA,3000,1,NA,NA,images/tutgreenplanet.jpg,images/tutalien2,images/tutalien1,images/tutrocket1,images/tutalien2,images/nothing.png,2,practice,true,2,common,0,2020-06-12T18:32:01Z,sub42
two-step-fixation,96,215842,0.0-61.0-2.11,TRUE,TRUE,FALSE,TRUE,"""event"",""trial"",""time""
""blur"",""0"",""0""
""focus"",""1"",""29167""
""fullscreenenter"",""5"",""37271""
","""event"",""trial"",""time""
""blur"",""0"",""0""
","""event"",""trial"",""time""
""focus"",""1"",""29167""
","""event"",""trial"",""time""
""fullscreenenter"",""5"",""37271""
","
",NA,images/earth.jpg,NA,NA,NA,NA,NA,NA,NA,NA,NA,NA,NA,NA,NA,fixation,NA,NA,NA,NA,NA,NA,sub42
d3-animate-choice,97,218480,0.0-61.0-0.12,TRUE,TRUE,FALSE,TRUE,"""event"",""trial"",""time""
""blur"",""0"",""0""
""focus"",""1"",""29167""
""fullscreenenter"",""5"",""37271""
","""event"",""trial"",""time""
""blur"",""0"",""0""
","""event"",""trial"",""time""
""focus"",""1"",""29167""
","""event"",""trial"",""time""
""fullscreenenter"",""5"",""37271""
","
",636,NA,48,NA,NA,3000,1,NA,NA,images/earth.jpg,images/tutrocket1,images/tutrocket2,null,images/tutrocket1,NA,1,practice,null,2,NA,NA,NA,sub42
d3-animate-choice,98,221045,0.0-61.0-1.12,TRUE,TRUE,FALSE,TRUE,"""event"",""trial"",""time""
""blur"",""0"",""0""
""focus"",""1"",""29167""
""fullscreenenter"",""5"",""37271""
","""event"",""trial"",""time""
""blur"",""0"",""0""
","""event"",""trial"",""time""
""focus"",""1"",""29167""
","""event"",""trial"",""time""
""fullscreenenter"",""5"",""37271""
","
",560.9999999999709,NA,49,NA,NA,3000,1,NA,NA,images/tutgreenplanet.jpg,images/tutalien2,images/tutalien1,images/tutrocket1,images/tutalien1,images/nothing.png,2,practice,true,1,common,0,2020-06-12T18:32:08Z,sub42
two-step-fixation,99,222046,0.0-61.0-2.12,TRUE,TRUE,FALSE,TRUE,"""event"",""trial"",""time""
""blur"",""0"",""0""
""focus"",""1"",""29167""
""fullscreenenter"",""5"",""37271""
","""event"",""trial"",""time""
""blur"",""0"",""0""
","""event"",""trial"",""time""
""focus"",""1"",""29167""
","""event"",""trial"",""time""
""fullscreenenter"",""5"",""37271""
","
",NA,images/earth.jpg,NA,NA,NA,NA,NA,NA,NA,NA,NA,NA,NA,NA,NA,fixation,NA,NA,NA,NA,NA,NA,sub42
d3-animate-choice,100,224454,0.0-61.0-0.13,TRUE,TRUE,FALSE,TRUE,"""event"",""trial"",""time""
""blur"",""0"",""0""
""focus"",""1"",""29167""
""fullscreenenter"",""5"",""37271""
","""event"",""trial"",""time""
""blur"",""0"",""0""
","""event"",""trial"",""time""
""focus"",""1"",""29167""
","""event"",""trial"",""time""
""fullscreenenter"",""5"",""37271""
","
",406.0000000000291,NA,49,NA,NA,3000,1,NA,NA,images/earth.jpg,images/tutrocket1,images/tutrocket2,null,images/tutrocket2,NA,1,practice,null,1,NA,NA,NA,sub42
d3-animate-choice,101,226990,0.0-61.0-1.13,TRUE,TRUE,FALSE,TRUE,"""event"",""trial"",""time""
""blur"",""0"",""0""
""focus"",""1"",""29167""
""fullscreenenter"",""5"",""37271""
","""event"",""trial"",""time""
""blur"",""0"",""0""
","""event"",""trial"",""time""
""focus"",""1"",""29167""
","""event"",""trial"",""time""
""fullscreenenter"",""5"",""37271""
","
",533.0000000000291,NA,49,NA,NA,3000,1,NA,NA,images/tutyellowplanet.jpg,images/tutalien4,images/tutalien3,images/tutrocket2,images/tutalien3,images/t.png,2,practice,true,1,common,1,2020-06-12T18:32:14Z,sub42
two-step-fixation,102,227992,0.0-61.0-2.13,TRUE,TRUE,FALSE,TRUE,"""event"",""trial"",""time""
""blur"",""0"",""0""
""focus"",""1"",""29167""
""fullscreenenter"",""5"",""37271""
","""event"",""trial"",""time""
""blur"",""0"",""0""
","""event"",""trial"",""time""
""focus"",""1"",""29167""
","""event"",""trial"",""time""
""fullscreenenter"",""5"",""37271""
","
",NA,images/earth.jpg,NA,NA,NA,NA,NA,NA,NA,NA,NA,NA,NA,NA,NA,fixation,NA,NA,NA,NA,NA,NA,sub42
d3-animate-choice,103,230418,0.0-61.0-0.14,TRUE,TRUE,FALSE,TRUE,"""event"",""trial"",""time""
""blur"",""0"",""0""
""focus"",""1"",""29167""
""fullscreenenter"",""5"",""37271""
","""event"",""trial"",""time""
""blur"",""0"",""0""
","""event"",""trial"",""time""
""focus"",""1"",""29167""
","""event"",""trial"",""time""
""fullscreenenter"",""5"",""37271""
","
",424.0000000000291,NA,49,NA,NA,3000,1,NA,NA,images/earth.jpg,images/tutrocket1,images/tutrocket2,null,images/tutrocket2,NA,1,practice,null,1,NA,NA,NA,sub42
d3-animate-choice,104,232808,0.0-61.0-1.14,TRUE,TRUE,FALSE,TRUE,"""event"",""trial"",""time""
""blur"",""0"",""0""
""focus"",""1"",""29167""
""fullscreenenter"",""5"",""37271""
","""event"",""trial"",""time""
""blur"",""0"",""0""
","""event"",""trial"",""time""
""focus"",""1"",""29167""
","""event"",""trial"",""time""
""fullscreenenter"",""5"",""37271""
","
",388,NA,49,NA,NA,3000,1,NA,NA,images/tutyellowplanet.jpg,images/tutalien4,images/tutalien3,images/tutrocket2,images/tutalien3,images/t.png,2,practice,true,1,common,1,2020-06-12T18:32:19Z,sub42
two-step-fixation,105,233810,0.0-61.0-2.14,TRUE,TRUE,FALSE,TRUE,"""event"",""trial"",""time""
""blur"",""0"",""0""
""focus"",""1"",""29167""
""fullscreenenter"",""5"",""37271""
","""event"",""trial"",""time""
""blur"",""0"",""0""
","""event"",""trial"",""time""
""focus"",""1"",""29167""
","""event"",""trial"",""time""
""fullscreenenter"",""5"",""37271""
","
",NA,images/earth.jpg,NA,NA,NA,NA,NA,NA,NA,NA,NA,NA,NA,NA,NA,fixation,NA,NA,NA,NA,NA,NA,sub42
d3-animate-choice,106,236220,0.0-61.0-0.15,TRUE,TRUE,FALSE,TRUE,"""event"",""trial"",""time""
""blur"",""0"",""0""
""focus"",""1"",""29167""
""fullscreenenter"",""5"",""37271""
","""event"",""trial"",""time""
""blur"",""0"",""0""
","""event"",""trial"",""time""
""focus"",""1"",""29167""
","""event"",""trial"",""time""
""fullscreenenter"",""5"",""37271""
","
",408,NA,49,NA,NA,3000,1,NA,NA,images/earth.jpg,images/tutrocket1,images/tutrocket2,null,images/tutrocket2,NA,1,practice,null,1,NA,NA,NA,sub42
d3-animate-choice,107,238689,0.0-61.0-1.15,TRUE,TRUE,FALSE,TRUE,"""event"",""trial"",""time""
""blur"",""0"",""0""
""focus"",""1"",""29167""
""fullscreenenter"",""5"",""37271""
","""event"",""trial"",""time""
""blur"",""0"",""0""
","""event"",""trial"",""time""
""focus"",""1"",""29167""
","""event"",""trial"",""time""
""fullscreenenter"",""5"",""37271""
","
",467,NA,49,NA,NA,3000,1,NA,NA,images/tutyellowplanet.jpg,images/tutalien4,images/tutalien3,images/tutrocket2,images/tutalien3,images/t.png,2,practice,true,1,common,1,2020-06-12T18:32:25Z,sub42
two-step-fixation,108,239691,0.0-61.0-2.15,TRUE,TRUE,FALSE,TRUE,"""event"",""trial"",""time""
""blur"",""0"",""0""
""focus"",""1"",""29167""
""fullscreenenter"",""5"",""37271""
","""event"",""trial"",""time""
""blur"",""0"",""0""
","""event"",""trial"",""time""
""focus"",""1"",""29167""
","""event"",""trial"",""time""
""fullscreenenter"",""5"",""37271""
","
",NA,images/earth.jpg,NA,NA,NA,NA,NA,NA,NA,NA,NA,NA,NA,NA,NA,fixation,NA,NA,NA,NA,NA,NA,sub42
d3-animate-choice,109,242061,0.0-61.0-0.16,TRUE,TRUE,FALSE,TRUE,"""event"",""trial"",""time""
""blur"",""0"",""0""
""focus"",""1"",""29167""
""fullscreenenter"",""5"",""37271""
","""event"",""trial"",""time""
""blur"",""0"",""0""
","""event"",""trial"",""time""
""focus"",""1"",""29167""
","""event"",""trial"",""time""
""fullscreenenter"",""5"",""37271""
","
",368.0000000000291,NA,49,NA,NA,3000,1,NA,NA,images/earth.jpg,images/tutrocket1,images/tutrocket2,null,images/tutrocket2,NA,1,practice,null,1,NA,NA,NA,sub42
d3-animate-choice,110,244440,0.0-61.0-1.16,TRUE,TRUE,FALSE,TRUE,"""event"",""trial"",""time""
""blur"",""0"",""0""
""focus"",""1"",""29167""
""fullscreenenter"",""5"",""37271""
","""event"",""trial"",""time""
""blur"",""0"",""0""
","""event"",""trial"",""time""
""focus"",""1"",""29167""
","""event"",""trial"",""time""
""fullscreenenter"",""5"",""37271""
","
",376,NA,49,NA,NA,3000,1,NA,NA,images/tutyellowplanet.jpg,images/tutalien4,images/tutalien3,images/tutrocket2,images/tutalien3,images/t.png,2,practice,true,1,common,1,2020-06-12T18:32:31Z,sub42
two-step-fixation,111,245442,0.0-61.0-2.16,TRUE,TRUE,FALSE,TRUE,"""event"",""trial"",""time""
""blur"",""0"",""0""
""focus"",""1"",""29167""
""fullscreenenter"",""5"",""37271""
","""event"",""trial"",""time""
""blur"",""0"",""0""
","""event"",""trial"",""time""
""focus"",""1"",""29167""
","""event"",""trial"",""time""
""fullscreenenter"",""5"",""37271""
","
",NA,images/earth.jpg,NA,NA,NA,NA,NA,NA,NA,NA,NA,NA,NA,NA,NA,fixation,NA,NA,NA,NA,NA,NA,sub42
d3-animate-choice,112,247708,0.0-61.0-0.17,TRUE,TRUE,FALSE,TRUE,"""event"",""trial"",""time""
""blur"",""0"",""0""
""focus"",""1"",""29167""
""fullscreenenter"",""5"",""37271""
","""event"",""trial"",""time""
""blur"",""0"",""0""
","""event"",""trial"",""time""
""focus"",""1"",""29167""
","""event"",""trial"",""time""
""fullscreenenter"",""5"",""37271""
","
",264,NA,49,NA,NA,3000,1,NA,NA,images/earth.jpg,images/tutrocket1,images/tutrocket2,null,images/tutrocket2,NA,1,practice,null,1,NA,NA,NA,sub42
d3-animate-choice,113,250584,0.0-61.0-1.17,TRUE,TRUE,FALSE,TRUE,"""event"",""trial"",""time""
""blur"",""0"",""0""
""focus"",""1"",""29167""
""fullscreenenter"",""5"",""37271""
","""event"",""trial"",""time""
""blur"",""0"",""0""
","""event"",""trial"",""time""
""focus"",""1"",""29167""
","""event"",""trial"",""time""
""fullscreenenter"",""5"",""37271""
","
",874,NA,49,NA,NA,3000,1,NA,NA,images/tutyellowplanet.jpg,images/tutalien4,images/tutalien3,images/tutrocket2,images/tutalien3,images/nothing.png,2,practice,true,1,common,0,2020-06-12T18:32:37Z,sub42
two-step-fixation,114,251586,0.0-61.0-2.17,TRUE,TRUE,FALSE,TRUE,"""event"",""trial"",""time""
""blur"",""0"",""0""
""focus"",""1"",""29167""
""fullscreenenter"",""5"",""37271""
","""event"",""trial"",""time""
""blur"",""0"",""0""
","""event"",""trial"",""time""
""focus"",""1"",""29167""
","""event"",""trial"",""time""
""fullscreenenter"",""5"",""37271""
","
",NA,images/earth.jpg,NA,NA,NA,NA,NA,NA,NA,NA,NA,NA,NA,NA,NA,fixation,NA,NA,NA,NA,NA,NA,sub42
d3-animate-choice,115,253955,0.0-61.0-0.18,TRUE,TRUE,FALSE,TRUE,"""event"",""trial"",""time""
""blur"",""0"",""0""
""focus"",""1"",""29167""
""fullscreenenter"",""5"",""37271""
","""event"",""trial"",""time""
""blur"",""0"",""0""
","""event"",""trial"",""time""
""focus"",""1"",""29167""
","""event"",""trial"",""time""
""fullscreenenter"",""5"",""37271""
","
",366.0000000000291,NA,49,NA,NA,3000,1,NA,NA,images/earth.jpg,images/tutrocket1,images/tutrocket2,null,images/tutrocket2,NA,1,practice,null,1,NA,NA,NA,sub42
d3-animate-choice,116,256542,0.0-61.0-1.18,TRUE,TRUE,FALSE,TRUE,"""event"",""trial"",""time""
""blur"",""0"",""0""
""focus"",""1"",""29167""
""fullscreenenter"",""5"",""37271""
","""event"",""trial"",""time""
""blur"",""0"",""0""
","""event"",""trial"",""time""
""focus"",""1"",""29167""
","""event"",""trial"",""time""
""fullscreenenter"",""5"",""37271""
","
",584.9999999999709,NA,49,NA,NA,3000,1,NA,NA,images/tutyellowplanet.jpg,images/tutalien4,images/tutalien3,images/tutrocket2,images/tutalien3,images/nothing.png,2,practice,true,1,common,0,2020-06-12T18:32:43Z,sub42
two-step-fixation,117,257544,0.0-61.0-2.18,TRUE,TRUE,FALSE,TRUE,"""event"",""trial"",""time""
""blur"",""0"",""0""
""focus"",""1"",""29167""
""fullscreenenter"",""5"",""37271""
","""event"",""trial"",""time""
""blur"",""0"",""0""
","""event"",""trial"",""time""
""focus"",""1"",""29167""
","""event"",""trial"",""time""
""fullscreenenter"",""5"",""37271""
","
",NA,images/earth.jpg,NA,NA,NA,NA,NA,NA,NA,NA,NA,NA,NA,NA,NA,fixation,NA,NA,NA,NA,NA,NA,sub42
d3-animate-choice,118,259914,0.0-61.0-0.19,TRUE,TRUE,FALSE,TRUE,"""event"",""trial"",""time""
""blur"",""0"",""0""
""focus"",""1"",""29167""
""fullscreenenter"",""5"",""37271""
","""event"",""trial"",""time""
""blur"",""0"",""0""
","""event"",""trial"",""time""
""focus"",""1"",""29167""
","""event"",""trial"",""time""
""fullscreenenter"",""5"",""37271""
","
",368,NA,49,NA,NA,3000,1,NA,NA,images/earth.jpg,images/tutrocket1,images/tutrocket2,null,images/tutrocket2,NA,1,practice,null,1,NA,NA,NA,sub42
d3-animate-choice,119,262343,0.0-61.0-1.19,TRUE,TRUE,FALSE,TRUE,"""event"",""trial"",""time""
""blur"",""0"",""0""
""focus"",""1"",""29167""
""fullscreenenter"",""5"",""37271""
","""event"",""trial"",""time""
""blur"",""0"",""0""
","""event"",""trial"",""time""
""focus"",""1"",""29167""
","""event"",""trial"",""time""
""fullscreenenter"",""5"",""37271""
","
",425,NA,49,NA,NA,3000,1,NA,NA,images/tutyellowplanet.jpg,images/tutalien4,images/tutalien3,images/tutrocket2,images/tutalien3,images/t.png,2,practice,true,1,common,1,2020-06-12T18:32:49Z,sub42
two-step-fixation,120,263345,0.0-61.0-2.19,TRUE,TRUE,FALSE,TRUE,"""event"",""trial"",""time""
""blur"",""0"",""0""
""focus"",""1"",""29167""
""fullscreenenter"",""5"",""37271""
","""event"",""trial"",""time""
""blur"",""0"",""0""
","""event"",""trial"",""time""
""focus"",""1"",""29167""
","""event"",""trial"",""time""
""fullscreenenter"",""5"",""37271""
","
",NA,images/earth.jpg,NA,NA,NA,NA,NA,NA,NA,NA,NA,NA,NA,NA,NA,fixation,NA,NA,NA,NA,NA,NA,sub42
d3-instructions,121,266355,0.0-62.0,TRUE,TRUE,FALSE,TRUE,"""event"",""trial"",""time""
""blur"",""0"",""0""
""focus"",""1"",""29167""
""fullscreenenter"",""5"",""37271""
","""event"",""trial"",""time""
""blur"",""0"",""0""
","""event"",""trial"",""time""
""focus"",""1"",""29167""
","""event"",""trial"",""time""
""fullscreenenter"",""5"",""37271""
","
",NA,NA,NA,NA,NA,NA,NA,NA,NA,NA,NA,NA,NA,NA,NA,NA,NA,NA,NA,NA,NA,NA,sub42
audio-keyboard-response,122,269580,0.0-63.0,TRUE,TRUE,FALSE,TRUE,"""event"",""trial"",""time""
""blur"",""0"",""0""
""focus"",""1"",""29167""
""fullscreenenter"",""5"",""37271""
","""event"",""trial"",""time""
""blur"",""0"",""0""
","""event"",""trial"",""time""
""focus"",""1"",""29167""
","""event"",""trial"",""time""
""fullscreenenter"",""5"",""37271""
","
",3225,audio/instructions/treasure_feedback.wav,32,NA,NA,NA,NA,NA,NA,NA,NA,NA,NA,NA,NA,NA,NA,NA,NA,NA,NA,NA,sub42
d3-instructions,123,280282,0.0-64.0,TRUE,TRUE,FALSE,TRUE,"""event"",""trial"",""time""
""blur"",""0"",""0""
""focus"",""1"",""29167""
""fullscreenenter"",""5"",""37271""
","""event"",""trial"",""time""
""blur"",""0"",""0""
","""event"",""trial"",""time""
""focus"",""1"",""29167""
","""event"",""trial"",""time""
""fullscreenenter"",""5"",""37271""
","
",NA,NA,NA,NA,NA,NA,NA,NA,NA,NA,NA,NA,NA,NA,NA,NA,NA,NA,NA,NA,NA,NA,sub42
d3-instructions,124,296365,0.0-65.0,TRUE,TRUE,FALSE,TRUE,"""event"",""trial"",""time""
""blur"",""0"",""0""
""focus"",""1"",""29167""
""fullscreenenter"",""5"",""37271""
","""event"",""trial"",""time""
""blur"",""0"",""0""
","""event"",""trial"",""time""
""focus"",""1"",""29167""
","""event"",""trial"",""time""
""fullscreenenter"",""5"",""37271""
","
",NA,NA,NA,NA,NA,NA,NA,NA,NA,NA,NA,NA,NA,NA,NA,NA,NA,NA,NA,NA,NA,NA,sub42
d3-instructions,125,308010,0.0-66.0,TRUE,TRUE,FALSE,TRUE,"""event"",""trial"",""time""
""blur"",""0"",""0""
""focus"",""1"",""29167""
""fullscreenenter"",""5"",""37271""
","""event"",""trial"",""time""
""blur"",""0"",""0""
","""event"",""trial"",""time""
""focus"",""1"",""29167""
","""event"",""trial"",""time""
""fullscreenenter"",""5"",""37271""
","
",NA,NA,NA,NA,NA,NA,NA,NA,NA,NA,NA,NA,NA,NA,NA,NA,NA,NA,NA,NA,NA,NA,sub42
d3-instructions,126,318599,0.0-67.0,TRUE,TRUE,FALSE,TRUE,"""event"",""trial"",""time""
""blur"",""0"",""0""
""focus"",""1"",""29167""
""fullscreenenter"",""5"",""37271""
","""event"",""trial"",""time""
""blur"",""0"",""0""
","""event"",""trial"",""time""
""focus"",""1"",""29167""
","""event"",""trial"",""time""
""fullscreenenter"",""5"",""37271""
","
",NA,NA,NA,NA,NA,NA,NA,NA,NA,NA,NA,NA,NA,NA,NA,NA,NA,NA,NA,NA,NA,NA,sub42
d3-instructions,127,324056,0.0-68.0,TRUE,TRUE,FALSE,TRUE,"""event"",""trial"",""time""
""blur"",""0"",""0""
""focus"",""1"",""29167""
""fullscreenenter"",""5"",""37271""
","""event"",""trial"",""time""
""blur"",""0"",""0""
","""event"",""trial"",""time""
""focus"",""1"",""29167""
","""event"",""trial"",""time""
""fullscreenenter"",""5"",""37271""
","
",NA,NA,NA,NA,NA,NA,NA,NA,NA,NA,NA,NA,NA,NA,NA,NA,NA,NA,NA,NA,NA,NA,sub42
instructions-quiz,128,327049,0.0-69.0,TRUE,TRUE,FALSE,TRUE,"""event"",""trial"",""time""
""blur"",""0"",""0""
""focus"",""1"",""29167""
""fullscreenenter"",""5"",""37271""
","""event"",""trial"",""time""
""blur"",""0"",""0""
","""event"",""trial"",""time""
""focus"",""1"",""29167""
","""event"",""trial"",""time""
""fullscreenenter"",""5"",""37271""
","
",2991,audio/quiz/Q1_Prompt.wav,NA,1,NA,NA,NA,NA,NA,NA,NA,NA,NA,NA,NA,NA,NA,NA,NA,NA,NA,NA,sub42
audio-keyboard-response,129,335476,0.0-70.0,TRUE,TRUE,FALSE,TRUE,"""event"",""trial"",""time""
""blur"",""0"",""0""
""focus"",""1"",""29167""
""fullscreenenter"",""5"",""37271""
","""event"",""trial"",""time""
""blur"",""0"",""0""
","""event"",""trial"",""time""
""focus"",""1"",""29167""
","""event"",""trial"",""time""
""fullscreenenter"",""5"",""37271""
","
",8429,audio/quiz/Q1_Correct.wav,32,NA,NA,NA,NA,NA,NA,NA,NA,NA,NA,NA,NA,NA,NA,NA,NA,NA,NA,NA,sub42
instructions-quiz,130,340745,0.0-71.0,TRUE,TRUE,FALSE,TRUE,"""event"",""trial"",""time""
""blur"",""0"",""0""
""focus"",""1"",""29167""
""fullscreenenter"",""5"",""37271""
","""event"",""trial"",""time""
""blur"",""0"",""0""
","""event"",""trial"",""time""
""focus"",""1"",""29167""
","""event"",""trial"",""time""
""fullscreenenter"",""5"",""37271""
","
",5267,audio/quiz/Q2_Prompt.wav,NA,0,NA,NA,NA,NA,NA,NA,NA,NA,NA,NA,NA,NA,NA,NA,NA,NA,NA,NA,sub42
audio-keyboard-response,131,342109,0.0-72.0,TRUE,TRUE,FALSE,TRUE,"""event"",""trial"",""time""
""blur"",""0"",""0""
""focus"",""1"",""29167""
""fullscreenenter"",""5"",""37271""
","""event"",""trial"",""time""
""blur"",""0"",""0""
","""event"",""trial"",""time""
""focus"",""1"",""29167""
","""event"",""trial"",""time""
""fullscreenenter"",""5"",""37271""
","
",1364,audio/quiz/Q2_Correct.wav,32,NA,NA,NA,NA,NA,NA,NA,NA,NA,NA,NA,NA,NA,NA,NA,NA,NA,NA,NA,sub42
instructions-quiz,132,346565,0.0-73.0,TRUE,TRUE,FALSE,TRUE,"""event"",""trial"",""time""
""blur"",""0"",""0""
""focus"",""1"",""29167""
""fullscreenenter"",""5"",""37271""
","""event"",""trial"",""time""
""blur"",""0"",""0""
","""event"",""trial"",""time""
""focus"",""1"",""29167""
","""event"",""trial"",""time""
""fullscreenenter"",""5"",""37271""
","
",4456.000000000058,audio/quiz/Q3_Prompt.wav,NA,1,NA,NA,NA,NA,NA,NA,NA,NA,NA,NA,NA,NA,NA,NA,NA,NA,NA,NA,sub42
audio-keyboard-response,133,347421,0.0-74.0,TRUE,TRUE,FALSE,TRUE,"""event"",""trial"",""time""
""blur"",""0"",""0""
""focus"",""1"",""29167""
""fullscreenenter"",""5"",""37271""
","""event"",""trial"",""time""
""blur"",""0"",""0""
","""event"",""trial"",""time""
""focus"",""1"",""29167""
","""event"",""trial"",""time""
""fullscreenenter"",""5"",""37271""
","
",856,audio/quiz/Q3_Correct.wav,32,NA,NA,NA,NA,NA,NA,NA,NA,NA,NA,NA,NA,NA,NA,NA,NA,NA,NA,NA,sub42
d3-instructions,134,353480,0.0-75.0,TRUE,TRUE,FALSE,TRUE,"""event"",""trial"",""time""
""blur"",""0"",""0""
""focus"",""1"",""29167""
""fullscreenenter"",""5"",""37271""
","""event"",""trial"",""time""
""blur"",""0"",""0""
","""event"",""trial"",""time""
""focus"",""1"",""29167""
","""event"",""trial"",""time""
""fullscreenenter"",""5"",""37271""
","
",NA,NA,NA,NA,NA,NA,NA,NA,NA,NA,NA,NA,NA,NA,NA,NA,NA,NA,NA,NA,NA,NA,sub42
d3-animate-choice,135,357024,0.0-76.0-0.0,TRUE,TRUE,FALSE,TRUE,"""event"",""trial"",""time""
""blur"",""0"",""0""
""focus"",""1"",""29167""
""fullscreenenter"",""5"",""37271""
","""event"",""trial"",""time""
""blur"",""0"",""0""
","""event"",""trial"",""time""
""focus"",""1"",""29167""
","""event"",""trial"",""time""
""fullscreenenter"",""5"",""37271""
","
",1542,NA,49,NA,NA,3000,1,NA,NA,images/earth.jpg,images/rocket2,images/rocket1,null,images/rocket1,NA,1,real,null,1,NA,NA,NA,sub42
d3-animate-choice,136,360089,0.0-76.0-1.0,TRUE,TRUE,FALSE,TRUE,"""event"",""trial"",""time""
""blur"",""0"",""0""
""focus"",""1"",""29167""
""fullscreenenter"",""5"",""37271""
","""event"",""trial"",""time""
""blur"",""0"",""0""
","""event"",""trial"",""time""
""focus"",""1"",""29167""
","""event"",""trial"",""time""
""fullscreenenter"",""5"",""37271""
","
",1062.9999999999418,NA,49,NA,NA,3000,1,NA,NA,images/purpleplanet.jpg,images/alien4,images/alien3,images/rocket1,images/alien3,images/t.png,2,real,false,1,rare,1,2020-06-12T18:34:27Z,sub42
two-step-fixation,137,361091,0.0-76.0-2.0,TRUE,TRUE,FALSE,TRUE,"""event"",""trial"",""time""
""blur"",""0"",""0""
""focus"",""1"",""29167""
""fullscreenenter"",""5"",""37271""
","""event"",""trial"",""time""
""blur"",""0"",""0""
","""event"",""trial"",""time""
""focus"",""1"",""29167""
","""event"",""trial"",""time""
""fullscreenenter"",""5"",""37271""
","
",NA,images/earth.jpg,NA,NA,NA,NA,NA,NA,NA,NA,NA,NA,NA,NA,NA,fixation,NA,NA,NA,NA,NA,NA,sub42
d3-animate-choice,138,363469,0.0-76.0-0.1,TRUE,TRUE,FALSE,TRUE,"""event"",""trial"",""time""
""blur"",""0"",""0""
""focus"",""1"",""29167""
""fullscreenenter"",""5"",""37271""
","""event"",""trial"",""time""
""blur"",""0"",""0""
","""event"",""trial"",""time""
""focus"",""1"",""29167""
","""event"",""trial"",""time""
""fullscreenenter"",""5"",""37271""
","
",376,NA,49,NA,NA,3000,1,NA,NA,images/earth.jpg,images/rocket2,images/rocket1,null,images/rocket1,NA,1,real,null,1,NA,NA,NA,sub42
d3-animate-choice,139,365924,0.0-76.0-1.1,TRUE,TRUE,FALSE,TRUE,"""event"",""trial"",""time""
""blur"",""0"",""0""
""focus"",""1"",""29167""
""fullscreenenter"",""5"",""37271""
","""event"",""trial"",""time""
""blur"",""0"",""0""
","""event"",""trial"",""time""
""focus"",""1"",""29167""
","""event"",""trial"",""time""
""fullscreenenter"",""5"",""37271""
","
",455,NA,49,NA,NA,3000,1,NA,NA,images/purpleplanet.jpg,images/alien4,images/alien3,images/rocket1,images/alien3,images/t.png,2,real,false,1,rare,1,2020-06-12T18:34:33Z,sub42
two-step-fixation,140,366926,0.0-76.0-2.1,TRUE,TRUE,FALSE,TRUE,"""event"",""trial"",""time""
""blur"",""0"",""0""
""focus"",""1"",""29167""
""fullscreenenter"",""5"",""37271""
","""event"",""trial"",""time""
""blur"",""0"",""0""
","""event"",""trial"",""time""
""focus"",""1"",""29167""
","""event"",""trial"",""time""
""fullscreenenter"",""5"",""37271""
","
",NA,images/earth.jpg,NA,NA,NA,NA,NA,NA,NA,NA,NA,NA,NA,NA,NA,fixation,NA,NA,NA,NA,NA,NA,sub42
d3-animate-choice,141,369280,0.0-76.0-0.2,TRUE,TRUE,FALSE,TRUE,"""event"",""trial"",""time""
""blur"",""0"",""0""
""focus"",""1"",""29167""
""fullscreenenter"",""5"",""37271""
","""event"",""trial"",""time""
""blur"",""0"",""0""
","""event"",""trial"",""time""
""focus"",""1"",""29167""
","""event"",""trial"",""time""
""fullscreenenter"",""5"",""37271""
","
",352,NA,49,NA,NA,3000,1,NA,NA,images/earth.jpg,images/rocket2,images/rocket1,null,images/rocket1,NA,1,real,null,1,NA,NA,NA,sub42
d3-animate-choice,142,371637,0.0-76.0-1.2,TRUE,TRUE,FALSE,TRUE,"""event"",""trial"",""time""
""blur"",""0"",""0""
""focus"",""1"",""29167""
""fullscreenenter"",""5"",""37271""
","""event"",""trial"",""time""
""blur"",""0"",""0""
","""event"",""trial"",""time""
""focus"",""1"",""29167""
","""event"",""trial"",""time""
""fullscreenenter"",""5"",""37271""
","
",355.9999999999418,NA,49,NA,NA,3000,1,NA,NA,images/redplanet1.jpg,images/alien2,images/alien1,images/rocket1,images/alien1,images/nothing.png,2,real,true,1,common,0,2020-06-12T18:34:38Z,sub42
two-step-fixation,143,372638,0.0-76.0-2.2,TRUE,TRUE,FALSE,TRUE,"""event"",""trial"",""time""
""blur"",""0"",""0""
""focus"",""1"",""29167""
""fullscreenenter"",""5"",""37271""
","""event"",""trial"",""time""
""blur"",""0"",""0""
","""event"",""trial"",""time""
""focus"",""1"",""29167""
","""event"",""trial"",""time""
""fullscreenenter"",""5"",""37271""
","
",NA,images/earth.jpg,NA,NA,NA,NA,NA,NA,NA,NA,NA,NA,NA,NA,NA,fixation,NA,NA,NA,NA,NA,NA,sub42
d3-animate-choice,144,374997,0.0-76.0-0.3,TRUE,TRUE,FALSE,TRUE,"""event"",""trial"",""time""
""blur"",""0"",""0""
""focus"",""1"",""29167""
""fullscreenenter"",""5"",""37271""
","""event"",""trial"",""time""
""blur"",""0"",""0""
","""event"",""trial"",""time""
""focus"",""1"",""29167""
","""event"",""trial"",""time""
""fullscreenenter"",""5"",""37271""
","
",357,NA,49,NA,NA,3000,1,NA,NA,images/earth.jpg,images/rocket2,images/rocket1,null,images/rocket1,NA,1,real,null,1,NA,NA,NA,sub42
d3-animate-choice,145,377851,0.0-76.0-1.3,TRUE,TRUE,FALSE,TRUE,"""event"",""trial"",""time""
""blur"",""0"",""0""
""focus"",""1"",""29167""
""fullscreenenter"",""5"",""37271""
","""event"",""trial"",""time""
""blur"",""0"",""0""
","""event"",""trial"",""time""
""focus"",""1"",""29167""
","""event"",""trial"",""time""
""fullscreenenter"",""5"",""37271""
","
",851,NA,49,NA,NA,3000,1,NA,NA,images/purpleplanet.jpg,images/alien4,images/alien3,images/rocket1,images/alien3,images/nothing.png,2,real,false,1,rare,0,2020-06-12T18:34:44Z,sub42
two-step-fixation,146,378853,0.0-76.0-2.3,TRUE,TRUE,FALSE,TRUE,"""event"",""trial"",""time""
""blur"",""0"",""0""
""focus"",""1"",""29167""
""fullscreenenter"",""5"",""37271""
","""event"",""trial"",""time""
""blur"",""0"",""0""
","""event"",""trial"",""time""
""focus"",""1"",""29167""
","""event"",""trial"",""time""
""fullscreenenter"",""5"",""37271""
","
",NA,images/earth.jpg,NA,NA,NA,NA,NA,NA,NA,NA,NA,NA,NA,NA,NA,fixation,NA,NA,NA,NA,NA,NA,sub42
d3-animate-choice,147,381235,0.0-76.0-0.4,TRUE,TRUE,FALSE,TRUE,"""event"",""trial"",""time""
""blur"",""0"",""0""
""focus"",""1"",""29167""
""fullscreenenter"",""5"",""37271""
","""event"",""trial"",""time""
""blur"",""0"",""0""
","""event"",""trial"",""time""
""focus"",""1"",""29167""
","""event"",""trial"",""time""
""fullscreenenter"",""5"",""37271""
","
",380,NA,49,NA,NA,3000,1,NA,NA,images/earth.jpg,images/rocket2,images/rocket1,null,images/rocket1,NA,1,real,null,1,NA,NA,NA,sub42
d3-animate-choice,148,385237,0.0-76.0-1.4,TRUE,TRUE,FALSE,TRUE,"""event"",""trial"",""time""
""blur"",""0"",""0""
""focus"",""1"",""29167""
""fullscreenenter"",""5"",""37271""
","""event"",""trial"",""time""
""blur"",""0"",""0""
","""event"",""trial"",""time""
""focus"",""1"",""29167""
","""event"",""trial"",""time""
""fullscreenenter"",""5"",""37271""
","
",1083,NA,80,NA,NA,3000,1,2283.000000000058,48,images/redplanet1.jpg,images/alien2,images/alien1,images/rocket1,images/alien2,images/t.png,2,real,true,NA,common,1,2020-06-12T18:34:52Z,sub42
two-step-fixation,149,386240,0.0-76.0-2.4,TRUE,TRUE,FALSE,TRUE,"""event"",""trial"",""time""
""blur"",""0"",""0""
""focus"",""1"",""29167""
""fullscreenenter"",""5"",""37271""
","""event"",""trial"",""time""
""blur"",""0"",""0""
","""event"",""trial"",""time""
""focus"",""1"",""29167""
","""event"",""trial"",""time""
""fullscreenenter"",""5"",""37271""
","
",NA,images/earth.jpg,NA,NA,NA,NA,NA,NA,NA,NA,NA,NA,NA,NA,NA,fixation,NA,NA,NA,NA,NA,NA,sub42
d3-animate-choice,150,388657,0.0-76.0-0.5,TRUE,TRUE,FALSE,TRUE,"""event"",""trial"",""time""
""blur"",""0"",""0""
""focus"",""1"",""29167""
""fullscreenenter"",""5"",""37271""
","""event"",""trial"",""time""
""blur"",""0"",""0""
","""event"",""trial"",""time""
""focus"",""1"",""29167""
","""event"",""trial"",""time""
""fullscreenenter"",""5"",""37271""
","
",416,NA,49,NA,NA,3000,1,NA,NA,images/earth.jpg,images/rocket2,images/rocket1,null,images/rocket1,NA,1,real,null,1,NA,NA,NA,sub42
d3-animate-choice,151,391559,0.0-76.0-1.5,TRUE,TRUE,FALSE,TRUE,"""event"",""trial"",""time""
""blur"",""0"",""0""
""focus"",""1"",""29167""
""fullscreenenter"",""5"",""37271""
","""event"",""trial"",""time""
""blur"",""0"",""0""
","""event"",""trial"",""time""
""focus"",""1"",""29167""
","""event"",""trial"",""time""
""fullscreenenter"",""5"",""37271""
","
",899,NA,49,NA,NA,3000,1,NA,NA,images/purpleplanet.jpg,images/alien4,images/alien3,images/rocket1,images/alien3,images/t.png,2,real,false,1,rare,1,2020-06-12T18:34:58Z,sub42
two-step-fixation,152,392561,0.0-76.0-2.5,TRUE,TRUE,FALSE,TRUE,"""event"",""trial"",""time""
""blur"",""0"",""0""
""focus"",""1"",""29167""
""fullscreenenter"",""5"",""37271""
","""event"",""trial"",""time""
""blur"",""0"",""0""
","""event"",""trial"",""time""
""focus"",""1"",""29167""
","""event"",""trial"",""time""
""fullscreenenter"",""5"",""37271""
","
",NA,images/earth.jpg,NA,NA,NA,NA,NA,NA,NA,NA,NA,NA,NA,NA,NA,fixation,NA,NA,NA,NA,NA,NA,sub42
d3-animate-choice,153,394976,0.0-76.0-0.6,TRUE,TRUE,FALSE,TRUE,"""event"",""trial"",""time""
""blur"",""0"",""0""
""focus"",""1"",""29167""
""fullscreenenter"",""5"",""37271""
","""event"",""trial"",""time""
""blur"",""0"",""0""
","""event"",""trial"",""time""
""focus"",""1"",""29167""
","""event"",""trial"",""time""
""fullscreenenter"",""5"",""37271""
","
",412,NA,49,NA,NA,3000,1,NA,NA,images/earth.jpg,images/rocket2,images/rocket1,null,images/rocket1,NA,1,real,null,1,NA,NA,NA,sub42
d3-animate-choice,154,397734,0.0-76.0-1.6,TRUE,TRUE,FALSE,TRUE,"""event"",""trial"",""time""
""blur"",""0"",""0""
""focus"",""1"",""29167""
""fullscreenenter"",""5"",""37271""
","""event"",""trial"",""time""
""blur"",""0"",""0""
","""event"",""trial"",""time""
""focus"",""1"",""29167""
","""event"",""trial"",""time""
""fullscreenenter"",""5"",""37271""
","
",755,NA,49,NA,NA,3000,1,NA,NA,images/purpleplanet.jpg,images/alien4,images/alien3,images/rocket1,images/alien3,images/t.png,2,real,false,1,rare,1,2020-06-12T18:35:04Z,sub42
two-step-fixation,155,398735,0.0-76.0-2.6,TRUE,TRUE,FALSE,TRUE,"""event"",""trial"",""time""
""blur"",""0"",""0""
""focus"",""1"",""29167""
""fullscreenenter"",""5"",""37271""
","""event"",""trial"",""time""
""blur"",""0"",""0""
","""event"",""trial"",""time""
""focus"",""1"",""29167""
","""event"",""trial"",""time""
""fullscreenenter"",""5"",""37271""
","
",NA,images/earth.jpg,NA,NA,NA,NA,NA,NA,NA,NA,NA,NA,NA,NA,NA,fixation,NA,NA,NA,NA,NA,NA,sub42
d3-animate-choice,156,401411,0.0-76.0-0.7,TRUE,TRUE,FALSE,TRUE,"""event"",""trial"",""time""
""blur"",""0"",""0""
""focus"",""1"",""29167""
""fullscreenenter"",""5"",""37271""
","""event"",""trial"",""time""
""blur"",""0"",""0""
","""event"",""trial"",""time""
""focus"",""1"",""29167""
","""event"",""trial"",""time""
""fullscreenenter"",""5"",""37271""
","
",673,NA,49,NA,NA,3000,1,NA,NA,images/earth.jpg,images/rocket2,images/rocket1,null,images/rocket1,NA,1,real,null,1,NA,NA,NA,sub42
d3-animate-choice,157,404873,0.0-76.0-1.7,TRUE,TRUE,FALSE,TRUE,"""event"",""trial"",""time""
""blur"",""0"",""0""
""focus"",""1"",""29167""
""fullscreenenter"",""5"",""37271""
","""event"",""trial"",""time""
""blur"",""0"",""0""
","""event"",""trial"",""time""
""focus"",""1"",""29167""
","""event"",""trial"",""time""
""fullscreenenter"",""5"",""37271""
","
",1459,NA,48,NA,NA,3000,1,NA,NA,images/redplanet1.jpg,images/alien2,images/alien1,images/rocket1,images/alien2,images/nothing.png,2,real,true,2,common,0,2020-06-12T18:35:11Z,sub42
two-step-fixation,158,405875,0.0-76.0-2.7,TRUE,TRUE,FALSE,TRUE,"""event"",""trial"",""time""
""blur"",""0"",""0""
""focus"",""1"",""29167""
""fullscreenenter"",""5"",""37271""
","""event"",""trial"",""time""
""blur"",""0"",""0""
","""event"",""trial"",""time""
""focus"",""1"",""29167""
","""event"",""trial"",""time""
""fullscreenenter"",""5"",""37271""
","
",NA,images/earth.jpg,NA,NA,NA,NA,NA,NA,NA,NA,NA,NA,NA,NA,NA,fixation,NA,NA,NA,NA,NA,NA,sub42
d3-animate-choice,159,409878,0.0-76.0-0.8,TRUE,TRUE,FALSE,TRUE,"""event"",""trial"",""time""
""blur"",""0"",""0""
""focus"",""1"",""29167""
""fullscreenenter"",""5"",""37271""
","""event"",""trial"",""time""
""blur"",""0"",""0""
","""event"",""trial"",""time""
""focus"",""1"",""29167""
","""event"",""trial"",""time""
""fullscreenenter"",""5"",""37271""
","
",1132.0000000000582,NA,81,NA,NA,3000,1,2238,49,images/earth.jpg,images/rocket2,images/rocket1,null,images/rocket1,NA,1,real,null,NA,NA,NA,NA,sub42
d3-animate-choice,160,413279,0.0-76.0-1.8,TRUE,TRUE,FALSE,TRUE,"""event"",""trial"",""time""
""blur"",""0"",""0""
""focus"",""1"",""29167""
""fullscreenenter"",""5"",""37271""
","""event"",""trial"",""time""
""blur"",""0"",""0""
","""event"",""trial"",""time""
""focus"",""1"",""29167""
","""event"",""trial"",""time""
""fullscreenenter"",""5"",""37271""
","
",1398.0000000000582,NA,48,NA,NA,3000,1,NA,NA,images/redplanet1.jpg,images/alien2,images/alien1,images/rocket1,images/alien2,images/nothing.png,2,real,true,2,common,0,2020-06-12T18:35:20Z,sub42
two-step-fixation,161,414281,0.0-76.0-2.8,TRUE,TRUE,FALSE,TRUE,"""event"",""trial"",""time""
""blur"",""0"",""0""
""focus"",""1"",""29167""
""fullscreenenter"",""5"",""37271""
","""event"",""trial"",""time""
""blur"",""0"",""0""
","""event"",""trial"",""time""
""focus"",""1"",""29167""
","""event"",""trial"",""time""
""fullscreenenter"",""5"",""37271""
","
",NA,images/earth.jpg,NA,NA,NA,NA,NA,NA,NA,NA,NA,NA,NA,NA,NA,fixation,NA,NA,NA,NA,NA,NA,sub42
d3-animate-choice,162,416764,0.0-76.0-0.9,TRUE,TRUE,FALSE,TRUE,"""event"",""trial"",""time""
""blur"",""0"",""0""
""focus"",""1"",""29167""
""fullscreenenter"",""5"",""37271""
","""event"",""trial"",""time""
""blur"",""0"",""0""
","""event"",""trial"",""time""
""focus"",""1"",""29167""
","""event"",""trial"",""time""
""fullscreenenter"",""5"",""37271""
","
",480.9999999999418,NA,49,NA,NA,3000,1,NA,NA,images/earth.jpg,images/rocket2,images/rocket1,null,images/rocket1,NA,1,real,null,1,NA,NA,NA,sub42
d3-animate-choice,163,420506,0.0-76.0-1.9,TRUE,TRUE,FALSE,TRUE,"""event"",""trial"",""time""
""blur"",""0"",""0""
""focus"",""1"",""29167""
""fullscreenenter"",""5"",""37271""
","""event"",""trial"",""time""
""blur"",""0"",""0""
","""event"",""trial"",""time""
""focus"",""1"",""29167""
","""event"",""trial"",""time""
""fullscreenenter"",""5"",""37271""
","
",1739.9999999999418,NA,48,NA,NA,3000,1,NA,NA,images/redplanet1.jpg,images/alien2,images/alien1,images/rocket1,images/alien2,images/t.png,2,real,true,2,common,1,2020-06-12T18:35:27Z,sub42
two-step-fixation,164,421509,0.0-76.0-2.9,TRUE,TRUE,FALSE,TRUE,"""event"",""trial"",""time""
""blur"",""0"",""0""
""focus"",""1"",""29167""
""fullscreenenter"",""5"",""37271""
","""event"",""trial"",""time""
""blur"",""0"",""0""
","""event"",""trial"",""time""
""focus"",""1"",""29167""
","""event"",""trial"",""time""
""fullscreenenter"",""5"",""37271""
","
",NA,images/earth.jpg,NA,NA,NA,NA,NA,NA,NA,NA,NA,NA,NA,NA,NA,fixation,NA,NA,NA,NA,NA,NA,sub42
d3-animate-choice,165,423964,0.0-76.0-0.10,TRUE,TRUE,FALSE,TRUE,"""event"",""trial"",""time""
""blur"",""0"",""0""
""focus"",""1"",""29167""
""fullscreenenter"",""5"",""37271""
","""event"",""trial"",""time""
""blur"",""0"",""0""
","""event"",""trial"",""time""
""focus"",""1"",""29167""
","""event"",""trial"",""time""
""fullscreenenter"",""5"",""37271""
","
",453,NA,49,NA,NA,3000,1,NA,NA,images/earth.jpg,images/rocket2,images/rocket1,null,images/rocket1,NA,1,real,null,1,NA,NA,NA,sub42
d3-animate-choice,166,426825,0.0-76.0-1.10,TRUE,TRUE,FALSE,TRUE,"""event"",""trial"",""time""
""blur"",""0"",""0""
""focus"",""1"",""29167""
""fullscreenenter"",""5"",""37271""
","""event"",""trial"",""time""
""blur"",""0"",""0""
","""event"",""trial"",""time""
""focus"",""1"",""29167""
","""event"",""trial"",""time""
""fullscreenenter"",""5"",""37271""
","
",859,NA,48,NA,NA,3000,1,NA,NA,images/redplanet1.jpg,images/alien2,images/alien1,images/rocket1,images/alien2,images/t.png,2,real,true,2,common,1,2020-06-12T18:35:33Z,sub42
two-step-fixation,167,427827,0.0-76.0-2.10,TRUE,TRUE,FALSE,TRUE,"""event"",""trial"",""time""
""blur"",""0"",""0""
""focus"",""1"",""29167""
""fullscreenenter"",""5"",""37271""
","""event"",""trial"",""time""
""blur"",""0"",""0""
","""event"",""trial"",""time""
""focus"",""1"",""29167""
","""event"",""trial"",""time""
""fullscreenenter"",""5"",""37271""
","
",NA,images/earth.jpg,NA,NA,NA,NA,NA,NA,NA,NA,NA,NA,NA,NA,NA,fixation,NA,NA,NA,NA,NA,NA,sub42
d3-animate-choice,168,430108,0.0-76.0-0.11,TRUE,TRUE,FALSE,TRUE,"""event"",""trial"",""time""
""blur"",""0"",""0""
""focus"",""1"",""29167""
""fullscreenenter"",""5"",""37271""
","""event"",""trial"",""time""
""blur"",""0"",""0""
","""event"",""trial"",""time""
""focus"",""1"",""29167""
","""event"",""trial"",""time""
""fullscreenenter"",""5"",""37271""
","
",278,NA,49,NA,NA,3000,1,NA,NA,images/earth.jpg,images/rocket2,images/rocket1,null,images/rocket1,NA,1,real,null,1,NA,NA,NA,sub42
d3-animate-choice,169,432908,0.0-76.0-1.11,TRUE,TRUE,FALSE,TRUE,"""event"",""trial"",""time""
""blur"",""0"",""0""
""focus"",""1"",""29167""
""fullscreenenter"",""5"",""37271""
","""event"",""trial"",""time""
""blur"",""0"",""0""
","""event"",""trial"",""time""
""focus"",""1"",""29167""
","""event"",""trial"",""time""
""fullscreenenter"",""5"",""37271""
","
",798.0000000000582,NA,49,NA,NA,3000,1,NA,NA,images/purpleplanet.jpg,images/alien4,images/alien3,images/rocket1,images/alien3,images/nothing.png,2,real,false,1,rare,0,2020-06-12T18:35:39Z,sub42
two-step-fixation,170,433909,0.0-76.0-2.11,TRUE,TRUE,FALSE,TRUE,"""event"",""trial"",""time""
""blur"",""0"",""0""
""focus"",""1"",""29167""
""fullscreenenter"",""5"",""37271""
","""event"",""trial"",""time""
""blur"",""0"",""0""
","""event"",""trial"",""time""
""focus"",""1"",""29167""
","""event"",""trial"",""time""
""fullscreenenter"",""5"",""37271""
","
",NA,images/earth.jpg,NA,NA,NA,NA,NA,NA,NA,NA,NA,NA,NA,NA,NA,fixation,NA,NA,NA,NA,NA,NA,sub42
d3-animate-choice,171,436744,0.0-76.0-0.12,TRUE,TRUE,FALSE,TRUE,"""event"",""trial"",""time""
""blur"",""0"",""0""
""focus"",""1"",""29167""
""fullscreenenter"",""5"",""37271""
","""event"",""trial"",""time""
""blur"",""0"",""0""
","""event"",""trial"",""time""
""focus"",""1"",""29167""
","""event"",""trial"",""time""
""fullscreenenter"",""5"",""37271""
","
",832,NA,48,NA,NA,3000,1,NA,NA,images/earth.jpg,images/rocket2,images/rocket1,null,images/rocket2,NA,1,real,null,2,NA,NA,NA,sub42
d3-animate-choice,172,439821,0.0-76.0-1.12,TRUE,TRUE,FALSE,TRUE,"""event"",""trial"",""time""
""blur"",""0"",""0""
""focus"",""1"",""29167""
""fullscreenenter"",""5"",""37271""
","""event"",""trial"",""time""
""blur"",""0"",""0""
","""event"",""trial"",""time""
""focus"",""1"",""29167""
","""event"",""trial"",""time""
""fullscreenenter"",""5"",""37271""
","
",1076,NA,48,NA,NA,3000,1,NA,NA,images/purpleplanet.jpg,images/alien4,images/alien3,images/rocket2,images/alien4,images/t.png,2,real,true,2,common,1,2020-06-12T18:35:46Z,sub42
two-step-fixation,173,440822,0.0-76.0-2.12,TRUE,TRUE,FALSE,TRUE,"""event"",""trial"",""time""
""blur"",""0"",""0""
""focus"",""1"",""29167""
""fullscreenenter"",""5"",""37271""
","""event"",""trial"",""time""
""blur"",""0"",""0""
","""event"",""trial"",""time""
""focus"",""1"",""29167""
","""event"",""trial"",""time""
""fullscreenenter"",""5"",""37271""
","
",NA,images/earth.jpg,NA,NA,NA,NA,NA,NA,NA,NA,NA,NA,NA,NA,NA,fixation,NA,NA,NA,NA,NA,NA,sub42
d3-animate-choice,174,443251,0.0-76.0-0.13,TRUE,TRUE,FALSE,TRUE,"""event"",""trial"",""time""
""blur"",""0"",""0""
""focus"",""1"",""29167""
""fullscreenenter"",""5"",""37271""
","""event"",""trial"",""time""
""blur"",""0"",""0""
","""event"",""trial"",""time""
""focus"",""1"",""29167""
","""event"",""trial"",""time""
""fullscreenenter"",""5"",""37271""
","
",426,NA,48,NA,NA,3000,1,NA,NA,images/earth.jpg,images/rocket2,images/rocket1,null,images/rocket2,NA,1,real,null,2,NA,NA,NA,sub42
d3-animate-choice,175,446566,0.0-76.0-1.13,TRUE,TRUE,FALSE,TRUE,"""event"",""trial"",""time""
""blur"",""0"",""0""
""focus"",""1"",""29167""
""fullscreenenter"",""5"",""37271""
","""event"",""trial"",""time""
""blur"",""0"",""0""
","""event"",""trial"",""time""
""focus"",""1"",""29167""
","""event"",""trial"",""time""
""fullscreenenter"",""5"",""37271""
","
",1313,NA,48,NA,NA,3000,1,NA,NA,images/redplanet1.jpg,images/alien2,images/alien1,images/rocket2,images/alien2,images/t.png,2,real,false,2,rare,1,2020-06-12T18:35:53Z,sub42
two-step-fixation,176,447568,0.0-76.0-2.13,TRUE,TRUE,FALSE,TRUE,"""event"",""trial"",""time""
""blur"",""0"",""0""
""focus"",""1"",""29167""
""fullscreenenter"",""5"",""37271""
","""event"",""trial"",""time""
""blur"",""0"",""0""
","""event"",""trial"",""time""
""focus"",""1"",""29167""
","""event"",""trial"",""time""
""fullscreenenter"",""5"",""37271""
","
",NA,images/earth.jpg,NA,NA,NA,NA,NA,NA,NA,NA,NA,NA,NA,NA,NA,fixation,NA,NA,NA,NA,NA,NA,sub42
d3-animate-choice,177,450022,0.0-76.0-0.14,TRUE,TRUE,FALSE,TRUE,"""event"",""trial"",""time""
""blur"",""0"",""0""
""focus"",""1"",""29167""
""fullscreenenter"",""5"",""37271""
","""event"",""trial"",""time""
""blur"",""0"",""0""
","""event"",""trial"",""time""
""focus"",""1"",""29167""
","""event"",""trial"",""time""
""fullscreenenter"",""5"",""37271""
","
",452.9999999999418,NA,48,NA,NA,3000,1,NA,NA,images/earth.jpg,images/rocket2,images/rocket1,null,images/rocket2,NA,1,real,null,2,NA,NA,NA,sub42
d3-animate-choice,178,453071,0.0-76.0-1.14,TRUE,TRUE,FALSE,TRUE,"""event"",""trial"",""time""
""blur"",""0"",""0""
""focus"",""1"",""29167""
""fullscreenenter"",""5"",""37271""
","""event"",""trial"",""time""
""blur"",""0"",""0""
","""event"",""trial"",""time""
""focus"",""1"",""29167""
","""event"",""trial"",""time""
""fullscreenenter"",""5"",""37271""
","
",1046,NA,48,NA,NA,3000,1,NA,NA,images/purpleplanet.jpg,images/alien4,images/alien3,images/rocket2,images/alien4,images/nothing.png,2,real,true,2,common,0,2020-06-12T18:36:00Z,sub42
two-step-fixation,179,454072,0.0-76.0-2.14,TRUE,TRUE,FALSE,TRUE,"""event"",""trial"",""time""
""blur"",""0"",""0""
""focus"",""1"",""29167""
""fullscreenenter"",""5"",""37271""
","""event"",""trial"",""time""
""blur"",""0"",""0""
","""event"",""trial"",""time""
""focus"",""1"",""29167""
","""event"",""trial"",""time""
""fullscreenenter"",""5"",""37271""
","
",NA,images/earth.jpg,NA,NA,NA,NA,NA,NA,NA,NA,NA,NA,NA,NA,NA,fixation,NA,NA,NA,NA,NA,NA,sub42
d3-animate-choice,180,456586,0.0-76.0-0.15,TRUE,TRUE,FALSE,TRUE,"""event"",""trial"",""time""
""blur"",""0"",""0""
""focus"",""1"",""29167""
""fullscreenenter"",""5"",""37271""
","""event"",""trial"",""time""
""blur"",""0"",""0""
","""event"",""trial"",""time""
""focus"",""1"",""29167""
","""event"",""trial"",""time""
""fullscreenenter"",""5"",""37271""
","
",512,NA,48,NA,NA,3000,1,NA,NA,images/earth.jpg,images/rocket2,images/rocket1,null,images/rocket2,NA,1,real,null,2,NA,NA,NA,sub42
d3-animate-choice,181,459309,0.0-76.0-1.15,TRUE,TRUE,FALSE,TRUE,"""event"",""trial"",""time""
""blur"",""0"",""0""
""focus"",""1"",""29167""
""fullscreenenter"",""5"",""37271""
","""event"",""trial"",""time""
""blur"",""0"",""0""
","""event"",""trial"",""time""
""focus"",""1"",""29167""
","""event"",""trial"",""time""
""fullscreenenter"",""5"",""37271""
","
",721,NA,48,NA,NA,3000,1,NA,NA,images/purpleplanet.jpg,images/alien4,images/alien3,images/rocket2,images/alien4,images/nothing.png,2,real,true,2,common,0,2020-06-12T18:36:06Z,sub42
two-step-fixation,182,460310,0.0-76.0-2.15,TRUE,TRUE,FALSE,TRUE,"""event"",""trial"",""time""
""blur"",""0"",""0""
""focus"",""1"",""29167""
""fullscreenenter"",""5"",""37271""
","""event"",""trial"",""time""
""blur"",""0"",""0""
","""event"",""trial"",""time""
""focus"",""1"",""29167""
","""event"",""trial"",""time""
""fullscreenenter"",""5"",""37271""
","
",NA,images/earth.jpg,NA,NA,NA,NA,NA,NA,NA,NA,NA,NA,NA,NA,NA,fixation,NA,NA,NA,NA,NA,NA,sub42
d3-animate-choice,183,462842,0.0-76.0-0.16,TRUE,TRUE,FALSE,TRUE,"""event"",""trial"",""time""
""blur"",""0"",""0""
""focus"",""1"",""29167""
""fullscreenenter"",""5"",""37271""
","""event"",""trial"",""time""
""blur"",""0"",""0""
","""event"",""trial"",""time""
""focus"",""1"",""29167""
","""event"",""trial"",""time""
""fullscreenenter"",""5"",""37271""
","
",530,NA,48,NA,NA,3000,1,NA,NA,images/earth.jpg,images/rocket2,images/rocket1,null,images/rocket2,NA,1,real,null,2,NA,NA,NA,sub42
d3-animate-choice,184,466053,0.0-76.0-1.16,TRUE,TRUE,FALSE,TRUE,"""event"",""trial"",""time""
""blur"",""0"",""0""
""focus"",""1"",""29167""
""fullscreenenter"",""5"",""37271""
","""event"",""trial"",""time""
""blur"",""0"",""0""
","""event"",""trial"",""time""
""focus"",""1"",""29167""
","""event"",""trial"",""time""
""fullscreenenter"",""5"",""37271""
","
",1209,NA,48,NA,NA,3000,1,NA,NA,images/redplanet1.jpg,images/alien2,images/alien1,images/rocket2,images/alien2,images/t.png,2,real,false,2,rare,1,2020-06-12T18:36:13Z,sub42
two-step-fixation,185,467054,0.0-76.0-2.16,TRUE,TRUE,FALSE,TRUE,"""event"",""trial"",""time""
""blur"",""0"",""0""
""focus"",""1"",""29167""
""fullscreenenter"",""5"",""37271""
","""event"",""trial"",""time""
""blur"",""0"",""0""
","""event"",""trial"",""time""
""focus"",""1"",""29167""
","""event"",""trial"",""time""
""fullscreenenter"",""5"",""37271""
","
",NA,images/earth.jpg,NA,NA,NA,NA,NA,NA,NA,NA,NA,NA,NA,NA,NA,fixation,NA,NA,NA,NA,NA,NA,sub42
d3-animate-choice,186,469441,0.0-76.0-0.17,TRUE,TRUE,FALSE,TRUE,"""event"",""trial"",""time""
""blur"",""0"",""0""
""focus"",""1"",""29167""
""fullscreenenter"",""5"",""37271""
","""event"",""trial"",""time""
""blur"",""0"",""0""
","""event"",""trial"",""time""
""focus"",""1"",""29167""
","""event"",""trial"",""time""
""fullscreenenter"",""5"",""37271""
","
",386,NA,48,NA,NA,3000,1,NA,NA,images/earth.jpg,images/rocket2,images/rocket1,null,images/rocket2,NA,1,real,null,2,NA,NA,NA,sub42
d3-animate-choice,187,472453,0.0-76.0-1.17,TRUE,TRUE,FALSE,TRUE,"""event"",""trial"",""time""
""blur"",""0"",""0""
""focus"",""1"",""29167""
""fullscreenenter"",""5"",""37271""
","""event"",""trial"",""time""
""blur"",""0"",""0""
","""event"",""trial"",""time""
""focus"",""1"",""29167""
","""event"",""trial"",""time""
""fullscreenenter"",""5"",""37271""
","
",1010,NA,48,NA,NA,3000,1,NA,NA,images/redplanet1.jpg,images/alien2,images/alien1,images/rocket2,images/alien2,images/t.png,2,real,false,2,rare,1,2020-06-12T18:36:19Z,sub42
two-step-fixation,188,473454,0.0-76.0-2.17,TRUE,TRUE,FALSE,TRUE,"""event"",""trial"",""time""
""blur"",""0"",""0""
""focus"",""1"",""29167""
""fullscreenenter"",""5"",""37271""
","""event"",""trial"",""time""
""blur"",""0"",""0""
","""event"",""trial"",""time""
""focus"",""1"",""29167""
","""event"",""trial"",""time""
""fullscreenenter"",""5"",""37271""
","
",NA,images/earth.jpg,NA,NA,NA,NA,NA,NA,NA,NA,NA,NA,NA,NA,NA,fixation,NA,NA,NA,NA,NA,NA,sub42
d3-animate-choice,189,476155,0.0-76.0-0.18,TRUE,TRUE,FALSE,TRUE,"""event"",""trial"",""time""
""blur"",""0"",""0""
""focus"",""1"",""29167""
""fullscreenenter"",""5"",""37271""
","""event"",""trial"",""time""
""blur"",""0"",""0""
","""event"",""trial"",""time""
""focus"",""1"",""29167""
","""event"",""trial"",""time""
""fullscreenenter"",""5"",""37271""
","
",700,NA,49,NA,NA,3000,1,NA,NA,images/earth.jpg,images/rocket2,images/rocket1,null,images/rocket1,NA,1,real,null,1,NA,NA,NA,sub42
d3-animate-choice,190,478627,0.0-76.0-1.18,TRUE,TRUE,FALSE,TRUE,"""event"",""trial"",""time""
""blur"",""0"",""0""
""focus"",""1"",""29167""
""fullscreenenter"",""5"",""37271""
","""event"",""trial"",""time""
""blur"",""0"",""0""
","""event"",""trial"",""time""
""focus"",""1"",""29167""
","""event"",""trial"",""time""
""fullscreenenter"",""5"",""37271""
","
",470,NA,49,NA,NA,3000,1,NA,NA,images/purpleplanet.jpg,images/alien4,images/alien3,images/rocket1,images/alien3,images/t.png,2,real,false,1,rare,1,2020-06-12T18:36:25Z,sub42
two-step-fixation,191,479628,0.0-76.0-2.18,TRUE,TRUE,FALSE,TRUE,"""event"",""trial"",""time""
""blur"",""0"",""0""
""focus"",""1"",""29167""
""fullscreenenter"",""5"",""37271""
","""event"",""trial"",""time""
""blur"",""0"",""0""
","""event"",""trial"",""time""
""focus"",""1"",""29167""
","""event"",""trial"",""time""
""fullscreenenter"",""5"",""37271""
","
",NA,images/earth.jpg,NA,NA,NA,NA,NA,NA,NA,NA,NA,NA,NA,NA,NA,fixation,NA,NA,NA,NA,NA,NA,sub42
d3-animate-choice,192,481972,0.0-76.0-0.19,TRUE,TRUE,FALSE,TRUE,"""event"",""trial"",""time""
""blur"",""0"",""0""
""focus"",""1"",""29167""
""fullscreenenter"",""5"",""37271""
","""event"",""trial"",""time""
""blur"",""0"",""0""
","""event"",""trial"",""time""
""focus"",""1"",""29167""
","""event"",""trial"",""time""
""fullscreenenter"",""5"",""37271""
","
",340.9999999999418,NA,49,NA,NA,3000,1,NA,NA,images/earth.jpg,images/rocket2,images/rocket1,null,images/rocket1,NA,1,real,null,1,NA,NA,NA,sub42
d3-animate-choice,193,484613,0.0-76.0-1.19,TRUE,TRUE,FALSE,TRUE,"""event"",""trial"",""time""
""blur"",""0"",""0""
""focus"",""1"",""29167""
""fullscreenenter"",""5"",""37271""
","""event"",""trial"",""time""
""blur"",""0"",""0""
","""event"",""trial"",""time""
""focus"",""1"",""29167""
","""event"",""trial"",""time""
""fullscreenenter"",""5"",""37271""
","
",639,NA,49,NA,NA,3000,1,NA,NA,images/purpleplanet.jpg,images/alien4,images/alien3,images/rocket1,images/alien3,images/nothing.png,2,real,false,1,rare,0,2020-06-12T18:36:31Z,sub42
two-step-fixation,194,485615,0.0-76.0-2.19,TRUE,TRUE,FALSE,TRUE,"""event"",""trial"",""time""
""blur"",""0"",""0""
""focus"",""1"",""29167""
""fullscreenenter"",""5"",""37271""
","""event"",""trial"",""time""
""blur"",""0"",""0""
","""event"",""trial"",""time""
""focus"",""1"",""29167""
","""event"",""trial"",""time""
""fullscreenenter"",""5"",""37271""
","
",NA,images/earth.jpg,NA,NA,NA,NA,NA,NA,NA,NA,NA,NA,NA,NA,NA,fixation,NA,NA,NA,NA,NA,NA,sub42
d3-animate-choice,195,488112,0.0-76.0-0.20,TRUE,TRUE,FALSE,TRUE,"""event"",""trial"",""time""
""blur"",""0"",""0""
""focus"",""1"",""29167""
""fullscreenenter"",""5"",""37271""
","""event"",""trial"",""time""
""blur"",""0"",""0""
","""event"",""trial"",""time""
""focus"",""1"",""29167""
","""event"",""trial"",""time""
""fullscreenenter"",""5"",""37271""
","
",495,NA,49,NA,NA,3000,1,NA,NA,images/earth.jpg,images/rocket2,images/rocket1,null,images/rocket1,NA,1,real,null,1,NA,NA,NA,sub42
d3-animate-choice,196,491083,0.0-76.0-1.20,TRUE,TRUE,FALSE,TRUE,"""event"",""trial"",""time""
""blur"",""0"",""0""
""focus"",""1"",""29167""
""fullscreenenter"",""5"",""37271""
","""event"",""trial"",""time""
""blur"",""0"",""0""
","""event"",""trial"",""time""
""focus"",""1"",""29167""
","""event"",""trial"",""time""
""fullscreenenter"",""5"",""37271""
","
",968.0000000000582,NA,48,NA,NA,3000,1,NA,NA,images/redplanet1.jpg,images/alien2,images/alien1,images/rocket1,images/alien2,images/t.png,2,real,true,2,common,1,2020-06-12T18:36:38Z,sub42
two-step-fixation,197,492084,0.0-76.0-2.20,TRUE,TRUE,FALSE,TRUE,"""event"",""trial"",""time""
""blur"",""0"",""0""
""focus"",""1"",""29167""
""fullscreenenter"",""5"",""37271""
","""event"",""trial"",""time""
""blur"",""0"",""0""
","""event"",""trial"",""time""
""focus"",""1"",""29167""
","""event"",""trial"",""time""
""fullscreenenter"",""5"",""37271""
","
",NA,images/earth.jpg,NA,NA,NA,NA,NA,NA,NA,NA,NA,NA,NA,NA,NA,fixation,NA,NA,NA,NA,NA,NA,sub42
d3-animate-choice,198,495286,0.0-76.0-0.21,TRUE,TRUE,FALSE,TRUE,"""event"",""trial"",""time""
""blur"",""0"",""0""
""focus"",""1"",""29167""
""fullscreenenter"",""5"",""37271""
","""event"",""trial"",""time""
""blur"",""0"",""0""
","""event"",""trial"",""time""
""focus"",""1"",""29167""
","""event"",""trial"",""time""
""fullscreenenter"",""5"",""37271""
","
",1200,NA,49,NA,NA,3000,1,NA,NA,images/earth.jpg,images/rocket2,images/rocket1,null,images/rocket1,NA,1,real,null,1,NA,NA,NA,sub42
d3-animate-choice,199,498177,0.0-76.0-1.21,TRUE,TRUE,FALSE,TRUE,"""event"",""trial"",""time""
""blur"",""0"",""0""
""focus"",""1"",""29167""
""fullscreenenter"",""5"",""37271""
","""event"",""trial"",""time""
""blur"",""0"",""0""
","""event"",""trial"",""time""
""focus"",""1"",""29167""
","""event"",""trial"",""time""
""fullscreenenter"",""5"",""37271""
","
",889,NA,48,NA,NA,3000,1,NA,NA,images/redplanet1.jpg,images/alien2,images/alien1,images/rocket1,images/alien2,images/t.png,2,real,true,2,common,1,2020-06-12T18:36:45Z,sub42
two-step-fixation,200,499178,0.0-76.0-2.21,TRUE,TRUE,FALSE,TRUE,"""event"",""trial"",""time""
""blur"",""0"",""0""
""focus"",""1"",""29167""
""fullscreenenter"",""5"",""37271""
","""event"",""trial"",""time""
""blur"",""0"",""0""
","""event"",""trial"",""time""
""focus"",""1"",""29167""
","""event"",""trial"",""time""
""fullscreenenter"",""5"",""37271""
","
",NA,images/earth.jpg,NA,NA,NA,NA,NA,NA,NA,NA,NA,NA,NA,NA,NA,fixation,NA,NA,NA,NA,NA,NA,sub42
d3-animate-choice,201,502576,0.0-76.0-0.22,TRUE,TRUE,FALSE,TRUE,"""event"",""trial"",""time""
""blur"",""0"",""0""
""focus"",""1"",""29167""
""fullscreenenter"",""5"",""37271""
","""event"",""trial"",""time""
""blur"",""0"",""0""
","""event"",""trial"",""time""
""focus"",""1"",""29167""
","""event"",""trial"",""time""
