trial_type,trial_index,time_elapsed,internal_node_id,rocket_sides,red_planet_first_rocket,red_display_order,purple_display_order,interactions,blur_events,focus_events,fullscreenenter_events,fullscreenexit_events,rt,stimulus,key_press,button_pressed,success,duration,valid_pressed,rts,keys,planet_text,right_text,left_text,center_text,chosen_text,reward_text,trial_stage,practice_trial,transition_type,choice,transition,reward,timestamp,subject_id
pavlovia,0,4,0.0-0.0,FALSE,FALSE,FALSE,TRUE,"
","
","
","
","
",NA,NA,NA,NA,NA,NA,NA,NA,NA,NA,NA,NA,NA,NA,NA,NA,NA,NA,NA,NA,NA,NA,sub123
html-keyboard-response,1,1342,0.0-1.0,FALSE,FALSE,FALSE,TRUE,"
","
","
","
","
",1337.7699999982724,Welcome! Press the space bar to begin.,32,NA,NA,NA,NA,NA,NA,NA,NA,NA,NA,NA,NA,NA,NA,NA,NA,NA,NA,NA,sub123
audio-keyboard-response,2,3774,0.0-2.0,FALSE,FALSE,FALSE,TRUE,"
","
","
","
","
",2432,audio/beep_loop.wav,32,NA,NA,NA,NA,NA,NA,NA,NA,NA,NA,NA,NA,NA,NA,NA,NA,NA,NA,NA,sub123
audio-button-response,3,5413,0.0-3.0,FALSE,FALSE,FALSE,TRUE,"
","
","
","
","
",NaN,audio/fish.mp3,NA,1,NA,NA,NA,NA,NA,NA,NA,NA,NA,NA,NA,NA,NA,NA,NA,NA,NA,NA,sub123
audio-button-response,4,8021,0.0-4.0,FALSE,FALSE,FALSE,TRUE,"""event"",""trial"",""time""
""fullscreenenter"",""5"",""12319""
","
","
","""event"",""trial"",""time""
""fullscreenenter"",""5"",""12319""
","
",NaN,audio/tiger.mp3,NA,4,NA,NA,NA,NA,NA,NA,NA,NA,NA,NA,NA,NA,NA,NA,NA,NA,NA,NA,sub123
fullscreen,5,13311,0.0-5.0,FALSE,FALSE,FALSE,TRUE,"""event"",""trial"",""time""
""fullscreenenter"",""5"",""12319""
","
","
","""event"",""trial"",""time""
""fullscreenenter"",""5"",""12319""
","
",NA,NA,NA,NA,TRUE,NA,NA,NA,NA,NA,NA,NA,NA,NA,NA,NA,NA,NA,NA,NA,NA,NA,sub123
d3-instructions,6,26830,0.0-6.0,FALSE,FALSE,FALSE,TRUE,"""event"",""trial"",""time""
""fullscreenenter"",""5"",""12319""
","
","
","""event"",""trial"",""time""
""fullscreenenter"",""5"",""12319""
","
",NA,NA,NA,NA,NA,NA,NA,NA,NA,NA,NA,NA,NA,NA,NA,NA,NA,NA,NA,NA,NA,NA,sub123
d3-instructions,7,34254,0.0-7.0,FALSE,FALSE,FALSE,TRUE,"""event"",""trial"",""time""
""fullscreenenter"",""5"",""12319""
","
","
","""event"",""trial"",""time""
""fullscreenenter"",""5"",""12319""
","
",NA,NA,NA,NA,NA,NA,NA,NA,NA,NA,NA,NA,NA,NA,NA,NA,NA,NA,NA,NA,NA,NA,sub123
d3-instructions,8,41214,0.0-8.0,FALSE,FALSE,FALSE,TRUE,"""event"",""trial"",""time""
""fullscreenenter"",""5"",""12319""
","
","
","""event"",""trial"",""time""
""fullscreenenter"",""5"",""12319""
","
",NA,NA,NA,NA,NA,NA,NA,NA,NA,NA,NA,NA,NA,NA,NA,NA,NA,NA,NA,NA,NA,NA,sub123
d3-instructions,9,52374,0.0-9.0,FALSE,FALSE,FALSE,TRUE,"""event"",""trial"",""time""
""fullscreenenter"",""5"",""12319""
","
","
","""event"",""trial"",""time""
""fullscreenenter"",""5"",""12319""
","
",NA,NA,NA,NA,NA,NA,NA,NA,NA,NA,NA,NA,NA,NA,NA,NA,NA,NA,NA,NA,NA,NA,sub123
d3-instructions,10,72542,0.0-10.0,FALSE,FALSE,FALSE,TRUE,"""event"",""trial"",""time""
""fullscreenenter"",""5"",""12319""
","
","
","""event"",""trial"",""time""
""fullscreenenter"",""5"",""12319""
","
",NA,NA,NA,NA,NA,NA,NA,NA,NA,NA,NA,NA,NA,NA,NA,NA,NA,NA,NA,NA,NA,NA,sub123
d3-animate-choice,11,75410,0.0-11.0,FALSE,FALSE,FALSE,TRUE,"""event"",""trial"",""time""
""fullscreenenter"",""5"",""12319""
","
","
","""event"",""trial"",""time""
""fullscreenenter"",""5"",""12319""
","
",862.2000000032131,NA,49,NA,NA,3000,1,"1910.1599999994505,2814.0500000008615",4849,images/tutgreenplanet.jpg,images/tutalien1,images/tutalien2,null,images/tutalien2,NA,NA,practice,null,NA,NA,NA,NA,sub123
d3-animate-choice,12,78088,0.0-12.0,FALSE,FALSE,FALSE,TRUE,"""event"",""trial"",""time""
""fullscreenenter"",""5"",""12319""
","
","
","""event"",""trial"",""time""
""fullscreenenter"",""5"",""12319""
","
",674.1749999928288,NA,48,NA,NA,3000,1,1370.4849999921862,48,images/tutgreenplanet.jpg,images/tutalien1,images/tutalien2,null,images/tutalien1,NA,NA,practice,null,NA,NA,NA,NA,sub123
d3-animate-choice,13,80879,0.0-13.0,FALSE,FALSE,FALSE,TRUE,"""event"",""trial"",""time""
""fullscreenenter"",""5"",""12319""
","
","
","""event"",""trial"",""time""
""fullscreenenter"",""5"",""12319""
","
",788.8749999983702,NA,49,NA,NA,3000,1,NA,NA,images/tutgreenplanet.jpg,images/tutalien1,images/tutalien2,null,images/tutalien2,NA,NA,practice,null,NA,NA,NA,NA,sub123
d3-animate-choice,14,83256,0.0-14.0,FALSE,FALSE,FALSE,TRUE,"""event"",""trial"",""time""
""fullscreenenter"",""5"",""12319""
","
","
","""event"",""trial"",""time""
""fullscreenenter"",""5"",""12319""
","
",373.58999998832587,NA,48,NA,NA,3000,1,NA,NA,images/tutgreenplanet.jpg,images/tutalien1,images/tutalien2,null,images/tutalien1,NA,NA,practice,null,NA,NA,NA,NA,sub123
d3-instructions,15,89598,0.0-15.0,FALSE,FALSE,FALSE,TRUE,"""event"",""trial"",""time""
""fullscreenenter"",""5"",""12319""
","
","
","""event"",""trial"",""time""
""fullscreenenter"",""5"",""12319""
","
",NA,NA,NA,NA,NA,NA,NA,NA,NA,NA,NA,NA,NA,NA,NA,NA,NA,NA,NA,NA,NA,NA,sub123
d3-instructions,16,93078,0.0-16.0,FALSE,FALSE,FALSE,TRUE,"""event"",""trial"",""time""
""fullscreenenter"",""5"",""12319""
","
","
","""event"",""trial"",""time""
""fullscreenenter"",""5"",""12319""
","
",NA,NA,NA,NA,NA,NA,NA,NA,NA,NA,NA,NA,NA,NA,NA,NA,NA,NA,NA,NA,NA,NA,sub123
d3-instructions,17,101735,0.0-17.0,FALSE,FALSE,FALSE,TRUE,"""event"",""trial"",""time""
""fullscreenenter"",""5"",""12319""
","
","
","""event"",""trial"",""time""
""fullscreenenter"",""5"",""12319""
","
",NA,NA,NA,NA,NA,NA,NA,NA,NA,NA,NA,NA,NA,NA,NA,NA,NA,NA,NA,NA,NA,NA,sub123
d3-instructions,18,109502,0.0-18.0,FALSE,FALSE,FALSE,TRUE,"""event"",""trial"",""time""
""fullscreenenter"",""5"",""12319""
","
","
","""event"",""trial"",""time""
""fullscreenenter"",""5"",""12319""
","
",NA,NA,NA,NA,NA,NA,NA,NA,NA,NA,NA,NA,NA,NA,NA,NA,NA,NA,NA,NA,NA,NA,sub123
d3-instructions,19,118845,0.0-19.0,FALSE,FALSE,FALSE,TRUE,"""event"",""trial"",""time""
""fullscreenenter"",""5"",""12319""
","
","
","""event"",""trial"",""time""
""fullscreenenter"",""5"",""12319""
","
",NA,NA,NA,NA,NA,NA,NA,NA,NA,NA,NA,NA,NA,NA,NA,NA,NA,NA,NA,NA,NA,NA,sub123
d3-animate-choice,20,121263,0.0-20.0,FALSE,FALSE,FALSE,TRUE,"""event"",""trial"",""time""
""fullscreenenter"",""5"",""12319""
","
","
","""event"",""trial"",""time""
""fullscreenenter"",""5"",""12319""
","
",414.3000000040047,NA,49,NA,NA,3000,1,NA,NA,images/tutyellowplanet.jpg,null,images/tutalien3,null,images/tutalien3,images/nothing.png,NA,practice,null,NA,NA,NA,NA,sub123
d3-animate-choice,21,123543,0.0-21.0,FALSE,FALSE,FALSE,TRUE,"""event"",""trial"",""time""
""fullscreenenter"",""5"",""12319""
","
","
","""event"",""trial"",""time""
""fullscreenenter"",""5"",""12319""
","
",277.2299999924144,NA,49,NA,NA,3000,1,NA,NA,images/tutyellowplanet.jpg,null,images/tutalien3,null,images/tutalien3,images/t.png,NA,practice,null,NA,NA,NA,NA,sub123
d3-animate-choice,22,125800,0.0-22.0,FALSE,FALSE,FALSE,TRUE,"""event"",""trial"",""time""
""fullscreenenter"",""5"",""12319""
","
","
","""event"",""trial"",""time""
""fullscreenenter"",""5"",""12319""
","
",253.2950000022538,NA,49,NA,NA,3000,1,"1733.1649999978254,2205.1900000078604",4949,images/tutyellowplanet.jpg,null,images/tutalien3,null,images/tutalien3,images/t.png,NA,practice,null,NA,NA,NA,NA,sub123
d3-animate-choice,23,128030,0.0-23.0,FALSE,FALSE,FALSE,TRUE,"""event"",""trial"",""time""
""fullscreenenter"",""5"",""12319""
","
","
","""event"",""trial"",""time""
""fullscreenenter"",""5"",""12319""
","
",228.18499999993946,NA,49,NA,NA,3000,1,NA,NA,images/tutyellowplanet.jpg,null,images/tutalien3,null,images/tutalien3,images/t.png,NA,practice,null,NA,NA,NA,NA,sub123
d3-animate-choice,24,130248,0.0-24.0,FALSE,FALSE,FALSE,TRUE,"""event"",""trial"",""time""
""fullscreenenter"",""5"",""12319""
","
","
","""event"",""trial"",""time""
""fullscreenenter"",""5"",""12319""
","
",215.14499999466352,NA,49,NA,NA,3000,1,NA,NA,images/tutyellowplanet.jpg,null,images/tutalien3,null,images/tutalien3,images/t.png,NA,practice,null,NA,NA,NA,NA,sub123
d3-animate-choice,25,132471,0.0-25.0,FALSE,FALSE,FALSE,TRUE,"""event"",""trial"",""time""
""fullscreenenter"",""5"",""12319""
","
","
","""event"",""trial"",""time""
""fullscreenenter"",""5"",""12319""
","
",220.70000000530854,NA,49,NA,NA,3000,1,NA,NA,images/tutyellowplanet.jpg,null,images/tutalien3,null,images/tutalien3,images/t.png,NA,practice,null,NA,NA,NA,NA,sub123
d3-animate-choice,26,134687,0.0-26.0,FALSE,FALSE,FALSE,TRUE,"""event"",""trial"",""time""
""fullscreenenter"",""5"",""12319""
","
","
","""event"",""trial"",""time""
""fullscreenenter"",""5"",""12319""
","
",212.29500000481494,NA,49,NA,NA,3000,1,NA,NA,images/tutyellowplanet.jpg,null,images/tutalien3,null,images/tutalien3,images/t.png,NA,practice,null,NA,NA,NA,NA,sub123
d3-animate-choice,27,136784,0.0-27.0,FALSE,FALSE,FALSE,TRUE,"""event"",""trial"",""time""
""fullscreenenter"",""5"",""12319""
","
","
","""event"",""trial"",""time""
""fullscreenenter"",""5"",""12319""
","
",93.80000000237487,NA,49,NA,NA,3000,1,NA,NA,images/tutyellowplanet.jpg,null,images/tutalien3,null,images/tutalien3,images/t.png,NA,practice,null,NA,NA,NA,NA,sub123
d3-animate-choice,28,138902,0.0-28.0,FALSE,FALSE,FALSE,TRUE,"""event"",""trial"",""time""
""fullscreenenter"",""5"",""12319""
","
","
","""event"",""trial"",""time""
""fullscreenenter"",""5"",""12319""
","
",116.34500000218395,NA,49,NA,NA,3000,1,NA,NA,images/tutyellowplanet.jpg,null,images/tutalien3,null,images/tutalien3,images/t.png,NA,practice,null,NA,NA,NA,NA,sub123
d3-animate-choice,29,141135,0.0-29.0,FALSE,FALSE,FALSE,TRUE,"""event"",""trial"",""time""
""fullscreenenter"",""5"",""12319""
","
","
","""event"",""trial"",""time""
""fullscreenenter"",""5"",""12319""
","
",231.580000006943,NA,49,NA,NA,3000,1,NA,NA,images/tutyellowplanet.jpg,null,images/tutalien3,null,images/tutalien3,images/t.png,NA,practice,null,NA,NA,NA,NA,sub123
d3-instructions,30,144917,0.0-30.0,FALSE,FALSE,FALSE,TRUE,"""event"",""trial"",""time""
""fullscreenenter"",""5"",""12319""
","
","
","""event"",""trial"",""time""
""fullscreenenter"",""5"",""12319""
","
",NA,NA,NA,NA,NA,NA,NA,NA,NA,NA,NA,NA,NA,NA,NA,NA,NA,NA,NA,NA,NA,NA,sub123
d3-instructions,31,148901,0.0-31.0,FALSE,FALSE,FALSE,TRUE,"""event"",""trial"",""time""
""fullscreenenter"",""5"",""12319""
","
","
","""event"",""trial"",""time""
""fullscreenenter"",""5"",""12319""
","
",NA,NA,NA,NA,NA,NA,NA,NA,NA,NA,NA,NA,NA,NA,NA,NA,NA,NA,NA,NA,NA,NA,sub123
d3-instructions,32,154573,0.0-32.0,FALSE,FALSE,FALSE,TRUE,"""event"",""trial"",""time""
""fullscreenenter"",""5"",""12319""
","
","
","""event"",""trial"",""time""
""fullscreenenter"",""5"",""12319""
","
",NA,NA,NA,NA,NA,NA,NA,NA,NA,NA,NA,NA,NA,NA,NA,NA,NA,NA,NA,NA,NA,NA,sub123
d3-instructions,33,157109,0.0-33.0,FALSE,FALSE,FALSE,TRUE,"""event"",""trial"",""time""
""fullscreenenter"",""5"",""12319""
","
","
","""event"",""trial"",""time""
""fullscreenenter"",""5"",""12319""
","
",NA,NA,NA,NA,NA,NA,NA,NA,NA,NA,NA,NA,NA,NA,NA,NA,NA,NA,NA,NA,NA,NA,sub123
d3-animate-choice,34,161638,0.0-34.0,FALSE,FALSE,FALSE,TRUE,"""event"",""trial"",""time""
""fullscreenenter"",""5"",""12319""
","
","
","""event"",""trial"",""time""
""fullscreenenter"",""5"",""12319""
","
",2526.865000007092,NA,48,NA,NA,3000,1,NA,NA,images/tutgreenplanet.jpg,images/tutalien1,images/tutalien2,null,images/tutalien1,images/nothing.png,NA,practice,null,NA,NA,NA,NA,sub123
d3-animate-choice,35,164495,0.0-35.0,FALSE,FALSE,FALSE,TRUE,"""event"",""trial"",""time""
""fullscreenenter"",""5"",""12319""
","
","
","""event"",""trial"",""time""
""fullscreenenter"",""5"",""12319""
","
",853.674999991199,NA,49,NA,NA,3000,1,NA,NA,images/tutgreenplanet.jpg,images/tutalien1,images/tutalien2,null,images/tutalien2,images/nothing.png,NA,practice,null,NA,NA,NA,NA,sub123
d3-animate-choice,36,167681,0.0-36.0,FALSE,FALSE,FALSE,TRUE,"""event"",""trial"",""time""
""fullscreenenter"",""5"",""12319""
","
","
","""event"",""trial"",""time""
""fullscreenenter"",""5"",""12319""
","
",1184.3450000014855,NA,49,NA,NA,3000,1,NA,NA,images/tutgreenplanet.jpg,images/tutalien1,images/tutalien2,null,images/tutalien2,images/t.png,NA,practice,null,NA,NA,NA,NA,sub123
d3-animate-choice,37,170127,0.0-37.0,FALSE,FALSE,FALSE,TRUE,"""event"",""trial"",""time""
""fullscreenenter"",""5"",""12319""
","
","
","""event"",""trial"",""time""
""fullscreenenter"",""5"",""12319""
","
",442.6999999996042,NA,48,NA,NA,3000,1,NA,NA,images/tutgreenplanet.jpg,images/tutalien1,images/tutalien2,null,images/tutalien1,images/t.png,NA,practice,null,NA,NA,NA,NA,sub123
d3-animate-choice,38,173382,0.0-38.0,FALSE,FALSE,FALSE,TRUE,"""event"",""trial"",""time""
""fullscreenenter"",""5"",""12319""
","
","
","""event"",""trial"",""time""
""fullscreenenter"",""5"",""12319""
","
",1253.0549999937648,NA,48,NA,NA,3000,1,NA,NA,images/tutgreenplanet.jpg,images/tutalien1,images/tutalien2,null,images/tutalien1,images/nothing.png,NA,practice,null,NA,NA,NA,NA,sub123
d3-animate-choice,39,175734,0.0-39.0,FALSE,FALSE,FALSE,TRUE,"""event"",""trial"",""time""
""fullscreenenter"",""5"",""12319""
","
","
","""event"",""trial"",""time""
""fullscreenenter"",""5"",""12319""
","
",349.4899999932386,NA,49,NA,NA,3000,1,NA,NA,images/tutgreenplanet.jpg,images/tutalien1,images/tutalien2,null,images/tutalien2,images/t.png,NA,practice,null,NA,NA,NA,NA,sub123
d3-animate-choice,40,179473,0.0-40.0,FALSE,FALSE,FALSE,TRUE,"""event"",""trial"",""time""
""fullscreenenter"",""5"",""12319""
","
","
","""event"",""trial"",""time""
""fullscreenenter"",""5"",""12319""
","
",1734.7900000022491,NA,48,NA,NA,3000,1,NA,NA,images/tutgreenplanet.jpg,images/tutalien1,images/tutalien2,null,images/tutalien1,images/nothing.png,NA,practice,null,NA,NA,NA,NA,sub123
d3-animate-choice,41,181726,0.0-41.0,FALSE,FALSE,FALSE,TRUE,"""event"",""trial"",""time""
""fullscreenenter"",""5"",""12319""
","
","
","""event"",""trial"",""time""
""fullscreenenter"",""5"",""12319""
","
",251.37499999254942,NA,49,NA,NA,3000,1,NA,NA,images/tutgreenplanet.jpg,images/tutalien1,images/tutalien2,null,images/tutalien2,images/t.png,NA,practice,null,NA,NA,NA,NA,sub123
d3-animate-choice,42,183999,0.0-42.0,FALSE,FALSE,FALSE,TRUE,"""event"",""trial"",""time""
""fullscreenenter"",""5"",""12319""
","
","
","""event"",""trial"",""time""
""fullscreenenter"",""5"",""12319""
","
",270.81499999621883,NA,49,NA,NA,3000,1,NA,NA,images/tutgreenplanet.jpg,images/tutalien1,images/tutalien2,null,images/tutalien2,images/t.png,NA,practice,null,NA,NA,NA,NA,sub123
d3-animate-choice,43,186239,0.0-43.0,FALSE,FALSE,FALSE,TRUE,"""event"",""trial"",""time""
""fullscreenenter"",""5"",""12319""
","
","
","""event"",""trial"",""time""
""fullscreenenter"",""5"",""12319""
","
",237.37999999138992,NA,49,NA,NA,3000,1,NA,NA,images/tutgreenplanet.jpg,images/tutalien1,images/tutalien2,null,images/tutalien2,images/t.png,NA,practice,null,NA,NA,NA,NA,sub123
d3-instructions,44,194390,0.0-44.0,FALSE,FALSE,FALSE,TRUE,"""event"",""trial"",""time""
""fullscreenenter"",""5"",""12319""
","
","
","""event"",""trial"",""time""
""fullscreenenter"",""5"",""12319""
","
",NA,NA,NA,NA,NA,NA,NA,NA,NA,NA,NA,NA,NA,NA,NA,NA,NA,NA,NA,NA,NA,NA,sub123
d3-instructions,45,196645,0.0-45.0,FALSE,FALSE,FALSE,TRUE,"""event"",""trial"",""time""
""fullscreenenter"",""5"",""12319""
","
","
","""event"",""trial"",""time""
""fullscreenenter"",""5"",""12319""
","
",NA,NA,NA,NA,NA,NA,NA,NA,NA,NA,NA,NA,NA,NA,NA,NA,NA,NA,NA,NA,NA,NA,sub123
d3-instructions,46,199694,0.0-46.0,FALSE,FALSE,FALSE,TRUE,"""event"",""trial"",""time""
""fullscreenenter"",""5"",""12319""
","
","
","""event"",""trial"",""time""
""fullscreenenter"",""5"",""12319""
","
",NA,NA,NA,NA,NA,NA,NA,NA,NA,NA,NA,NA,NA,NA,NA,NA,NA,NA,NA,NA,NA,NA,sub123
d3-instructions,47,207118,0.0-47.0,FALSE,FALSE,FALSE,TRUE,"""event"",""trial"",""time""
""fullscreenenter"",""5"",""12319""
","
","
","""event"",""trial"",""time""
""fullscreenenter"",""5"",""12319""
","
",NA,NA,NA,NA,NA,NA,NA,NA,NA,NA,NA,NA,NA,NA,NA,NA,NA,NA,NA,NA,NA,NA,sub123
d3-instructions,48,210382,0.0-48.0,FALSE,FALSE,FALSE,TRUE,"""event"",""trial"",""time""
""fullscreenenter"",""5"",""12319""
","
","
","""event"",""trial"",""time""
""fullscreenenter"",""5"",""12319""
","
",NA,NA,NA,NA,NA,NA,NA,NA,NA,NA,NA,NA,NA,NA,NA,NA,NA,NA,NA,NA,NA,NA,sub123
d3-instructions,49,213830,0.0-49.0,FALSE,FALSE,FALSE,TRUE,"""event"",""trial"",""time""
""fullscreenenter"",""5"",""12319""
","
","
","""event"",""trial"",""time""
""fullscreenenter"",""5"",""12319""
","
",NA,NA,NA,NA,NA,NA,NA,NA,NA,NA,NA,NA,NA,NA,NA,NA,NA,NA,NA,NA,NA,NA,sub123
d3-instructions,50,218463,0.0-50.0,FALSE,FALSE,FALSE,TRUE,"""event"",""trial"",""time""
""fullscreenenter"",""5"",""12319""
","
","
","""event"",""trial"",""time""
""fullscreenenter"",""5"",""12319""
","
",NA,NA,NA,NA,NA,NA,NA,NA,NA,NA,NA,NA,NA,NA,NA,NA,NA,NA,NA,NA,NA,NA,sub123
d3-instructions,51,220526,0.0-51.0,FALSE,FALSE,FALSE,TRUE,"""event"",""trial"",""time""
""fullscreenenter"",""5"",""12319""
","
","
","""event"",""trial"",""time""
""fullscreenenter"",""5"",""12319""
","
",NA,NA,NA,NA,NA,NA,NA,NA,NA,NA,NA,NA,NA,NA,NA,NA,NA,NA,NA,NA,NA,NA,sub123
d3-instructions,52,222382,0.0-52.0,FALSE,FALSE,FALSE,TRUE,"""event"",""trial"",""time""
""fullscreenenter"",""5"",""12319""
","
","
","""event"",""trial"",""time""
""fullscreenenter"",""5"",""12319""
","
",NA,NA,NA,NA,NA,NA,NA,NA,NA,NA,NA,NA,NA,NA,NA,NA,NA,NA,NA,NA,NA,NA,sub123
d3-instructions,53,228687,0.0-53.0,FALSE,FALSE,FALSE,TRUE,"""event"",""trial"",""time""
""fullscreenenter"",""5"",""12319""
","
","
","""event"",""trial"",""time""
""fullscreenenter"",""5"",""12319""
","
",NA,NA,NA,NA,NA,NA,NA,NA,NA,NA,NA,NA,NA,NA,NA,NA,NA,NA,NA,NA,NA,NA,sub123
d3-instructions,54,236006,0.0-54.0,FALSE,FALSE,FALSE,TRUE,"""event"",""trial"",""time""
""fullscreenenter"",""5"",""12319""
","
","
","""event"",""trial"",""time""
""fullscreenenter"",""5"",""12319""
","
",NA,NA,NA,NA,NA,NA,NA,NA,NA,NA,NA,NA,NA,NA,NA,NA,NA,NA,NA,NA,NA,NA,sub123
d3-instructions,55,240246,0.0-55.0,FALSE,FALSE,FALSE,TRUE,"""event"",""trial"",""time""
""fullscreenenter"",""5"",""12319""
","
","
","""event"",""trial"",""time""
""fullscreenenter"",""5"",""12319""
","
",NA,NA,NA,NA,NA,NA,NA,NA,NA,NA,NA,NA,NA,NA,NA,NA,NA,NA,NA,NA,NA,NA,sub123
d3-instructions,56,246518,0.0-56.0,FALSE,FALSE,FALSE,TRUE,"""event"",""trial"",""time""
""fullscreenenter"",""5"",""12319""
","
","
","""event"",""trial"",""time""
""fullscreenenter"",""5"",""12319""
","
",NA,NA,NA,NA,NA,NA,NA,NA,NA,NA,NA,NA,NA,NA,NA,NA,NA,NA,NA,NA,NA,NA,sub123
d3-instructions,57,251749,0.0-57.0,FALSE,FALSE,FALSE,TRUE,"""event"",""trial"",""time""
""fullscreenenter"",""5"",""12319""
","
","
","""event"",""trial"",""time""
""fullscreenenter"",""5"",""12319""
","
",NA,NA,NA,NA,NA,NA,NA,NA,NA,NA,NA,NA,NA,NA,NA,NA,NA,NA,NA,NA,NA,NA,sub123
d3-instructions,58,255373,0.0-58.0,FALSE,FALSE,FALSE,TRUE,"""event"",""trial"",""time""
""fullscreenenter"",""5"",""12319""
","
","
","""event"",""trial"",""time""
""fullscreenenter"",""5"",""12319""
","
",NA,NA,NA,NA,NA,NA,NA,NA,NA,NA,NA,NA,NA,NA,NA,NA,NA,NA,NA,NA,NA,NA,sub123
d3-instructions,59,258077,0.0-59.0,FALSE,FALSE,FALSE,TRUE,"""event"",""trial"",""time""
""fullscreenenter"",""5"",""12319""
","
","
","""event"",""trial"",""time""
""fullscreenenter"",""5"",""12319""
","
",NA,NA,NA,NA,NA,NA,NA,NA,NA,NA,NA,NA,NA,NA,NA,NA,NA,NA,NA,NA,NA,NA,sub123
d3-instructions,60,260237,0.0-60.0,FALSE,FALSE,FALSE,TRUE,"""event"",""trial"",""time""
""fullscreenenter"",""5"",""12319""
","
","
","""event"",""trial"",""time""
""fullscreenenter"",""5"",""12319""
","
",NA,NA,NA,NA,NA,NA,NA,NA,NA,NA,NA,NA,NA,NA,NA,NA,NA,NA,NA,NA,NA,NA,sub123
d3-animate-choice,61,262800,0.0-61.0-0.0,FALSE,FALSE,FALSE,TRUE,"""event"",""trial"",""time""
""fullscreenenter"",""5"",""12319""
","
","
","""event"",""trial"",""time""
""fullscreenenter"",""5"",""12319""
","
",559.4149999960791,NA,49,NA,NA,3000,1,NA,NA,images/earth.jpg,images/tutrocket2,images/tutrocket1,null,images/tutrocket1,NA,1,practice,null,1,NA,NA,NA,sub123
d3-animate-choice,62,265832,0.0-61.0-1.0,FALSE,FALSE,FALSE,TRUE,"""event"",""trial"",""time""
""fullscreenenter"",""5"",""12319""
","
","
","""event"",""trial"",""time""
""fullscreenenter"",""5"",""12319""
","
",1027.9450000089128,NA,49,NA,NA,3000,1,NA,NA,images/tutyellowplanet.jpg,images/tutalien4,images/tutalien3,images/tutrocket1,images/tutalien3,images/nothing.png,2,practice,true,1,common,0,2020-06-20T21:43:15Z,sub123
two-step-fixation,63,266835,0.0-61.0-2.0,FALSE,FALSE,FALSE,TRUE,"""event"",""trial"",""time""
""fullscreenenter"",""5"",""12319""
","
","
","""event"",""trial"",""time""
""fullscreenenter"",""5"",""12319""
","
",NA,images/earth.jpg,NA,NA,NA,NA,NA,NA,NA,NA,NA,NA,NA,NA,NA,fixation,NA,NA,NA,NA,NA,NA,sub123
d3-animate-choice,64,269599,0.0-61.0-0.1,FALSE,FALSE,FALSE,TRUE,"""event"",""trial"",""time""
""fullscreenenter"",""5"",""12319""
","
","
","""event"",""trial"",""time""
""fullscreenenter"",""5"",""12319""
","
",760.840000002645,NA,49,NA,NA,3000,1,NA,NA,images/earth.jpg,images/tutrocket2,images/tutrocket1,null,images/tutrocket1,NA,1,practice,null,1,NA,NA,NA,sub123
d3-animate-choice,65,272232,0.0-61.0-1.1,FALSE,FALSE,FALSE,TRUE,"""event"",""trial"",""time""
""fullscreenenter"",""5"",""12319""
","
","
","""event"",""trial"",""time""
""fullscreenenter"",""5"",""12319""
","
",629.6600000059698,NA,49,NA,NA,3000,1,NA,NA,images/tutgreenplanet.jpg,images/tutalien2,images/tutalien1,images/tutrocket1,images/tutalien1,images/nothing.png,2,practice,false,1,rare,0,2020-06-20T21:43:22Z,sub123
two-step-fixation,66,273234,0.0-61.0-2.1,FALSE,FALSE,FALSE,TRUE,"""event"",""trial"",""time""
""fullscreenenter"",""5"",""12319""
","
","
","""event"",""trial"",""time""
""fullscreenenter"",""5"",""12319""
","
",NA,images/earth.jpg,NA,NA,NA,NA,NA,NA,NA,NA,NA,NA,NA,NA,NA,fixation,NA,NA,NA,NA,NA,NA,sub123
d3-animate-choice,67,275528,0.0-61.0-0.2,FALSE,FALSE,FALSE,TRUE,"""event"",""trial"",""time""
""fullscreenenter"",""5"",""12319""
","
","
","""event"",""trial"",""time""
""fullscreenenter"",""5"",""12319""
","
",290.8400000014808,NA,49,NA,NA,3000,1,NA,NA,images/earth.jpg,images/tutrocket2,images/tutrocket1,null,images/tutrocket1,NA,1,practice,null,1,NA,NA,NA,sub123
d3-animate-choice,68,278006,0.0-61.0-1.2,FALSE,FALSE,FALSE,TRUE,"""event"",""trial"",""time""
""fullscreenenter"",""5"",""12319""
","
","
","""event"",""trial"",""time""
""fullscreenenter"",""5"",""12319""
","
",476.1350000044331,NA,49,NA,NA,3000,1,NA,NA,images/tutyellowplanet.jpg,images/tutalien4,images/tutalien3,images/tutrocket1,images/tutalien3,images/nothing.png,2,practice,true,1,common,0,2020-06-20T21:43:28Z,sub123
two-step-fixation,69,279009,0.0-61.0-2.2,FALSE,FALSE,FALSE,TRUE,"""event"",""trial"",""time""
""fullscreenenter"",""5"",""12319""
","
","
","""event"",""trial"",""time""
""fullscreenenter"",""5"",""12319""
","
",NA,images/earth.jpg,NA,NA,NA,NA,NA,NA,NA,NA,NA,NA,NA,NA,NA,fixation,NA,NA,NA,NA,NA,NA,sub123
d3-animate-choice,70,281335,0.0-61.0-0.3,FALSE,FALSE,FALSE,TRUE,"""event"",""trial"",""time""
""fullscreenenter"",""5"",""12319""
","
","
","""event"",""trial"",""time""
""fullscreenenter"",""5"",""12319""
","
",323.0150000017602,NA,49,NA,NA,3000,1,NA,NA,images/earth.jpg,images/tutrocket2,images/tutrocket1,null,images/tutrocket1,NA,1,practice,null,1,NA,NA,NA,sub123
d3-animate-choice,71,283880,0.0-61.0-1.3,FALSE,FALSE,FALSE,TRUE,"""event"",""trial"",""time""
""fullscreenenter"",""5"",""12319""
","
","
","""event"",""trial"",""time""
""fullscreenenter"",""5"",""12319""
","
",541.4199999941047,NA,48,NA,NA,3000,1,NA,NA,images/tutyellowplanet.jpg,images/tutalien4,images/tutalien3,images/tutrocket1,images/tutalien4,images/nothing.png,2,practice,true,2,common,0,2020-06-20T21:43:33Z,sub123
two-step-fixation,72,284882,0.0-61.0-2.3,FALSE,FALSE,FALSE,TRUE,"""event"",""trial"",""time""
""fullscreenenter"",""5"",""12319""
","
","
","""event"",""trial"",""time""
""fullscreenenter"",""5"",""12319""
","
",NA,images/earth.jpg,NA,NA,NA,NA,NA,NA,NA,NA,NA,NA,NA,NA,NA,fixation,NA,NA,NA,NA,NA,NA,sub123
d3-animate-choice,73,287323,0.0-61.0-0.4,FALSE,FALSE,FALSE,TRUE,"""event"",""trial"",""time""
""fullscreenenter"",""5"",""12319""
","
","
","""event"",""trial"",""time""
""fullscreenenter"",""5"",""12319""
","
",436.9600000063656,NA,49,NA,NA,3000,1,NA,NA,images/earth.jpg,images/tutrocket2,images/tutrocket1,null,images/tutrocket1,NA,1,practice,null,1,NA,NA,NA,sub123
d3-animate-choice,74,289720,0.0-61.0-1.4,FALSE,FALSE,FALSE,TRUE,"""event"",""trial"",""time""
""fullscreenenter"",""5"",""12319""
","
","
","""event"",""trial"",""time""
""fullscreenenter"",""5"",""12319""
","
",393.48500000778586,NA,48,NA,NA,3000,1,NA,NA,images/tutyellowplanet.jpg,images/tutalien4,images/tutalien3,images/tutrocket1,images/tutalien4,images/t.png,2,practice,true,2,common,1,2020-06-20T21:43:39Z,sub123
two-step-fixation,75,290722,0.0-61.0-2.4,FALSE,FALSE,FALSE,TRUE,"""event"",""trial"",""time""
""fullscreenenter"",""5"",""12319""
","
","
","""event"",""trial"",""time""
""fullscreenenter"",""5"",""12319""
","
",NA,images/earth.jpg,NA,NA,NA,NA,NA,NA,NA,NA,NA,NA,NA,NA,NA,fixation,NA,NA,NA,NA,NA,NA,sub123
d3-animate-choice,76,293022,0.0-61.0-0.5,FALSE,FALSE,FALSE,TRUE,"""event"",""trial"",""time""
""fullscreenenter"",""5"",""12319""
","
","
","""event"",""trial"",""time""
""fullscreenenter"",""5"",""12319""
","
",297.42499999701977,NA,49,NA,NA,3000,1,NA,NA,images/earth.jpg,images/tutrocket2,images/tutrocket1,null,images/tutrocket1,NA,1,practice,null,1,NA,NA,NA,sub123
d3-animate-choice,77,295303,0.0-61.0-1.5,FALSE,FALSE,FALSE,TRUE,"""event"",""trial"",""time""
""fullscreenenter"",""5"",""12319""
","
","
","""event"",""trial"",""time""
""fullscreenenter"",""5"",""12319""
","
",278.11499999370426,NA,48,NA,NA,3000,1,NA,NA,images/tutgreenplanet.jpg,images/tutalien2,images/tutalien1,images/tutrocket1,images/tutalien2,images/nothing.png,2,practice,false,2,rare,0,2020-06-20T21:43:45Z,sub123
two-step-fixation,78,296305,0.0-61.0-2.5,FALSE,FALSE,FALSE,TRUE,"""event"",""trial"",""time""
""fullscreenenter"",""5"",""12319""
","
","
","""event"",""trial"",""time""
""fullscreenenter"",""5"",""12319""
","
",NA,images/earth.jpg,NA,NA,NA,NA,NA,NA,NA,NA,NA,NA,NA,NA,NA,fixation,NA,NA,NA,NA,NA,NA,sub123
d3-animate-choice,79,298552,0.0-61.0-0.6,FALSE,FALSE,FALSE,TRUE,"""event"",""trial"",""time""
""fullscreenenter"",""5"",""12319""
","
","
","""event"",""trial"",""time""
""fullscreenenter"",""5"",""12319""
","
",243.6349999916274,NA,49,NA,NA,3000,1,NA,NA,images/earth.jpg,images/tutrocket2,images/tutrocket1,null,images/tutrocket1,NA,1,practice,null,1,NA,NA,NA,sub123
d3-animate-choice,80,300991,0.0-61.0-1.6,FALSE,FALSE,FALSE,TRUE,"""event"",""trial"",""time""
""fullscreenenter"",""5"",""12319""
","
","
","""event"",""trial"",""time""
""fullscreenenter"",""5"",""12319""
","
",436.38499999360647,NA,48,NA,NA,3000,1,NA,NA,images/tutyellowplanet.jpg,images/tutalien4,images/tutalien3,images/tutrocket1,images/tutalien4,images/t.png,2,practice,true,2,common,1,2020-06-20T21:43:51Z,sub123
two-step-fixation,81,301994,0.0-61.0-2.6,FALSE,FALSE,FALSE,TRUE,"""event"",""trial"",""time""
""fullscreenenter"",""5"",""12319""
","
","
","""event"",""trial"",""time""
""fullscreenenter"",""5"",""12319""
","
",NA,images/earth.jpg,NA,NA,NA,NA,NA,NA,NA,NA,NA,NA,NA,NA,NA,fixation,NA,NA,NA,NA,NA,NA,sub123
d3-animate-choice,82,304271,0.0-61.0-0.7,FALSE,FALSE,FALSE,TRUE,"""event"",""trial"",""time""
""fullscreenenter"",""5"",""12319""
","
","
","""event"",""trial"",""time""
""fullscreenenter"",""5"",""12319""
","
",273.88999999675434,NA,49,NA,NA,3000,1,NA,NA,images/earth.jpg,images/tutrocket2,images/tutrocket1,null,images/tutrocket1,NA,1,practice,null,1,NA,NA,NA,sub123
d3-animate-choice,83,306551,0.0-61.0-1.7,FALSE,FALSE,FALSE,TRUE,"""event"",""trial"",""time""
""fullscreenenter"",""5"",""12319""
","
","
","""event"",""trial"",""time""
""fullscreenenter"",""5"",""12319""
","
",278.0300000013085,NA,48,NA,NA,3000,1,NA,NA,images/tutgreenplanet.jpg,images/tutalien2,images/tutalien1,images/tutrocket1,images/tutalien2,images/nothing.png,2,practice,false,2,rare,0,2020-06-20T21:43:56Z,sub123
two-step-fixation,84,307554,0.0-61.0-2.7,FALSE,FALSE,FALSE,TRUE,"""event"",""trial"",""time""
""fullscreenenter"",""5"",""12319""
","
","
","""event"",""trial"",""time""
""fullscreenenter"",""5"",""12319""
","
",NA,images/earth.jpg,NA,NA,NA,NA,NA,NA,NA,NA,NA,NA,NA,NA,NA,fixation,NA,NA,NA,NA,NA,NA,sub123
d3-animate-choice,85,309855,0.0-61.0-0.8,FALSE,FALSE,FALSE,TRUE,"""event"",""trial"",""time""
""fullscreenenter"",""5"",""12319""
","
","
","""event"",""trial"",""time""
""fullscreenenter"",""5"",""12319""
","
",299.08500000601634,NA,49,NA,NA,3000,1,NA,NA,images/earth.jpg,images/tutrocket2,images/tutrocket1,null,images/tutrocket1,NA,1,practice,null,1,NA,NA,NA,sub123
d3-animate-choice,86,312327,0.0-61.0-1.8,FALSE,FALSE,FALSE,TRUE,"""event"",""trial"",""time""
""fullscreenenter"",""5"",""12319""
","
","
","""event"",""trial"",""time""
""fullscreenenter"",""5"",""12319""
","
",469.48499999416526,NA,48,NA,NA,3000,1,NA,NA,images/tutyellowplanet.jpg,images/tutalien4,images/tutalien3,images/tutrocket1,images/tutalien4,images/nothing.png,2,practice,true,2,common,0,2020-06-20T21:44:02Z,sub123
two-step-fixation,87,313330,0.0-61.0-2.8,FALSE,FALSE,FALSE,TRUE,"""event"",""trial"",""time""
""fullscreenenter"",""5"",""12319""
","
","
","""event"",""trial"",""time""
""fullscreenenter"",""5"",""12319""
","
",NA,images/earth.jpg,NA,NA,NA,NA,NA,NA,NA,NA,NA,NA,NA,NA,NA,fixation,NA,NA,NA,NA,NA,NA,sub123
d3-animate-choice,88,315639,0.0-61.0-0.9,FALSE,FALSE,FALSE,TRUE,"""event"",""trial"",""time""
""fullscreenenter"",""5"",""12319""
","
","
","""event"",""trial"",""time""
""fullscreenenter"",""5"",""12319""
","
",305.17999999574386,NA,49,NA,NA,3000,1,NA,NA,images/earth.jpg,images/tutrocket2,images/tutrocket1,null,images/tutrocket1,NA,1,practice,null,1,NA,NA,NA,sub123
d3-animate-choice,89,318071,0.0-61.0-1.9,FALSE,FALSE,FALSE,TRUE,"""event"",""trial"",""time""
""fullscreenenter"",""5"",""12319""
","
","
","""event"",""trial"",""time""
""fullscreenenter"",""5"",""12319""
","
",428.5950000048615,NA,49,NA,NA,3000,1,NA,NA,images/tutgreenplanet.jpg,images/tutalien2,images/tutalien1,images/tutrocket1,images/tutalien1,images/nothing.png,2,practice,false,1,rare,0,2020-06-20T21:44:08Z,sub123
two-step-fixation,90,319073,0.0-61.0-2.9,FALSE,FALSE,FALSE,TRUE,"""event"",""trial"",""time""
""fullscreenenter"",""5"",""12319""
","
","
","""event"",""trial"",""time""
""fullscreenenter"",""5"",""12319""
","
",NA,images/earth.jpg,NA,NA,NA,NA,NA,NA,NA,NA,NA,NA,NA,NA,NA,fixation,NA,NA,NA,NA,NA,NA,sub123
d3-animate-choice,91,321375,0.0-61.0-0.10,FALSE,FALSE,FALSE,TRUE,"""event"",""trial"",""time""
""fullscreenenter"",""5"",""12319""
","
","
","""event"",""trial"",""time""
""fullscreenenter"",""5"",""12319""
","
",299.9450000061188,NA,49,NA,NA,3000,1,NA,NA,images/earth.jpg,images/tutrocket2,images/tutrocket1,null,images/tutrocket1,NA,1,practice,null,1,NA,NA,NA,sub123
d3-animate-choice,92,323855,0.0-61.0-1.10,FALSE,FALSE,FALSE,TRUE,"""event"",""trial"",""time""
""fullscreenenter"",""5"",""12319""
","
","
","""event"",""trial"",""time""
""fullscreenenter"",""5"",""12319""
","
",477.48000000137836,NA,48,NA,NA,3000,1,NA,NA,images/tutgreenplanet.jpg,images/tutalien2,images/tutalien1,images/tutrocket1,images/tutalien2,images/nothing.png,2,practice,false,2,rare,0,2020-06-20T21:44:13Z,sub123
two-step-fixation,93,324857,0.0-61.0-2.10,FALSE,FALSE,FALSE,TRUE,"""event"",""trial"",""time""
""fullscreenenter"",""5"",""12319""
","
","
","""event"",""trial"",""time""
""fullscreenenter"",""5"",""12319""
","
",NA,images/earth.jpg,NA,NA,NA,NA,NA,NA,NA,NA,NA,NA,NA,NA,NA,fixation,NA,NA,NA,NA,NA,NA,sub123
d3-animate-choice,94,327118,0.0-61.0-0.11,FALSE,FALSE,FALSE,TRUE,"""event"",""trial"",""time""
""fullscreenenter"",""5"",""12319""
","
","
","""event"",""trial"",""time""
""fullscreenenter"",""5"",""12319""
","
",258.9000000007218,NA,49,NA,NA,3000,1,NA,NA,images/earth.jpg,images/tutrocket2,images/tutrocket1,null,images/tutrocket1,NA,1,practice,null,1,NA,NA,NA,sub123
d3-animate-choice,95,330431,0.0-61.0-1.11,FALSE,FALSE,FALSE,TRUE,"""event"",""trial"",""time""
""fullscreenenter"",""5"",""12319""
","
","
","""event"",""trial"",""time""
""fullscreenenter"",""5"",""12319""
","
",1310.5050000012852,NA,48,NA,NA,3000,1,NA,NA,images/tutyellowplanet.jpg,images/tutalien4,images/tutalien3,images/tutrocket1,images/tutalien4,images/t.png,2,practice,true,2,common,1,2020-06-20T21:44:20Z,sub123
two-step-fixation,96,331433,0.0-61.0-2.11,FALSE,FALSE,FALSE,TRUE,"""event"",""trial"",""time""
""fullscreenenter"",""5"",""12319""
","
","
","""event"",""trial"",""time""
""fullscreenenter"",""5"",""12319""
","
",NA,images/earth.jpg,NA,NA,NA,NA,NA,NA,NA,NA,NA,NA,NA,NA,NA,fixation,NA,NA,NA,NA,NA,NA,sub123
d3-animate-choice,97,333719,0.0-61.0-0.12,FALSE,FALSE,FALSE,TRUE,"""event"",""trial"",""time""
""fullscreenenter"",""5"",""12319""
","
","
","""event"",""trial"",""time""
""fullscreenenter"",""5"",""12319""
","
",283.5400000039954,NA,49,NA,NA,3000,1,NA,NA,images/earth.jpg,images/tutrocket2,images/tutrocket1,null,images/tutrocket1,NA,1,practice,null,1,NA,NA,NA,sub123
d3-animate-choice,98,336303,0.0-61.0-1.12,FALSE,FALSE,FALSE,TRUE,"""event"",""trial"",""time""
""fullscreenenter"",""5"",""12319""
","
","
","""event"",""trial"",""time""
""fullscreenenter"",""5"",""12319""
","
",581.3800000032643,NA,48,NA,NA,3000,1,NA,NA,images/tutyellowplanet.jpg,images/tutalien4,images/tutalien3,images/tutrocket1,images/tutalien4,images/t.png,2,practice,true,2,common,1,2020-06-20T21:44:26Z,sub123
two-step-fixation,99,337306,0.0-61.0-2.12,FALSE,FALSE,FALSE,TRUE,"""event"",""trial"",""time""
""fullscreenenter"",""5"",""12319""
","
","
","""event"",""trial"",""time""
""fullscreenenter"",""5"",""12319""
","
",NA,images/earth.jpg,NA,NA,NA,NA,NA,NA,NA,NA,NA,NA,NA,NA,NA,fixation,NA,NA,NA,NA,NA,NA,sub123
d3-animate-choice,100,339574,0.0-61.0-0.13,FALSE,FALSE,FALSE,TRUE,"""event"",""trial"",""time""
""fullscreenenter"",""5"",""12319""
","
","
","""event"",""trial"",""time""
""fullscreenenter"",""5"",""12319""
","
",265.8700000029057,NA,49,NA,NA,3000,1,NA,NA,images/earth.jpg,images/tutrocket2,images/tutrocket1,null,images/tutrocket1,NA,1,practice,null,1,NA,NA,NA,sub123
d3-animate-choice,101,342238,0.0-61.0-1.13,FALSE,FALSE,FALSE,TRUE,"""event"",""trial"",""time""
""fullscreenenter"",""5"",""12319""
","
","
","""event"",""trial"",""time""
""fullscreenenter"",""5"",""12319""
","
",661.8500000040513,NA,48,NA,NA,3000,1,NA,NA,images/tutyellowplanet.jpg,images/tutalien4,images/tutalien3,images/tutrocket1,images/tutalien4,images/t.png,2,practice,true,2,common,1,2020-06-20T21:44:32Z,sub123
two-step-fixation,102,343241,0.0-61.0-2.13,FALSE,FALSE,FALSE,TRUE,"""event"",""trial"",""time""
""fullscreenenter"",""5"",""12319""
","
","
","""event"",""trial"",""time""
""fullscreenenter"",""5"",""12319""
","
",NA,images/earth.jpg,NA,NA,NA,NA,NA,NA,NA,NA,NA,NA,NA,NA,NA,fixation,NA,NA,NA,NA,NA,NA,sub123
d3-animate-choice,103,345512,0.0-61.0-0.14,FALSE,FALSE,FALSE,TRUE,"""event"",""trial"",""time""
""fullscreenenter"",""5"",""12319""
","
","
","""event"",""trial"",""time""
""fullscreenenter"",""5"",""12319""
","
",267.3899999936111,NA,49,NA,NA,3000,1,NA,NA,images/earth.jpg,images/tutrocket2,images/tutrocket1,null,images/tutrocket1,NA,1,practice,null,1,NA,NA,NA,sub123
d3-animate-choice,104,348120,0.0-61.0-1.14,FALSE,FALSE,FALSE,TRUE,"""event"",""trial"",""time""
""fullscreenenter"",""5"",""12319""
","
","
","""event"",""trial"",""time""
""fullscreenenter"",""5"",""12319""
","
",604.1049999912502,NA,49,NA,NA,3000,1,NA,NA,images/tutyellowplanet.jpg,images/tutalien4,images/tutalien3,images/tutrocket1,images/tutalien3,images/nothing.png,2,practice,true,1,common,0,2020-06-20T21:44:38Z,sub123
two-step-fixation,105,349122,0.0-61.0-2.14,FALSE,FALSE,FALSE,TRUE,"""event"",""trial"",""time""
""fullscreenenter"",""5"",""12319""
","
","
","""event"",""trial"",""time""
""fullscreenenter"",""5"",""12319""
","
",NA,images/earth.jpg,NA,NA,NA,NA,NA,NA,NA,NA,NA,NA,NA,NA,NA,fixation,NA,NA,NA,NA,NA,NA,sub123
d3-animate-choice,106,351447,0.0-61.0-0.15,FALSE,FALSE,FALSE,TRUE,"""event"",""trial"",""time""
""fullscreenenter"",""5"",""12319""
","
","
","""event"",""trial"",""time""
""fullscreenenter"",""5"",""12319""
","
",321.70500000938773,NA,49,NA,NA,3000,1,NA,NA,images/earth.jpg,images/tutrocket2,images/tutrocket1,null,images/tutrocket1,NA,1,practice,null,1,NA,NA,NA,sub123
d3-animate-choice,107,353727,0.0-61.0-1.15,FALSE,FALSE,FALSE,TRUE,"""event"",""trial"",""time""
""fullscreenenter"",""5"",""12319""
","
","
","""event"",""trial"",""time""
""fullscreenenter"",""5"",""12319""
","
",277.77500000956934,NA,48,NA,NA,3000,1,NA,NA,images/tutyellowplanet.jpg,images/tutalien4,images/tutalien3,images/tutrocket1,images/tutalien4,images/t.png,2,practice,true,2,common,1,2020-06-20T21:44:43Z,sub123
two-step-fixation,108,354731,0.0-61.0-2.15,FALSE,FALSE,FALSE,TRUE,"""event"",""trial"",""time""
""fullscreenenter"",""5"",""12319""
","
","
","""event"",""trial"",""time""
""fullscreenenter"",""5"",""12319""
","
",NA,images/earth.jpg,NA,NA,NA,NA,NA,NA,NA,NA,NA,NA,NA,NA,NA,fixation,NA,NA,NA,NA,NA,NA,sub123
d3-animate-choice,109,357111,0.0-61.0-0.16,FALSE,FALSE,FALSE,TRUE,"""event"",""trial"",""time""
""fullscreenenter"",""5"",""12319""
","
","
","""event"",""trial"",""time""
""fullscreenenter"",""5"",""12319""
","
",377.3849999997765,NA,49,NA,NA,3000,1,NA,NA,images/earth.jpg,images/tutrocket2,images/tutrocket1,null,images/tutrocket1,NA,1,practice,null,1,NA,NA,NA,sub123
d3-animate-choice,110,359384,0.0-61.0-1.16,FALSE,FALSE,FALSE,TRUE,"""event"",""trial"",""time""
""fullscreenenter"",""5"",""12319""
","
","
","""event"",""trial"",""time""
""fullscreenenter"",""5"",""12319""
","
",269.00499999464955,NA,48,NA,NA,3000,1,NA,NA,images/tutyellowplanet.jpg,images/tutalien4,images/tutalien3,images/tutrocket1,images/tutalien4,images/nothing.png,2,practice,true,2,common,0,2020-06-20T21:44:49Z,sub123
two-step-fixation,111,360385,0.0-61.0-2.16,FALSE,FALSE,FALSE,TRUE,"""event"",""trial"",""time""
""fullscreenenter"",""5"",""12319""
","
","
","""event"",""trial"",""time""
""fullscreenenter"",""5"",""12319""
","
",NA,images/earth.jpg,NA,NA,NA,NA,NA,NA,NA,NA,NA,NA,NA,NA,NA,fixation,NA,NA,NA,NA,NA,NA,sub123
d3-animate-choice,112,362696,0.0-61.0-0.17,FALSE,FALSE,FALSE,TRUE,"""event"",""trial"",""time""
""fullscreenenter"",""5"",""12319""
","
","
","""event"",""trial"",""time""
""fullscreenenter"",""5"",""12319""
","
",307.3300000105519,NA,49,NA,NA,3000,1,NA,NA,images/earth.jpg,images/tutrocket2,images/tutrocket1,null,images/tutrocket1,NA,1,practice,null,1,NA,NA,NA,sub123
d3-animate-choice,113,364960,0.0-61.0-1.17,FALSE,FALSE,FALSE,TRUE,"""event"",""trial"",""time""
""fullscreenenter"",""5"",""12319""
","
","
","""event"",""trial"",""time""
""fullscreenenter"",""5"",""12319""
","
",260.78499999130145,NA,48,NA,NA,3000,1,NA,NA,images/tutyellowplanet.jpg,images/tutalien4,images/tutalien3,images/tutrocket1,images/tutalien4,images/t.png,2,practice,true,2,common,1,2020-06-20T21:44:55Z,sub123
two-step-fixation,114,365962,0.0-61.0-2.17,FALSE,FALSE,FALSE,TRUE,"""event"",""trial"",""time""
""fullscreenenter"",""5"",""12319""
","
","
","""event"",""trial"",""time""
""fullscreenenter"",""5"",""12319""
","
",NA,images/earth.jpg,NA,NA,NA,NA,NA,NA,NA,NA,NA,NA,NA,NA,NA,fixation,NA,NA,NA,NA,NA,NA,sub123
d3-animate-choice,115,368248,0.0-61.0-0.18,FALSE,FALSE,FALSE,TRUE,"""event"",""trial"",""time""
""fullscreenenter"",""5"",""12319""
","
","
","""event"",""trial"",""time""
""fullscreenenter"",""5"",""12319""
","
",283.4699999948498,NA,49,NA,NA,3000,1,NA,NA,images/earth.jpg,images/tutrocket2,images/tutrocket1,null,images/tutrocket1,NA,1,practice,null,1,NA,NA,NA,sub123
d3-animate-choice,116,370562,0.0-61.0-1.18,FALSE,FALSE,FALSE,TRUE,"""event"",""trial"",""time""
""fullscreenenter"",""5"",""12319""
","
","
","""event"",""trial"",""time""
""fullscreenenter"",""5"",""12319""
","
",311.4950000017416,NA,48,NA,NA,3000,1,NA,NA,images/tutgreenplanet.jpg,images/tutalien2,images/tutalien1,images/tutrocket1,images/tutalien2,images/nothing.png,2,practice,false,2,rare,0,2020-06-20T21:45:00Z,sub123
two-step-fixation,117,371565,0.0-61.0-2.18,FALSE,FALSE,FALSE,TRUE,"""event"",""trial"",""time""
""fullscreenenter"",""5"",""12319""
","
","
","""event"",""trial"",""time""
""fullscreenenter"",""5"",""12319""
","
",NA,images/earth.jpg,NA,NA,NA,NA,NA,NA,NA,NA,NA,NA,NA,NA,NA,fixation,NA,NA,NA,NA,NA,NA,sub123
d3-animate-choice,118,373878,0.0-61.0-0.19,FALSE,FALSE,FALSE,TRUE,"""event"",""trial"",""time""
""fullscreenenter"",""5"",""12319""
","
","
","""event"",""trial"",""time""
""fullscreenenter"",""5"",""12319""
","
",311.62000000767875,NA,49,NA,NA,3000,1,NA,NA,images/earth.jpg,images/tutrocket2,images/tutrocket1,null,images/tutrocket1,NA,1,practice,null,1,NA,NA,NA,sub123
d3-animate-choice,119,376320,0.0-61.0-1.19,FALSE,FALSE,FALSE,TRUE,"""event"",""trial"",""time""
""fullscreenenter"",""5"",""12319""
","
","
","""event"",""trial"",""time""
""fullscreenenter"",""5"",""12319""
","
",438.3650000090711,NA,48,NA,NA,3000,1,NA,NA,images/tutyellowplanet.jpg,images/tutalien4,images/tutalien3,images/tutrocket1,images/tutalien4,images/nothing.png,2,practice,true,2,common,0,2020-06-20T21:45:06Z,sub123
two-step-fixation,120,377322,0.0-61.0-2.19,FALSE,FALSE,FALSE,TRUE,"""event"",""trial"",""time""
""fullscreenenter"",""5"",""12319""
","
","
","""event"",""trial"",""time""
""fullscreenenter"",""5"",""12319""
","
",NA,images/earth.jpg,NA,NA,NA,NA,NA,NA,NA,NA,NA,NA,NA,NA,NA,fixation,NA,NA,NA,NA,NA,NA,sub123
d3-instructions,121,380742,0.0-62.0,FALSE,FALSE,FALSE,TRUE,"""event"",""trial"",""time""
""fullscreenenter"",""5"",""12319""
","
","
","""event"",""trial"",""time""
""fullscreenenter"",""5"",""12319""
","
",NA,NA,NA,NA,NA,NA,NA,NA,NA,NA,NA,NA,NA,NA,NA,NA,NA,NA,NA,NA,NA,NA,sub123
audio-keyboard-response,122,383678,0.0-63.0,FALSE,FALSE,FALSE,TRUE,"""event"",""trial"",""time""
""fullscreenenter"",""5"",""12319""
","
","
","""event"",""trial"",""time""
""fullscreenenter"",""5"",""12319""
","
",2931,audio/instructions/treasure_feedback.wav,32,NA,NA,NA,NA,NA,NA,NA,NA,NA,NA,NA,NA,NA,NA,NA,NA,NA,NA,NA,sub123
d3-instructions,123,389390,0.0-64.0,FALSE,FALSE,FALSE,TRUE,"""event"",""trial"",""time""
""fullscreenenter"",""5"",""12319""
","
","
","""event"",""trial"",""time""
""fullscreenenter"",""5"",""12319""
","
",NA,NA,NA,NA,NA,NA,NA,NA,NA,NA,NA,NA,NA,NA,NA,NA,NA,NA,NA,NA,NA,NA,sub123
d3-instructions,124,394398,0.0-65.0,FALSE,FALSE,FALSE,TRUE,"""event"",""trial"",""time""
""fullscreenenter"",""5"",""12319""
","
","
","""event"",""trial"",""time""
""fullscreenenter"",""5"",""12319""
","
",NA,NA,NA,NA,NA,NA,NA,NA,NA,NA,NA,NA,NA,NA,NA,NA,NA,NA,NA,NA,NA,NA,sub123
d3-instructions,125,408582,0.0-66.0,FALSE,FALSE,FALSE,TRUE,"""event"",""trial"",""time""
""fullscreenenter"",""5"",""12319""
","
","
","""event"",""trial"",""time""
""fullscreenenter"",""5"",""12319""
","
",NA,NA,NA,NA,NA,NA,NA,NA,NA,NA,NA,NA,NA,NA,NA,NA,NA,NA,NA,NA,NA,NA,sub123
d3-instructions,126,414982,0.0-67.0,FALSE,FALSE,FALSE,TRUE,"""event"",""trial"",""time""
""fullscreenenter"",""5"",""12319""
","
","
","""event"",""trial"",""time""
""fullscreenenter"",""5"",""12319""
","
",NA,NA,NA,NA,NA,NA,NA,NA,NA,NA,NA,NA,NA,NA,NA,NA,NA,NA,NA,NA,NA,NA,sub123
d3-instructions,127,419062,0.0-68.0,FALSE,FALSE,FALSE,TRUE,"""event"",""trial"",""time""
""fullscreenenter"",""5"",""12319""
","
","
","""event"",""trial"",""time""
""fullscreenenter"",""5"",""12319""
","
",NA,NA,NA,NA,NA,NA,NA,NA,NA,NA,NA,NA,NA,NA,NA,NA,NA,NA,NA,NA,NA,NA,sub123
instructions-quiz,128,421677,0.0-69.0,FALSE,FALSE,FALSE,TRUE,"""event"",""trial"",""time""
""fullscreenenter"",""5"",""12319""
","
","
","""event"",""trial"",""time""
""fullscreenenter"",""5"",""12319""
","
",2614.1050000005635,audio/quiz/Q1_Prompt.wav,NA,1,NA,NA,NA,NA,NA,NA,NA,NA,NA,NA,NA,NA,NA,NA,NA,NA,NA,NA,sub123
audio-keyboard-response,129,430841,0.0-70.0,FALSE,FALSE,FALSE,TRUE,"""event"",""trial"",""time""
""fullscreenenter"",""5"",""12319""
","
","
","""event"",""trial"",""time""
""fullscreenenter"",""5"",""12319""
","
",null,audio/quiz/Q1_Correct.wav,null,NA,NA,NA,NA,NA,NA,NA,NA,NA,NA,NA,NA,NA,NA,NA,NA,NA,NA,NA,sub123
instructions-quiz,130,433821,0.0-71.0,FALSE,FALSE,FALSE,TRUE,"""event"",""trial"",""time""
""fullscreenenter"",""5"",""12319""
","
","
","""event"",""trial"",""time""
""fullscreenenter"",""5"",""12319""
","
",2978.950000004261,audio/quiz/Q2_Prompt.wav,NA,0,NA,NA,NA,NA,NA,NA,NA,NA,NA,NA,NA,NA,NA,NA,NA,NA,NA,NA,sub123
audio-keyboard-response,131,446691,0.0-72.0,FALSE,FALSE,FALSE,TRUE,"""event"",""trial"",""time""
""fullscreenenter"",""5"",""12319""
","
","
","""event"",""trial"",""time""
""fullscreenenter"",""5"",""12319""
","
",null,audio/quiz/Q2_Correct.wav,null,NA,NA,NA,NA,NA,NA,NA,NA,NA,NA,NA,NA,NA,NA,NA,NA,NA,NA,NA,sub123
instructions-quiz,132,449821,0.0-73.0,FALSE,FALSE,FALSE,TRUE,"""event"",""trial"",""time""
""fullscreenenter"",""5"",""12319""
","
","
","""event"",""trial"",""time""
""fullscreenenter"",""5"",""12319""
","
",3129.335000005085,audio/quiz/Q3_Prompt.wav,NA,1,NA,NA,NA,NA,NA,NA,NA,NA,NA,NA,NA,NA,NA,NA,NA,NA,NA,NA,sub123
audio-keyboard-response,133,455621,0.0-74.0,FALSE,FALSE,FALSE,TRUE,"""event"",""trial"",""time""
""fullscreenenter"",""5"",""12319""
","
","
","""event"",""trial"",""time""
""fullscreenenter"",""5"",""12319""
","
",null,audio/quiz/Q3_Correct.wav,null,NA,NA,NA,NA,NA,NA,NA,NA,NA,NA,NA,NA,NA,NA,NA,NA,NA,NA,NA,sub123
d3-instructions,134,459701,0.0-75.0,FALSE,FALSE,FALSE,TRUE,"""event"",""trial"",""time""
""fullscreenenter"",""5"",""12319""
","
","
","""event"",""trial"",""time""
""fullscreenenter"",""5"",""12319""
","
",NA,NA,NA,NA,NA,NA,NA,NA,NA,NA,NA,NA,NA,NA,NA,NA,NA,NA,NA,NA,NA,NA,sub123
d3-animate-choice,135,462519,0.0-76.0-0.0,FALSE,FALSE,FALSE,TRUE,"""event"",""trial"",""time""
""fullscreenenter"",""5"",""12319""
","
","
","""event"",""trial"",""time""
""fullscreenenter"",""5"",""12319""
","
",815.6650000018999,NA,49,NA,NA,3000,1,NA,NA,images/earth.jpg,images/rocket1,images/rocket2,null,images/rocket2,NA,1,real,null,1,NA,NA,NA,sub123
d3-animate-choice,136,465263,0.0-76.0-1.0,FALSE,FALSE,FALSE,TRUE,"""event"",""trial"",""time""
""fullscreenenter"",""5"",""12319""
","
","
","""event"",""trial"",""time""
""fullscreenenter"",""5"",""12319""
","
",741.2949999998091,NA,49,NA,NA,3000,1,NA,NA,images/redplanet1.jpg,images/alien2,images/alien1,images/rocket2,images/alien1,images/nothing.png,2,real,true,1,common,0,2020-06-20T21:46:35Z,sub123
two-step-fixation,137,466265,0.0-76.0-2.0,FALSE,FALSE,FALSE,TRUE,"""event"",""trial"",""time""
""fullscreenenter"",""5"",""12319""
","
","
","""event"",""trial"",""time""
""fullscreenenter"",""5"",""12319""
","
",NA,images/earth.jpg,NA,NA,NA,NA,NA,NA,NA,NA,NA,NA,NA,NA,NA,fixation,NA,NA,NA,NA,NA,NA,sub123
d3-animate-choice,138,468639,0.0-76.0-0.1,FALSE,FALSE,FALSE,TRUE,"""event"",""trial"",""time""
""fullscreenenter"",""5"",""12319""
","
","
","""event"",""trial"",""time""
""fullscreenenter"",""5"",""12319""
","
",371.02500000037253,NA,49,NA,NA,3000,1,NA,NA,images/earth.jpg,images/rocket1,images/rocket2,null,images/rocket2,NA,1,real,null,1,NA,NA,NA,sub123
d3-animate-choice,139,470960,0.0-76.0-1.1,FALSE,FALSE,FALSE,TRUE,"""event"",""trial"",""time""
""fullscreenenter"",""5"",""12319""
","
","
","""event"",""trial"",""time""
""fullscreenenter"",""5"",""12319""
","
",317.53000000026077,NA,48,NA,NA,3000,1,NA,NA,images/redplanet1.jpg,images/alien2,images/alien1,images/rocket2,images/alien2,images/t.png,2,real,true,2,common,1,2020-06-20T21:46:41Z,sub123
two-step-fixation,140,471962,0.0-76.0-2.1,FALSE,FALSE,FALSE,TRUE,"""event"",""trial"",""time""
""fullscreenenter"",""5"",""12319""
","
","
","""event"",""trial"",""time""
""fullscreenenter"",""5"",""12319""
","
",NA,images/earth.jpg,NA,NA,NA,NA,NA,NA,NA,NA,NA,NA,NA,NA,NA,fixation,NA,NA,NA,NA,NA,NA,sub123
d3-animate-choice,141,474258,0.0-76.0-0.2,FALSE,FALSE,FALSE,TRUE,"""event"",""trial"",""time""
""fullscreenenter"",""5"",""12319""
","
","
","""event"",""trial"",""time""
""fullscreenenter"",""5"",""12319""
","
",293.36999999941327,NA,49,NA,NA,3000,1,NA,NA,images/earth.jpg,images/rocket1,images/rocket2,null,images/rocket2,NA,1,real,null,1,NA,NA,NA,sub123
d3-animate-choice,142,476671,0.0-76.0-1.2,FALSE,FALSE,FALSE,TRUE,"""event"",""trial"",""time""
""fullscreenenter"",""5"",""12319""
","
","
","""event"",""trial"",""time""
""fullscreenenter"",""5"",""12319""
","
",410.70000000763685,NA,48,NA,NA,3000,1,NA,NA,images/purpleplanet.jpg,images/alien4,images/alien3,images/rocket2,images/alien4,images/t.png,2,real,false,2,rare,1,2020-06-20T21:46:46Z,sub123
two-step-fixation,143,477673,0.0-76.0-2.2,FALSE,FALSE,FALSE,TRUE,"""event"",""trial"",""time""
""fullscreenenter"",""5"",""12319""
","
","
","""event"",""trial"",""time""
""fullscreenenter"",""5"",""12319""
","
",NA,images/earth.jpg,NA,NA,NA,NA,NA,NA,NA,NA,NA,NA,NA,NA,NA,fixation,NA,NA,NA,NA,NA,NA,sub123
d3-animate-choice,144,479958,0.0-76.0-0.3,FALSE,FALSE,FALSE,TRUE,"""event"",""trial"",""time""
""fullscreenenter"",""5"",""12319""
","
","
","""event"",""trial"",""time""
""fullscreenenter"",""5"",""12319""
","
",283.21999999752734,NA,49,NA,NA,3000,1,NA,NA,images/earth.jpg,images/rocket1,images/rocket2,null,images/rocket2,NA,1,real,null,1,NA,NA,NA,sub123
d3-animate-choice,145,482536,0.0-76.0-1.3,FALSE,FALSE,FALSE,TRUE,"""event"",""trial"",""time""
""fullscreenenter"",""5"",""12319""
","
","
","""event"",""trial"",""time""
""fullscreenenter"",""5"",""12319""
","
",574.640000006184,NA,48,NA,NA,3000,1,NA,NA,images/redplanet1.jpg,images/alien2,images/alien1,images/rocket2,images/alien2,images/t.png,2,real,true,2,common,1,2020-06-20T21:46:52Z,sub123
two-step-fixation,146,483539,0.0-76.0-2.3,FALSE,FALSE,FALSE,TRUE,"""event"",""trial"",""time""
""fullscreenenter"",""5"",""12319""
","
","
","""event"",""trial"",""time""
""fullscreenenter"",""5"",""12319""
","
",NA,images/earth.jpg,NA,NA,NA,NA,NA,NA,NA,NA,NA,NA,NA,NA,NA,fixation,NA,NA,NA,NA,NA,NA,sub123
d3-animate-choice,147,485801,0.0-76.0-0.4,FALSE,FALSE,FALSE,TRUE,"""event"",""trial"",""time""
""fullscreenenter"",""5"",""12319""
","
","
","""event"",""trial"",""time""
""fullscreenenter"",""5"",""12319""
","
",258.1300000019837,NA,49,NA,NA,3000,1,NA,NA,images/earth.jpg,images/rocket1,images/rocket2,null,images/rocket2,NA,1,real,null,1,NA,NA,NA,sub123
d3-animate-choice,148,488343,0.0-76.0-1.4,FALSE,FALSE,FALSE,TRUE,"""event"",""trial"",""time""
""fullscreenenter"",""5"",""12319""
","
","
","""event"",""trial"",""time""
""fullscreenenter"",""5"",""12319""
","
",539.8999999888474,NA,48,NA,NA,3000,1,NA,NA,images/redplanet1.jpg,images/alien2,images/alien1,images/rocket2,images/alien2,images/nothing.png,2,real,true,2,common,0,2020-06-20T21:46:58Z,sub123
two-step-fixation,149,489347,0.0-76.0-2.4,FALSE,FALSE,FALSE,TRUE,"""event"",""trial"",""time""
""fullscreenenter"",""5"",""12319""
","
","
","""event"",""trial"",""time""
""fullscreenenter"",""5"",""12319""
","
",NA,images/earth.jpg,NA,NA,NA,NA,NA,NA,NA,NA,NA,NA,NA,NA,NA,fixation,NA,NA,NA,NA,NA,NA,sub123
d3-animate-choice,150,491574,0.0-76.0-0.5,FALSE,FALSE,FALSE,TRUE,"""event"",""trial"",""time""
""fullscreenenter"",""5"",""12319""
","
","
","""event"",""trial"",""time""
""fullscreenenter"",""5"",""12319""
","
",225.34499999892432,NA,49,NA,NA,3000,1,NA,NA,images/earth.jpg,images/rocket1,images/rocket2,null,images/rocket2,NA,1,real,null,1,NA,NA,NA,sub123
d3-animate-choice,151,494295,0.0-76.0-1.5,FALSE,FALSE,FALSE,TRUE,"""event"",""trial"",""time""
""fullscreenenter"",""5"",""12319""
","
","
","""event"",""trial"",""time""
""fullscreenenter"",""5"",""12319""
","
",718.3400000067195,NA,48,NA,NA,3000,1,NA,NA,images/redplanet1.jpg,images/alien2,images/alien1,images/rocket2,images/alien2,images/nothing.png,2,real,true,2,common,0,2020-06-20T21:47:04Z,sub123
two-step-fixation,152,495297,0.0-76.0-2.5,FALSE,FALSE,FALSE,TRUE,"""event"",""trial"",""time""
""fullscreenenter"",""5"",""12319""
","
","
","""event"",""trial"",""time""
""fullscreenenter"",""5"",""12319""
","
",NA,images/earth.jpg,NA,NA,NA,NA,NA,NA,NA,NA,NA,NA,NA,NA,NA,fixation,NA,NA,NA,NA,NA,NA,sub123
d3-animate-choice,153,497598,0.0-76.0-0.6,FALSE,FALSE,FALSE,TRUE,"""event"",""trial"",""time""
""fullscreenenter"",""5"",""12319""
","
","
","""event"",""trial"",""time""
""fullscreenenter"",""5"",""12319""
","
",298.8550000009127,NA,49,NA,NA,3000,1,NA,NA,images/earth.jpg,images/rocket1,images/rocket2,null,images/rocket2,NA,1,real,null,1,NA,NA,NA,sub123
d3-animate-choice,154,500464,0.0-76.0-1.6,FALSE,FALSE,FALSE,TRUE,"""event"",""trial"",""time""
""fullscreenenter"",""5"",""12319""
","
","
","""event"",""trial"",""time""
""fullscreenenter"",""5"",""12319""
","
",862.6250000088476,NA,49,NA,NA,3000,1,NA,NA,images/purpleplanet.jpg,images/alien4,images/alien3,images/rocket2,images/alien3,images/t.png,2,real,false,1,rare,1,2020-06-20T21:47:10Z,sub123
two-step-fixation,155,501467,0.0-76.0-2.6,FALSE,FALSE,FALSE,TRUE,"""event"",""trial"",""time""
""fullscreenenter"",""5"",""12319""
","
","
","""event"",""trial"",""time""
""fullscreenenter"",""5"",""12319""
","
",NA,images/earth.jpg,NA,NA,NA,NA,NA,NA,NA,NA,NA,NA,NA,NA,NA,fixation,NA,NA,NA,NA,NA,NA,sub123
d3-animate-choice,156,503743,0.0-76.0-0.7,FALSE,FALSE,FALSE,TRUE,"""event"",""trial"",""time""
""fullscreenenter"",""5"",""12319""
","
","
","""event"",""trial"",""time""
""fullscreenenter"",""5"",""12319""
","
",273.44999999331776,NA,49,NA,NA,3000,1,NA,NA,images/earth.jpg,images/rocket1,images/rocket2,null,images/rocket2,NA,1,real,null,1,NA,NA,NA,sub123
d3-animate-choice,157,506127,0.0-76.0-1.7,FALSE,FALSE,FALSE,TRUE,"""event"",""trial"",""time""
""fullscreenenter"",""5"",""12319""
","
","
","""event"",""trial"",""time""
""fullscreenenter"",""5"",""12319""
","
",381.215000001248,NA,49,NA,NA,3000,1,NA,NA,images/redplanet1.jpg,images/alien2,images/alien1,images/rocket2,images/alien1,images/t.png,2,real,true,1,common,1,2020-06-20T21:47:16Z,sub123
two-step-fixation,158,507129,0.0-76.0-2.7,FALSE,FALSE,FALSE,TRUE,"""event"",""trial"",""time""
""fullscreenenter"",""5"",""12319""
","
","
","""event"",""trial"",""time""
""fullscreenenter"",""5"",""12319""
","
",NA,images/earth.jpg,NA,NA,NA,NA,NA,NA,NA,NA,NA,NA,NA,NA,NA,fixation,NA,NA,NA,NA,NA,NA,sub123
d3-animate-choice,159,509392,0.0-76.0-0.8,FALSE,FALSE,FALSE,TRUE,"""event"",""trial"",""time""
""fullscreenenter"",""5"",""12319""
","
","
","""event"",""trial"",""time""
""fullscreenenter"",""5"",""12319""
","
",259.96500000474043,NA,49,NA,NA,3000,1,NA,NA,images/earth.jpg,images/rocket1,images/rocket2,null,images/rocket2,NA,1,real,null,1,NA,NA,NA,sub123
d3-animate-choice,160,511911,0.0-76.0-1.8,FALSE,FALSE,FALSE,TRUE,"""event"",""trial"",""time""
""fullscreenenter"",""5"",""12319""
","
","
","""event"",""trial"",""time""
""fullscreenenter"",""5"",""12319""
","
",516.3949999987381,NA,49,NA,NA,3000,1,NA,NA,images/redplanet1.jpg,images/alien2,images/alien1,images/rocket2,images/alien1,images/t.png,2,real,true,1,common,1,2020-06-20T21:47:21Z,sub123
two-step-fixation,161,512913,0.0-76.0-2.8,FALSE,FALSE,FALSE,TRUE,"""event"",""trial"",""time""
""fullscreenenter"",""5"",""12319""
","
","
","""event"",""trial"",""time""
""fullscreenenter"",""5"",""12319""
","
",NA,images/earth.jpg,NA,NA,NA,NA,NA,NA,NA,NA,NA,NA,NA,NA,NA,fixation,NA,NA,NA,NA,NA,NA,sub123
d3-animate-choice,162,515167,0.0-76.0-0.9,FALSE,FALSE,FALSE,TRUE,"""event"",""trial"",""time""
""fullscreenenter"",""5"",""12319""
","
","
","""event"",""trial"",""time""
""fullscreenenter"",""5"",""12319""
","
",250.99000000045635,NA,49,NA,NA,3000,1,NA,NA,images/earth.jpg,images/rocket1,images/rocket2,null,images/rocket2,NA,1,real,null,1,NA,NA,NA,sub123
d3-animate-choice,163,517870,0.0-76.0-1.9,FALSE,FALSE,FALSE,TRUE,"""event"",""trial"",""time""
""fullscreenenter"",""5"",""12319""
","
","
","""event"",""trial"",""time""
""fullscreenenter"",""5"",""12319""
","
",701.7500000074506,NA,48,NA,NA,3000,1,NA,NA,images/purpleplanet.jpg,images/alien4,images/alien3,images/rocket2,images/alien4,images/t.png,2,real,false,2,rare,1,2020-06-20T21:47:27Z,sub123
two-step-fixation,164,518872,0.0-76.0-2.9,FALSE,FALSE,FALSE,TRUE,"""event"",""trial"",""time""
""fullscreenenter"",""5"",""12319""
","
","
","""event"",""trial"",""time""
""fullscreenenter"",""5"",""12319""
","
",NA,images/earth.jpg,NA,NA,NA,NA,NA,NA,NA,NA,NA,NA,NA,NA,NA,fixation,NA,NA,NA,NA,NA,NA,sub123
d3-animate-choice,165,521223,0.0-76.0-0.10,FALSE,FALSE,FALSE,TRUE,"""event"",""trial"",""time""
""fullscreenenter"",""5"",""12319""
","
","
","""event"",""trial"",""time""
""fullscreenenter"",""5"",""12319""
","
",348.44499999599066,NA,49,NA,NA,3000,1,NA,NA,images/earth.jpg,images/rocket1,images/rocket2,null,images/rocket2,NA,1,real,null,1,NA,NA,NA,sub123
d3-animate-choice,166,523575,0.0-76.0-1.10,FALSE,FALSE,FALSE,TRUE,"""event"",""trial"",""time""
""fullscreenenter"",""5"",""12319""
","
","
","""event"",""trial"",""time""
""fullscreenenter"",""5"",""12319""
","
",349.2649999971036,NA,49,NA,NA,3000,1,NA,NA,images/redplanet1.jpg,images/alien2,images/alien1,images/rocket2,images/alien1,images/nothing.png,2,real,true,1,common,0,2020-06-20T21:47:33Z,sub123
two-step-fixation,167,524577,0.0-76.0-2.10,FALSE,FALSE,FALSE,TRUE,"""event"",""trial"",""time""
""fullscreenenter"",""5"",""12319""
","
","
","""event"",""trial"",""time""
""fullscreenenter"",""5"",""12319""
","
",NA,images/earth.jpg,NA,NA,NA,NA,NA,NA,NA,NA,NA,NA,NA,NA,NA,fixation,NA,NA,NA,NA,NA,NA,sub123
d3-animate-choice,168,526774,0.0-76.0-0.11,FALSE,FALSE,FALSE,TRUE,"""event"",""trial"",""time""
""fullscreenenter"",""5"",""12319""
","
","
","""event"",""trial"",""time""
""fullscreenenter"",""5"",""12319""
","
",194.7950000030687,NA,49,NA,NA,3000,1,NA,NA,images/earth.jpg,images/rocket1,images/rocket2,null,images/rocket2,NA,1,real,null,1,NA,NA,NA,sub123
d3-animate-choice,169,530248,0.0-76.0-1.11,FALSE,FALSE,FALSE,TRUE,"""event"",""trial"",""time""
""fullscreenenter"",""5"",""12319""
","
","
","""event"",""trial"",""time""
""fullscreenenter"",""5"",""12319""
","
",1470.354999997653,NA,49,NA,NA,3000,1,NA,NA,images/purpleplanet.jpg,images/alien4,images/alien3,images/rocket2,images/alien3,images/nothing.png,2,real,false,1,rare,0,2020-06-20T21:47:40Z,sub123
two-step-fixation,170,531251,0.0-76.0-2.11,FALSE,FALSE,FALSE,TRUE,"""event"",""trial"",""time""
""fullscreenenter"",""5"",""12319""
","
","
","""event"",""trial"",""time""
""fullscreenenter"",""5"",""12319""
","
",NA,images/earth.jpg,NA,NA,NA,NA,NA,NA,NA,NA,NA,NA,NA,NA,NA,fixation,NA,NA,NA,NA,NA,NA,sub123
d3-animate-choice,171,533567,0.0-76.0-0.12,FALSE,FALSE,FALSE,TRUE,"""event"",""trial"",""time""
""fullscreenenter"",""5"",""12319""
","
","
","""event"",""trial"",""time""
""fullscreenenter"",""5"",""12319""
","
",314.41500000073574,NA,49,NA,NA,3000,1,NA,NA,images/earth.jpg,images/rocket1,images/rocket2,null,images/rocket2,NA,1,real,null,1,NA,NA,NA,sub123
d3-animate-choice,172,536543,0.0-76.0-1.12,FALSE,FALSE,FALSE,TRUE,"""event"",""trial"",""time""
""fullscreenenter"",""5"",""12319""
","
","
","""event"",""trial"",""time""
""fullscreenenter"",""5"",""12319""
","
",972.8150000009919,NA,49,NA,NA,3000,1,NA,NA,images/redplanet1.jpg,images/alien2,images/alien1,images/rocket2,images/alien1,images/t.png,2,real,true,1,common,1,2020-06-20T21:47:46Z,sub123
two-step-fixation,173,537546,0.0-76.0-2.12,FALSE,FALSE,FALSE,TRUE,"""event"",""trial"",""time""
""fullscreenenter"",""5"",""12319""
","
","
","""event"",""trial"",""time""
""fullscreenenter"",""5"",""12319""
","
",NA,images/earth.jpg,NA,NA,NA,NA,NA,NA,NA,NA,NA,NA,NA,NA,NA,fixation,NA,NA,NA,NA,NA,NA,sub123
d3-animate-choice,174,539815,0.0-76.0-0.13,FALSE,FALSE,FALSE,TRUE,"""event"",""trial"",""time""
""fullscreenenter"",""5"",""12319""
","
","
","""event"",""trial"",""time""
""fullscreenenter"",""5"",""12319""
","
",265.95000000088476,NA,49,NA,NA,3000,1,NA,NA,images/earth.jpg,images/rocket1,images/rocket2,null,images/rocket2,NA,1,real,null,1,NA,NA,NA,sub123
d3-animate-choice,175,542399,0.0-76.0-1.13,FALSE,FALSE,FALSE,TRUE,"""event"",""trial"",""time""
""fullscreenenter"",""5"",""12319""
","
","
","""event"",""trial"",""time""
""fullscreenenter"",""5"",""12319""
","
",581.7999999999302,NA,49,NA,NA,3000,1,NA,NA,images/redplanet1.jpg,images/alien2,images/alien1,images/rocket2,images/alien1,images/nothing.png,2,real,true,1,common,0,2020-06-20T21:47:52Z,sub123
two-step-fixation,176,543401,0.0-76.0-2.13,FALSE,FALSE,FALSE,TRUE,"""event"",""trial"",""time""
""fullscreenenter"",""5"",""12319""
","
","
","""event"",""trial"",""time""
""fullscreenenter"",""5"",""12319""
","
",NA,images/earth.jpg,NA,NA,NA,NA,NA,NA,NA,NA,NA,NA,NA,NA,NA,fixation,NA,NA,NA,NA,NA,NA,sub123
d3-animate-choice,177,545663,0.0-76.0-0.14,FALSE,FALSE,FALSE,TRUE,"""event"",""trial"",""time""
""fullscreenenter"",""5"",""12319""
","
","
","""event"",""trial"",""time""
""fullscreenenter"",""5"",""12319""
","
",260.534999993979,NA,49,NA,NA,3000,1,NA,NA,images/earth.jpg,images/rocket1,images/rocket2,null,images/rocket2,NA,1,real,null,1,NA,NA,NA,sub123
d3-animate-choice,178,548719,0.0-76.0-1.14,FALSE,FALSE,FALSE,TRUE,"""event"",""trial"",""time""
""fullscreenenter"",""5"",""12319""
","
","
","""event"",""trial"",""time""
""fullscreenenter"",""5"",""12319""
","
",1053.2550000061747,NA,49,NA,NA,3000,1,NA,NA,images/purpleplanet.jpg,images/alien4,images/alien3,images/rocket2,images/alien3,images/nothing.png,2,real,false,1,rare,0,2020-06-20T21:47:58Z,sub123
two-step-fixation,179,549722,0.0-76.0-2.14,FALSE,FALSE,FALSE,TRUE,"""event"",""trial"",""time""
""fullscreenenter"",""5"",""12319""
","
","
","""event"",""trial"",""time""
""fullscreenenter"",""5"",""12319""
","
",NA,images/earth.jpg,NA,NA,NA,NA,NA,NA,NA,NA,NA,NA,NA,NA,NA,fixation,NA,NA,NA,NA,NA,NA,sub123
d3-animate-choice,180,552032,0.0-76.0-0.15,FALSE,FALSE,FALSE,TRUE,"""event"",""trial"",""time""
""fullscreenenter"",""5"",""12319""
","
","
","""event"",""trial"",""time""
""fullscreenenter"",""5"",""12319""
","
",306.0700000060024,NA,49,NA,NA,3000,1,NA,NA,images/earth.jpg,images/rocket1,images/rocket2,null,images/rocket2,NA,1,real,null,1,NA,NA,NA,sub123
d3-animate-choice,181,554743,0.0-76.0-1.15,FALSE,FALSE,FALSE,TRUE,"""event"",""trial"",""time""
""fullscreenenter"",""5"",""12319""
","
","
","""event"",""trial"",""time""
""fullscreenenter"",""5"",""12319""
","
",708.6399999971036,NA,48,NA,NA,3000,1,NA,NA,images/redplanet1.jpg,images/alien2,images/alien1,images/rocket2,images/alien2,images/nothing.png,2,real,true,2,common,0,2020-06-20T21:48:04Z,sub123
two-step-fixation,182,555747,0.0-76.0-2.15,FALSE,FALSE,FALSE,TRUE,"""event"",""trial"",""time""
""fullscreenenter"",""5"",""12319""
","
","
","""event"",""trial"",""time""
""fullscreenenter"",""5"",""12319""
","
",NA,images/earth.jpg,NA,NA,NA,NA,NA,NA,NA,NA,NA,NA,NA,NA,NA,fixation,NA,NA,NA,NA,NA,NA,sub123
d3-animate-choice,183,558095,0.0-76.0-0.16,FALSE,FALSE,FALSE,TRUE,"""event"",""trial"",""time""
""fullscreenenter"",""5"",""12319""
","
","
","""event"",""trial"",""time""
""fullscreenenter"",""5"",""12319""
","
",345.57499999937136,NA,49,NA,NA,3000,1,NA,NA,images/earth.jpg,images/rocket1,images/rocket2,null,images/rocket2,NA,1,real,null,1,NA,NA,NA,sub123
d3-animate-choice,184,560599,0.0-76.0-1.16,FALSE,FALSE,FALSE,TRUE,"""event"",""trial"",""time""
""fullscreenenter"",""5"",""12319""
","
","
","""event"",""trial"",""time""
""fullscreenenter"",""5"",""12319""
","
",501.2350000033621,NA,49,NA,NA,3000,1,NA,NA,images/redplanet1.jpg,images/alien2,images/alien1,images/rocket2,images/alien1,images/nothing.png,2,real,true,1,common,0,2020-06-20T21:48:10Z,sub123
two-step-fixation,185,561601,0.0-76.0-2.16,FALSE,FALSE,FALSE,TRUE,"""event"",""trial"",""time""
""fullscreenenter"",""5"",""12319""
","
","
","""event"",""trial"",""time""
""fullscreenenter"",""5"",""12319""
","
",NA,images/earth.jpg,NA,NA,NA,NA,NA,NA,NA,NA,NA,NA,NA,NA,NA,fixation,NA,NA,NA,NA,NA,NA,sub123
d3-animate-choice,186,563886,0.0-76.0-0.17,FALSE,FALSE,FALSE,TRUE,"""event"",""trial"",""time""
""fullscreenenter"",""5"",""12319""
","
","
","""event"",""trial"",""time""
""fullscreenenter"",""5"",""12319""
","
",282.76000000187196,NA,48,NA,NA,3000,1,NA,NA,images/earth.jpg,images/rocket1,images/rocket2,null,images/rocket1,NA,1,real,null,2,NA,NA,NA,sub123
d3-animate-choice,187,566376,0.0-76.0-1.17,FALSE,FALSE,FALSE,TRUE,"""event"",""trial"",""time""
""fullscreenenter"",""5"",""12319""
","
","
","""event"",""trial"",""time""
""fullscreenenter"",""5"",""12319""
","
",486.5099999879021,NA,48,NA,NA,3000,1,NA,NA,images/purpleplanet.jpg,images/alien4,images/alien3,images/rocket1,images/alien4,images/nothing.png,2,real,true,2,common,0,2020-06-20T21:48:16Z,sub123
two-step-fixation,188,567377,0.0-76.0-2.17,FALSE,FALSE,FALSE,TRUE,"""event"",""trial"",""time""
""fullscreenenter"",""5"",""12319""
","
","
","""event"",""trial"",""time""
""fullscreenenter"",""5"",""12319""
","
",NA,images/earth.jpg,NA,NA,NA,NA,NA,NA,NA,NA,NA,NA,NA,NA,NA,fixation,NA,NA,NA,NA,NA,NA,sub123
d3-animate-choice,189,569656,0.0-76.0-0.18,FALSE,FALSE,FALSE,TRUE,"""event"",""trial"",""time""
""fullscreenenter"",""5"",""12319""
","
","
","""event"",""trial"",""time""
""fullscreenenter"",""5"",""12319""
","
",276.26499999314547,NA,48,NA,NA,3000,1,NA,NA,images/earth.jpg,images/rocket1,images/rocket2,null,images/rocket1,NA,1,real,null,2,NA,NA,NA,sub123
d3-animate-choice,190,572440,0.0-76.0-1.18,FALSE,FALSE,FALSE,TRUE,"""event"",""trial"",""time""
""fullscreenenter"",""5"",""12319""
","
","
","""event"",""trial"",""time""
""fullscreenenter"",""5"",""12319""
","
",781.6149999998743,NA,48,NA,NA,3000,1,NA,NA,images/purpleplanet.jpg,images/alien4,images/alien3,images/rocket1,images/alien4,images/t.png,2,real,true,2,common,1,2020-06-20T21:48:22Z,sub123
two-step-fixation,191,573444,0.0-76.0-2.18,FALSE,FALSE,FALSE,TRUE,"""event"",""trial"",""time""
""fullscreenenter"",""5"",""12319""
","
","
","""event"",""trial"",""time""
""fullscreenenter"",""5"",""12319""
","
",NA,images/earth.jpg,NA,NA,NA,NA,NA,NA,NA,NA,NA,NA,NA,NA,NA,fixation,NA,NA,NA,NA,NA,NA,sub123
d3-animate-choice,192,575726,0.0-76.0-0.19,FALSE,FALSE,FALSE,TRUE,"""event"",""trial"",""time""
""fullscreenenter"",""5"",""12319""
","
","
","""event"",""trial"",""time""
""fullscreenenter"",""5"",""12319""
","
",280.74000000196975,NA,48,NA,NA,3000,1,NA,NA,images/earth.jpg,images/rocket1,images/rocket2,null,images/rocket1,NA,1,real,null,2,NA,NA,NA,sub123
d3-animate-choice,193,578479,0.0-76.0-1.19,FALSE,FALSE,FALSE,TRUE,"""event"",""trial"",""time""
""fullscreenenter"",""5"",""12319""
","
","
","""event"",""trial"",""time""
""fullscreenenter"",""5"",""12319""
","
",750.2749999985099,NA,48,NA,NA,3000,1,NA,NA,images/redplanet1.jpg,images/alien2,images/alien1,images/rocket1,images/alien2,images/t.png,2,real,false,2,rare,1,2020-06-20T21:48:28Z,sub123
two-step-fixation,194,579481,0.0-76.0-2.19,FALSE,FALSE,FALSE,TRUE,"""event"",""trial"",""time""
""fullscreenenter"",""5"",""12319""
","
","
","""event"",""trial"",""time""
""fullscreenenter"",""5"",""12319""
","
",NA,images/earth.jpg,NA,NA,NA,NA,NA,NA,NA,NA,NA,NA,NA,NA,NA,fixation,NA,NA,NA,NA,NA,NA,sub123
d3-animate-choice,195,581808,0.0-76.0-0.20,FALSE,FALSE,FALSE,TRUE,"""event"",""trial"",""time""
""fullscreenenter"",""5"",""12319""
","
","
","""event"",""trial"",""time""
""fullscreenenter"",""5"",""12319""
","
",324.11499999579974,NA,48,NA,NA,3000,1,NA,NA,images/earth.jpg,images/rocket1,images/rocket2,null,images/rocket1,NA,1,real,null,2,NA,NA,NA,sub123
d3-animate-choice,196,584487,0.0-76.0-1.20,FALSE,FALSE,FALSE,TRUE,"""event"",""trial"",""time""
""fullscreenenter"",""5"",""12319""
","
","
","""event"",""trial"",""time""
""fullscreenenter"",""5"",""12319""
","
",675.9750000055647,NA,49,NA,NA,3000,1,NA,NA,images/redplanet1.jpg,images/alien2,images/alien1,images/rocket1,images/alien1,images/t.png,2,real,false,1,rare,1,2020-06-20T21:48:34Z,sub123
two-step-fixation,197,585491,0.0-76.0-2.20,FALSE,FALSE,FALSE,TRUE,"""event"",""trial"",""time""
""fullscreenenter"",""5"",""12319""
","
","
","""event"",""trial"",""time""
""fullscreenenter"",""5"",""12319""
","
",NA,images/earth.jpg,NA,NA,NA,NA,NA,NA,NA,NA,NA,NA,NA,NA,NA,fixation,NA,NA,NA,NA,NA,NA,sub123
d3-animate-choice,198,587958,0.0-76.0-0.21,FALSE,FALSE,FALSE,TRUE,"""event"",""trial"",""time""
""fullscreenenter"",""5"",""12319""
","
","
","""event"",""trial"",""time""
""fullscreenenter"",""5"",""12319""
","
",465.20000000600703,NA,48,NA,NA,3000,1,NA,NA,images/earth.jpg,images/rocket1,images/rocket2,null,images/rocket1,NA,1,real,null,2,NA,NA,NA,sub123
d3-animate-choice,199,590335,0.0-76.0-1.21,FALSE,FALSE,FALSE,TRUE,"""event"",""trial"",""time""
""fullscreenenter"",""5"",""12319""
","
","
","""event"",""trial"",""time""
""fullscreenenter"",""5"",""12319""
","
",374.7449999937089,NA,48,NA,NA,3000,1,NA,NA,images/purpleplanet.jpg,images/alien4,images/alien3,images/rocket1,images/alien4,images/t.png,2,real,true,2,common,1,2020-06-20T21:48:40Z,sub123
two-step-fixation,200,591337,0.0-76.0-2.21,FALSE,FALSE,FALSE,TRUE,"""event"",""trial"",""time""
""fullscreenenter"",""5"",""12319""
","
","
","""event"",""trial"",""time""
""fullscreenenter"",""5"",""12319""
","
",NA,images/earth.jpg,NA,NA,NA,NA,NA,NA,NA,NA,NA,NA,NA,NA,NA,fixation,NA,NA,NA,NA,NA,NA,sub123
d3-animate-choice,201,593599,0.0-76.0-0.22,FALSE,FALSE,FALSE,TRUE,"""event"",""trial"",""time""
""fullscreenenter"",""5"",""12319""
","
","
","""event"",""trial"",""time""
""fullscreenenter"",""5"",""12319""
","
",259.9800000025425,NA,48,NA,NA,3000,1,NA,NA,images/earth.jpg,images/rocket1,images/rocket2,null,images/rocket1,NA,1,real,null,2,NA,NA,NA,sub123
d3-animate-choice,202,596248,0.0-76.0-1.22,FALSE,FALSE,FALSE,TRUE,"""event"",""trial"",""time""
""fullscreenenter"",""5"",""12319""
","
","
","""event"",""trial"",""time""
""fullscreenenter"",""5"",""12319""
","
",645.6499999912921,NA,48,NA,NA,3000,1,NA,NA,images/purpleplanet.jpg,images/alien4,images/alien3,images/rocket1,images/alien4,images/t.png,2,real,true,2,common,1,2020-06-20T21:48:46Z,sub123
two-step-fixation,203,597250,0.0-76.0-2.22,FALSE,FALSE,FALSE,TRUE,"""event"",""trial"",""time""
""fullscreenenter"",""5"",""12319""
","
","
","""event"",""trial"",""time""
""fullscreenenter"",""5"",""12319""
","
",NA,images/earth.jpg,NA,NA,NA,NA,NA,NA,NA,NA,NA,NA,NA,NA,NA,fixation,NA,NA,NA,NA,NA,NA,sub123
d3-animate-choice,204,599511,0.0-76.0-0.23,FALSE,FALSE,FALSE,TRUE,"""event"",""trial"",""time""
""fullscreenenter"",""5"",""12319""
","
","
","""event"",""trial"",""time""
""fullscreenenter"",""5"",""12319""
","
",258.9200000074925,NA,48,NA,NA,3000,1,NA,NA,images/earth.jpg,images/rocket1,images/rocket2,null,images/rocket1,NA,1,real,null,2,NA,NA,NA,sub123
d3-animate-choice,205,602007,0.0-76.0-1.23,FALSE,FALSE,FALSE,TRUE,"""event"",""trial"",""time""
""fullscreenenter"",""5"",""12319""
","
","
","""event"",""trial"",""time""
""fullscreenenter"",""5"",""12319""
","
",493.94000000029337,NA,49,NA,NA,3000,1,NA,NA,images/redplanet1.jpg,images/alien2,images/alien1,images/rocket1,images/alien1,images/t.png,2,real,false,1,rare,1,2020-06-20T21:48:52Z,sub123
two-step-fixation,206,603010,0.0-76.0-2.23,FALSE,FALSE,FALSE,TRUE,"""event"",""trial"",""time""
""fullscreenenter"",""5"",""12319""
","
","
","""event"",""trial"",""time""
""fullscreenenter"",""5"",""12319""
","
",NA,images/earth.jpg,NA,NA,NA,NA,NA,NA,NA,NA,NA,NA,NA,NA,NA,fixation,NA,NA,NA,NA,NA,NA,sub123
d3-animate-choice,207,605271,0.0-76.0-0.24,FALSE,FALSE,FALSE,TRUE,"""event"",""trial"",""time""
""fullscreenenter"",""5"",""12319""
","
","
","""event"",""trial"",""time""
""fullscreenenter"",""5"",""12319""
","
",259.4450000033248,NA,48,NA,NA,3000,1,NA,NA,images/earth.jpg,images/rocket1,images/rocket2,null,images/rocket1,NA,1,real,null,2,NA,NA,NA,sub123
d3-animate-choice,208,607671,0.0-76.0-1.24,FALSE,FALSE,FALSE,TRUE,"""event"",""trial"",""time""
""fullscreenenter"",""5"",""12319""
","
","
","""event"",""trial"",""time""
""fullscreenenter"",""5"",""12319""
","
",397.4000000016531,NA,48,NA,NA,3000,1,NA,NA,images/redplanet1.jpg,images/alien2,images/alien1,images/rocket1,images/alien2,images/t.png,2,real,false,2,rare,1,2020-06-20T21:48:57Z,sub123
two-step-fixation,209,608673,0.0-76.0-2.24,FALSE,FALSE,FALSE,TRUE,"""event"",""trial"",""time""
""fullscreenenter"",""5"",""12319""
","
","
","""event"",""trial"",""time""
""fullscreenenter"",""5"",""12319""
","
",NA,images/earth.jpg,NA,NA,NA,NA,NA,NA,NA,NA,NA,NA,NA,NA,NA,fixation,NA,NA,NA,NA,NA,NA,sub123
d3-animate-choice,210,610966,0.0-76.0-0.25,FALSE,FALSE,FALSE,TRUE,"""event"",""trial"",""time""
""fullscreenenter"",""5"",""12319""
","
","
","""event"",""trial"",""time""
""fullscreenenter"",""5"",""12319""
","
",290.6549999897834,NA,48,NA,NA,3000,1,NA,NA,images/earth.jpg,images/rocket1,images/rocket2,null,images/rocket1,NA,1,real,null,2,NA,NA,NA,sub123
d3-animate-choice,211,613583,0.0-76.0-1.25,FALSE,FALSE,FALSE,TRUE,"""event"",""trial"",""time""
""fullscreenenter"",""5"",""12319""
","
","
","""event"",""trial"",""time""
""fullscreenenter"",""5"",""12319""
","
",614.5199999882607,NA,49,NA,NA,3000,1,NA,NA,images/redplanet1.jpg,images/alien2,images/alien1,images/rocket1,images/alien1,images/t.png,2,real,false,1,rare,1,2020-06-20T21:49:03Z,sub123
two-step-fixation,212,614585,0.0-76.0-2.25,FALSE,FALSE,FALSE,TRUE,"""event"",""trial"",""time""
""fullscreenenter"",""5"",""12319""
","
","
","""event"",""trial"",""time""
""fullscreenenter"",""5"",""12319""
","
",NA,images/earth.jpg,NA,NA,NA,NA,NA,NA,NA,NA,NA,NA,NA,NA,NA,fixation,NA,NA,NA,NA,NA,NA,sub123
d3-animate-choice,213,616848,0.0-76.0-0.26,FALSE,FALSE,FALSE,TRUE,"""event"",""trial"",""time""
""fullscreenenter"",""5"",""12319""
","
","
","""event"",""trial"",""time""
""fullscreenenter"",""5"",""12319""
","
",260.21000000764616,NA,48,NA,NA,3000,1,NA,NA,images/earth.jpg,images/rocket1,images/rocket2,null,images/rocket1,NA,1,real,null,2,NA,NA,NA,sub123
d3-animate-choice,214,619079,0.0-76.0-1.26,FALSE,FALSE,FALSE,TRUE,"""event"",""trial"",""time""
""fullscreenenter"",""5"",""12319""
","
","
","""event"",""trial"",""time""
""fullscreenenter"",""5"",""12319""
","
",228.99999999208376,NA,48,NA,NA,3000,1,NA,NA,images/redplanet1.jpg,images/alien2,images/alien1,images/rocket1,images/alien2,images/t.png,2,real,false,2,rare,1,2020-06-20T21:49:09Z,sub123
two-step-fixation,215,620082,0.0-76.0-2.26,FALSE,FALSE,FALSE,TRUE,"""event"",""trial"",""time""
""fullscreenenter"",""5"",""12319""
","
","
","""event"",""trial"",""time""
""fullscreenenter"",""5"",""12319""
","
",NA,images/earth.jpg,NA,NA,NA,NA,NA,NA,NA,NA,NA,NA,NA,NA,NA,fixation,NA,NA,NA,NA,NA,NA,sub123
d3-animate-choice,216,622358,0.0-76.0-0.27,FALSE,FALSE,FALSE,TRUE,"""event"",""trial"",""time""
""fullscreenenter"",""5"",""12319""
","
","
","""event"",""trial"",""time""
""fullscreenenter"",""5"",""12319""
","
",274.0699999994831,NA,48,NA,NA,3000,1,NA,NA,images/earth.jpg,images/rocket1,images/rocket2,null,images/rocket1,NA,1,real,null,2,NA,NA,NA,sub123
d3-animate-choice,217,624694,0.0-76.0-1.27,FALSE,FALSE,FALSE,TRUE,"""event"",""trial"",""time""
""fullscreenenter"",""5"",""12319""
","
","
","""event"",""trial"",""time""
""fullscreenenter"",""5"",""12319""
","
",334.41499999025837,NA,48,NA,NA,3000,1,NA,NA,images/purpleplanet.jpg,images/alien4,images/alien3,images/rocket1,images/alien4,images/nothing.png,2,real,true,2,common,0,2020-06-20T21:49:14Z,sub123
two-step-fixation,218,625697,0.0-76.0-2.27,FALSE,FALSE,FALSE,TRUE,"""event"",""trial"",""time""
""fullscreenenter"",""5"",""12319""
","
","
","""event"",""trial"",""time""
""fullscreenenter"",""5"",""12319""
","
",NA,images/earth.jpg,NA,NA,NA,NA,NA,NA,NA,NA,NA,NA,NA,NA,NA,fixation,NA,NA,NA,NA,NA,NA,sub123
d3-animate-choice,219,627736,0.0-76.0-0.28,FALSE,FALSE,FALSE,TRUE,"""event"",""trial"",""time""
""fullscreenenter"",""5"",""12319""
","
","
","""event"",""trial"",""time""
""fullscreenenter"",""5"",""12319""
","
",36.60999999556225,NA,48,NA,NA,3000,1,NA,NA,images/earth.jpg,images/rocket1,images/rocket2,null,images/rocket1,NA,1,real,null,2,NA,NA,NA,sub123
d3-animate-choice,220,630312,0.0-76.0-1.28,FALSE,FALSE,FALSE,TRUE,"""event"",""trial"",""time""
""fullscreenenter"",""5"",""12319""
","
","
","""event"",""trial"",""time""
""fullscreenenter"",""5"",""12319""
","
",573.0949999997392,NA,49,NA,NA,3000,1,NA,NA,images/redplanet1.jpg,images/alien2,images/alien1,images/rocket1,images/alien1,images/nothing.png,2,real,false,1,rare,0,2020-06-20T21:49:20Z,sub123
two-step-fixation,221,631316,0.0-76.0-2.28,FALSE,FALSE,FALSE,TRUE,"""event"",""trial"",""time""
""fullscreenenter"",""5"",""12319""
","
","
","""event"",""trial"",""time""
""fullscreenenter"",""5"",""12319""
","
",NA,images/earth.jpg,NA,NA,NA,NA,NA,NA,NA,NA,NA,NA,NA,NA,NA,fixation,NA,NA,NA,NA,NA,NA,sub123
d3-animate-choice,222,633598,0.0-76.0-0.29,FALSE,FALSE,FALSE,TRUE,"""event"",""trial"",""time""
""fullscreenenter"",""5"",""12319""
","
","
","""event"",""trial"",""time""
""fullscreenenter"",""5"",""12319""
","
",280.6799999962095,NA,48,NA,NA,3000,1,NA,NA,images/earth.jpg,images/rocket1,images/rocket2,null,images/rocket1,NA,1,real,null,2,NA,NA,NA,sub123
d3-animate-choice,223,635951,0.0-76.0-1.29,FALSE,FALSE,FALSE,TRUE,"""event"",""trial"",""time""
""fullscreenenter"",""5"",""12319""
","
","
","""event"",""trial"",""time""
""fullscreenenter"",""5"",""12319""
","
",350.42500001145527,NA,48,NA,NA,3000,1,NA,NA,images/redplanet1.jpg,images/alien2,images/alien1,images/rocket1,images/alien2,images/t.png,2,real,false,2,rare,1,2020-06-20T21:49:26Z,sub123
two-step-fixation,224,636954,0.0-76.0-2.29,FALSE,FALSE,FALSE,TRUE,"""event"",""trial"",""time""
""fullscreenenter"",""5"",""12319""
","
","
","""event"",""trial"",""time""
""fullscreenenter"",""5"",""12319""
","
",NA,images/earth.jpg,NA,NA,NA,NA,NA,NA,NA,NA,NA,NA,NA,NA,NA,fixation,NA,NA,NA,NA,NA,NA,sub123
d3-animate-choice,225,639110,0.0-76.0-0.30,FALSE,FALSE,FALSE,TRUE,"""event"",""trial"",""time""
""fullscreenenter"",""5"",""12319""
","
","
","""event"",""trial"",""time""
""fullscreenenter"",""5"",""12319""
","
",153.86999999464024,NA,48,NA,NA,3000,1,"1666.1999999923864,1937.8299999953015",4848,images/earth.jpg,images/rocket1,images/rocket2,null,images/rocket1,NA,1,real,null,2,NA,NA,NA,sub123
d3-animate-choice,226,641127,0.0-76.0-1.30,FALSE,FALSE,FALSE,TRUE,"""event"",""trial"",""time""
""fullscreenenter"",""5"",""12319""
","
","
","""event"",""trial"",""time""
""fullscreenenter"",""5"",""12319""
","
",14.544999998179264,NA,48,NA,NA,3000,1,214.3099999957485,48,images/redplanet1.jpg,images/alien2,images/alien1,images/rocket1,images/alien2,images/nothing.png,2,real,false,2,rare,0,2020-06-20T21:49:31Z,sub123
two-step-fixation,227,642129,0.0-76.0-2.30,FALSE,FALSE,FALSE,TRUE,"""event"",""trial"",""time""
""fullscreenenter"",""5"",""12319""
","
","
","""event"",""trial"",""time""
""fullscreenenter"",""5"",""12319""
","
",NA,images/earth.jpg,NA,NA,NA,NA,NA,NA,NA,NA,NA,NA,NA,NA,NA,fixation,NA,NA,NA,NA,NA,NA,sub123
d3-animate-choice,228,644414,0.0-76.0-0.31,FALSE,FALSE,FALSE,TRUE,"""event"",""trial"",""time""
""fullscreenenter"",""5"",""12319""
","
","
","""event"",""trial"",""time""
""fullscreenenter"",""5"",""12319""
","
",282.8199999930803,NA,48,NA,NA,3000,1,NA,NA,images/earth.jpg,images/rocket1,images/rocket2,null,images/rocket1,NA,1,real,null,2,NA,NA,NA,sub123
d3-animate-choice,229,647135,0.0-76.0-1.31,FALSE,FALSE,FALSE,TRUE,"""event"",""trial"",""time""
""fullscreenenter"",""5"",""12319""
","
","
","""event"",""trial"",""time""
""fullscreenenter"",""5"",""12319""
","
",718.6599999986356,NA,49,NA,NA,3000,1,NA,NA,images/redplanet1.jpg,images/alien2,images/alien1,images/rocket1,images/alien1,images/t.png,2,real,false,1,rare,1,2020-06-20T21:49:37Z,sub123
two-step-fixation,230,648138,0.0-76.0-2.31,FALSE,FALSE,FALSE,TRUE,"""event"",""trial"",""time""
""fullscreenenter"",""5"",""12319""
","
","
","""event"",""trial"",""time""
""fullscreenenter"",""5"",""12319""
","
",NA,images/earth.jpg,NA,NA,NA,NA,NA,NA,NA,NA,NA,NA,NA,NA,NA,fixation,NA,NA,NA,NA,NA,NA,sub123
d3-animate-choice,231,650416,0.0-76.0-0.32,FALSE,FALSE,FALSE,TRUE,"""event"",""trial"",""time""
""fullscreenenter"",""5"",""12319""
","
","
","""event"",""trial"",""time""
""fullscreenenter"",""5"",""12319""
","
",274.26000000559725,NA,49,NA,NA,3000,1,NA,NA,images/earth.jpg,images/rocket1,images/rocket2,null,images/rocket2,NA,1,real,null,1,NA,NA,NA,sub123
d3-animate-choice,232,652704,0.0-76.0-1.32,FALSE,FALSE,FALSE,TRUE,"""event"",""trial"",""time""
""fullscreenenter"",""5"",""12319""
","
","
","""event"",""trial"",""time""
""fullscreenenter"",""5"",""12319""
","
",285.1700000028359,NA,48,NA,NA,3000,1,NA,NA,images/purpleplanet.jpg,images/alien4,images/alien3,images/rocket2,images/alien4,images/t.png,2,real,false,2,rare,1,2020-06-20T21:49:42Z,sub123
two-step-fixation,233,653707,0.0-76.0-2.32,FALSE,FALSE,FALSE,TRUE,"""event"",""trial"",""time""
""fullscreenenter"",""5"",""12319""
","
","
","""event"",""trial"",""time""
""fullscreenenter"",""5"",""12319""
","
",NA,images/earth.jpg,NA,NA,NA,NA,NA,NA,NA,NA,NA,NA,NA,NA,NA,fixation,NA,NA,NA,NA,NA,NA,sub123
d3-animate-choice,234,655998,0.0-76.0-0.33,FALSE,FALSE,FALSE,TRUE,"""event"",""trial"",""time""
""fullscreenenter"",""5"",""12319""
","
","
","""event"",""trial"",""time""
""fullscreenenter"",""5"",""12319""
","
",289.6749999927124,NA,49,NA,NA,3000,1,NA,NA,images/earth.jpg,images/rocket1,images/rocket2,null,images/rocket2,NA,1,real,null,1,NA,NA,NA,sub123
d3-animate-choice,235,658375,0.0-76.0-1.33,FALSE,FALSE,FALSE,TRUE,"""event"",""trial"",""time""
""fullscreenenter"",""5"",""12319""
","
","
","""event"",""trial"",""time""
""fullscreenenter"",""5"",""12319""
","
",374.1900000022724,NA,48,NA,NA,3000,1,NA,NA,images/purpleplanet.jpg,images/alien4,images/alien3,images/rocket2,images/alien4,images/nothing.png,2,real,false,2,rare,0,2020-06-20T21:49:48Z,sub123
two-step-fixation,236,659378,0.0-76.0-2.33,FALSE,FALSE,FALSE,TRUE,"""event"",""trial"",""time""
""fullscreenenter"",""5"",""12319""
","
","
","""event"",""trial"",""time""
""fullscreenenter"",""5"",""12319""
","
",NA,images/earth.jpg,NA,NA,NA,NA,NA,NA,NA,NA,NA,NA,NA,NA,NA,fixation,NA,NA,NA,NA,NA,NA,sub123
d3-animate-choice,237,661622,0.0-76.0-0.34,FALSE,FALSE,FALSE,TRUE,"""event"",""trial"",""time""
""fullscreenenter"",""5"",""12319""
","
","
","""event"",""trial"",""time""
""fullscreenenter"",""5"",""12319""
","
",242.41999999503605,NA,49,NA,NA,3000,1,NA,NA,images/earth.jpg,images/rocket1,images/rocket2,null,images/rocket2,NA,1,real,null,1,NA,NA,NA,sub123
d3-animate-choice,238,664223,0.0-76.0-1.34,FALSE,FALSE,FALSE,TRUE,"""event"",""trial"",""time""
""fullscreenenter"",""5"",""12319""
","
","
","""event"",""trial"",""time""
""fullscreenenter"",""5"",""12319""
","
",598.4800000005635,NA,49,NA,NA,3000,1,NA,NA,images/redplanet1.jpg,images/alien2,images/alien1,images/rocket2,images/alien1,images/t.png,2,real,true,1,common,1,2020-06-20T21:49:54Z,sub123
two-step-fixation,239,665226,0.0-76.0-2.34,FALSE,FALSE,FALSE,TRUE,"""event"",""trial"",""time""
""fullscreenenter"",""5"",""12319""
","
","
","""event"",""trial"",""time""
""fullscreenenter"",""5"",""12319""
","
",NA,images/earth.jpg,NA,NA,NA,NA,NA,NA,NA,NA,NA,NA,NA,NA,NA,fixation,NA,NA,NA,NA,NA,NA,sub123
d3-animate-choice,240,667240,0.0-76.0-0.35,FALSE,FALSE,FALSE,TRUE,"""event"",""trial"",""time""
""fullscreenenter"",""5"",""12319""
","
","
","""event"",""trial"",""time""
""fullscreenenter"",""5"",""12319""
","
",10.920000000623986,NA,49,NA,NA,3000,1,NA,NA,images/earth.jpg,images/rocket1,images/rocket2,null,images/rocket2,NA,1,real,null,1,NA,NA,NA,sub123
d3-animate-choice,241,670064,0.0-76.0-1.35,FALSE,FALSE,FALSE,TRUE,"""event"",""trial"",""time""
""fullscreenenter"",""5"",""12319""
","
","
","""event"",""trial"",""time""
""fullscreenenter"",""5"",""12319""
","
",820.770000005723,NA,48,NA,NA,3000,1,NA,NA,images/redplanet1.jpg,images/alien2,images/alien1,images/rocket2,images/alien2,images/t.png,2,real,true,2,common,1,2020-06-20T21:50:00Z,sub123
two-step-fixation,242,671068,0.0-76.0-2.35,FALSE,FALSE,FALSE,TRUE,"""event"",""trial"",""time""
""fullscreenenter"",""5"",""12319""
","
","
","""event"",""trial"",""time""
""fullscreenenter"",""5"",""12319""
","
",NA,images/earth.jpg,NA,NA,NA,NA,NA,NA,NA,NA,NA,NA,NA,NA,NA,fixation,NA,NA,NA,NA,NA,NA,sub123
d3-animate-choice,243,673328,0.0-76.0-0.36,FALSE,FALSE,FALSE,TRUE,"""event"",""trial"",""time""
""fullscreenenter"",""5"",""12319""
","
","
","""event"",""trial"",""time""
""fullscreenenter"",""5"",""12319""
","
",257.5749999959953,NA,49,NA,NA,3000,1,NA,NA,images/earth.jpg,images/rocket1,images/rocket2,null,images/rocket2,NA,1,real,null,1,NA,NA,NA,sub123
d3-animate-choice,244,675520,0.0-76.0-1.36,FALSE,FALSE,FALSE,TRUE,"""event"",""trial"",""time""
""fullscreenenter"",""5"",""12319""
","
","
","""event"",""trial"",""time""
""fullscreenenter"",""5"",""12319""
","
",189.11999999545515,NA,48,NA,NA,3000,1,NA,NA,images/purpleplanet.jpg,images/alien4,images/alien3,images/rocket2,images/alien4,images/t.png,2,real,false,2,rare,1,2020-06-20T21:50:05Z,sub123
two-step-fixation,245,676524,0.0-76.0-2.36,FALSE,FALSE,FALSE,TRUE,"""event"",""trial"",""time""
""fullscreenenter"",""5"",""12319""
","
","
","""event"",""trial"",""time""
""fullscreenenter"",""5"",""12319""
","
",NA,images/earth.jpg,NA,NA,NA,NA,NA,NA,NA,NA,NA,NA,NA,NA,NA,fixation,NA,NA,NA,NA,NA,NA,sub123
d3-animate-choice,246,678744,0.0-76.0-0.37,FALSE,FALSE,FALSE,TRUE,"""event"",""trial"",""time""
""fullscreenenter"",""5"",""12319""
","
","
","""event"",""trial"",""time""
""fullscreenenter"",""5"",""12319""
","
",216.66000000550412,NA,49,NA,NA,3000,1,NA,NA,images/earth.jpg,images/rocket1,images/rocket2,null,images/rocket2,NA,1,real,null,1,NA,NA,NA,sub123
d3-animate-choice,247,681647,0.0-76.0-1.37,FALSE,FALSE,FALSE,TRUE,"""event"",""trial"",""time""
""fullscreenenter"",""5"",""12319""
","
","
","""event"",""trial"",""time""
""fullscreenenter"",""5"",""12319""
","
",901.3600000034785,NA,48,NA,NA,3000,1,NA,NA,images/redplanet1.jpg,images/alien2,images/alien1,images/rocket2,images/alien2,images/t.png,2,real,true,2,common,1,2020-06-20T21:50:11Z,sub123
two-step-fixation,248,682649,0.0-76.0-2.37,FALSE,FALSE,FALSE,TRUE,"""event"",""trial"",""time""
""fullscreenenter"",""5"",""12319""
","
","
","""event"",""trial"",""time""
""fullscreenenter"",""5"",""12319""
","
",NA,images/earth.jpg,NA,NA,NA,NA,NA,NA,NA,NA,NA,NA,NA,NA,NA,fixation,NA,NA,NA,NA,NA,NA,sub123
d3-animate-choice,249,684729,0.0-76.0-0.38,FALSE,FALSE,FALSE,TRUE,"""event"",""trial"",""time""
""fullscreenenter"",""5"",""12319""
","
","
","""event"",""trial"",""time""
""fullscreenenter"",""5"",""12319""
","
",76.1800000036601,NA,49,NA,NA,3000,1,NA,NA,images/earth.jpg,images/rocket1,images/rocket2,null,images/rocket2,NA,1,real,null,1,NA,NA,NA,sub123
d3-animate-choice,250,687008,0.0-76.0-1.38,FALSE,FALSE,FALSE,TRUE,"""event"",""trial"",""time""
""fullscreenenter"",""5"",""12319""
","
","
","""event"",""trial"",""time""
""fullscreenenter"",""5"",""12319""
","
",275.7300000084797,NA,48,NA,NA,3000,1,NA,NA,images/redplanet1.jpg,images/alien2,images/alien1,images/rocket2,images/alien2,images/nothing.png,2,real,true,2,common,0,2020-06-20T21:50:17Z,sub123
two-step-fixation,251,688010,0.0-76.0-2.38,FALSE,FALSE,FALSE,TRUE,"""event"",""trial"",""time""
""fullscreenenter"",""5"",""12319""
","
","
","""event"",""trial"",""time""
""fullscreenenter"",""5"",""12319""
","
",NA,images/earth.jpg,NA,NA,NA,NA,NA,NA,NA,NA,NA,NA,NA,NA,NA,fixation,NA,NA,NA,NA,NA,NA,sub123
d3-animate-choice,252,690039,0.0-76.0-0.39,FALSE,FALSE,FALSE,TRUE,"""event"",""trial"",""time""
""fullscreenenter"",""5"",""12319""
","
","
","""event"",""trial"",""time""
""fullscreenenter"",""5"",""12319""
","
",26.149999990593642,NA,49,NA,NA,3000,1,NA,NA,images/earth.jpg,images/rocket1,images/rocket2,null,images/rocket2,NA,1,real,null,1,NA,NA,NA,sub123
d3-animate-choice,253,692615,0.0-76.0-1.39,FALSE,FALSE,FALSE,TRUE,"""event"",""trial"",""time""
""fullscreenenter"",""5"",""12319""
","
","
","""event"",""trial"",""time""
""fullscreenenter"",""5"",""12319""
","
",573.7949999893317,NA,49,NA,NA,3000,1,NA,NA,images/redplanet1.jpg,images/alien2,images/alien1,images/rocket2,images/alien1,images/t.png,2,real,true,1,common,1,2020-06-20T21:50:22Z,sub123
two-step-fixation,254,693617,0.0-76.0-2.39,FALSE,FALSE,FALSE,TRUE,"""event"",""trial"",""time""
""fullscreenenter"",""5"",""12319""
","
","
","""event"",""trial"",""time""
""fullscreenenter"",""5"",""12319""
","
",NA,images/earth.jpg,NA,NA,NA,NA,NA,NA,NA,NA,NA,NA,NA,NA,NA,fixation,NA,NA,NA,NA,NA,NA,sub123
d3-animate-choice,255,695881,0.0-76.0-0.40,FALSE,FALSE,FALSE,TRUE,"""event"",""trial"",""time""
""fullscreenenter"",""5"",""12319""
","
","
","""event"",""trial"",""time""
""fullscreenenter"",""5"",""12319""
","
",260.5150000017602,NA,48,NA,NA,3000,1,NA,NA,images/earth.jpg,images/rocket1,images/rocket2,null,images/rocket1,NA,1,real,null,2,NA,NA,NA,sub123
d3-animate-choice,256,698248,0.0-76.0-1.40,FALSE,FALSE,FALSE,TRUE,"""event"",""trial"",""time""
""fullscreenenter"",""5"",""12319""
","
","
","""event"",""trial"",""time""
""fullscreenenter"",""5"",""12319""
","
",364.000000001397,NA,48,NA,NA,3000,1,NA,NA,images/purpleplanet.jpg,images/alien4,images/alien3,images/rocket1,images/alien4,images/t.png,2,real,true,2,common,1,2020-06-20T21:50:28Z,sub123
two-step-fixation,257,699251,0.0-76.0-2.40,FALSE,FALSE,FALSE,TRUE,"""event"",""trial"",""time""
""fullscreenenter"",""5"",""12319""
","
","
","""event"",""trial"",""time""
""fullscreenenter"",""5"",""12319""
","
",NA,images/earth.jpg,NA,NA,NA,NA,NA,NA,NA,NA,NA,NA,NA,NA,NA,fixation,NA,NA,NA,NA,NA,NA,sub123
d3-animate-choice,258,701553,0.0-76.0-0.41,FALSE,FALSE,FALSE,TRUE,"""event"",""trial"",""time""
""fullscreenenter"",""5"",""12319""
","
","
","""event"",""trial"",""time""
""fullscreenenter"",""5"",""12319""
","
",299.5550000050571,NA,48,NA,NA,3000,1,NA,NA,images/earth.jpg,images/rocket1,images/rocket2,null,images/rocket1,NA,1,real,null,2,NA,NA,NA,sub123
d3-animate-choice,259,703879,0.0-76.0-1.41,FALSE,FALSE,FALSE,TRUE,"""event"",""trial"",""time""
""fullscreenenter"",""5"",""12319""
","
","
","""event"",""trial"",""time""
""fullscreenenter"",""5"",""12319""
","
",324.2949999985285,NA,48,NA,NA,3000,1,NA,NA,images/purpleplanet.jpg,images/alien4,images/alien3,images/rocket1,images/alien4,images/t.png,2,real,true,2,common,1,2020-06-20T21:50:33Z,sub123
two-step-fixation,260,704882,0.0-76.0-2.41,FALSE,FALSE,FALSE,TRUE,"""event"",""trial"",""time""
""fullscreenenter"",""5"",""12319""
","
","
","""event"",""trial"",""time""
""fullscreenenter"",""5"",""12319""
","
",NA,images/earth.jpg,NA,NA,NA,NA,NA,NA,NA,NA,NA,NA,NA,NA,NA,fixation,NA,NA,NA,NA,NA,NA,sub123
d3-animate-choice,261,707120,0.0-76.0-0.42,FALSE,FALSE,FALSE,TRUE,"""event"",""trial"",""time""
""fullscreenenter"",""5"",""12319""
","
","
","""event"",""trial"",""time""
""fullscreenenter"",""5"",""12319""
","
",235.86999998951796,NA,48,NA,NA,3000,1,NA,NA,images/earth.jpg,images/rocket1,images/rocket2,null,images/rocket1,NA,1,real,null,2,NA,NA,NA,sub123
d3-animate-choice,262,709352,0.0-76.0-1.42,FALSE,FALSE,FALSE,TRUE,"""event"",""trial"",""time""
""fullscreenenter"",""5"",""12319""
","
","
","""event"",""trial"",""time""
""fullscreenenter"",""5"",""12319""
","
",228.58999999880325,NA,48,NA,NA,3000,1,NA,NA,images/purpleplanet.jpg,images/alien4,images/alien3,images/rocket1,images/alien4,images/nothing.png,2,real,true,2,common,0,2020-06-20T21:50:39Z,sub123
two-step-fixation,263,710355,0.0-76.0-2.42,FALSE,FALSE,FALSE,TRUE,"""event"",""trial"",""time""
""fullscreenenter"",""5"",""12319""
","
","
","""event"",""trial"",""time""
""fullscreenenter"",""5"",""12319""
","
",NA,images/earth.jpg,NA,NA,NA,NA,NA,NA,NA,NA,NA,NA,NA,NA,NA,fixation,NA,NA,NA,NA,NA,NA,sub123
d3-animate-choice,264,712647,0.0-76.0-0.43,FALSE,FALSE,FALSE,TRUE,"""event"",""trial"",""time""
""fullscreenenter"",""5"",""12319""
","
","
","""event"",""trial"",""time""
""fullscreenenter"",""5"",""12319""
","
",288.92500000074506,NA,48,NA,NA,3000,1,NA,NA,images/earth.jpg,images/rocket1,images/rocket2,null,images/rocket1,NA,1,real,null,2,NA,NA,NA,sub123
d3-animate-choice,265,714895,0.0-76.0-1.43,FALSE,FALSE,FALSE,TRUE,"""event"",""trial"",""time""
""fullscreenenter"",""5"",""12319""
","
","
","""event"",""trial"",""time""
""fullscreenenter"",""5"",""12319""
","
",245.40499999420717,NA,49,NA,NA,3000,1,NA,NA,images/purpleplanet.jpg,images/alien4,images/alien3,images/rocket1,images/alien3,images/nothing.png,2,real,true,1,common,0,2020-06-20T21:50:44Z,sub123
two-step-fixation,266,715896,0.0-76.0-2.43,FALSE,FALSE,FALSE,TRUE,"""event"",""trial"",""time""
""fullscreenenter"",""5"",""12319""
","
","
","""event"",""trial"",""time""
""fullscreenenter"",""5"",""12319""
","
",NA,images/earth.jpg,NA,NA,NA,NA,NA,NA,NA,NA,NA,NA,NA,NA,NA,fixation,NA,NA,NA,NA,NA,NA,sub123
d3-animate-choice,267,718151,0.0-76.0-0.44,FALSE,FALSE,FALSE,TRUE,"""event"",""trial"",""time""
""fullscreenenter"",""5"",""12319""
","
","
","""event"",""trial"",""time""
""fullscreenenter"",""5"",""12319""
","
",252.055000004475,NA,48,NA,NA,3000,1,NA,NA,images/earth.jpg,images/rocket1,images/rocket2,null,images/rocket1,NA,1,real,null,2,NA,NA,NA,sub123
d3-animate-choice,268,720167,0.0-76.0-1.44,FALSE,FALSE,FALSE,TRUE,"""event"",""trial"",""time""
""fullscreenenter"",""5"",""12319""
","
","
","""event"",""trial"",""time""
""fullscreenenter"",""5"",""12319""
","
",13.8299999962328,NA,48,NA,NA,3000,1,381.2999999936437,48,images/redplanet1.jpg,images/alien2,images/alien1,images/rocket1,images/alien2,images/nothing.png,2,real,false,2,rare,0,2020-06-20T21:50:50Z,sub123
two-step-fixation,269,721170,0.0-76.0-2.44,FALSE,FALSE,FALSE,TRUE,"""event"",""trial"",""time""
""fullscreenenter"",""5"",""12319""
","
","
","""event"",""trial"",""time""
""fullscreenenter"",""5"",""12319""
","
",NA,images/earth.jpg,NA,NA,NA,NA,NA,NA,NA,NA,NA,NA,NA,NA,NA,fixation,NA,NA,NA,NA,NA,NA,sub123
d3-animate-choice,270,723351,0.0-76.0-0.45,FALSE,FALSE,FALSE,TRUE,"""event"",""trial"",""time""
""fullscreenenter"",""5"",""12319""
","
","
","""event"",""trial"",""time""
""fullscreenenter"",""5"",""12319""
","
",177.97000000427943,NA,48,NA,NA,3000,1,NA,NA,images/earth.jpg,images/rocket1,images/rocket2,null,images/rocket1,NA,1,real,null,2,NA,NA,NA,sub123
d3-animate-choice,271,725768,0.0-76.0-1.45,FALSE,FALSE,FALSE,TRUE,"""event"",""trial"",""time""
""fullscreenenter"",""5"",""12319""
","
","
","""event"",""trial"",""time""
""fullscreenenter"",""5"",""12319""
","
",414.05000000668224,NA,48,NA,NA,3000,1,NA,NA,images/redplanet1.jpg,images/alien2,images/alien1,images/rocket1,images/alien2,images/t.png,2,real,false,2,rare,1,2020-06-20T21:50:55Z,sub123
two-step-fixation,272,726769,0.0-76.0-2.45,FALSE,FALSE,FALSE,TRUE,"""event"",""trial"",""time""
""fullscreenenter"",""5"",""12319""
","
","
","""event"",""trial"",""time""
""fullscreenenter"",""5"",""12319""
","
",NA,images/earth.jpg,NA,NA,NA,NA,NA,NA,NA,NA,NA,NA,NA,NA,NA,fixation,NA,NA,NA,NA,NA,NA,sub123
d3-animate-choice,273,728887,0.0-76.0-0.46,FALSE,FALSE,FALSE,TRUE,"""event"",""trial"",""time""
""fullscreenenter"",""5"",""12319""
","
","
","""event"",""trial"",""time""
""fullscreenenter"",""5"",""12319""
","
",115.21499999798834,NA,49,NA,NA,3000,1,NA,NA,images/earth.jpg,images/rocket1,images/rocket2,null,images/rocket2,NA,1,real,null,1,NA,NA,NA,sub123
d3-animate-choice,274,731520,0.0-76.0-1.46,FALSE,FALSE,FALSE,TRUE,"""event"",""trial"",""time""
""fullscreenenter"",""5"",""12319""
","
","
","""event"",""trial"",""time""
""fullscreenenter"",""5"",""12319""
","
",630.0950000004377,NA,49,NA,NA,3000,1,NA,NA,images/redplanet1.jpg,images/alien2,images/alien1,images/rocket2,images/alien1,images/t.png,2,real,true,1,common,1,2020-06-20T21:51:01Z,sub123
two-step-fixation,275,732523,0.0-76.0-2.46,FALSE,FALSE,FALSE,TRUE,"""event"",""trial"",""time""
""fullscreenenter"",""5"",""12319""
","
","
","""event"",""trial"",""time""
""fullscreenenter"",""5"",""12319""
","
",NA,images/earth.jpg,NA,NA,NA,NA,NA,NA,NA,NA,NA,NA,NA,NA,NA,fixation,NA,NA,NA,NA,NA,NA,sub123
d3-animate-choice,276,734736,0.0-76.0-0.47,FALSE,FALSE,FALSE,TRUE,"""event"",""trial"",""time""
""fullscreenenter"",""5"",""12319""
","
","
","""event"",""trial"",""time""
""fullscreenenter"",""5"",""12319""
","
",209.75999999791384,NA,49,NA,NA,3000,1,NA,NA,images/earth.jpg,images/rocket1,images/rocket2,null,images/rocket2,NA,1,real,null,1,NA,NA,NA,sub123
d3-animate-choice,277,737471,0.0-76.0-1.47,FALSE,FALSE,FALSE,TRUE,"""event"",""trial"",""time""
""fullscreenenter"",""5"",""12319""
","
","
","""event"",""trial"",""time""
""fullscreenenter"",""5"",""12319""
","
",733.4550000086892,NA,48,NA,NA,3000,1,NA,NA,images/redplanet1.jpg,images/alien2,images/alien1,images/rocket2,images/alien2,images/t.png,2,real,true,2,common,1,2020-06-20T21:51:07Z,sub123
two-step-fixation,278,738474,0.0-76.0-2.47,FALSE,FALSE,FALSE,TRUE,"""event"",""trial"",""time""
""fullscreenenter"",""5"",""12319""
","
","
","""event"",""trial"",""time""
""fullscreenenter"",""5"",""12319""
","
",NA,images/earth.jpg,NA,NA,NA,NA,NA,NA,NA,NA,NA,NA,NA,NA,NA,fixation,NA,NA,NA,NA,NA,NA,sub123
d3-animate-choice,279,740721,0.0-76.0-0.48,FALSE,FALSE,FALSE,TRUE,"""event"",""trial"",""time""
""fullscreenenter"",""5"",""12319""
","
","
","""event"",""trial"",""time""
""fullscreenenter"",""5"",""12319""
","
",242.8749999962747,NA,49,NA,NA,3000,1,NA,NA,images/earth.jpg,images/rocket1,images/rocket2,null,images/rocket2,NA,1,real,null,1,NA,NA,NA,sub123
d3-animate-choice,280,742943,0.0-76.0-1.48,FALSE,FALSE,FALSE,TRUE,"""event"",""trial"",""time""
""fullscreenenter"",""5"",""12319""
","
","
","""event"",""trial"",""time""
""fullscreenenter"",""5"",""12319""
","
",219.7149999992689,NA,48,NA,NA,3000,1,NA,NA,images/redplanet1.jpg,images/alien2,images/alien1,images/rocket2,images/alien2,images/nothing.png,2,real,true,2,common,0,2020-06-20T21:51:13Z,sub123
two-step-fixation,281,743946,0.0-76.0-2.48,FALSE,FALSE,FALSE,TRUE,"""event"",""trial"",""time""
""fullscreenenter"",""5"",""12319""
","
","
","""event"",""trial"",""time""
""fullscreenenter"",""5"",""12319""
","
",NA,images/earth.jpg,NA,NA,NA,NA,NA,NA,NA,NA,NA,NA,NA,NA,NA,fixation,NA,NA,NA,NA,NA,NA,sub123
