trial_type,trial_index,time_elapsed,internal_node_id,rocket_sides,red_planet_first_rocket,red_display_order,purple_display_order,interactions,blur_events,focus_events,fullscreenenter_events,fullscreenexit_events,rt,stimulus,key_press,button_pressed,success,duration,valid_pressed,rts,keys,planet_text,right_text,left_text,center_text,chosen_text,reward_text,trial_stage,practice_trial,transition_type,choice,transition,reward,timestamp,subject_id
pavlovia,0,7,0.0-0.0,TRUE,TRUE,FALSE,FALSE,"
","
","
","
","
",NA,NA,NA,NA,NA,NA,NA,NA,NA,NA,NA,NA,NA,NA,NA,NA,NA,NA,NA,NA,NA,NA,sub40
html-keyboard-response,1,31070,0.0-1.0,TRUE,TRUE,FALSE,FALSE,"
","
","
","
","
",31059.71999999747,Welcome! Press the space bar to begin.,32,NA,NA,NA,NA,NA,NA,NA,NA,NA,NA,NA,NA,NA,NA,NA,NA,NA,NA,NA,sub40
audio-keyboard-response,2,35708,0.0-2.0,TRUE,TRUE,FALSE,FALSE,"
","
","
","
","
",3904,audio/beep_loop.wav,32,NA,NA,NA,NA,NA,NA,NA,NA,NA,NA,NA,NA,NA,NA,NA,NA,NA,NA,NA,sub40
audio-button-response,3,39966,0.0-3.0,TRUE,TRUE,FALSE,FALSE,"
","
","
","
","
",NaN,audio/fish.mp3,NA,1,NA,NA,NA,NA,NA,NA,NA,NA,NA,NA,NA,NA,NA,NA,NA,NA,NA,NA,sub40
audio-button-response,4,42838,0.0-4.0,TRUE,TRUE,FALSE,FALSE,"""event"",""trial"",""time""
""fullscreenenter"",""5"",""53949""
","
","
","""event"",""trial"",""time""
""fullscreenenter"",""5"",""53949""
","
",NaN,audio/tiger.mp3,NA,4,NA,NA,NA,NA,NA,NA,NA,NA,NA,NA,NA,NA,NA,NA,NA,NA,NA,NA,sub40
fullscreen,5,54942,0.0-5.0,TRUE,TRUE,FALSE,FALSE,"""event"",""trial"",""time""
""fullscreenenter"",""5"",""53949""
","
","
","""event"",""trial"",""time""
""fullscreenenter"",""5"",""53949""
","
",NA,NA,NA,NA,TRUE,NA,NA,NA,NA,NA,NA,NA,NA,NA,NA,NA,NA,NA,NA,NA,NA,NA,sub40
d3-instructions,6,68716,0.0-6.0,TRUE,TRUE,FALSE,FALSE,"""event"",""trial"",""time""
""fullscreenenter"",""5"",""53949""
","
","
","""event"",""trial"",""time""
""fullscreenenter"",""5"",""53949""
","
",NA,NA,NA,NA,NA,NA,NA,NA,NA,NA,NA,NA,NA,NA,NA,NA,NA,NA,NA,NA,NA,NA,sub40
d3-instructions,7,78358,0.0-7.0,TRUE,TRUE,FALSE,FALSE,"""event"",""trial"",""time""
""fullscreenenter"",""5"",""53949""
","
","
","""event"",""trial"",""time""
""fullscreenenter"",""5"",""53949""
","
",NA,NA,NA,NA,NA,NA,NA,NA,NA,NA,NA,NA,NA,NA,NA,NA,NA,NA,NA,NA,NA,NA,sub40
d3-instructions,8,86662,0.0-8.0,TRUE,TRUE,FALSE,FALSE,"""event"",""trial"",""time""
""fullscreenenter"",""5"",""53949""
","
","
","""event"",""trial"",""time""
""fullscreenenter"",""5"",""53949""
","
",NA,NA,NA,NA,NA,NA,NA,NA,NA,NA,NA,NA,NA,NA,NA,NA,NA,NA,NA,NA,NA,NA,sub40
d3-instructions,9,98185,0.0-9.0,TRUE,TRUE,FALSE,FALSE,"""event"",""trial"",""time""
""fullscreenenter"",""5"",""53949""
","
","
","""event"",""trial"",""time""
""fullscreenenter"",""5"",""53949""
","
",NA,NA,NA,NA,NA,NA,NA,NA,NA,NA,NA,NA,NA,NA,NA,NA,NA,NA,NA,NA,NA,NA,sub40
d3-instructions,10,117983,0.0-10.0,TRUE,TRUE,FALSE,FALSE,"""event"",""trial"",""time""
""fullscreenenter"",""5"",""53949""
","
","
","""event"",""trial"",""time""
""fullscreenenter"",""5"",""53949""
","
",NA,NA,NA,NA,NA,NA,NA,NA,NA,NA,NA,NA,NA,NA,NA,NA,NA,NA,NA,NA,NA,NA,sub40
d3-animate-choice,11,123026,0.0-11.0,TRUE,TRUE,FALSE,FALSE,"""event"",""trial"",""time""
""fullscreenenter"",""5"",""53949""
","
","
","""event"",""trial"",""time""
""fullscreenenter"",""5"",""53949""
","
",3034.7299999993993,NA,49,NA,NA,3000,1,"4038.6800000051153,4892.4800000022515",4849,images/tutgreenplanet.jpg,images/tutalien1,images/tutalien2,null,images/tutalien2,NA,NA,practice,null,NA,NA,NA,NA,sub40
d3-animate-choice,12,126600,0.0-12.0,TRUE,TRUE,FALSE,FALSE,"""event"",""trial"",""time""
""fullscreenenter"",""5"",""53949""
","
","
","""event"",""trial"",""time""
""fullscreenenter"",""5"",""53949""
","
",1569.8100000008708,NA,48,NA,NA,3000,1,3379.1200000050594,48,images/tutgreenplanet.jpg,images/tutalien1,images/tutalien2,null,images/tutalien1,NA,NA,practice,null,NA,NA,NA,NA,sub40
d3-animate-choice,13,131378,0.0-13.0,TRUE,TRUE,FALSE,FALSE,"""event"",""trial"",""time""
""fullscreenenter"",""5"",""53949""
","
","
","""event"",""trial"",""time""
""fullscreenenter"",""5"",""53949""
","
",2773.8549999994575,NA,49,NA,NA,3000,1,NA,NA,images/tutgreenplanet.jpg,images/tutalien1,images/tutalien2,null,images/tutalien2,NA,NA,practice,null,NA,NA,NA,NA,sub40
d3-animate-choice,14,134078,0.0-14.0,TRUE,TRUE,FALSE,FALSE,"""event"",""trial"",""time""
""fullscreenenter"",""5"",""53949""
","
","
","""event"",""trial"",""time""
""fullscreenenter"",""5"",""53949""
","
",696.2950000015553,NA,48,NA,NA,3000,1,NA,NA,images/tutgreenplanet.jpg,images/tutalien1,images/tutalien2,null,images/tutalien1,NA,NA,practice,null,NA,NA,NA,NA,sub40
d3-instructions,15,141621,0.0-15.0,TRUE,TRUE,FALSE,FALSE,"""event"",""trial"",""time""
""fullscreenenter"",""5"",""53949""
","
","
","""event"",""trial"",""time""
""fullscreenenter"",""5"",""53949""
","
",NA,NA,NA,NA,NA,NA,NA,NA,NA,NA,NA,NA,NA,NA,NA,NA,NA,NA,NA,NA,NA,NA,sub40
d3-instructions,16,148536,0.0-16.0,TRUE,TRUE,FALSE,FALSE,"""event"",""trial"",""time""
""fullscreenenter"",""5"",""53949""
","
","
","""event"",""trial"",""time""
""fullscreenenter"",""5"",""53949""
","
",NA,NA,NA,NA,NA,NA,NA,NA,NA,NA,NA,NA,NA,NA,NA,NA,NA,NA,NA,NA,NA,NA,sub40
d3-instructions,17,157572,0.0-17.0,TRUE,TRUE,FALSE,FALSE,"""event"",""trial"",""time""
""fullscreenenter"",""5"",""53949""
","
","
","""event"",""trial"",""time""
""fullscreenenter"",""5"",""53949""
","
",NA,NA,NA,NA,NA,NA,NA,NA,NA,NA,NA,NA,NA,NA,NA,NA,NA,NA,NA,NA,NA,NA,sub40
d3-instructions,18,170701,0.0-18.0,TRUE,TRUE,FALSE,FALSE,"""event"",""trial"",""time""
""fullscreenenter"",""5"",""53949""
","
","
","""event"",""trial"",""time""
""fullscreenenter"",""5"",""53949""
","
",NA,NA,NA,NA,NA,NA,NA,NA,NA,NA,NA,NA,NA,NA,NA,NA,NA,NA,NA,NA,NA,NA,sub40
d3-instructions,19,185060,0.0-19.0,TRUE,TRUE,FALSE,FALSE,"""event"",""trial"",""time""
""fullscreenenter"",""5"",""53949""
","
","
","""event"",""trial"",""time""
""fullscreenenter"",""5"",""53949""
","
",NA,NA,NA,NA,NA,NA,NA,NA,NA,NA,NA,NA,NA,NA,NA,NA,NA,NA,NA,NA,NA,NA,sub40
d3-animate-choice,20,188212,0.0-20.0,TRUE,TRUE,FALSE,FALSE,"""event"",""trial"",""time""
""fullscreenenter"",""5"",""53949""
","
","
","""event"",""trial"",""time""
""fullscreenenter"",""5"",""53949""
","
",1147.43499999895,NA,49,NA,NA,3000,1,3052.3099999991246,49,images/tutyellowplanet.jpg,null,images/tutalien3,null,images/tutalien3,images/t.png,NA,practice,null,NA,NA,NA,NA,sub40
d3-animate-choice,21,191070,0.0-21.0,TRUE,TRUE,FALSE,FALSE,"""event"",""trial"",""time""
""fullscreenenter"",""5"",""53949""
","
","
","""event"",""trial"",""time""
""fullscreenenter"",""5"",""53949""
","
",855.5899999992107,NA,49,NA,NA,3000,1,NA,NA,images/tutyellowplanet.jpg,null,images/tutalien3,null,images/tutalien3,images/nothing.png,NA,practice,null,NA,NA,NA,NA,sub40
d3-animate-choice,22,193650,0.0-22.0,TRUE,TRUE,FALSE,FALSE,"""event"",""trial"",""time""
""fullscreenenter"",""5"",""53949""
","
","
","""event"",""trial"",""time""
""fullscreenenter"",""5"",""53949""
","
",576.6100000037113,NA,49,NA,NA,3000,1,NA,NA,images/tutyellowplanet.jpg,null,images/tutalien3,null,images/tutalien3,images/t.png,NA,practice,null,NA,NA,NA,NA,sub40
d3-animate-choice,23,196592,0.0-23.0,TRUE,TRUE,FALSE,FALSE,"""event"",""trial"",""time""
""fullscreenenter"",""5"",""53949""
","
","
","""event"",""trial"",""time""
""fullscreenenter"",""5"",""53949""
","
",938.6549999981071,NA,49,NA,NA,3000,1,NA,NA,images/tutyellowplanet.jpg,null,images/tutalien3,null,images/tutalien3,images/t.png,NA,practice,null,NA,NA,NA,NA,sub40
d3-animate-choice,24,199148,0.0-24.0,TRUE,TRUE,FALSE,FALSE,"""event"",""trial"",""time""
""fullscreenenter"",""5"",""53949""
","
","
","""event"",""trial"",""time""
""fullscreenenter"",""5"",""53949""
","
",552.1399999997811,NA,49,NA,NA,3000,1,NA,NA,images/tutyellowplanet.jpg,null,images/tutalien3,null,images/tutalien3,images/t.png,NA,practice,null,NA,NA,NA,NA,sub40
d3-animate-choice,25,201232,0.0-25.0,TRUE,TRUE,FALSE,FALSE,"""event"",""trial"",""time""
""fullscreenenter"",""5"",""53949""
","
","
","""event"",""trial"",""time""
""fullscreenenter"",""5"",""53949""
","
",80.75500000268221,NA,49,NA,NA,3000,1,NA,NA,images/tutyellowplanet.jpg,null,images/tutalien3,null,images/tutalien3,images/t.png,NA,practice,null,NA,NA,NA,NA,sub40
d3-animate-choice,26,203671,0.0-26.0,TRUE,TRUE,FALSE,FALSE,"""event"",""trial"",""time""
""fullscreenenter"",""5"",""53949""
","
","
","""event"",""trial"",""time""
""fullscreenenter"",""5"",""53949""
","
",436.17499999527354,NA,49,NA,NA,3000,1,NA,NA,images/tutyellowplanet.jpg,null,images/tutalien3,null,images/tutalien3,images/t.png,NA,practice,null,NA,NA,NA,NA,sub40
d3-animate-choice,27,206131,0.0-27.0,TRUE,TRUE,FALSE,FALSE,"""event"",""trial"",""time""
""fullscreenenter"",""5"",""53949""
","
","
","""event"",""trial"",""time""
""fullscreenenter"",""5"",""53949""
","
",456.5900000015972,NA,49,NA,NA,3000,1,NA,NA,images/tutyellowplanet.jpg,null,images/tutalien3,null,images/tutalien3,images/nothing.png,NA,practice,null,NA,NA,NA,NA,sub40
d3-animate-choice,28,208752,0.0-28.0,TRUE,TRUE,FALSE,FALSE,"""event"",""trial"",""time""
""fullscreenenter"",""5"",""53949""
","
","
","""event"",""trial"",""time""
""fullscreenenter"",""5"",""53949""
","
",617.5549999970826,NA,49,NA,NA,3000,1,NA,NA,images/tutyellowplanet.jpg,null,images/tutalien3,null,images/tutalien3,images/nothing.png,NA,practice,null,NA,NA,NA,NA,sub40
d3-animate-choice,29,211197,0.0-29.0,TRUE,TRUE,FALSE,FALSE,"""event"",""trial"",""time""
""fullscreenenter"",""5"",""53949""
","
","
","""event"",""trial"",""time""
""fullscreenenter"",""5"",""53949""
","
",442.1650000003865,NA,49,NA,NA,3000,1,NA,NA,images/tutyellowplanet.jpg,null,images/tutalien3,null,images/tutalien3,images/nothing.png,NA,practice,null,NA,NA,NA,NA,sub40
d3-instructions,30,219551,0.0-30.0,TRUE,TRUE,FALSE,FALSE,"""event"",""trial"",""time""
""fullscreenenter"",""5"",""53949""
","
","
","""event"",""trial"",""time""
""fullscreenenter"",""5"",""53949""
","
",NA,NA,NA,NA,NA,NA,NA,NA,NA,NA,NA,NA,NA,NA,NA,NA,NA,NA,NA,NA,NA,NA,sub40
d3-instructions,31,231257,0.0-31.0,TRUE,TRUE,FALSE,FALSE,"""event"",""trial"",""time""
""fullscreenenter"",""5"",""53949""
","
","
","""event"",""trial"",""time""
""fullscreenenter"",""5"",""53949""
","
",NA,NA,NA,NA,NA,NA,NA,NA,NA,NA,NA,NA,NA,NA,NA,NA,NA,NA,NA,NA,NA,NA,sub40
d3-instructions,32,247873,0.0-32.0,TRUE,TRUE,FALSE,FALSE,"""event"",""trial"",""time""
""fullscreenenter"",""5"",""53949""
","
","
","""event"",""trial"",""time""
""fullscreenenter"",""5"",""53949""
","
",NA,NA,NA,NA,NA,NA,NA,NA,NA,NA,NA,NA,NA,NA,NA,NA,NA,NA,NA,NA,NA,NA,sub40
d3-instructions,33,258880,0.0-33.0,TRUE,TRUE,FALSE,FALSE,"""event"",""trial"",""time""
""fullscreenenter"",""5"",""53949""
","
","
","""event"",""trial"",""time""
""fullscreenenter"",""5"",""53949""
","
",NA,NA,NA,NA,NA,NA,NA,NA,NA,NA,NA,NA,NA,NA,NA,NA,NA,NA,NA,NA,NA,NA,sub40
d3-animate-choice,34,262322,0.0-34.0,TRUE,TRUE,FALSE,FALSE,"""event"",""trial"",""time""
""fullscreenenter"",""5"",""53949""
","
","
","""event"",""trial"",""time""
""fullscreenenter"",""5"",""53949""
","
",1439.010000001872,NA,49,NA,NA,3000,1,NA,NA,images/tutgreenplanet.jpg,images/tutalien1,images/tutalien2,null,images/tutalien2,images/t.png,NA,practice,null,NA,NA,NA,NA,sub40
d3-animate-choice,35,265556,0.0-35.0,TRUE,TRUE,FALSE,FALSE,"""event"",""trial"",""time""
""fullscreenenter"",""5"",""53949""
","
","
","""event"",""trial"",""time""
""fullscreenenter"",""5"",""53949""
","
",1230.7100000034552,NA,48,NA,NA,3000,1,NA,NA,images/tutgreenplanet.jpg,images/tutalien1,images/tutalien2,null,images/tutalien1,images/nothing.png,NA,practice,null,NA,NA,NA,NA,sub40
d3-animate-choice,36,268111,0.0-36.0,TRUE,TRUE,FALSE,FALSE,"""event"",""trial"",""time""
""fullscreenenter"",""5"",""53949""
","
","
","""event"",""trial"",""time""
""fullscreenenter"",""5"",""53949""
","
",551.9349999958649,NA,48,NA,NA,3000,1,NA,NA,images/tutgreenplanet.jpg,images/tutalien1,images/tutalien2,null,images/tutalien1,images/nothing.png,NA,practice,null,NA,NA,NA,NA,sub40
d3-animate-choice,37,270656,0.0-37.0,TRUE,TRUE,FALSE,FALSE,"""event"",""trial"",""time""
""fullscreenenter"",""5"",""53949""
","
","
","""event"",""trial"",""time""
""fullscreenenter"",""5"",""53949""
","
",541.0799999954179,NA,49,NA,NA,3000,1,NA,NA,images/tutgreenplanet.jpg,images/tutalien1,images/tutalien2,null,images/tutalien2,images/t.png,NA,practice,null,NA,NA,NA,NA,sub40
d3-animate-choice,38,273188,0.0-38.0,TRUE,TRUE,FALSE,FALSE,"""event"",""trial"",""time""
""fullscreenenter"",""5"",""53949""
","
","
","""event"",""trial"",""time""
""fullscreenenter"",""5"",""53949""
","
",527.6899999953457,NA,49,NA,NA,3000,1,NA,NA,images/tutgreenplanet.jpg,images/tutalien1,images/tutalien2,null,images/tutalien2,images/t.png,NA,practice,null,NA,NA,NA,NA,sub40
d3-animate-choice,39,276593,0.0-39.0,TRUE,TRUE,FALSE,FALSE,"""event"",""trial"",""time""
""fullscreenenter"",""5"",""53949""
","
","
","""event"",""trial"",""time""
""fullscreenenter"",""5"",""53949""
","
",1401.8849999993108,NA,48,NA,NA,3000,1,NA,NA,images/tutgreenplanet.jpg,images/tutalien1,images/tutalien2,null,images/tutalien1,images/nothing.png,NA,practice,null,NA,NA,NA,NA,sub40
d3-animate-choice,40,279242,0.0-40.0,TRUE,TRUE,FALSE,FALSE,"""event"",""trial"",""time""
""fullscreenenter"",""5"",""53949""
","
","
","""event"",""trial"",""time""
""fullscreenenter"",""5"",""53949""
","
",645.6600000019534,NA,49,NA,NA,3000,1,NA,NA,images/tutgreenplanet.jpg,images/tutalien1,images/tutalien2,null,images/tutalien2,images/t.png,NA,practice,null,NA,NA,NA,NA,sub40
d3-animate-choice,41,281987,0.0-41.0,TRUE,TRUE,FALSE,FALSE,"""event"",""trial"",""time""
""fullscreenenter"",""5"",""53949""
","
","
","""event"",""trial"",""time""
""fullscreenenter"",""5"",""53949""
","
",740.4999999998836,NA,48,NA,NA,3000,1,NA,NA,images/tutgreenplanet.jpg,images/tutalien1,images/tutalien2,null,images/tutalien1,images/nothing.png,NA,practice,null,NA,NA,NA,NA,sub40
d3-animate-choice,42,286106,0.0-42.0,TRUE,TRUE,FALSE,FALSE,"""event"",""trial"",""time""
""fullscreenenter"",""5"",""53949""
","
","
","""event"",""trial"",""time""
""fullscreenenter"",""5"",""53949""
","
",2116.150000001653,NA,48,NA,NA,3000,1,NA,NA,images/tutgreenplanet.jpg,images/tutalien1,images/tutalien2,null,images/tutalien1,images/t.png,NA,practice,null,NA,NA,NA,NA,sub40
d3-animate-choice,43,288719,0.0-43.0,TRUE,TRUE,FALSE,FALSE,"""event"",""trial"",""time""
""fullscreenenter"",""5"",""53949""
","
","
","""event"",""trial"",""time""
""fullscreenenter"",""5"",""53949""
","
",610.3299999958836,NA,49,NA,NA,3000,1,2430.9900000007474,48,images/tutgreenplanet.jpg,images/tutalien1,images/tutalien2,null,images/tutalien2,images/t.png,NA,practice,null,NA,NA,NA,NA,sub40
d3-instructions,44,301696,0.0-44.0,TRUE,TRUE,FALSE,FALSE,"""event"",""trial"",""time""
""fullscreenenter"",""5"",""53949""
","
","
","""event"",""trial"",""time""
""fullscreenenter"",""5"",""53949""
","
",NA,NA,NA,NA,NA,NA,NA,NA,NA,NA,NA,NA,NA,NA,NA,NA,NA,NA,NA,NA,NA,NA,sub40
d3-instructions,45,309933,0.0-45.0,TRUE,TRUE,FALSE,FALSE,"""event"",""trial"",""time""
""fullscreenenter"",""5"",""53949""
","
","
","""event"",""trial"",""time""
""fullscreenenter"",""5"",""53949""
","
",NA,NA,NA,NA,NA,NA,NA,NA,NA,NA,NA,NA,NA,NA,NA,NA,NA,NA,NA,NA,NA,NA,sub40
d3-instructions,46,316925,0.0-46.0,TRUE,TRUE,FALSE,FALSE,"""event"",""trial"",""time""
""fullscreenenter"",""5"",""53949""
","
","
","""event"",""trial"",""time""
""fullscreenenter"",""5"",""53949""
","
",NA,NA,NA,NA,NA,NA,NA,NA,NA,NA,NA,NA,NA,NA,NA,NA,NA,NA,NA,NA,NA,NA,sub40
d3-instructions,47,334819,0.0-47.0,TRUE,TRUE,FALSE,FALSE,"""event"",""trial"",""time""
""fullscreenenter"",""5"",""53949""
","
","
","""event"",""trial"",""time""
""fullscreenenter"",""5"",""53949""
","
",NA,NA,NA,NA,NA,NA,NA,NA,NA,NA,NA,NA,NA,NA,NA,NA,NA,NA,NA,NA,NA,NA,sub40
d3-instructions,48,343726,0.0-48.0,TRUE,TRUE,FALSE,FALSE,"""event"",""trial"",""time""
""fullscreenenter"",""5"",""53949""
","
","
","""event"",""trial"",""time""
""fullscreenenter"",""5"",""53949""
","
",NA,NA,NA,NA,NA,NA,NA,NA,NA,NA,NA,NA,NA,NA,NA,NA,NA,NA,NA,NA,NA,NA,sub40
d3-instructions,49,355167,0.0-49.0,TRUE,TRUE,FALSE,FALSE,"""event"",""trial"",""time""
""fullscreenenter"",""5"",""53949""
","
","
","""event"",""trial"",""time""
""fullscreenenter"",""5"",""53949""
","
",NA,NA,NA,NA,NA,NA,NA,NA,NA,NA,NA,NA,NA,NA,NA,NA,NA,NA,NA,NA,NA,NA,sub40
d3-instructions,50,365847,0.0-50.0,TRUE,TRUE,FALSE,FALSE,"""event"",""trial"",""time""
""fullscreenenter"",""5"",""53949""
","
","
","""event"",""trial"",""time""
""fullscreenenter"",""5"",""53949""
","
",NA,NA,NA,NA,NA,NA,NA,NA,NA,NA,NA,NA,NA,NA,NA,NA,NA,NA,NA,NA,NA,NA,sub40
d3-instructions,51,369664,0.0-51.0,TRUE,TRUE,FALSE,FALSE,"""event"",""trial"",""time""
""fullscreenenter"",""5"",""53949""
","
","
","""event"",""trial"",""time""
""fullscreenenter"",""5"",""53949""
","
",NA,NA,NA,NA,NA,NA,NA,NA,NA,NA,NA,NA,NA,NA,NA,NA,NA,NA,NA,NA,NA,NA,sub40
d3-instructions,52,374869,0.0-52.0,TRUE,TRUE,FALSE,FALSE,"""event"",""trial"",""time""
""fullscreenenter"",""5"",""53949""
","
","
","""event"",""trial"",""time""
""fullscreenenter"",""5"",""53949""
","
",NA,NA,NA,NA,NA,NA,NA,NA,NA,NA,NA,NA,NA,NA,NA,NA,NA,NA,NA,NA,NA,NA,sub40
d3-instructions,53,387785,0.0-53.0,TRUE,TRUE,FALSE,FALSE,"""event"",""trial"",""time""
""fullscreenenter"",""5"",""53949""
","
","
","""event"",""trial"",""time""
""fullscreenenter"",""5"",""53949""
","
",NA,NA,NA,NA,NA,NA,NA,NA,NA,NA,NA,NA,NA,NA,NA,NA,NA,NA,NA,NA,NA,NA,sub40
d3-instructions,54,404030,0.0-54.0,TRUE,TRUE,FALSE,FALSE,"""event"",""trial"",""time""
""fullscreenenter"",""5"",""53949""
","
","
","""event"",""trial"",""time""
""fullscreenenter"",""5"",""53949""
","
",NA,NA,NA,NA,NA,NA,NA,NA,NA,NA,NA,NA,NA,NA,NA,NA,NA,NA,NA,NA,NA,NA,sub40
d3-instructions,55,416270,0.0-55.0,TRUE,TRUE,FALSE,FALSE,"""event"",""trial"",""time""
""fullscreenenter"",""5"",""53949""
","
","
","""event"",""trial"",""time""
""fullscreenenter"",""5"",""53949""
","
",NA,NA,NA,NA,NA,NA,NA,NA,NA,NA,NA,NA,NA,NA,NA,NA,NA,NA,NA,NA,NA,NA,sub40
d3-instructions,56,429142,0.0-56.0,TRUE,TRUE,FALSE,FALSE,"""event"",""trial"",""time""
""fullscreenenter"",""5"",""53949""
","
","
","""event"",""trial"",""time""
""fullscreenenter"",""5"",""53949""
","
",NA,NA,NA,NA,NA,NA,NA,NA,NA,NA,NA,NA,NA,NA,NA,NA,NA,NA,NA,NA,NA,NA,sub40
d3-instructions,57,442255,0.0-57.0,TRUE,TRUE,FALSE,FALSE,"""event"",""trial"",""time""
""fullscreenenter"",""5"",""53949""
","
","
","""event"",""trial"",""time""
""fullscreenenter"",""5"",""53949""
","
",NA,NA,NA,NA,NA,NA,NA,NA,NA,NA,NA,NA,NA,NA,NA,NA,NA,NA,NA,NA,NA,NA,sub40
d3-instructions,58,454342,0.0-58.0,TRUE,TRUE,FALSE,FALSE,"""event"",""trial"",""time""
""fullscreenenter"",""5"",""53949""
","
","
","""event"",""trial"",""time""
""fullscreenenter"",""5"",""53949""
","
",NA,NA,NA,NA,NA,NA,NA,NA,NA,NA,NA,NA,NA,NA,NA,NA,NA,NA,NA,NA,NA,NA,sub40
d3-instructions,59,459865,0.0-59.0,TRUE,TRUE,FALSE,FALSE,"""event"",""trial"",""time""
""fullscreenenter"",""5"",""53949""
","
","
","""event"",""trial"",""time""
""fullscreenenter"",""5"",""53949""
","
",NA,NA,NA,NA,NA,NA,NA,NA,NA,NA,NA,NA,NA,NA,NA,NA,NA,NA,NA,NA,NA,NA,sub40
d3-instructions,60,467572,0.0-60.0,TRUE,TRUE,FALSE,FALSE,"""event"",""trial"",""time""
""fullscreenenter"",""5"",""53949""
","
","
","""event"",""trial"",""time""
""fullscreenenter"",""5"",""53949""
","
",NA,NA,NA,NA,NA,NA,NA,NA,NA,NA,NA,NA,NA,NA,NA,NA,NA,NA,NA,NA,NA,NA,sub40
d3-animate-choice,61,470660,0.0-61.0-0.0,TRUE,TRUE,FALSE,FALSE,"""event"",""trial"",""time""
""fullscreenenter"",""5"",""53949""
","
","
","""event"",""trial"",""time""
""fullscreenenter"",""5"",""53949""
","
",1083.1400000024587,NA,49,NA,NA,3000,1,NA,NA,images/earth.jpg,images/tutrocket1,images/tutrocket2,null,images/tutrocket2,NA,1,practice,null,1,NA,NA,NA,sub40
d3-animate-choice,62,474398,0.0-61.0-1.0,TRUE,TRUE,FALSE,FALSE,"""event"",""trial"",""time""
""fullscreenenter"",""5"",""53949""
","
","
","""event"",""trial"",""time""
""fullscreenenter"",""5"",""53949""
","
",1730.1250000018626,NA,48,NA,NA,3000,1,2173.8250000053085,57,images/tutyellowplanet.jpg,images/tutalien4,images/tutalien3,images/tutrocket2,images/tutalien4,images/t.png,2,practice,true,2,common,1,2020-06-12T23:06:05Z,sub40
two-step-fixation,63,475405,0.0-61.0-2.0,TRUE,TRUE,FALSE,FALSE,"""event"",""trial"",""time""
""fullscreenenter"",""5"",""53949""
","
","
","""event"",""trial"",""time""
""fullscreenenter"",""5"",""53949""
","
",NA,images/earth.jpg,NA,NA,NA,NA,NA,NA,NA,NA,NA,NA,NA,NA,NA,fixation,NA,NA,NA,NA,NA,NA,sub40
d3-animate-choice,64,478365,0.0-61.0-0.1,TRUE,TRUE,FALSE,FALSE,"""event"",""trial"",""time""
""fullscreenenter"",""5"",""53949""
","
","
","""event"",""trial"",""time""
""fullscreenenter"",""5"",""53949""
","
",956.5399999991059,NA,48,NA,NA,3000,1,NA,NA,images/earth.jpg,images/tutrocket1,images/tutrocket2,null,images/tutrocket1,NA,1,practice,null,2,NA,NA,NA,sub40
d3-animate-choice,65,481438,0.0-61.0-1.1,TRUE,TRUE,FALSE,FALSE,"""event"",""trial"",""time""
""fullscreenenter"",""5"",""53949""
","
","
","""event"",""trial"",""time""
""fullscreenenter"",""5"",""53949""
","
",1069.6950000056531,NA,49,NA,NA,3000,1,NA,NA,images/tutgreenplanet.jpg,images/tutalien2,images/tutalien1,images/tutrocket1,images/tutalien1,images/nothing.png,2,practice,true,1,common,0,2020-06-12T23:06:12Z,sub40
two-step-fixation,66,482442,0.0-61.0-2.1,TRUE,TRUE,FALSE,FALSE,"""event"",""trial"",""time""
""fullscreenenter"",""5"",""53949""
","
","
","""event"",""trial"",""time""
""fullscreenenter"",""5"",""53949""
","
",NA,images/earth.jpg,NA,NA,NA,NA,NA,NA,NA,NA,NA,NA,NA,NA,NA,fixation,NA,NA,NA,NA,NA,NA,sub40
d3-animate-choice,67,484846,0.0-61.0-0.2,TRUE,TRUE,FALSE,FALSE,"""event"",""trial"",""time""
""fullscreenenter"",""5"",""53949""
","
","
","""event"",""trial"",""time""
""fullscreenenter"",""5"",""53949""
","
",399.8199999987846,NA,48,NA,NA,3000,1,NA,NA,images/earth.jpg,images/tutrocket1,images/tutrocket2,null,images/tutrocket1,NA,1,practice,null,2,NA,NA,NA,sub40
d3-animate-choice,68,487677,0.0-61.0-1.2,TRUE,TRUE,FALSE,FALSE,"""event"",""trial"",""time""
""fullscreenenter"",""5"",""53949""
","
","
","""event"",""trial"",""time""
""fullscreenenter"",""5"",""53949""
","
",827.7850000013132,NA,48,NA,NA,3000,1,NA,NA,images/tutyellowplanet.jpg,images/tutalien4,images/tutalien3,images/tutrocket1,images/tutalien4,images/t.png,2,practice,false,2,rare,1,2020-06-12T23:06:18Z,sub40
two-step-fixation,69,488681,0.0-61.0-2.2,TRUE,TRUE,FALSE,FALSE,"""event"",""trial"",""time""
""fullscreenenter"",""5"",""53949""
","
","
","""event"",""trial"",""time""
""fullscreenenter"",""5"",""53949""
","
",NA,images/earth.jpg,NA,NA,NA,NA,NA,NA,NA,NA,NA,NA,NA,NA,NA,fixation,NA,NA,NA,NA,NA,NA,sub40
d3-animate-choice,70,491025,0.0-61.0-0.3,TRUE,TRUE,FALSE,FALSE,"""event"",""trial"",""time""
""fullscreenenter"",""5"",""53949""
","
","
","""event"",""trial"",""time""
""fullscreenenter"",""5"",""53949""
","
",340.20500000042375,NA,49,NA,NA,3000,1,NA,NA,images/earth.jpg,images/tutrocket1,images/tutrocket2,null,images/tutrocket2,NA,1,practice,null,1,NA,NA,NA,sub40
d3-animate-choice,71,493820,0.0-61.0-1.3,TRUE,TRUE,FALSE,FALSE,"""event"",""trial"",""time""
""fullscreenenter"",""5"",""53949""
","
","
","""event"",""trial"",""time""
""fullscreenenter"",""5"",""53949""
","
",791.5700000012293,NA,48,NA,NA,3000,1,NA,NA,images/tutyellowplanet.jpg,images/tutalien4,images/tutalien3,images/tutrocket2,images/tutalien4,images/nothing.png,2,practice,true,2,common,0,2020-06-12T23:06:24Z,sub40
two-step-fixation,72,494823,0.0-61.0-2.3,TRUE,TRUE,FALSE,FALSE,"""event"",""trial"",""time""
""fullscreenenter"",""5"",""53949""
","
","
","""event"",""trial"",""time""
""fullscreenenter"",""5"",""53949""
","
",NA,images/earth.jpg,NA,NA,NA,NA,NA,NA,NA,NA,NA,NA,NA,NA,NA,fixation,NA,NA,NA,NA,NA,NA,sub40
d3-animate-choice,73,497173,0.0-61.0-0.4,TRUE,TRUE,FALSE,FALSE,"""event"",""trial"",""time""
""fullscreenenter"",""5"",""53949""
","
","
","""event"",""trial"",""time""
""fullscreenenter"",""5"",""53949""
","
",345.8949999985052,NA,49,NA,NA,3000,1,NA,NA,images/earth.jpg,images/tutrocket1,images/tutrocket2,null,images/tutrocket2,NA,1,practice,null,1,NA,NA,NA,sub40
d3-animate-choice,74,499566,0.0-61.0-1.4,TRUE,TRUE,FALSE,FALSE,"""event"",""trial"",""time""
""fullscreenenter"",""5"",""53949""
","
","
","""event"",""trial"",""time""
""fullscreenenter"",""5"",""53949""
","
",387.9449999949429,NA,49,NA,NA,3000,1,NA,NA,images/tutyellowplanet.jpg,images/tutalien4,images/tutalien3,images/tutrocket2,images/tutalien3,images/nothing.png,2,practice,true,1,common,0,2020-06-12T23:06:30Z,sub40
two-step-fixation,75,500569,0.0-61.0-2.4,TRUE,TRUE,FALSE,FALSE,"""event"",""trial"",""time""
""fullscreenenter"",""5"",""53949""
","
","
","""event"",""trial"",""time""
""fullscreenenter"",""5"",""53949""
","
",NA,images/earth.jpg,NA,NA,NA,NA,NA,NA,NA,NA,NA,NA,NA,NA,NA,fixation,NA,NA,NA,NA,NA,NA,sub40
d3-animate-choice,76,502885,0.0-61.0-0.5,TRUE,TRUE,FALSE,FALSE,"""event"",""trial"",""time""
""fullscreenenter"",""5"",""53949""
","
","
","""event"",""trial"",""time""
""fullscreenenter"",""5"",""53949""
","
",312.73499999952037,NA,48,NA,NA,3000,1,NA,NA,images/earth.jpg,images/tutrocket1,images/tutrocket2,null,images/tutrocket1,NA,1,practice,null,2,NA,NA,NA,sub40
d3-animate-choice,77,505306,0.0-61.0-1.5,TRUE,TRUE,FALSE,FALSE,"""event"",""trial"",""time""
""fullscreenenter"",""5"",""53949""
","
","
","""event"",""trial"",""time""
""fullscreenenter"",""5"",""53949""
","
",415.974999996135,NA,49,NA,NA,3000,1,NA,NA,images/tutgreenplanet.jpg,images/tutalien2,images/tutalien1,images/tutrocket1,images/tutalien1,images/nothing.png,2,practice,true,1,common,0,2020-06-12T23:06:36Z,sub40
two-step-fixation,78,506308,0.0-61.0-2.5,TRUE,TRUE,FALSE,FALSE,"""event"",""trial"",""time""
""fullscreenenter"",""5"",""53949""
","
","
","""event"",""trial"",""time""
""fullscreenenter"",""5"",""53949""
","
",NA,images/earth.jpg,NA,NA,NA,NA,NA,NA,NA,NA,NA,NA,NA,NA,NA,fixation,NA,NA,NA,NA,NA,NA,sub40
d3-animate-choice,79,508868,0.0-61.0-0.6,TRUE,TRUE,FALSE,FALSE,"""event"",""trial"",""time""
""fullscreenenter"",""5"",""53949""
","
","
","""event"",""trial"",""time""
""fullscreenenter"",""5"",""53949""
","
",555.9499999944819,NA,48,NA,NA,3000,1,NA,NA,images/earth.jpg,images/tutrocket1,images/tutrocket2,null,images/tutrocket1,NA,1,practice,null,2,NA,NA,NA,sub40
d3-animate-choice,80,511327,0.0-61.0-1.6,TRUE,TRUE,FALSE,FALSE,"""event"",""trial"",""time""
""fullscreenenter"",""5"",""53949""
","
","
","""event"",""trial"",""time""
""fullscreenenter"",""5"",""53949""
","
",455.5449999971315,NA,48,NA,NA,3000,1,NA,NA,images/tutgreenplanet.jpg,images/tutalien2,images/tutalien1,images/tutrocket1,images/tutalien2,images/nothing.png,2,practice,true,2,common,0,2020-06-12T23:06:42Z,sub40
two-step-fixation,81,512329,0.0-61.0-2.6,TRUE,TRUE,FALSE,FALSE,"""event"",""trial"",""time""
""fullscreenenter"",""5"",""53949""
","
","
","""event"",""trial"",""time""
""fullscreenenter"",""5"",""53949""
","
",NA,images/earth.jpg,NA,NA,NA,NA,NA,NA,NA,NA,NA,NA,NA,NA,NA,fixation,NA,NA,NA,NA,NA,NA,sub40
d3-animate-choice,82,514682,0.0-61.0-0.7,TRUE,TRUE,FALSE,FALSE,"""event"",""trial"",""time""
""fullscreenenter"",""5"",""53949""
","
","
","""event"",""trial"",""time""
""fullscreenenter"",""5"",""53949""
","
",349.1599999979371,NA,49,NA,NA,3000,1,NA,NA,images/earth.jpg,images/tutrocket1,images/tutrocket2,null,images/tutrocket2,NA,1,practice,null,1,NA,NA,NA,sub40
d3-animate-choice,83,517143,0.0-61.0-1.7,TRUE,TRUE,FALSE,FALSE,"""event"",""trial"",""time""
""fullscreenenter"",""5"",""53949""
","
","
","""event"",""trial"",""time""
""fullscreenenter"",""5"",""53949""
","
",457.0549999990035,NA,49,NA,NA,3000,1,NA,NA,images/tutyellowplanet.jpg,images/tutalien4,images/tutalien3,images/tutrocket2,images/tutalien3,images/nothing.png,2,practice,true,1,common,0,2020-06-12T23:06:47Z,sub40
two-step-fixation,84,518146,0.0-61.0-2.7,TRUE,TRUE,FALSE,FALSE,"""event"",""trial"",""time""
""fullscreenenter"",""5"",""53949""
","
","
","""event"",""trial"",""time""
""fullscreenenter"",""5"",""53949""
","
",NA,images/earth.jpg,NA,NA,NA,NA,NA,NA,NA,NA,NA,NA,NA,NA,NA,fixation,NA,NA,NA,NA,NA,NA,sub40
d3-animate-choice,85,520478,0.0-61.0-0.8,TRUE,TRUE,FALSE,FALSE,"""event"",""trial"",""time""
""fullscreenenter"",""5"",""53949""
","
","
","""event"",""trial"",""time""
""fullscreenenter"",""5"",""53949""
","
",327.92999999946915,NA,49,NA,NA,3000,1,NA,NA,images/earth.jpg,images/tutrocket1,images/tutrocket2,null,images/tutrocket2,NA,1,practice,null,1,NA,NA,NA,sub40
d3-animate-choice,86,522940,0.0-61.0-1.8,TRUE,TRUE,FALSE,FALSE,"""event"",""trial"",""time""
""fullscreenenter"",""5"",""53949""
","
","
","""event"",""trial"",""time""
""fullscreenenter"",""5"",""53949""
","
",457.8349999936763,NA,48,NA,NA,3000,1,NA,NA,images/tutgreenplanet.jpg,images/tutalien2,images/tutalien1,images/tutrocket2,images/tutalien2,images/nothing.png,2,practice,false,2,rare,0,2020-06-12T23:06:53Z,sub40
two-step-fixation,87,523944,0.0-61.0-2.8,TRUE,TRUE,FALSE,FALSE,"""event"",""trial"",""time""
""fullscreenenter"",""5"",""53949""
","
","
","""event"",""trial"",""time""
""fullscreenenter"",""5"",""53949""
","
",NA,images/earth.jpg,NA,NA,NA,NA,NA,NA,NA,NA,NA,NA,NA,NA,NA,fixation,NA,NA,NA,NA,NA,NA,sub40
d3-animate-choice,88,526176,0.0-61.0-0.9,TRUE,TRUE,FALSE,FALSE,"""event"",""trial"",""time""
""fullscreenenter"",""5"",""53949""
","
","
","""event"",""trial"",""time""
""fullscreenenter"",""5"",""53949""
","
",228.06000000122003,NA,48,NA,NA,3000,1,NA,NA,images/earth.jpg,images/tutrocket1,images/tutrocket2,null,images/tutrocket1,NA,1,practice,null,2,NA,NA,NA,sub40
d3-animate-choice,89,528699,0.0-61.0-1.9,TRUE,TRUE,FALSE,FALSE,"""event"",""trial"",""time""
""fullscreenenter"",""5"",""53949""
","
","
","""event"",""trial"",""time""
""fullscreenenter"",""5"",""53949""
","
",519.7600000029197,NA,49,NA,NA,3000,1,NA,NA,images/tutyellowplanet.jpg,images/tutalien4,images/tutalien3,images/tutrocket1,images/tutalien3,images/t.png,2,practice,false,1,rare,1,2020-06-12T23:06:59Z,sub40
two-step-fixation,90,529703,0.0-61.0-2.9,TRUE,TRUE,FALSE,FALSE,"""event"",""trial"",""time""
""fullscreenenter"",""5"",""53949""
","
","
","""event"",""trial"",""time""
""fullscreenenter"",""5"",""53949""
","
",NA,images/earth.jpg,NA,NA,NA,NA,NA,NA,NA,NA,NA,NA,NA,NA,NA,fixation,NA,NA,NA,NA,NA,NA,sub40
d3-animate-choice,91,532228,0.0-61.0-0.10,TRUE,TRUE,FALSE,FALSE,"""event"",""trial"",""time""
""fullscreenenter"",""5"",""53949""
","
","
","""event"",""trial"",""time""
""fullscreenenter"",""5"",""53949""
","
",521.5600000011036,NA,48,NA,NA,3000,1,NA,NA,images/earth.jpg,images/tutrocket1,images/tutrocket2,null,images/tutrocket1,NA,1,practice,null,2,NA,NA,NA,sub40
d3-animate-choice,92,534891,0.0-61.0-1.10,TRUE,TRUE,FALSE,FALSE,"""event"",""trial"",""time""
""fullscreenenter"",""5"",""53949""
","
","
","""event"",""trial"",""time""
""fullscreenenter"",""5"",""53949""
","
",659.5649999944726,NA,48,NA,NA,3000,1,NA,NA,images/tutyellowplanet.jpg,images/tutalien4,images/tutalien3,images/tutrocket1,images/tutalien4,images/t.png,2,practice,false,2,rare,1,2020-06-12T23:07:05Z,sub40
two-step-fixation,93,535895,0.0-61.0-2.10,TRUE,TRUE,FALSE,FALSE,"""event"",""trial"",""time""
""fullscreenenter"",""5"",""53949""
","
","
","""event"",""trial"",""time""
""fullscreenenter"",""5"",""53949""
","
",NA,images/earth.jpg,NA,NA,NA,NA,NA,NA,NA,NA,NA,NA,NA,NA,NA,fixation,NA,NA,NA,NA,NA,NA,sub40
d3-animate-choice,94,538265,0.0-61.0-0.11,TRUE,TRUE,FALSE,FALSE,"""event"",""trial"",""time""
""fullscreenenter"",""5"",""53949""
","
","
","""event"",""trial"",""time""
""fullscreenenter"",""5"",""53949""
","
",366.8099999995902,NA,48,NA,NA,3000,1,NA,NA,images/earth.jpg,images/tutrocket1,images/tutrocket2,null,images/tutrocket1,NA,1,practice,null,2,NA,NA,NA,sub40
d3-animate-choice,95,540631,0.0-61.0-1.11,TRUE,TRUE,FALSE,FALSE,"""event"",""trial"",""time""
""fullscreenenter"",""5"",""53949""
","
","
","""event"",""trial"",""time""
""fullscreenenter"",""5"",""53949""
","
",361.23500000394415,NA,48,NA,NA,3000,1,NA,NA,images/tutgreenplanet.jpg,images/tutalien2,images/tutalien1,images/tutrocket1,images/tutalien2,images/t.png,2,practice,true,2,common,1,2020-06-12T23:07:11Z,sub40
two-step-fixation,96,541635,0.0-61.0-2.11,TRUE,TRUE,FALSE,FALSE,"""event"",""trial"",""time""
""fullscreenenter"",""5"",""53949""
","
","
","""event"",""trial"",""time""
""fullscreenenter"",""5"",""53949""
","
",NA,images/earth.jpg,NA,NA,NA,NA,NA,NA,NA,NA,NA,NA,NA,NA,NA,fixation,NA,NA,NA,NA,NA,NA,sub40
d3-animate-choice,97,544273,0.0-61.0-0.12,TRUE,TRUE,FALSE,FALSE,"""event"",""trial"",""time""
""fullscreenenter"",""5"",""53949""
","
","
","""event"",""trial"",""time""
""fullscreenenter"",""5"",""53949""
","
",634.565000000177,NA,49,NA,NA,3000,1,NA,NA,images/earth.jpg,images/tutrocket1,images/tutrocket2,null,images/tutrocket2,NA,1,practice,null,1,NA,NA,NA,sub40
d3-animate-choice,98,547119,0.0-61.0-1.12,TRUE,TRUE,FALSE,FALSE,"""event"",""trial"",""time""
""fullscreenenter"",""5"",""53949""
","
","
","""event"",""trial"",""time""
""fullscreenenter"",""5"",""53949""
","
",842.140000000596,NA,48,NA,NA,3000,1,NA,NA,images/tutyellowplanet.jpg,images/tutalien4,images/tutalien3,images/tutrocket2,images/tutalien4,images/t.png,2,practice,true,2,common,1,2020-06-12T23:07:17Z,sub40
two-step-fixation,99,548122,0.0-61.0-2.12,TRUE,TRUE,FALSE,FALSE,"""event"",""trial"",""time""
""fullscreenenter"",""5"",""53949""
","
","
","""event"",""trial"",""time""
""fullscreenenter"",""5"",""53949""
","
",NA,images/earth.jpg,NA,NA,NA,NA,NA,NA,NA,NA,NA,NA,NA,NA,NA,fixation,NA,NA,NA,NA,NA,NA,sub40
d3-animate-choice,100,550468,0.0-61.0-0.13,TRUE,TRUE,FALSE,FALSE,"""event"",""trial"",""time""
""fullscreenenter"",""5"",""53949""
","
","
","""event"",""trial"",""time""
""fullscreenenter"",""5"",""53949""
","
",341.97999999742024,NA,48,NA,NA,3000,1,NA,NA,images/earth.jpg,images/tutrocket1,images/tutrocket2,null,images/tutrocket1,NA,1,practice,null,2,NA,NA,NA,sub40
d3-animate-choice,101,553105,0.0-61.0-1.13,TRUE,TRUE,FALSE,FALSE,"""event"",""trial"",""time""
""fullscreenenter"",""5"",""53949""
","
","
","""event"",""trial"",""time""
""fullscreenenter"",""5"",""53949""
","
",633.5550000004005,NA,48,NA,NA,3000,1,NA,NA,images/tutgreenplanet.jpg,images/tutalien2,images/tutalien1,images/tutrocket1,images/tutalien2,images/t.png,2,practice,true,2,common,1,2020-06-12T23:07:23Z,sub40
two-step-fixation,102,554109,0.0-61.0-2.13,TRUE,TRUE,FALSE,FALSE,"""event"",""trial"",""time""
""fullscreenenter"",""5"",""53949""
","
","
","""event"",""trial"",""time""
""fullscreenenter"",""5"",""53949""
","
",NA,images/earth.jpg,NA,NA,NA,NA,NA,NA,NA,NA,NA,NA,NA,NA,NA,fixation,NA,NA,NA,NA,NA,NA,sub40
d3-animate-choice,103,556358,0.0-61.0-0.14,TRUE,TRUE,FALSE,FALSE,"""event"",""trial"",""time""
""fullscreenenter"",""5"",""53949""
","
","
","""event"",""trial"",""time""
""fullscreenenter"",""5"",""53949""
","
",244.98999999917578,NA,49,NA,NA,3000,1,NA,NA,images/earth.jpg,images/tutrocket1,images/tutrocket2,null,images/tutrocket2,NA,1,practice,null,1,NA,NA,NA,sub40
d3-animate-choice,104,558912,0.0-61.0-1.14,TRUE,TRUE,FALSE,FALSE,"""event"",""trial"",""time""
""fullscreenenter"",""5"",""53949""
","
","
","""event"",""trial"",""time""
""fullscreenenter"",""5"",""53949""
","
",549.0750000027474,NA,48,NA,NA,3000,1,NA,NA,images/tutyellowplanet.jpg,images/tutalien4,images/tutalien3,images/tutrocket2,images/tutalien4,images/t.png,2,practice,true,2,common,1,2020-06-12T23:07:29Z,sub40
two-step-fixation,105,559915,0.0-61.0-2.14,TRUE,TRUE,FALSE,FALSE,"""event"",""trial"",""time""
""fullscreenenter"",""5"",""53949""
","
","
","""event"",""trial"",""time""
""fullscreenenter"",""5"",""53949""
","
",NA,images/earth.jpg,NA,NA,NA,NA,NA,NA,NA,NA,NA,NA,NA,NA,NA,fixation,NA,NA,NA,NA,NA,NA,sub40
d3-animate-choice,106,563086,0.0-61.0-0.15,TRUE,TRUE,FALSE,FALSE,"""event"",""trial"",""time""
""fullscreenenter"",""5"",""53949""
","
","
","""event"",""trial"",""time""
""fullscreenenter"",""5"",""53949""
","
",1167.6399999996647,NA,49,NA,NA,3000,1,NA,NA,images/earth.jpg,images/tutrocket1,images/tutrocket2,null,images/tutrocket2,NA,1,practice,null,1,NA,NA,NA,sub40
d3-animate-choice,107,565436,0.0-61.0-1.15,TRUE,TRUE,FALSE,FALSE,"""event"",""trial"",""time""
""fullscreenenter"",""5"",""53949""
","
","
","""event"",""trial"",""time""
""fullscreenenter"",""5"",""53949""
","
",344.04499999806285,NA,48,NA,NA,3000,1,NA,NA,images/tutyellowplanet.jpg,images/tutalien4,images/tutalien3,images/tutrocket2,images/tutalien4,images/t.png,2,practice,true,2,common,1,2020-06-12T23:07:36Z,sub40
two-step-fixation,108,566439,0.0-61.0-2.15,TRUE,TRUE,FALSE,FALSE,"""event"",""trial"",""time""
""fullscreenenter"",""5"",""53949""
","
","
","""event"",""trial"",""time""
""fullscreenenter"",""5"",""53949""
","
",NA,images/earth.jpg,NA,NA,NA,NA,NA,NA,NA,NA,NA,NA,NA,NA,NA,fixation,NA,NA,NA,NA,NA,NA,sub40
d3-animate-choice,109,568742,0.0-61.0-0.16,TRUE,TRUE,FALSE,FALSE,"""event"",""trial"",""time""
""fullscreenenter"",""5"",""53949""
","
","
","""event"",""trial"",""time""
""fullscreenenter"",""5"",""53949""
","
",298.9250000027241,NA,48,NA,NA,3000,1,NA,NA,images/earth.jpg,images/tutrocket1,images/tutrocket2,null,images/tutrocket1,NA,1,practice,null,2,NA,NA,NA,sub40
d3-animate-choice,110,571189,0.0-61.0-1.16,TRUE,TRUE,FALSE,FALSE,"""event"",""trial"",""time""
""fullscreenenter"",""5"",""53949""
","
","
","""event"",""trial"",""time""
""fullscreenenter"",""5"",""53949""
","
",443.01999999873806,NA,48,NA,NA,3000,1,NA,NA,images/tutgreenplanet.jpg,images/tutalien2,images/tutalien1,images/tutrocket1,images/tutalien2,images/t.png,2,practice,true,2,common,1,2020-06-12T23:07:41Z,sub40
two-step-fixation,111,572192,0.0-61.0-2.16,TRUE,TRUE,FALSE,FALSE,"""event"",""trial"",""time""
""fullscreenenter"",""5"",""53949""
","
","
","""event"",""trial"",""time""
""fullscreenenter"",""5"",""53949""
","
",NA,images/earth.jpg,NA,NA,NA,NA,NA,NA,NA,NA,NA,NA,NA,NA,NA,fixation,NA,NA,NA,NA,NA,NA,sub40
d3-animate-choice,112,574648,0.0-61.0-0.17,TRUE,TRUE,FALSE,FALSE,"""event"",""trial"",""time""
""fullscreenenter"",""5"",""53949""
","
","
","""event"",""trial"",""time""
""fullscreenenter"",""5"",""53949""
","
",451.88000000058673,NA,49,NA,NA,3000,1,NA,NA,images/earth.jpg,images/tutrocket1,images/tutrocket2,null,images/tutrocket2,NA,1,practice,null,1,NA,NA,NA,sub40
d3-animate-choice,113,576955,0.0-61.0-1.17,TRUE,TRUE,FALSE,FALSE,"""event"",""trial"",""time""
""fullscreenenter"",""5"",""53949""
","
","
","""event"",""trial"",""time""
""fullscreenenter"",""5"",""53949""
","
",302.8799999955809,NA,48,NA,NA,3000,1,NA,NA,images/tutyellowplanet.jpg,images/tutalien4,images/tutalien3,images/tutrocket2,images/tutalien4,images/nothing.png,2,practice,true,2,common,0,2020-06-12T23:07:47Z,sub40
two-step-fixation,114,577959,0.0-61.0-2.17,TRUE,TRUE,FALSE,FALSE,"""event"",""trial"",""time""
""fullscreenenter"",""5"",""53949""
","
","
","""event"",""trial"",""time""
""fullscreenenter"",""5"",""53949""
","
",NA,images/earth.jpg,NA,NA,NA,NA,NA,NA,NA,NA,NA,NA,NA,NA,NA,fixation,NA,NA,NA,NA,NA,NA,sub40
d3-animate-choice,115,580311,0.0-61.0-0.18,TRUE,TRUE,FALSE,FALSE,"""event"",""trial"",""time""
""fullscreenenter"",""5"",""53949""
","
","
","""event"",""trial"",""time""
""fullscreenenter"",""5"",""53949""
","
",348.96499999740627,NA,49,NA,NA,3000,1,NA,NA,images/earth.jpg,images/tutrocket1,images/tutrocket2,null,images/tutrocket2,NA,1,practice,null,1,NA,NA,NA,sub40
d3-animate-choice,116,582573,0.0-61.0-1.18,TRUE,TRUE,FALSE,FALSE,"""event"",""trial"",""time""
""fullscreenenter"",""5"",""53949""
","
","
","""event"",""trial"",""time""
""fullscreenenter"",""5"",""53949""
","
",258.3849999937229,NA,49,NA,NA,3000,1,NA,NA,images/tutgreenplanet.jpg,images/tutalien2,images/tutalien1,images/tutrocket2,images/tutalien1,images/nothing.png,2,practice,false,1,rare,0,2020-06-12T23:07:53Z,sub40
two-step-fixation,117,583576,0.0-61.0-2.18,TRUE,TRUE,FALSE,FALSE,"""event"",""trial"",""time""
""fullscreenenter"",""5"",""53949""
","
","
","""event"",""trial"",""time""
""fullscreenenter"",""5"",""53949""
","
",NA,images/earth.jpg,NA,NA,NA,NA,NA,NA,NA,NA,NA,NA,NA,NA,NA,fixation,NA,NA,NA,NA,NA,NA,sub40
d3-animate-choice,118,585636,0.0-61.0-0.19,TRUE,TRUE,FALSE,FALSE,"""event"",""trial"",""time""
""fullscreenenter"",""5"",""53949""
","
","
","""event"",""trial"",""time""
""fullscreenenter"",""5"",""53949""
","
",56.12500000279397,NA,48,NA,NA,3000,1,NA,NA,images/earth.jpg,images/tutrocket1,images/tutrocket2,null,images/tutrocket1,NA,1,practice,null,2,NA,NA,NA,sub40
d3-animate-choice,119,587927,0.0-61.0-1.19,TRUE,TRUE,FALSE,FALSE,"""event"",""trial"",""time""
""fullscreenenter"",""5"",""53949""
","
","
","""event"",""trial"",""time""
""fullscreenenter"",""5"",""53949""
","
",285.5749999944819,NA,48,NA,NA,3000,1,NA,NA,images/tutgreenplanet.jpg,images/tutalien2,images/tutalien1,images/tutrocket1,images/tutalien2,images/nothing.png,2,practice,true,2,common,0,2020-06-12T23:07:58Z,sub40
two-step-fixation,120,588929,0.0-61.0-2.19,TRUE,TRUE,FALSE,FALSE,"""event"",""trial"",""time""
""fullscreenenter"",""5"",""53949""
","
","
","""event"",""trial"",""time""
""fullscreenenter"",""5"",""53949""
","
",NA,images/earth.jpg,NA,NA,NA,NA,NA,NA,NA,NA,NA,NA,NA,NA,NA,fixation,NA,NA,NA,NA,NA,NA,sub40
d3-instructions,121,598274,0.0-62.0,TRUE,TRUE,FALSE,FALSE,"""event"",""trial"",""time""
""fullscreenenter"",""5"",""53949""
","
","
","""event"",""trial"",""time""
""fullscreenenter"",""5"",""53949""
","
",NA,NA,NA,NA,NA,NA,NA,NA,NA,NA,NA,NA,NA,NA,NA,NA,NA,NA,NA,NA,NA,NA,sub40
audio-keyboard-response,122,602748,0.0-63.0,TRUE,TRUE,FALSE,FALSE,"""event"",""trial"",""time""
""fullscreenenter"",""5"",""53949""
","
","
","""event"",""trial"",""time""
""fullscreenenter"",""5"",""53949""
","
",4480,audio/instructions/treasure_feedback.wav,32,NA,NA,NA,NA,NA,NA,NA,NA,NA,NA,NA,NA,NA,NA,NA,NA,NA,NA,NA,sub40
d3-instructions,123,625940,0.0-64.0,TRUE,TRUE,FALSE,FALSE,"""event"",""trial"",""time""
""fullscreenenter"",""5"",""53949""
","
","
","""event"",""trial"",""time""
""fullscreenenter"",""5"",""53949""
","
",NA,NA,NA,NA,NA,NA,NA,NA,NA,NA,NA,NA,NA,NA,NA,NA,NA,NA,NA,NA,NA,NA,sub40
d3-instructions,124,639466,0.0-65.0,TRUE,TRUE,FALSE,FALSE,"""event"",""trial"",""time""
""fullscreenenter"",""5"",""53949""
","
","
","""event"",""trial"",""time""
""fullscreenenter"",""5"",""53949""
","
",NA,NA,NA,NA,NA,NA,NA,NA,NA,NA,NA,NA,NA,NA,NA,NA,NA,NA,NA,NA,NA,NA,sub40
d3-instructions,125,658022,0.0-66.0,TRUE,TRUE,FALSE,FALSE,"""event"",""trial"",""time""
""fullscreenenter"",""5"",""53949""
","
","
","""event"",""trial"",""time""
""fullscreenenter"",""5"",""53949""
","
",NA,NA,NA,NA,NA,NA,NA,NA,NA,NA,NA,NA,NA,NA,NA,NA,NA,NA,NA,NA,NA,NA,sub40
d3-instructions,126,674087,0.0-67.0,TRUE,TRUE,FALSE,FALSE,"""event"",""trial"",""time""
""fullscreenenter"",""5"",""53949""
","
","
","""event"",""trial"",""time""
""fullscreenenter"",""5"",""53949""
","
",NA,NA,NA,NA,NA,NA,NA,NA,NA,NA,NA,NA,NA,NA,NA,NA,NA,NA,NA,NA,NA,NA,sub40
d3-instructions,127,682632,0.0-68.0,TRUE,TRUE,FALSE,FALSE,"""event"",""trial"",""time""
""fullscreenenter"",""5"",""53949""
","
","
","""event"",""trial"",""time""
""fullscreenenter"",""5"",""53949""
","
",NA,NA,NA,NA,NA,NA,NA,NA,NA,NA,NA,NA,NA,NA,NA,NA,NA,NA,NA,NA,NA,NA,sub40
instructions-quiz,128,685949,0.0-69.0,TRUE,TRUE,FALSE,FALSE,"""event"",""trial"",""time""
""fullscreenenter"",""5"",""53949""
","
","
","""event"",""trial"",""time""
""fullscreenenter"",""5"",""53949""
","
",3314.6450000058394,audio/quiz/Q1_Prompt.wav,NA,1,NA,NA,NA,NA,NA,NA,NA,NA,NA,NA,NA,NA,NA,NA,NA,NA,NA,NA,sub40
audio-keyboard-response,129,695119,0.0-70.0,TRUE,TRUE,FALSE,FALSE,"""event"",""trial"",""time""
""fullscreenenter"",""5"",""53949""
","
","
","""event"",""trial"",""time""
""fullscreenenter"",""5"",""53949""
","
",null,audio/quiz/Q1_Correct.wav,null,NA,NA,NA,NA,NA,NA,NA,NA,NA,NA,NA,NA,NA,NA,NA,NA,NA,NA,NA,sub40
instructions-quiz,130,700475,0.0-71.0,TRUE,TRUE,FALSE,FALSE,"""event"",""trial"",""time""
""fullscreenenter"",""5"",""53949""
","
","
","""event"",""trial"",""time""
""fullscreenenter"",""5"",""53949""
","
",5354.100000004168,audio/quiz/Q2_Prompt.wav,NA,0,NA,NA,NA,NA,NA,NA,NA,NA,NA,NA,NA,NA,NA,NA,NA,NA,NA,NA,sub40
audio-keyboard-response,131,713348,0.0-72.0,TRUE,TRUE,FALSE,FALSE,"""event"",""trial"",""time""
""fullscreenenter"",""5"",""53949""
","
","
","""event"",""trial"",""time""
""fullscreenenter"",""5"",""53949""
","
",null,audio/quiz/Q2_Correct.wav,null,NA,NA,NA,NA,NA,NA,NA,NA,NA,NA,NA,NA,NA,NA,NA,NA,NA,NA,NA,sub40
instructions-quiz,132,717094,0.0-73.0,TRUE,TRUE,FALSE,FALSE,"""event"",""trial"",""time""
""fullscreenenter"",""5"",""53949""
","
","
","""event"",""trial"",""time""
""fullscreenenter"",""5"",""53949""
","
",3744.3749999948777,audio/quiz/Q3_Prompt.wav,NA,1,NA,NA,NA,NA,NA,NA,NA,NA,NA,NA,NA,NA,NA,NA,NA,NA,NA,NA,sub40
audio-keyboard-response,133,722895,0.0-74.0,TRUE,TRUE,FALSE,FALSE,"""event"",""trial"",""time""
""fullscreenenter"",""5"",""53949""
","
","
","""event"",""trial"",""time""
""fullscreenenter"",""5"",""53949""
","
",null,audio/quiz/Q3_Correct.wav,null,NA,NA,NA,NA,NA,NA,NA,NA,NA,NA,NA,NA,NA,NA,NA,NA,NA,NA,NA,sub40
d3-instructions,134,737464,0.0-75.0,TRUE,TRUE,FALSE,FALSE,"""event"",""trial"",""time""
""fullscreenenter"",""5"",""53949""
","
","
","""event"",""trial"",""time""
""fullscreenenter"",""5"",""53949""
","
",NA,NA,NA,NA,NA,NA,NA,NA,NA,NA,NA,NA,NA,NA,NA,NA,NA,NA,NA,NA,NA,NA,sub40
d3-animate-choice,135,740246,0.0-76.0-0.0,TRUE,TRUE,FALSE,FALSE,"""event"",""trial"",""time""
""fullscreenenter"",""5"",""53949""
","
","
","""event"",""trial"",""time""
""fullscreenenter"",""5"",""53949""
","
",777.5749999999534,NA,48,NA,NA,3000,1,NA,NA,images/earth.jpg,images/rocket2,images/rocket1,null,images/rocket2,NA,1,real,null,2,NA,NA,NA,sub40
d3-animate-choice,136,742692,0.0-76.0-1.0,TRUE,TRUE,FALSE,FALSE,"""event"",""trial"",""time""
""fullscreenenter"",""5"",""53949""
","
","
","""event"",""trial"",""time""
""fullscreenenter"",""5"",""53949""
","
",439.9850000045262,NA,49,NA,NA,3000,1,NA,NA,images/purpleplanet.jpg,images/alien4,images/alien3,images/rocket2,images/alien3,images/nothing.png,2,real,true,1,common,0,2020-06-12T23:10:33Z,sub40
two-step-fixation,137,743695,0.0-76.0-2.0,TRUE,TRUE,FALSE,FALSE,"""event"",""trial"",""time""
""fullscreenenter"",""5"",""53949""
","
","
","""event"",""trial"",""time""
""fullscreenenter"",""5"",""53949""
","
",NA,images/earth.jpg,NA,NA,NA,NA,NA,NA,NA,NA,NA,NA,NA,NA,NA,fixation,NA,NA,NA,NA,NA,NA,sub40
d3-animate-choice,138,745936,0.0-76.0-0.1,TRUE,TRUE,FALSE,FALSE,"""event"",""trial"",""time""
""fullscreenenter"",""5"",""53949""
","
","
","""event"",""trial"",""time""
""fullscreenenter"",""5"",""53949""
","
",237.37500000430737,NA,49,NA,NA,3000,1,NA,NA,images/earth.jpg,images/rocket2,images/rocket1,null,images/rocket1,NA,1,real,null,1,NA,NA,NA,sub40
d3-animate-choice,139,748294,0.0-76.0-1.1,TRUE,TRUE,FALSE,FALSE,"""event"",""trial"",""time""
""fullscreenenter"",""5"",""53949""
","
","
","""event"",""trial"",""time""
""fullscreenenter"",""5"",""53949""
","
",353.9549999986775,NA,48,NA,NA,3000,1,NA,NA,images/redplanet1.jpg,images/alien2,images/alien1,images/rocket1,images/alien2,images/t.png,2,real,true,2,common,1,2020-06-12T23:10:39Z,sub40
two-step-fixation,140,749298,0.0-76.0-2.1,TRUE,TRUE,FALSE,FALSE,"""event"",""trial"",""time""
""fullscreenenter"",""5"",""53949""
","
","
","""event"",""trial"",""time""
""fullscreenenter"",""5"",""53949""
","
",NA,images/earth.jpg,NA,NA,NA,NA,NA,NA,NA,NA,NA,NA,NA,NA,NA,fixation,NA,NA,NA,NA,NA,NA,sub40
d3-animate-choice,141,751555,0.0-76.0-0.2,TRUE,TRUE,FALSE,FALSE,"""event"",""trial"",""time""
""fullscreenenter"",""5"",""53949""
","
","
","""event"",""trial"",""time""
""fullscreenenter"",""5"",""53949""
","
",253.7850000008475,NA,49,NA,NA,3000,1,NA,NA,images/earth.jpg,images/rocket2,images/rocket1,null,images/rocket1,NA,1,real,null,1,NA,NA,NA,sub40
d3-animate-choice,142,753811,0.0-76.0-1.2,TRUE,TRUE,FALSE,FALSE,"""event"",""trial"",""time""
""fullscreenenter"",""5"",""53949""
","
","
","""event"",""trial"",""time""
""fullscreenenter"",""5"",""53949""
","
",252.00000000046566,NA,48,NA,NA,3000,1,NA,NA,images/redplanet1.jpg,images/alien2,images/alien1,images/rocket1,images/alien2,images/nothing.png,2,real,true,2,common,0,2020-06-12T23:10:44Z,sub40
two-step-fixation,143,754814,0.0-76.0-2.2,TRUE,TRUE,FALSE,FALSE,"""event"",""trial"",""time""
""fullscreenenter"",""5"",""53949""
","
","
","""event"",""trial"",""time""
""fullscreenenter"",""5"",""53949""
","
",NA,images/earth.jpg,NA,NA,NA,NA,NA,NA,NA,NA,NA,NA,NA,NA,NA,fixation,NA,NA,NA,NA,NA,NA,sub40
d3-animate-choice,144,757128,0.0-76.0-0.3,TRUE,TRUE,FALSE,FALSE,"""event"",""trial"",""time""
""fullscreenenter"",""5"",""53949""
","
","
","""event"",""trial"",""time""
""fullscreenenter"",""5"",""53949""
","
",310.1100000058068,NA,49,NA,NA,3000,1,NA,NA,images/earth.jpg,images/rocket2,images/rocket1,null,images/rocket1,NA,1,real,null,1,NA,NA,NA,sub40
d3-animate-choice,145,759471,0.0-76.0-1.3,TRUE,TRUE,FALSE,FALSE,"""event"",""trial"",""time""
""fullscreenenter"",""5"",""53949""
","
","
","""event"",""trial"",""time""
""fullscreenenter"",""5"",""53949""
","
",340.535000002943,NA,49,NA,NA,3000,1,NA,NA,images/redplanet1.jpg,images/alien2,images/alien1,images/rocket1,images/alien1,images/nothing.png,2,real,true,1,common,0,2020-06-12T23:10:50Z,sub40
two-step-fixation,146,760474,0.0-76.0-2.3,TRUE,TRUE,FALSE,FALSE,"""event"",""trial"",""time""
""fullscreenenter"",""5"",""53949""
","
","
","""event"",""trial"",""time""
""fullscreenenter"",""5"",""53949""
","
",NA,images/earth.jpg,NA,NA,NA,NA,NA,NA,NA,NA,NA,NA,NA,NA,NA,fixation,NA,NA,NA,NA,NA,NA,sub40
d3-animate-choice,147,762828,0.0-76.0-0.4,TRUE,TRUE,FALSE,FALSE,"""event"",""trial"",""time""
""fullscreenenter"",""5"",""53949""
","
","
","""event"",""trial"",""time""
""fullscreenenter"",""5"",""53949""
","
",350.2149999985704,NA,48,NA,NA,3000,1,NA,NA,images/earth.jpg,images/rocket2,images/rocket1,null,images/rocket2,NA,1,real,null,2,NA,NA,NA,sub40
d3-animate-choice,148,765078,0.0-76.0-1.4,TRUE,TRUE,FALSE,FALSE,"""event"",""trial"",""time""
""fullscreenenter"",""5"",""53949""
","
","
","""event"",""trial"",""time""
""fullscreenenter"",""5"",""53949""
","
",245.79500000248663,NA,49,NA,NA,3000,1,NA,NA,images/redplanet1.jpg,images/alien2,images/alien1,images/rocket2,images/alien1,images/nothing.png,2,real,false,1,rare,0,2020-06-12T23:10:55Z,sub40
two-step-fixation,149,766082,0.0-76.0-2.4,TRUE,TRUE,FALSE,FALSE,"""event"",""trial"",""time""
""fullscreenenter"",""5"",""53949""
","
","
","""event"",""trial"",""time""
""fullscreenenter"",""5"",""53949""
","
",NA,images/earth.jpg,NA,NA,NA,NA,NA,NA,NA,NA,NA,NA,NA,NA,NA,fixation,NA,NA,NA,NA,NA,NA,sub40
d3-animate-choice,150,768357,0.0-76.0-0.5,TRUE,TRUE,FALSE,FALSE,"""event"",""trial"",""time""
""fullscreenenter"",""5"",""53949""
","
","
","""event"",""trial"",""time""
""fullscreenenter"",""5"",""53949""
","
",271.8349999994971,NA,48,NA,NA,3000,1,NA,NA,images/earth.jpg,images/rocket2,images/rocket1,null,images/rocket2,NA,1,real,null,2,NA,NA,NA,sub40
d3-animate-choice,151,770675,0.0-76.0-1.5,TRUE,TRUE,FALSE,FALSE,"""event"",""trial"",""time""
""fullscreenenter"",""5"",""53949""
","
","
","""event"",""trial"",""time""
""fullscreenenter"",""5"",""53949""
","
",313.0349999992177,NA,48,NA,NA,3000,1,NA,NA,images/redplanet1.jpg,images/alien2,images/alien1,images/rocket2,images/alien2,images/t.png,2,real,false,2,rare,1,2020-06-12T23:11:01Z,sub40
two-step-fixation,152,771678,0.0-76.0-2.5,TRUE,TRUE,FALSE,FALSE,"""event"",""trial"",""time""
""fullscreenenter"",""5"",""53949""
","
","
","""event"",""trial"",""time""
""fullscreenenter"",""5"",""53949""
","
",NA,images/earth.jpg,NA,NA,NA,NA,NA,NA,NA,NA,NA,NA,NA,NA,NA,fixation,NA,NA,NA,NA,NA,NA,sub40
d3-animate-choice,153,773966,0.0-76.0-0.6,TRUE,TRUE,FALSE,FALSE,"""event"",""trial"",""time""
""fullscreenenter"",""5"",""53949""
","
","
","""event"",""trial"",""time""
""fullscreenenter"",""5"",""53949""
","
",284.2400000008056,NA,48,NA,NA,3000,1,NA,NA,images/earth.jpg,images/rocket2,images/rocket1,null,images/rocket2,NA,1,real,null,2,NA,NA,NA,sub40
d3-animate-choice,154,776523,0.0-76.0-1.6,TRUE,TRUE,FALSE,FALSE,"""event"",""trial"",""time""
""fullscreenenter"",""5"",""53949""
","
","
","""event"",""trial"",""time""
""fullscreenenter"",""5"",""53949""
","
",553.3849999993108,NA,48,NA,NA,3000,1,NA,NA,images/purpleplanet.jpg,images/alien4,images/alien3,images/rocket2,images/alien4,images/t.png,2,real,true,2,common,1,2020-06-12T23:11:07Z,sub40
two-step-fixation,155,777526,0.0-76.0-2.6,TRUE,TRUE,FALSE,FALSE,"""event"",""trial"",""time""
""fullscreenenter"",""5"",""53949""
","
","
","""event"",""trial"",""time""
""fullscreenenter"",""5"",""53949""
","
",NA,images/earth.jpg,NA,NA,NA,NA,NA,NA,NA,NA,NA,NA,NA,NA,NA,fixation,NA,NA,NA,NA,NA,NA,sub40
d3-animate-choice,156,779829,0.0-76.0-0.7,TRUE,TRUE,FALSE,FALSE,"""event"",""trial"",""time""
""fullscreenenter"",""5"",""53949""
","
","
","""event"",""trial"",""time""
""fullscreenenter"",""5"",""53949""
","
",298.5550000012154,NA,49,NA,NA,3000,1,NA,NA,images/earth.jpg,images/rocket2,images/rocket1,null,images/rocket1,NA,1,real,null,1,NA,NA,NA,sub40
d3-animate-choice,157,782103,0.0-76.0-1.7,TRUE,TRUE,FALSE,FALSE,"""event"",""trial"",""time""
""fullscreenenter"",""5"",""53949""
","
","
","""event"",""trial"",""time""
""fullscreenenter"",""5"",""53949""
","
",269.17500000132713,NA,48,NA,NA,3000,1,NA,NA,images/purpleplanet.jpg,images/alien4,images/alien3,images/rocket1,images/alien4,images/t.png,2,real,false,2,rare,1,2020-06-12T23:11:12Z,sub40
two-step-fixation,158,783106,0.0-76.0-2.7,TRUE,TRUE,FALSE,FALSE,"""event"",""trial"",""time""
""fullscreenenter"",""5"",""53949""
","
","
","""event"",""trial"",""time""
""fullscreenenter"",""5"",""53949""
","
",NA,images/earth.jpg,NA,NA,NA,NA,NA,NA,NA,NA,NA,NA,NA,NA,NA,fixation,NA,NA,NA,NA,NA,NA,sub40
d3-animate-choice,159,785433,0.0-76.0-0.8,TRUE,TRUE,FALSE,FALSE,"""event"",""trial"",""time""
""fullscreenenter"",""5"",""53949""
","
","
","""event"",""trial"",""time""
""fullscreenenter"",""5"",""53949""
","
",323.499999998603,NA,48,NA,NA,3000,1,NA,NA,images/earth.jpg,images/rocket2,images/rocket1,null,images/rocket2,NA,1,real,null,2,NA,NA,NA,sub40
d3-animate-choice,160,787686,0.0-76.0-1.8,TRUE,TRUE,FALSE,FALSE,"""event"",""trial"",""time""
""fullscreenenter"",""5"",""53949""
","
","
","""event"",""trial"",""time""
""fullscreenenter"",""5"",""53949""
","
",247.83999999635853,NA,48,NA,NA,3000,1,NA,NA,images/purpleplanet.jpg,images/alien4,images/alien3,images/rocket2,images/alien4,images/t.png,2,real,true,2,common,1,2020-06-12T23:11:18Z,sub40
two-step-fixation,161,788689,0.0-76.0-2.8,TRUE,TRUE,FALSE,FALSE,"""event"",""trial"",""time""
""fullscreenenter"",""5"",""53949""
","
","
","""event"",""trial"",""time""
""fullscreenenter"",""5"",""53949""
","
",NA,images/earth.jpg,NA,NA,NA,NA,NA,NA,NA,NA,NA,NA,NA,NA,NA,fixation,NA,NA,NA,NA,NA,NA,sub40
d3-animate-choice,162,791011,0.0-76.0-0.9,TRUE,TRUE,FALSE,FALSE,"""event"",""trial"",""time""
""fullscreenenter"",""5"",""53949""
","
","
","""event"",""trial"",""time""
""fullscreenenter"",""5"",""53949""
","
",317.89500000013504,NA,49,NA,NA,3000,1,NA,NA,images/earth.jpg,images/rocket2,images/rocket1,null,images/rocket1,NA,1,real,null,1,NA,NA,NA,sub40
d3-animate-choice,163,793459,0.0-76.0-1.9,TRUE,TRUE,FALSE,FALSE,"""event"",""trial"",""time""
""fullscreenenter"",""5"",""53949""
","
","
","""event"",""trial"",""time""
""fullscreenenter"",""5"",""53949""
","
",444.30000000284053,NA,48,NA,NA,3000,1,NA,NA,images/redplanet1.jpg,images/alien2,images/alien1,images/rocket1,images/alien2,images/nothing.png,2,real,true,2,common,0,2020-06-12T23:11:24Z,sub40
two-step-fixation,164,794463,0.0-76.0-2.9,TRUE,TRUE,FALSE,FALSE,"""event"",""trial"",""time""
""fullscreenenter"",""5"",""53949""
","
","
","""event"",""trial"",""time""
""fullscreenenter"",""5"",""53949""
","
",NA,images/earth.jpg,NA,NA,NA,NA,NA,NA,NA,NA,NA,NA,NA,NA,NA,fixation,NA,NA,NA,NA,NA,NA,sub40
d3-animate-choice,165,796615,0.0-76.0-0.10,TRUE,TRUE,FALSE,FALSE,"""event"",""trial"",""time""
""fullscreenenter"",""5"",""53949""
","
","
","""event"",""trial"",""time""
""fullscreenenter"",""5"",""53949""
","
",147.58000000438187,NA,48,NA,NA,3000,1,NA,NA,images/earth.jpg,images/rocket2,images/rocket1,null,images/rocket2,NA,1,real,null,2,NA,NA,NA,sub40
d3-animate-choice,166,798840,0.0-76.0-1.10,TRUE,TRUE,FALSE,FALSE,"""event"",""trial"",""time""
""fullscreenenter"",""5"",""53949""
","
","
","""event"",""trial"",""time""
""fullscreenenter"",""5"",""53949""
","
",221.29000000131782,NA,48,NA,NA,3000,1,NA,NA,images/purpleplanet.jpg,images/alien4,images/alien3,images/rocket2,images/alien4,images/t.png,2,real,true,2,common,1,2020-06-12T23:11:29Z,sub40
two-step-fixation,167,799843,0.0-76.0-2.10,TRUE,TRUE,FALSE,FALSE,"""event"",""trial"",""time""
""fullscreenenter"",""5"",""53949""
","
","
","""event"",""trial"",""time""
""fullscreenenter"",""5"",""53949""
","
",NA,images/earth.jpg,NA,NA,NA,NA,NA,NA,NA,NA,NA,NA,NA,NA,NA,fixation,NA,NA,NA,NA,NA,NA,sub40
d3-animate-choice,168,802181,0.0-76.0-0.11,TRUE,TRUE,FALSE,FALSE,"""event"",""trial"",""time""
""fullscreenenter"",""5"",""53949""
","
","
","""event"",""trial"",""time""
""fullscreenenter"",""5"",""53949""
","
",334.0050000041956,NA,48,NA,NA,3000,1,NA,NA,images/earth.jpg,images/rocket2,images/rocket1,null,images/rocket2,NA,1,real,null,2,NA,NA,NA,sub40
d3-animate-choice,169,804449,0.0-76.0-1.11,TRUE,TRUE,FALSE,FALSE,"""event"",""trial"",""time""
""fullscreenenter"",""5"",""53949""
","
","
","""event"",""trial"",""time""
""fullscreenenter"",""5"",""53949""
","
",263.8349999979837,NA,48,NA,NA,3000,1,NA,NA,images/purpleplanet.jpg,images/alien4,images/alien3,images/rocket2,images/alien4,images/t.png,2,real,true,2,common,1,2020-06-12T23:11:35Z,sub40
two-step-fixation,170,805453,0.0-76.0-2.11,TRUE,TRUE,FALSE,FALSE,"""event"",""trial"",""time""
""fullscreenenter"",""5"",""53949""
","
","
","""event"",""trial"",""time""
""fullscreenenter"",""5"",""53949""
","
",NA,images/earth.jpg,NA,NA,NA,NA,NA,NA,NA,NA,NA,NA,NA,NA,NA,fixation,NA,NA,NA,NA,NA,NA,sub40
d3-animate-choice,171,808539,0.0-76.0-0.12,TRUE,TRUE,FALSE,FALSE,"""event"",""trial"",""time""
""fullscreenenter"",""5"",""53949""
","
","
","""event"",""trial"",""time""
""fullscreenenter"",""5"",""53949""
","
",1082.0400000012014,NA,49,NA,NA,3000,1,NA,NA,images/earth.jpg,images/rocket2,images/rocket1,null,images/rocket1,NA,1,real,null,1,NA,NA,NA,sub40
d3-animate-choice,172,810861,0.0-76.0-1.12,TRUE,TRUE,FALSE,FALSE,"""event"",""trial"",""time""
""fullscreenenter"",""5"",""53949""
","
","
","""event"",""trial"",""time""
""fullscreenenter"",""5"",""53949""
","
",317.84999999939464,NA,49,NA,NA,3000,1,NA,NA,images/purpleplanet.jpg,images/alien4,images/alien3,images/rocket1,images/alien3,images/nothing.png,2,real,false,1,rare,0,2020-06-12T23:11:41Z,sub40
two-step-fixation,173,811864,0.0-76.0-2.12,TRUE,TRUE,FALSE,FALSE,"""event"",""trial"",""time""
""fullscreenenter"",""5"",""53949""
","
","
","""event"",""trial"",""time""
""fullscreenenter"",""5"",""53949""
","
",NA,images/earth.jpg,NA,NA,NA,NA,NA,NA,NA,NA,NA,NA,NA,NA,NA,fixation,NA,NA,NA,NA,NA,NA,sub40
d3-animate-choice,174,814202,0.0-76.0-0.13,TRUE,TRUE,FALSE,FALSE,"""event"",""trial"",""time""
""fullscreenenter"",""5"",""53949""
","
","
","""event"",""trial"",""time""
""fullscreenenter"",""5"",""53949""
","
",333.91000000108033,NA,48,NA,NA,3000,1,NA,NA,images/earth.jpg,images/rocket2,images/rocket1,null,images/rocket2,NA,1,real,null,2,NA,NA,NA,sub40
d3-animate-choice,175,816593,0.0-76.0-1.13,TRUE,TRUE,FALSE,FALSE,"""event"",""trial"",""time""
""fullscreenenter"",""5"",""53949""
","
","
","""event"",""trial"",""time""
""fullscreenenter"",""5"",""53949""
","
",386.6049999996321,NA,48,NA,NA,3000,1,NA,NA,images/purpleplanet.jpg,images/alien4,images/alien3,images/rocket2,images/alien4,images/t.png,2,real,true,2,common,1,2020-06-12T23:11:47Z,sub40
two-step-fixation,176,817597,0.0-76.0-2.13,TRUE,TRUE,FALSE,FALSE,"""event"",""trial"",""time""
""fullscreenenter"",""5"",""53949""
","
","
","""event"",""trial"",""time""
""fullscreenenter"",""5"",""53949""
","
",NA,images/earth.jpg,NA,NA,NA,NA,NA,NA,NA,NA,NA,NA,NA,NA,NA,fixation,NA,NA,NA,NA,NA,NA,sub40
d3-animate-choice,177,819901,0.0-76.0-0.14,TRUE,TRUE,FALSE,FALSE,"""event"",""trial"",""time""
""fullscreenenter"",""5"",""53949""
","
","
","""event"",""trial"",""time""
""fullscreenenter"",""5"",""53949""
","
",300.86999999918044,NA,48,NA,NA,3000,1,NA,NA,images/earth.jpg,images/rocket2,images/rocket1,null,images/rocket2,NA,1,real,null,2,NA,NA,NA,sub40
d3-animate-choice,178,822377,0.0-76.0-1.14,TRUE,TRUE,FALSE,FALSE,"""event"",""trial"",""time""
""fullscreenenter"",""5"",""53949""
","
","
","""event"",""trial"",""time""
""fullscreenenter"",""5"",""53949""
","
",471.94499999750406,NA,48,NA,NA,3000,1,NA,NA,images/purpleplanet.jpg,images/alien4,images/alien3,images/rocket2,images/alien4,images/t.png,2,real,true,2,common,1,2020-06-12T23:11:53Z,sub40
two-step-fixation,179,823380,0.0-76.0-2.14,TRUE,TRUE,FALSE,FALSE,"""event"",""trial"",""time""
""fullscreenenter"",""5"",""53949""
","
","
","""event"",""trial"",""time""
""fullscreenenter"",""5"",""53949""
","
",NA,images/earth.jpg,NA,NA,NA,NA,NA,NA,NA,NA,NA,NA,NA,NA,NA,fixation,NA,NA,NA,NA,NA,NA,sub40
d3-animate-choice,180,825826,0.0-76.0-0.15,TRUE,TRUE,FALSE,FALSE,"""event"",""trial"",""time""
""fullscreenenter"",""5"",""53949""
","
","
","""event"",""trial"",""time""
""fullscreenenter"",""5"",""53949""
","
",441.7050000047311,NA,48,NA,NA,3000,1,NA,NA,images/earth.jpg,images/rocket2,images/rocket1,null,images/rocket2,NA,1,real,null,2,NA,NA,NA,sub40
d3-animate-choice,181,828224,0.0-76.0-1.15,TRUE,TRUE,FALSE,FALSE,"""event"",""trial"",""time""
""fullscreenenter"",""5"",""53949""
","
","
","""event"",""trial"",""time""
""fullscreenenter"",""5"",""53949""
","
",394.00000000023283,NA,49,NA,NA,3000,1,NA,NA,images/purpleplanet.jpg,images/alien4,images/alien3,images/rocket2,images/alien3,images/t.png,2,real,true,1,common,1,2020-06-12T23:11:59Z,sub40
two-step-fixation,182,829227,0.0-76.0-2.15,TRUE,TRUE,FALSE,FALSE,"""event"",""trial"",""time""
""fullscreenenter"",""5"",""53949""
","
","
","""event"",""trial"",""time""
""fullscreenenter"",""5"",""53949""
","
",NA,images/earth.jpg,NA,NA,NA,NA,NA,NA,NA,NA,NA,NA,NA,NA,NA,fixation,NA,NA,NA,NA,NA,NA,sub40
d3-animate-choice,183,831422,0.0-76.0-0.16,TRUE,TRUE,FALSE,FALSE,"""event"",""trial"",""time""
""fullscreenenter"",""5"",""53949""
","
","
","""event"",""trial"",""time""
""fullscreenenter"",""5"",""53949""
","
",190.92000000085682,NA,48,NA,NA,3000,1,NA,NA,images/earth.jpg,images/rocket2,images/rocket1,null,images/rocket2,NA,1,real,null,2,NA,NA,NA,sub40
d3-animate-choice,184,833663,0.0-76.0-1.16,TRUE,TRUE,FALSE,FALSE,"""event"",""trial"",""time""
""fullscreenenter"",""5"",""53949""
","
","
","""event"",""trial"",""time""
""fullscreenenter"",""5"",""53949""
","
",237.65999999886844,NA,49,NA,NA,3000,1,NA,NA,images/redplanet1.jpg,images/alien2,images/alien1,images/rocket2,images/alien1,images/t.png,2,real,false,1,rare,1,2020-06-12T23:12:04Z,sub40
two-step-fixation,185,834667,0.0-76.0-2.16,TRUE,TRUE,FALSE,FALSE,"""event"",""trial"",""time""
""fullscreenenter"",""5"",""53949""
","
","
","""event"",""trial"",""time""
""fullscreenenter"",""5"",""53949""
","
",NA,images/earth.jpg,NA,NA,NA,NA,NA,NA,NA,NA,NA,NA,NA,NA,NA,fixation,NA,NA,NA,NA,NA,NA,sub40
d3-animate-choice,186,836988,0.0-76.0-0.17,TRUE,TRUE,FALSE,FALSE,"""event"",""trial"",""time""
""fullscreenenter"",""5"",""53949""
","
","
","""event"",""trial"",""time""
""fullscreenenter"",""5"",""53949""
","
",317.735000004177,NA,49,NA,NA,3000,1,NA,NA,images/earth.jpg,images/rocket2,images/rocket1,null,images/rocket1,NA,1,real,null,1,NA,NA,NA,sub40
d3-animate-choice,187,839298,0.0-76.0-1.17,TRUE,TRUE,FALSE,FALSE,"""event"",""trial"",""time""
""fullscreenenter"",""5"",""53949""
","
","
","""event"",""trial"",""time""
""fullscreenenter"",""5"",""53949""
","
",305.0100000036182,NA,48,NA,NA,3000,1,NA,NA,images/redplanet1.jpg,images/alien2,images/alien1,images/rocket1,images/alien2,images/t.png,2,real,true,2,common,1,2020-06-12T23:12:10Z,sub40
two-step-fixation,188,840301,0.0-76.0-2.17,TRUE,TRUE,FALSE,FALSE,"""event"",""trial"",""time""
""fullscreenenter"",""5"",""53949""
","
","
","""event"",""trial"",""time""
""fullscreenenter"",""5"",""53949""
","
",NA,images/earth.jpg,NA,NA,NA,NA,NA,NA,NA,NA,NA,NA,NA,NA,NA,fixation,NA,NA,NA,NA,NA,NA,sub40
d3-animate-choice,189,842781,0.0-76.0-0.18,TRUE,TRUE,FALSE,FALSE,"""event"",""trial"",""time""
""fullscreenenter"",""5"",""53949""
","
","
","""event"",""trial"",""time""
""fullscreenenter"",""5"",""53949""
","
",476.689999995986,NA,48,NA,NA,3000,1,NA,NA,images/earth.jpg,images/rocket2,images/rocket1,null,images/rocket2,NA,1,real,null,2,NA,NA,NA,sub40
d3-animate-choice,190,845043,0.0-76.0-1.18,TRUE,TRUE,FALSE,FALSE,"""event"",""trial"",""time""
""fullscreenenter"",""5"",""53949""
","
","
","""event"",""trial"",""time""
""fullscreenenter"",""5"",""53949""
","
",256.91999999969266,NA,48,NA,NA,3000,1,NA,NA,images/redplanet1.jpg,images/alien2,images/alien1,images/rocket2,images/alien2,images/nothing.png,2,real,false,2,rare,0,2020-06-12T23:12:15Z,sub40
two-step-fixation,191,846046,0.0-76.0-2.18,TRUE,TRUE,FALSE,FALSE,"""event"",""trial"",""time""
""fullscreenenter"",""5"",""53949""
","
","
","""event"",""trial"",""time""
""fullscreenenter"",""5"",""53949""
","
",NA,images/earth.jpg,NA,NA,NA,NA,NA,NA,NA,NA,NA,NA,NA,NA,NA,fixation,NA,NA,NA,NA,NA,NA,sub40
d3-animate-choice,192,848548,0.0-76.0-0.19,TRUE,TRUE,FALSE,FALSE,"""event"",""trial"",""time""
""fullscreenenter"",""5"",""53949""
","
","
","""event"",""trial"",""time""
""fullscreenenter"",""5"",""53949""
","
",497.7050000015879,NA,48,NA,NA,3000,1,NA,NA,images/earth.jpg,images/rocket2,images/rocket1,null,images/rocket2,NA,1,real,null,2,NA,NA,NA,sub40
d3-animate-choice,193,851261,0.0-76.0-1.19,TRUE,TRUE,FALSE,FALSE,"""event"",""trial"",""time""
""fullscreenenter"",""5"",""53949""
","
","
","""event"",""trial"",""time""
""fullscreenenter"",""5"",""53949""
","
",710.2599999998929,NA,48,NA,NA,3000,1,NA,NA,images/redplanet1.jpg,images/alien2,images/alien1,images/rocket2,images/alien2,images/t.png,2,real,false,2,rare,1,2020-06-12T23:12:22Z,sub40
two-step-fixation,194,852264,0.0-76.0-2.19,TRUE,TRUE,FALSE,FALSE,"""event"",""trial"",""time""
""fullscreenenter"",""5"",""53949""
","
","
","""event"",""trial"",""time""
""fullscreenenter"",""5"",""53949""
","
",NA,images/earth.jpg,NA,NA,NA,NA,NA,NA,NA,NA,NA,NA,NA,NA,NA,fixation,NA,NA,NA,NA,NA,NA,sub40
d3-animate-choice,195,854609,0.0-76.0-0.20,TRUE,TRUE,FALSE,FALSE,"""event"",""trial"",""time""
""fullscreenenter"",""5"",""53949""
","
","
","""event"",""trial"",""time""
""fullscreenenter"",""5"",""53949""
","
",340.6699999977136,NA,49,NA,NA,3000,1,NA,NA,images/earth.jpg,images/rocket2,images/rocket1,null,images/rocket1,NA,1,real,null,1,NA,NA,NA,sub40
d3-animate-choice,196,856995,0.0-76.0-1.20,TRUE,TRUE,FALSE,FALSE,"""event"",""trial"",""time""
""fullscreenenter"",""5"",""53949""
","
","
","""event"",""trial"",""time""
""fullscreenenter"",""5"",""53949""
","
",382.49999999976717,NA,48,NA,NA,3000,1,NA,NA,images/purpleplanet.jpg,images/alien4,images/alien3,images/rocket1,images/alien4,images/t.png,2,real,false,2,rare,1,2020-06-12T23:12:27Z,sub40
two-step-fixation,197,857999,0.0-76.0-2.20,TRUE,TRUE,FALSE,FALSE,"""event"",""trial"",""time""
""fullscreenenter"",""5"",""53949""
","
","
","""event"",""trial"",""time""
""fullscreenenter"",""5"",""53949""
","
",NA,images/earth.jpg,NA,NA,NA,NA,NA,NA,NA,NA,NA,NA,NA,NA,NA,fixation,NA,NA,NA,NA,NA,NA,sub40
d3-animate-choice,198,860262,0.0-76.0-0.21,TRUE,TRUE,FALSE,FALSE,"""event"",""trial"",""time""
""fullscreenenter"",""5"",""53949""
","
","
","""event"",""trial"",""time""
""fullscreenenter"",""5"",""53949""
","
",257.94499999762047,NA,49,NA,NA,3000,1,2017.249999997206,48,images/earth.jpg,images/rocket2,images/rocket1,null,images/rocket1,NA,1,real,null,1,NA,NA,NA,sub40
d3-animate-choice,199,862584,0.0-76.0-1.21,TRUE,TRUE,FALSE,FALSE,"""event"",""trial"",""time""
""fullscreenenter"",""5"",""53949""
","
","
","""event"",""trial"",""time""
""fullscreenenter"",""5"",""53949""
","
",314.0099999945378,NA,48,NA,NA,3000,1,NA,NA,images/redplanet1.jpg,images/alien2,images/alien1,images/rocket1,images/alien2,images/t.png,2,real,true,2,common,1,2020-06-12T23:12:33Z,sub40
two-step-fixation,200,863587,0.0-76.0-2.21,TRUE,TRUE,FALSE,FALSE,"""event"",""trial"",""time""
""fullscreenenter"",""5"",""53949""
","
","
","""event"",""trial"",""time""
""fullscreenenter"",""5"",""53949""
","
",NA,images/earth.jpg,NA,NA,NA,NA,NA,NA,NA,NA,NA,NA,NA,NA,NA,fixation,NA,NA,NA,NA,NA,NA,sub40
d3-animate-choice,201,865823,0.0-76.0-0.22,TRUE,TRUE,FALSE,FALSE,"""event"",""trial"",""time""
""fullscreenenter"",""5"",""53949""
","
","
","""event"",""trial"",""time""
""fullscreenenter"",""5"",""53949""
","
",232.45000000309665,NA,49,NA,NA,3000,1,NA,NA,images/earth.jpg,images/rocket2,images/rocket1,null,images/rocket1,NA,1,real,null,1,NA,NA,NA,sub40
d3-animate-choice,202,868114,0.0-76.0-1.22,TRUE,TRUE,FALSE,FALSE,"""event"",""trial"",""time""
""fullscreenenter"",""5"",""53949""
","
","
","""event"",""trial"",""time""
""fullscreenenter"",""5"",""53949""
","
",287.2799999968847,NA,48,NA,NA,3000,1,NA,NA,images/purpleplanet.jpg,images/alien4,images/alien3,images/rocket1,images/alien4,images/t.png,2,real,false,2,rare,1,2020-06-12T23:12:38Z,sub40
two-step-fixation,203,869117,0.0-76.0-2.22,TRUE,TRUE,FALSE,FALSE,"""event"",""trial"",""time""
""fullscreenenter"",""5"",""53949""
","
","
","""event"",""trial"",""time""
""fullscreenenter"",""5"",""53949""
","
",NA,images/earth.jpg,NA,NA,NA,NA,NA,NA,NA,NA,NA,NA,NA,NA,NA,fixation,NA,NA,NA,NA,NA,NA,sub40
d3-animate-choice,204,871426,0.0-76.0-0.23,TRUE,TRUE,FALSE,FALSE,"""event"",""trial"",""time""
""fullscreenenter"",""5"",""53949""
","
","
","""event"",""trial"",""time""
""fullscreenenter"",""5"",""53949""
","
",304.5050000001211,NA,49,NA,NA,3000,1,NA,NA,images/earth.jpg,images/rocket2,images/rocket1,null,images/rocket1,NA,1,real,null,1,NA,NA,NA,sub40
d3-animate-choice,205,873727,0.0-76.0-1.23,TRUE,TRUE,FALSE,FALSE,"""event"",""trial"",""time""
""fullscreenenter"",""5"",""53949""
","
","
","""event"",""trial"",""time""
""fullscreenenter"",""5"",""53949""
","
",297.0500000010943,NA,48,NA,NA,3000,1,NA,NA,images/redplanet1.jpg,images/alien2,images/alien1,images/rocket1,images/alien2,images/t.png,2,real,true,2,common,1,2020-06-12T23:12:44Z,sub40
two-step-fixation,206,874730,0.0-76.0-2.23,TRUE,TRUE,FALSE,FALSE,"""event"",""trial"",""time""
""fullscreenenter"",""5"",""53949""
","
","
","""event"",""trial"",""time""
""fullscreenenter"",""5"",""53949""
","
",NA,images/earth.jpg,NA,NA,NA,NA,NA,NA,NA,NA,NA,NA,NA,NA,NA,fixation,NA,NA,NA,NA,NA,NA,sub40
d3-animate-choice,207,876936,0.0-76.0-0.24,TRUE,TRUE,FALSE,FALSE,"""event"",""trial"",""time""
""fullscreenenter"",""5"",""53949""
","
","
","""event"",""trial"",""time""
""fullscreenenter"",""5"",""53949""
","
",202.76500000187661,NA,48,NA,NA,3000,1,NA,NA,images/earth.jpg,images/rocket2,images/rocket1,null,images/rocket2,NA,1,real,null,2,NA,NA,NA,sub40
d3-animate-choice,208,879460,0.0-76.0-1.24,TRUE,TRUE,FALSE,FALSE,"""event"",""trial"",""time""
""fullscreenenter"",""5"",""53949""
","
","
","""event"",""trial"",""time""
""fullscreenenter"",""5"",""53949""
","
",519.9900000006892,NA,48,NA,NA,3000,1,NA,NA,images/purpleplanet.jpg,images/alien4,images/alien3,images/rocket2,images/alien4,images/t.png,2,real,true,2,common,1,2020-06-12T23:12:50Z,sub40
two-step-fixation,209,880463,0.0-76.0-2.24,TRUE,TRUE,FALSE,FALSE,"""event"",""trial"",""time""
""fullscreenenter"",""5"",""53949""
","
","
","""event"",""trial"",""time""
""fullscreenenter"",""5"",""53949""
","
",NA,images/earth.jpg,NA,NA,NA,NA,NA,NA,NA,NA,NA,NA,NA,NA,NA,fixation,NA,NA,NA,NA,NA,NA,sub40
d3-animate-choice,210,882730,0.0-76.0-0.25,TRUE,TRUE,FALSE,FALSE,"""event"",""trial"",""time""
""fullscreenenter"",""5"",""53949""
","
","
","""event"",""trial"",""time""
""fullscreenenter"",""5"",""53949""
","
",263.2699999958277,NA,49,NA,NA,3000,1,NA,NA,images/earth.jpg,images/rocket2,images/rocket1,null,images/rocket1,NA,1,real,null,1,NA,NA,NA,sub40
d3-animate-choice,211,884978,0.0-76.0-1.25,TRUE,TRUE,FALSE,FALSE,"""event"",""trial"",""time""
""fullscreenenter"",""5"",""53949""
","
","
","""event"",""trial"",""time""
""fullscreenenter"",""5"",""53949""
","
",244.270000002929,NA,48,NA,NA,3000,1,NA,NA,images/purpleplanet.jpg,images/alien4,images/alien3,images/rocket1,images/alien4,images/t.png,2,real,false,2,rare,1,2020-06-12T23:12:55Z,sub40
two-step-fixation,212,885981,0.0-76.0-2.25,TRUE,TRUE,FALSE,FALSE,"""event"",""trial"",""time""
""fullscreenenter"",""5"",""53949""
","
","
","""event"",""trial"",""time""
""fullscreenenter"",""5"",""53949""
","
",NA,images/earth.jpg,NA,NA,NA,NA,NA,NA,NA,NA,NA,NA,NA,NA,NA,fixation,NA,NA,NA,NA,NA,NA,sub40
d3-animate-choice,213,888381,0.0-76.0-0.26,TRUE,TRUE,FALSE,FALSE,"""event"",""trial"",""time""
""fullscreenenter"",""5"",""53949""
","
","
","""event"",""trial"",""time""
""fullscreenenter"",""5"",""53949""
","
",396.98499999940395,NA,48,NA,NA,3000,1,NA,NA,images/earth.jpg,images/rocket2,images/rocket1,null,images/rocket2,NA,1,real,null,2,NA,NA,NA,sub40
d3-animate-choice,214,890929,0.0-76.0-1.26,TRUE,TRUE,FALSE,FALSE,"""event"",""trial"",""time""
""fullscreenenter"",""5"",""53949""
","
","
","""event"",""trial"",""time""
""fullscreenenter"",""5"",""53949""
","
",543.410000005737,NA,48,NA,NA,3000,1,NA,NA,images/purpleplanet.jpg,images/alien4,images/alien3,images/rocket2,images/alien4,images/t.png,2,real,true,2,common,1,2020-06-12T23:13:01Z,sub40
two-step-fixation,215,891933,0.0-76.0-2.26,TRUE,TRUE,FALSE,FALSE,"""event"",""trial"",""time""
""fullscreenenter"",""5"",""53949""
","
","
","""event"",""trial"",""time""
""fullscreenenter"",""5"",""53949""
","
",NA,images/earth.jpg,NA,NA,NA,NA,NA,NA,NA,NA,NA,NA,NA,NA,NA,fixation,NA,NA,NA,NA,NA,NA,sub40
d3-animate-choice,216,894180,0.0-76.0-0.27,TRUE,TRUE,FALSE,FALSE,"""event"",""trial"",""time""
""fullscreenenter"",""5"",""53949""
","
","
","""event"",""trial"",""time""
""fullscreenenter"",""5"",""53949""
","
",243.8399999954272,NA,49,NA,NA,3000,1,NA,NA,images/earth.jpg,images/rocket2,images/rocket1,null,images/rocket1,NA,1,real,null,1,NA,NA,NA,sub40
d3-animate-choice,217,896820,0.0-76.0-1.27,TRUE,TRUE,FALSE,FALSE,"""event"",""trial"",""time""
""fullscreenenter"",""5"",""53949""
","
","
","""event"",""trial"",""time""
""fullscreenenter"",""5"",""53949""
","
",636.0549999952782,NA,48,NA,NA,3000,1,NA,NA,images/redplanet1.jpg,images/alien2,images/alien1,images/rocket1,images/alien2,images/t.png,2,real,true,2,common,1,2020-06-12T23:13:07Z,sub40
two-step-fixation,218,897823,0.0-76.0-2.27,TRUE,TRUE,FALSE,FALSE,"""event"",""trial"",""time""
""fullscreenenter"",""5"",""53949""
","
","
","""event"",""trial"",""time""
""fullscreenenter"",""5"",""53949""
","
",NA,images/earth.jpg,NA,NA,NA,NA,NA,NA,NA,NA,NA,NA,NA,NA,NA,fixation,NA,NA,NA,NA,NA,NA,sub40
d3-animate-choice,219,900110,0.0-76.0-0.28,TRUE,TRUE,FALSE,FALSE,"""event"",""trial"",""time""
""fullscreenenter"",""5"",""53949""
","
","
","""event"",""trial"",""time""
""fullscreenenter"",""5"",""53949""
","
",283.25500000221655,NA,49,NA,NA,3000,1,NA,NA,images/earth.jpg,images/rocket2,images/rocket1,null,images/rocket1,NA,1,real,null,1,NA,NA,NA,sub40
d3-animate-choice,220,902357,0.0-76.0-1.28,TRUE,TRUE,FALSE,FALSE,"""event"",""trial"",""time""
""fullscreenenter"",""5"",""53949""
","
","
","""event"",""trial"",""time""
""fullscreenenter"",""5"",""53949""
","
",242.85000000230502,NA,48,NA,NA,3000,1,NA,NA,images/redplanet1.jpg,images/alien2,images/alien1,images/rocket1,images/alien2,images/t.png,2,real,true,2,common,1,2020-06-12T23:13:13Z,sub40
two-step-fixation,221,903360,0.0-76.0-2.28,TRUE,TRUE,FALSE,FALSE,"""event"",""trial"",""time""
""fullscreenenter"",""5"",""53949""
","
","
","""event"",""trial"",""time""
""fullscreenenter"",""5"",""53949""
","
",NA,images/earth.jpg,NA,NA,NA,NA,NA,NA,NA,NA,NA,NA,NA,NA,NA,fixation,NA,NA,NA,NA,NA,NA,sub40
d3-animate-choice,222,905631,0.0-76.0-0.29,TRUE,TRUE,FALSE,FALSE,"""event"",""trial"",""time""
""fullscreenenter"",""5"",""53949""
","
","
","""event"",""trial"",""time""
""fullscreenenter"",""5"",""53949""
","
",266.7349999973085,NA,48,NA,NA,3000,1,NA,NA,images/earth.jpg,images/rocket2,images/rocket1,null,images/rocket2,NA,1,real,null,2,NA,NA,NA,sub40
d3-animate-choice,223,907951,0.0-76.0-1.29,TRUE,TRUE,FALSE,FALSE,"""event"",""trial"",""time""
""fullscreenenter"",""5"",""53949""
","
","
","""event"",""trial"",""time""
""fullscreenenter"",""5"",""53949""
","
",315.8949999996694,NA,48,NA,NA,3000,1,NA,NA,images/purpleplanet.jpg,images/alien4,images/alien3,images/rocket2,images/alien4,images/nothing.png,2,real,true,2,common,0,2020-06-12T23:13:18Z,sub40
two-step-fixation,224,908954,0.0-76.0-2.29,TRUE,TRUE,FALSE,FALSE,"""event"",""trial"",""time""
""fullscreenenter"",""5"",""53949""
","
","
","""event"",""trial"",""time""
""fullscreenenter"",""5"",""53949""
","
",NA,images/earth.jpg,NA,NA,NA,NA,NA,NA,NA,NA,NA,NA,NA,NA,NA,fixation,NA,NA,NA,NA,NA,NA,sub40
d3-animate-choice,225,911095,0.0-76.0-0.30,TRUE,TRUE,FALSE,FALSE,"""event"",""trial"",""time""
""fullscreenenter"",""5"",""53949""
","
","
","""event"",""trial"",""time""
""fullscreenenter"",""5"",""53949""
","
",136.92999999341555,NA,48,NA,NA,3000,1,NA,NA,images/earth.jpg,images/rocket2,images/rocket1,null,images/rocket2,NA,1,real,null,2,NA,NA,NA,sub40
d3-animate-choice,226,913425,0.0-76.0-1.30,TRUE,TRUE,FALSE,FALSE,"""event"",""trial"",""time""
""fullscreenenter"",""5"",""53949""
","
","
","""event"",""trial"",""time""
""fullscreenenter"",""5"",""53949""
","
",327.2399999987101,NA,49,NA,NA,3000,1,NA,NA,images/purpleplanet.jpg,images/alien4,images/alien3,images/rocket2,images/alien3,images/t.png,2,real,true,1,common,1,2020-06-12T23:13:24Z,sub40
two-step-fixation,227,914428,0.0-76.0-2.30,TRUE,TRUE,FALSE,FALSE,"""event"",""trial"",""time""
""fullscreenenter"",""5"",""53949""
","
","
","""event"",""trial"",""time""
""fullscreenenter"",""5"",""53949""
","
",NA,images/earth.jpg,NA,NA,NA,NA,NA,NA,NA,NA,NA,NA,NA,NA,NA,fixation,NA,NA,NA,NA,NA,NA,sub40
d3-animate-choice,228,916770,0.0-76.0-0.31,TRUE,TRUE,FALSE,FALSE,"""event"",""trial"",""time""
""fullscreenenter"",""5"",""53949""
","
","
","""event"",""trial"",""time""
""fullscreenenter"",""5"",""53949""
","
",337.3499999943888,NA,48,NA,NA,3000,1,NA,NA,images/earth.jpg,images/rocket2,images/rocket1,null,images/rocket2,NA,1,real,null,2,NA,NA,NA,sub40
d3-animate-choice,229,919058,0.0-76.0-1.31,TRUE,TRUE,FALSE,FALSE,"""event"",""trial"",""time""
""fullscreenenter"",""5"",""53949""
","
","
","""event"",""trial"",""time""
""fullscreenenter"",""5"",""53949""
","
",282.03499999654014,NA,49,NA,NA,3000,1,NA,NA,images/redplanet1.jpg,images/alien2,images/alien1,images/rocket2,images/alien1,images/nothing.png,2,real,false,1,rare,0,2020-06-12T23:13:29Z,sub40
two-step-fixation,230,920061,0.0-76.0-2.31,TRUE,TRUE,FALSE,FALSE,"""event"",""trial"",""time""
""fullscreenenter"",""5"",""53949""
","
","
","""event"",""trial"",""time""
""fullscreenenter"",""5"",""53949""
","
",NA,images/earth.jpg,NA,NA,NA,NA,NA,NA,NA,NA,NA,NA,NA,NA,NA,fixation,NA,NA,NA,NA,NA,NA,sub40
d3-animate-choice,231,922391,0.0-76.0-0.32,TRUE,TRUE,FALSE,FALSE,"""event"",""trial"",""time""
""fullscreenenter"",""5"",""53949""
","
","
","""event"",""trial"",""time""
""fullscreenenter"",""5"",""53949""
","
",325.6849999962142,NA,48,NA,NA,3000,1,NA,NA,images/earth.jpg,images/rocket2,images/rocket1,null,images/rocket2,NA,1,real,null,2,NA,NA,NA,sub40
d3-animate-choice,232,925091,0.0-76.0-1.32,TRUE,TRUE,FALSE,FALSE,"""event"",""trial"",""time""
""fullscreenenter"",""5"",""53949""
","
","
","""event"",""trial"",""time""
""fullscreenenter"",""5"",""53949""
","
",695.6649999993388,NA,49,NA,NA,3000,1,NA,NA,images/purpleplanet.jpg,images/alien4,images/alien3,images/rocket2,images/alien3,images/nothing.png,2,real,true,1,common,0,2020-06-12T23:13:35Z,sub40
two-step-fixation,233,926094,0.0-76.0-2.32,TRUE,TRUE,FALSE,FALSE,"""event"",""trial"",""time""
""fullscreenenter"",""5"",""53949""
","
","
","""event"",""trial"",""time""
""fullscreenenter"",""5"",""53949""
","
",NA,images/earth.jpg,NA,NA,NA,NA,NA,NA,NA,NA,NA,NA,NA,NA,NA,fixation,NA,NA,NA,NA,NA,NA,sub40
d3-animate-choice,234,928341,0.0-76.0-0.33,TRUE,TRUE,FALSE,FALSE,"""event"",""trial"",""time""
""fullscreenenter"",""5"",""53949""
","
","
","""event"",""trial"",""time""
""fullscreenenter"",""5"",""53949""
","
",243.5699999986682,NA,49,NA,NA,3000,1,NA,NA,images/earth.jpg,images/rocket2,images/rocket1,null,images/rocket1,NA,1,real,null,1,NA,NA,NA,sub40
d3-animate-choice,235,930673,0.0-76.0-1.33,TRUE,TRUE,FALSE,FALSE,"""event"",""trial"",""time""
""fullscreenenter"",""5"",""53949""
","
","
","""event"",""trial"",""time""
""fullscreenenter"",""5"",""53949""
","
",327.8199999985518,NA,48,NA,NA,3000,1,NA,NA,images/redplanet1.jpg,images/alien2,images/alien1,images/rocket1,images/alien2,images/nothing.png,2,real,true,2,common,0,2020-06-12T23:13:41Z,sub40
two-step-fixation,236,931679,0.0-76.0-2.33,TRUE,TRUE,FALSE,FALSE,"""event"",""trial"",""time""
""fullscreenenter"",""5"",""53949""
","
","
","""event"",""trial"",""time""
""fullscreenenter"",""5"",""53949""
","
",NA,images/earth.jpg,NA,NA,NA,NA,NA,NA,NA,NA,NA,NA,NA,NA,NA,fixation,NA,NA,NA,NA,NA,NA,sub40
d3-animate-choice,237,934128,0.0-76.0-0.34,TRUE,TRUE,FALSE,FALSE,"""event"",""trial"",""time""
""fullscreenenter"",""5"",""53949""
","
","
","""event"",""trial"",""time""
""fullscreenenter"",""5"",""53949""
","
",444.34000000183005,NA,48,NA,NA,3000,1,NA,NA,images/earth.jpg,images/rocket2,images/rocket1,null,images/rocket2,NA,1,real,null,2,NA,NA,NA,sub40
d3-animate-choice,238,936578,0.0-76.0-1.34,TRUE,TRUE,FALSE,FALSE,"""event"",""trial"",""time""
""fullscreenenter"",""5"",""53949""
","
","
","""event"",""trial"",""time""
""fullscreenenter"",""5"",""53949""
","
",444.96000000066124,NA,49,NA,NA,3000,1,2265.1299999996554,48,images/redplanet1.jpg,images/alien2,images/alien1,images/rocket2,images/alien1,images/nothing.png,2,real,false,1,rare,0,2020-06-12T23:13:47Z,sub40
two-step-fixation,239,937581,0.0-76.0-2.34,TRUE,TRUE,FALSE,FALSE,"""event"",""trial"",""time""
""fullscreenenter"",""5"",""53949""
","
","
","""event"",""trial"",""time""
""fullscreenenter"",""5"",""53949""
","
",NA,images/earth.jpg,NA,NA,NA,NA,NA,NA,NA,NA,NA,NA,NA,NA,NA,fixation,NA,NA,NA,NA,NA,NA,sub40
d3-animate-choice,240,939923,0.0-76.0-0.35,TRUE,TRUE,FALSE,FALSE,"""event"",""trial"",""time""
""fullscreenenter"",""5"",""53949""
","
","
","""event"",""trial"",""time""
""fullscreenenter"",""5"",""53949""
","
",337.92499999981374,NA,48,NA,NA,3000,1,NA,NA,images/earth.jpg,images/rocket2,images/rocket1,null,images/rocket2,NA,1,real,null,2,NA,NA,NA,sub40
d3-animate-choice,241,942406,0.0-76.0-1.35,TRUE,TRUE,FALSE,FALSE,"""event"",""trial"",""time""
""fullscreenenter"",""5"",""53949""
","
","
","""event"",""trial"",""time""
""fullscreenenter"",""5"",""53949""
","
",479.0199999988545,NA,48,NA,NA,3000,1,NA,NA,images/purpleplanet.jpg,images/alien4,images/alien3,images/rocket2,images/alien4,images/t.png,2,real,true,2,common,1,2020-06-12T23:13:53Z,sub40
two-step-fixation,242,943410,0.0-76.0-2.35,TRUE,TRUE,FALSE,FALSE,"""event"",""trial"",""time""
""fullscreenenter"",""5"",""53949""
","
","
","""event"",""trial"",""time""
""fullscreenenter"",""5"",""53949""
","
",NA,images/earth.jpg,NA,NA,NA,NA,NA,NA,NA,NA,NA,NA,NA,NA,NA,fixation,NA,NA,NA,NA,NA,NA,sub40
d3-animate-choice,243,946037,0.0-76.0-0.36,TRUE,TRUE,FALSE,FALSE,"""event"",""trial"",""time""
""fullscreenenter"",""5"",""53949""
","
","
","""event"",""trial"",""time""
""fullscreenenter"",""5"",""53949""
","
",623.4299999995856,NA,48,NA,NA,3000,1,NA,NA,images/earth.jpg,images/rocket2,images/rocket1,null,images/rocket2,NA,1,real,null,2,NA,NA,NA,sub40
d3-animate-choice,244,948356,0.0-76.0-1.36,TRUE,TRUE,FALSE,FALSE,"""event"",""trial"",""time""
""fullscreenenter"",""5"",""53949""
","
","
","""event"",""trial"",""time""
""fullscreenenter"",""5"",""53949""
","
",315.5599999955157,NA,48,NA,NA,3000,1,NA,NA,images/purpleplanet.jpg,images/alien4,images/alien3,images/rocket2,images/alien4,images/t.png,2,real,true,2,common,1,2020-06-12T23:13:59Z,sub40
two-step-fixation,245,949360,0.0-76.0-2.36,TRUE,TRUE,FALSE,FALSE,"""event"",""trial"",""time""
""fullscreenenter"",""5"",""53949""
","
","
","""event"",""trial"",""time""
""fullscreenenter"",""5"",""53949""
","
",NA,images/earth.jpg,NA,NA,NA,NA,NA,NA,NA,NA,NA,NA,NA,NA,NA,fixation,NA,NA,NA,NA,NA,NA,sub40
d3-animate-choice,246,951524,0.0-76.0-0.37,TRUE,TRUE,FALSE,FALSE,"""event"",""trial"",""time""
""fullscreenenter"",""5"",""53949""
","
","
","""event"",""trial"",""time""
""fullscreenenter"",""5"",""53949""
","
",160.59500000125263,NA,48,NA,NA,3000,1,NA,NA,images/earth.jpg,images/rocket2,images/rocket1,null,images/rocket2,NA,1,real,null,2,NA,NA,NA,sub40
d3-animate-choice,247,953744,0.0-76.0-1.37,TRUE,TRUE,FALSE,FALSE,"""event"",""trial"",""time""
""fullscreenenter"",""5"",""53949""
","
","
","""event"",""trial"",""time""
""fullscreenenter"",""5"",""53949""
","
",215.4000000008382,NA,48,NA,NA,3000,1,NA,NA,images/redplanet1.jpg,images/alien2,images/alien1,images/rocket2,images/alien2,images/nothing.png,2,real,false,2,rare,0,2020-06-12T23:14:04Z,sub40
two-step-fixation,248,954747,0.0-76.0-2.37,TRUE,TRUE,FALSE,FALSE,"""event"",""trial"",""time""
""fullscreenenter"",""5"",""53949""
","
","
","""event"",""trial"",""time""
""fullscreenenter"",""5"",""53949""
","
",NA,images/earth.jpg,NA,NA,NA,NA,NA,NA,NA,NA,NA,NA,NA,NA,NA,fixation,NA,NA,NA,NA,NA,NA,sub40
d3-animate-choice,249,957058,0.0-76.0-0.38,TRUE,TRUE,FALSE,FALSE,"""event"",""trial"",""time""
""fullscreenenter"",""5"",""53949""
","
","
","""event"",""trial"",""time""
""fullscreenenter"",""5"",""53949""
","
",307.2699999974575,NA,48,NA,NA,3000,1,NA,NA,images/earth.jpg,images/rocket2,images/rocket1,null,images/rocket2,NA,1,real,null,2,NA,NA,NA,sub40
d3-animate-choice,250,959659,0.0-76.0-1.38,TRUE,TRUE,FALSE,FALSE,"""event"",""trial"",""time""
""fullscreenenter"",""5"",""53949""
","
","
","""event"",""trial"",""time""
""fullscreenenter"",""5"",""53949""
","
",597.3050000029616,NA,48,NA,NA,3000,1,NA,NA,images/purpleplanet.jpg,images/alien4,images/alien3,images/rocket2,images/alien4,images/t.png,2,real,true,2,common,1,2020-06-12T23:14:10Z,sub40
two-step-fixation,251,960662,0.0-76.0-2.38,TRUE,TRUE,FALSE,FALSE,"""event"",""trial"",""time""
""fullscreenenter"",""5"",""53949""
","
","
","""event"",""trial"",""time""
""fullscreenenter"",""5"",""53949""
","
",NA,images/earth.jpg,NA,NA,NA,NA,NA,NA,NA,NA,NA,NA,NA,NA,NA,fixation,NA,NA,NA,NA,NA,NA,sub40
d3-animate-choice,252,962931,0.0-76.0-0.39,TRUE,TRUE,FALSE,FALSE,"""event"",""trial"",""time""
""fullscreenenter"",""5"",""53949""
","
","
","""event"",""trial"",""time""
""fullscreenenter"",""5"",""53949""
","
",265.13999999593943,NA,49,NA,NA,3000,1,NA,NA,images/earth.jpg,images/rocket2,images/rocket1,null,images/rocket1,NA,1,real,null,1,NA,NA,NA,sub40
d3-animate-choice,253,965330,0.0-76.0-1.39,TRUE,TRUE,FALSE,FALSE,"""event"",""trial"",""time""
""fullscreenenter"",""5"",""53949""
","
","
","""event"",""trial"",""time""
""fullscreenenter"",""5"",""53949""
","
",395.30999999982305,NA,49,NA,NA,3000,1,NA,NA,images/redplanet1.jpg,images/alien2,images/alien1,images/rocket1,images/alien1,images/nothing.png,2,real,true,1,common,0,2020-06-12T23:14:16Z,sub40
two-step-fixation,254,966333,0.0-76.0-2.39,TRUE,TRUE,FALSE,FALSE,"""event"",""trial"",""time""
""fullscreenenter"",""5"",""53949""
","
","
","""event"",""trial"",""time""
""fullscreenenter"",""5"",""53949""
","
",NA,images/earth.jpg,NA,NA,NA,NA,NA,NA,NA,NA,NA,NA,NA,NA,NA,fixation,NA,NA,NA,NA,NA,NA,sub40
d3-animate-choice,255,968653,0.0-76.0-0.40,TRUE,TRUE,FALSE,FALSE,"""event"",""trial"",""time""
""fullscreenenter"",""5"",""53949""
","
","
","""event"",""trial"",""time""
""fullscreenenter"",""5"",""53949""
","
",316.0599999973783,NA,48,NA,NA,3000,1,NA,NA,images/earth.jpg,images/rocket2,images/rocket1,null,images/rocket2,NA,1,real,null,2,NA,NA,NA,sub40
d3-animate-choice,256,970988,0.0-76.0-1.40,TRUE,TRUE,FALSE,FALSE,"""event"",""trial"",""time""
""fullscreenenter"",""5"",""53949""
","
","
","""event"",""trial"",""time""
""fullscreenenter"",""5"",""53949""
","
",332.5200000036275,NA,48,NA,NA,3000,1,NA,NA,images/purpleplanet.jpg,images/alien4,images/alien3,images/rocket2,images/alien4,images/t.png,2,real,true,2,common,1,2020-06-12T23:14:21Z,sub40
two-step-fixation,257,971991,0.0-76.0-2.40,TRUE,TRUE,FALSE,FALSE,"""event"",""trial"",""time""
""fullscreenenter"",""5"",""53949""
","
","
","""event"",""trial"",""time""
""fullscreenenter"",""5"",""53949""
","
",NA,images/earth.jpg,NA,NA,NA,NA,NA,NA,NA,NA,NA,NA,NA,NA,NA,fixation,NA,NA,NA,NA,NA,NA,sub40
d3-animate-choice,258,974478,0.0-76.0-0.41,TRUE,TRUE,FALSE,FALSE,"""event"",""trial"",""time""
""fullscreenenter"",""5"",""53949""
","
","
","""event"",""trial"",""time""
""fullscreenenter"",""5"",""53949""
","
",482.4899999948684,NA,48,NA,NA,3000,1,NA,NA,images/earth.jpg,images/rocket2,images/rocket1,null,images/rocket2,NA,1,real,null,2,NA,NA,NA,sub40
d3-animate-choice,259,976756,0.0-76.0-1.41,TRUE,TRUE,FALSE,FALSE,"""event"",""trial"",""time""
""fullscreenenter"",""5"",""53949""
","
","
","""event"",""trial"",""time""
""fullscreenenter"",""5"",""53949""
","
",273.7200000046287,NA,48,NA,NA,3000,1,NA,NA,images/redplanet1.jpg,images/alien2,images/alien1,images/rocket2,images/alien2,images/nothing.png,2,real,false,2,rare,0,2020-06-12T23:14:27Z,sub40
two-step-fixation,260,977759,0.0-76.0-2.41,TRUE,TRUE,FALSE,FALSE,"""event"",""trial"",""time""
""fullscreenenter"",""5"",""53949""
","
","
","""event"",""trial"",""time""
""fullscreenenter"",""5"",""53949""
","
",NA,images/earth.jpg,NA,NA,NA,NA,NA,NA,NA,NA,NA,NA,NA,NA,NA,fixation,NA,NA,NA,NA,NA,NA,sub40
d3-animate-choice,261,980273,0.0-76.0-0.42,TRUE,TRUE,FALSE,FALSE,"""event"",""trial"",""time""
""fullscreenenter"",""5"",""53949""
","
","
","""event"",""trial"",""time""
""fullscreenenter"",""5"",""53949""
","
",510.1349999968661,NA,48,NA,NA,3000,1,NA,NA,images/earth.jpg,images/rocket2,images/rocket1,null,images/rocket2,NA,1,real,null,2,NA,NA,NA,sub40
d3-animate-choice,262,983097,0.0-76.0-1.42,TRUE,TRUE,FALSE,FALSE,"""event"",""trial"",""time""
""fullscreenenter"",""5"",""53949""
","
","
","""event"",""trial"",""time""
""fullscreenenter"",""5"",""53949""
","
",819.9699999967124,NA,48,NA,NA,3000,1,NA,NA,images/purpleplanet.jpg,images/alien4,images/alien3,images/rocket2,images/alien4,images/nothing.png,2,real,true,2,common,0,2020-06-12T23:14:33Z,sub40
two-step-fixation,263,984100,0.0-76.0-2.42,TRUE,TRUE,FALSE,FALSE,"""event"",""trial"",""time""
""fullscreenenter"",""5"",""53949""
","
","
","""event"",""trial"",""time""
""fullscreenenter"",""5"",""53949""
","
",NA,images/earth.jpg,NA,NA,NA,NA,NA,NA,NA,NA,NA,NA,NA,NA,NA,fixation,NA,NA,NA,NA,NA,NA,sub40
d3-animate-choice,264,986389,0.0-76.0-0.43,TRUE,TRUE,FALSE,FALSE,"""event"",""trial"",""time""
""fullscreenenter"",""5"",""53949""
","
","
","""event"",""trial"",""time""
""fullscreenenter"",""5"",""53949""
","
",284.8100000047125,NA,48,NA,NA,3000,1,NA,NA,images/earth.jpg,images/rocket2,images/rocket1,null,images/rocket2,NA,1,real,null,2,NA,NA,NA,sub40
d3-animate-choice,265,988867,0.0-76.0-1.43,TRUE,TRUE,FALSE,FALSE,"""event"",""trial"",""time""
""fullscreenenter"",""5"",""53949""
","
","
","""event"",""trial"",""time""
""fullscreenenter"",""5"",""53949""
","
",472.9349999979604,NA,49,NA,NA,3000,1,NA,NA,images/purpleplanet.jpg,images/alien4,images/alien3,images/rocket2,images/alien3,images/t.png,2,real,true,1,common,1,2020-06-12T23:14:39Z,sub40
two-step-fixation,266,989870,0.0-76.0-2.43,TRUE,TRUE,FALSE,FALSE,"""event"",""trial"",""time""
""fullscreenenter"",""5"",""53949""
","
","
","""event"",""trial"",""time""
""fullscreenenter"",""5"",""53949""
","
",NA,images/earth.jpg,NA,NA,NA,NA,NA,NA,NA,NA,NA,NA,NA,NA,NA,fixation,NA,NA,NA,NA,NA,NA,sub40
d3-animate-choice,267,992176,0.0-76.0-0.44,TRUE,TRUE,FALSE,FALSE,"""event"",""trial"",""time""
""fullscreenenter"",""5"",""53949""
","
","
","""event"",""trial"",""time""
""fullscreenenter"",""5"",""53949""
","
",302.40500000235625,NA,49,NA,NA,3000,1,NA,NA,images/earth.jpg,images/rocket2,images/rocket1,null,images/rocket1,NA,1,real,null,1,NA,NA,NA,sub40
d3-animate-choice,268,994540,0.0-76.0-1.44,TRUE,TRUE,FALSE,FALSE,"""event"",""trial"",""time""
""fullscreenenter"",""5"",""53949""
","
","
","""event"",""trial"",""time""
""fullscreenenter"",""5"",""53949""
","
",359.62499999720603,NA,48,NA,NA,3000,1,NA,NA,images/redplanet1.jpg,images/alien2,images/alien1,images/rocket1,images/alien2,images/t.png,2,real,true,2,common,1,2020-06-12T23:14:45Z,sub40
two-step-fixation,269,995544,0.0-76.0-2.44,TRUE,TRUE,FALSE,FALSE,"""event"",""trial"",""time""
""fullscreenenter"",""5"",""53949""
","
","
","""event"",""trial"",""time""
""fullscreenenter"",""5"",""53949""
","
",NA,images/earth.jpg,NA,NA,NA,NA,NA,NA,NA,NA,NA,NA,NA,NA,NA,fixation,NA,NA,NA,NA,NA,NA,sub40
d3-animate-choice,270,997618,0.0-76.0-0.45,TRUE,TRUE,FALSE,FALSE,"""event"",""trial"",""time""
""fullscreenenter"",""5"",""53949""
","
","
","""event"",""trial"",""time""
""fullscreenenter"",""5"",""53949""
","
",69.83499999484047,NA,48,NA,NA,3000,1,NA,NA,images/earth.jpg,images/rocket2,images/rocket1,null,images/rocket2,NA,1,real,null,2,NA,NA,NA,sub40
d3-animate-choice,271,999651,0.0-76.0-1.45,TRUE,TRUE,FALSE,FALSE,"""event"",""trial"",""time""
""fullscreenenter"",""5"",""53949""
","
","
","""event"",""trial"",""time""
""fullscreenenter"",""5"",""53949""
","
",28.99500000057742,NA,49,NA,NA,3000,1,NA,NA,images/purpleplanet.jpg,images/alien4,images/alien3,images/rocket2,images/alien3,images/nothing.png,2,real,true,1,common,0,2020-06-12T23:14:50Z,sub40
two-step-fixation,272,1000654,0.0-76.0-2.45,TRUE,TRUE,FALSE,FALSE,"""event"",""trial"",""time""
""fullscreenenter"",""5"",""53949""
","
","
","""event"",""trial"",""time""
""fullscreenenter"",""5"",""53949""
","
",NA,images/earth.jpg,NA,NA,NA,NA,NA,NA,NA,NA,NA,NA,NA,NA,NA,fixation,NA,NA,NA,NA,NA,NA,sub40
d3-animate-choice,273,1003007,0.0-76.0-0.46,TRUE,TRUE,FALSE,FALSE,"""event"",""trial"",""time""
""fullscreenenter"",""5"",""53949""
","
","
","""event"",""trial"",""time""
""fullscreenenter"",""5"",""53949""
","
",350.0650000059977,NA,49,NA,NA,3000,1,NA,NA,images/earth.jpg,images/rocket2,images/rocket1,null,images/rocket1,NA,1,real,null,1,NA,NA,NA,sub40
d3-animate-choice,274,1005876,0.0-76.0-1.46,TRUE,TRUE,FALSE,FALSE,"""event"",""trial"",""time""
""fullscreenenter"",""5"",""53949""
","
","
","""event"",""trial"",""time""
""fullscreenenter"",""5"",""53949""
","
",864.0699999961071,NA,49,NA,NA,3000,1,NA,NA,images/redplanet1.jpg,images/alien2,images/alien1,images/rocket1,images/alien1,images/nothing.png,2,real,true,1,common,0,2020-06-12T23:14:56Z,sub40
two-step-fixation,275,1006879,0.0-76.0-2.46,TRUE,TRUE,FALSE,FALSE,"""event"",""trial"",""time""
""fullscreenenter"",""5"",""53949""
","
","
","""event"",""trial"",""time""
""fullscreenenter"",""5"",""53949""
","
",NA,images/earth.jpg,NA,NA,NA,NA,NA,NA,NA,NA,NA,NA,NA,NA,NA,fixation,NA,NA,NA,NA,NA,NA,sub40
d3-animate-choice,276,1009193,0.0-76.0-0.47,TRUE,TRUE,FALSE,FALSE,"""event"",""trial"",""time""
""fullscreenenter"",""5"",""53949""
","
","
","""event"",""trial"",""time""
""fullscreenenter"",""5"",""53949""
","
",310.2050000014715,NA,49,NA,NA,3000,1,NA,NA,images/earth.jpg,images/rocket2,images/rocket1,null,images/rocket1,NA,1,real,null,1,NA,NA,NA,sub40
d3-animate-choice,277,1011494,0.0-76.0-1.47,TRUE,TRUE,FALSE,FALSE,"""event"",""trial"",""time""
""fullscreenenter"",""5"",""53949""
","
","
","""event"",""trial"",""time""
""fullscreenenter"",""5"",""53949""
","
",297.3199999979697,NA,48,NA,NA,3000,1,NA,NA,images/redplanet1.jpg,images/alien2,images/alien1,images/rocket1,images/alien2,images/nothing.png,2,real,true,2,common,0,2020-06-12T23:15:02Z,sub40
two-step-fixation,278,1012497,0.0-76.0-2.47,TRUE,TRUE,FALSE,FALSE,"""event"",""trial"",""time""
""fullscreenenter"",""5"",""53949""
","
","
","""event"",""trial"",""time""
""fullscreenenter"",""5"",""53949""
","
",NA,images/earth.jpg,NA,NA,NA,NA,NA,NA,NA,NA,NA,NA,NA,NA,NA,fixation,NA,NA,NA,NA,NA,NA,sub40
d3-animate-choice,279,1015033,0.0-76.0-0.48,TRUE,TRUE,FALSE,FALSE,"""event"",""trial"",""time""
""fullscreenenter"",""5"",""53949""
","
","
","""event"",""trial"",""time""
""fullscreenenter"",""5"",""53949""
","
",531.589999998454,NA,48,NA,NA,3000,1,NA,NA,images/earth.jpg,images/rocket2,images/rocket1,null,images/rocket2,NA,1,real,null,2,NA,NA,NA,sub40
d3-animate-choice,280,1017302,0.0-76.0-1.48,TRUE,TRUE,FALSE,FALSE,"""event"",""trial"",""time""
""fullscreenenter"",""5"",""53949""
","
","
","""event"",""trial"",""time""
""fullscreenenter"",""5"",""53949""
","
",264.9149999998044,NA,48,NA,NA,3000,1,NA,NA,images/purpleplanet.jpg,images/alien4,images/alien3,images/rocket2,images/alien4,images/nothing.png,2,real,true,2,common,0,2020-06-12T23:15:08Z,sub40
two-step-fixation,281,1018306,0.0-76.0-2.48,TRUE,TRUE,FALSE,FALSE,"""event"",""trial"",""time""
""fullscreenenter"",""5"",""53949""
","
","
","""event"",""trial"",""time""
""fullscreenenter"",""5"",""53949""
","
",NA,images/earth.jpg,NA,NA,NA,NA,NA,NA,NA,NA,NA,NA,NA,NA,NA,fixation,NA,NA,NA,NA,NA,NA,sub40
d3-animate-choice,282,1020710,0.0-76.0-0.49,TRUE,TRUE,FALSE,FALSE,"""event"",""trial"",""time""
""fullscreenenter"",""5"",""53949""
","
","
","""event"",""trial"",""time""
""fullscreenenter"",""5"",""53949""
","
",400.7199999978766,NA,48,NA,NA,3000,1,NA,NA,images/earth.jpg,images/rocket2,images/rocket1,null,images/rocket2,NA,1,real,null,2,NA,NA,NA,sub40
d3-animate-choice,283,1022932,0.0-76.0-1.49,TRUE,TRUE,FALSE,FALSE,"""event"",""trial"",""time""
""fullscreenenter"",""5"",""53949""
","
","
","""event"",""trial"",""time""
""fullscreenenter"",""5"",""53949""
","
