trial_type,trial_index,time_elapsed,internal_node_id,rocket_sides,red_planet_first_rocket,red_display_order,purple_display_order,interactions,blur_events,focus_events,fullscreenenter_events,fullscreenexit_events,rt,stimulus,key_press,button_pressed,success,duration,valid_pressed,rts,keys,planet_text,right_text,left_text,center_text,chosen_text,reward_text,trial_stage,practice_trial,transition_type,choice,transition,reward,timestamp,subject_id
pavlovia,0,18,0.0-0.0,TRUE,FALSE,FALSE,TRUE,"""event"",""trial"",""time""
""blur"",""0"",""0""
""focus"",""1"",""3879""
","""event"",""trial"",""time""
""blur"",""0"",""0""
","""event"",""trial"",""time""
""focus"",""1"",""3879""
","
","
",NA,NA,NA,NA,NA,NA,NA,NA,NA,NA,NA,NA,NA,NA,NA,NA,NA,NA,NA,NA,NA,NA,sub65
html-keyboard-response,1,4758,0.0-1.0,TRUE,FALSE,FALSE,TRUE,"""event"",""trial"",""time""
""blur"",""0"",""0""
""focus"",""1"",""3879""
""blur"",""2"",""5735""
""focus"",""2"",""20392""
","""event"",""trial"",""time""
""blur"",""0"",""0""
""blur"",""2"",""5735""
","""event"",""trial"",""time""
""focus"",""1"",""3879""
""focus"",""2"",""20392""
","
","
",4737,Welcome! Press the space bar to begin.,32,NA,NA,NA,NA,NA,NA,NA,NA,NA,NA,NA,NA,NA,NA,NA,NA,NA,NA,NA,sub65
audio-keyboard-response,2,21687,0.0-2.0,TRUE,FALSE,FALSE,TRUE,"""event"",""trial"",""time""
""blur"",""0"",""0""
""focus"",""1"",""3879""
""blur"",""2"",""5735""
""focus"",""2"",""20392""
","""event"",""trial"",""time""
""blur"",""0"",""0""
""blur"",""2"",""5735""
","""event"",""trial"",""time""
""focus"",""1"",""3879""
""focus"",""2"",""20392""
","
","
",16901,audio/beep_loop.wav,32,NA,NA,NA,NA,NA,NA,NA,NA,NA,NA,NA,NA,NA,NA,NA,NA,NA,NA,NA,sub65
audio-button-response,3,23548,0.0-3.0,TRUE,FALSE,FALSE,TRUE,"""event"",""trial"",""time""
""blur"",""0"",""0""
""focus"",""1"",""3879""
""blur"",""2"",""5735""
""focus"",""2"",""20392""
","""event"",""trial"",""time""
""blur"",""0"",""0""
""blur"",""2"",""5735""
","""event"",""trial"",""time""
""focus"",""1"",""3879""
""focus"",""2"",""20392""
","
","
",NaN,audio/fish.mp3,NA,1,NA,NA,NA,NA,NA,NA,NA,NA,NA,NA,NA,NA,NA,NA,NA,NA,NA,NA,sub65
audio-button-response,4,25995,0.0-4.0,TRUE,FALSE,FALSE,TRUE,"""event"",""trial"",""time""
""blur"",""0"",""0""
""focus"",""1"",""3879""
""blur"",""2"",""5735""
""focus"",""2"",""20392""
""blur"",""5"",""30168""
""focus"",""5"",""31636""
""focus"",""5"",""31637""
""fullscreenenter"",""5"",""32877""
","""event"",""trial"",""time""
""blur"",""0"",""0""
""blur"",""2"",""5735""
""blur"",""5"",""30168""
","""event"",""trial"",""time""
""focus"",""1"",""3879""
""focus"",""2"",""20392""
""focus"",""5"",""31636""
""focus"",""5"",""31637""
","""event"",""trial"",""time""
""fullscreenenter"",""5"",""32877""
","
",NaN,audio/tiger.mp3,NA,4,NA,NA,NA,NA,NA,NA,NA,NA,NA,NA,NA,NA,NA,NA,NA,NA,NA,NA,sub65
fullscreen,5,33820,0.0-5.0,TRUE,FALSE,FALSE,TRUE,"""event"",""trial"",""time""
""blur"",""0"",""0""
""focus"",""1"",""3879""
""blur"",""2"",""5735""
""focus"",""2"",""20392""
""blur"",""5"",""30168""
""focus"",""5"",""31636""
""focus"",""5"",""31637""
""fullscreenenter"",""5"",""32877""
","""event"",""trial"",""time""
""blur"",""0"",""0""
""blur"",""2"",""5735""
""blur"",""5"",""30168""
","""event"",""trial"",""time""
""focus"",""1"",""3879""
""focus"",""2"",""20392""
""focus"",""5"",""31636""
""focus"",""5"",""31637""
","""event"",""trial"",""time""
""fullscreenenter"",""5"",""32877""
","
",NA,NA,NA,NA,TRUE,NA,NA,NA,NA,NA,NA,NA,NA,NA,NA,NA,NA,NA,NA,NA,NA,NA,sub65
d3-instructions,6,46928,0.0-6.0,TRUE,FALSE,FALSE,TRUE,"""event"",""trial"",""time""
""blur"",""0"",""0""
""focus"",""1"",""3879""
""blur"",""2"",""5735""
""focus"",""2"",""20392""
""blur"",""5"",""30168""
""focus"",""5"",""31636""
""focus"",""5"",""31637""
""fullscreenenter"",""5"",""32877""
","""event"",""trial"",""time""
""blur"",""0"",""0""
""blur"",""2"",""5735""
""blur"",""5"",""30168""
","""event"",""trial"",""time""
""focus"",""1"",""3879""
""focus"",""2"",""20392""
""focus"",""5"",""31636""
""focus"",""5"",""31637""
","""event"",""trial"",""time""
""fullscreenenter"",""5"",""32877""
","
",NA,NA,NA,NA,NA,NA,NA,NA,NA,NA,NA,NA,NA,NA,NA,NA,NA,NA,NA,NA,NA,NA,sub65
d3-instructions,7,54803,0.0-7.0,TRUE,FALSE,FALSE,TRUE,"""event"",""trial"",""time""
""blur"",""0"",""0""
""focus"",""1"",""3879""
""blur"",""2"",""5735""
""focus"",""2"",""20392""
""blur"",""5"",""30168""
""focus"",""5"",""31636""
""focus"",""5"",""31637""
""fullscreenenter"",""5"",""32877""
","""event"",""trial"",""time""
""blur"",""0"",""0""
""blur"",""2"",""5735""
""blur"",""5"",""30168""
","""event"",""trial"",""time""
""focus"",""1"",""3879""
""focus"",""2"",""20392""
""focus"",""5"",""31636""
""focus"",""5"",""31637""
","""event"",""trial"",""time""
""fullscreenenter"",""5"",""32877""
","
",NA,NA,NA,NA,NA,NA,NA,NA,NA,NA,NA,NA,NA,NA,NA,NA,NA,NA,NA,NA,NA,NA,sub65
d3-instructions,8,62033,0.0-8.0,TRUE,FALSE,FALSE,TRUE,"""event"",""trial"",""time""
""blur"",""0"",""0""
""focus"",""1"",""3879""
""blur"",""2"",""5735""
""focus"",""2"",""20392""
""blur"",""5"",""30168""
""focus"",""5"",""31636""
""focus"",""5"",""31637""
""fullscreenenter"",""5"",""32877""
","""event"",""trial"",""time""
""blur"",""0"",""0""
""blur"",""2"",""5735""
""blur"",""5"",""30168""
","""event"",""trial"",""time""
""focus"",""1"",""3879""
""focus"",""2"",""20392""
""focus"",""5"",""31636""
""focus"",""5"",""31637""
","""event"",""trial"",""time""
""fullscreenenter"",""5"",""32877""
","
",NA,NA,NA,NA,NA,NA,NA,NA,NA,NA,NA,NA,NA,NA,NA,NA,NA,NA,NA,NA,NA,NA,sub65
d3-instructions,9,72974,0.0-9.0,TRUE,FALSE,FALSE,TRUE,"""event"",""trial"",""time""
""blur"",""0"",""0""
""focus"",""1"",""3879""
""blur"",""2"",""5735""
""focus"",""2"",""20392""
""blur"",""5"",""30168""
""focus"",""5"",""31636""
""focus"",""5"",""31637""
""fullscreenenter"",""5"",""32877""
","""event"",""trial"",""time""
""blur"",""0"",""0""
""blur"",""2"",""5735""
""blur"",""5"",""30168""
","""event"",""trial"",""time""
""focus"",""1"",""3879""
""focus"",""2"",""20392""
""focus"",""5"",""31636""
""focus"",""5"",""31637""
","""event"",""trial"",""time""
""fullscreenenter"",""5"",""32877""
","
",NA,NA,NA,NA,NA,NA,NA,NA,NA,NA,NA,NA,NA,NA,NA,NA,NA,NA,NA,NA,NA,NA,sub65
d3-instructions,10,88028,0.0-10.0,TRUE,FALSE,FALSE,TRUE,"""event"",""trial"",""time""
""blur"",""0"",""0""
""focus"",""1"",""3879""
""blur"",""2"",""5735""
""focus"",""2"",""20392""
""blur"",""5"",""30168""
""focus"",""5"",""31636""
""focus"",""5"",""31637""
""fullscreenenter"",""5"",""32877""
","""event"",""trial"",""time""
""blur"",""0"",""0""
""blur"",""2"",""5735""
""blur"",""5"",""30168""
","""event"",""trial"",""time""
""focus"",""1"",""3879""
""focus"",""2"",""20392""
""focus"",""5"",""31636""
""focus"",""5"",""31637""
","""event"",""trial"",""time""
""fullscreenenter"",""5"",""32877""
","
",NA,NA,NA,NA,NA,NA,NA,NA,NA,NA,NA,NA,NA,NA,NA,NA,NA,NA,NA,NA,NA,NA,sub65
d3-animate-choice,11,91316,0.0-11.0,TRUE,FALSE,FALSE,TRUE,"""event"",""trial"",""time""
""blur"",""0"",""0""
""focus"",""1"",""3879""
""blur"",""2"",""5735""
""focus"",""2"",""20392""
""blur"",""5"",""30168""
""focus"",""5"",""31636""
""focus"",""5"",""31637""
""fullscreenenter"",""5"",""32877""
","""event"",""trial"",""time""
""blur"",""0"",""0""
""blur"",""2"",""5735""
""blur"",""5"",""30168""
","""event"",""trial"",""time""
""focus"",""1"",""3879""
""focus"",""2"",""20392""
""focus"",""5"",""31636""
""focus"",""5"",""31637""
","""event"",""trial"",""time""
""fullscreenenter"",""5"",""32877""
","
",1281.9999999999854,NA,49,NA,NA,3000,1,"2105.9999999999854,3178.9999999999854",4848,images/tutgreenplanet.jpg,images/tutalien1,images/tutalien2,null,images/tutalien2,NA,NA,practice,null,NA,NA,NA,NA,sub65
d3-animate-choice,12,94050,0.0-12.0,TRUE,FALSE,FALSE,TRUE,"""event"",""trial"",""time""
""blur"",""0"",""0""
""focus"",""1"",""3879""
""blur"",""2"",""5735""
""focus"",""2"",""20392""
""blur"",""5"",""30168""
""focus"",""5"",""31636""
""focus"",""5"",""31637""
""fullscreenenter"",""5"",""32877""
","""event"",""trial"",""time""
""blur"",""0"",""0""
""blur"",""2"",""5735""
""blur"",""5"",""30168""
","""event"",""trial"",""time""
""focus"",""1"",""3879""
""focus"",""2"",""20392""
""focus"",""5"",""31636""
""focus"",""5"",""31637""
","""event"",""trial"",""time""
""fullscreenenter"",""5"",""32877""
","
",732,NA,48,NA,NA,3000,1,NA,NA,images/tutgreenplanet.jpg,images/tutalien1,images/tutalien2,null,images/tutalien1,NA,NA,practice,null,NA,NA,NA,NA,sub65
d3-animate-choice,13,99193,0.0-13.0,TRUE,FALSE,FALSE,TRUE,"""event"",""trial"",""time""
""blur"",""0"",""0""
""focus"",""1"",""3879""
""blur"",""2"",""5735""
""focus"",""2"",""20392""
""blur"",""5"",""30168""
""focus"",""5"",""31636""
""focus"",""5"",""31637""
""fullscreenenter"",""5"",""32877""
","""event"",""trial"",""time""
""blur"",""0"",""0""
""blur"",""2"",""5735""
""blur"",""5"",""30168""
","""event"",""trial"",""time""
""focus"",""1"",""3879""
""focus"",""2"",""20392""
""focus"",""5"",""31636""
""focus"",""5"",""31637""
","""event"",""trial"",""time""
""fullscreenenter"",""5"",""32877""
","
",3139,NA,49,NA,NA,3000,1,NA,NA,images/tutgreenplanet.jpg,images/tutalien1,images/tutalien2,null,images/tutalien2,NA,NA,practice,null,NA,NA,NA,NA,sub65
d3-animate-choice,14,101991,0.0-14.0,TRUE,FALSE,FALSE,TRUE,"""event"",""trial"",""time""
""blur"",""0"",""0""
""focus"",""1"",""3879""
""blur"",""2"",""5735""
""focus"",""2"",""20392""
""blur"",""5"",""30168""
""focus"",""5"",""31636""
""focus"",""5"",""31637""
""fullscreenenter"",""5"",""32877""
","""event"",""trial"",""time""
""blur"",""0"",""0""
""blur"",""2"",""5735""
""blur"",""5"",""30168""
","""event"",""trial"",""time""
""focus"",""1"",""3879""
""focus"",""2"",""20392""
""focus"",""5"",""31636""
""focus"",""5"",""31637""
","""event"",""trial"",""time""
""fullscreenenter"",""5"",""32877""
","
",796,NA,48,NA,NA,3000,1,NA,NA,images/tutgreenplanet.jpg,images/tutalien1,images/tutalien2,null,images/tutalien1,NA,NA,practice,null,NA,NA,NA,NA,sub65
d3-instructions,15,106659,0.0-15.0,TRUE,FALSE,FALSE,TRUE,"""event"",""trial"",""time""
""blur"",""0"",""0""
""focus"",""1"",""3879""
""blur"",""2"",""5735""
""focus"",""2"",""20392""
""blur"",""5"",""30168""
""focus"",""5"",""31636""
""focus"",""5"",""31637""
""fullscreenenter"",""5"",""32877""
","""event"",""trial"",""time""
""blur"",""0"",""0""
""blur"",""2"",""5735""
""blur"",""5"",""30168""
","""event"",""trial"",""time""
""focus"",""1"",""3879""
""focus"",""2"",""20392""
""focus"",""5"",""31636""
""focus"",""5"",""31637""
","""event"",""trial"",""time""
""fullscreenenter"",""5"",""32877""
","
",NA,NA,NA,NA,NA,NA,NA,NA,NA,NA,NA,NA,NA,NA,NA,NA,NA,NA,NA,NA,NA,NA,sub65
d3-instructions,16,109216,0.0-16.0,TRUE,FALSE,FALSE,TRUE,"""event"",""trial"",""time""
""blur"",""0"",""0""
""focus"",""1"",""3879""
""blur"",""2"",""5735""
""focus"",""2"",""20392""
""blur"",""5"",""30168""
""focus"",""5"",""31636""
""focus"",""5"",""31637""
""fullscreenenter"",""5"",""32877""
","""event"",""trial"",""time""
""blur"",""0"",""0""
""blur"",""2"",""5735""
""blur"",""5"",""30168""
","""event"",""trial"",""time""
""focus"",""1"",""3879""
""focus"",""2"",""20392""
""focus"",""5"",""31636""
""focus"",""5"",""31637""
","""event"",""trial"",""time""
""fullscreenenter"",""5"",""32877""
","
",NA,NA,NA,NA,NA,NA,NA,NA,NA,NA,NA,NA,NA,NA,NA,NA,NA,NA,NA,NA,NA,NA,sub65
d3-instructions,17,112615,0.0-17.0,TRUE,FALSE,FALSE,TRUE,"""event"",""trial"",""time""
""blur"",""0"",""0""
""focus"",""1"",""3879""
""blur"",""2"",""5735""
""focus"",""2"",""20392""
""blur"",""5"",""30168""
""focus"",""5"",""31636""
""focus"",""5"",""31637""
""fullscreenenter"",""5"",""32877""
","""event"",""trial"",""time""
""blur"",""0"",""0""
""blur"",""2"",""5735""
""blur"",""5"",""30168""
","""event"",""trial"",""time""
""focus"",""1"",""3879""
""focus"",""2"",""20392""
""focus"",""5"",""31636""
""focus"",""5"",""31637""
","""event"",""trial"",""time""
""fullscreenenter"",""5"",""32877""
","
",NA,NA,NA,NA,NA,NA,NA,NA,NA,NA,NA,NA,NA,NA,NA,NA,NA,NA,NA,NA,NA,NA,sub65
d3-instructions,18,118723,0.0-18.0,TRUE,FALSE,FALSE,TRUE,"""event"",""trial"",""time""
""blur"",""0"",""0""
""focus"",""1"",""3879""
""blur"",""2"",""5735""
""focus"",""2"",""20392""
""blur"",""5"",""30168""
""focus"",""5"",""31636""
""focus"",""5"",""31637""
""fullscreenenter"",""5"",""32877""
","""event"",""trial"",""time""
""blur"",""0"",""0""
""blur"",""2"",""5735""
""blur"",""5"",""30168""
","""event"",""trial"",""time""
""focus"",""1"",""3879""
""focus"",""2"",""20392""
""focus"",""5"",""31636""
""focus"",""5"",""31637""
","""event"",""trial"",""time""
""fullscreenenter"",""5"",""32877""
","
",NA,NA,NA,NA,NA,NA,NA,NA,NA,NA,NA,NA,NA,NA,NA,NA,NA,NA,NA,NA,NA,NA,sub65
d3-instructions,19,126371,0.0-19.0,TRUE,FALSE,FALSE,TRUE,"""event"",""trial"",""time""
""blur"",""0"",""0""
""focus"",""1"",""3879""
""blur"",""2"",""5735""
""focus"",""2"",""20392""
""blur"",""5"",""30168""
""focus"",""5"",""31636""
""focus"",""5"",""31637""
""fullscreenenter"",""5"",""32877""
","""event"",""trial"",""time""
""blur"",""0"",""0""
""blur"",""2"",""5735""
""blur"",""5"",""30168""
","""event"",""trial"",""time""
""focus"",""1"",""3879""
""focus"",""2"",""20392""
""focus"",""5"",""31636""
""focus"",""5"",""31637""
","""event"",""trial"",""time""
""fullscreenenter"",""5"",""32877""
","
",NA,NA,NA,NA,NA,NA,NA,NA,NA,NA,NA,NA,NA,NA,NA,NA,NA,NA,NA,NA,NA,NA,sub65
d3-animate-choice,20,129417,0.0-20.0,TRUE,FALSE,FALSE,TRUE,"""event"",""trial"",""time""
""blur"",""0"",""0""
""focus"",""1"",""3879""
""blur"",""2"",""5735""
""focus"",""2"",""20392""
""blur"",""5"",""30168""
""focus"",""5"",""31636""
""focus"",""5"",""31637""
""fullscreenenter"",""5"",""32877""
","""event"",""trial"",""time""
""blur"",""0"",""0""
""blur"",""2"",""5735""
""blur"",""5"",""30168""
","""event"",""trial"",""time""
""focus"",""1"",""3879""
""focus"",""2"",""20392""
""focus"",""5"",""31636""
""focus"",""5"",""31637""
","""event"",""trial"",""time""
""fullscreenenter"",""5"",""32877""
","
",1044,NA,49,NA,NA,3000,1,NA,NA,images/tutyellowplanet.jpg,null,images/tutalien3,null,images/tutalien3,images/t.png,NA,practice,null,NA,NA,NA,NA,sub65
d3-animate-choice,21,135083,0.0-21.0,TRUE,FALSE,FALSE,TRUE,"""event"",""trial"",""time""
""blur"",""0"",""0""
""focus"",""1"",""3879""
""blur"",""2"",""5735""
""focus"",""2"",""20392""
""blur"",""5"",""30168""
""focus"",""5"",""31636""
""focus"",""5"",""31637""
""fullscreenenter"",""5"",""32877""
","""event"",""trial"",""time""
""blur"",""0"",""0""
""blur"",""2"",""5735""
""blur"",""5"",""30168""
","""event"",""trial"",""time""
""focus"",""1"",""3879""
""focus"",""2"",""20392""
""focus"",""5"",""31636""
""focus"",""5"",""31637""
","""event"",""trial"",""time""
""fullscreenenter"",""5"",""32877""
","
",3661,NA,49,NA,NA,3000,1,NA,NA,images/tutyellowplanet.jpg,null,images/tutalien3,null,images/tutalien3,images/t.png,NA,practice,null,NA,NA,NA,NA,sub65
d3-animate-choice,22,137405,0.0-22.0,TRUE,FALSE,FALSE,TRUE,"""event"",""trial"",""time""
""blur"",""0"",""0""
""focus"",""1"",""3879""
""blur"",""2"",""5735""
""focus"",""2"",""20392""
""blur"",""5"",""30168""
""focus"",""5"",""31636""
""focus"",""5"",""31637""
""fullscreenenter"",""5"",""32877""
","""event"",""trial"",""time""
""blur"",""0"",""0""
""blur"",""2"",""5735""
""blur"",""5"",""30168""
","""event"",""trial"",""time""
""focus"",""1"",""3879""
""focus"",""2"",""20392""
""focus"",""5"",""31636""
""focus"",""5"",""31637""
","""event"",""trial"",""time""
""fullscreenenter"",""5"",""32877""
","
",320,NA,49,NA,NA,3000,1,NA,NA,images/tutyellowplanet.jpg,null,images/tutalien3,null,images/tutalien3,images/t.png,NA,practice,null,NA,NA,NA,NA,sub65
d3-animate-choice,23,139640,0.0-23.0,TRUE,FALSE,FALSE,TRUE,"""event"",""trial"",""time""
""blur"",""0"",""0""
""focus"",""1"",""3879""
""blur"",""2"",""5735""
""focus"",""2"",""20392""
""blur"",""5"",""30168""
""focus"",""5"",""31636""
""focus"",""5"",""31637""
""fullscreenenter"",""5"",""32877""
","""event"",""trial"",""time""
""blur"",""0"",""0""
""blur"",""2"",""5735""
""blur"",""5"",""30168""
","""event"",""trial"",""time""
""focus"",""1"",""3879""
""focus"",""2"",""20392""
""focus"",""5"",""31636""
""focus"",""5"",""31637""
","""event"",""trial"",""time""
""fullscreenenter"",""5"",""32877""
","
",233,NA,49,NA,NA,3000,1,1623,49,images/tutyellowplanet.jpg,null,images/tutalien3,null,images/tutalien3,images/t.png,NA,practice,null,NA,NA,NA,NA,sub65
d3-animate-choice,24,141999,0.0-24.0,TRUE,FALSE,FALSE,TRUE,"""event"",""trial"",""time""
""blur"",""0"",""0""
""focus"",""1"",""3879""
""blur"",""2"",""5735""
""focus"",""2"",""20392""
""blur"",""5"",""30168""
""focus"",""5"",""31636""
""focus"",""5"",""31637""
""fullscreenenter"",""5"",""32877""
","""event"",""trial"",""time""
""blur"",""0"",""0""
""blur"",""2"",""5735""
""blur"",""5"",""30168""
","""event"",""trial"",""time""
""focus"",""1"",""3879""
""focus"",""2"",""20392""
""focus"",""5"",""31636""
""focus"",""5"",""31637""
","""event"",""trial"",""time""
""fullscreenenter"",""5"",""32877""
","
",356,NA,49,NA,NA,3000,1,NA,NA,images/tutyellowplanet.jpg,null,images/tutalien3,null,images/tutalien3,images/t.png,NA,practice,null,NA,NA,NA,NA,sub65
d3-animate-choice,25,144301,0.0-25.0,TRUE,FALSE,FALSE,TRUE,"""event"",""trial"",""time""
""blur"",""0"",""0""
""focus"",""1"",""3879""
""blur"",""2"",""5735""
""focus"",""2"",""20392""
""blur"",""5"",""30168""
""focus"",""5"",""31636""
""focus"",""5"",""31637""
""fullscreenenter"",""5"",""32877""
","""event"",""trial"",""time""
""blur"",""0"",""0""
""blur"",""2"",""5735""
""blur"",""5"",""30168""
","""event"",""trial"",""time""
""focus"",""1"",""3879""
""focus"",""2"",""20392""
""focus"",""5"",""31636""
""focus"",""5"",""31637""
","""event"",""trial"",""time""
""fullscreenenter"",""5"",""32877""
","
",299,NA,49,NA,NA,3000,1,NA,NA,images/tutyellowplanet.jpg,null,images/tutalien3,null,images/tutalien3,images/nothing.png,NA,practice,null,NA,NA,NA,NA,sub65
d3-animate-choice,26,147044,0.0-26.0,TRUE,FALSE,FALSE,TRUE,"""event"",""trial"",""time""
""blur"",""0"",""0""
""focus"",""1"",""3879""
""blur"",""2"",""5735""
""focus"",""2"",""20392""
""blur"",""5"",""30168""
""focus"",""5"",""31636""
""focus"",""5"",""31637""
""fullscreenenter"",""5"",""32877""
","""event"",""trial"",""time""
""blur"",""0"",""0""
""blur"",""2"",""5735""
""blur"",""5"",""30168""
","""event"",""trial"",""time""
""focus"",""1"",""3879""
""focus"",""2"",""20392""
""focus"",""5"",""31636""
""focus"",""5"",""31637""
","""event"",""trial"",""time""
""fullscreenenter"",""5"",""32877""
","
",740.9999999999709,NA,49,NA,NA,3000,1,NA,NA,images/tutyellowplanet.jpg,null,images/tutalien3,null,images/tutalien3,images/t.png,NA,practice,null,NA,NA,NA,NA,sub65
d3-animate-choice,27,149572,0.0-27.0,TRUE,FALSE,FALSE,TRUE,"""event"",""trial"",""time""
""blur"",""0"",""0""
""focus"",""1"",""3879""
""blur"",""2"",""5735""
""focus"",""2"",""20392""
""blur"",""5"",""30168""
""focus"",""5"",""31636""
""focus"",""5"",""31637""
""fullscreenenter"",""5"",""32877""
","""event"",""trial"",""time""
""blur"",""0"",""0""
""blur"",""2"",""5735""
""blur"",""5"",""30168""
","""event"",""trial"",""time""
""focus"",""1"",""3879""
""focus"",""2"",""20392""
""focus"",""5"",""31636""
""focus"",""5"",""31637""
","""event"",""trial"",""time""
""fullscreenenter"",""5"",""32877""
","
",525.0000000000291,NA,49,NA,NA,3000,1,NA,NA,images/tutyellowplanet.jpg,null,images/tutalien3,null,images/tutalien3,images/nothing.png,NA,practice,null,NA,NA,NA,NA,sub65
d3-animate-choice,28,151888,0.0-28.0,TRUE,FALSE,FALSE,TRUE,"""event"",""trial"",""time""
""blur"",""0"",""0""
""focus"",""1"",""3879""
""blur"",""2"",""5735""
""focus"",""2"",""20392""
""blur"",""5"",""30168""
""focus"",""5"",""31636""
""focus"",""5"",""31637""
""fullscreenenter"",""5"",""32877""
","""event"",""trial"",""time""
""blur"",""0"",""0""
""blur"",""2"",""5735""
""blur"",""5"",""30168""
","""event"",""trial"",""time""
""focus"",""1"",""3879""
""focus"",""2"",""20392""
""focus"",""5"",""31636""
""focus"",""5"",""31637""
","""event"",""trial"",""time""
""fullscreenenter"",""5"",""32877""
","
",314,NA,49,NA,NA,3000,1,NA,NA,images/tutyellowplanet.jpg,null,images/tutalien3,null,images/tutalien3,images/t.png,NA,practice,null,NA,NA,NA,NA,sub65
d3-animate-choice,29,154197,0.0-29.0,TRUE,FALSE,FALSE,TRUE,"""event"",""trial"",""time""
""blur"",""0"",""0""
""focus"",""1"",""3879""
""blur"",""2"",""5735""
""focus"",""2"",""20392""
""blur"",""5"",""30168""
""focus"",""5"",""31636""
""focus"",""5"",""31637""
""fullscreenenter"",""5"",""32877""
","""event"",""trial"",""time""
""blur"",""0"",""0""
""blur"",""2"",""5735""
""blur"",""5"",""30168""
","""event"",""trial"",""time""
""focus"",""1"",""3879""
""focus"",""2"",""20392""
""focus"",""5"",""31636""
""focus"",""5"",""31637""
","""event"",""trial"",""time""
""fullscreenenter"",""5"",""32877""
","
",306,NA,49,NA,NA,3000,1,NA,NA,images/tutyellowplanet.jpg,null,images/tutalien3,null,images/tutalien3,images/t.png,NA,practice,null,NA,NA,NA,NA,sub65
d3-instructions,30,157013,0.0-30.0,TRUE,FALSE,FALSE,TRUE,"""event"",""trial"",""time""
""blur"",""0"",""0""
""focus"",""1"",""3879""
""blur"",""2"",""5735""
""focus"",""2"",""20392""
""blur"",""5"",""30168""
""focus"",""5"",""31636""
""focus"",""5"",""31637""
""fullscreenenter"",""5"",""32877""
","""event"",""trial"",""time""
""blur"",""0"",""0""
""blur"",""2"",""5735""
""blur"",""5"",""30168""
","""event"",""trial"",""time""
""focus"",""1"",""3879""
""focus"",""2"",""20392""
""focus"",""5"",""31636""
""focus"",""5"",""31637""
","""event"",""trial"",""time""
""fullscreenenter"",""5"",""32877""
","
",NA,NA,NA,NA,NA,NA,NA,NA,NA,NA,NA,NA,NA,NA,NA,NA,NA,NA,NA,NA,NA,NA,sub65
d3-instructions,31,161612,0.0-31.0,TRUE,FALSE,FALSE,TRUE,"""event"",""trial"",""time""
""blur"",""0"",""0""
""focus"",""1"",""3879""
""blur"",""2"",""5735""
""focus"",""2"",""20392""
""blur"",""5"",""30168""
""focus"",""5"",""31636""
""focus"",""5"",""31637""
""fullscreenenter"",""5"",""32877""
","""event"",""trial"",""time""
""blur"",""0"",""0""
""blur"",""2"",""5735""
""blur"",""5"",""30168""
","""event"",""trial"",""time""
""focus"",""1"",""3879""
""focus"",""2"",""20392""
""focus"",""5"",""31636""
""focus"",""5"",""31637""
","""event"",""trial"",""time""
""fullscreenenter"",""5"",""32877""
","
",NA,NA,NA,NA,NA,NA,NA,NA,NA,NA,NA,NA,NA,NA,NA,NA,NA,NA,NA,NA,NA,NA,sub65
d3-instructions,32,167260,0.0-32.0,TRUE,FALSE,FALSE,TRUE,"""event"",""trial"",""time""
""blur"",""0"",""0""
""focus"",""1"",""3879""
""blur"",""2"",""5735""
""focus"",""2"",""20392""
""blur"",""5"",""30168""
""focus"",""5"",""31636""
""focus"",""5"",""31637""
""fullscreenenter"",""5"",""32877""
","""event"",""trial"",""time""
""blur"",""0"",""0""
""blur"",""2"",""5735""
""blur"",""5"",""30168""
","""event"",""trial"",""time""
""focus"",""1"",""3879""
""focus"",""2"",""20392""
""focus"",""5"",""31636""
""focus"",""5"",""31637""
","""event"",""trial"",""time""
""fullscreenenter"",""5"",""32877""
","
",NA,NA,NA,NA,NA,NA,NA,NA,NA,NA,NA,NA,NA,NA,NA,NA,NA,NA,NA,NA,NA,NA,sub65
d3-instructions,33,168831,0.0-33.0,TRUE,FALSE,FALSE,TRUE,"""event"",""trial"",""time""
""blur"",""0"",""0""
""focus"",""1"",""3879""
""blur"",""2"",""5735""
""focus"",""2"",""20392""
""blur"",""5"",""30168""
""focus"",""5"",""31636""
""focus"",""5"",""31637""
""fullscreenenter"",""5"",""32877""
","""event"",""trial"",""time""
""blur"",""0"",""0""
""blur"",""2"",""5735""
""blur"",""5"",""30168""
","""event"",""trial"",""time""
""focus"",""1"",""3879""
""focus"",""2"",""20392""
""focus"",""5"",""31636""
""focus"",""5"",""31637""
","""event"",""trial"",""time""
""fullscreenenter"",""5"",""32877""
","
",NA,NA,NA,NA,NA,NA,NA,NA,NA,NA,NA,NA,NA,NA,NA,NA,NA,NA,NA,NA,NA,NA,sub65
d3-animate-choice,34,171841,0.0-34.0,TRUE,FALSE,FALSE,TRUE,"""event"",""trial"",""time""
""blur"",""0"",""0""
""focus"",""1"",""3879""
""blur"",""2"",""5735""
""focus"",""2"",""20392""
""blur"",""5"",""30168""
""focus"",""5"",""31636""
""focus"",""5"",""31637""
""fullscreenenter"",""5"",""32877""
","""event"",""trial"",""time""
""blur"",""0"",""0""
""blur"",""2"",""5735""
""blur"",""5"",""30168""
","""event"",""trial"",""time""
""focus"",""1"",""3879""
""focus"",""2"",""20392""
""focus"",""5"",""31636""
""focus"",""5"",""31637""
","""event"",""trial"",""time""
""fullscreenenter"",""5"",""32877""
","
",1006.9999999999709,NA,49,NA,NA,3000,1,NA,NA,images/tutgreenplanet.jpg,images/tutalien1,images/tutalien2,null,images/tutalien2,images/t.png,NA,practice,null,NA,NA,NA,NA,sub65
d3-animate-choice,35,174893,0.0-35.0,TRUE,FALSE,FALSE,TRUE,"""event"",""trial"",""time""
""blur"",""0"",""0""
""focus"",""1"",""3879""
""blur"",""2"",""5735""
""focus"",""2"",""20392""
""blur"",""5"",""30168""
""focus"",""5"",""31636""
""focus"",""5"",""31637""
""fullscreenenter"",""5"",""32877""
","""event"",""trial"",""time""
""blur"",""0"",""0""
""blur"",""2"",""5735""
""blur"",""5"",""30168""
","""event"",""trial"",""time""
""focus"",""1"",""3879""
""focus"",""2"",""20392""
""focus"",""5"",""31636""
""focus"",""5"",""31637""
","""event"",""trial"",""time""
""fullscreenenter"",""5"",""32877""
","
",1049.000000000029,NA,49,NA,NA,3000,1,NA,NA,images/tutgreenplanet.jpg,images/tutalien1,images/tutalien2,null,images/tutalien2,images/t.png,NA,practice,null,NA,NA,NA,NA,sub65
d3-animate-choice,36,177200,0.0-36.0,TRUE,FALSE,FALSE,TRUE,"""event"",""trial"",""time""
""blur"",""0"",""0""
""focus"",""1"",""3879""
""blur"",""2"",""5735""
""focus"",""2"",""20392""
""blur"",""5"",""30168""
""focus"",""5"",""31636""
""focus"",""5"",""31637""
""fullscreenenter"",""5"",""32877""
","""event"",""trial"",""time""
""blur"",""0"",""0""
""blur"",""2"",""5735""
""blur"",""5"",""30168""
","""event"",""trial"",""time""
""focus"",""1"",""3879""
""focus"",""2"",""20392""
""focus"",""5"",""31636""
""focus"",""5"",""31637""
","""event"",""trial"",""time""
""fullscreenenter"",""5"",""32877""
","
",303,NA,48,NA,NA,3000,1,NA,NA,images/tutgreenplanet.jpg,images/tutalien1,images/tutalien2,null,images/tutalien1,images/nothing.png,NA,practice,null,NA,NA,NA,NA,sub65
d3-animate-choice,37,179534,0.0-37.0,TRUE,FALSE,FALSE,TRUE,"""event"",""trial"",""time""
""blur"",""0"",""0""
""focus"",""1"",""3879""
""blur"",""2"",""5735""
""focus"",""2"",""20392""
""blur"",""5"",""30168""
""focus"",""5"",""31636""
""focus"",""5"",""31637""
""fullscreenenter"",""5"",""32877""
","""event"",""trial"",""time""
""blur"",""0"",""0""
""blur"",""2"",""5735""
""blur"",""5"",""30168""
","""event"",""trial"",""time""
""focus"",""1"",""3879""
""focus"",""2"",""20392""
""focus"",""5"",""31636""
""focus"",""5"",""31637""
","""event"",""trial"",""time""
""fullscreenenter"",""5"",""32877""
","
",331.9999999999709,NA,48,NA,NA,3000,1,1832.999999999971,49,images/tutgreenplanet.jpg,images/tutalien1,images/tutalien2,null,images/tutalien1,images/nothing.png,NA,practice,null,NA,NA,NA,NA,sub65
d3-animate-choice,38,181795,0.0-38.0,TRUE,FALSE,FALSE,TRUE,"""event"",""trial"",""time""
""blur"",""0"",""0""
""focus"",""1"",""3879""
""blur"",""2"",""5735""
""focus"",""2"",""20392""
""blur"",""5"",""30168""
""focus"",""5"",""31636""
""focus"",""5"",""31637""
""fullscreenenter"",""5"",""32877""
","""event"",""trial"",""time""
""blur"",""0"",""0""
""blur"",""2"",""5735""
""blur"",""5"",""30168""
","""event"",""trial"",""time""
""focus"",""1"",""3879""
""focus"",""2"",""20392""
""focus"",""5"",""31636""
""focus"",""5"",""31637""
","""event"",""trial"",""time""
""fullscreenenter"",""5"",""32877""
","
",257,NA,49,NA,NA,3000,1,NA,NA,images/tutgreenplanet.jpg,images/tutalien1,images/tutalien2,null,images/tutalien2,images/t.png,NA,practice,null,NA,NA,NA,NA,sub65
d3-animate-choice,39,184148,0.0-39.0,TRUE,FALSE,FALSE,TRUE,"""event"",""trial"",""time""
""blur"",""0"",""0""
""focus"",""1"",""3879""
""blur"",""2"",""5735""
""focus"",""2"",""20392""
""blur"",""5"",""30168""
""focus"",""5"",""31636""
""focus"",""5"",""31637""
""fullscreenenter"",""5"",""32877""
","""event"",""trial"",""time""
""blur"",""0"",""0""
""blur"",""2"",""5735""
""blur"",""5"",""30168""
","""event"",""trial"",""time""
""focus"",""1"",""3879""
""focus"",""2"",""20392""
""focus"",""5"",""31636""
""focus"",""5"",""31637""
","""event"",""trial"",""time""
""fullscreenenter"",""5"",""32877""
","
",350,NA,49,NA,NA,3000,1,NA,NA,images/tutgreenplanet.jpg,images/tutalien1,images/tutalien2,null,images/tutalien2,images/t.png,NA,practice,null,NA,NA,NA,NA,sub65
d3-animate-choice,40,186424,0.0-40.0,TRUE,FALSE,FALSE,TRUE,"""event"",""trial"",""time""
""blur"",""0"",""0""
""focus"",""1"",""3879""
""blur"",""2"",""5735""
""focus"",""2"",""20392""
""blur"",""5"",""30168""
""focus"",""5"",""31636""
""focus"",""5"",""31637""
""fullscreenenter"",""5"",""32877""
","""event"",""trial"",""time""
""blur"",""0"",""0""
""blur"",""2"",""5735""
""blur"",""5"",""30168""
","""event"",""trial"",""time""
""focus"",""1"",""3879""
""focus"",""2"",""20392""
""focus"",""5"",""31636""
""focus"",""5"",""31637""
","""event"",""trial"",""time""
""fullscreenenter"",""5"",""32877""
","
",272,NA,49,NA,NA,3000,1,NA,NA,images/tutgreenplanet.jpg,images/tutalien1,images/tutalien2,null,images/tutalien2,images/t.png,NA,practice,null,NA,NA,NA,NA,sub65
d3-animate-choice,41,188706,0.0-41.0,TRUE,FALSE,FALSE,TRUE,"""event"",""trial"",""time""
""blur"",""0"",""0""
""focus"",""1"",""3879""
""blur"",""2"",""5735""
""focus"",""2"",""20392""
""blur"",""5"",""30168""
""focus"",""5"",""31636""
""focus"",""5"",""31637""
""fullscreenenter"",""5"",""32877""
","""event"",""trial"",""time""
""blur"",""0"",""0""
""blur"",""2"",""5735""
""blur"",""5"",""30168""
","""event"",""trial"",""time""
""focus"",""1"",""3879""
""focus"",""2"",""20392""
""focus"",""5"",""31636""
""focus"",""5"",""31637""
","""event"",""trial"",""time""
""fullscreenenter"",""5"",""32877""
","
",281,NA,49,NA,NA,3000,1,NA,NA,images/tutgreenplanet.jpg,images/tutalien1,images/tutalien2,null,images/tutalien2,images/nothing.png,NA,practice,null,NA,NA,NA,NA,sub65
d3-animate-choice,42,191166,0.0-42.0,TRUE,FALSE,FALSE,TRUE,"""event"",""trial"",""time""
""blur"",""0"",""0""
""focus"",""1"",""3879""
""blur"",""2"",""5735""
""focus"",""2"",""20392""
""blur"",""5"",""30168""
""focus"",""5"",""31636""
""focus"",""5"",""31637""
""fullscreenenter"",""5"",""32877""
","""event"",""trial"",""time""
""blur"",""0"",""0""
""blur"",""2"",""5735""
""blur"",""5"",""30168""
","""event"",""trial"",""time""
""focus"",""1"",""3879""
""focus"",""2"",""20392""
""focus"",""5"",""31636""
""focus"",""5"",""31637""
","""event"",""trial"",""time""
""fullscreenenter"",""5"",""32877""
","
",456,NA,48,NA,NA,3000,1,NA,NA,images/tutgreenplanet.jpg,images/tutalien1,images/tutalien2,null,images/tutalien1,images/nothing.png,NA,practice,null,NA,NA,NA,NA,sub65
d3-animate-choice,43,193178,0.0-43.0,TRUE,FALSE,FALSE,TRUE,"""event"",""trial"",""time""
""blur"",""0"",""0""
""focus"",""1"",""3879""
""blur"",""2"",""5735""
""focus"",""2"",""20392""
""blur"",""5"",""30168""
""focus"",""5"",""31636""
""focus"",""5"",""31637""
""fullscreenenter"",""5"",""32877""
","""event"",""trial"",""time""
""blur"",""0"",""0""
""blur"",""2"",""5735""
""blur"",""5"",""30168""
","""event"",""trial"",""time""
""focus"",""1"",""3879""
""focus"",""2"",""20392""
""focus"",""5"",""31636""
""focus"",""5"",""31637""
","""event"",""trial"",""time""
""fullscreenenter"",""5"",""32877""
","
",8,NA,49,NA,NA,3000,1,NA,NA,images/tutgreenplanet.jpg,images/tutalien1,images/tutalien2,null,images/tutalien2,images/t.png,NA,practice,null,NA,NA,NA,NA,sub65
d3-instructions,44,197332,0.0-44.0,TRUE,FALSE,FALSE,TRUE,"""event"",""trial"",""time""
""blur"",""0"",""0""
""focus"",""1"",""3879""
""blur"",""2"",""5735""
""focus"",""2"",""20392""
""blur"",""5"",""30168""
""focus"",""5"",""31636""
""focus"",""5"",""31637""
""fullscreenenter"",""5"",""32877""
","""event"",""trial"",""time""
""blur"",""0"",""0""
""blur"",""2"",""5735""
""blur"",""5"",""30168""
","""event"",""trial"",""time""
""focus"",""1"",""3879""
""focus"",""2"",""20392""
""focus"",""5"",""31636""
""focus"",""5"",""31637""
","""event"",""trial"",""time""
""fullscreenenter"",""5"",""32877""
","
",NA,NA,NA,NA,NA,NA,NA,NA,NA,NA,NA,NA,NA,NA,NA,NA,NA,NA,NA,NA,NA,NA,sub65
d3-instructions,45,199224,0.0-45.0,TRUE,FALSE,FALSE,TRUE,"""event"",""trial"",""time""
""blur"",""0"",""0""
""focus"",""1"",""3879""
""blur"",""2"",""5735""
""focus"",""2"",""20392""
""blur"",""5"",""30168""
""focus"",""5"",""31636""
""focus"",""5"",""31637""
""fullscreenenter"",""5"",""32877""
","""event"",""trial"",""time""
""blur"",""0"",""0""
""blur"",""2"",""5735""
""blur"",""5"",""30168""
","""event"",""trial"",""time""
""focus"",""1"",""3879""
""focus"",""2"",""20392""
""focus"",""5"",""31636""
""focus"",""5"",""31637""
","""event"",""trial"",""time""
""fullscreenenter"",""5"",""32877""
","
",NA,NA,NA,NA,NA,NA,NA,NA,NA,NA,NA,NA,NA,NA,NA,NA,NA,NA,NA,NA,NA,NA,sub65
d3-instructions,46,201635,0.0-46.0,TRUE,FALSE,FALSE,TRUE,"""event"",""trial"",""time""
""blur"",""0"",""0""
""focus"",""1"",""3879""
""blur"",""2"",""5735""
""focus"",""2"",""20392""
""blur"",""5"",""30168""
""focus"",""5"",""31636""
""focus"",""5"",""31637""
""fullscreenenter"",""5"",""32877""
","""event"",""trial"",""time""
""blur"",""0"",""0""
""blur"",""2"",""5735""
""blur"",""5"",""30168""
","""event"",""trial"",""time""
""focus"",""1"",""3879""
""focus"",""2"",""20392""
""focus"",""5"",""31636""
""focus"",""5"",""31637""
","""event"",""trial"",""time""
""fullscreenenter"",""5"",""32877""
","
",NA,NA,NA,NA,NA,NA,NA,NA,NA,NA,NA,NA,NA,NA,NA,NA,NA,NA,NA,NA,NA,NA,sub65
d3-instructions,47,206737,0.0-47.0,TRUE,FALSE,FALSE,TRUE,"""event"",""trial"",""time""
""blur"",""0"",""0""
""focus"",""1"",""3879""
""blur"",""2"",""5735""
""focus"",""2"",""20392""
""blur"",""5"",""30168""
""focus"",""5"",""31636""
""focus"",""5"",""31637""
""fullscreenenter"",""5"",""32877""
","""event"",""trial"",""time""
""blur"",""0"",""0""
""blur"",""2"",""5735""
""blur"",""5"",""30168""
","""event"",""trial"",""time""
""focus"",""1"",""3879""
""focus"",""2"",""20392""
""focus"",""5"",""31636""
""focus"",""5"",""31637""
","""event"",""trial"",""time""
""fullscreenenter"",""5"",""32877""
","
",NA,NA,NA,NA,NA,NA,NA,NA,NA,NA,NA,NA,NA,NA,NA,NA,NA,NA,NA,NA,NA,NA,sub65
d3-instructions,48,210771,0.0-48.0,TRUE,FALSE,FALSE,TRUE,"""event"",""trial"",""time""
""blur"",""0"",""0""
""focus"",""1"",""3879""
""blur"",""2"",""5735""
""focus"",""2"",""20392""
""blur"",""5"",""30168""
""focus"",""5"",""31636""
""focus"",""5"",""31637""
""fullscreenenter"",""5"",""32877""
","""event"",""trial"",""time""
""blur"",""0"",""0""
""blur"",""2"",""5735""
""blur"",""5"",""30168""
","""event"",""trial"",""time""
""focus"",""1"",""3879""
""focus"",""2"",""20392""
""focus"",""5"",""31636""
""focus"",""5"",""31637""
","""event"",""trial"",""time""
""fullscreenenter"",""5"",""32877""
","
",NA,NA,NA,NA,NA,NA,NA,NA,NA,NA,NA,NA,NA,NA,NA,NA,NA,NA,NA,NA,NA,NA,sub65
d3-instructions,49,213255,0.0-49.0,TRUE,FALSE,FALSE,TRUE,"""event"",""trial"",""time""
""blur"",""0"",""0""
""focus"",""1"",""3879""
""blur"",""2"",""5735""
""focus"",""2"",""20392""
""blur"",""5"",""30168""
""focus"",""5"",""31636""
""focus"",""5"",""31637""
""fullscreenenter"",""5"",""32877""
","""event"",""trial"",""time""
""blur"",""0"",""0""
""blur"",""2"",""5735""
""blur"",""5"",""30168""
","""event"",""trial"",""time""
""focus"",""1"",""3879""
""focus"",""2"",""20392""
""focus"",""5"",""31636""
""focus"",""5"",""31637""
","""event"",""trial"",""time""
""fullscreenenter"",""5"",""32877""
","
",NA,NA,NA,NA,NA,NA,NA,NA,NA,NA,NA,NA,NA,NA,NA,NA,NA,NA,NA,NA,NA,NA,sub65
d3-instructions,50,215316,0.0-50.0,TRUE,FALSE,FALSE,TRUE,"""event"",""trial"",""time""
""blur"",""0"",""0""
""focus"",""1"",""3879""
""blur"",""2"",""5735""
""focus"",""2"",""20392""
""blur"",""5"",""30168""
""focus"",""5"",""31636""
""focus"",""5"",""31637""
""fullscreenenter"",""5"",""32877""
","""event"",""trial"",""time""
""blur"",""0"",""0""
""blur"",""2"",""5735""
""blur"",""5"",""30168""
","""event"",""trial"",""time""
""focus"",""1"",""3879""
""focus"",""2"",""20392""
""focus"",""5"",""31636""
""focus"",""5"",""31637""
","""event"",""trial"",""time""
""fullscreenenter"",""5"",""32877""
","
",NA,NA,NA,NA,NA,NA,NA,NA,NA,NA,NA,NA,NA,NA,NA,NA,NA,NA,NA,NA,NA,NA,sub65
d3-instructions,51,217621,0.0-51.0,TRUE,FALSE,FALSE,TRUE,"""event"",""trial"",""time""
""blur"",""0"",""0""
""focus"",""1"",""3879""
""blur"",""2"",""5735""
""focus"",""2"",""20392""
""blur"",""5"",""30168""
""focus"",""5"",""31636""
""focus"",""5"",""31637""
""fullscreenenter"",""5"",""32877""
","""event"",""trial"",""time""
""blur"",""0"",""0""
""blur"",""2"",""5735""
""blur"",""5"",""30168""
","""event"",""trial"",""time""
""focus"",""1"",""3879""
""focus"",""2"",""20392""
""focus"",""5"",""31636""
""focus"",""5"",""31637""
","""event"",""trial"",""time""
""fullscreenenter"",""5"",""32877""
","
",NA,NA,NA,NA,NA,NA,NA,NA,NA,NA,NA,NA,NA,NA,NA,NA,NA,NA,NA,NA,NA,NA,sub65
d3-instructions,52,219245,0.0-52.0,TRUE,FALSE,FALSE,TRUE,"""event"",""trial"",""time""
""blur"",""0"",""0""
""focus"",""1"",""3879""
""blur"",""2"",""5735""
""focus"",""2"",""20392""
""blur"",""5"",""30168""
""focus"",""5"",""31636""
""focus"",""5"",""31637""
""fullscreenenter"",""5"",""32877""
","""event"",""trial"",""time""
""blur"",""0"",""0""
""blur"",""2"",""5735""
""blur"",""5"",""30168""
","""event"",""trial"",""time""
""focus"",""1"",""3879""
""focus"",""2"",""20392""
""focus"",""5"",""31636""
""focus"",""5"",""31637""
","""event"",""trial"",""time""
""fullscreenenter"",""5"",""32877""
","
",NA,NA,NA,NA,NA,NA,NA,NA,NA,NA,NA,NA,NA,NA,NA,NA,NA,NA,NA,NA,NA,NA,sub65
d3-instructions,53,223867,0.0-53.0,TRUE,FALSE,FALSE,TRUE,"""event"",""trial"",""time""
""blur"",""0"",""0""
""focus"",""1"",""3879""
""blur"",""2"",""5735""
""focus"",""2"",""20392""
""blur"",""5"",""30168""
""focus"",""5"",""31636""
""focus"",""5"",""31637""
""fullscreenenter"",""5"",""32877""
","""event"",""trial"",""time""
""blur"",""0"",""0""
""blur"",""2"",""5735""
""blur"",""5"",""30168""
","""event"",""trial"",""time""
""focus"",""1"",""3879""
""focus"",""2"",""20392""
""focus"",""5"",""31636""
""focus"",""5"",""31637""
","""event"",""trial"",""time""
""fullscreenenter"",""5"",""32877""
","
",NA,NA,NA,NA,NA,NA,NA,NA,NA,NA,NA,NA,NA,NA,NA,NA,NA,NA,NA,NA,NA,NA,sub65
d3-instructions,54,229279,0.0-54.0,TRUE,FALSE,FALSE,TRUE,"""event"",""trial"",""time""
""blur"",""0"",""0""
""focus"",""1"",""3879""
""blur"",""2"",""5735""
""focus"",""2"",""20392""
""blur"",""5"",""30168""
""focus"",""5"",""31636""
""focus"",""5"",""31637""
""fullscreenenter"",""5"",""32877""
","""event"",""trial"",""time""
""blur"",""0"",""0""
""blur"",""2"",""5735""
""blur"",""5"",""30168""
","""event"",""trial"",""time""
""focus"",""1"",""3879""
""focus"",""2"",""20392""
""focus"",""5"",""31636""
""focus"",""5"",""31637""
","""event"",""trial"",""time""
""fullscreenenter"",""5"",""32877""
","
",NA,NA,NA,NA,NA,NA,NA,NA,NA,NA,NA,NA,NA,NA,NA,NA,NA,NA,NA,NA,NA,NA,sub65
d3-instructions,55,232385,0.0-55.0,TRUE,FALSE,FALSE,TRUE,"""event"",""trial"",""time""
""blur"",""0"",""0""
""focus"",""1"",""3879""
""blur"",""2"",""5735""
""focus"",""2"",""20392""
""blur"",""5"",""30168""
""focus"",""5"",""31636""
""focus"",""5"",""31637""
""fullscreenenter"",""5"",""32877""
","""event"",""trial"",""time""
""blur"",""0"",""0""
""blur"",""2"",""5735""
""blur"",""5"",""30168""
","""event"",""trial"",""time""
""focus"",""1"",""3879""
""focus"",""2"",""20392""
""focus"",""5"",""31636""
""focus"",""5"",""31637""
","""event"",""trial"",""time""
""fullscreenenter"",""5"",""32877""
","
",NA,NA,NA,NA,NA,NA,NA,NA,NA,NA,NA,NA,NA,NA,NA,NA,NA,NA,NA,NA,NA,NA,sub65
d3-instructions,56,234601,0.0-56.0,TRUE,FALSE,FALSE,TRUE,"""event"",""trial"",""time""
""blur"",""0"",""0""
""focus"",""1"",""3879""
""blur"",""2"",""5735""
""focus"",""2"",""20392""
""blur"",""5"",""30168""
""focus"",""5"",""31636""
""focus"",""5"",""31637""
""fullscreenenter"",""5"",""32877""
","""event"",""trial"",""time""
""blur"",""0"",""0""
""blur"",""2"",""5735""
""blur"",""5"",""30168""
","""event"",""trial"",""time""
""focus"",""1"",""3879""
""focus"",""2"",""20392""
""focus"",""5"",""31636""
""focus"",""5"",""31637""
","""event"",""trial"",""time""
""fullscreenenter"",""5"",""32877""
","
",NA,NA,NA,NA,NA,NA,NA,NA,NA,NA,NA,NA,NA,NA,NA,NA,NA,NA,NA,NA,NA,NA,sub65
d3-instructions,57,244431,0.0-57.0,TRUE,FALSE,FALSE,TRUE,"""event"",""trial"",""time""
""blur"",""0"",""0""
""focus"",""1"",""3879""
""blur"",""2"",""5735""
""focus"",""2"",""20392""
""blur"",""5"",""30168""
""focus"",""5"",""31636""
""focus"",""5"",""31637""
""fullscreenenter"",""5"",""32877""
","""event"",""trial"",""time""
""blur"",""0"",""0""
""blur"",""2"",""5735""
""blur"",""5"",""30168""
","""event"",""trial"",""time""
""focus"",""1"",""3879""
""focus"",""2"",""20392""
""focus"",""5"",""31636""
""focus"",""5"",""31637""
","""event"",""trial"",""time""
""fullscreenenter"",""5"",""32877""
","
",NA,NA,NA,NA,NA,NA,NA,NA,NA,NA,NA,NA,NA,NA,NA,NA,NA,NA,NA,NA,NA,NA,sub65
d3-instructions,58,247600,0.0-58.0,TRUE,FALSE,FALSE,TRUE,"""event"",""trial"",""time""
""blur"",""0"",""0""
""focus"",""1"",""3879""
""blur"",""2"",""5735""
""focus"",""2"",""20392""
""blur"",""5"",""30168""
""focus"",""5"",""31636""
""focus"",""5"",""31637""
""fullscreenenter"",""5"",""32877""
","""event"",""trial"",""time""
""blur"",""0"",""0""
""blur"",""2"",""5735""
""blur"",""5"",""30168""
","""event"",""trial"",""time""
""focus"",""1"",""3879""
""focus"",""2"",""20392""
""focus"",""5"",""31636""
""focus"",""5"",""31637""
","""event"",""trial"",""time""
""fullscreenenter"",""5"",""32877""
","
",NA,NA,NA,NA,NA,NA,NA,NA,NA,NA,NA,NA,NA,NA,NA,NA,NA,NA,NA,NA,NA,NA,sub65
d3-instructions,59,249616,0.0-59.0,TRUE,FALSE,FALSE,TRUE,"""event"",""trial"",""time""
""blur"",""0"",""0""
""focus"",""1"",""3879""
""blur"",""2"",""5735""
""focus"",""2"",""20392""
""blur"",""5"",""30168""
""focus"",""5"",""31636""
""focus"",""5"",""31637""
""fullscreenenter"",""5"",""32877""
","""event"",""trial"",""time""
""blur"",""0"",""0""
""blur"",""2"",""5735""
""blur"",""5"",""30168""
","""event"",""trial"",""time""
""focus"",""1"",""3879""
""focus"",""2"",""20392""
""focus"",""5"",""31636""
""focus"",""5"",""31637""
","""event"",""trial"",""time""
""fullscreenenter"",""5"",""32877""
","
",NA,NA,NA,NA,NA,NA,NA,NA,NA,NA,NA,NA,NA,NA,NA,NA,NA,NA,NA,NA,NA,NA,sub65
d3-instructions,60,251264,0.0-60.0,TRUE,FALSE,FALSE,TRUE,"""event"",""trial"",""time""
""blur"",""0"",""0""
""focus"",""1"",""3879""
""blur"",""2"",""5735""
""focus"",""2"",""20392""
""blur"",""5"",""30168""
""focus"",""5"",""31636""
""focus"",""5"",""31637""
""fullscreenenter"",""5"",""32877""
","""event"",""trial"",""time""
""blur"",""0"",""0""
""blur"",""2"",""5735""
""blur"",""5"",""30168""
","""event"",""trial"",""time""
""focus"",""1"",""3879""
""focus"",""2"",""20392""
""focus"",""5"",""31636""
""focus"",""5"",""31637""
","""event"",""trial"",""time""
""fullscreenenter"",""5"",""32877""
","
",NA,NA,NA,NA,NA,NA,NA,NA,NA,NA,NA,NA,NA,NA,NA,NA,NA,NA,NA,NA,NA,NA,sub65
d3-animate-choice,61,254067,0.0-61.0-0.0,TRUE,FALSE,FALSE,TRUE,"""event"",""trial"",""time""
""blur"",""0"",""0""
""focus"",""1"",""3879""
""blur"",""2"",""5735""
""focus"",""2"",""20392""
""blur"",""5"",""30168""
""focus"",""5"",""31636""
""focus"",""5"",""31637""
""fullscreenenter"",""5"",""32877""
","""event"",""trial"",""time""
""blur"",""0"",""0""
""blur"",""2"",""5735""
""blur"",""5"",""30168""
","""event"",""trial"",""time""
""focus"",""1"",""3879""
""focus"",""2"",""20392""
""focus"",""5"",""31636""
""focus"",""5"",""31637""
","""event"",""trial"",""time""
""fullscreenenter"",""5"",""32877""
","
",799,NA,49,NA,NA,3000,1,NA,NA,images/earth.jpg,images/tutrocket2,images/tutrocket1,null,images/tutrocket1,NA,1,practice,null,1,NA,NA,NA,sub65
d3-animate-choice,62,257078,0.0-61.0-1.0,TRUE,FALSE,FALSE,TRUE,"""event"",""trial"",""time""
""blur"",""0"",""0""
""focus"",""1"",""3879""
""blur"",""2"",""5735""
""focus"",""2"",""20392""
""blur"",""5"",""30168""
""focus"",""5"",""31636""
""focus"",""5"",""31637""
""fullscreenenter"",""5"",""32877""
","""event"",""trial"",""time""
""blur"",""0"",""0""
""blur"",""2"",""5735""
""blur"",""5"",""30168""
","""event"",""trial"",""time""
""focus"",""1"",""3879""
""focus"",""2"",""20392""
""focus"",""5"",""31636""
""focus"",""5"",""31637""
","""event"",""trial"",""time""
""fullscreenenter"",""5"",""32877""
","
",1008,NA,49,NA,NA,3000,1,NA,NA,images/tutyellowplanet.jpg,images/tutalien4,images/tutalien3,images/tutrocket1,images/tutalien3,images/t.png,2,practice,true,1,common,1,2020-06-16T18:12:45Z,sub65
two-step-fixation,63,258081,0.0-61.0-2.0,TRUE,FALSE,FALSE,TRUE,"""event"",""trial"",""time""
""blur"",""0"",""0""
""focus"",""1"",""3879""
""blur"",""2"",""5735""
""focus"",""2"",""20392""
""blur"",""5"",""30168""
""focus"",""5"",""31636""
""focus"",""5"",""31637""
""fullscreenenter"",""5"",""32877""
","""event"",""trial"",""time""
""blur"",""0"",""0""
""blur"",""2"",""5735""
""blur"",""5"",""30168""
","""event"",""trial"",""time""
""focus"",""1"",""3879""
""focus"",""2"",""20392""
""focus"",""5"",""31636""
""focus"",""5"",""31637""
","""event"",""trial"",""time""
""fullscreenenter"",""5"",""32877""
","
",NA,images/earth.jpg,NA,NA,NA,NA,NA,NA,NA,NA,NA,NA,NA,NA,NA,fixation,NA,NA,NA,NA,NA,NA,sub65
d3-animate-choice,64,261280,0.0-61.0-0.1,TRUE,FALSE,FALSE,TRUE,"""event"",""trial"",""time""
""blur"",""0"",""0""
""focus"",""1"",""3879""
""blur"",""2"",""5735""
""focus"",""2"",""20392""
""blur"",""5"",""30168""
""focus"",""5"",""31636""
""focus"",""5"",""31637""
""fullscreenenter"",""5"",""32877""
","""event"",""trial"",""time""
""blur"",""0"",""0""
""blur"",""2"",""5735""
""blur"",""5"",""30168""
","""event"",""trial"",""time""
""focus"",""1"",""3879""
""focus"",""2"",""20392""
""focus"",""5"",""31636""
""focus"",""5"",""31637""
","""event"",""trial"",""time""
""fullscreenenter"",""5"",""32877""
","
",1196,NA,49,NA,NA,3000,1,NA,NA,images/earth.jpg,images/tutrocket2,images/tutrocket1,null,images/tutrocket1,NA,1,practice,null,1,NA,NA,NA,sub65
d3-animate-choice,65,263908,0.0-61.0-1.1,TRUE,FALSE,FALSE,TRUE,"""event"",""trial"",""time""
""blur"",""0"",""0""
""focus"",""1"",""3879""
""blur"",""2"",""5735""
""focus"",""2"",""20392""
""blur"",""5"",""30168""
""focus"",""5"",""31636""
""focus"",""5"",""31637""
""fullscreenenter"",""5"",""32877""
","""event"",""trial"",""time""
""blur"",""0"",""0""
""blur"",""2"",""5735""
""blur"",""5"",""30168""
","""event"",""trial"",""time""
""focus"",""1"",""3879""
""focus"",""2"",""20392""
""focus"",""5"",""31636""
""focus"",""5"",""31637""
","""event"",""trial"",""time""
""fullscreenenter"",""5"",""32877""
","
",626,NA,49,NA,NA,3000,1,NA,NA,images/tutyellowplanet.jpg,images/tutalien4,images/tutalien3,images/tutrocket1,images/tutalien3,images/nothing.png,2,practice,true,1,common,0,2020-06-16T18:12:52Z,sub65
two-step-fixation,66,264909,0.0-61.0-2.1,TRUE,FALSE,FALSE,TRUE,"""event"",""trial"",""time""
""blur"",""0"",""0""
""focus"",""1"",""3879""
""blur"",""2"",""5735""
""focus"",""2"",""20392""
""blur"",""5"",""30168""
""focus"",""5"",""31636""
""focus"",""5"",""31637""
""fullscreenenter"",""5"",""32877""
","""event"",""trial"",""time""
""blur"",""0"",""0""
""blur"",""2"",""5735""
""blur"",""5"",""30168""
","""event"",""trial"",""time""
""focus"",""1"",""3879""
""focus"",""2"",""20392""
""focus"",""5"",""31636""
""focus"",""5"",""31637""
","""event"",""trial"",""time""
""fullscreenenter"",""5"",""32877""
","
",NA,images/earth.jpg,NA,NA,NA,NA,NA,NA,NA,NA,NA,NA,NA,NA,NA,fixation,NA,NA,NA,NA,NA,NA,sub65
d3-animate-choice,67,267207,0.0-61.0-0.2,TRUE,FALSE,FALSE,TRUE,"""event"",""trial"",""time""
""blur"",""0"",""0""
""focus"",""1"",""3879""
""blur"",""2"",""5735""
""focus"",""2"",""20392""
""blur"",""5"",""30168""
""focus"",""5"",""31636""
""focus"",""5"",""31637""
""fullscreenenter"",""5"",""32877""
","""event"",""trial"",""time""
""blur"",""0"",""0""
""blur"",""2"",""5735""
""blur"",""5"",""30168""
","""event"",""trial"",""time""
""focus"",""1"",""3879""
""focus"",""2"",""20392""
""focus"",""5"",""31636""
""focus"",""5"",""31637""
","""event"",""trial"",""time""
""fullscreenenter"",""5"",""32877""
","
",296,NA,49,NA,NA,3000,1,NA,NA,images/earth.jpg,images/tutrocket2,images/tutrocket1,null,images/tutrocket1,NA,1,practice,null,1,NA,NA,NA,sub65
d3-animate-choice,68,269566,0.0-61.0-1.2,TRUE,FALSE,FALSE,TRUE,"""event"",""trial"",""time""
""blur"",""0"",""0""
""focus"",""1"",""3879""
""blur"",""2"",""5735""
""focus"",""2"",""20392""
""blur"",""5"",""30168""
""focus"",""5"",""31636""
""focus"",""5"",""31637""
""fullscreenenter"",""5"",""32877""
","""event"",""trial"",""time""
""blur"",""0"",""0""
""blur"",""2"",""5735""
""blur"",""5"",""30168""
","""event"",""trial"",""time""
""focus"",""1"",""3879""
""focus"",""2"",""20392""
""focus"",""5"",""31636""
""focus"",""5"",""31637""
","""event"",""trial"",""time""
""fullscreenenter"",""5"",""32877""
","
",358,NA,48,NA,NA,3000,1,NA,NA,images/tutyellowplanet.jpg,images/tutalien4,images/tutalien3,images/tutrocket1,images/tutalien4,images/nothing.png,2,practice,true,2,common,0,2020-06-16T18:12:58Z,sub65
two-step-fixation,69,270568,0.0-61.0-2.2,TRUE,FALSE,FALSE,TRUE,"""event"",""trial"",""time""
""blur"",""0"",""0""
""focus"",""1"",""3879""
""blur"",""2"",""5735""
""focus"",""2"",""20392""
""blur"",""5"",""30168""
""focus"",""5"",""31636""
""focus"",""5"",""31637""
""fullscreenenter"",""5"",""32877""
","""event"",""trial"",""time""
""blur"",""0"",""0""
""blur"",""2"",""5735""
""blur"",""5"",""30168""
","""event"",""trial"",""time""
""focus"",""1"",""3879""
""focus"",""2"",""20392""
""focus"",""5"",""31636""
""focus"",""5"",""31637""
","""event"",""trial"",""time""
""fullscreenenter"",""5"",""32877""
","
",NA,images/earth.jpg,NA,NA,NA,NA,NA,NA,NA,NA,NA,NA,NA,NA,NA,fixation,NA,NA,NA,NA,NA,NA,sub65
d3-animate-choice,70,272938,0.0-61.0-0.3,TRUE,FALSE,FALSE,TRUE,"""event"",""trial"",""time""
""blur"",""0"",""0""
""focus"",""1"",""3879""
""blur"",""2"",""5735""
""focus"",""2"",""20392""
""blur"",""5"",""30168""
""focus"",""5"",""31636""
""focus"",""5"",""31637""
""fullscreenenter"",""5"",""32877""
","""event"",""trial"",""time""
""blur"",""0"",""0""
""blur"",""2"",""5735""
""blur"",""5"",""30168""
","""event"",""trial"",""time""
""focus"",""1"",""3879""
""focus"",""2"",""20392""
""focus"",""5"",""31636""
""focus"",""5"",""31637""
","""event"",""trial"",""time""
""fullscreenenter"",""5"",""32877""
","
",368.0000000000582,NA,48,NA,NA,3000,1,NA,NA,images/earth.jpg,images/tutrocket2,images/tutrocket1,null,images/tutrocket2,NA,1,practice,null,2,NA,NA,NA,sub65
d3-animate-choice,71,275549,0.0-61.0-1.3,TRUE,FALSE,FALSE,TRUE,"""event"",""trial"",""time""
""blur"",""0"",""0""
""focus"",""1"",""3879""
""blur"",""2"",""5735""
""focus"",""2"",""20392""
""blur"",""5"",""30168""
""focus"",""5"",""31636""
""focus"",""5"",""31637""
""fullscreenenter"",""5"",""32877""
","""event"",""trial"",""time""
""blur"",""0"",""0""
""blur"",""2"",""5735""
""blur"",""5"",""30168""
","""event"",""trial"",""time""
""focus"",""1"",""3879""
""focus"",""2"",""20392""
""focus"",""5"",""31636""
""focus"",""5"",""31637""
","""event"",""trial"",""time""
""fullscreenenter"",""5"",""32877""
","
",608,NA,49,NA,NA,3000,1,NA,NA,images/tutgreenplanet.jpg,images/tutalien2,images/tutalien1,images/tutrocket2,images/tutalien1,images/nothing.png,2,practice,true,1,common,0,2020-06-16T18:13:04Z,sub65
two-step-fixation,72,276550,0.0-61.0-2.3,TRUE,FALSE,FALSE,TRUE,"""event"",""trial"",""time""
""blur"",""0"",""0""
""focus"",""1"",""3879""
""blur"",""2"",""5735""
""focus"",""2"",""20392""
""blur"",""5"",""30168""
""focus"",""5"",""31636""
""focus"",""5"",""31637""
""fullscreenenter"",""5"",""32877""
","""event"",""trial"",""time""
""blur"",""0"",""0""
""blur"",""2"",""5735""
""blur"",""5"",""30168""
","""event"",""trial"",""time""
""focus"",""1"",""3879""
""focus"",""2"",""20392""
""focus"",""5"",""31636""
""focus"",""5"",""31637""
","""event"",""trial"",""time""
""fullscreenenter"",""5"",""32877""
","
",NA,images/earth.jpg,NA,NA,NA,NA,NA,NA,NA,NA,NA,NA,NA,NA,NA,fixation,NA,NA,NA,NA,NA,NA,sub65
d3-animate-choice,73,278892,0.0-61.0-0.4,TRUE,FALSE,FALSE,TRUE,"""event"",""trial"",""time""
""blur"",""0"",""0""
""focus"",""1"",""3879""
""blur"",""2"",""5735""
""focus"",""2"",""20392""
""blur"",""5"",""30168""
""focus"",""5"",""31636""
""focus"",""5"",""31637""
""fullscreenenter"",""5"",""32877""
","""event"",""trial"",""time""
""blur"",""0"",""0""
""blur"",""2"",""5735""
""blur"",""5"",""30168""
","""event"",""trial"",""time""
""focus"",""1"",""3879""
""focus"",""2"",""20392""
""focus"",""5"",""31636""
""focus"",""5"",""31637""
","""event"",""trial"",""time""
""fullscreenenter"",""5"",""32877""
","
",339,NA,48,NA,NA,3000,1,NA,NA,images/earth.jpg,images/tutrocket2,images/tutrocket1,null,images/tutrocket2,NA,1,practice,null,2,NA,NA,NA,sub65
d3-animate-choice,74,281721,0.0-61.0-1.4,TRUE,FALSE,FALSE,TRUE,"""event"",""trial"",""time""
""blur"",""0"",""0""
""focus"",""1"",""3879""
""blur"",""2"",""5735""
""focus"",""2"",""20392""
""blur"",""5"",""30168""
""focus"",""5"",""31636""
""focus"",""5"",""31637""
""fullscreenenter"",""5"",""32877""
","""event"",""trial"",""time""
""blur"",""0"",""0""
""blur"",""2"",""5735""
""blur"",""5"",""30168""
","""event"",""trial"",""time""
""focus"",""1"",""3879""
""focus"",""2"",""20392""
""focus"",""5"",""31636""
""focus"",""5"",""31637""
","""event"",""trial"",""time""
""fullscreenenter"",""5"",""32877""
","
",827,NA,48,NA,NA,3000,1,NA,NA,images/tutgreenplanet.jpg,images/tutalien2,images/tutalien1,images/tutrocket2,images/tutalien2,images/t.png,2,practice,true,2,common,1,2020-06-16T18:13:10Z,sub65
two-step-fixation,75,282724,0.0-61.0-2.4,TRUE,FALSE,FALSE,TRUE,"""event"",""trial"",""time""
""blur"",""0"",""0""
""focus"",""1"",""3879""
""blur"",""2"",""5735""
""focus"",""2"",""20392""
""blur"",""5"",""30168""
""focus"",""5"",""31636""
""focus"",""5"",""31637""
""fullscreenenter"",""5"",""32877""
","""event"",""trial"",""time""
""blur"",""0"",""0""
""blur"",""2"",""5735""
""blur"",""5"",""30168""
","""event"",""trial"",""time""
""focus"",""1"",""3879""
""focus"",""2"",""20392""
""focus"",""5"",""31636""
""focus"",""5"",""31637""
","""event"",""trial"",""time""
""fullscreenenter"",""5"",""32877""
","
",NA,images/earth.jpg,NA,NA,NA,NA,NA,NA,NA,NA,NA,NA,NA,NA,NA,fixation,NA,NA,NA,NA,NA,NA,sub65
d3-animate-choice,76,285031,0.0-61.0-0.5,TRUE,FALSE,FALSE,TRUE,"""event"",""trial"",""time""
""blur"",""0"",""0""
""focus"",""1"",""3879""
""blur"",""2"",""5735""
""focus"",""2"",""20392""
""blur"",""5"",""30168""
""focus"",""5"",""31636""
""focus"",""5"",""31637""
""fullscreenenter"",""5"",""32877""
","""event"",""trial"",""time""
""blur"",""0"",""0""
""blur"",""2"",""5735""
""blur"",""5"",""30168""
","""event"",""trial"",""time""
""focus"",""1"",""3879""
""focus"",""2"",""20392""
""focus"",""5"",""31636""
""focus"",""5"",""31637""
","""event"",""trial"",""time""
""fullscreenenter"",""5"",""32877""
","
",303,NA,48,NA,NA,3000,1,NA,NA,images/earth.jpg,images/tutrocket2,images/tutrocket1,null,images/tutrocket2,NA,1,practice,null,2,NA,NA,NA,sub65
d3-animate-choice,77,287573,0.0-61.0-1.5,TRUE,FALSE,FALSE,TRUE,"""event"",""trial"",""time""
""blur"",""0"",""0""
""focus"",""1"",""3879""
""blur"",""2"",""5735""
""focus"",""2"",""20392""
""blur"",""5"",""30168""
""focus"",""5"",""31636""
""focus"",""5"",""31637""
""fullscreenenter"",""5"",""32877""
","""event"",""trial"",""time""
""blur"",""0"",""0""
""blur"",""2"",""5735""
""blur"",""5"",""30168""
","""event"",""trial"",""time""
""focus"",""1"",""3879""
""focus"",""2"",""20392""
""focus"",""5"",""31636""
""focus"",""5"",""31637""
","""event"",""trial"",""time""
""fullscreenenter"",""5"",""32877""
","
",539,NA,48,NA,NA,3000,1,NA,NA,images/tutgreenplanet.jpg,images/tutalien2,images/tutalien1,images/tutrocket2,images/tutalien2,images/nothing.png,2,practice,true,2,common,0,2020-06-16T18:13:16Z,sub65
two-step-fixation,78,288575,0.0-61.0-2.5,TRUE,FALSE,FALSE,TRUE,"""event"",""trial"",""time""
""blur"",""0"",""0""
""focus"",""1"",""3879""
""blur"",""2"",""5735""
""focus"",""2"",""20392""
""blur"",""5"",""30168""
""focus"",""5"",""31636""
""focus"",""5"",""31637""
""fullscreenenter"",""5"",""32877""
","""event"",""trial"",""time""
""blur"",""0"",""0""
""blur"",""2"",""5735""
""blur"",""5"",""30168""
","""event"",""trial"",""time""
""focus"",""1"",""3879""
""focus"",""2"",""20392""
""focus"",""5"",""31636""
""focus"",""5"",""31637""
","""event"",""trial"",""time""
""fullscreenenter"",""5"",""32877""
","
",NA,images/earth.jpg,NA,NA,NA,NA,NA,NA,NA,NA,NA,NA,NA,NA,NA,fixation,NA,NA,NA,NA,NA,NA,sub65
d3-animate-choice,79,291009,0.0-61.0-0.6,TRUE,FALSE,FALSE,TRUE,"""event"",""trial"",""time""
""blur"",""0"",""0""
""focus"",""1"",""3879""
""blur"",""2"",""5735""
""focus"",""2"",""20392""
""blur"",""5"",""30168""
""focus"",""5"",""31636""
""focus"",""5"",""31637""
""fullscreenenter"",""5"",""32877""
","""event"",""trial"",""time""
""blur"",""0"",""0""
""blur"",""2"",""5735""
""blur"",""5"",""30168""
","""event"",""trial"",""time""
""focus"",""1"",""3879""
""focus"",""2"",""20392""
""focus"",""5"",""31636""
""focus"",""5"",""31637""
","""event"",""trial"",""time""
""fullscreenenter"",""5"",""32877""
","
",430,NA,49,NA,NA,3000,1,NA,NA,images/earth.jpg,images/tutrocket2,images/tutrocket1,null,images/tutrocket1,NA,1,practice,null,1,NA,NA,NA,sub65
d3-animate-choice,80,293531,0.0-61.0-1.6,TRUE,FALSE,FALSE,TRUE,"""event"",""trial"",""time""
""blur"",""0"",""0""
""focus"",""1"",""3879""
""blur"",""2"",""5735""
""focus"",""2"",""20392""
""blur"",""5"",""30168""
""focus"",""5"",""31636""
""focus"",""5"",""31637""
""fullscreenenter"",""5"",""32877""
","""event"",""trial"",""time""
""blur"",""0"",""0""
""blur"",""2"",""5735""
""blur"",""5"",""30168""
","""event"",""trial"",""time""
""focus"",""1"",""3879""
""focus"",""2"",""20392""
""focus"",""5"",""31636""
""focus"",""5"",""31637""
","""event"",""trial"",""time""
""fullscreenenter"",""5"",""32877""
","
",519,NA,49,NA,NA,3000,1,NA,NA,images/tutyellowplanet.jpg,images/tutalien4,images/tutalien3,images/tutrocket1,images/tutalien3,images/nothing.png,2,practice,true,1,common,0,2020-06-16T18:13:22Z,sub65
two-step-fixation,81,294534,0.0-61.0-2.6,TRUE,FALSE,FALSE,TRUE,"""event"",""trial"",""time""
""blur"",""0"",""0""
""focus"",""1"",""3879""
""blur"",""2"",""5735""
""focus"",""2"",""20392""
""blur"",""5"",""30168""
""focus"",""5"",""31636""
""focus"",""5"",""31637""
""fullscreenenter"",""5"",""32877""
","""event"",""trial"",""time""
""blur"",""0"",""0""
""blur"",""2"",""5735""
""blur"",""5"",""30168""
","""event"",""trial"",""time""
""focus"",""1"",""3879""
""focus"",""2"",""20392""
""focus"",""5"",""31636""
""focus"",""5"",""31637""
","""event"",""trial"",""time""
""fullscreenenter"",""5"",""32877""
","
",NA,images/earth.jpg,NA,NA,NA,NA,NA,NA,NA,NA,NA,NA,NA,NA,NA,fixation,NA,NA,NA,NA,NA,NA,sub65
d3-animate-choice,82,296856,0.0-61.0-0.7,TRUE,FALSE,FALSE,TRUE,"""event"",""trial"",""time""
""blur"",""0"",""0""
""focus"",""1"",""3879""
""blur"",""2"",""5735""
""focus"",""2"",""20392""
""blur"",""5"",""30168""
""focus"",""5"",""31636""
""focus"",""5"",""31637""
""fullscreenenter"",""5"",""32877""
","""event"",""trial"",""time""
""blur"",""0"",""0""
""blur"",""2"",""5735""
""blur"",""5"",""30168""
","""event"",""trial"",""time""
""focus"",""1"",""3879""
""focus"",""2"",""20392""
""focus"",""5"",""31636""
""focus"",""5"",""31637""
","""event"",""trial"",""time""
""fullscreenenter"",""5"",""32877""
","
",319,NA,48,NA,NA,3000,1,NA,NA,images/earth.jpg,images/tutrocket2,images/tutrocket1,null,images/tutrocket2,NA,1,practice,null,2,NA,NA,NA,sub65
d3-animate-choice,83,299298,0.0-61.0-1.7,TRUE,FALSE,FALSE,TRUE,"""event"",""trial"",""time""
""blur"",""0"",""0""
""focus"",""1"",""3879""
""blur"",""2"",""5735""
""focus"",""2"",""20392""
""blur"",""5"",""30168""
""focus"",""5"",""31636""
""focus"",""5"",""31637""
""fullscreenenter"",""5"",""32877""
","""event"",""trial"",""time""
""blur"",""0"",""0""
""blur"",""2"",""5735""
""blur"",""5"",""30168""
","""event"",""trial"",""time""
""focus"",""1"",""3879""
""focus"",""2"",""20392""
""focus"",""5"",""31636""
""focus"",""5"",""31637""
","""event"",""trial"",""time""
""fullscreenenter"",""5"",""32877""
","
",439,NA,48,NA,NA,3000,1,NA,NA,images/tutyellowplanet.jpg,images/tutalien4,images/tutalien3,images/tutrocket2,images/tutalien4,images/t.png,2,practice,false,2,rare,1,2020-06-16T18:13:27Z,sub65
two-step-fixation,84,300301,0.0-61.0-2.7,TRUE,FALSE,FALSE,TRUE,"""event"",""trial"",""time""
""blur"",""0"",""0""
""focus"",""1"",""3879""
""blur"",""2"",""5735""
""focus"",""2"",""20392""
""blur"",""5"",""30168""
""focus"",""5"",""31636""
""focus"",""5"",""31637""
""fullscreenenter"",""5"",""32877""
","""event"",""trial"",""time""
""blur"",""0"",""0""
""blur"",""2"",""5735""
""blur"",""5"",""30168""
","""event"",""trial"",""time""
""focus"",""1"",""3879""
""focus"",""2"",""20392""
""focus"",""5"",""31636""
""focus"",""5"",""31637""
","""event"",""trial"",""time""
""fullscreenenter"",""5"",""32877""
","
",NA,images/earth.jpg,NA,NA,NA,NA,NA,NA,NA,NA,NA,NA,NA,NA,NA,fixation,NA,NA,NA,NA,NA,NA,sub65
d3-animate-choice,85,302573,0.0-61.0-0.8,TRUE,FALSE,FALSE,TRUE,"""event"",""trial"",""time""
""blur"",""0"",""0""
""focus"",""1"",""3879""
""blur"",""2"",""5735""
""focus"",""2"",""20392""
""blur"",""5"",""30168""
""focus"",""5"",""31636""
""focus"",""5"",""31637""
""fullscreenenter"",""5"",""32877""
","""event"",""trial"",""time""
""blur"",""0"",""0""
""blur"",""2"",""5735""
""blur"",""5"",""30168""
","""event"",""trial"",""time""
""focus"",""1"",""3879""
""focus"",""2"",""20392""
""focus"",""5"",""31636""
""focus"",""5"",""31637""
","""event"",""trial"",""time""
""fullscreenenter"",""5"",""32877""
","
",269,NA,48,NA,NA,3000,1,NA,NA,images/earth.jpg,images/tutrocket2,images/tutrocket1,null,images/tutrocket2,NA,1,practice,null,2,NA,NA,NA,sub65
d3-animate-choice,86,304960,0.0-61.0-1.8,TRUE,FALSE,FALSE,TRUE,"""event"",""trial"",""time""
""blur"",""0"",""0""
""focus"",""1"",""3879""
""blur"",""2"",""5735""
""focus"",""2"",""20392""
""blur"",""5"",""30168""
""focus"",""5"",""31636""
""focus"",""5"",""31637""
""fullscreenenter"",""5"",""32877""
","""event"",""trial"",""time""
""blur"",""0"",""0""
""blur"",""2"",""5735""
""blur"",""5"",""30168""
","""event"",""trial"",""time""
""focus"",""1"",""3879""
""focus"",""2"",""20392""
""focus"",""5"",""31636""
""focus"",""5"",""31637""
","""event"",""trial"",""time""
""fullscreenenter"",""5"",""32877""
","
",384.9999999999418,NA,48,NA,NA,3000,1,NA,NA,images/tutgreenplanet.jpg,images/tutalien2,images/tutalien1,images/tutrocket2,images/tutalien2,images/nothing.png,2,practice,true,2,common,0,2020-06-16T18:13:33Z,sub65
two-step-fixation,87,305962,0.0-61.0-2.8,TRUE,FALSE,FALSE,TRUE,"""event"",""trial"",""time""
""blur"",""0"",""0""
""focus"",""1"",""3879""
""blur"",""2"",""5735""
""focus"",""2"",""20392""
""blur"",""5"",""30168""
""focus"",""5"",""31636""
""focus"",""5"",""31637""
""fullscreenenter"",""5"",""32877""
","""event"",""trial"",""time""
""blur"",""0"",""0""
""blur"",""2"",""5735""
""blur"",""5"",""30168""
","""event"",""trial"",""time""
""focus"",""1"",""3879""
""focus"",""2"",""20392""
""focus"",""5"",""31636""
""focus"",""5"",""31637""
","""event"",""trial"",""time""
""fullscreenenter"",""5"",""32877""
","
",NA,images/earth.jpg,NA,NA,NA,NA,NA,NA,NA,NA,NA,NA,NA,NA,NA,fixation,NA,NA,NA,NA,NA,NA,sub65
d3-animate-choice,88,308246,0.0-61.0-0.9,TRUE,FALSE,FALSE,TRUE,"""event"",""trial"",""time""
""blur"",""0"",""0""
""focus"",""1"",""3879""
""blur"",""2"",""5735""
""focus"",""2"",""20392""
""blur"",""5"",""30168""
""focus"",""5"",""31636""
""focus"",""5"",""31637""
""fullscreenenter"",""5"",""32877""
","""event"",""trial"",""time""
""blur"",""0"",""0""
""blur"",""2"",""5735""
""blur"",""5"",""30168""
","""event"",""trial"",""time""
""focus"",""1"",""3879""
""focus"",""2"",""20392""
""focus"",""5"",""31636""
""focus"",""5"",""31637""
","""event"",""trial"",""time""
""fullscreenenter"",""5"",""32877""
","
",281,NA,48,NA,NA,3000,1,NA,NA,images/earth.jpg,images/tutrocket2,images/tutrocket1,null,images/tutrocket2,NA,1,practice,null,2,NA,NA,NA,sub65
d3-animate-choice,89,310666,0.0-61.0-1.9,TRUE,FALSE,FALSE,TRUE,"""event"",""trial"",""time""
""blur"",""0"",""0""
""focus"",""1"",""3879""
""blur"",""2"",""5735""
""focus"",""2"",""20392""
""blur"",""5"",""30168""
""focus"",""5"",""31636""
""focus"",""5"",""31637""
""fullscreenenter"",""5"",""32877""
","""event"",""trial"",""time""
""blur"",""0"",""0""
""blur"",""2"",""5735""
""blur"",""5"",""30168""
","""event"",""trial"",""time""
""focus"",""1"",""3879""
""focus"",""2"",""20392""
""focus"",""5"",""31636""
""focus"",""5"",""31637""
","""event"",""trial"",""time""
""fullscreenenter"",""5"",""32877""
","
",417,NA,49,NA,NA,3000,1,NA,NA,images/tutyellowplanet.jpg,images/tutalien4,images/tutalien3,images/tutrocket2,images/tutalien3,images/t.png,2,practice,false,1,rare,1,2020-06-16T18:13:39Z,sub65
two-step-fixation,90,311668,0.0-61.0-2.9,TRUE,FALSE,FALSE,TRUE,"""event"",""trial"",""time""
""blur"",""0"",""0""
""focus"",""1"",""3879""
""blur"",""2"",""5735""
""focus"",""2"",""20392""
""blur"",""5"",""30168""
""focus"",""5"",""31636""
""focus"",""5"",""31637""
""fullscreenenter"",""5"",""32877""
","""event"",""trial"",""time""
""blur"",""0"",""0""
""blur"",""2"",""5735""
""blur"",""5"",""30168""
","""event"",""trial"",""time""
""focus"",""1"",""3879""
""focus"",""2"",""20392""
""focus"",""5"",""31636""
""focus"",""5"",""31637""
","""event"",""trial"",""time""
""fullscreenenter"",""5"",""32877""
","
",NA,images/earth.jpg,NA,NA,NA,NA,NA,NA,NA,NA,NA,NA,NA,NA,NA,fixation,NA,NA,NA,NA,NA,NA,sub65
d3-animate-choice,91,313949,0.0-61.0-0.10,TRUE,FALSE,FALSE,TRUE,"""event"",""trial"",""time""
""blur"",""0"",""0""
""focus"",""1"",""3879""
""blur"",""2"",""5735""
""focus"",""2"",""20392""
""blur"",""5"",""30168""
""focus"",""5"",""31636""
""focus"",""5"",""31637""
""fullscreenenter"",""5"",""32877""
","""event"",""trial"",""time""
""blur"",""0"",""0""
""blur"",""2"",""5735""
""blur"",""5"",""30168""
","""event"",""trial"",""time""
""focus"",""1"",""3879""
""focus"",""2"",""20392""
""focus"",""5"",""31636""
""focus"",""5"",""31637""
","""event"",""trial"",""time""
""fullscreenenter"",""5"",""32877""
","
",280.0000000000582,NA,49,NA,NA,3000,1,NA,NA,images/earth.jpg,images/tutrocket2,images/tutrocket1,null,images/tutrocket1,NA,1,practice,null,1,NA,NA,NA,sub65
d3-animate-choice,92,316473,0.0-61.0-1.10,TRUE,FALSE,FALSE,TRUE,"""event"",""trial"",""time""
""blur"",""0"",""0""
""focus"",""1"",""3879""
""blur"",""2"",""5735""
""focus"",""2"",""20392""
""blur"",""5"",""30168""
""focus"",""5"",""31636""
""focus"",""5"",""31637""
""fullscreenenter"",""5"",""32877""
","""event"",""trial"",""time""
""blur"",""0"",""0""
""blur"",""2"",""5735""
""blur"",""5"",""30168""
","""event"",""trial"",""time""
""focus"",""1"",""3879""
""focus"",""2"",""20392""
""focus"",""5"",""31636""
""focus"",""5"",""31637""
","""event"",""trial"",""time""
""fullscreenenter"",""5"",""32877""
","
",520,NA,49,NA,NA,3000,1,NA,NA,images/tutyellowplanet.jpg,images/tutalien4,images/tutalien3,images/tutrocket1,images/tutalien3,images/nothing.png,2,practice,true,1,common,0,2020-06-16T18:13:45Z,sub65
two-step-fixation,93,317475,0.0-61.0-2.10,TRUE,FALSE,FALSE,TRUE,"""event"",""trial"",""time""
""blur"",""0"",""0""
""focus"",""1"",""3879""
""blur"",""2"",""5735""
""focus"",""2"",""20392""
""blur"",""5"",""30168""
""focus"",""5"",""31636""
""focus"",""5"",""31637""
""fullscreenenter"",""5"",""32877""
","""event"",""trial"",""time""
""blur"",""0"",""0""
""blur"",""2"",""5735""
""blur"",""5"",""30168""
","""event"",""trial"",""time""
""focus"",""1"",""3879""
""focus"",""2"",""20392""
""focus"",""5"",""31636""
""focus"",""5"",""31637""
","""event"",""trial"",""time""
""fullscreenenter"",""5"",""32877""
","
",NA,images/earth.jpg,NA,NA,NA,NA,NA,NA,NA,NA,NA,NA,NA,NA,NA,fixation,NA,NA,NA,NA,NA,NA,sub65
d3-animate-choice,94,319788,0.0-61.0-0.11,TRUE,FALSE,FALSE,TRUE,"""event"",""trial"",""time""
""blur"",""0"",""0""
""focus"",""1"",""3879""
""blur"",""2"",""5735""
""focus"",""2"",""20392""
""blur"",""5"",""30168""
""focus"",""5"",""31636""
""focus"",""5"",""31637""
""fullscreenenter"",""5"",""32877""
","""event"",""trial"",""time""
""blur"",""0"",""0""
""blur"",""2"",""5735""
""blur"",""5"",""30168""
","""event"",""trial"",""time""
""focus"",""1"",""3879""
""focus"",""2"",""20392""
""focus"",""5"",""31636""
""focus"",""5"",""31637""
","""event"",""trial"",""time""
""fullscreenenter"",""5"",""32877""
","
",310,NA,49,NA,NA,3000,1,NA,NA,images/earth.jpg,images/tutrocket2,images/tutrocket1,null,images/tutrocket1,NA,1,practice,null,1,NA,NA,NA,sub65
d3-animate-choice,95,322306,0.0-61.0-1.11,TRUE,FALSE,FALSE,TRUE,"""event"",""trial"",""time""
""blur"",""0"",""0""
""focus"",""1"",""3879""
""blur"",""2"",""5735""
""focus"",""2"",""20392""
""blur"",""5"",""30168""
""focus"",""5"",""31636""
""focus"",""5"",""31637""
""fullscreenenter"",""5"",""32877""
","""event"",""trial"",""time""
""blur"",""0"",""0""
""blur"",""2"",""5735""
""blur"",""5"",""30168""
","""event"",""trial"",""time""
""focus"",""1"",""3879""
""focus"",""2"",""20392""
""focus"",""5"",""31636""
""focus"",""5"",""31637""
","""event"",""trial"",""time""
""fullscreenenter"",""5"",""32877""
","
",516,NA,48,NA,NA,3000,1,NA,NA,images/tutyellowplanet.jpg,images/tutalien4,images/tutalien3,images/tutrocket1,images/tutalien4,images/t.png,2,practice,true,2,common,1,2020-06-16T18:13:50Z,sub65
two-step-fixation,96,323309,0.0-61.0-2.11,TRUE,FALSE,FALSE,TRUE,"""event"",""trial"",""time""
""blur"",""0"",""0""
""focus"",""1"",""3879""
""blur"",""2"",""5735""
""focus"",""2"",""20392""
""blur"",""5"",""30168""
""focus"",""5"",""31636""
""focus"",""5"",""31637""
""fullscreenenter"",""5"",""32877""
","""event"",""trial"",""time""
""blur"",""0"",""0""
""blur"",""2"",""5735""
""blur"",""5"",""30168""
","""event"",""trial"",""time""
""focus"",""1"",""3879""
""focus"",""2"",""20392""
""focus"",""5"",""31636""
""focus"",""5"",""31637""
","""event"",""trial"",""time""
""fullscreenenter"",""5"",""32877""
","
",NA,images/earth.jpg,NA,NA,NA,NA,NA,NA,NA,NA,NA,NA,NA,NA,NA,fixation,NA,NA,NA,NA,NA,NA,sub65
d3-animate-choice,97,325352,0.0-61.0-0.12,TRUE,FALSE,FALSE,TRUE,"""event"",""trial"",""time""
""blur"",""0"",""0""
""focus"",""1"",""3879""
""blur"",""2"",""5735""
""focus"",""2"",""20392""
""blur"",""5"",""30168""
""focus"",""5"",""31636""
""focus"",""5"",""31637""
""fullscreenenter"",""5"",""32877""
","""event"",""trial"",""time""
""blur"",""0"",""0""
""blur"",""2"",""5735""
""blur"",""5"",""30168""
","""event"",""trial"",""time""
""focus"",""1"",""3879""
""focus"",""2"",""20392""
""focus"",""5"",""31636""
""focus"",""5"",""31637""
","""event"",""trial"",""time""
""fullscreenenter"",""5"",""32877""
","
",41,NA,49,NA,NA,3000,1,NA,NA,images/earth.jpg,images/tutrocket2,images/tutrocket1,null,images/tutrocket1,NA,1,practice,null,1,NA,NA,NA,sub65
d3-animate-choice,98,327698,0.0-61.0-1.12,TRUE,FALSE,FALSE,TRUE,"""event"",""trial"",""time""
""blur"",""0"",""0""
""focus"",""1"",""3879""
""blur"",""2"",""5735""
""focus"",""2"",""20392""
""blur"",""5"",""30168""
""focus"",""5"",""31636""
""focus"",""5"",""31637""
""fullscreenenter"",""5"",""32877""
","""event"",""trial"",""time""
""blur"",""0"",""0""
""blur"",""2"",""5735""
""blur"",""5"",""30168""
","""event"",""trial"",""time""
""focus"",""1"",""3879""
""focus"",""2"",""20392""
""focus"",""5"",""31636""
""focus"",""5"",""31637""
","""event"",""trial"",""time""
""fullscreenenter"",""5"",""32877""
","
",344.9999999999418,NA,48,NA,NA,3000,1,NA,NA,images/tutyellowplanet.jpg,images/tutalien4,images/tutalien3,images/tutrocket1,images/tutalien4,images/t.png,2,practice,true,2,common,1,2020-06-16T18:13:56Z,sub65
two-step-fixation,99,328701,0.0-61.0-2.12,TRUE,FALSE,FALSE,TRUE,"""event"",""trial"",""time""
""blur"",""0"",""0""
""focus"",""1"",""3879""
""blur"",""2"",""5735""
""focus"",""2"",""20392""
""blur"",""5"",""30168""
""focus"",""5"",""31636""
""focus"",""5"",""31637""
""fullscreenenter"",""5"",""32877""
","""event"",""trial"",""time""
""blur"",""0"",""0""
""blur"",""2"",""5735""
""blur"",""5"",""30168""
","""event"",""trial"",""time""
""focus"",""1"",""3879""
""focus"",""2"",""20392""
""focus"",""5"",""31636""
""focus"",""5"",""31637""
","""event"",""trial"",""time""
""fullscreenenter"",""5"",""32877""
","
",NA,images/earth.jpg,NA,NA,NA,NA,NA,NA,NA,NA,NA,NA,NA,NA,NA,fixation,NA,NA,NA,NA,NA,NA,sub65
d3-animate-choice,100,330963,0.0-61.0-0.13,TRUE,FALSE,FALSE,TRUE,"""event"",""trial"",""time""
""blur"",""0"",""0""
""focus"",""1"",""3879""
""blur"",""2"",""5735""
""focus"",""2"",""20392""
""blur"",""5"",""30168""
""focus"",""5"",""31636""
""focus"",""5"",""31637""
""fullscreenenter"",""5"",""32877""
","""event"",""trial"",""time""
""blur"",""0"",""0""
""blur"",""2"",""5735""
""blur"",""5"",""30168""
","""event"",""trial"",""time""
""focus"",""1"",""3879""
""focus"",""2"",""20392""
""focus"",""5"",""31636""
""focus"",""5"",""31637""
","""event"",""trial"",""time""
""fullscreenenter"",""5"",""32877""
","
",260,NA,49,NA,NA,3000,1,NA,NA,images/earth.jpg,images/tutrocket2,images/tutrocket1,null,images/tutrocket1,NA,1,practice,null,1,NA,NA,NA,sub65
d3-animate-choice,101,333372,0.0-61.0-1.13,TRUE,FALSE,FALSE,TRUE,"""event"",""trial"",""time""
""blur"",""0"",""0""
""focus"",""1"",""3879""
""blur"",""2"",""5735""
""focus"",""2"",""20392""
""blur"",""5"",""30168""
""focus"",""5"",""31636""
""focus"",""5"",""31637""
""fullscreenenter"",""5"",""32877""
","""event"",""trial"",""time""
""blur"",""0"",""0""
""blur"",""2"",""5735""
""blur"",""5"",""30168""
","""event"",""trial"",""time""
""focus"",""1"",""3879""
""focus"",""2"",""20392""
""focus"",""5"",""31636""
""focus"",""5"",""31637""
","""event"",""trial"",""time""
""fullscreenenter"",""5"",""32877""
","
",406,NA,48,NA,NA,3000,1,NA,NA,images/tutyellowplanet.jpg,images/tutalien4,images/tutalien3,images/tutrocket1,images/tutalien4,images/nothing.png,2,practice,true,2,common,0,2020-06-16T18:14:02Z,sub65
two-step-fixation,102,334374,0.0-61.0-2.13,TRUE,FALSE,FALSE,TRUE,"""event"",""trial"",""time""
""blur"",""0"",""0""
""focus"",""1"",""3879""
""blur"",""2"",""5735""
""focus"",""2"",""20392""
""blur"",""5"",""30168""
""focus"",""5"",""31636""
""focus"",""5"",""31637""
""fullscreenenter"",""5"",""32877""
","""event"",""trial"",""time""
""blur"",""0"",""0""
""blur"",""2"",""5735""
""blur"",""5"",""30168""
","""event"",""trial"",""time""
""focus"",""1"",""3879""
""focus"",""2"",""20392""
""focus"",""5"",""31636""
""focus"",""5"",""31637""
","""event"",""trial"",""time""
""fullscreenenter"",""5"",""32877""
","
",NA,images/earth.jpg,NA,NA,NA,NA,NA,NA,NA,NA,NA,NA,NA,NA,NA,fixation,NA,NA,NA,NA,NA,NA,sub65
d3-animate-choice,103,336663,0.0-61.0-0.14,TRUE,FALSE,FALSE,TRUE,"""event"",""trial"",""time""
""blur"",""0"",""0""
""focus"",""1"",""3879""
""blur"",""2"",""5735""
""focus"",""2"",""20392""
""blur"",""5"",""30168""
""focus"",""5"",""31636""
""focus"",""5"",""31637""
""fullscreenenter"",""5"",""32877""
","""event"",""trial"",""time""
""blur"",""0"",""0""
""blur"",""2"",""5735""
""blur"",""5"",""30168""
","""event"",""trial"",""time""
""focus"",""1"",""3879""
""focus"",""2"",""20392""
""focus"",""5"",""31636""
""focus"",""5"",""31637""
","""event"",""trial"",""time""
""fullscreenenter"",""5"",""32877""
","
",287,NA,48,NA,NA,3000,1,NA,NA,images/earth.jpg,images/tutrocket2,images/tutrocket1,null,images/tutrocket2,NA,1,practice,null,2,NA,NA,NA,sub65
d3-animate-choice,104,339244,0.0-61.0-1.14,TRUE,FALSE,FALSE,TRUE,"""event"",""trial"",""time""
""blur"",""0"",""0""
""focus"",""1"",""3879""
""blur"",""2"",""5735""
""focus"",""2"",""20392""
""blur"",""5"",""30168""
""focus"",""5"",""31636""
""focus"",""5"",""31637""
""fullscreenenter"",""5"",""32877""
","""event"",""trial"",""time""
""blur"",""0"",""0""
""blur"",""2"",""5735""
""blur"",""5"",""30168""
","""event"",""trial"",""time""
""focus"",""1"",""3879""
""focus"",""2"",""20392""
""focus"",""5"",""31636""
""focus"",""5"",""31637""
","""event"",""trial"",""time""
""fullscreenenter"",""5"",""32877""
","
",579,NA,48,NA,NA,3000,1,NA,NA,images/tutgreenplanet.jpg,images/tutalien2,images/tutalien1,images/tutrocket2,images/tutalien2,images/t.png,2,practice,true,2,common,1,2020-06-16T18:14:07Z,sub65
two-step-fixation,105,340246,0.0-61.0-2.14,TRUE,FALSE,FALSE,TRUE,"""event"",""trial"",""time""
""blur"",""0"",""0""
""focus"",""1"",""3879""
""blur"",""2"",""5735""
""focus"",""2"",""20392""
""blur"",""5"",""30168""
""focus"",""5"",""31636""
""focus"",""5"",""31637""
""fullscreenenter"",""5"",""32877""
","""event"",""trial"",""time""
""blur"",""0"",""0""
""blur"",""2"",""5735""
""blur"",""5"",""30168""
","""event"",""trial"",""time""
""focus"",""1"",""3879""
""focus"",""2"",""20392""
""focus"",""5"",""31636""
""focus"",""5"",""31637""
","""event"",""trial"",""time""
""fullscreenenter"",""5"",""32877""
","
",NA,images/earth.jpg,NA,NA,NA,NA,NA,NA,NA,NA,NA,NA,NA,NA,NA,fixation,NA,NA,NA,NA,NA,NA,sub65
d3-animate-choice,106,342513,0.0-61.0-0.15,TRUE,FALSE,FALSE,TRUE,"""event"",""trial"",""time""
""blur"",""0"",""0""
""focus"",""1"",""3879""
""blur"",""2"",""5735""
""focus"",""2"",""20392""
""blur"",""5"",""30168""
""focus"",""5"",""31636""
""focus"",""5"",""31637""
""fullscreenenter"",""5"",""32877""
","""event"",""trial"",""time""
""blur"",""0"",""0""
""blur"",""2"",""5735""
""blur"",""5"",""30168""
","""event"",""trial"",""time""
""focus"",""1"",""3879""
""focus"",""2"",""20392""
""focus"",""5"",""31636""
""focus"",""5"",""31637""
","""event"",""trial"",""time""
""fullscreenenter"",""5"",""32877""
","
",265,NA,48,NA,NA,3000,1,NA,NA,images/earth.jpg,images/tutrocket2,images/tutrocket1,null,images/tutrocket2,NA,1,practice,null,2,NA,NA,NA,sub65
d3-animate-choice,107,345084,0.0-61.0-1.15,TRUE,FALSE,FALSE,TRUE,"""event"",""trial"",""time""
""blur"",""0"",""0""
""focus"",""1"",""3879""
""blur"",""2"",""5735""
""focus"",""2"",""20392""
""blur"",""5"",""30168""
""focus"",""5"",""31636""
""focus"",""5"",""31637""
""fullscreenenter"",""5"",""32877""
","""event"",""trial"",""time""
""blur"",""0"",""0""
""blur"",""2"",""5735""
""blur"",""5"",""30168""
","""event"",""trial"",""time""
""focus"",""1"",""3879""
""focus"",""2"",""20392""
""focus"",""5"",""31636""
""focus"",""5"",""31637""
","""event"",""trial"",""time""
""fullscreenenter"",""5"",""32877""
","
",567,NA,48,NA,NA,3000,1,NA,NA,images/tutgreenplanet.jpg,images/tutalien2,images/tutalien1,images/tutrocket2,images/tutalien2,images/nothing.png,2,practice,true,2,common,0,2020-06-16T18:14:13Z,sub65
two-step-fixation,108,346085,0.0-61.0-2.15,TRUE,FALSE,FALSE,TRUE,"""event"",""trial"",""time""
""blur"",""0"",""0""
""focus"",""1"",""3879""
""blur"",""2"",""5735""
""focus"",""2"",""20392""
""blur"",""5"",""30168""
""focus"",""5"",""31636""
""focus"",""5"",""31637""
""fullscreenenter"",""5"",""32877""
","""event"",""trial"",""time""
""blur"",""0"",""0""
""blur"",""2"",""5735""
""blur"",""5"",""30168""
","""event"",""trial"",""time""
""focus"",""1"",""3879""
""focus"",""2"",""20392""
""focus"",""5"",""31636""
""focus"",""5"",""31637""
","""event"",""trial"",""time""
""fullscreenenter"",""5"",""32877""
","
",NA,images/earth.jpg,NA,NA,NA,NA,NA,NA,NA,NA,NA,NA,NA,NA,NA,fixation,NA,NA,NA,NA,NA,NA,sub65
d3-animate-choice,109,348468,0.0-61.0-0.16,TRUE,FALSE,FALSE,TRUE,"""event"",""trial"",""time""
""blur"",""0"",""0""
""focus"",""1"",""3879""
""blur"",""2"",""5735""
""focus"",""2"",""20392""
""blur"",""5"",""30168""
""focus"",""5"",""31636""
""focus"",""5"",""31637""
""fullscreenenter"",""5"",""32877""
","""event"",""trial"",""time""
""blur"",""0"",""0""
""blur"",""2"",""5735""
""blur"",""5"",""30168""
","""event"",""trial"",""time""
""focus"",""1"",""3879""
""focus"",""2"",""20392""
""focus"",""5"",""31636""
""focus"",""5"",""31637""
","""event"",""trial"",""time""
""fullscreenenter"",""5"",""32877""
","
",380,NA,48,NA,NA,3000,1,NA,NA,images/earth.jpg,images/tutrocket2,images/tutrocket1,null,images/tutrocket2,NA,1,practice,null,2,NA,NA,NA,sub65
d3-animate-choice,110,351948,0.0-61.0-1.16,TRUE,FALSE,FALSE,TRUE,"""event"",""trial"",""time""
""blur"",""0"",""0""
""focus"",""1"",""3879""
""blur"",""2"",""5735""
""focus"",""2"",""20392""
""blur"",""5"",""30168""
""focus"",""5"",""31636""
""focus"",""5"",""31637""
""fullscreenenter"",""5"",""32877""
","""event"",""trial"",""time""
""blur"",""0"",""0""
""blur"",""2"",""5735""
""blur"",""5"",""30168""
","""event"",""trial"",""time""
""focus"",""1"",""3879""
""focus"",""2"",""20392""
""focus"",""5"",""31636""
""focus"",""5"",""31637""
","""event"",""trial"",""time""
""fullscreenenter"",""5"",""32877""
","
",1477,NA,49,NA,NA,3000,1,NA,NA,images/tutyellowplanet.jpg,images/tutalien4,images/tutalien3,images/tutrocket2,images/tutalien3,images/nothing.png,2,practice,false,1,rare,0,2020-06-16T18:14:20Z,sub65
two-step-fixation,111,352950,0.0-61.0-2.16,TRUE,FALSE,FALSE,TRUE,"""event"",""trial"",""time""
""blur"",""0"",""0""
""focus"",""1"",""3879""
""blur"",""2"",""5735""
""focus"",""2"",""20392""
""blur"",""5"",""30168""
""focus"",""5"",""31636""
""focus"",""5"",""31637""
""fullscreenenter"",""5"",""32877""
","""event"",""trial"",""time""
""blur"",""0"",""0""
""blur"",""2"",""5735""
""blur"",""5"",""30168""
","""event"",""trial"",""time""
""focus"",""1"",""3879""
""focus"",""2"",""20392""
""focus"",""5"",""31636""
""focus"",""5"",""31637""
","""event"",""trial"",""time""
""fullscreenenter"",""5"",""32877""
","
",NA,images/earth.jpg,NA,NA,NA,NA,NA,NA,NA,NA,NA,NA,NA,NA,NA,fixation,NA,NA,NA,NA,NA,NA,sub65
d3-animate-choice,112,355332,0.0-61.0-0.17,TRUE,FALSE,FALSE,TRUE,"""event"",""trial"",""time""
""blur"",""0"",""0""
""focus"",""1"",""3879""
""blur"",""2"",""5735""
""focus"",""2"",""20392""
""blur"",""5"",""30168""
""focus"",""5"",""31636""
""focus"",""5"",""31637""
""fullscreenenter"",""5"",""32877""
","""event"",""trial"",""time""
""blur"",""0"",""0""
""blur"",""2"",""5735""
""blur"",""5"",""30168""
","""event"",""trial"",""time""
""focus"",""1"",""3879""
""focus"",""2"",""20392""
""focus"",""5"",""31636""
""focus"",""5"",""31637""
","""event"",""trial"",""time""
""fullscreenenter"",""5"",""32877""
","
",379,NA,48,NA,NA,3000,1,NA,NA,images/earth.jpg,images/tutrocket2,images/tutrocket1,null,images/tutrocket2,NA,1,practice,null,2,NA,NA,NA,sub65
d3-animate-choice,113,357829,0.0-61.0-1.17,TRUE,FALSE,FALSE,TRUE,"""event"",""trial"",""time""
""blur"",""0"",""0""
""focus"",""1"",""3879""
""blur"",""2"",""5735""
""focus"",""2"",""20392""
""blur"",""5"",""30168""
""focus"",""5"",""31636""
""focus"",""5"",""31637""
""fullscreenenter"",""5"",""32877""
","""event"",""trial"",""time""
""blur"",""0"",""0""
""blur"",""2"",""5735""
""blur"",""5"",""30168""
","""event"",""trial"",""time""
""focus"",""1"",""3879""
""focus"",""2"",""20392""
""focus"",""5"",""31636""
""focus"",""5"",""31637""
","""event"",""trial"",""time""
""fullscreenenter"",""5"",""32877""
","
",494,NA,49,NA,NA,3000,1,NA,NA,images/tutgreenplanet.jpg,images/tutalien2,images/tutalien1,images/tutrocket2,images/tutalien1,images/nothing.png,2,practice,true,1,common,0,2020-06-16T18:14:26Z,sub65
two-step-fixation,114,358830,0.0-61.0-2.17,TRUE,FALSE,FALSE,TRUE,"""event"",""trial"",""time""
""blur"",""0"",""0""
""focus"",""1"",""3879""
""blur"",""2"",""5735""
""focus"",""2"",""20392""
""blur"",""5"",""30168""
""focus"",""5"",""31636""
""focus"",""5"",""31637""
""fullscreenenter"",""5"",""32877""
","""event"",""trial"",""time""
""blur"",""0"",""0""
""blur"",""2"",""5735""
""blur"",""5"",""30168""
","""event"",""trial"",""time""
""focus"",""1"",""3879""
""focus"",""2"",""20392""
""focus"",""5"",""31636""
""focus"",""5"",""31637""
","""event"",""trial"",""time""
""fullscreenenter"",""5"",""32877""
","
",NA,images/earth.jpg,NA,NA,NA,NA,NA,NA,NA,NA,NA,NA,NA,NA,NA,fixation,NA,NA,NA,NA,NA,NA,sub65
d3-animate-choice,115,361160,0.0-61.0-0.18,TRUE,FALSE,FALSE,TRUE,"""event"",""trial"",""time""
""blur"",""0"",""0""
""focus"",""1"",""3879""
""blur"",""2"",""5735""
""focus"",""2"",""20392""
""blur"",""5"",""30168""
""focus"",""5"",""31636""
""focus"",""5"",""31637""
""fullscreenenter"",""5"",""32877""
","""event"",""trial"",""time""
""blur"",""0"",""0""
""blur"",""2"",""5735""
""blur"",""5"",""30168""
","""event"",""trial"",""time""
""focus"",""1"",""3879""
""focus"",""2"",""20392""
""focus"",""5"",""31636""
""focus"",""5"",""31637""
","""event"",""trial"",""time""
""fullscreenenter"",""5"",""32877""
","
",327,NA,49,NA,NA,3000,1,NA,NA,images/earth.jpg,images/tutrocket2,images/tutrocket1,null,images/tutrocket1,NA,1,practice,null,1,NA,NA,NA,sub65
d3-animate-choice,116,363503,0.0-61.0-1.18,TRUE,FALSE,FALSE,TRUE,"""event"",""trial"",""time""
""blur"",""0"",""0""
""focus"",""1"",""3879""
""blur"",""2"",""5735""
""focus"",""2"",""20392""
""blur"",""5"",""30168""
""focus"",""5"",""31636""
""focus"",""5"",""31637""
""fullscreenenter"",""5"",""32877""
","""event"",""trial"",""time""
""blur"",""0"",""0""
""blur"",""2"",""5735""
""blur"",""5"",""30168""
","""event"",""trial"",""time""
""focus"",""1"",""3879""
""focus"",""2"",""20392""
""focus"",""5"",""31636""
""focus"",""5"",""31637""
","""event"",""trial"",""time""
""fullscreenenter"",""5"",""32877""
","
",340.0000000000582,NA,48,NA,NA,3000,1,NA,NA,images/tutyellowplanet.jpg,images/tutalien4,images/tutalien3,images/tutrocket1,images/tutalien4,images/nothing.png,2,practice,true,2,common,0,2020-06-16T18:14:32Z,sub65
two-step-fixation,117,364505,0.0-61.0-2.18,TRUE,FALSE,FALSE,TRUE,"""event"",""trial"",""time""
""blur"",""0"",""0""
""focus"",""1"",""3879""
""blur"",""2"",""5735""
""focus"",""2"",""20392""
""blur"",""5"",""30168""
""focus"",""5"",""31636""
""focus"",""5"",""31637""
""fullscreenenter"",""5"",""32877""
","""event"",""trial"",""time""
""blur"",""0"",""0""
""blur"",""2"",""5735""
""blur"",""5"",""30168""
","""event"",""trial"",""time""
""focus"",""1"",""3879""
""focus"",""2"",""20392""
""focus"",""5"",""31636""
""focus"",""5"",""31637""
","""event"",""trial"",""time""
""fullscreenenter"",""5"",""32877""
","
",NA,images/earth.jpg,NA,NA,NA,NA,NA,NA,NA,NA,NA,NA,NA,NA,NA,fixation,NA,NA,NA,NA,NA,NA,sub65
d3-animate-choice,118,366768,0.0-61.0-0.19,TRUE,FALSE,FALSE,TRUE,"""event"",""trial"",""time""
""blur"",""0"",""0""
""focus"",""1"",""3879""
""blur"",""2"",""5735""
""focus"",""2"",""20392""
""blur"",""5"",""30168""
""focus"",""5"",""31636""
""focus"",""5"",""31637""
""fullscreenenter"",""5"",""32877""
","""event"",""trial"",""time""
""blur"",""0"",""0""
""blur"",""2"",""5735""
""blur"",""5"",""30168""
","""event"",""trial"",""time""
""focus"",""1"",""3879""
""focus"",""2"",""20392""
""focus"",""5"",""31636""
""focus"",""5"",""31637""
","""event"",""trial"",""time""
""fullscreenenter"",""5"",""32877""
","
",262,NA,49,NA,NA,3000,1,NA,NA,images/earth.jpg,images/tutrocket2,images/tutrocket1,null,images/tutrocket1,NA,1,practice,null,1,NA,NA,NA,sub65
d3-animate-choice,119,369035,0.0-61.0-1.19,TRUE,FALSE,FALSE,TRUE,"""event"",""trial"",""time""
""blur"",""0"",""0""
""focus"",""1"",""3879""
""blur"",""2"",""5735""
""focus"",""2"",""20392""
""blur"",""5"",""30168""
""focus"",""5"",""31636""
""focus"",""5"",""31637""
""fullscreenenter"",""5"",""32877""
","""event"",""trial"",""time""
""blur"",""0"",""0""
""blur"",""2"",""5735""
""blur"",""5"",""30168""
","""event"",""trial"",""time""
""focus"",""1"",""3879""
""focus"",""2"",""20392""
""focus"",""5"",""31636""
""focus"",""5"",""31637""
","""event"",""trial"",""time""
""fullscreenenter"",""5"",""32877""
","
",265,NA,49,NA,NA,3000,1,NA,NA,images/tutyellowplanet.jpg,images/tutalien4,images/tutalien3,images/tutrocket1,images/tutalien3,images/nothing.png,2,practice,true,1,common,0,2020-06-16T18:14:37Z,sub65
two-step-fixation,120,370037,0.0-61.0-2.19,TRUE,FALSE,FALSE,TRUE,"""event"",""trial"",""time""
""blur"",""0"",""0""
""focus"",""1"",""3879""
""blur"",""2"",""5735""
""focus"",""2"",""20392""
""blur"",""5"",""30168""
""focus"",""5"",""31636""
""focus"",""5"",""31637""
""fullscreenenter"",""5"",""32877""
","""event"",""trial"",""time""
""blur"",""0"",""0""
""blur"",""2"",""5735""
""blur"",""5"",""30168""
","""event"",""trial"",""time""
""focus"",""1"",""3879""
""focus"",""2"",""20392""
""focus"",""5"",""31636""
""focus"",""5"",""31637""
","""event"",""trial"",""time""
""fullscreenenter"",""5"",""32877""
","
",NA,images/earth.jpg,NA,NA,NA,NA,NA,NA,NA,NA,NA,NA,NA,NA,NA,fixation,NA,NA,NA,NA,NA,NA,sub65
d3-instructions,121,373105,0.0-62.0,TRUE,FALSE,FALSE,TRUE,"""event"",""trial"",""time""
""blur"",""0"",""0""
""focus"",""1"",""3879""
""blur"",""2"",""5735""
""focus"",""2"",""20392""
""blur"",""5"",""30168""
""focus"",""5"",""31636""
""focus"",""5"",""31637""
""fullscreenenter"",""5"",""32877""
","""event"",""trial"",""time""
""blur"",""0"",""0""
""blur"",""2"",""5735""
""blur"",""5"",""30168""
","""event"",""trial"",""time""
""focus"",""1"",""3879""
""focus"",""2"",""20392""
""focus"",""5"",""31636""
""focus"",""5"",""31637""
","""event"",""trial"",""time""
""fullscreenenter"",""5"",""32877""
","
",NA,NA,NA,NA,NA,NA,NA,NA,NA,NA,NA,NA,NA,NA,NA,NA,NA,NA,NA,NA,NA,NA,sub65
audio-keyboard-response,122,376231,0.0-63.0,TRUE,FALSE,FALSE,TRUE,"""event"",""trial"",""time""
""blur"",""0"",""0""
""focus"",""1"",""3879""
""blur"",""2"",""5735""
""focus"",""2"",""20392""
""blur"",""5"",""30168""
""focus"",""5"",""31636""
""focus"",""5"",""31637""
""fullscreenenter"",""5"",""32877""
","""event"",""trial"",""time""
""blur"",""0"",""0""
""blur"",""2"",""5735""
""blur"",""5"",""30168""
","""event"",""trial"",""time""
""focus"",""1"",""3879""
""focus"",""2"",""20392""
""focus"",""5"",""31636""
""focus"",""5"",""31637""
","""event"",""trial"",""time""
""fullscreenenter"",""5"",""32877""
","
",3126,audio/instructions/treasure_feedback.wav,32,NA,NA,NA,NA,NA,NA,NA,NA,NA,NA,NA,NA,NA,NA,NA,NA,NA,NA,NA,sub65
d3-instructions,123,381034,0.0-64.0,TRUE,FALSE,FALSE,TRUE,"""event"",""trial"",""time""
""blur"",""0"",""0""
""focus"",""1"",""3879""
""blur"",""2"",""5735""
""focus"",""2"",""20392""
""blur"",""5"",""30168""
""focus"",""5"",""31636""
""focus"",""5"",""31637""
""fullscreenenter"",""5"",""32877""
","""event"",""trial"",""time""
""blur"",""0"",""0""
""blur"",""2"",""5735""
""blur"",""5"",""30168""
","""event"",""trial"",""time""
""focus"",""1"",""3879""
""focus"",""2"",""20392""
""focus"",""5"",""31636""
""focus"",""5"",""31637""
","""event"",""trial"",""time""
""fullscreenenter"",""5"",""32877""
","
",NA,NA,NA,NA,NA,NA,NA,NA,NA,NA,NA,NA,NA,NA,NA,NA,NA,NA,NA,NA,NA,NA,sub65
d3-instructions,124,383995,0.0-65.0,TRUE,FALSE,FALSE,TRUE,"""event"",""trial"",""time""
""blur"",""0"",""0""
""focus"",""1"",""3879""
""blur"",""2"",""5735""
""focus"",""2"",""20392""
""blur"",""5"",""30168""
""focus"",""5"",""31636""
""focus"",""5"",""31637""
""fullscreenenter"",""5"",""32877""
","""event"",""trial"",""time""
""blur"",""0"",""0""
""blur"",""2"",""5735""
""blur"",""5"",""30168""
","""event"",""trial"",""time""
""focus"",""1"",""3879""
""focus"",""2"",""20392""
""focus"",""5"",""31636""
""focus"",""5"",""31637""
","""event"",""trial"",""time""
""fullscreenenter"",""5"",""32877""
","
",NA,NA,NA,NA,NA,NA,NA,NA,NA,NA,NA,NA,NA,NA,NA,NA,NA,NA,NA,NA,NA,NA,sub65
d3-instructions,125,393852,0.0-66.0,TRUE,FALSE,FALSE,TRUE,"""event"",""trial"",""time""
""blur"",""0"",""0""
""focus"",""1"",""3879""
""blur"",""2"",""5735""
""focus"",""2"",""20392""
""blur"",""5"",""30168""
""focus"",""5"",""31636""
""focus"",""5"",""31637""
""fullscreenenter"",""5"",""32877""
","""event"",""trial"",""time""
""blur"",""0"",""0""
""blur"",""2"",""5735""
""blur"",""5"",""30168""
","""event"",""trial"",""time""
""focus"",""1"",""3879""
""focus"",""2"",""20392""
""focus"",""5"",""31636""
""focus"",""5"",""31637""
","""event"",""trial"",""time""
""fullscreenenter"",""5"",""32877""
","
",NA,NA,NA,NA,NA,NA,NA,NA,NA,NA,NA,NA,NA,NA,NA,NA,NA,NA,NA,NA,NA,NA,sub65
d3-instructions,126,403332,0.0-67.0,TRUE,FALSE,FALSE,TRUE,"""event"",""trial"",""time""
""blur"",""0"",""0""
""focus"",""1"",""3879""
""blur"",""2"",""5735""
""focus"",""2"",""20392""
""blur"",""5"",""30168""
""focus"",""5"",""31636""
""focus"",""5"",""31637""
""fullscreenenter"",""5"",""32877""
","""event"",""trial"",""time""
""blur"",""0"",""0""
""blur"",""2"",""5735""
""blur"",""5"",""30168""
","""event"",""trial"",""time""
""focus"",""1"",""3879""
""focus"",""2"",""20392""
""focus"",""5"",""31636""
""focus"",""5"",""31637""
","""event"",""trial"",""time""
""fullscreenenter"",""5"",""32877""
","
",NA,NA,NA,NA,NA,NA,NA,NA,NA,NA,NA,NA,NA,NA,NA,NA,NA,NA,NA,NA,NA,NA,sub65
d3-instructions,127,404803,0.0-68.0,TRUE,FALSE,FALSE,TRUE,"""event"",""trial"",""time""
""blur"",""0"",""0""
""focus"",""1"",""3879""
""blur"",""2"",""5735""
""focus"",""2"",""20392""
""blur"",""5"",""30168""
""focus"",""5"",""31636""
""focus"",""5"",""31637""
""fullscreenenter"",""5"",""32877""
","""event"",""trial"",""time""
""blur"",""0"",""0""
""blur"",""2"",""5735""
""blur"",""5"",""30168""
","""event"",""trial"",""time""
""focus"",""1"",""3879""
""focus"",""2"",""20392""
""focus"",""5"",""31636""
""focus"",""5"",""31637""
","""event"",""trial"",""time""
""fullscreenenter"",""5"",""32877""
","
",NA,NA,NA,NA,NA,NA,NA,NA,NA,NA,NA,NA,NA,NA,NA,NA,NA,NA,NA,NA,NA,NA,sub65
instructions-quiz,128,407021,0.0-69.0,TRUE,FALSE,FALSE,TRUE,"""event"",""trial"",""time""
""blur"",""0"",""0""
""focus"",""1"",""3879""
""blur"",""2"",""5735""
""focus"",""2"",""20392""
""blur"",""5"",""30168""
""focus"",""5"",""31636""
""focus"",""5"",""31637""
""fullscreenenter"",""5"",""32877""
","""event"",""trial"",""time""
""blur"",""0"",""0""
""blur"",""2"",""5735""
""blur"",""5"",""30168""
","""event"",""trial"",""time""
""focus"",""1"",""3879""
""focus"",""2"",""20392""
""focus"",""5"",""31636""
""focus"",""5"",""31637""
","""event"",""trial"",""time""
""fullscreenenter"",""5"",""32877""
","
",2217.000000000058,audio/quiz/Q1_Prompt.wav,NA,1,NA,NA,NA,NA,NA,NA,NA,NA,NA,NA,NA,NA,NA,NA,NA,NA,NA,NA,sub65
audio-keyboard-response,129,407947,0.0-70.0,TRUE,FALSE,FALSE,TRUE,"""event"",""trial"",""time""
""blur"",""0"",""0""
""focus"",""1"",""3879""
""blur"",""2"",""5735""
""focus"",""2"",""20392""
""blur"",""5"",""30168""
""focus"",""5"",""31636""
""focus"",""5"",""31637""
""fullscreenenter"",""5"",""32877""
","""event"",""trial"",""time""
""blur"",""0"",""0""
""blur"",""2"",""5735""
""blur"",""5"",""30168""
","""event"",""trial"",""time""
""focus"",""1"",""3879""
""focus"",""2"",""20392""
""focus"",""5"",""31636""
""focus"",""5"",""31637""
","""event"",""trial"",""time""
""fullscreenenter"",""5"",""32877""
","
",926,audio/quiz/Q1_Correct.wav,32,NA,NA,NA,NA,NA,NA,NA,NA,NA,NA,NA,NA,NA,NA,NA,NA,NA,NA,NA,sub65
instructions-quiz,130,410147,0.0-71.0,TRUE,FALSE,FALSE,TRUE,"""event"",""trial"",""time""
""blur"",""0"",""0""
""focus"",""1"",""3879""
""blur"",""2"",""5735""
""focus"",""2"",""20392""
""blur"",""5"",""30168""
""focus"",""5"",""31636""
""focus"",""5"",""31637""
""fullscreenenter"",""5"",""32877""
","""event"",""trial"",""time""
""blur"",""0"",""0""
""blur"",""2"",""5735""
""blur"",""5"",""30168""
","""event"",""trial"",""time""
""focus"",""1"",""3879""
""focus"",""2"",""20392""
""focus"",""5"",""31636""
""focus"",""5"",""31637""
","""event"",""trial"",""time""
""fullscreenenter"",""5"",""32877""
","
",2199,audio/quiz/Q2_Prompt.wav,NA,0,NA,NA,NA,NA,NA,NA,NA,NA,NA,NA,NA,NA,NA,NA,NA,NA,NA,NA,sub65
audio-keyboard-response,131,410429,0.0-72.0,TRUE,FALSE,FALSE,TRUE,"""event"",""trial"",""time""
""blur"",""0"",""0""
""focus"",""1"",""3879""
""blur"",""2"",""5735""
""focus"",""2"",""20392""
""blur"",""5"",""30168""
""focus"",""5"",""31636""
""focus"",""5"",""31637""
""fullscreenenter"",""5"",""32877""
","""event"",""trial"",""time""
""blur"",""0"",""0""
""blur"",""2"",""5735""
""blur"",""5"",""30168""
","""event"",""trial"",""time""
""focus"",""1"",""3879""
""focus"",""2"",""20392""
""focus"",""5"",""31636""
""focus"",""5"",""31637""
","""event"",""trial"",""time""
""fullscreenenter"",""5"",""32877""
","
",282,audio/quiz/Q2_Correct.wav,32,NA,NA,NA,NA,NA,NA,NA,NA,NA,NA,NA,NA,NA,NA,NA,NA,NA,NA,NA,sub65
instructions-quiz,132,411805,0.0-73.0,TRUE,FALSE,FALSE,TRUE,"""event"",""trial"",""time""
""blur"",""0"",""0""
""focus"",""1"",""3879""
""blur"",""2"",""5735""
""focus"",""2"",""20392""
""blur"",""5"",""30168""
""focus"",""5"",""31636""
""focus"",""5"",""31637""
""fullscreenenter"",""5"",""32877""
","""event"",""trial"",""time""
""blur"",""0"",""0""
""blur"",""2"",""5735""
""blur"",""5"",""30168""
","""event"",""trial"",""time""
""focus"",""1"",""3879""
""focus"",""2"",""20392""
""focus"",""5"",""31636""
""focus"",""5"",""31637""
","""event"",""trial"",""time""
""fullscreenenter"",""5"",""32877""
","
",1376,audio/quiz/Q3_Prompt.wav,NA,1,NA,NA,NA,NA,NA,NA,NA,NA,NA,NA,NA,NA,NA,NA,NA,NA,NA,NA,sub65
audio-keyboard-response,133,411935,0.0-74.0,TRUE,FALSE,FALSE,TRUE,"""event"",""trial"",""time""
""blur"",""0"",""0""
""focus"",""1"",""3879""
""blur"",""2"",""5735""
""focus"",""2"",""20392""
""blur"",""5"",""30168""
""focus"",""5"",""31636""
""focus"",""5"",""31637""
""fullscreenenter"",""5"",""32877""
","""event"",""trial"",""time""
""blur"",""0"",""0""
""blur"",""2"",""5735""
""blur"",""5"",""30168""
