trial_type,trial_index,time_elapsed,internal_node_id,rocket_sides,red_planet_first_rocket,red_display_order,purple_display_order,interactions,blur_events,focus_events,fullscreenenter_events,fullscreenexit_events,rt,stimulus,key_press,button_pressed,success,duration,valid_pressed,rts,keys,planet_text,right_text,left_text,center_text,chosen_text,reward_text,trial_stage,practice_trial,transition_type,choice,transition,reward,timestamp,subject_id
pavlovia,0,9,0.0-0.0,FALSE,FALSE,TRUE,FALSE,"
","
","
","
","
",NA,NA,NA,NA,NA,NA,NA,NA,NA,NA,NA,NA,NA,NA,NA,NA,NA,NA,NA,NA,NA,NA,sub32
html-keyboard-response,1,3623,0.0-1.0,FALSE,FALSE,TRUE,FALSE,"
","
","
","
","
",3610.349999999926,Welcome! Press the space bar to begin.,32,NA,NA,NA,NA,NA,NA,NA,NA,NA,NA,NA,NA,NA,NA,NA,NA,NA,NA,NA,sub32
audio-keyboard-response,2,9555,0.0-2.0,FALSE,FALSE,TRUE,FALSE,"
","
","
","
","
",5560,audio/beep_loop.wav,32,NA,NA,NA,NA,NA,NA,NA,NA,NA,NA,NA,NA,NA,NA,NA,NA,NA,NA,NA,sub32
audio-button-response,3,16938,0.0-3.0,FALSE,FALSE,TRUE,FALSE,"
","
","
","
","
",NaN,audio/fish.mp3,NA,1,NA,NA,NA,NA,NA,NA,NA,NA,NA,NA,NA,NA,NA,NA,NA,NA,NA,NA,sub32
audio-button-response,4,19926,0.0-4.0,FALSE,FALSE,TRUE,FALSE,"""event"",""trial"",""time""
""fullscreenenter"",""5"",""25484""
","
","
","""event"",""trial"",""time""
""fullscreenenter"",""5"",""25484""
","
",NaN,audio/tiger.mp3,NA,4,NA,NA,NA,NA,NA,NA,NA,NA,NA,NA,NA,NA,NA,NA,NA,NA,NA,NA,sub32
fullscreen,5,26463,0.0-5.0,FALSE,FALSE,TRUE,FALSE,"""event"",""trial"",""time""
""fullscreenenter"",""5"",""25484""
","
","
","""event"",""trial"",""time""
""fullscreenenter"",""5"",""25484""
","
",NA,NA,NA,NA,TRUE,NA,NA,NA,NA,NA,NA,NA,NA,NA,NA,NA,NA,NA,NA,NA,NA,NA,sub32
d3-instructions,6,71853,0.0-6.0,FALSE,FALSE,TRUE,FALSE,"""event"",""trial"",""time""
""fullscreenenter"",""5"",""25484""
","
","
","""event"",""trial"",""time""
""fullscreenenter"",""5"",""25484""
","
",NA,NA,NA,NA,NA,NA,NA,NA,NA,NA,NA,NA,NA,NA,NA,NA,NA,NA,NA,NA,NA,NA,sub32
d3-instructions,7,87554,0.0-7.0,FALSE,FALSE,TRUE,FALSE,"""event"",""trial"",""time""
""fullscreenenter"",""5"",""25484""
","
","
","""event"",""trial"",""time""
""fullscreenenter"",""5"",""25484""
","
",NA,NA,NA,NA,NA,NA,NA,NA,NA,NA,NA,NA,NA,NA,NA,NA,NA,NA,NA,NA,NA,NA,sub32
d3-instructions,8,94853,0.0-8.0,FALSE,FALSE,TRUE,FALSE,"""event"",""trial"",""time""
""fullscreenenter"",""5"",""25484""
","
","
","""event"",""trial"",""time""
""fullscreenenter"",""5"",""25484""
","
",NA,NA,NA,NA,NA,NA,NA,NA,NA,NA,NA,NA,NA,NA,NA,NA,NA,NA,NA,NA,NA,NA,sub32
d3-instructions,9,106369,0.0-9.0,FALSE,FALSE,TRUE,FALSE,"""event"",""trial"",""time""
""fullscreenenter"",""5"",""25484""
","
","
","""event"",""trial"",""time""
""fullscreenenter"",""5"",""25484""
","
",NA,NA,NA,NA,NA,NA,NA,NA,NA,NA,NA,NA,NA,NA,NA,NA,NA,NA,NA,NA,NA,NA,sub32
d3-instructions,10,128280,0.0-10.0,FALSE,FALSE,TRUE,FALSE,"""event"",""trial"",""time""
""fullscreenenter"",""5"",""25484""
","
","
","""event"",""trial"",""time""
""fullscreenenter"",""5"",""25484""
","
",NA,NA,NA,NA,NA,NA,NA,NA,NA,NA,NA,NA,NA,NA,NA,NA,NA,NA,NA,NA,NA,NA,sub32
d3-animate-choice,11,131980,0.0-11.0,FALSE,FALSE,TRUE,FALSE,"""event"",""trial"",""time""
""fullscreenenter"",""5"",""25484""
","
","
","""event"",""trial"",""time""
""fullscreenenter"",""5"",""25484""
","
",1674.9749999998894,NA,49,NA,NA,3000,1,2761.7000000000116,48,images/tutgreenplanet.jpg,images/tutalien1,images/tutalien2,null,images/tutalien2,NA,NA,practice,null,NA,NA,NA,NA,sub32
d3-animate-choice,12,134355,0.0-12.0,FALSE,FALSE,TRUE,FALSE,"""event"",""trial"",""time""
""fullscreenenter"",""5"",""25484""
","
","
","""event"",""trial"",""time""
""fullscreenenter"",""5"",""25484""
","
",365.4099999998871,NA,48,NA,NA,3000,1,NA,NA,images/tutgreenplanet.jpg,images/tutalien1,images/tutalien2,null,images/tutalien1,NA,NA,practice,null,NA,NA,NA,NA,sub32
d3-animate-choice,13,137026,0.0-13.0,FALSE,FALSE,TRUE,FALSE,"""event"",""trial"",""time""
""fullscreenenter"",""5"",""25484""
","
","
","""event"",""trial"",""time""
""fullscreenenter"",""5"",""25484""
","
",660.50499999983,NA,49,NA,NA,3000,1,NA,NA,images/tutgreenplanet.jpg,images/tutalien1,images/tutalien2,null,images/tutalien2,NA,NA,practice,null,NA,NA,NA,NA,sub32
d3-animate-choice,14,139394,0.0-14.0,FALSE,FALSE,TRUE,FALSE,"""event"",""trial"",""time""
""fullscreenenter"",""5"",""25484""
","
","
","""event"",""trial"",""time""
""fullscreenenter"",""5"",""25484""
","
",358.0600000000268,NA,48,NA,NA,3000,1,NA,NA,images/tutgreenplanet.jpg,images/tutalien1,images/tutalien2,null,images/tutalien1,NA,NA,practice,null,NA,NA,NA,NA,sub32
d3-instructions,15,147018,0.0-15.0,FALSE,FALSE,TRUE,FALSE,"""event"",""trial"",""time""
""fullscreenenter"",""5"",""25484""
","
","
","""event"",""trial"",""time""
""fullscreenenter"",""5"",""25484""
","
",NA,NA,NA,NA,NA,NA,NA,NA,NA,NA,NA,NA,NA,NA,NA,NA,NA,NA,NA,NA,NA,NA,sub32
d3-instructions,16,154405,0.0-16.0,FALSE,FALSE,TRUE,FALSE,"""event"",""trial"",""time""
""fullscreenenter"",""5"",""25484""
","
","
","""event"",""trial"",""time""
""fullscreenenter"",""5"",""25484""
","
",NA,NA,NA,NA,NA,NA,NA,NA,NA,NA,NA,NA,NA,NA,NA,NA,NA,NA,NA,NA,NA,NA,sub32
d3-instructions,17,165648,0.0-17.0,FALSE,FALSE,TRUE,FALSE,"""event"",""trial"",""time""
""fullscreenenter"",""5"",""25484""
","
","
","""event"",""trial"",""time""
""fullscreenenter"",""5"",""25484""
","
",NA,NA,NA,NA,NA,NA,NA,NA,NA,NA,NA,NA,NA,NA,NA,NA,NA,NA,NA,NA,NA,NA,sub32
d3-instructions,18,181802,0.0-18.0,FALSE,FALSE,TRUE,FALSE,"""event"",""trial"",""time""
""fullscreenenter"",""5"",""25484""
","
","
","""event"",""trial"",""time""
""fullscreenenter"",""5"",""25484""
","
",NA,NA,NA,NA,NA,NA,NA,NA,NA,NA,NA,NA,NA,NA,NA,NA,NA,NA,NA,NA,NA,NA,sub32
d3-instructions,19,195982,0.0-19.0,FALSE,FALSE,TRUE,FALSE,"""event"",""trial"",""time""
""fullscreenenter"",""5"",""25484""
","
","
","""event"",""trial"",""time""
""fullscreenenter"",""5"",""25484""
","
",NA,NA,NA,NA,NA,NA,NA,NA,NA,NA,NA,NA,NA,NA,NA,NA,NA,NA,NA,NA,NA,NA,sub32
d3-animate-choice,20,198761,0.0-20.0,FALSE,FALSE,TRUE,FALSE,"""event"",""trial"",""time""
""fullscreenenter"",""5"",""25484""
","
","
","""event"",""trial"",""time""
""fullscreenenter"",""5"",""25484""
","
",768.5750000000407,NA,49,NA,NA,3000,1,2353.6049999997776,49,images/tutyellowplanet.jpg,null,images/tutalien3,null,images/tutalien3,images/t.png,NA,practice,null,NA,NA,NA,NA,sub32
d3-animate-choice,21,201270,0.0-21.0,FALSE,FALSE,TRUE,FALSE,"""event"",""trial"",""time""
""fullscreenenter"",""5"",""25484""
","
","
","""event"",""trial"",""time""
""fullscreenenter"",""5"",""25484""
","
",498.66500000006636,NA,49,NA,NA,3000,1,NA,NA,images/tutyellowplanet.jpg,null,images/tutalien3,null,images/tutalien3,images/nothing.png,NA,practice,null,NA,NA,NA,NA,sub32
d3-animate-choice,22,203855,0.0-22.0,FALSE,FALSE,TRUE,FALSE,"""event"",""trial"",""time""
""fullscreenenter"",""5"",""25484""
","
","
","""event"",""trial"",""time""
""fullscreenenter"",""5"",""25484""
","
",576.9850000001607,NA,49,NA,NA,3000,1,NA,NA,images/tutyellowplanet.jpg,null,images/tutalien3,null,images/tutalien3,images/t.png,NA,practice,null,NA,NA,NA,NA,sub32
d3-animate-choice,23,206342,0.0-23.0,FALSE,FALSE,TRUE,FALSE,"""event"",""trial"",""time""
""fullscreenenter"",""5"",""25484""
","
","
","""event"",""trial"",""time""
""fullscreenenter"",""5"",""25484""
","
",479.1350000000384,NA,49,NA,NA,3000,1,NA,NA,images/tutyellowplanet.jpg,null,images/tutalien3,null,images/tutalien3,images/t.png,NA,practice,null,NA,NA,NA,NA,sub32
d3-animate-choice,24,208977,0.0-24.0,FALSE,FALSE,TRUE,FALSE,"""event"",""trial"",""time""
""fullscreenenter"",""5"",""25484""
","
","
","""event"",""trial"",""time""
""fullscreenenter"",""5"",""25484""
","
",627.6800000000512,NA,49,NA,NA,3000,1,NA,NA,images/tutyellowplanet.jpg,null,images/tutalien3,null,images/tutalien3,images/t.png,NA,practice,null,NA,NA,NA,NA,sub32
d3-animate-choice,25,211353,0.0-25.0,FALSE,FALSE,TRUE,FALSE,"""event"",""trial"",""time""
""fullscreenenter"",""5"",""25484""
","
","
","""event"",""trial"",""time""
""fullscreenenter"",""5"",""25484""
","
",369.0599999999977,NA,49,NA,NA,3000,1,NA,NA,images/tutyellowplanet.jpg,null,images/tutalien3,null,images/tutalien3,images/t.png,NA,practice,null,NA,NA,NA,NA,sub32
d3-animate-choice,26,213781,0.0-26.0,FALSE,FALSE,TRUE,FALSE,"""event"",""trial"",""time""
""fullscreenenter"",""5"",""25484""
","
","
","""event"",""trial"",""time""
""fullscreenenter"",""5"",""25484""
","
",418.65999999982887,NA,49,NA,NA,3000,1,NA,NA,images/tutyellowplanet.jpg,null,images/tutalien3,null,images/tutalien3,images/t.png,NA,practice,null,NA,NA,NA,NA,sub32
d3-animate-choice,27,216130,0.0-27.0,FALSE,FALSE,TRUE,FALSE,"""event"",""trial"",""time""
""fullscreenenter"",""5"",""25484""
","
","
","""event"",""trial"",""time""
""fullscreenenter"",""5"",""25484""
","
",339.5950000003795,NA,49,NA,NA,3000,1,NA,NA,images/tutyellowplanet.jpg,null,images/tutalien3,null,images/tutalien3,images/t.png,NA,practice,null,NA,NA,NA,NA,sub32
d3-animate-choice,28,218519,0.0-28.0,FALSE,FALSE,TRUE,FALSE,"""event"",""trial"",""time""
""fullscreenenter"",""5"",""25484""
","
","
","""event"",""trial"",""time""
""fullscreenenter"",""5"",""25484""
","
",381.02999999999884,NA,49,NA,NA,3000,1,NA,NA,images/tutyellowplanet.jpg,null,images/tutalien3,null,images/tutalien3,images/t.png,NA,practice,null,NA,NA,NA,NA,sub32
d3-animate-choice,29,221051,0.0-29.0,FALSE,FALSE,TRUE,FALSE,"""event"",""trial"",""time""
""fullscreenenter"",""5"",""25484""
","
","
","""event"",""trial"",""time""
""fullscreenenter"",""5"",""25484""
","
",524.2699999998731,NA,49,NA,NA,3000,1,NA,NA,images/tutyellowplanet.jpg,null,images/tutalien3,null,images/tutalien3,images/nothing.png,NA,practice,null,NA,NA,NA,NA,sub32
d3-instructions,30,229596,0.0-30.0,FALSE,FALSE,TRUE,FALSE,"""event"",""trial"",""time""
""fullscreenenter"",""5"",""25484""
","
","
","""event"",""trial"",""time""
""fullscreenenter"",""5"",""25484""
","
",NA,NA,NA,NA,NA,NA,NA,NA,NA,NA,NA,NA,NA,NA,NA,NA,NA,NA,NA,NA,NA,NA,sub32
d3-instructions,31,246265,0.0-31.0,FALSE,FALSE,TRUE,FALSE,"""event"",""trial"",""time""
""fullscreenenter"",""5"",""25484""
","
","
","""event"",""trial"",""time""
""fullscreenenter"",""5"",""25484""
","
",NA,NA,NA,NA,NA,NA,NA,NA,NA,NA,NA,NA,NA,NA,NA,NA,NA,NA,NA,NA,NA,NA,sub32
d3-instructions,32,254627,0.0-32.0,FALSE,FALSE,TRUE,FALSE,"""event"",""trial"",""time""
""fullscreenenter"",""5"",""25484""
","
","
","""event"",""trial"",""time""
""fullscreenenter"",""5"",""25484""
","
",NA,NA,NA,NA,NA,NA,NA,NA,NA,NA,NA,NA,NA,NA,NA,NA,NA,NA,NA,NA,NA,NA,sub32
d3-instructions,33,265383,0.0-33.0,FALSE,FALSE,TRUE,FALSE,"""event"",""trial"",""time""
""fullscreenenter"",""5"",""25484""
","
","
","""event"",""trial"",""time""
""fullscreenenter"",""5"",""25484""
","
",NA,NA,NA,NA,NA,NA,NA,NA,NA,NA,NA,NA,NA,NA,NA,NA,NA,NA,NA,NA,NA,NA,sub32
d3-animate-choice,34,268657,0.0-34.0,FALSE,FALSE,TRUE,FALSE,"""event"",""trial"",""time""
""fullscreenenter"",""5"",""25484""
","
","
","""event"",""trial"",""time""
""fullscreenenter"",""5"",""25484""
","
",1265.0549999998766,NA,49,NA,NA,3000,1,NA,NA,images/tutgreenplanet.jpg,images/tutalien1,images/tutalien2,null,images/tutalien2,images/t.png,NA,practice,null,NA,NA,NA,NA,sub32
d3-animate-choice,35,271589,0.0-35.0,FALSE,FALSE,TRUE,FALSE,"""event"",""trial"",""time""
""fullscreenenter"",""5"",""25484""
","
","
","""event"",""trial"",""time""
""fullscreenenter"",""5"",""25484""
","
",923.1900000000023,NA,48,NA,NA,3000,1,NA,NA,images/tutgreenplanet.jpg,images/tutalien1,images/tutalien2,null,images/tutalien1,images/nothing.png,NA,practice,null,NA,NA,NA,NA,sub32
d3-animate-choice,36,274309,0.0-36.0,FALSE,FALSE,TRUE,FALSE,"""event"",""trial"",""time""
""fullscreenenter"",""5"",""25484""
","
","
","""event"",""trial"",""time""
""fullscreenenter"",""5"",""25484""
","
",710.3250000000116,NA,49,NA,NA,3000,1,NA,NA,images/tutgreenplanet.jpg,images/tutalien1,images/tutalien2,null,images/tutalien2,images/nothing.png,NA,practice,null,NA,NA,NA,NA,sub32
d3-animate-choice,37,276696,0.0-37.0,FALSE,FALSE,TRUE,FALSE,"""event"",""trial"",""time""
""fullscreenenter"",""5"",""25484""
","
","
","""event"",""trial"",""time""
""fullscreenenter"",""5"",""25484""
","
",378.784999999858,NA,48,NA,NA,3000,1,NA,NA,images/tutgreenplanet.jpg,images/tutalien1,images/tutalien2,null,images/tutalien1,images/nothing.png,NA,practice,null,NA,NA,NA,NA,sub32
d3-animate-choice,38,279037,0.0-38.0,FALSE,FALSE,TRUE,FALSE,"""event"",""trial"",""time""
""fullscreenenter"",""5"",""25484""
","
","
","""event"",""trial"",""time""
""fullscreenenter"",""5"",""25484""
","
",332.8900000001886,NA,49,NA,NA,3000,1,NA,NA,images/tutgreenplanet.jpg,images/tutalien1,images/tutalien2,null,images/tutalien2,images/t.png,NA,practice,null,NA,NA,NA,NA,sub32
d3-animate-choice,39,281472,0.0-39.0,FALSE,FALSE,TRUE,FALSE,"""event"",""trial"",""time""
""fullscreenenter"",""5"",""25484""
","
","
","""event"",""trial"",""time""
""fullscreenenter"",""5"",""25484""
","
",427.34500000003027,NA,48,NA,NA,3000,1,NA,NA,images/tutgreenplanet.jpg,images/tutalien1,images/tutalien2,null,images/tutalien1,images/nothing.png,NA,practice,null,NA,NA,NA,NA,sub32
d3-animate-choice,40,283750,0.0-40.0,FALSE,FALSE,TRUE,FALSE,"""event"",""trial"",""time""
""fullscreenenter"",""5"",""25484""
","
","
","""event"",""trial"",""time""
""fullscreenenter"",""5"",""25484""
","
",268.82500000012806,NA,49,NA,NA,3000,1,NA,NA,images/tutgreenplanet.jpg,images/tutalien1,images/tutalien2,null,images/tutalien2,images/nothing.png,NA,practice,null,NA,NA,NA,NA,sub32
d3-animate-choice,41,285927,0.0-41.0,FALSE,FALSE,TRUE,FALSE,"""event"",""trial"",""time""
""fullscreenenter"",""5"",""25484""
","
","
","""event"",""trial"",""time""
""fullscreenenter"",""5"",""25484""
","
",168.65000000002328,NA,48,NA,NA,3000,1,NA,NA,images/tutgreenplanet.jpg,images/tutalien1,images/tutalien2,null,images/tutalien1,images/nothing.png,NA,practice,null,NA,NA,NA,NA,sub32
d3-animate-choice,42,288630,0.0-42.0,FALSE,FALSE,TRUE,FALSE,"""event"",""trial"",""time""
""fullscreenenter"",""5"",""25484""
","
","
","""event"",""trial"",""time""
""fullscreenenter"",""5"",""25484""
","
",695.4350000000559,NA,48,NA,NA,3000,1,NA,NA,images/tutgreenplanet.jpg,images/tutalien1,images/tutalien2,null,images/tutalien1,images/t.png,NA,practice,null,NA,NA,NA,NA,sub32
d3-animate-choice,43,290956,0.0-43.0,FALSE,FALSE,TRUE,FALSE,"""event"",""trial"",""time""
""fullscreenenter"",""5"",""25484""
","
","
","""event"",""trial"",""time""
""fullscreenenter"",""5"",""25484""
","
",316.69000000011874,NA,48,NA,NA,3000,1,NA,NA,images/tutgreenplanet.jpg,images/tutalien1,images/tutalien2,null,images/tutalien1,images/nothing.png,NA,practice,null,NA,NA,NA,NA,sub32
d3-instructions,44,303723,0.0-44.0,FALSE,FALSE,TRUE,FALSE,"""event"",""trial"",""time""
""fullscreenenter"",""5"",""25484""
","
","
","""event"",""trial"",""time""
""fullscreenenter"",""5"",""25484""
","
",NA,NA,NA,NA,NA,NA,NA,NA,NA,NA,NA,NA,NA,NA,NA,NA,NA,NA,NA,NA,NA,NA,sub32
d3-instructions,45,309899,0.0-45.0,FALSE,FALSE,TRUE,FALSE,"""event"",""trial"",""time""
""fullscreenenter"",""5"",""25484""
","
","
","""event"",""trial"",""time""
""fullscreenenter"",""5"",""25484""
","
",NA,NA,NA,NA,NA,NA,NA,NA,NA,NA,NA,NA,NA,NA,NA,NA,NA,NA,NA,NA,NA,NA,sub32
d3-instructions,46,315277,0.0-46.0,FALSE,FALSE,TRUE,FALSE,"""event"",""trial"",""time""
""fullscreenenter"",""5"",""25484""
","
","
","""event"",""trial"",""time""
""fullscreenenter"",""5"",""25484""
","
",NA,NA,NA,NA,NA,NA,NA,NA,NA,NA,NA,NA,NA,NA,NA,NA,NA,NA,NA,NA,NA,NA,sub32
d3-instructions,47,332487,0.0-47.0,FALSE,FALSE,TRUE,FALSE,"""event"",""trial"",""time""
""fullscreenenter"",""5"",""25484""
","
","
","""event"",""trial"",""time""
""fullscreenenter"",""5"",""25484""
","
",NA,NA,NA,NA,NA,NA,NA,NA,NA,NA,NA,NA,NA,NA,NA,NA,NA,NA,NA,NA,NA,NA,sub32
d3-instructions,48,341539,0.0-48.0,FALSE,FALSE,TRUE,FALSE,"""event"",""trial"",""time""
""fullscreenenter"",""5"",""25484""
","
","
","""event"",""trial"",""time""
""fullscreenenter"",""5"",""25484""
","
",NA,NA,NA,NA,NA,NA,NA,NA,NA,NA,NA,NA,NA,NA,NA,NA,NA,NA,NA,NA,NA,NA,sub32
d3-instructions,49,356335,0.0-49.0,FALSE,FALSE,TRUE,FALSE,"""event"",""trial"",""time""
""fullscreenenter"",""5"",""25484""
","
","
","""event"",""trial"",""time""
""fullscreenenter"",""5"",""25484""
","
",NA,NA,NA,NA,NA,NA,NA,NA,NA,NA,NA,NA,NA,NA,NA,NA,NA,NA,NA,NA,NA,NA,sub32
d3-instructions,50,372878,0.0-50.0,FALSE,FALSE,TRUE,FALSE,"""event"",""trial"",""time""
""fullscreenenter"",""5"",""25484""
","
","
","""event"",""trial"",""time""
""fullscreenenter"",""5"",""25484""
","
",NA,NA,NA,NA,NA,NA,NA,NA,NA,NA,NA,NA,NA,NA,NA,NA,NA,NA,NA,NA,NA,NA,sub32
d3-instructions,51,376321,0.0-51.0,FALSE,FALSE,TRUE,FALSE,"""event"",""trial"",""time""
""fullscreenenter"",""5"",""25484""
","
","
","""event"",""trial"",""time""
""fullscreenenter"",""5"",""25484""
","
",NA,NA,NA,NA,NA,NA,NA,NA,NA,NA,NA,NA,NA,NA,NA,NA,NA,NA,NA,NA,NA,NA,sub32
d3-instructions,52,379221,0.0-52.0,FALSE,FALSE,TRUE,FALSE,"""event"",""trial"",""time""
""fullscreenenter"",""5"",""25484""
","
","
","""event"",""trial"",""time""
""fullscreenenter"",""5"",""25484""
","
",NA,NA,NA,NA,NA,NA,NA,NA,NA,NA,NA,NA,NA,NA,NA,NA,NA,NA,NA,NA,NA,NA,sub32
d3-instructions,53,391585,0.0-53.0,FALSE,FALSE,TRUE,FALSE,"""event"",""trial"",""time""
""fullscreenenter"",""5"",""25484""
","
","
","""event"",""trial"",""time""
""fullscreenenter"",""5"",""25484""
","
",NA,NA,NA,NA,NA,NA,NA,NA,NA,NA,NA,NA,NA,NA,NA,NA,NA,NA,NA,NA,NA,NA,sub32
d3-instructions,54,407215,0.0-54.0,FALSE,FALSE,TRUE,FALSE,"""event"",""trial"",""time""
""fullscreenenter"",""5"",""25484""
","
","
","""event"",""trial"",""time""
""fullscreenenter"",""5"",""25484""
","
",NA,NA,NA,NA,NA,NA,NA,NA,NA,NA,NA,NA,NA,NA,NA,NA,NA,NA,NA,NA,NA,NA,sub32
d3-instructions,55,423542,0.0-55.0,FALSE,FALSE,TRUE,FALSE,"""event"",""trial"",""time""
""fullscreenenter"",""5"",""25484""
","
","
","""event"",""trial"",""time""
""fullscreenenter"",""5"",""25484""
","
",NA,NA,NA,NA,NA,NA,NA,NA,NA,NA,NA,NA,NA,NA,NA,NA,NA,NA,NA,NA,NA,NA,sub32
d3-instructions,56,432340,0.0-56.0,FALSE,FALSE,TRUE,FALSE,"""event"",""trial"",""time""
""fullscreenenter"",""5"",""25484""
","
","
","""event"",""trial"",""time""
""fullscreenenter"",""5"",""25484""
","
",NA,NA,NA,NA,NA,NA,NA,NA,NA,NA,NA,NA,NA,NA,NA,NA,NA,NA,NA,NA,NA,NA,sub32
d3-instructions,57,443229,0.0-57.0,FALSE,FALSE,TRUE,FALSE,"""event"",""trial"",""time""
""fullscreenenter"",""5"",""25484""
","
","
","""event"",""trial"",""time""
""fullscreenenter"",""5"",""25484""
","
",NA,NA,NA,NA,NA,NA,NA,NA,NA,NA,NA,NA,NA,NA,NA,NA,NA,NA,NA,NA,NA,NA,sub32
d3-instructions,58,454325,0.0-58.0,FALSE,FALSE,TRUE,FALSE,"""event"",""trial"",""time""
""fullscreenenter"",""5"",""25484""
","
","
","""event"",""trial"",""time""
""fullscreenenter"",""5"",""25484""
","
",NA,NA,NA,NA,NA,NA,NA,NA,NA,NA,NA,NA,NA,NA,NA,NA,NA,NA,NA,NA,NA,NA,sub32
d3-instructions,59,460764,0.0-59.0,FALSE,FALSE,TRUE,FALSE,"""event"",""trial"",""time""
""fullscreenenter"",""5"",""25484""
","
","
","""event"",""trial"",""time""
""fullscreenenter"",""5"",""25484""
","
",NA,NA,NA,NA,NA,NA,NA,NA,NA,NA,NA,NA,NA,NA,NA,NA,NA,NA,NA,NA,NA,NA,sub32
d3-instructions,60,467384,0.0-60.0,FALSE,FALSE,TRUE,FALSE,"""event"",""trial"",""time""
""fullscreenenter"",""5"",""25484""
","
","
","""event"",""trial"",""time""
""fullscreenenter"",""5"",""25484""
","
",NA,NA,NA,NA,NA,NA,NA,NA,NA,NA,NA,NA,NA,NA,NA,NA,NA,NA,NA,NA,NA,NA,sub32
d3-animate-choice,61,470116,0.0-61.0-0.0,FALSE,FALSE,TRUE,FALSE,"""event"",""trial"",""time""
""fullscreenenter"",""5"",""25484""
","
","
","""event"",""trial"",""time""
""fullscreenenter"",""5"",""25484""
","
",719.8700000003446,NA,49,NA,NA,3000,1,NA,NA,images/earth.jpg,images/tutrocket1,images/tutrocket2,null,images/tutrocket2,NA,1,practice,null,1,NA,NA,NA,sub32
d3-animate-choice,62,472863,0.0-61.0-1.0,FALSE,FALSE,TRUE,FALSE,"""event"",""trial"",""time""
""fullscreenenter"",""5"",""25484""
","
","
","""event"",""trial"",""time""
""fullscreenenter"",""5"",""25484""
","
",728.5400000000955,NA,48,NA,NA,3000,1,NA,NA,images/tutgreenplanet.jpg,images/tutalien2,images/tutalien1,images/tutrocket2,images/tutalien2,images/nothing.png,2,practice,true,2,common,0,2020-06-28T00:57:18Z,sub32
two-step-fixation,63,473880,0.0-61.0-2.0,FALSE,FALSE,TRUE,FALSE,"""event"",""trial"",""time""
""fullscreenenter"",""5"",""25484""
","
","
","""event"",""trial"",""time""
""fullscreenenter"",""5"",""25484""
","
",NA,images/earth.jpg,NA,NA,NA,NA,NA,NA,NA,NA,NA,NA,NA,NA,NA,fixation,NA,NA,NA,NA,NA,NA,sub32
d3-animate-choice,64,476230,0.0-61.0-0.1,FALSE,FALSE,TRUE,FALSE,"""event"",""trial"",""time""
""fullscreenenter"",""5"",""25484""
","
","
","""event"",""trial"",""time""
""fullscreenenter"",""5"",""25484""
","
",342.04500000033295,NA,49,NA,NA,3000,1,NA,NA,images/earth.jpg,images/tutrocket1,images/tutrocket2,null,images/tutrocket2,NA,1,practice,null,1,NA,NA,NA,sub32
d3-animate-choice,65,478622,0.0-61.0-1.1,FALSE,FALSE,TRUE,FALSE,"""event"",""trial"",""time""
""fullscreenenter"",""5"",""25484""
","
","
","""event"",""trial"",""time""
""fullscreenenter"",""5"",""25484""
","
",380.784999999858,NA,49,NA,NA,3000,1,NA,NA,images/tutyellowplanet.jpg,images/tutalien4,images/tutalien3,images/tutrocket2,images/tutalien3,images/nothing.png,2,practice,false,1,rare,0,2020-06-28T00:57:24Z,sub32
two-step-fixation,66,479632,0.0-61.0-2.1,FALSE,FALSE,TRUE,FALSE,"""event"",""trial"",""time""
""fullscreenenter"",""5"",""25484""
","
","
","""event"",""trial"",""time""
""fullscreenenter"",""5"",""25484""
","
",NA,images/earth.jpg,NA,NA,NA,NA,NA,NA,NA,NA,NA,NA,NA,NA,NA,fixation,NA,NA,NA,NA,NA,NA,sub32
d3-animate-choice,67,481957,0.0-61.0-0.2,FALSE,FALSE,TRUE,FALSE,"""event"",""trial"",""time""
""fullscreenenter"",""5"",""25484""
","
","
","""event"",""trial"",""time""
""fullscreenenter"",""5"",""25484""
","
",314.4749999996857,NA,49,NA,NA,3000,1,NA,NA,images/earth.jpg,images/tutrocket1,images/tutrocket2,null,images/tutrocket2,NA,1,practice,null,1,NA,NA,NA,sub32
d3-animate-choice,68,484448,0.0-61.0-1.2,FALSE,FALSE,TRUE,FALSE,"""event"",""trial"",""time""
""fullscreenenter"",""5"",""25484""
","
","
","""event"",""trial"",""time""
""fullscreenenter"",""5"",""25484""
","
",480.00499999988824,NA,49,NA,NA,3000,1,NA,NA,images/tutyellowplanet.jpg,images/tutalien4,images/tutalien3,images/tutrocket2,images/tutalien3,images/nothing.png,2,practice,false,1,rare,0,2020-06-28T00:57:30Z,sub32
two-step-fixation,69,485457,0.0-61.0-2.2,FALSE,FALSE,TRUE,FALSE,"""event"",""trial"",""time""
""fullscreenenter"",""5"",""25484""
","
","
","""event"",""trial"",""time""
""fullscreenenter"",""5"",""25484""
","
",NA,images/earth.jpg,NA,NA,NA,NA,NA,NA,NA,NA,NA,NA,NA,NA,NA,fixation,NA,NA,NA,NA,NA,NA,sub32
d3-animate-choice,70,488616,0.0-61.0-0.3,FALSE,FALSE,TRUE,FALSE,"""event"",""trial"",""time""
""fullscreenenter"",""5"",""25484""
","
","
","""event"",""trial"",""time""
""fullscreenenter"",""5"",""25484""
","
",1149.6099999999278,NA,48,NA,NA,3000,1,NA,NA,images/earth.jpg,images/tutrocket1,images/tutrocket2,null,images/tutrocket1,NA,1,practice,null,2,NA,NA,NA,sub32
d3-animate-choice,71,491360,0.0-61.0-1.3,FALSE,FALSE,TRUE,FALSE,"""event"",""trial"",""time""
""fullscreenenter"",""5"",""25484""
","
","
","""event"",""trial"",""time""
""fullscreenenter"",""5"",""25484""
","
",729.5699999999488,NA,48,NA,NA,3000,1,NA,NA,images/tutgreenplanet.jpg,images/tutalien2,images/tutalien1,images/tutrocket1,images/tutalien2,images/nothing.png,2,practice,false,2,rare,0,2020-06-28T00:57:36Z,sub32
two-step-fixation,72,492371,0.0-61.0-2.3,FALSE,FALSE,TRUE,FALSE,"""event"",""trial"",""time""
""fullscreenenter"",""5"",""25484""
","
","
","""event"",""trial"",""time""
""fullscreenenter"",""5"",""25484""
","
",NA,images/earth.jpg,NA,NA,NA,NA,NA,NA,NA,NA,NA,NA,NA,NA,NA,fixation,NA,NA,NA,NA,NA,NA,sub32
d3-animate-choice,73,495140,0.0-61.0-0.4,FALSE,FALSE,TRUE,FALSE,"""event"",""trial"",""time""
""fullscreenenter"",""5"",""25484""
","
","
","""event"",""trial"",""time""
""fullscreenenter"",""5"",""25484""
","
",759.6650000000373,NA,48,NA,NA,3000,1,NA,NA,images/earth.jpg,images/tutrocket1,images/tutrocket2,null,images/tutrocket1,NA,1,practice,null,2,NA,NA,NA,sub32
d3-animate-choice,74,498140,0.0-61.0-1.4,FALSE,FALSE,TRUE,FALSE,"""event"",""trial"",""time""
""fullscreenenter"",""5"",""25484""
","
","
","""event"",""trial"",""time""
""fullscreenenter"",""5"",""25484""
","
",988.7000000003609,NA,49,NA,NA,3000,1,NA,NA,images/tutgreenplanet.jpg,images/tutalien2,images/tutalien1,images/tutrocket1,images/tutalien1,images/nothing.png,2,practice,false,1,rare,0,2020-06-28T00:57:43Z,sub32
two-step-fixation,75,499148,0.0-61.0-2.4,FALSE,FALSE,TRUE,FALSE,"""event"",""trial"",""time""
""fullscreenenter"",""5"",""25484""
","
","
","""event"",""trial"",""time""
""fullscreenenter"",""5"",""25484""
","
",NA,images/earth.jpg,NA,NA,NA,NA,NA,NA,NA,NA,NA,NA,NA,NA,NA,fixation,NA,NA,NA,NA,NA,NA,sub32
d3-animate-choice,76,501574,0.0-61.0-0.5,FALSE,FALSE,TRUE,FALSE,"""event"",""trial"",""time""
""fullscreenenter"",""5"",""25484""
","
","
","""event"",""trial"",""time""
""fullscreenenter"",""5"",""25484""
","
",415.179999999993,NA,48,NA,NA,3000,1,NA,NA,images/earth.jpg,images/tutrocket1,images/tutrocket2,null,images/tutrocket1,NA,1,practice,null,2,NA,NA,NA,sub32
d3-animate-choice,77,503922,0.0-61.0-1.5,FALSE,FALSE,TRUE,FALSE,"""event"",""trial"",""time""
""fullscreenenter"",""5"",""25484""
","
","
","""event"",""trial"",""time""
""fullscreenenter"",""5"",""25484""
","
",336.87500000040745,NA,48,NA,NA,3000,1,NA,NA,images/tutgreenplanet.jpg,images/tutalien2,images/tutalien1,images/tutrocket1,images/tutalien2,images/nothing.png,2,practice,false,2,rare,0,2020-06-28T00:57:49Z,sub32
two-step-fixation,78,504931,0.0-61.0-2.5,FALSE,FALSE,TRUE,FALSE,"""event"",""trial"",""time""
""fullscreenenter"",""5"",""25484""
","
","
","""event"",""trial"",""time""
""fullscreenenter"",""5"",""25484""
","
",NA,images/earth.jpg,NA,NA,NA,NA,NA,NA,NA,NA,NA,NA,NA,NA,NA,fixation,NA,NA,NA,NA,NA,NA,sub32
d3-animate-choice,79,507385,0.0-61.0-0.6,FALSE,FALSE,TRUE,FALSE,"""event"",""trial"",""time""
""fullscreenenter"",""5"",""25484""
","
","
","""event"",""trial"",""time""
""fullscreenenter"",""5"",""25484""
","
",445.64999999967404,NA,48,NA,NA,3000,1,NA,NA,images/earth.jpg,images/tutrocket1,images/tutrocket2,null,images/tutrocket1,NA,1,practice,null,2,NA,NA,NA,sub32
d3-animate-choice,80,509757,0.0-61.0-1.6,FALSE,FALSE,TRUE,FALSE,"""event"",""trial"",""time""
""fullscreenenter"",""5"",""25484""
","
","
","""event"",""trial"",""time""
""fullscreenenter"",""5"",""25484""
","
",361.7099999996717,NA,48,NA,NA,3000,1,NA,NA,images/tutyellowplanet.jpg,images/tutalien4,images/tutalien3,images/tutrocket1,images/tutalien4,images/t.png,2,practice,true,2,common,1,2020-06-28T00:57:55Z,sub32
two-step-fixation,81,510766,0.0-61.0-2.6,FALSE,FALSE,TRUE,FALSE,"""event"",""trial"",""time""
""fullscreenenter"",""5"",""25484""
","
","
","""event"",""trial"",""time""
""fullscreenenter"",""5"",""25484""
","
",NA,images/earth.jpg,NA,NA,NA,NA,NA,NA,NA,NA,NA,NA,NA,NA,NA,fixation,NA,NA,NA,NA,NA,NA,sub32
d3-animate-choice,82,513123,0.0-61.0-0.7,FALSE,FALSE,TRUE,FALSE,"""event"",""trial"",""time""
""fullscreenenter"",""5"",""25484""
","
","
","""event"",""trial"",""time""
""fullscreenenter"",""5"",""25484""
","
",348.52499999984866,NA,49,NA,NA,3000,1,NA,NA,images/earth.jpg,images/tutrocket1,images/tutrocket2,null,images/tutrocket2,NA,1,practice,null,1,NA,NA,NA,sub32
d3-animate-choice,83,515484,0.0-61.0-1.7,FALSE,FALSE,TRUE,FALSE,"""event"",""trial"",""time""
""fullscreenenter"",""5"",""25484""
","
","
","""event"",""trial"",""time""
""fullscreenenter"",""5"",""25484""
","
",350.9749999998021,NA,48,NA,NA,3000,1,NA,NA,images/tutyellowplanet.jpg,images/tutalien4,images/tutalien3,images/tutrocket2,images/tutalien4,images/t.png,2,practice,false,2,rare,1,2020-06-28T00:58:01Z,sub32
two-step-fixation,84,516492,0.0-61.0-2.7,FALSE,FALSE,TRUE,FALSE,"""event"",""trial"",""time""
""fullscreenenter"",""5"",""25484""
","
","
","""event"",""trial"",""time""
""fullscreenenter"",""5"",""25484""
","
",NA,images/earth.jpg,NA,NA,NA,NA,NA,NA,NA,NA,NA,NA,NA,NA,NA,fixation,NA,NA,NA,NA,NA,NA,sub32
d3-animate-choice,85,518977,0.0-61.0-0.8,FALSE,FALSE,TRUE,FALSE,"""event"",""trial"",""time""
""fullscreenenter"",""5"",""25484""
","
","
","""event"",""trial"",""time""
""fullscreenenter"",""5"",""25484""
","
",476.1099999996368,NA,49,NA,NA,3000,1,NA,NA,images/earth.jpg,images/tutrocket1,images/tutrocket2,null,images/tutrocket2,NA,1,practice,null,1,NA,NA,NA,sub32
d3-animate-choice,86,522250,0.0-61.0-1.8,FALSE,FALSE,TRUE,FALSE,"""event"",""trial"",""time""
""fullscreenenter"",""5"",""25484""
","
","
","""event"",""trial"",""time""
""fullscreenenter"",""5"",""25484""
","
",1263.010000000184,NA,49,NA,NA,3000,1,NA,NA,images/tutgreenplanet.jpg,images/tutalien2,images/tutalien1,images/tutrocket2,images/tutalien1,images/nothing.png,2,practice,true,1,common,0,2020-06-28T00:58:07Z,sub32
two-step-fixation,87,523261,0.0-61.0-2.8,FALSE,FALSE,TRUE,FALSE,"""event"",""trial"",""time""
""fullscreenenter"",""5"",""25484""
","
","
","""event"",""trial"",""time""
""fullscreenenter"",""5"",""25484""
","
",NA,images/earth.jpg,NA,NA,NA,NA,NA,NA,NA,NA,NA,NA,NA,NA,NA,fixation,NA,NA,NA,NA,NA,NA,sub32
d3-animate-choice,88,525533,0.0-61.0-0.9,FALSE,FALSE,TRUE,FALSE,"""event"",""trial"",""time""
""fullscreenenter"",""5"",""25484""
","
","
","""event"",""trial"",""time""
""fullscreenenter"",""5"",""25484""
","
",261.38500000024214,NA,49,NA,NA,3000,1,NA,NA,images/earth.jpg,images/tutrocket1,images/tutrocket2,null,images/tutrocket2,NA,1,practice,null,1,NA,NA,NA,sub32
d3-animate-choice,89,528229,0.0-61.0-1.9,FALSE,FALSE,TRUE,FALSE,"""event"",""trial"",""time""
""fullscreenenter"",""5"",""25484""
","
","
","""event"",""trial"",""time""
""fullscreenenter"",""5"",""25484""
","
",686.4449999998324,NA,48,NA,NA,3000,1,NA,NA,images/tutgreenplanet.jpg,images/tutalien2,images/tutalien1,images/tutrocket2,images/tutalien2,images/nothing.png,2,practice,true,2,common,0,2020-06-28T00:58:13Z,sub32
two-step-fixation,90,529239,0.0-61.0-2.9,FALSE,FALSE,TRUE,FALSE,"""event"",""trial"",""time""
""fullscreenenter"",""5"",""25484""
","
","
","""event"",""trial"",""time""
""fullscreenenter"",""5"",""25484""
","
",NA,images/earth.jpg,NA,NA,NA,NA,NA,NA,NA,NA,NA,NA,NA,NA,NA,fixation,NA,NA,NA,NA,NA,NA,sub32
d3-animate-choice,91,531932,0.0-61.0-0.10,FALSE,FALSE,TRUE,FALSE,"""event"",""trial"",""time""
""fullscreenenter"",""5"",""25484""
","
","
","""event"",""trial"",""time""
""fullscreenenter"",""5"",""25484""
","
",682.7949999996927,NA,48,NA,NA,3000,1,NA,NA,images/earth.jpg,images/tutrocket1,images/tutrocket2,null,images/tutrocket1,NA,1,practice,null,2,NA,NA,NA,sub32
d3-animate-choice,92,534775,0.0-61.0-1.10,FALSE,FALSE,TRUE,FALSE,"""event"",""trial"",""time""
""fullscreenenter"",""5"",""25484""
","
","
","""event"",""trial"",""time""
""fullscreenenter"",""5"",""25484""
","
",832.1499999997905,NA,48,NA,NA,3000,1,NA,NA,images/tutyellowplanet.jpg,images/tutalien4,images/tutalien3,images/tutrocket1,images/tutalien4,images/t.png,2,practice,true,2,common,1,2020-06-28T00:58:20Z,sub32
two-step-fixation,93,535783,0.0-61.0-2.10,FALSE,FALSE,TRUE,FALSE,"""event"",""trial"",""time""
""fullscreenenter"",""5"",""25484""
","
","
","""event"",""trial"",""time""
""fullscreenenter"",""5"",""25484""
","
",NA,images/earth.jpg,NA,NA,NA,NA,NA,NA,NA,NA,NA,NA,NA,NA,NA,fixation,NA,NA,NA,NA,NA,NA,sub32
d3-animate-choice,94,538295,0.0-61.0-0.11,FALSE,FALSE,TRUE,FALSE,"""event"",""trial"",""time""
""fullscreenenter"",""5"",""25484""
","
","
","""event"",""trial"",""time""
""fullscreenenter"",""5"",""25484""
","
",502.63000000000466,NA,49,NA,NA,3000,1,NA,NA,images/earth.jpg,images/tutrocket1,images/tutrocket2,null,images/tutrocket2,NA,1,practice,null,1,NA,NA,NA,sub32
d3-animate-choice,95,541918,0.0-61.0-1.11,FALSE,FALSE,TRUE,FALSE,"""event"",""trial"",""time""
""fullscreenenter"",""5"",""25484""
","
","
","""event"",""trial"",""time""
""fullscreenenter"",""5"",""25484""
","
",1611.4499999999534,NA,48,NA,NA,3000,1,2911.57500000007,48,images/tutgreenplanet.jpg,images/tutalien2,images/tutalien1,images/tutrocket2,images/tutalien2,images/nothing.png,2,practice,true,2,common,0,2020-06-28T00:58:27Z,sub32
two-step-fixation,96,542927,0.0-61.0-2.11,FALSE,FALSE,TRUE,FALSE,"""event"",""trial"",""time""
""fullscreenenter"",""5"",""25484""
","
","
","""event"",""trial"",""time""
""fullscreenenter"",""5"",""25484""
","
",NA,images/earth.jpg,NA,NA,NA,NA,NA,NA,NA,NA,NA,NA,NA,NA,NA,fixation,NA,NA,NA,NA,NA,NA,sub32
d3-animate-choice,97,545620,0.0-61.0-0.12,FALSE,FALSE,TRUE,FALSE,"""event"",""trial"",""time""
""fullscreenenter"",""5"",""25484""
","
","
","""event"",""trial"",""time""
""fullscreenenter"",""5"",""25484""
","
",685.0799999997253,NA,48,NA,NA,3000,1,NA,NA,images/earth.jpg,images/tutrocket1,images/tutrocket2,null,images/tutrocket1,NA,1,practice,null,2,NA,NA,NA,sub32
d3-animate-choice,98,548709,0.0-61.0-1.12,FALSE,FALSE,TRUE,FALSE,"""event"",""trial"",""time""
""fullscreenenter"",""5"",""25484""
","
","
","""event"",""trial"",""time""
""fullscreenenter"",""5"",""25484""
","
",1077.8150000000605,NA,48,NA,NA,3000,1,NA,NA,images/tutyellowplanet.jpg,images/tutalien4,images/tutalien3,images/tutrocket1,images/tutalien4,images/nothing.png,2,practice,true,2,common,0,2020-06-28T00:58:34Z,sub32
two-step-fixation,99,549719,0.0-61.0-2.12,FALSE,FALSE,TRUE,FALSE,"""event"",""trial"",""time""
""fullscreenenter"",""5"",""25484""
","
","
","""event"",""trial"",""time""
""fullscreenenter"",""5"",""25484""
","
",NA,images/earth.jpg,NA,NA,NA,NA,NA,NA,NA,NA,NA,NA,NA,NA,NA,fixation,NA,NA,NA,NA,NA,NA,sub32
d3-animate-choice,100,552228,0.0-61.0-0.13,FALSE,FALSE,TRUE,FALSE,"""event"",""trial"",""time""
""fullscreenenter"",""5"",""25484""
","
","
","""event"",""trial"",""time""
""fullscreenenter"",""5"",""25484""
","
",498.7750000000233,NA,48,NA,NA,3000,1,NA,NA,images/earth.jpg,images/tutrocket1,images/tutrocket2,null,images/tutrocket1,NA,1,practice,null,2,NA,NA,NA,sub32
d3-animate-choice,101,554759,0.0-61.0-1.13,FALSE,FALSE,TRUE,FALSE,"""event"",""trial"",""time""
""fullscreenenter"",""5"",""25484""
","
","
","""event"",""trial"",""time""
""fullscreenenter"",""5"",""25484""
","
",520.3649999998743,NA,48,NA,NA,3000,1,NA,NA,images/tutgreenplanet.jpg,images/tutalien2,images/tutalien1,images/tutrocket1,images/tutalien2,images/t.png,2,practice,false,2,rare,1,2020-06-28T00:58:40Z,sub32
two-step-fixation,102,555767,0.0-61.0-2.13,FALSE,FALSE,TRUE,FALSE,"""event"",""trial"",""time""
""fullscreenenter"",""5"",""25484""
","
","
","""event"",""trial"",""time""
""fullscreenenter"",""5"",""25484""
","
",NA,images/earth.jpg,NA,NA,NA,NA,NA,NA,NA,NA,NA,NA,NA,NA,NA,fixation,NA,NA,NA,NA,NA,NA,sub32
d3-animate-choice,103,558485,0.0-61.0-0.14,FALSE,FALSE,TRUE,FALSE,"""event"",""trial"",""time""
""fullscreenenter"",""5"",""25484""
","
","
","""event"",""trial"",""time""
""fullscreenenter"",""5"",""25484""
","
",708.3150000002934,NA,48,NA,NA,3000,1,NA,NA,images/earth.jpg,images/tutrocket1,images/tutrocket2,null,images/tutrocket1,NA,1,practice,null,2,NA,NA,NA,sub32
d3-animate-choice,104,561122,0.0-61.0-1.14,FALSE,FALSE,TRUE,FALSE,"""event"",""trial"",""time""
""fullscreenenter"",""5"",""25484""
","
","
","""event"",""trial"",""time""
""fullscreenenter"",""5"",""25484""
","
",627.3249999999534,NA,48,NA,NA,3000,1,NA,NA,images/tutyellowplanet.jpg,images/tutalien4,images/tutalien3,images/tutrocket1,images/tutalien4,images/nothing.png,2,practice,true,2,common,0,2020-06-28T00:58:46Z,sub32
two-step-fixation,105,562131,0.0-61.0-2.14,FALSE,FALSE,TRUE,FALSE,"""event"",""trial"",""time""
""fullscreenenter"",""5"",""25484""
","
","
","""event"",""trial"",""time""
""fullscreenenter"",""5"",""25484""
","
",NA,images/earth.jpg,NA,NA,NA,NA,NA,NA,NA,NA,NA,NA,NA,NA,NA,fixation,NA,NA,NA,NA,NA,NA,sub32
d3-animate-choice,106,564447,0.0-61.0-0.15,FALSE,FALSE,TRUE,FALSE,"""event"",""trial"",""time""
""fullscreenenter"",""5"",""25484""
","
","
","""event"",""trial"",""time""
""fullscreenenter"",""5"",""25484""
","
",306.11500000033993,NA,48,NA,NA,3000,1,NA,NA,images/earth.jpg,images/tutrocket1,images/tutrocket2,null,images/tutrocket1,NA,1,practice,null,2,NA,NA,NA,sub32
d3-animate-choice,107,566813,0.0-61.0-1.15,FALSE,FALSE,TRUE,FALSE,"""event"",""trial"",""time""
""fullscreenenter"",""5"",""25484""
","
","
","""event"",""trial"",""time""
""fullscreenenter"",""5"",""25484""
","
",355.75000000023283,NA,49,NA,NA,3000,1,NA,NA,images/tutyellowplanet.jpg,images/tutalien4,images/tutalien3,images/tutrocket1,images/tutalien3,images/nothing.png,2,practice,true,1,common,0,2020-06-28T00:58:52Z,sub32
two-step-fixation,108,567821,0.0-61.0-2.15,FALSE,FALSE,TRUE,FALSE,"""event"",""trial"",""time""
""fullscreenenter"",""5"",""25484""
","
","
","""event"",""trial"",""time""
""fullscreenenter"",""5"",""25484""
","
",NA,images/earth.jpg,NA,NA,NA,NA,NA,NA,NA,NA,NA,NA,NA,NA,NA,fixation,NA,NA,NA,NA,NA,NA,sub32
d3-animate-choice,109,570143,0.0-61.0-0.16,FALSE,FALSE,TRUE,FALSE,"""event"",""trial"",""time""
""fullscreenenter"",""5"",""25484""
","
","
","""event"",""trial"",""time""
""fullscreenenter"",""5"",""25484""
","
",312.1300000003539,NA,49,NA,NA,3000,1,NA,NA,images/earth.jpg,images/tutrocket1,images/tutrocket2,null,images/tutrocket2,NA,1,practice,null,1,NA,NA,NA,sub32
d3-animate-choice,110,572645,0.0-61.0-1.16,FALSE,FALSE,TRUE,FALSE,"""event"",""trial"",""time""
""fullscreenenter"",""5"",""25484""
","
","
","""event"",""trial"",""time""
""fullscreenenter"",""5"",""25484""
","
",495.8349999997299,NA,49,NA,NA,3000,1,NA,NA,images/tutgreenplanet.jpg,images/tutalien2,images/tutalien1,images/tutrocket2,images/tutalien1,images/t.png,2,practice,true,1,common,1,2020-06-28T00:58:58Z,sub32
two-step-fixation,111,573654,0.0-61.0-2.16,FALSE,FALSE,TRUE,FALSE,"""event"",""trial"",""time""
""fullscreenenter"",""5"",""25484""
","
","
","""event"",""trial"",""time""
""fullscreenenter"",""5"",""25484""
","
",NA,images/earth.jpg,NA,NA,NA,NA,NA,NA,NA,NA,NA,NA,NA,NA,NA,fixation,NA,NA,NA,NA,NA,NA,sub32
d3-animate-choice,112,576063,0.0-61.0-0.17,FALSE,FALSE,TRUE,FALSE,"""event"",""trial"",""time""
""fullscreenenter"",""5"",""25484""
","
","
","""event"",""trial"",""time""
""fullscreenenter"",""5"",""25484""
","
",398.63999999989755,NA,49,NA,NA,3000,1,NA,NA,images/earth.jpg,images/tutrocket1,images/tutrocket2,null,images/tutrocket2,NA,1,practice,null,1,NA,NA,NA,sub32
d3-animate-choice,113,578550,0.0-61.0-1.17,FALSE,FALSE,TRUE,FALSE,"""event"",""trial"",""time""
""fullscreenenter"",""5"",""25484""
","
","
","""event"",""trial"",""time""
""fullscreenenter"",""5"",""25484""
","
",476.7550000001211,NA,48,NA,NA,3000,1,NA,NA,images/tutgreenplanet.jpg,images/tutalien2,images/tutalien1,images/tutrocket2,images/tutalien2,images/nothing.png,2,practice,true,2,common,0,2020-06-28T00:59:04Z,sub32
two-step-fixation,114,579559,0.0-61.0-2.17,FALSE,FALSE,TRUE,FALSE,"""event"",""trial"",""time""
""fullscreenenter"",""5"",""25484""
","
","
","""event"",""trial"",""time""
""fullscreenenter"",""5"",""25484""
","
",NA,images/earth.jpg,NA,NA,NA,NA,NA,NA,NA,NA,NA,NA,NA,NA,NA,fixation,NA,NA,NA,NA,NA,NA,sub32
d3-animate-choice,115,581949,0.0-61.0-0.18,FALSE,FALSE,TRUE,FALSE,"""event"",""trial"",""time""
""fullscreenenter"",""5"",""25484""
","
","
","""event"",""trial"",""time""
""fullscreenenter"",""5"",""25484""
","
",380.11499999987427,NA,49,NA,NA,3000,1,NA,NA,images/earth.jpg,images/tutrocket1,images/tutrocket2,null,images/tutrocket2,NA,1,practice,null,1,NA,NA,NA,sub32
d3-animate-choice,116,584283,0.0-61.0-1.18,FALSE,FALSE,TRUE,FALSE,"""event"",""trial"",""time""
""fullscreenenter"",""5"",""25484""
","
","
","""event"",""trial"",""time""
""fullscreenenter"",""5"",""25484""
","
",322.4199999999255,NA,48,NA,NA,3000,1,NA,NA,images/tutgreenplanet.jpg,images/tutalien2,images/tutalien1,images/tutrocket2,images/tutalien2,images/nothing.png,2,practice,true,2,common,0,2020-06-28T00:59:09Z,sub32
two-step-fixation,117,585291,0.0-61.0-2.18,FALSE,FALSE,TRUE,FALSE,"""event"",""trial"",""time""
""fullscreenenter"",""5"",""25484""
","
","
","""event"",""trial"",""time""
""fullscreenenter"",""5"",""25484""
","
",NA,images/earth.jpg,NA,NA,NA,NA,NA,NA,NA,NA,NA,NA,NA,NA,NA,fixation,NA,NA,NA,NA,NA,NA,sub32
d3-animate-choice,118,588137,0.0-61.0-0.19,FALSE,FALSE,TRUE,FALSE,"""event"",""trial"",""time""
""fullscreenenter"",""5"",""25484""
","
","
","""event"",""trial"",""time""
""fullscreenenter"",""5"",""25484""
","
",837,NA,48,NA,NA,3000,1,NA,NA,images/earth.jpg,images/tutrocket1,images/tutrocket2,null,images/tutrocket1,NA,1,practice,null,2,NA,NA,NA,sub32
d3-animate-choice,119,590635,0.0-61.0-1.19,FALSE,FALSE,TRUE,FALSE,"""event"",""trial"",""time""
""fullscreenenter"",""5"",""25484""
","
","
","""event"",""trial"",""time""
""fullscreenenter"",""5"",""25484""
","
",486.9649999999674,NA,48,NA,NA,3000,1,NA,NA,images/tutyellowplanet.jpg,images/tutalien4,images/tutalien3,images/tutrocket1,images/tutalien4,images/t.png,2,practice,true,2,common,1,2020-06-28T00:59:16Z,sub32
two-step-fixation,120,591643,0.0-61.0-2.19,FALSE,FALSE,TRUE,FALSE,"""event"",""trial"",""time""
""fullscreenenter"",""5"",""25484""
","
","
","""event"",""trial"",""time""
""fullscreenenter"",""5"",""25484""
","
",NA,images/earth.jpg,NA,NA,NA,NA,NA,NA,NA,NA,NA,NA,NA,NA,NA,fixation,NA,NA,NA,NA,NA,NA,sub32
d3-instructions,121,600408,0.0-62.0,FALSE,FALSE,TRUE,FALSE,"""event"",""trial"",""time""
""fullscreenenter"",""5"",""25484""
","
","
","""event"",""trial"",""time""
""fullscreenenter"",""5"",""25484""
","
",NA,NA,NA,NA,NA,NA,NA,NA,NA,NA,NA,NA,NA,NA,NA,NA,NA,NA,NA,NA,NA,NA,sub32
audio-keyboard-response,122,618020,0.0-63.0,FALSE,FALSE,TRUE,FALSE,"""event"",""trial"",""time""
""fullscreenenter"",""5"",""25484""
","
","
","""event"",""trial"",""time""
""fullscreenenter"",""5"",""25484""
","
",17611,audio/instructions/treasure_feedback.wav,32,NA,NA,NA,NA,NA,NA,NA,NA,NA,NA,NA,NA,NA,NA,NA,NA,NA,NA,NA,sub32
d3-instructions,123,637795,0.0-64.0,FALSE,FALSE,TRUE,FALSE,"""event"",""trial"",""time""
""fullscreenenter"",""5"",""25484""
","
","
","""event"",""trial"",""time""
""fullscreenenter"",""5"",""25484""
","
",NA,NA,NA,NA,NA,NA,NA,NA,NA,NA,NA,NA,NA,NA,NA,NA,NA,NA,NA,NA,NA,NA,sub32
d3-instructions,124,653089,0.0-65.0,FALSE,FALSE,TRUE,FALSE,"""event"",""trial"",""time""
""fullscreenenter"",""5"",""25484""
","
","
","""event"",""trial"",""time""
""fullscreenenter"",""5"",""25484""
","
",NA,NA,NA,NA,NA,NA,NA,NA,NA,NA,NA,NA,NA,NA,NA,NA,NA,NA,NA,NA,NA,NA,sub32
d3-instructions,125,682710,0.0-66.0,FALSE,FALSE,TRUE,FALSE,"""event"",""trial"",""time""
""fullscreenenter"",""5"",""25484""
","
","
","""event"",""trial"",""time""
""fullscreenenter"",""5"",""25484""
","
",NA,NA,NA,NA,NA,NA,NA,NA,NA,NA,NA,NA,NA,NA,NA,NA,NA,NA,NA,NA,NA,NA,sub32
d3-instructions,126,700840,0.0-67.0,FALSE,FALSE,TRUE,FALSE,"""event"",""trial"",""time""
""fullscreenenter"",""5"",""25484""
","
","
","""event"",""trial"",""time""
""fullscreenenter"",""5"",""25484""
","
",NA,NA,NA,NA,NA,NA,NA,NA,NA,NA,NA,NA,NA,NA,NA,NA,NA,NA,NA,NA,NA,NA,sub32
d3-instructions,127,710794,0.0-68.0,FALSE,FALSE,TRUE,FALSE,"""event"",""trial"",""time""
""fullscreenenter"",""5"",""25484""
","
","
","""event"",""trial"",""time""
""fullscreenenter"",""5"",""25484""
","
",NA,NA,NA,NA,NA,NA,NA,NA,NA,NA,NA,NA,NA,NA,NA,NA,NA,NA,NA,NA,NA,NA,sub32
instructions-quiz,128,715751,0.0-69.0,FALSE,FALSE,TRUE,FALSE,"""event"",""trial"",""time""
""fullscreenenter"",""5"",""25484""
","
","
","""event"",""trial"",""time""
""fullscreenenter"",""5"",""25484""
","
",4950.140000000014,audio/quiz/Q1_Prompt.wav,NA,1,NA,NA,NA,NA,NA,NA,NA,NA,NA,NA,NA,NA,NA,NA,NA,NA,NA,NA,sub32
audio-keyboard-response,129,724921,0.0-70.0,FALSE,FALSE,TRUE,FALSE,"""event"",""trial"",""time""
""fullscreenenter"",""5"",""25484""
","
","
","""event"",""trial"",""time""
""fullscreenenter"",""5"",""25484""
","
",null,audio/quiz/Q1_Correct.wav,null,NA,NA,NA,NA,NA,NA,NA,NA,NA,NA,NA,NA,NA,NA,NA,NA,NA,NA,NA,sub32
instructions-quiz,130,734255,0.0-71.0,FALSE,FALSE,TRUE,FALSE,"""event"",""trial"",""time""
""fullscreenenter"",""5"",""25484""
","
","
","""event"",""trial"",""time""
""fullscreenenter"",""5"",""25484""
","
",9330.605000000098,audio/quiz/Q2_Prompt.wav,NA,0,NA,NA,NA,NA,NA,NA,NA,NA,NA,NA,NA,NA,NA,NA,NA,NA,NA,NA,sub32
audio-keyboard-response,131,747120,0.0-72.0,FALSE,FALSE,TRUE,FALSE,"""event"",""trial"",""time""
""fullscreenenter"",""5"",""25484""
","
","
","""event"",""trial"",""time""
""fullscreenenter"",""5"",""25484""
","
",null,audio/quiz/Q2_Correct.wav,null,NA,NA,NA,NA,NA,NA,NA,NA,NA,NA,NA,NA,NA,NA,NA,NA,NA,NA,NA,sub32
instructions-quiz,132,752069,0.0-73.0,FALSE,FALSE,TRUE,FALSE,"""event"",""trial"",""time""
""fullscreenenter"",""5"",""25484""
","
","
","""event"",""trial"",""time""
""fullscreenenter"",""5"",""25484""
","
",4945.809999999707,audio/quiz/Q3_Prompt.wav,NA,1,NA,NA,NA,NA,NA,NA,NA,NA,NA,NA,NA,NA,NA,NA,NA,NA,NA,NA,sub32
audio-keyboard-response,133,757870,0.0-74.0,FALSE,FALSE,TRUE,FALSE,"""event"",""trial"",""time""
""fullscreenenter"",""5"",""25484""
","
","
","""event"",""trial"",""time""
""fullscreenenter"",""5"",""25484""
","
",null,audio/quiz/Q3_Correct.wav,null,NA,NA,NA,NA,NA,NA,NA,NA,NA,NA,NA,NA,NA,NA,NA,NA,NA,NA,NA,sub32
d3-instructions,134,773844,0.0-75.0,FALSE,FALSE,TRUE,FALSE,"""event"",""trial"",""time""
""fullscreenenter"",""5"",""25484""
","
","
","""event"",""trial"",""time""
""fullscreenenter"",""5"",""25484""
","
",NA,NA,NA,NA,NA,NA,NA,NA,NA,NA,NA,NA,NA,NA,NA,NA,NA,NA,NA,NA,NA,NA,sub32
d3-animate-choice,135,777678,0.0-76.0-0.0,FALSE,FALSE,TRUE,FALSE,"""event"",""trial"",""time""
""fullscreenenter"",""5"",""25484""
","
","
","""event"",""trial"",""time""
""fullscreenenter"",""5"",""25484""
","
",1822.3600000001024,NA,49,NA,NA,3000,1,NA,NA,images/earth.jpg,images/rocket1,images/rocket2,null,images/rocket2,NA,1,real,null,1,NA,NA,NA,sub32
d3-animate-choice,136,780464,0.0-76.0-1.0,FALSE,FALSE,TRUE,FALSE,"""event"",""trial"",""time""
""fullscreenenter"",""5"",""25484""
","
","
","""event"",""trial"",""time""
""fullscreenenter"",""5"",""25484""
","
",775.729999999865,NA,48,NA,NA,3000,1,NA,NA,images/redplanet1.jpg,images/alien2,images/alien1,images/rocket2,images/alien2,images/t.png,2,real,true,2,common,1,2020-06-28T01:02:26Z,sub32
two-step-fixation,137,781473,0.0-76.0-2.0,FALSE,FALSE,TRUE,FALSE,"""event"",""trial"",""time""
""fullscreenenter"",""5"",""25484""
","
","
","""event"",""trial"",""time""
""fullscreenenter"",""5"",""25484""
","
",NA,images/earth.jpg,NA,NA,NA,NA,NA,NA,NA,NA,NA,NA,NA,NA,NA,fixation,NA,NA,NA,NA,NA,NA,sub32
d3-animate-choice,138,783898,0.0-76.0-0.1,FALSE,FALSE,TRUE,FALSE,"""event"",""trial"",""time""
""fullscreenenter"",""5"",""25484""
","
","
","""event"",""trial"",""time""
""fullscreenenter"",""5"",""25484""
","
",415.5000000001164,NA,49,NA,NA,3000,1,NA,NA,images/earth.jpg,images/rocket1,images/rocket2,null,images/rocket2,NA,1,real,null,1,NA,NA,NA,sub32
d3-animate-choice,139,787187,0.0-76.0-1.1,FALSE,FALSE,TRUE,FALSE,"""event"",""trial"",""time""
""fullscreenenter"",""5"",""25484""
","
","
","""event"",""trial"",""time""
""fullscreenenter"",""5"",""25484""
","
",1279.4099999996834,NA,49,NA,NA,3000,1,NA,NA,images/purpleplanet.jpg,images/alien4,images/alien3,images/rocket2,images/alien3,images/t.png,2,real,false,1,rare,1,2020-06-28T01:02:32Z,sub32
two-step-fixation,140,788195,0.0-76.0-2.1,FALSE,FALSE,TRUE,FALSE,"""event"",""trial"",""time""
""fullscreenenter"",""5"",""25484""
","
","
","""event"",""trial"",""time""
""fullscreenenter"",""5"",""25484""
","
",NA,images/earth.jpg,NA,NA,NA,NA,NA,NA,NA,NA,NA,NA,NA,NA,NA,fixation,NA,NA,NA,NA,NA,NA,sub32
d3-animate-choice,141,790663,0.0-76.0-0.2,FALSE,FALSE,TRUE,FALSE,"""event"",""trial"",""time""
""fullscreenenter"",""5"",""25484""
","
","
","""event"",""trial"",""time""
""fullscreenenter"",""5"",""25484""
","
",458.55500000016764,NA,48,NA,NA,3000,1,NA,NA,images/earth.jpg,images/rocket1,images/rocket2,null,images/rocket1,NA,1,real,null,2,NA,NA,NA,sub32
d3-animate-choice,142,793223,0.0-76.0-1.2,FALSE,FALSE,TRUE,FALSE,"""event"",""trial"",""time""
""fullscreenenter"",""5"",""25484""
","
","
","""event"",""trial"",""time""
""fullscreenenter"",""5"",""25484""
","
",549.0899999999674,NA,48,NA,NA,3000,1,NA,NA,images/redplanet1.jpg,images/alien2,images/alien1,images/rocket1,images/alien2,images/t.png,2,real,false,2,rare,1,2020-06-28T01:02:38Z,sub32
two-step-fixation,143,794231,0.0-76.0-2.2,FALSE,FALSE,TRUE,FALSE,"""event"",""trial"",""time""
""fullscreenenter"",""5"",""25484""
","
","
","""event"",""trial"",""time""
""fullscreenenter"",""5"",""25484""
","
",NA,images/earth.jpg,NA,NA,NA,NA,NA,NA,NA,NA,NA,NA,NA,NA,NA,fixation,NA,NA,NA,NA,NA,NA,sub32
d3-animate-choice,144,796590,0.0-76.0-0.3,FALSE,FALSE,TRUE,FALSE,"""event"",""trial"",""time""
""fullscreenenter"",""5"",""25484""
","
","
","""event"",""trial"",""time""
""fullscreenenter"",""5"",""25484""
","
",349.0900000000838,NA,48,NA,NA,3000,1,NA,NA,images/earth.jpg,images/rocket1,images/rocket2,null,images/rocket1,NA,1,real,null,2,NA,NA,NA,sub32
d3-animate-choice,145,799207,0.0-76.0-1.3,FALSE,FALSE,TRUE,FALSE,"""event"",""trial"",""time""
""fullscreenenter"",""5"",""25484""
","
","
","""event"",""trial"",""time""
""fullscreenenter"",""5"",""25484""
","
",606.4349999997066,NA,48,NA,NA,3000,1,NA,NA,images/purpleplanet.jpg,images/alien4,images/alien3,images/rocket1,images/alien4,images/t.png,2,real,true,2,common,1,2020-06-28T01:02:44Z,sub32
two-step-fixation,146,800215,0.0-76.0-2.3,FALSE,FALSE,TRUE,FALSE,"""event"",""trial"",""time""
""fullscreenenter"",""5"",""25484""
","
","
","""event"",""trial"",""time""
""fullscreenenter"",""5"",""25484""
","
",NA,images/earth.jpg,NA,NA,NA,NA,NA,NA,NA,NA,NA,NA,NA,NA,NA,fixation,NA,NA,NA,NA,NA,NA,sub32
d3-animate-choice,147,802912,0.0-76.0-0.4,FALSE,FALSE,TRUE,FALSE,"""event"",""trial"",""time""
""fullscreenenter"",""5"",""25484""
","
","
","""event"",""trial"",""time""
""fullscreenenter"",""5"",""25484""
","
",686.2500000001164,NA,49,NA,NA,3000,1,NA,NA,images/earth.jpg,images/rocket1,images/rocket2,null,images/rocket2,NA,1,real,null,1,NA,NA,NA,sub32
d3-animate-choice,148,805420,0.0-76.0-1.4,FALSE,FALSE,TRUE,FALSE,"""event"",""trial"",""time""
""fullscreenenter"",""5"",""25484""
","
","
","""event"",""trial"",""time""
""fullscreenenter"",""5"",""25484""
","
",496.9900000001071,NA,48,NA,NA,3000,1,NA,NA,images/redplanet1.jpg,images/alien2,images/alien1,images/rocket2,images/alien2,images/t.png,2,real,true,2,common,1,2020-06-28T01:02:51Z,sub32
two-step-fixation,149,806429,0.0-76.0-2.4,FALSE,FALSE,TRUE,FALSE,"""event"",""trial"",""time""
""fullscreenenter"",""5"",""25484""
","
","
","""event"",""trial"",""time""
""fullscreenenter"",""5"",""25484""
","
",NA,images/earth.jpg,NA,NA,NA,NA,NA,NA,NA,NA,NA,NA,NA,NA,NA,fixation,NA,NA,NA,NA,NA,NA,sub32
d3-animate-choice,150,808816,0.0-76.0-0.5,FALSE,FALSE,TRUE,FALSE,"""event"",""trial"",""time""
""fullscreenenter"",""5"",""25484""
","
","
","""event"",""trial"",""time""
""fullscreenenter"",""5"",""25484""
","
",375.7200000000885,NA,48,NA,NA,3000,1,NA,NA,images/earth.jpg,images/rocket1,images/rocket2,null,images/rocket1,NA,1,real,null,2,NA,NA,NA,sub32
d3-animate-choice,151,811404,0.0-76.0-1.5,FALSE,FALSE,TRUE,FALSE,"""event"",""trial"",""time""
""fullscreenenter"",""5"",""25484""
","
","
","""event"",""trial"",""time""
""fullscreenenter"",""5"",""25484""
","
",576.9100000002654,NA,48,NA,NA,3000,1,NA,NA,images/purpleplanet.jpg,images/alien4,images/alien3,images/rocket1,images/alien4,images/t.png,2,real,true,2,common,1,2020-06-28T01:02:56Z,sub32
two-step-fixation,152,812413,0.0-76.0-2.5,FALSE,FALSE,TRUE,FALSE,"""event"",""trial"",""time""
""fullscreenenter"",""5"",""25484""
","
","
","""event"",""trial"",""time""
""fullscreenenter"",""5"",""25484""
","
",NA,images/earth.jpg,NA,NA,NA,NA,NA,NA,NA,NA,NA,NA,NA,NA,NA,fixation,NA,NA,NA,NA,NA,NA,sub32
d3-animate-choice,153,815079,0.0-76.0-0.6,FALSE,FALSE,TRUE,FALSE,"""event"",""trial"",""time""
""fullscreenenter"",""5"",""25484""
","
","
","""event"",""trial"",""time""
""fullscreenenter"",""5"",""25484""
","
",657.1449999996694,NA,49,NA,NA,3000,1,NA,NA,images/earth.jpg,images/rocket1,images/rocket2,null,images/rocket2,NA,1,real,null,1,NA,NA,NA,sub32
d3-animate-choice,154,817564,0.0-76.0-1.6,FALSE,FALSE,TRUE,FALSE,"""event"",""trial"",""time""
""fullscreenenter"",""5"",""25484""
","
","
","""event"",""trial"",""time""
""fullscreenenter"",""5"",""25484""
","
",473.48499999998603,NA,48,NA,NA,3000,1,NA,NA,images/redplanet1.jpg,images/alien2,images/alien1,images/rocket2,images/alien2,images/t.png,2,real,true,2,common,1,2020-06-28T01:03:03Z,sub32
two-step-fixation,155,818572,0.0-76.0-2.6,FALSE,FALSE,TRUE,FALSE,"""event"",""trial"",""time""
""fullscreenenter"",""5"",""25484""
","
","
","""event"",""trial"",""time""
""fullscreenenter"",""5"",""25484""
","
",NA,images/earth.jpg,NA,NA,NA,NA,NA,NA,NA,NA,NA,NA,NA,NA,NA,fixation,NA,NA,NA,NA,NA,NA,sub32
d3-animate-choice,156,821909,0.0-76.0-0.7,FALSE,FALSE,TRUE,FALSE,"""event"",""trial"",""time""
""fullscreenenter"",""5"",""25484""
","
","
","""event"",""trial"",""time""
""fullscreenenter"",""5"",""25484""
","
",1330.6200000001118,NA,48,NA,NA,3000,1,NA,NA,images/earth.jpg,images/rocket1,images/rocket2,null,images/rocket1,NA,1,real,null,2,NA,NA,NA,sub32
d3-animate-choice,157,824615,0.0-76.0-1.7,FALSE,FALSE,TRUE,FALSE,"""event"",""trial"",""time""
""fullscreenenter"",""5"",""25484""
","
","
","""event"",""trial"",""time""
""fullscreenenter"",""5"",""25484""
","
",694.7650000001304,NA,48,NA,NA,3000,1,NA,NA,images/purpleplanet.jpg,images/alien4,images/alien3,images/rocket1,images/alien4,images/t.png,2,real,true,2,common,1,2020-06-28T01:03:10Z,sub32
two-step-fixation,158,825623,0.0-76.0-2.7,FALSE,FALSE,TRUE,FALSE,"""event"",""trial"",""time""
""fullscreenenter"",""5"",""25484""
","
","
","""event"",""trial"",""time""
""fullscreenenter"",""5"",""25484""
","
",NA,images/earth.jpg,NA,NA,NA,NA,NA,NA,NA,NA,NA,NA,NA,NA,NA,fixation,NA,NA,NA,NA,NA,NA,sub32
d3-animate-choice,159,828477,0.0-76.0-0.8,FALSE,FALSE,TRUE,FALSE,"""event"",""trial"",""time""
""fullscreenenter"",""5"",""25484""
","
","
","""event"",""trial"",""time""
""fullscreenenter"",""5"",""25484""
","
",845.0999999999767,NA,49,NA,NA,3000,1,NA,NA,images/earth.jpg,images/rocket1,images/rocket2,null,images/rocket2,NA,1,real,null,1,NA,NA,NA,sub32
d3-animate-choice,160,830967,0.0-76.0-1.8,FALSE,FALSE,TRUE,FALSE,"""event"",""trial"",""time""
""fullscreenenter"",""5"",""25484""
","
","
","""event"",""trial"",""time""
""fullscreenenter"",""5"",""25484""
","
",479.3049999998184,NA,48,NA,NA,3000,1,NA,NA,images/redplanet1.jpg,images/alien2,images/alien1,images/rocket2,images/alien2,images/t.png,2,real,true,2,common,1,2020-06-28T01:03:16Z,sub32
two-step-fixation,161,831975,0.0-76.0-2.8,FALSE,FALSE,TRUE,FALSE,"""event"",""trial"",""time""
""fullscreenenter"",""5"",""25484""
","
","
","""event"",""trial"",""time""
""fullscreenenter"",""5"",""25484""
","
",NA,images/earth.jpg,NA,NA,NA,NA,NA,NA,NA,NA,NA,NA,NA,NA,NA,fixation,NA,NA,NA,NA,NA,NA,sub32
d3-animate-choice,162,834642,0.0-76.0-0.9,FALSE,FALSE,TRUE,FALSE,"""event"",""trial"",""time""
""fullscreenenter"",""5"",""25484""
","
","
","""event"",""trial"",""time""
""fullscreenenter"",""5"",""25484""
","
",655.3650000001071,NA,48,NA,NA,3000,1,NA,NA,images/earth.jpg,images/rocket1,images/rocket2,null,images/rocket1,NA,1,real,null,2,NA,NA,NA,sub32
d3-animate-choice,163,837481,0.0-76.0-1.9,FALSE,FALSE,TRUE,FALSE,"""event"",""trial"",""time""
""fullscreenenter"",""5"",""25484""
","
","
","""event"",""trial"",""time""
""fullscreenenter"",""5"",""25484""
","
",828.484999999986,NA,48,NA,NA,3000,1,NA,NA,images/purpleplanet.jpg,images/alien4,images/alien3,images/rocket1,images/alien4,images/t.png,2,real,true,2,common,1,2020-06-28T01:03:23Z,sub32
two-step-fixation,164,838489,0.0-76.0-2.9,FALSE,FALSE,TRUE,FALSE,"""event"",""trial"",""time""
""fullscreenenter"",""5"",""25484""
","
","
","""event"",""trial"",""time""
""fullscreenenter"",""5"",""25484""
","
",NA,images/earth.jpg,NA,NA,NA,NA,NA,NA,NA,NA,NA,NA,NA,NA,NA,fixation,NA,NA,NA,NA,NA,NA,sub32
d3-animate-choice,165,842503,0.0-76.0-0.10,FALSE,FALSE,TRUE,FALSE,"""event"",""trial"",""time""
""fullscreenenter"",""5"",""25484""
","
","
","""event"",""trial"",""time""
""fullscreenenter"",""5"",""25484""
","
",null,NA,null,NA,NA,3000,0,NA,NA,images/earth.jpg,images/rocket1,images/rocket2,null,NA,NA,1,real,null,NA,NA,NA,NA,sub32
d3-animate-choice,166,843512,0.0-76.0-1.10,FALSE,FALSE,TRUE,FALSE,"""event"",""trial"",""time""
""fullscreenenter"",""5"",""25484""
","
","
","""event"",""trial"",""time""
""fullscreenenter"",""5"",""25484""
","
",null,NA,null,NA,NA,0,0,NA,NA,images/earth.jpg,images/rocket1,images/rocket2,null,NA,NA,2,real,null,NA,NA,0,2020-06-28T01:03:29Z,sub32
two-step-fixation,167,844515,0.0-76.0-2.10,FALSE,FALSE,TRUE,FALSE,"""event"",""trial"",""time""
""fullscreenenter"",""5"",""25484""
","
","
","""event"",""trial"",""time""
""fullscreenenter"",""5"",""25484""
","
",NA,images/earth.jpg,NA,NA,NA,NA,NA,NA,NA,NA,NA,NA,NA,NA,NA,fixation,NA,NA,NA,NA,NA,NA,sub32
d3-animate-choice,168,848469,0.0-76.0-0.11,FALSE,FALSE,TRUE,FALSE,"""event"",""trial"",""time""
""fullscreenenter"",""5"",""25484""
","
","
","""event"",""trial"",""time""
""fullscreenenter"",""5"",""25484""
","
",1945.4550000000745,NA,48,NA,NA,3000,1,NA,NA,images/earth.jpg,images/rocket1,images/rocket2,null,images/rocket1,NA,1,real,null,2,NA,NA,NA,sub32
d3-animate-choice,169,851066,0.0-76.0-1.11,FALSE,FALSE,TRUE,FALSE,"""event"",""trial"",""time""
""fullscreenenter"",""5"",""25484""
","
","
","""event"",""trial"",""time""
""fullscreenenter"",""5"",""25484""
","
",586.3699999999953,NA,48,NA,NA,3000,1,NA,NA,images/redplanet1.jpg,images/alien2,images/alien1,images/rocket1,images/alien2,images/nothing.png,2,real,false,2,rare,0,2020-06-28T01:03:36Z,sub32
two-step-fixation,170,852074,0.0-76.0-2.11,FALSE,FALSE,TRUE,FALSE,"""event"",""trial"",""time""
""fullscreenenter"",""5"",""25484""
","
","
","""event"",""trial"",""time""
""fullscreenenter"",""5"",""25484""
","
",NA,images/earth.jpg,NA,NA,NA,NA,NA,NA,NA,NA,NA,NA,NA,NA,NA,fixation,NA,NA,NA,NA,NA,NA,sub32
d3-animate-choice,171,854543,0.0-76.0-0.12,FALSE,FALSE,TRUE,FALSE,"""event"",""trial"",""time""
""fullscreenenter"",""5"",""25484""
","
","
","""event"",""trial"",""time""
""fullscreenenter"",""5"",""25484""
","
",458.66500000003725,NA,49,NA,NA,3000,1,NA,NA,images/earth.jpg,images/rocket1,images/rocket2,null,images/rocket2,NA,1,real,null,1,NA,NA,NA,sub32
d3-animate-choice,172,856904,0.0-76.0-1.12,FALSE,FALSE,TRUE,FALSE,"""event"",""trial"",""time""
""fullscreenenter"",""5"",""25484""
","
","
","""event"",""trial"",""time""
""fullscreenenter"",""5"",""25484""
","
",350.99999999965075,NA,49,NA,NA,3000,1,NA,NA,images/purpleplanet.jpg,images/alien4,images/alien3,images/rocket2,images/alien3,images/t.png,2,real,false,1,rare,1,2020-06-28T01:03:42Z,sub32
two-step-fixation,173,857913,0.0-76.0-2.12,FALSE,FALSE,TRUE,FALSE,"""event"",""trial"",""time""
""fullscreenenter"",""5"",""25484""
","
","
","""event"",""trial"",""time""
""fullscreenenter"",""5"",""25484""
","
",NA,images/earth.jpg,NA,NA,NA,NA,NA,NA,NA,NA,NA,NA,NA,NA,NA,fixation,NA,NA,NA,NA,NA,NA,sub32
d3-animate-choice,174,860281,0.0-76.0-0.13,FALSE,FALSE,TRUE,FALSE,"""event"",""trial"",""time""
""fullscreenenter"",""5"",""25484""
","
","
","""event"",""trial"",""time""
""fullscreenenter"",""5"",""25484""
","
",357.84000000020023,NA,49,NA,NA,3000,1,NA,NA,images/earth.jpg,images/rocket1,images/rocket2,null,images/rocket2,NA,1,real,null,1,NA,NA,NA,sub32
d3-animate-choice,175,862660,0.0-76.0-1.13,FALSE,FALSE,TRUE,FALSE,"""event"",""trial"",""time""
""fullscreenenter"",""5"",""25484""
","
","
","""event"",""trial"",""time""
""fullscreenenter"",""5"",""25484""
","
",369.6350000000093,NA,49,NA,NA,3000,1,NA,NA,images/purpleplanet.jpg,images/alien4,images/alien3,images/rocket2,images/alien3,images/nothing.png,2,real,false,1,rare,0,2020-06-28T01:03:48Z,sub32
two-step-fixation,176,863669,0.0-76.0-2.13,FALSE,FALSE,TRUE,FALSE,"""event"",""trial"",""time""
""fullscreenenter"",""5"",""25484""
","
","
","""event"",""trial"",""time""
""fullscreenenter"",""5"",""25484""
","
",NA,images/earth.jpg,NA,NA,NA,NA,NA,NA,NA,NA,NA,NA,NA,NA,NA,fixation,NA,NA,NA,NA,NA,NA,sub32
d3-animate-choice,177,866315,0.0-76.0-0.14,FALSE,FALSE,TRUE,FALSE,"""event"",""trial"",""time""
""fullscreenenter"",""5"",""25484""
","
","
","""event"",""trial"",""time""
""fullscreenenter"",""5"",""25484""
","
",637.7850000002654,NA,48,NA,NA,3000,1,NA,NA,images/earth.jpg,images/rocket1,images/rocket2,null,images/rocket1,NA,1,real,null,2,NA,NA,NA,sub32
d3-animate-choice,178,870325,0.0-76.0-1.14,FALSE,FALSE,TRUE,FALSE,"""event"",""trial"",""time""
""fullscreenenter"",""5"",""25484""
","
","
","""event"",""trial"",""time""
""fullscreenenter"",""5"",""25484""
","
",2175.819999999949,NA,49,NA,NA,3000,1,NA,NA,images/purpleplanet.jpg,images/alien4,images/alien3,images/rocket1,images/alien3,images/nothing.png,2,real,true,1,common,0,2020-06-28T01:03:55Z,sub32
two-step-fixation,179,871334,0.0-76.0-2.14,FALSE,FALSE,TRUE,FALSE,"""event"",""trial"",""time""
""fullscreenenter"",""5"",""25484""
","
","
","""event"",""trial"",""time""
""fullscreenenter"",""5"",""25484""
","
",NA,images/earth.jpg,NA,NA,NA,NA,NA,NA,NA,NA,NA,NA,NA,NA,NA,fixation,NA,NA,NA,NA,NA,NA,sub32
d3-animate-choice,180,873561,0.0-76.0-0.15,FALSE,FALSE,TRUE,FALSE,"""event"",""trial"",""time""
""fullscreenenter"",""5"",""25484""
","
","
","""event"",""trial"",""time""
""fullscreenenter"",""5"",""25484""
","
",218.89999999979045,NA,49,NA,NA,3000,1,NA,NA,images/earth.jpg,images/rocket1,images/rocket2,null,images/rocket2,NA,1,real,null,1,NA,NA,NA,sub32
d3-animate-choice,181,877315,0.0-76.0-1.15,FALSE,FALSE,TRUE,FALSE,"""event"",""trial"",""time""
""fullscreenenter"",""5"",""25484""
","
","
","""event"",""trial"",""time""
""fullscreenenter"",""5"",""25484""
","
",1743.75,NA,48,NA,NA,3000,1,NA,NA,images/redplanet1.jpg,images/alien2,images/alien1,images/rocket2,images/alien2,images/t.png,2,real,true,2,common,1,2020-06-28T01:04:02Z,sub32
two-step-fixation,182,878324,0.0-76.0-2.15,FALSE,FALSE,TRUE,FALSE,"""event"",""trial"",""time""
""fullscreenenter"",""5"",""25484""
","
","
","""event"",""trial"",""time""
""fullscreenenter"",""5"",""25484""
","
",NA,images/earth.jpg,NA,NA,NA,NA,NA,NA,NA,NA,NA,NA,NA,NA,NA,fixation,NA,NA,NA,NA,NA,NA,sub32
d3-animate-choice,183,881077,0.0-76.0-0.16,FALSE,FALSE,TRUE,FALSE,"""event"",""trial"",""time""
""fullscreenenter"",""5"",""25484""
","
","
","""event"",""trial"",""time""
""fullscreenenter"",""5"",""25484""
","
",743.0199999997858,NA,48,NA,NA,3000,1,NA,NA,images/earth.jpg,images/rocket1,images/rocket2,null,images/rocket1,NA,1,real,null,2,NA,NA,NA,sub32
d3-animate-choice,184,883556,0.0-76.0-1.16,FALSE,FALSE,TRUE,FALSE,"""event"",""trial"",""time""
""fullscreenenter"",""5"",""25484""
","
","
","""event"",""trial"",""time""
""fullscreenenter"",""5"",""25484""
","
",468.9200000001583,NA,48,NA,NA,3000,1,NA,NA,images/purpleplanet.jpg,images/alien4,images/alien3,images/rocket1,images/alien4,images/nothing.png,2,real,true,2,common,0,2020-06-28T01:04:09Z,sub32
two-step-fixation,185,884564,0.0-76.0-2.16,FALSE,FALSE,TRUE,FALSE,"""event"",""trial"",""time""
""fullscreenenter"",""5"",""25484""
","
","
","""event"",""trial"",""time""
""fullscreenenter"",""5"",""25484""
","
",NA,images/earth.jpg,NA,NA,NA,NA,NA,NA,NA,NA,NA,NA,NA,NA,NA,fixation,NA,NA,NA,NA,NA,NA,sub32
d3-animate-choice,186,886916,0.0-76.0-0.17,FALSE,FALSE,TRUE,FALSE,"""event"",""trial"",""time""
""fullscreenenter"",""5"",""25484""
","
","
","""event"",""trial"",""time""
""fullscreenenter"",""5"",""25484""
","
",341.88000000000466,NA,49,NA,NA,3000,1,NA,NA,images/earth.jpg,images/rocket1,images/rocket2,null,images/rocket2,NA,1,real,null,1,NA,NA,NA,sub32
d3-animate-choice,187,889453,0.0-76.0-1.17,FALSE,FALSE,TRUE,FALSE,"""event"",""trial"",""time""
""fullscreenenter"",""5"",""25484""
","
","
","""event"",""trial"",""time""
""fullscreenenter"",""5"",""25484""
","
",526.3150000000605,NA,48,NA,NA,3000,1,NA,NA,images/purpleplanet.jpg,images/alien4,images/alien3,images/rocket2,images/alien4,images/t.png,2,real,false,2,rare,1,2020-06-28T01:04:15Z,sub32
two-step-fixation,188,890461,0.0-76.0-2.17,FALSE,FALSE,TRUE,FALSE,"""event"",""trial"",""time""
""fullscreenenter"",""5"",""25484""
","
","
","""event"",""trial"",""time""
""fullscreenenter"",""5"",""25484""
","
",NA,images/earth.jpg,NA,NA,NA,NA,NA,NA,NA,NA,NA,NA,NA,NA,NA,fixation,NA,NA,NA,NA,NA,NA,sub32
d3-animate-choice,189,892749,0.0-76.0-0.18,FALSE,FALSE,TRUE,FALSE,"""event"",""trial"",""time""
""fullscreenenter"",""5"",""25484""
","
","
","""event"",""trial"",""time""
""fullscreenenter"",""5"",""25484""
","
",278.1549999999115,NA,49,NA,NA,3000,1,NA,NA,images/earth.jpg,images/rocket1,images/rocket2,null,images/rocket2,NA,1,real,null,1,NA,NA,NA,sub32
d3-animate-choice,190,895375,0.0-76.0-1.18,FALSE,FALSE,TRUE,FALSE,"""event"",""trial"",""time""
""fullscreenenter"",""5"",""25484""
","
","
","""event"",""trial"",""time""
""fullscreenenter"",""5"",""25484""
","
",615.8649999997579,NA,48,NA,NA,3000,1,NA,NA,images/redplanet1.jpg,images/alien2,images/alien1,images/rocket2,images/alien2,images/nothing.png,2,real,true,2,common,0,2020-06-28T01:04:20Z,sub32
two-step-fixation,191,896383,0.0-76.0-2.18,FALSE,FALSE,TRUE,FALSE,"""event"",""trial"",""time""
""fullscreenenter"",""5"",""25484""
","
","
","""event"",""trial"",""time""
""fullscreenenter"",""5"",""25484""
","
",NA,images/earth.jpg,NA,NA,NA,NA,NA,NA,NA,NA,NA,NA,NA,NA,NA,fixation,NA,NA,NA,NA,NA,NA,sub32
d3-animate-choice,192,899902,0.0-76.0-0.19,FALSE,FALSE,TRUE,FALSE,"""event"",""trial"",""time""
""fullscreenenter"",""5"",""25484""
","
","
","""event"",""trial"",""time""
""fullscreenenter"",""5"",""25484""
","
",1507.4850000001024,NA,48,NA,NA,3000,1,NA,NA,images/earth.jpg,images/rocket1,images/rocket2,null,images/rocket1,NA,1,real,null,2,NA,NA,NA,sub32
d3-animate-choice,193,902334,0.0-76.0-1.19,FALSE,FALSE,TRUE,FALSE,"""event"",""trial"",""time""
""fullscreenenter"",""5"",""25484""
","
","
","""event"",""trial"",""time""
""fullscreenenter"",""5"",""25484""
","
",421.5,NA,49,NA,NA,3000,1,NA,NA,images/purpleplanet.jpg,images/alien4,images/alien3,images/rocket1,images/alien3,images/nothing.png,2,real,true,1,common,0,2020-06-28T01:04:27Z,sub32
two-step-fixation,194,903343,0.0-76.0-2.19,FALSE,FALSE,TRUE,FALSE,"""event"",""trial"",""time""
""fullscreenenter"",""5"",""25484""
","
","
","""event"",""trial"",""time""
""fullscreenenter"",""5"",""25484""
","
",NA,images/earth.jpg,NA,NA,NA,NA,NA,NA,NA,NA,NA,NA,NA,NA,NA,fixation,NA,NA,NA,NA,NA,NA,sub32
d3-animate-choice,195,905354,0.0-76.0-0.20,FALSE,FALSE,TRUE,FALSE,"""event"",""trial"",""time""
""fullscreenenter"",""5"",""25484""
","
","
","""event"",""trial"",""time""
""fullscreenenter"",""5"",""25484""
","
",0.7399999999906868,NA,49,NA,NA,3000,1,NA,NA,images/earth.jpg,images/rocket1,images/rocket2,null,images/rocket2,NA,1,real,null,1,NA,NA,NA,sub32
d3-animate-choice,196,907991,0.0-76.0-1.20,FALSE,FALSE,TRUE,FALSE,"""event"",""trial"",""time""
""fullscreenenter"",""5"",""25484""
","
","
","""event"",""trial"",""time""
""fullscreenenter"",""5"",""25484""
","
",627.6649999999208,NA,49,NA,NA,3000,1,NA,NA,images/redplanet1.jpg,images/alien2,images/alien1,images/rocket2,images/alien1,images/t.png,2,real,true,1,common,1,2020-06-28T01:04:33Z,sub32
two-step-fixation,197,909000,0.0-76.0-2.20,FALSE,FALSE,TRUE,FALSE,"""event"",""trial"",""time""
""fullscreenenter"",""5"",""25484""
","
","
","""event"",""trial"",""time""
""fullscreenenter"",""5"",""25484""
","
",NA,images/earth.jpg,NA,NA,NA,NA,NA,NA,NA,NA,NA,NA,NA,NA,NA,fixation,NA,NA,NA,NA,NA,NA,sub32
d3-animate-choice,198,911659,0.0-76.0-0.21,FALSE,FALSE,TRUE,FALSE,"""event"",""trial"",""time""
""fullscreenenter"",""5"",""25484""
","
","
","""event"",""trial"",""time""
""fullscreenenter"",""5"",""25484""
","
",648.9049999999115,NA,49,NA,NA,3000,1,NA,NA,images/earth.jpg,images/rocket1,images/rocket2,null,images/rocket2,NA,1,real,null,1,NA,NA,NA,sub32
d3-animate-choice,199,914256,0.0-76.0-1.21,FALSE,FALSE,TRUE,FALSE,"""event"",""trial"",""time""
""fullscreenenter"",""5"",""25484""
","
","
","""event"",""trial"",""time""
""fullscreenenter"",""5"",""25484""
","
",584.3099999997066,NA,49,NA,NA,3000,1,NA,NA,images/redplanet1.jpg,images/alien2,images/alien1,images/rocket2,images/alien1,images/t.png,2,real,true,1,common,1,2020-06-28T01:04:39Z,sub32
two-step-fixation,200,915264,0.0-76.0-2.21,FALSE,FALSE,TRUE,FALSE,"""event"",""trial"",""time""
""fullscreenenter"",""5"",""25484""
","
","
","""event"",""trial"",""time""
""fullscreenenter"",""5"",""25484""
","
",NA,images/earth.jpg,NA,NA,NA,NA,NA,NA,NA,NA,NA,NA,NA,NA,NA,fixation,NA,NA,NA,NA,NA,NA,sub32
d3-animate-choice,201,917553,0.0-76.0-0.22,FALSE,FALSE,TRUE,FALSE,"""event"",""trial"",""time""
""fullscreenenter"",""5"",""25484""
","
","
","""event"",""trial"",""time""
""fullscreenenter"",""5"",""25484""
","
",277.9700000000885,NA,49,NA,NA,3000,1,NA,NA,images/earth.jpg,images/rocket1,images/rocket2,null,images/rocket2,NA,1,real,null,1,NA,NA,NA,sub32
d3-animate-choice,202,919854,0.0-76.0-1.22,FALSE,FALSE,TRUE,FALSE,"""event"",""trial"",""time""
""fullscreenenter"",""5"",""25484""
","
","
","""event"",""trial"",""time""
""fullscreenenter"",""5"",""25484""
","
",290.19999999995343,NA,49,NA,NA,3000,1,NA,NA,images/purpleplanet.jpg,images/alien4,images/alien3,images/rocket2,images/alien3,images/t.png,2,real,false,1,rare,1,2020-06-28T01:04:45Z,sub32
two-step-fixation,203,920862,0.0-76.0-2.22,FALSE,FALSE,TRUE,FALSE,"""event"",""trial"",""time""
""fullscreenenter"",""5"",""25484""
","
","
","""event"",""trial"",""time""
""fullscreenenter"",""5"",""25484""
","
",NA,images/earth.jpg,NA,NA,NA,NA,NA,NA,NA,NA,NA,NA,NA,NA,NA,fixation,NA,NA,NA,NA,NA,NA,sub32
d3-animate-choice,204,923383,0.0-76.0-0.23,FALSE,FALSE,TRUE,FALSE,"""event"",""trial"",""time""
""fullscreenenter"",""5"",""25484""
","
","
","""event"",""trial"",""time""
""fullscreenenter"",""5"",""25484""
","
",511.0400000002701,NA,48,NA,NA,3000,1,NA,NA,images/earth.jpg,images/rocket1,images/rocket2,null,images/rocket1,NA,1,real,null,2,NA,NA,NA,sub32
d3-animate-choice,205,925806,0.0-76.0-1.23,FALSE,FALSE,TRUE,FALSE,"""event"",""trial"",""time""
""fullscreenenter"",""5"",""25484""
","
","
","""event"",""trial"",""time""
""fullscreenenter"",""5"",""25484""
","
",413.4599999997299,NA,49,NA,NA,3000,1,NA,NA,images/purpleplanet.jpg,images/alien4,images/alien3,images/rocket1,images/alien3,images/t.png,2,real,true,1,common,1,2020-06-28T01:04:51Z,sub32
two-step-fixation,206,926815,0.0-76.0-2.23,FALSE,FALSE,TRUE,FALSE,"""event"",""trial"",""time""
""fullscreenenter"",""5"",""25484""
","
","
","""event"",""trial"",""time""
""fullscreenenter"",""5"",""25484""
","
",NA,images/earth.jpg,NA,NA,NA,NA,NA,NA,NA,NA,NA,NA,NA,NA,NA,fixation,NA,NA,NA,NA,NA,NA,sub32
d3-animate-choice,207,929391,0.0-76.0-0.24,FALSE,FALSE,TRUE,FALSE,"""event"",""trial"",""time""
""fullscreenenter"",""5"",""25484""
","
","
","""event"",""trial"",""time""
""fullscreenenter"",""5"",""25484""
","
",566.3350000000792,NA,48,NA,NA,3000,1,NA,NA,images/earth.jpg,images/rocket1,images/rocket2,null,images/rocket1,NA,1,real,null,2,NA,NA,NA,sub32
d3-animate-choice,208,931853,0.0-76.0-1.24,FALSE,FALSE,TRUE,FALSE,"""event"",""trial"",""time""
""fullscreenenter"",""5"",""25484""
","
","
","""event"",""trial"",""time""
""fullscreenenter"",""5"",""25484""
","
",451.95000000018626,NA,49,NA,NA,3000,1,NA,NA,images/purpleplanet.jpg,images/alien4,images/alien3,images/rocket1,images/alien3,images/t.png,2,real,true,1,common,1,2020-06-28T01:04:57Z,sub32
two-step-fixation,209,932861,0.0-76.0-2.24,FALSE,FALSE,TRUE,FALSE,"""event"",""trial"",""time""
""fullscreenenter"",""5"",""25484""
","
","
","""event"",""trial"",""time""
""fullscreenenter"",""5"",""25484""
","
",NA,images/earth.jpg,NA,NA,NA,NA,NA,NA,NA,NA,NA,NA,NA,NA,NA,fixation,NA,NA,NA,NA,NA,NA,sub32
d3-animate-choice,210,935135,0.0-76.0-0.25,FALSE,FALSE,TRUE,FALSE,"""event"",""trial"",""time""
""fullscreenenter"",""5"",""25484""
","
","
","""event"",""trial"",""time""
""fullscreenenter"",""5"",""25484""
","
",264.0649999998277,NA,48,NA,NA,3000,1,NA,NA,images/earth.jpg,images/rocket1,images/rocket2,null,images/rocket1,NA,1,real,null,2,NA,NA,NA,sub32
d3-animate-choice,211,937493,0.0-76.0-1.25,FALSE,FALSE,TRUE,FALSE,"""event"",""trial"",""time""
""fullscreenenter"",""5"",""25484""
","
","
","""event"",""trial"",""time""
""fullscreenenter"",""5"",""25484""
","
",347.8949999997858,NA,49,NA,NA,3000,1,NA,NA,images/purpleplanet.jpg,images/alien4,images/alien3,images/rocket1,images/alien3,images/nothing.png,2,real,true,1,common,0,2020-06-28T01:05:03Z,sub32
two-step-fixation,212,938501,0.0-76.0-2.25,FALSE,FALSE,TRUE,FALSE,"""event"",""trial"",""time""
""fullscreenenter"",""5"",""25484""
","
","
","""event"",""trial"",""time""
""fullscreenenter"",""5"",""25484""
","
",NA,images/earth.jpg,NA,NA,NA,NA,NA,NA,NA,NA,NA,NA,NA,NA,NA,fixation,NA,NA,NA,NA,NA,NA,sub32
d3-animate-choice,213,940824,0.0-76.0-0.26,FALSE,FALSE,TRUE,FALSE,"""event"",""trial"",""time""
""fullscreenenter"",""5"",""25484""
","
","
","""event"",""trial"",""time""
""fullscreenenter"",""5"",""25484""
","
",312.8950000000186,NA,49,NA,NA,3000,1,NA,NA,images/earth.jpg,images/rocket1,images/rocket2,null,images/rocket2,NA,1,real,null,1,NA,NA,NA,sub32
d3-animate-choice,214,944100,0.0-76.0-1.26,FALSE,FALSE,TRUE,FALSE,"""event"",""trial"",""time""
""fullscreenenter"",""5"",""25484""
","
","
","""event"",""trial"",""time""
""fullscreenenter"",""5"",""25484""
","
",1266.2249999998603,NA,48,NA,NA,3000,1,NA,NA,images/purpleplanet.jpg,images/alien4,images/alien3,images/rocket2,images/alien4,images/t.png,2,real,false,2,rare,1,2020-06-28T01:05:09Z,sub32
two-step-fixation,215,945108,0.0-76.0-2.26,FALSE,FALSE,TRUE,FALSE,"""event"",""trial"",""time""
""fullscreenenter"",""5"",""25484""
","
","
","""event"",""trial"",""time""
""fullscreenenter"",""5"",""25484""
","
",NA,images/earth.jpg,NA,NA,NA,NA,NA,NA,NA,NA,NA,NA,NA,NA,NA,fixation,NA,NA,NA,NA,NA,NA,sub32
d3-animate-choice,216,947564,0.0-76.0-0.27,FALSE,FALSE,TRUE,FALSE,"""event"",""trial"",""time""
""fullscreenenter"",""5"",""25484""
","
","
","""event"",""trial"",""time""
""fullscreenenter"",""5"",""25484""
","
",446.5899999999674,NA,49,NA,NA,3000,1,NA,NA,images/earth.jpg,images/rocket1,images/rocket2,null,images/rocket2,NA,1,real,null,1,NA,NA,NA,sub32
d3-animate-choice,217,949935,0.0-76.0-1.27,FALSE,FALSE,TRUE,FALSE,"""event"",""trial"",""time""
""fullscreenenter"",""5"",""25484""
","
","
","""event"",""trial"",""time""
""fullscreenenter"",""5"",""25484""
","
",361.1449999999022,NA,48,NA,NA,3000,1,NA,NA,images/redplanet1.jpg,images/alien2,images/alien1,images/rocket2,images/alien2,images/t.png,2,real,true,2,common,1,2020-06-28T01:05:15Z,sub32
two-step-fixation,218,950943,0.0-76.0-2.27,FALSE,FALSE,TRUE,FALSE,"""event"",""trial"",""time""
""fullscreenenter"",""5"",""25484""
","
","
","""event"",""trial"",""time""
""fullscreenenter"",""5"",""25484""
","
",NA,images/earth.jpg,NA,NA,NA,NA,NA,NA,NA,NA,NA,NA,NA,NA,NA,fixation,NA,NA,NA,NA,NA,NA,sub32
d3-animate-choice,219,953245,0.0-76.0-0.28,FALSE,FALSE,TRUE,FALSE,"""event"",""trial"",""time""
""fullscreenenter"",""5"",""25484""
","
","
","""event"",""trial"",""time""
""fullscreenenter"",""5"",""25484""
","
",292.6450000000186,NA,49,NA,NA,3000,1,NA,NA,images/earth.jpg,images/rocket1,images/rocket2,null,images/rocket2,NA,1,real,null,1,NA,NA,NA,sub32
d3-animate-choice,220,955966,0.0-76.0-1.28,FALSE,FALSE,TRUE,FALSE,"""event"",""trial"",""time""
""fullscreenenter"",""5"",""25484""
","
","
","""event"",""trial"",""time""
""fullscreenenter"",""5"",""25484""
","
",710.6400000002468,NA,48,NA,NA,3000,1,NA,NA,images/redplanet1.jpg,images/alien2,images/alien1,images/rocket2,images/alien2,images/nothing.png,2,real,true,2,common,0,2020-06-28T01:05:21Z,sub32
two-step-fixation,221,956974,0.0-76.0-2.28,FALSE,FALSE,TRUE,FALSE,"""event"",""trial"",""time""
""fullscreenenter"",""5"",""25484""
","
","
","""event"",""trial"",""time""
""fullscreenenter"",""5"",""25484""
","
",NA,images/earth.jpg,NA,NA,NA,NA,NA,NA,NA,NA,NA,NA,NA,NA,NA,fixation,NA,NA,NA,NA,NA,NA,sub32
d3-animate-choice,222,959500,0.0-76.0-0.29,FALSE,FALSE,TRUE,FALSE,"""event"",""trial"",""time""
""fullscreenenter"",""5"",""25484""
","
","
","""event"",""trial"",""time""
""fullscreenenter"",""5"",""25484""
","
",515.8799999998882,NA,48,NA,NA,3000,1,NA,NA,images/earth.jpg,images/rocket1,images/rocket2,null,images/rocket1,NA,1,real,null,2,NA,NA,NA,sub32
d3-animate-choice,223,962492,0.0-76.0-1.29,FALSE,FALSE,TRUE,FALSE,"""event"",""trial"",""time""
""fullscreenenter"",""5"",""25484""
","
","
","""event"",""trial"",""time""
""fullscreenenter"",""5"",""25484""
","
",981.179999999702,NA,48,NA,NA,3000,1,NA,NA,images/redplanet1.jpg,images/alien2,images/alien1,images/rocket1,images/alien2,images/t.png,2,real,false,2,rare,1,2020-06-28T01:05:28Z,sub32
two-step-fixation,224,963501,0.0-76.0-2.29,FALSE,FALSE,TRUE,FALSE,"""event"",""trial"",""time""
""fullscreenenter"",""5"",""25484""
","
","
","""event"",""trial"",""time""
""fullscreenenter"",""5"",""25484""
","
",NA,images/earth.jpg,NA,NA,NA,NA,NA,NA,NA,NA,NA,NA,NA,NA,NA,fixation,NA,NA,NA,NA,NA,NA,sub32
d3-animate-choice,225,966069,0.0-76.0-0.30,FALSE,FALSE,TRUE,FALSE,"""event"",""trial"",""time""
""fullscreenenter"",""5"",""25484""
","
","
","""event"",""trial"",""time""
""fullscreenenter"",""5"",""25484""
","
",557.7249999996275,NA,49,NA,NA,3000,1,NA,NA,images/earth.jpg,images/rocket1,images/rocket2,null,images/rocket2,NA,1,real,null,1,NA,NA,NA,sub32
d3-animate-choice,226,968766,0.0-76.0-1.30,FALSE,FALSE,TRUE,FALSE,"""event"",""trial"",""time""
""fullscreenenter"",""5"",""25484""
","
","
","""event"",""trial"",""time""
""fullscreenenter"",""5"",""25484""
","
",686.2900000001537,NA,48,NA,NA,3000,1,NA,NA,images/redplanet1.jpg,images/alien2,images/alien1,images/rocket2,images/alien2,images/t.png,2,real,true,2,common,1,2020-06-28T01:05:34Z,sub32
two-step-fixation,227,969775,0.0-76.0-2.30,FALSE,FALSE,TRUE,FALSE,"""event"",""trial"",""time""
""fullscreenenter"",""5"",""25484""
","
","
","""event"",""trial"",""time""
""fullscreenenter"",""5"",""25484""
","
",NA,images/earth.jpg,NA,NA,NA,NA,NA,NA,NA,NA,NA,NA,NA,NA,NA,fixation,NA,NA,NA,NA,NA,NA,sub32
d3-animate-choice,228,972428,0.0-76.0-0.31,FALSE,FALSE,TRUE,FALSE,"""event"",""trial"",""time""
""fullscreenenter"",""5"",""25484""
","
","
","""event"",""trial"",""time""
""fullscreenenter"",""5"",""25484""
","
",643.4349999999395,NA,49,NA,NA,3000,1,NA,NA,images/earth.jpg,images/rocket1,images/rocket2,null,images/rocket2,NA,1,real,null,1,NA,NA,NA,sub32
d3-animate-choice,229,975083,0.0-76.0-1.31,FALSE,FALSE,TRUE,FALSE,"""event"",""trial"",""time""
""fullscreenenter"",""5"",""25484""
","
","
","""event"",""trial"",""time""
""fullscreenenter"",""5"",""25484""
","
",643.160000000149,NA,48,NA,NA,3000,1,NA,NA,images/redplanet1.jpg,images/alien2,images/alien1,images/rocket2,images/alien2,images/t.png,2,real,true,2,common,1,2020-06-28T01:05:40Z,sub32
two-step-fixation,230,976090,0.0-76.0-2.31,FALSE,FALSE,TRUE,FALSE,"""event"",""trial"",""time""
""fullscreenenter"",""5"",""25484""
","
","
","""event"",""trial"",""time""
""fullscreenenter"",""5"",""25484""
","
",NA,images/earth.jpg,NA,NA,NA,NA,NA,NA,NA,NA,NA,NA,NA,NA,NA,fixation,NA,NA,NA,NA,NA,NA,sub32
d3-animate-choice,231,978556,0.0-76.0-0.32,FALSE,FALSE,TRUE,FALSE,"""event"",""trial"",""time""
""fullscreenenter"",""5"",""25484""
","
","
","""event"",""trial"",""time""
""fullscreenenter"",""5"",""25484""
","
",456.0550000000512,NA,49,NA,NA,3000,1,NA,NA,images/earth.jpg,images/rocket1,images/rocket2,null,images/rocket2,NA,1,real,null,1,NA,NA,NA,sub32
d3-animate-choice,232,981161,0.0-76.0-1.32,FALSE,FALSE,TRUE,FALSE,"""event"",""trial"",""time""
""fullscreenenter"",""5"",""25484""
","
","
","""event"",""trial"",""time""
""fullscreenenter"",""5"",""25484""
","
",594.5949999999721,NA,48,NA,NA,3000,1,NA,NA,images/redplanet1.jpg,images/alien2,images/alien1,images/rocket2,images/alien2,images/t.png,2,real,true,2,common,1,2020-06-28T01:05:46Z,sub32
two-step-fixation,233,982169,0.0-76.0-2.32,FALSE,FALSE,TRUE,FALSE,"""event"",""trial"",""time""
""fullscreenenter"",""5"",""25484""
","
","
","""event"",""trial"",""time""
""fullscreenenter"",""5"",""25484""
","
",NA,images/earth.jpg,NA,NA,NA,NA,NA,NA,NA,NA,NA,NA,NA,NA,NA,fixation,NA,NA,NA,NA,NA,NA,sub32
d3-animate-choice,234,984516,0.0-76.0-0.33,FALSE,FALSE,TRUE,FALSE,"""event"",""trial"",""time""
""fullscreenenter"",""5"",""25484""
","
","
","""event"",""trial"",""time""
""fullscreenenter"",""5"",""25484""
","
",337.44999999995343,NA,49,NA,NA,3000,1,NA,NA,images/earth.jpg,images/rocket1,images/rocket2,null,images/rocket2,NA,1,real,null,1,NA,NA,NA,sub32
d3-animate-choice,235,987351,0.0-76.0-1.33,FALSE,FALSE,TRUE,FALSE,"""event"",""trial"",""time""
""fullscreenenter"",""5"",""25484""
","
","
","""event"",""trial"",""time""
""fullscreenenter"",""5"",""25484""
","
",823.7549999998882,NA,48,NA,NA,3000,1,NA,NA,images/purpleplanet.jpg,images/alien4,images/alien3,images/rocket2,images/alien4,images/nothing.png,2,real,false,2,rare,0,2020-06-28T01:05:52Z,sub32
two-step-fixation,236,988362,0.0-76.0-2.33,FALSE,FALSE,TRUE,FALSE,"""event"",""trial"",""time""
""fullscreenenter"",""5"",""25484""
","
","
","""event"",""trial"",""time""
""fullscreenenter"",""5"",""25484""
","
",NA,images/earth.jpg,NA,NA,NA,NA,NA,NA,NA,NA,NA,NA,NA,NA,NA,fixation,NA,NA,NA,NA,NA,NA,sub32
d3-animate-choice,237,990728,0.0-76.0-0.34,FALSE,FALSE,TRUE,FALSE,"""event"",""trial"",""time""
""fullscreenenter"",""5"",""25484""
","
","
","""event"",""trial"",""time""
""fullscreenenter"",""5"",""25484""
","
",352.449999999837,NA,49,NA,NA,3000,1,NA,NA,images/earth.jpg,images/rocket1,images/rocket2,null,images/rocket2,NA,1,real,null,1,NA,NA,NA,sub32
d3-animate-choice,238,993187,0.0-76.0-1.34,FALSE,FALSE,TRUE,FALSE,"""event"",""trial"",""time""
""fullscreenenter"",""5"",""25484""
","
","
","""event"",""trial"",""time""
""fullscreenenter"",""5"",""25484""
","
",448.9450000000652,NA,48,NA,NA,3000,1,NA,NA,images/purpleplanet.jpg,images/alien4,images/alien3,images/rocket2,images/alien4,images/t.png,2,real,false,2,rare,1,2020-06-28T01:05:58Z,sub32
two-step-fixation,239,994196,0.0-76.0-2.34,FALSE,FALSE,TRUE,FALSE,"""event"",""trial"",""time""
""fullscreenenter"",""5"",""25484""
","
","
","""event"",""trial"",""time""
""fullscreenenter"",""5"",""25484""
","
",NA,images/earth.jpg,NA,NA,NA,NA,NA,NA,NA,NA,NA,NA,NA,NA,NA,fixation,NA,NA,NA,NA,NA,NA,sub32
d3-animate-choice,240,996742,0.0-76.0-0.35,FALSE,FALSE,TRUE,FALSE,"""event"",""trial"",""time""
""fullscreenenter"",""5"",""25484""
","
","
","""event"",""trial"",""time""
""fullscreenenter"",""5"",""25484""
","
",536.9849999996368,NA,49,NA,NA,3000,1,NA,NA,images/earth.jpg,images/rocket1,images/rocket2,null,images/rocket2,NA,1,real,null,1,NA,NA,NA,sub32
d3-animate-choice,241,999571,0.0-76.0-1.35,FALSE,FALSE,TRUE,FALSE,"""event"",""trial"",""time""
""fullscreenenter"",""5"",""25484""
","
","
","""event"",""trial"",""time""
""fullscreenenter"",""5"",""25484""
","
",819.5949999999721,NA,49,NA,NA,3000,1,NA,NA,images/redplanet1.jpg,images/alien2,images/alien1,images/rocket2,images/alien1,images/t.png,2,real,true,1,common,1,2020-06-28T01:06:05Z,sub32
two-step-fixation,242,1000580,0.0-76.0-2.35,FALSE,FALSE,TRUE,FALSE,"""event"",""trial"",""time""
""fullscreenenter"",""5"",""25484""
","
","
","""event"",""trial"",""time""
""fullscreenenter"",""5"",""25484""
","
",NA,images/earth.jpg,NA,NA,NA,NA,NA,NA,NA,NA,NA,NA,NA,NA,NA,fixation,NA,NA,NA,NA,NA,NA,sub32
d3-animate-choice,243,1003039,0.0-76.0-0.36,FALSE,FALSE,TRUE,FALSE,"""event"",""trial"",""time""
""fullscreenenter"",""5"",""25484""
","
","
","""event"",""trial"",""time""
""fullscreenenter"",""5"",""25484""
","
",448.5049999997718,NA,49,NA,NA,3000,1,NA,NA,images/earth.jpg,images/rocket1,images/rocket2,null,images/rocket2,NA,1,real,null,1,NA,NA,NA,sub32
d3-animate-choice,244,1005405,0.0-76.0-1.36,FALSE,FALSE,TRUE,FALSE,"""event"",""trial"",""time""
""fullscreenenter"",""5"",""25484""
","
","
","""event"",""trial"",""time""
""fullscreenenter"",""5"",""25484""
","
",355.6750000002794,NA,49,NA,NA,3000,1,NA,NA,images/redplanet1.jpg,images/alien2,images/alien1,images/rocket2,images/alien1,images/nothing.png,2,real,true,1,common,0,2020-06-28T01:06:10Z,sub32
two-step-fixation,245,1006414,0.0-76.0-2.36,FALSE,FALSE,TRUE,FALSE,"""event"",""trial"",""time""
""fullscreenenter"",""5"",""25484""
","
","
","""event"",""trial"",""time""
""fullscreenenter"",""5"",""25484""
","
",NA,images/earth.jpg,NA,NA,NA,NA,NA,NA,NA,NA,NA,NA,NA,NA,NA,fixation,NA,NA,NA,NA,NA,NA,sub32
d3-animate-choice,246,1008870,0.0-76.0-0.37,FALSE,FALSE,TRUE,FALSE,"""event"",""trial"",""time""
""fullscreenenter"",""5"",""25484""
","
","
","""event"",""trial"",""time""
""fullscreenenter"",""5"",""25484""
","
",445.3699999998789,NA,49,NA,NA,3000,1,NA,NA,images/earth.jpg,images/rocket1,images/rocket2,null,images/rocket2,NA,1,real,null,1,NA,NA,NA,sub32
d3-animate-choice,247,1011240,0.0-76.0-1.37,FALSE,FALSE,TRUE,FALSE,"""event"",""trial"",""time""
""fullscreenenter"",""5"",""25484""
","
","
","""event"",""trial"",""time""
""fullscreenenter"",""5"",""25484""
","
",359.85999999998603,NA,48,NA,NA,3000,1,NA,NA,images/redplanet1.jpg,images/alien2,images/alien1,images/rocket2,images/alien2,images/t.png,2,real,true,2,common,1,2020-06-28T01:06:16Z,sub32
two-step-fixation,248,1012248,0.0-76.0-2.37,FALSE,FALSE,TRUE,FALSE,"""event"",""trial"",""time""
""fullscreenenter"",""5"",""25484""
","
","
","""event"",""trial"",""time""
""fullscreenenter"",""5"",""25484""
","
",NA,images/earth.jpg,NA,NA,NA,NA,NA,NA,NA,NA,NA,NA,NA,NA,NA,fixation,NA,NA,NA,NA,NA,NA,sub32
d3-animate-choice,249,1014702,0.0-76.0-0.38,FALSE,FALSE,TRUE,FALSE,"""event"",""trial"",""time""
""fullscreenenter"",""5"",""25484""
","
","
","""event"",""trial"",""time""
""fullscreenenter"",""5"",""25484""
","
",444.4650000000838,NA,49,NA,NA,3000,1,NA,NA,images/earth.jpg,images/rocket1,images/rocket2,null,images/rocket2,NA,1,real,null,1,NA,NA,NA,sub32
d3-animate-choice,250,1017129,0.0-76.0-1.38,FALSE,FALSE,TRUE,FALSE,"""event"",""trial"",""time""
""fullscreenenter"",""5"",""25484""
","
","
","""event"",""trial"",""time""
""fullscreenenter"",""5"",""25484""
","
",417.0349999999162,NA,48,NA,NA,3000,1,NA,NA,images/redplanet1.jpg,images/alien2,images/alien1,images/rocket2,images/alien2,images/t.png,2,real,true,2,common,1,2020-06-28T01:06:22Z,sub32
two-step-fixation,251,1018137,0.0-76.0-2.38,FALSE,FALSE,TRUE,FALSE,"""event"",""trial"",""time""
""fullscreenenter"",""5"",""25484""
","
","
","""event"",""trial"",""time""
""fullscreenenter"",""5"",""25484""
","
",NA,images/earth.jpg,NA,NA,NA,NA,NA,NA,NA,NA,NA,NA,NA,NA,NA,fixation,NA,NA,NA,NA,NA,NA,sub32
d3-animate-choice,252,1022146,0.0-76.0-0.39,FALSE,FALSE,TRUE,FALSE,"""event"",""trial"",""time""
""fullscreenenter"",""5"",""25484""
","
","
","""event"",""trial"",""time""
""fullscreenenter"",""5"",""25484""
","
",2317.555000000051,NA,49,NA,NA,3000,1,NA,NA,images/earth.jpg,images/rocket1,images/rocket2,null,images/rocket2,NA,1,real,null,1,NA,NA,NA,sub32
d3-animate-choice,253,1025093,0.0-76.0-1.39,FALSE,FALSE,TRUE,FALSE,"""event"",""trial"",""time""
""fullscreenenter"",""5"",""25484""
","
","
","""event"",""trial"",""time""
""fullscreenenter"",""5"",""25484""
","
",937.0500000000466,NA,48,NA,NA,3000,1,NA,NA,images/purpleplanet.jpg,images/alien4,images/alien3,images/rocket2,images/alien4,images/t.png,2,real,false,2,rare,1,2020-06-28T01:06:30Z,sub32
two-step-fixation,254,1026101,0.0-76.0-2.39,FALSE,FALSE,TRUE,FALSE,"""event"",""trial"",""time""
""fullscreenenter"",""5"",""25484""
","
","
","""event"",""trial"",""time""
""fullscreenenter"",""5"",""25484""
","
",NA,images/earth.jpg,NA,NA,NA,NA,NA,NA,NA,NA,NA,NA,NA,NA,NA,fixation,NA,NA,NA,NA,NA,NA,sub32
d3-animate-choice,255,1028646,0.0-76.0-0.40,FALSE,FALSE,TRUE,FALSE,"""event"",""trial"",""time""
""fullscreenenter"",""5"",""25484""
","
","
","""event"",""trial"",""time""
""fullscreenenter"",""5"",""25484""
","
",534.4850000002189,NA,49,NA,NA,3000,1,NA,NA,images/earth.jpg,images/rocket1,images/rocket2,null,images/rocket2,NA,1,real,null,1,NA,NA,NA,sub32
d3-animate-choice,256,1031729,0.0-76.0-1.40,FALSE,FALSE,TRUE,FALSE,"""event"",""trial"",""time""
""fullscreenenter"",""5"",""25484""
","
","
","""event"",""trial"",""time""
""fullscreenenter"",""5"",""25484""
","
",1072.5000000002328,NA,49,NA,NA,3000,1,NA,NA,images/redplanet1.jpg,images/alien2,images/alien1,images/rocket2,images/alien1,images/nothing.png,2,real,true,1,common,0,2020-06-28T01:06:37Z,sub32
two-step-fixation,257,1032736,0.0-76.0-2.40,FALSE,FALSE,TRUE,FALSE,"""event"",""trial"",""time""
""fullscreenenter"",""5"",""25484""
","
","
","""event"",""trial"",""time""
""fullscreenenter"",""5"",""25484""
","
",NA,images/earth.jpg,NA,NA,NA,NA,NA,NA,NA,NA,NA,NA,NA,NA,NA,fixation,NA,NA,NA,NA,NA,NA,sub32
d3-animate-choice,258,1036746,0.0-76.0-0.41,FALSE,FALSE,TRUE,FALSE,"""event"",""trial"",""time""
""fullscreenenter"",""5"",""25484""
","
","
","""event"",""trial"",""time""
""fullscreenenter"",""5"",""25484""
","
",2932.2600000000093,NA,49,NA,NA,3000,1,NA,NA,images/earth.jpg,images/rocket1,images/rocket2,null,images/rocket2,NA,1,real,null,1,NA,NA,NA,sub32
d3-animate-choice,259,1039648,0.0-76.0-1.41,FALSE,FALSE,TRUE,FALSE,"""event"",""trial"",""time""
""fullscreenenter"",""5"",""25484""
","
","
","""event"",""trial"",""time""
""fullscreenenter"",""5"",""25484""
","
",890.2349999998696,NA,49,NA,NA,3000,1,NA,NA,images/redplanet1.jpg,images/alien2,images/alien1,images/rocket2,images/alien1,images/nothing.png,2,real,true,1,common,0,2020-06-28T01:06:45Z,sub32
two-step-fixation,260,1040657,0.0-76.0-2.41,FALSE,FALSE,TRUE,FALSE,"""event"",""trial"",""time""
""fullscreenenter"",""5"",""25484""
","
","
","""event"",""trial"",""time""
""fullscreenenter"",""5"",""25484""
","
",NA,images/earth.jpg,NA,NA,NA,NA,NA,NA,NA,NA,NA,NA,NA,NA,NA,fixation,NA,NA,NA,NA,NA,NA,sub32
d3-animate-choice,261,1044663,0.0-76.0-0.42,FALSE,FALSE,TRUE,FALSE,"""event"",""trial"",""time""
""fullscreenenter"",""5"",""25484""
","
","
","""event"",""trial"",""time""
""fullscreenenter"",""5"",""25484""
","
",2126.659999999916,NA,49,NA,NA,3000,1,NA,NA,images/earth.jpg,images/rocket1,images/rocket2,null,images/rocket2,NA,1,real,null,1,NA,NA,NA,sub32
d3-animate-choice,262,1048674,0.0-76.0-1.42,FALSE,FALSE,TRUE,FALSE,"""event"",""trial"",""time""
""fullscreenenter"",""5"",""25484""
","
","
","""event"",""trial"",""time""
""fullscreenenter"",""5"",""25484""
","
",2870.0500000000466,NA,49,NA,NA,3000,1,NA,NA,images/purpleplanet.jpg,images/alien4,images/alien3,images/rocket2,images/alien3,NA,2,real,false,1,rare,0,2020-06-28T01:06:54Z,sub32
two-step-fixation,263,1049682,0.0-76.0-2.42,FALSE,FALSE,TRUE,FALSE,"""event"",""trial"",""time""
""fullscreenenter"",""5"",""25484""
","
","
","""event"",""trial"",""time""
""fullscreenenter"",""5"",""25484""
","
",NA,images/earth.jpg,NA,NA,NA,NA,NA,NA,NA,NA,NA,NA,NA,NA,NA,fixation,NA,NA,NA,NA,NA,NA,sub32
d3-animate-choice,264,1052774,0.0-76.0-0.43,FALSE,FALSE,TRUE,FALSE,"""event"",""trial"",""time""
""fullscreenenter"",""5"",""25484""
","
","
","""event"",""trial"",""time""
""fullscreenenter"",""5"",""25484""
","
",1080.2299999999814,NA,49,NA,NA,3000,1,NA,NA,images/earth.jpg,images/rocket1,images/rocket2,null,images/rocket2,NA,1,real,null,1,NA,NA,NA,sub32
d3-animate-choice,265,1055376,0.0-76.0-1.43,FALSE,FALSE,TRUE,FALSE,"""event"",""trial"",""time""
""fullscreenenter"",""5"",""25484""
","
","
","""event"",""trial"",""time""
""fullscreenenter"",""5"",""25484""
","
",591.5149999998976,NA,49,NA,NA,3000,1,NA,NA,images/purpleplanet.jpg,images/alien4,images/alien3,images/rocket2,images/alien3,images/nothing.png,2,real,false,1,rare,0,2020-06-28T01:07:00Z,sub32
two-step-fixation,266,1056380,0.0-76.0-2.43,FALSE,FALSE,TRUE,FALSE,"""event"",""trial"",""time""
""fullscreenenter"",""5"",""25484""
","
","
","""event"",""trial"",""time""
""fullscreenenter"",""5"",""25484""
","
",NA,images/earth.jpg,NA,NA,NA,NA,NA,NA,NA,NA,NA,NA,NA,NA,NA,fixation,NA,NA,NA,NA,NA,NA,sub32
d3-animate-choice,267,1058595,0.0-76.0-0.44,FALSE,FALSE,TRUE,FALSE,"""event"",""trial"",""time""
""fullscreenenter"",""5"",""25484""
","
","
","""event"",""trial"",""time""
""fullscreenenter"",""5"",""25484""
","
",207.5,NA,48,NA,NA,3000,1,NA,NA,images/earth.jpg,images/rocket1,images/rocket2,null,images/rocket1,NA,1,real,null,2,NA,NA,NA,sub32
d3-animate-choice,268,1061110,0.0-76.0-1.44,FALSE,FALSE,TRUE,FALSE,"""event"",""trial"",""time""
""fullscreenenter"",""5"",""25484""
","
","
","""event"",""trial"",""time""
""fullscreenenter"",""5"",""25484""
","
",503.02499999990687,NA,48,NA,NA,3000,1,NA,NA,images/purpleplanet.jpg,images/alien4,images/alien3,images/rocket1,images/alien4,images/t.png,2,real,true,2,common,1,2020-06-28T01:07:06Z,sub32
two-step-fixation,269,1062117,0.0-76.0-2.44,FALSE,FALSE,TRUE,FALSE,"""event"",""trial"",""time""
""fullscreenenter"",""5"",""25484""
","
","
","""event"",""trial"",""time""
""fullscreenenter"",""5"",""25484""
","
",NA,images/earth.jpg,NA,NA,NA,NA,NA,NA,NA,NA,NA,NA,NA,NA,NA,fixation,NA,NA,NA,NA,NA,NA,sub32
d3-animate-choice,270,1064478,0.0-76.0-0.45,FALSE,FALSE,TRUE,FALSE,"""event"",""trial"",""time""
""fullscreenenter"",""5"",""25484""
","
","
","""event"",""trial"",""time""
""fullscreenenter"",""5"",""25484""
","
",355.68499999982305,NA,48,NA,NA,3000,1,NA,NA,images/earth.jpg,images/rocket1,images/rocket2,null,images/rocket1,NA,1,real,null,2,NA,NA,NA,sub32
d3-animate-choice,271,1066948,0.0-76.0-1.45,FALSE,FALSE,TRUE,FALSE,"""event"",""trial"",""time""
""fullscreenenter"",""5"",""25484""
","
","
","""event"",""trial"",""time""
""fullscreenenter"",""5"",""25484""
","
",462.94499999983236,NA,48,NA,NA,3000,1,NA,NA,images/redplanet1.jpg,images/alien2,images/alien1,images/rocket1,images/alien2,images/t.png,2,real,false,2,rare,1,2020-06-28T01:07:12Z,sub32
two-step-fixation,272,1067958,0.0-76.0-2.45,FALSE,FALSE,TRUE,FALSE,"""event"",""trial"",""time""
""fullscreenenter"",""5"",""25484""
","
","
","""event"",""trial"",""time""
""fullscreenenter"",""5"",""25484""
","
",NA,images/earth.jpg,NA,NA,NA,NA,NA,NA,NA,NA,NA,NA,NA,NA,NA,fixation,NA,NA,NA,NA,NA,NA,sub32
d3-animate-choice,273,1070363,0.0-76.0-0.46,FALSE,FALSE,TRUE,FALSE,"""event"",""trial"",""time""
""fullscreenenter"",""5"",""25484""
","
","
","""event"",""trial"",""time""
""fullscreenenter"",""5"",""25484""
","
",399.6099999998696,NA,48,NA,NA,3000,1,NA,NA,images/earth.jpg,images/rocket1,images/rocket2,null,images/rocket1,NA,1,real,null,2,NA,NA,NA,sub32
d3-animate-choice,274,1073814,0.0-76.0-1.46,FALSE,FALSE,TRUE,FALSE,"""event"",""trial"",""time""
""fullscreenenter"",""5"",""25484""
","
","
","""event"",""trial"",""time""
""fullscreenenter"",""5"",""25484""
","
",1440.4500000001863,NA,48,NA,NA,3000,1,NA,NA,images/purpleplanet.jpg,images/alien4,images/alien3,images/rocket1,images/alien4,images/t.png,2,real,true,2,common,1,2020-06-28T01:07:19Z,sub32
two-step-fixation,275,1074822,0.0-76.0-2.46,FALSE,FALSE,TRUE,FALSE,"""event"",""trial"",""time""
""fullscreenenter"",""5"",""25484""
","
","
","""event"",""trial"",""time""
""fullscreenenter"",""5"",""25484""
","
",NA,images/earth.jpg,NA,NA,NA,NA,NA,NA,NA,NA,NA,NA,NA,NA,NA,fixation,NA,NA,NA,NA,NA,NA,sub32
d3-animate-choice,276,1078831,0.0-76.0-0.47,FALSE,FALSE,TRUE,FALSE,"""event"",""trial"",""time""
""fullscreenenter"",""5"",""25484""
","
","
","""event"",""trial"",""time""
""fullscreenenter"",""5"",""25484""
","
",2271.8799999996554,NA,48,NA,NA,3000,1,NA,NA,images/earth.jpg,images/rocket1,images/rocket2,null,images/rocket1,NA,1,real,null,2,NA,NA,NA,sub32
d3-animate-choice,277,1081642,0.0-76.0-1.47,FALSE,FALSE,TRUE,FALSE,"""event"",""trial"",""time""
""fullscreenenter"",""5"",""25484""
","
","
","""event"",""trial"",""time""
""fullscreenenter"",""5"",""25484""
","
",800.7099999999627,NA,48,NA,NA,3000,1,NA,NA,images/purpleplanet.jpg,images/alien4,images/alien3,images/rocket1,images/alien4,images/nothing.png,2,real,true,2,common,0,2020-06-28T01:07:27Z,sub32
two-step-fixation,278,1082650,0.0-76.0-2.47,FALSE,FALSE,TRUE,FALSE,"""event"",""trial"",""time""
""fullscreenenter"",""5"",""25484""
","
","
","""event"",""trial"",""time""
""fullscreenenter"",""5"",""25484""
","
",NA,images/earth.jpg,NA,NA,NA,NA,NA,NA,NA,NA,NA,NA,NA,NA,NA,fixation,NA,NA,NA,NA,NA,NA,sub32
d3-animate-choice,279,1085360,0.0-76.0-0.48,FALSE,FALSE,TRUE,FALSE,"""event"",""trial"",""time""
""fullscreenenter"",""5"",""25484""
","
","
","""event"",""trial"",""time""
""fullscreenenter"",""5"",""25484""
","
",699.8449999999721,NA,48,NA,NA,3000,1,NA,NA,images/earth.jpg,images/rocket1,images/rocket2,null,images/rocket1,NA,1,real,null,2,NA,NA,NA,sub32
d3-animate-choice,280,1089370,0.0-76.0-1.48,FALSE,FALSE,TRUE,FALSE,"""event"",""trial"",""time""
""fullscreenenter"",""5"",""25484""
","
","
","""event"",""trial"",""time""
""fullscreenenter"",""5"",""25484""
","
",2409.7350000003353,NA,49,NA,NA,3000,1,NA,NA,images/purpleplanet.jpg,images/alien4,images/alien3,images/rocket1,images/alien3,images/t.png,2,real,true,1,common,1,2020-06-28T01:07:34Z,sub32
two-step-fixation,281,1090379,0.0-76.0-2.48,FALSE,FALSE,TRUE,FALSE,"""event"",""trial"",""time""
""fullscreenenter"",""5"",""25484""
","
","
","""event"",""trial"",""time""
""fullscreenenter"",""5"",""25484""
","
",NA,images/earth.jpg,NA,NA,NA,NA,NA,NA,NA,NA,NA,NA,NA,NA,NA,fixation,NA,NA,NA,NA,NA,NA,sub32
d3-animate-choice,282,1094388,0.0-76.0-0.49,FALSE,FALSE,TRUE,FALSE,"""event"",""trial"",""time""
""fullscreenenter"",""5"",""25484""
","
","
","""event"",""trial"",""time""
""fullscreenenter"",""5"",""25484""
","
",3517.7299999999814,NA,49,NA,NA,3000,0,NA,NA,images/earth.jpg,images/rocket1,images/rocket2,null,NA,NA,1,real,null,1,NA,NA,NA,sub32
d3-animate-choice,283,1095399,0.0-76.0-1.49,FALSE,FALSE,TRUE,FALSE,"""event"",""trial"",""time""
""fullscreenenter"",""5"",""25484""
","
","
","""event"",""trial"",""time""
