trial_type,trial_index,time_elapsed,internal_node_id,rocket_sides,red_planet_first_rocket,red_display_order,purple_display_order,interactions,blur_events,focus_events,fullscreenenter_events,fullscreenexit_events,rt,stimulus,key_press,button_pressed,success,duration,valid_pressed,rts,keys,planet_text,right_text,left_text,center_text,chosen_text,reward_text,trial_stage,practice_trial,transition_type,choice,transition,reward,timestamp,subject_id
pavlovia,0,6,0.0-0.0,FALSE,TRUE,TRUE,TRUE,"
","
","
","
","
",NA,NA,NA,NA,NA,NA,NA,NA,NA,NA,NA,NA,NA,NA,NA,NA,NA,NA,NA,NA,NA,NA,sub26
html-keyboard-response,1,2388,0.0-1.0,FALSE,TRUE,TRUE,TRUE,"
","
","
","
","
",2380.000000000002,Welcome! Press the space bar to begin.,32,NA,NA,NA,NA,NA,NA,NA,NA,NA,NA,NA,NA,NA,NA,NA,NA,NA,NA,NA,sub26
audio-keyboard-response,2,7203,0.0-2.0,FALSE,TRUE,TRUE,TRUE,"
","
","
","
","
",4804,audio/beep_loop.wav,32,NA,NA,NA,NA,NA,NA,NA,NA,NA,NA,NA,NA,NA,NA,NA,NA,NA,NA,NA,sub26
audio-button-response,3,11126,0.0-3.0,FALSE,TRUE,TRUE,TRUE,"
","
","
","
","
",NaN,audio/fish.mp3,NA,1,NA,NA,NA,NA,NA,NA,NA,NA,NA,NA,NA,NA,NA,NA,NA,NA,NA,NA,sub26
audio-button-response,4,14756,0.0-4.0,FALSE,TRUE,TRUE,TRUE,"""event"",""trial"",""time""
""fullscreenenter"",""5"",""19590""
","
","
","""event"",""trial"",""time""
""fullscreenenter"",""5"",""19590""
","
",NaN,audio/tiger.mp3,NA,4,NA,NA,NA,NA,NA,NA,NA,NA,NA,NA,NA,NA,NA,NA,NA,NA,NA,NA,sub26
fullscreen,5,20530,0.0-5.0,FALSE,TRUE,TRUE,TRUE,"""event"",""trial"",""time""
""fullscreenenter"",""5"",""19590""
","
","
","""event"",""trial"",""time""
""fullscreenenter"",""5"",""19590""
","
",NA,NA,NA,NA,TRUE,NA,NA,NA,NA,NA,NA,NA,NA,NA,NA,NA,NA,NA,NA,NA,NA,NA,sub26
d3-instructions,6,34603,0.0-6.0,FALSE,TRUE,TRUE,TRUE,"""event"",""trial"",""time""
""fullscreenenter"",""5"",""19590""
","
","
","""event"",""trial"",""time""
""fullscreenenter"",""5"",""19590""
","
",NA,NA,NA,NA,NA,NA,NA,NA,NA,NA,NA,NA,NA,NA,NA,NA,NA,NA,NA,NA,NA,NA,sub26
d3-instructions,7,45578,0.0-7.0,FALSE,TRUE,TRUE,TRUE,"""event"",""trial"",""time""
""fullscreenenter"",""5"",""19590""
","
","
","""event"",""trial"",""time""
""fullscreenenter"",""5"",""19590""
","
",NA,NA,NA,NA,NA,NA,NA,NA,NA,NA,NA,NA,NA,NA,NA,NA,NA,NA,NA,NA,NA,NA,sub26
d3-instructions,8,54389,0.0-8.0,FALSE,TRUE,TRUE,TRUE,"""event"",""trial"",""time""
""fullscreenenter"",""5"",""19590""
","
","
","""event"",""trial"",""time""
""fullscreenenter"",""5"",""19590""
","
",NA,NA,NA,NA,NA,NA,NA,NA,NA,NA,NA,NA,NA,NA,NA,NA,NA,NA,NA,NA,NA,NA,sub26
d3-instructions,9,67562,0.0-9.0,FALSE,TRUE,TRUE,TRUE,"""event"",""trial"",""time""
""fullscreenenter"",""5"",""19590""
","
","
","""event"",""trial"",""time""
""fullscreenenter"",""5"",""19590""
","
",NA,NA,NA,NA,NA,NA,NA,NA,NA,NA,NA,NA,NA,NA,NA,NA,NA,NA,NA,NA,NA,NA,sub26
d3-instructions,10,87519,0.0-10.0,FALSE,TRUE,TRUE,TRUE,"""event"",""trial"",""time""
""fullscreenenter"",""5"",""19590""
","
","
","""event"",""trial"",""time""
""fullscreenenter"",""5"",""19590""
","
",NA,NA,NA,NA,NA,NA,NA,NA,NA,NA,NA,NA,NA,NA,NA,NA,NA,NA,NA,NA,NA,NA,sub26
d3-animate-choice,11,91659,0.0-11.0,FALSE,TRUE,TRUE,TRUE,"""event"",""trial"",""time""
""fullscreenenter"",""5"",""19590""
","
","
","""event"",""trial"",""time""
""fullscreenenter"",""5"",""19590""
","
",2134,NA,49,NA,NA,3000,1,NA,NA,images/tutgreenplanet.jpg,images/tutalien1,images/tutalien2,null,images/tutalien2,NA,NA,practice,null,NA,NA,NA,NA,sub26
d3-animate-choice,12,96564,0.0-12.0,FALSE,TRUE,TRUE,TRUE,"""event"",""trial"",""time""
""fullscreenenter"",""5"",""19590""
","
","
","""event"",""trial"",""time""
""fullscreenenter"",""5"",""19590""
","
",2903,NA,48,NA,NA,3000,1,NA,NA,images/tutgreenplanet.jpg,images/tutalien1,images/tutalien2,null,images/tutalien1,NA,NA,practice,null,NA,NA,NA,NA,sub26
d3-animate-choice,13,99829,0.0-13.0,FALSE,TRUE,TRUE,TRUE,"""event"",""trial"",""time""
""fullscreenenter"",""5"",""19590""
","
","
","""event"",""trial"",""time""
""fullscreenenter"",""5"",""19590""
","
",1261,NA,49,NA,NA,3000,1,NA,NA,images/tutgreenplanet.jpg,images/tutalien1,images/tutalien2,null,images/tutalien2,NA,NA,practice,null,NA,NA,NA,NA,sub26
d3-animate-choice,14,102612,0.0-14.0,FALSE,TRUE,TRUE,TRUE,"""event"",""trial"",""time""
""fullscreenenter"",""5"",""19590""
","
","
","""event"",""trial"",""time""
""fullscreenenter"",""5"",""19590""
","
",781,NA,48,NA,NA,3000,1,NA,NA,images/tutgreenplanet.jpg,images/tutalien1,images/tutalien2,null,images/tutalien1,NA,NA,practice,null,NA,NA,NA,NA,sub26
d3-instructions,15,110913,0.0-15.0,FALSE,TRUE,TRUE,TRUE,"""event"",""trial"",""time""
""fullscreenenter"",""5"",""19590""
","
","
","""event"",""trial"",""time""
""fullscreenenter"",""5"",""19590""
","
",NA,NA,NA,NA,NA,NA,NA,NA,NA,NA,NA,NA,NA,NA,NA,NA,NA,NA,NA,NA,NA,NA,sub26
d3-instructions,16,118721,0.0-16.0,FALSE,TRUE,TRUE,TRUE,"""event"",""trial"",""time""
""fullscreenenter"",""5"",""19590""
","
","
","""event"",""trial"",""time""
""fullscreenenter"",""5"",""19590""
","
",NA,NA,NA,NA,NA,NA,NA,NA,NA,NA,NA,NA,NA,NA,NA,NA,NA,NA,NA,NA,NA,NA,sub26
d3-instructions,17,129645,0.0-17.0,FALSE,TRUE,TRUE,TRUE,"""event"",""trial"",""time""
""fullscreenenter"",""5"",""19590""
","
","
","""event"",""trial"",""time""
""fullscreenenter"",""5"",""19590""
","
",NA,NA,NA,NA,NA,NA,NA,NA,NA,NA,NA,NA,NA,NA,NA,NA,NA,NA,NA,NA,NA,NA,sub26
d3-instructions,18,144133,0.0-18.0,FALSE,TRUE,TRUE,TRUE,"""event"",""trial"",""time""
""fullscreenenter"",""5"",""19590""
","
","
","""event"",""trial"",""time""
""fullscreenenter"",""5"",""19590""
","
",NA,NA,NA,NA,NA,NA,NA,NA,NA,NA,NA,NA,NA,NA,NA,NA,NA,NA,NA,NA,NA,NA,sub26
d3-instructions,19,160786,0.0-19.0,FALSE,TRUE,TRUE,TRUE,"""event"",""trial"",""time""
""fullscreenenter"",""5"",""19590""
","
","
","""event"",""trial"",""time""
""fullscreenenter"",""5"",""19590""
","
",NA,NA,NA,NA,NA,NA,NA,NA,NA,NA,NA,NA,NA,NA,NA,NA,NA,NA,NA,NA,NA,NA,sub26
d3-animate-choice,20,163380,0.0-20.0,FALSE,TRUE,TRUE,TRUE,"""event"",""trial"",""time""
""fullscreenenter"",""5"",""19590""
","
","
","""event"",""trial"",""time""
""fullscreenenter"",""5"",""19590""
","
",590.9999999999709,NA,49,NA,NA,3000,1,NA,NA,images/tutyellowplanet.jpg,null,images/tutalien3,null,images/tutalien3,images/t.png,NA,practice,null,NA,NA,NA,NA,sub26
d3-animate-choice,21,165799,0.0-21.0,FALSE,TRUE,TRUE,TRUE,"""event"",""trial"",""time""
""fullscreenenter"",""5"",""19590""
","
","
","""event"",""trial"",""time""
""fullscreenenter"",""5"",""19590""
","
",416,NA,49,NA,NA,3000,1,NA,NA,images/tutyellowplanet.jpg,null,images/tutalien3,null,images/tutalien3,images/t.png,NA,practice,null,NA,NA,NA,NA,sub26
d3-animate-choice,22,168124,0.0-22.0,FALSE,TRUE,TRUE,TRUE,"""event"",""trial"",""time""
""fullscreenenter"",""5"",""19590""
","
","
","""event"",""trial"",""time""
""fullscreenenter"",""5"",""19590""
","
",321.9999999999709,NA,49,NA,NA,3000,1,NA,NA,images/tutyellowplanet.jpg,null,images/tutalien3,null,images/tutalien3,images/t.png,NA,practice,null,NA,NA,NA,NA,sub26
d3-animate-choice,23,170551,0.0-23.0,FALSE,TRUE,TRUE,TRUE,"""event"",""trial"",""time""
""fullscreenenter"",""5"",""19590""
","
","
","""event"",""trial"",""time""
""fullscreenenter"",""5"",""19590""
","
",425.0000000000291,NA,49,NA,NA,3000,1,NA,NA,images/tutyellowplanet.jpg,null,images/tutalien3,null,images/tutalien3,images/t.png,NA,practice,null,NA,NA,NA,NA,sub26
d3-animate-choice,24,172859,0.0-24.0,FALSE,TRUE,TRUE,TRUE,"""event"",""trial"",""time""
""fullscreenenter"",""5"",""19590""
","
","
","""event"",""trial"",""time""
""fullscreenenter"",""5"",""19590""
","
",307,NA,49,NA,NA,3000,1,NA,NA,images/tutyellowplanet.jpg,null,images/tutalien3,null,images/tutalien3,images/t.png,NA,practice,null,NA,NA,NA,NA,sub26
d3-animate-choice,25,175199,0.0-25.0,FALSE,TRUE,TRUE,TRUE,"""event"",""trial"",""time""
""fullscreenenter"",""5"",""19590""
","
","
","""event"",""trial"",""time""
""fullscreenenter"",""5"",""19590""
","
",338,NA,49,NA,NA,3000,1,NA,NA,images/tutyellowplanet.jpg,null,images/tutalien3,null,images/tutalien3,images/t.png,NA,practice,null,NA,NA,NA,NA,sub26
d3-animate-choice,26,177428,0.0-26.0,FALSE,TRUE,TRUE,TRUE,"""event"",""trial"",""time""
""fullscreenenter"",""5"",""19590""
","
","
","""event"",""trial"",""time""
""fullscreenenter"",""5"",""19590""
","
",226,NA,49,NA,NA,3000,1,NA,NA,images/tutyellowplanet.jpg,null,images/tutalien3,null,images/tutalien3,images/t.png,NA,practice,null,NA,NA,NA,NA,sub26
d3-animate-choice,27,180608,0.0-27.0,FALSE,TRUE,TRUE,TRUE,"""event"",""trial"",""time""
""fullscreenenter"",""5"",""19590""
","
","
","""event"",""trial"",""time""
""fullscreenenter"",""5"",""19590""
","
",1177,NA,49,NA,NA,3000,1,2597.000000000029,49,images/tutyellowplanet.jpg,null,images/tutalien3,null,images/tutalien3,images/t.png,NA,practice,null,NA,NA,NA,NA,sub26
d3-animate-choice,28,183080,0.0-28.0,FALSE,TRUE,TRUE,TRUE,"""event"",""trial"",""time""
""fullscreenenter"",""5"",""19590""
","
","
","""event"",""trial"",""time""
""fullscreenenter"",""5"",""19590""
","
",469,NA,49,NA,NA,3000,1,NA,NA,images/tutyellowplanet.jpg,null,images/tutalien3,null,images/tutalien3,images/t.png,NA,practice,null,NA,NA,NA,NA,sub26
d3-animate-choice,29,185595,0.0-29.0,FALSE,TRUE,TRUE,TRUE,"""event"",""trial"",""time""
""fullscreenenter"",""5"",""19590""
","
","
","""event"",""trial"",""time""
""fullscreenenter"",""5"",""19590""
","
",515,NA,49,NA,NA,3000,1,NA,NA,images/tutyellowplanet.jpg,null,images/tutalien3,null,images/tutalien3,images/t.png,NA,practice,null,NA,NA,NA,NA,sub26
d3-instructions,30,194158,0.0-30.0,FALSE,TRUE,TRUE,TRUE,"""event"",""trial"",""time""
""fullscreenenter"",""5"",""19590""
","
","
","""event"",""trial"",""time""
""fullscreenenter"",""5"",""19590""
","
",NA,NA,NA,NA,NA,NA,NA,NA,NA,NA,NA,NA,NA,NA,NA,NA,NA,NA,NA,NA,NA,NA,sub26
d3-instructions,31,204524,0.0-31.0,FALSE,TRUE,TRUE,TRUE,"""event"",""trial"",""time""
""fullscreenenter"",""5"",""19590""
","
","
","""event"",""trial"",""time""
""fullscreenenter"",""5"",""19590""
","
",NA,NA,NA,NA,NA,NA,NA,NA,NA,NA,NA,NA,NA,NA,NA,NA,NA,NA,NA,NA,NA,NA,sub26
d3-instructions,32,214668,0.0-32.0,FALSE,TRUE,TRUE,TRUE,"""event"",""trial"",""time""
""fullscreenenter"",""5"",""19590""
","
","
","""event"",""trial"",""time""
""fullscreenenter"",""5"",""19590""
","
",NA,NA,NA,NA,NA,NA,NA,NA,NA,NA,NA,NA,NA,NA,NA,NA,NA,NA,NA,NA,NA,NA,sub26
d3-instructions,33,229032,0.0-33.0,FALSE,TRUE,TRUE,TRUE,"""event"",""trial"",""time""
""fullscreenenter"",""5"",""19590""
","
","
","""event"",""trial"",""time""
""fullscreenenter"",""5"",""19590""
","
",NA,NA,NA,NA,NA,NA,NA,NA,NA,NA,NA,NA,NA,NA,NA,NA,NA,NA,NA,NA,NA,NA,sub26
d3-animate-choice,34,232866,0.0-34.0,FALSE,TRUE,TRUE,TRUE,"""event"",""trial"",""time""
""fullscreenenter"",""5"",""19590""
","
","
","""event"",""trial"",""time""
""fullscreenenter"",""5"",""19590""
","
",1830.999999999971,NA,49,NA,NA,3000,1,NA,NA,images/tutgreenplanet.jpg,images/tutalien1,images/tutalien2,null,images/tutalien2,images/nothing.png,NA,practice,null,NA,NA,NA,NA,sub26
d3-animate-choice,35,236880,0.0-35.0,FALSE,TRUE,TRUE,TRUE,"""event"",""trial"",""time""
""fullscreenenter"",""5"",""19590""
","
","
","""event"",""trial"",""time""
""fullscreenenter"",""5"",""19590""
","
",2011.000000000029,NA,48,NA,NA,3000,1,NA,NA,images/tutgreenplanet.jpg,images/tutalien1,images/tutalien2,null,images/tutalien1,images/nothing.png,NA,practice,null,NA,NA,NA,NA,sub26
d3-animate-choice,36,239217,0.0-36.0,FALSE,TRUE,TRUE,TRUE,"""event"",""trial"",""time""
""fullscreenenter"",""5"",""19590""
","
","
","""event"",""trial"",""time""
""fullscreenenter"",""5"",""19590""
","
",333,NA,49,NA,NA,3000,1,NA,NA,images/tutgreenplanet.jpg,images/tutalien1,images/tutalien2,null,images/tutalien2,images/nothing.png,NA,practice,null,NA,NA,NA,NA,sub26
d3-animate-choice,37,241736,0.0-37.0,FALSE,TRUE,TRUE,TRUE,"""event"",""trial"",""time""
""fullscreenenter"",""5"",""19590""
","
","
","""event"",""trial"",""time""
""fullscreenenter"",""5"",""19590""
","
",517,NA,48,NA,NA,3000,1,NA,NA,images/tutgreenplanet.jpg,images/tutalien1,images/tutalien2,null,images/tutalien1,images/nothing.png,NA,practice,null,NA,NA,NA,NA,sub26
d3-animate-choice,38,244044,0.0-38.0,FALSE,TRUE,TRUE,TRUE,"""event"",""trial"",""time""
""fullscreenenter"",""5"",""19590""
","
","
","""event"",""trial"",""time""
""fullscreenenter"",""5"",""19590""
","
",305,NA,48,NA,NA,3000,1,NA,NA,images/tutgreenplanet.jpg,images/tutalien1,images/tutalien2,null,images/tutalien1,images/nothing.png,NA,practice,null,NA,NA,NA,NA,sub26
d3-animate-choice,39,246121,0.0-39.0,FALSE,TRUE,TRUE,TRUE,"""event"",""trial"",""time""
""fullscreenenter"",""5"",""19590""
","
","
","""event"",""trial"",""time""
""fullscreenenter"",""5"",""19590""
","
",75,NA,49,NA,NA,3000,1,NA,NA,images/tutgreenplanet.jpg,images/tutalien1,images/tutalien2,null,images/tutalien2,images/t.png,NA,practice,null,NA,NA,NA,NA,sub26
d3-animate-choice,40,248459,0.0-40.0,FALSE,TRUE,TRUE,TRUE,"""event"",""trial"",""time""
""fullscreenenter"",""5"",""19590""
","
","
","""event"",""trial"",""time""
""fullscreenenter"",""5"",""19590""
","
",337,NA,49,NA,NA,3000,1,NA,NA,images/tutgreenplanet.jpg,images/tutalien1,images/tutalien2,null,images/tutalien2,images/t.png,NA,practice,null,NA,NA,NA,NA,sub26
d3-animate-choice,41,250704,0.0-41.0,FALSE,TRUE,TRUE,TRUE,"""event"",""trial"",""time""
""fullscreenenter"",""5"",""19590""
","
","
","""event"",""trial"",""time""
""fullscreenenter"",""5"",""19590""
","
",242,NA,49,NA,NA,3000,1,NA,NA,images/tutgreenplanet.jpg,images/tutalien1,images/tutalien2,null,images/tutalien2,images/t.png,NA,practice,null,NA,NA,NA,NA,sub26
d3-animate-choice,42,252964,0.0-42.0,FALSE,TRUE,TRUE,TRUE,"""event"",""trial"",""time""
""fullscreenenter"",""5"",""19590""
","
","
","""event"",""trial"",""time""
""fullscreenenter"",""5"",""19590""
","
",258,NA,49,NA,NA,3000,1,NA,NA,images/tutgreenplanet.jpg,images/tutalien1,images/tutalien2,null,images/tutalien2,images/t.png,NA,practice,null,NA,NA,NA,NA,sub26
d3-animate-choice,43,255200,0.0-43.0,FALSE,TRUE,TRUE,TRUE,"""event"",""trial"",""time""
""fullscreenenter"",""5"",""19590""
","
","
","""event"",""trial"",""time""
""fullscreenenter"",""5"",""19590""
","
",235,NA,49,NA,NA,3000,1,1829.999999999971,49,images/tutgreenplanet.jpg,images/tutalien1,images/tutalien2,null,images/tutalien2,images/t.png,NA,practice,null,NA,NA,NA,NA,sub26
d3-instructions,44,268205,0.0-44.0,FALSE,TRUE,TRUE,TRUE,"""event"",""trial"",""time""
""fullscreenenter"",""5"",""19590""
","
","
","""event"",""trial"",""time""
""fullscreenenter"",""5"",""19590""
","
",NA,NA,NA,NA,NA,NA,NA,NA,NA,NA,NA,NA,NA,NA,NA,NA,NA,NA,NA,NA,NA,NA,sub26
d3-instructions,45,274759,0.0-45.0,FALSE,TRUE,TRUE,TRUE,"""event"",""trial"",""time""
""fullscreenenter"",""5"",""19590""
","
","
","""event"",""trial"",""time""
""fullscreenenter"",""5"",""19590""
","
",NA,NA,NA,NA,NA,NA,NA,NA,NA,NA,NA,NA,NA,NA,NA,NA,NA,NA,NA,NA,NA,NA,sub26
d3-instructions,46,282672,0.0-46.0,FALSE,TRUE,TRUE,TRUE,"""event"",""trial"",""time""
""fullscreenenter"",""5"",""19590""
","
","
","""event"",""trial"",""time""
""fullscreenenter"",""5"",""19590""
","
",NA,NA,NA,NA,NA,NA,NA,NA,NA,NA,NA,NA,NA,NA,NA,NA,NA,NA,NA,NA,NA,NA,sub26
d3-instructions,47,300359,0.0-47.0,FALSE,TRUE,TRUE,TRUE,"""event"",""trial"",""time""
""fullscreenenter"",""5"",""19590""
","
","
","""event"",""trial"",""time""
""fullscreenenter"",""5"",""19590""
","
",NA,NA,NA,NA,NA,NA,NA,NA,NA,NA,NA,NA,NA,NA,NA,NA,NA,NA,NA,NA,NA,NA,sub26
d3-instructions,48,307411,0.0-48.0,FALSE,TRUE,TRUE,TRUE,"""event"",""trial"",""time""
""fullscreenenter"",""5"",""19590""
","
","
","""event"",""trial"",""time""
""fullscreenenter"",""5"",""19590""
","
",NA,NA,NA,NA,NA,NA,NA,NA,NA,NA,NA,NA,NA,NA,NA,NA,NA,NA,NA,NA,NA,NA,sub26
d3-instructions,49,320556,0.0-49.0,FALSE,TRUE,TRUE,TRUE,"""event"",""trial"",""time""
""fullscreenenter"",""5"",""19590""
","
","
","""event"",""trial"",""time""
""fullscreenenter"",""5"",""19590""
","
",NA,NA,NA,NA,NA,NA,NA,NA,NA,NA,NA,NA,NA,NA,NA,NA,NA,NA,NA,NA,NA,NA,sub26
d3-instructions,50,329940,0.0-50.0,FALSE,TRUE,TRUE,TRUE,"""event"",""trial"",""time""
""fullscreenenter"",""5"",""19590""
","
","
","""event"",""trial"",""time""
""fullscreenenter"",""5"",""19590""
","
",NA,NA,NA,NA,NA,NA,NA,NA,NA,NA,NA,NA,NA,NA,NA,NA,NA,NA,NA,NA,NA,NA,sub26
d3-instructions,51,346523,0.0-51.0,FALSE,TRUE,TRUE,TRUE,"""event"",""trial"",""time""
""fullscreenenter"",""5"",""19590""
","
","
","""event"",""trial"",""time""
""fullscreenenter"",""5"",""19590""
","
",NA,NA,NA,NA,NA,NA,NA,NA,NA,NA,NA,NA,NA,NA,NA,NA,NA,NA,NA,NA,NA,NA,sub26
d3-instructions,52,349431,0.0-52.0,FALSE,TRUE,TRUE,TRUE,"""event"",""trial"",""time""
""fullscreenenter"",""5"",""19590""
","
","
","""event"",""trial"",""time""
""fullscreenenter"",""5"",""19590""
","
",NA,NA,NA,NA,NA,NA,NA,NA,NA,NA,NA,NA,NA,NA,NA,NA,NA,NA,NA,NA,NA,NA,sub26
d3-instructions,53,363635,0.0-53.0,FALSE,TRUE,TRUE,TRUE,"""event"",""trial"",""time""
""fullscreenenter"",""5"",""19590""
","
","
","""event"",""trial"",""time""
""fullscreenenter"",""5"",""19590""
","
",NA,NA,NA,NA,NA,NA,NA,NA,NA,NA,NA,NA,NA,NA,NA,NA,NA,NA,NA,NA,NA,NA,sub26
d3-instructions,54,377736,0.0-54.0,FALSE,TRUE,TRUE,TRUE,"""event"",""trial"",""time""
""fullscreenenter"",""5"",""19590""
","
","
","""event"",""trial"",""time""
""fullscreenenter"",""5"",""19590""
","
",NA,NA,NA,NA,NA,NA,NA,NA,NA,NA,NA,NA,NA,NA,NA,NA,NA,NA,NA,NA,NA,NA,sub26
d3-instructions,55,391924,0.0-55.0,FALSE,TRUE,TRUE,TRUE,"""event"",""trial"",""time""
""fullscreenenter"",""5"",""19590""
","
","
","""event"",""trial"",""time""
""fullscreenenter"",""5"",""19590""
","
",NA,NA,NA,NA,NA,NA,NA,NA,NA,NA,NA,NA,NA,NA,NA,NA,NA,NA,NA,NA,NA,NA,sub26
d3-instructions,56,399913,0.0-56.0,FALSE,TRUE,TRUE,TRUE,"""event"",""trial"",""time""
""fullscreenenter"",""5"",""19590""
","
","
","""event"",""trial"",""time""
""fullscreenenter"",""5"",""19590""
","
",NA,NA,NA,NA,NA,NA,NA,NA,NA,NA,NA,NA,NA,NA,NA,NA,NA,NA,NA,NA,NA,NA,sub26
d3-instructions,57,410305,0.0-57.0,FALSE,TRUE,TRUE,TRUE,"""event"",""trial"",""time""
""fullscreenenter"",""5"",""19590""
","
","
","""event"",""trial"",""time""
""fullscreenenter"",""5"",""19590""
","
",NA,NA,NA,NA,NA,NA,NA,NA,NA,NA,NA,NA,NA,NA,NA,NA,NA,NA,NA,NA,NA,NA,sub26
d3-instructions,58,424632,0.0-58.0,FALSE,TRUE,TRUE,TRUE,"""event"",""trial"",""time""
""fullscreenenter"",""5"",""19590""
","
","
","""event"",""trial"",""time""
""fullscreenenter"",""5"",""19590""
","
",NA,NA,NA,NA,NA,NA,NA,NA,NA,NA,NA,NA,NA,NA,NA,NA,NA,NA,NA,NA,NA,NA,sub26
d3-instructions,59,431460,0.0-59.0,FALSE,TRUE,TRUE,TRUE,"""event"",""trial"",""time""
""fullscreenenter"",""5"",""19590""
","
","
","""event"",""trial"",""time""
""fullscreenenter"",""5"",""19590""
","
",NA,NA,NA,NA,NA,NA,NA,NA,NA,NA,NA,NA,NA,NA,NA,NA,NA,NA,NA,NA,NA,NA,sub26
d3-instructions,60,439511,0.0-60.0,FALSE,TRUE,TRUE,TRUE,"""event"",""trial"",""time""
""fullscreenenter"",""5"",""19590""
","
","
","""event"",""trial"",""time""
""fullscreenenter"",""5"",""19590""
","
",NA,NA,NA,NA,NA,NA,NA,NA,NA,NA,NA,NA,NA,NA,NA,NA,NA,NA,NA,NA,NA,NA,sub26
d3-animate-choice,61,443112,0.0-61.0-0.0,FALSE,TRUE,TRUE,TRUE,"""event"",""trial"",""time""
""fullscreenenter"",""5"",""19590""
","
","
","""event"",""trial"",""time""
""fullscreenenter"",""5"",""19590""
","
",1597.9999999999418,NA,48,NA,NA,3000,1,NA,NA,images/earth.jpg,images/tutrocket2,images/tutrocket1,null,images/tutrocket2,NA,1,practice,null,2,NA,NA,NA,sub26
d3-animate-choice,62,446998,0.0-61.0-1.0,FALSE,TRUE,TRUE,TRUE,"""event"",""trial"",""time""
""fullscreenenter"",""5"",""19590""
","
","
","""event"",""trial"",""time""
""fullscreenenter"",""5"",""19590""
","
",1883,NA,49,NA,NA,3000,1,NA,NA,images/tutgreenplanet.jpg,images/tutalien2,images/tutalien1,images/tutrocket2,images/tutalien1,images/nothing.png,2,practice,false,1,rare,0,2020-06-02T19:10:29Z,sub26
two-step-fixation,63,448000,0.0-61.0-2.0,FALSE,TRUE,TRUE,TRUE,"""event"",""trial"",""time""
""fullscreenenter"",""5"",""19590""
","
","
","""event"",""trial"",""time""
""fullscreenenter"",""5"",""19590""
","
",NA,images/earth.jpg,NA,NA,NA,NA,NA,NA,NA,NA,NA,NA,NA,NA,NA,fixation,NA,NA,NA,NA,NA,NA,sub26
d3-animate-choice,64,451074,0.0-61.0-0.1,FALSE,TRUE,TRUE,TRUE,"""event"",""trial"",""time""
""fullscreenenter"",""5"",""19590""
","
","
","""event"",""trial"",""time""
""fullscreenenter"",""5"",""19590""
","
",1072,NA,49,NA,NA,3000,1,NA,NA,images/earth.jpg,images/tutrocket2,images/tutrocket1,null,images/tutrocket1,NA,1,practice,null,1,NA,NA,NA,sub26
d3-animate-choice,65,453639,0.0-61.0-1.1,FALSE,TRUE,TRUE,TRUE,"""event"",""trial"",""time""
""fullscreenenter"",""5"",""19590""
","
","
","""event"",""trial"",""time""
""fullscreenenter"",""5"",""19590""
","
",562.0000000000582,NA,48,NA,NA,3000,1,NA,NA,images/tutyellowplanet.jpg,images/tutalien4,images/tutalien3,images/tutrocket1,images/tutalien4,images/nothing.png,2,practice,false,2,rare,0,2020-06-02T19:10:36Z,sub26
two-step-fixation,66,454640,0.0-61.0-2.1,FALSE,TRUE,TRUE,TRUE,"""event"",""trial"",""time""
""fullscreenenter"",""5"",""19590""
","
","
","""event"",""trial"",""time""
""fullscreenenter"",""5"",""19590""
","
",NA,images/earth.jpg,NA,NA,NA,NA,NA,NA,NA,NA,NA,NA,NA,NA,NA,fixation,NA,NA,NA,NA,NA,NA,sub26
d3-animate-choice,67,457055,0.0-61.0-0.2,FALSE,TRUE,TRUE,TRUE,"""event"",""trial"",""time""
""fullscreenenter"",""5"",""19590""
","
","
","""event"",""trial"",""time""
""fullscreenenter"",""5"",""19590""
","
",412,NA,49,NA,NA,3000,1,NA,NA,images/earth.jpg,images/tutrocket2,images/tutrocket1,null,images/tutrocket1,NA,1,practice,null,1,NA,NA,NA,sub26
d3-animate-choice,68,459563,0.0-61.0-1.2,FALSE,TRUE,TRUE,TRUE,"""event"",""trial"",""time""
""fullscreenenter"",""5"",""19590""
","
","
","""event"",""trial"",""time""
""fullscreenenter"",""5"",""19590""
","
",505,NA,49,NA,NA,3000,1,NA,NA,images/tutgreenplanet.jpg,images/tutalien2,images/tutalien1,images/tutrocket1,images/tutalien1,images/nothing.png,2,practice,true,1,common,0,2020-06-02T19:10:42Z,sub26
two-step-fixation,69,460564,0.0-61.0-2.2,FALSE,TRUE,TRUE,TRUE,"""event"",""trial"",""time""
""fullscreenenter"",""5"",""19590""
","
","
","""event"",""trial"",""time""
""fullscreenenter"",""5"",""19590""
","
",NA,images/earth.jpg,NA,NA,NA,NA,NA,NA,NA,NA,NA,NA,NA,NA,NA,fixation,NA,NA,NA,NA,NA,NA,sub26
d3-animate-choice,70,462902,0.0-61.0-0.3,FALSE,TRUE,TRUE,TRUE,"""event"",""trial"",""time""
""fullscreenenter"",""5"",""19590""
","
","
","""event"",""trial"",""time""
""fullscreenenter"",""5"",""19590""
","
",336,NA,49,NA,NA,3000,1,NA,NA,images/earth.jpg,images/tutrocket2,images/tutrocket1,null,images/tutrocket1,NA,1,practice,null,1,NA,NA,NA,sub26
d3-animate-choice,71,466000,0.0-61.0-1.3,FALSE,TRUE,TRUE,TRUE,"""event"",""trial"",""time""
""fullscreenenter"",""5"",""19590""
","
","
","""event"",""trial"",""time""
""fullscreenenter"",""5"",""19590""
","
",1094,NA,48,NA,NA,3000,1,NA,NA,images/tutyellowplanet.jpg,images/tutalien4,images/tutalien3,images/tutrocket1,images/tutalien4,images/nothing.png,2,practice,false,2,rare,0,2020-06-02T19:10:48Z,sub26
two-step-fixation,72,467002,0.0-61.0-2.3,FALSE,TRUE,TRUE,TRUE,"""event"",""trial"",""time""
""fullscreenenter"",""5"",""19590""
","
","
","""event"",""trial"",""time""
""fullscreenenter"",""5"",""19590""
","
",NA,images/earth.jpg,NA,NA,NA,NA,NA,NA,NA,NA,NA,NA,NA,NA,NA,fixation,NA,NA,NA,NA,NA,NA,sub26
d3-animate-choice,73,469359,0.0-61.0-0.4,FALSE,TRUE,TRUE,TRUE,"""event"",""trial"",""time""
""fullscreenenter"",""5"",""19590""
","
","
","""event"",""trial"",""time""
""fullscreenenter"",""5"",""19590""
","
",355,NA,49,NA,NA,3000,1,"798,1211",4949,images/earth.jpg,images/tutrocket2,images/tutrocket1,null,images/tutrocket1,NA,1,practice,null,1,NA,NA,NA,sub26
d3-animate-choice,74,471771,0.0-61.0-1.4,FALSE,TRUE,TRUE,TRUE,"""event"",""trial"",""time""
""fullscreenenter"",""5"",""19590""
","
","
","""event"",""trial"",""time""
""fullscreenenter"",""5"",""19590""
","
",410.0000000000582,NA,49,NA,NA,3000,1,NA,NA,images/tutgreenplanet.jpg,images/tutalien2,images/tutalien1,images/tutrocket1,images/tutalien1,images/t.png,2,practice,true,1,common,1,2020-06-02T19:10:54Z,sub26
two-step-fixation,75,472773,0.0-61.0-2.4,FALSE,TRUE,TRUE,TRUE,"""event"",""trial"",""time""
""fullscreenenter"",""5"",""19590""
","
","
","""event"",""trial"",""time""
""fullscreenenter"",""5"",""19590""
","
",NA,images/earth.jpg,NA,NA,NA,NA,NA,NA,NA,NA,NA,NA,NA,NA,NA,fixation,NA,NA,NA,NA,NA,NA,sub26
d3-animate-choice,76,475450,0.0-61.0-0.5,FALSE,TRUE,TRUE,TRUE,"""event"",""trial"",""time""
""fullscreenenter"",""5"",""19590""
","
","
","""event"",""trial"",""time""
""fullscreenenter"",""5"",""19590""
","
",674.0000000000582,NA,48,NA,NA,3000,1,NA,NA,images/earth.jpg,images/tutrocket2,images/tutrocket1,null,images/tutrocket2,NA,1,practice,null,2,NA,NA,NA,sub26
d3-animate-choice,77,478266,0.0-61.0-1.5,FALSE,TRUE,TRUE,TRUE,"""event"",""trial"",""time""
""fullscreenenter"",""5"",""19590""
","
","
","""event"",""trial"",""time""
""fullscreenenter"",""5"",""19590""
","
",813,NA,49,NA,NA,3000,1,NA,NA,images/tutgreenplanet.jpg,images/tutalien2,images/tutalien1,images/tutrocket2,images/tutalien1,images/nothing.png,2,practice,false,1,rare,0,2020-06-02T19:11:01Z,sub26
two-step-fixation,78,479268,0.0-61.0-2.5,FALSE,TRUE,TRUE,TRUE,"""event"",""trial"",""time""
""fullscreenenter"",""5"",""19590""
","
","
","""event"",""trial"",""time""
""fullscreenenter"",""5"",""19590""
","
",NA,images/earth.jpg,NA,NA,NA,NA,NA,NA,NA,NA,NA,NA,NA,NA,NA,fixation,NA,NA,NA,NA,NA,NA,sub26
d3-animate-choice,79,481773,0.0-61.0-0.6,FALSE,TRUE,TRUE,TRUE,"""event"",""trial"",""time""
""fullscreenenter"",""5"",""19590""
","
","
","""event"",""trial"",""time""
""fullscreenenter"",""5"",""19590""
","
",503,NA,49,NA,NA,3000,1,NA,NA,images/earth.jpg,images/tutrocket2,images/tutrocket1,null,images/tutrocket1,NA,1,practice,null,1,NA,NA,NA,sub26
d3-animate-choice,80,484162,0.0-61.0-1.6,FALSE,TRUE,TRUE,TRUE,"""event"",""trial"",""time""
""fullscreenenter"",""5"",""19590""
","
","
","""event"",""trial"",""time""
""fullscreenenter"",""5"",""19590""
","
",386,NA,48,NA,NA,3000,1,NA,NA,images/tutgreenplanet.jpg,images/tutalien2,images/tutalien1,images/tutrocket1,images/tutalien2,images/nothing.png,2,practice,true,2,common,0,2020-06-02T19:11:07Z,sub26
two-step-fixation,81,485164,0.0-61.0-2.6,FALSE,TRUE,TRUE,TRUE,"""event"",""trial"",""time""
""fullscreenenter"",""5"",""19590""
","
","
","""event"",""trial"",""time""
""fullscreenenter"",""5"",""19590""
","
",NA,images/earth.jpg,NA,NA,NA,NA,NA,NA,NA,NA,NA,NA,NA,NA,NA,fixation,NA,NA,NA,NA,NA,NA,sub26
d3-animate-choice,82,488162,0.0-61.0-0.7,FALSE,TRUE,TRUE,TRUE,"""event"",""trial"",""time""
""fullscreenenter"",""5"",""19590""
","
","
","""event"",""trial"",""time""
""fullscreenenter"",""5"",""19590""
","
",996,NA,49,NA,NA,3000,1,NA,NA,images/earth.jpg,images/tutrocket2,images/tutrocket1,null,images/tutrocket1,NA,1,practice,null,1,NA,NA,NA,sub26
d3-animate-choice,83,491752,0.0-61.0-1.7,FALSE,TRUE,TRUE,TRUE,"""event"",""trial"",""time""
""fullscreenenter"",""5"",""19590""
","
","
","""event"",""trial"",""time""
""fullscreenenter"",""5"",""19590""
","
",1587,NA,49,NA,NA,3000,1,NA,NA,images/tutgreenplanet.jpg,images/tutalien2,images/tutalien1,images/tutrocket1,images/tutalien1,images/nothing.png,2,practice,true,1,common,0,2020-06-02T19:11:14Z,sub26
two-step-fixation,84,492754,0.0-61.0-2.7,FALSE,TRUE,TRUE,TRUE,"""event"",""trial"",""time""
""fullscreenenter"",""5"",""19590""
","
","
","""event"",""trial"",""time""
""fullscreenenter"",""5"",""19590""
","
",NA,images/earth.jpg,NA,NA,NA,NA,NA,NA,NA,NA,NA,NA,NA,NA,NA,fixation,NA,NA,NA,NA,NA,NA,sub26
d3-animate-choice,85,495340,0.0-61.0-0.8,FALSE,TRUE,TRUE,TRUE,"""event"",""trial"",""time""
""fullscreenenter"",""5"",""19590""
","
","
","""event"",""trial"",""time""
""fullscreenenter"",""5"",""19590""
","
",584,NA,48,NA,NA,3000,1,NA,NA,images/earth.jpg,images/tutrocket2,images/tutrocket1,null,images/tutrocket2,NA,1,practice,null,2,NA,NA,NA,sub26
d3-animate-choice,86,499343,0.0-61.0-1.8,FALSE,TRUE,TRUE,TRUE,"""event"",""trial"",""time""
""fullscreenenter"",""5"",""19590""
","
","
","""event"",""trial"",""time""
""fullscreenenter"",""5"",""19590""
","
",2138,NA,48,NA,NA,3000,1,NA,NA,images/tutgreenplanet.jpg,images/tutalien2,images/tutalien1,images/tutrocket2,images/tutalien2,images/nothing.png,2,practice,false,2,rare,0,2020-06-02T19:11:22Z,sub26
two-step-fixation,87,500344,0.0-61.0-2.8,FALSE,TRUE,TRUE,TRUE,"""event"",""trial"",""time""
""fullscreenenter"",""5"",""19590""
","
","
","""event"",""trial"",""time""
""fullscreenenter"",""5"",""19590""
","
",NA,images/earth.jpg,NA,NA,NA,NA,NA,NA,NA,NA,NA,NA,NA,NA,NA,fixation,NA,NA,NA,NA,NA,NA,sub26
d3-animate-choice,88,502501,0.0-61.0-0.9,FALSE,TRUE,TRUE,TRUE,"""event"",""trial"",""time""
""fullscreenenter"",""5"",""19590""
","
","
","""event"",""trial"",""time""
""fullscreenenter"",""5"",""19590""
","
",155,NA,49,NA,NA,3000,1,NA,NA,images/earth.jpg,images/tutrocket2,images/tutrocket1,null,images/tutrocket1,NA,1,practice,null,1,NA,NA,NA,sub26
d3-animate-choice,89,505313,0.0-61.0-1.9,FALSE,TRUE,TRUE,TRUE,"""event"",""trial"",""time""
""fullscreenenter"",""5"",""19590""
","
","
","""event"",""trial"",""time""
""fullscreenenter"",""5"",""19590""
","
",810.0000000000582,NA,49,NA,NA,3000,1,NA,NA,images/tutgreenplanet.jpg,images/tutalien2,images/tutalien1,images/tutrocket1,images/tutalien1,images/nothing.png,2,practice,true,1,common,0,2020-06-02T19:11:28Z,sub26
two-step-fixation,90,506315,0.0-61.0-2.9,FALSE,TRUE,TRUE,TRUE,"""event"",""trial"",""time""
""fullscreenenter"",""5"",""19590""
","
","
","""event"",""trial"",""time""
""fullscreenenter"",""5"",""19590""
","
",NA,images/earth.jpg,NA,NA,NA,NA,NA,NA,NA,NA,NA,NA,NA,NA,NA,fixation,NA,NA,NA,NA,NA,NA,sub26
d3-animate-choice,91,508885,0.0-61.0-0.10,FALSE,TRUE,TRUE,TRUE,"""event"",""trial"",""time""
""fullscreenenter"",""5"",""19590""
","
","
","""event"",""trial"",""time""
""fullscreenenter"",""5"",""19590""
","
",568,NA,49,NA,NA,3000,1,NA,NA,images/earth.jpg,images/tutrocket2,images/tutrocket1,null,images/tutrocket1,NA,1,practice,null,1,NA,NA,NA,sub26
d3-animate-choice,92,511528,0.0-61.0-1.10,FALSE,TRUE,TRUE,TRUE,"""event"",""trial"",""time""
""fullscreenenter"",""5"",""19590""
","
","
","""event"",""trial"",""time""
""fullscreenenter"",""5"",""19590""
","
",640,NA,49,NA,NA,3000,1,NA,NA,images/tutyellowplanet.jpg,images/tutalien4,images/tutalien3,images/tutrocket1,images/tutalien3,images/nothing.png,2,practice,false,1,rare,0,2020-06-02T19:11:34Z,sub26
two-step-fixation,93,512529,0.0-61.0-2.10,FALSE,TRUE,TRUE,TRUE,"""event"",""trial"",""time""
""fullscreenenter"",""5"",""19590""
","
","
","""event"",""trial"",""time""
""fullscreenenter"",""5"",""19590""
","
",NA,images/earth.jpg,NA,NA,NA,NA,NA,NA,NA,NA,NA,NA,NA,NA,NA,fixation,NA,NA,NA,NA,NA,NA,sub26
d3-animate-choice,94,514982,0.0-61.0-0.11,FALSE,TRUE,TRUE,TRUE,"""event"",""trial"",""time""
""fullscreenenter"",""5"",""19590""
","
","
","""event"",""trial"",""time""
""fullscreenenter"",""5"",""19590""
","
",450.9999999998836,NA,49,NA,NA,3000,1,NA,NA,images/earth.jpg,images/tutrocket2,images/tutrocket1,null,images/tutrocket1,NA,1,practice,null,1,NA,NA,NA,sub26
d3-animate-choice,95,517919,0.0-61.0-1.11,FALSE,TRUE,TRUE,TRUE,"""event"",""trial"",""time""
""fullscreenenter"",""5"",""19590""
","
","
","""event"",""trial"",""time""
""fullscreenenter"",""5"",""19590""
","
",933,NA,48,NA,NA,3000,1,NA,NA,images/tutgreenplanet.jpg,images/tutalien2,images/tutalien1,images/tutrocket1,images/tutalien2,images/nothing.png,2,practice,true,2,common,0,2020-06-02T19:11:40Z,sub26
two-step-fixation,96,518921,0.0-61.0-2.11,FALSE,TRUE,TRUE,TRUE,"""event"",""trial"",""time""
""fullscreenenter"",""5"",""19590""
","
","
","""event"",""trial"",""time""
""fullscreenenter"",""5"",""19590""
","
",NA,images/earth.jpg,NA,NA,NA,NA,NA,NA,NA,NA,NA,NA,NA,NA,NA,fixation,NA,NA,NA,NA,NA,NA,sub26
d3-animate-choice,97,521089,0.0-61.0-0.12,FALSE,TRUE,TRUE,TRUE,"""event"",""trial"",""time""
""fullscreenenter"",""5"",""19590""
","
","
","""event"",""trial"",""time""
""fullscreenenter"",""5"",""19590""
","
",165.00000000011642,NA,48,NA,NA,3000,1,NA,NA,images/earth.jpg,images/tutrocket2,images/tutrocket1,null,images/tutrocket2,NA,1,practice,null,2,NA,NA,NA,sub26
d3-animate-choice,98,523973,0.0-61.0-1.12,FALSE,TRUE,TRUE,TRUE,"""event"",""trial"",""time""
""fullscreenenter"",""5"",""19590""
","
","
","""event"",""trial"",""time""
""fullscreenenter"",""5"",""19590""
","
",882,NA,48,NA,NA,3000,1,NA,NA,images/tutgreenplanet.jpg,images/tutalien2,images/tutalien1,images/tutrocket2,images/tutalien2,images/t.png,2,practice,false,2,rare,1,2020-06-02T19:11:46Z,sub26
two-step-fixation,99,524975,0.0-61.0-2.12,FALSE,TRUE,TRUE,TRUE,"""event"",""trial"",""time""
""fullscreenenter"",""5"",""19590""
","
","
","""event"",""trial"",""time""
""fullscreenenter"",""5"",""19590""
","
",NA,images/earth.jpg,NA,NA,NA,NA,NA,NA,NA,NA,NA,NA,NA,NA,NA,fixation,NA,NA,NA,NA,NA,NA,sub26
d3-animate-choice,100,527361,0.0-61.0-0.13,FALSE,TRUE,TRUE,TRUE,"""event"",""trial"",""time""
""fullscreenenter"",""5"",""19590""
","
","
","""event"",""trial"",""time""
""fullscreenenter"",""5"",""19590""
","
",383,NA,48,NA,NA,3000,1,NA,NA,images/earth.jpg,images/tutrocket2,images/tutrocket1,null,images/tutrocket2,NA,1,practice,null,2,NA,NA,NA,sub26
d3-animate-choice,101,530110,0.0-61.0-1.13,FALSE,TRUE,TRUE,TRUE,"""event"",""trial"",""time""
""fullscreenenter"",""5"",""19590""
","
","
","""event"",""trial"",""time""
""fullscreenenter"",""5"",""19590""
","
",746,NA,48,NA,NA,3000,1,NA,NA,images/tutgreenplanet.jpg,images/tutalien2,images/tutalien1,images/tutrocket2,images/tutalien2,images/t.png,2,practice,false,2,rare,1,2020-06-02T19:11:52Z,sub26
two-step-fixation,102,531111,0.0-61.0-2.13,FALSE,TRUE,TRUE,TRUE,"""event"",""trial"",""time""
""fullscreenenter"",""5"",""19590""
","
","
","""event"",""trial"",""time""
""fullscreenenter"",""5"",""19590""
","
",NA,images/earth.jpg,NA,NA,NA,NA,NA,NA,NA,NA,NA,NA,NA,NA,NA,fixation,NA,NA,NA,NA,NA,NA,sub26
d3-animate-choice,103,533474,0.0-61.0-0.14,FALSE,TRUE,TRUE,TRUE,"""event"",""trial"",""time""
""fullscreenenter"",""5"",""19590""
","
","
","""event"",""trial"",""time""
""fullscreenenter"",""5"",""19590""
","
",359,NA,48,NA,NA,3000,1,NA,NA,images/earth.jpg,images/tutrocket2,images/tutrocket1,null,images/tutrocket2,NA,1,practice,null,2,NA,NA,NA,sub26
d3-animate-choice,104,537220,0.0-61.0-1.14,FALSE,TRUE,TRUE,TRUE,"""event"",""trial"",""time""
""fullscreenenter"",""5"",""19590""
","
","
","""event"",""trial"",""time""
""fullscreenenter"",""5"",""19590""
","
",1744,NA,48,NA,NA,3000,1,1751,49,images/tutyellowplanet.jpg,images/tutalien4,images/tutalien3,images/tutrocket2,images/tutalien4,images/t.png,2,practice,true,2,common,1,2020-06-02T19:12:00Z,sub26
two-step-fixation,105,538222,0.0-61.0-2.14,FALSE,TRUE,TRUE,TRUE,"""event"",""trial"",""time""
""fullscreenenter"",""5"",""19590""
","
","
","""event"",""trial"",""time""
""fullscreenenter"",""5"",""19590""
","
",NA,images/earth.jpg,NA,NA,NA,NA,NA,NA,NA,NA,NA,NA,NA,NA,NA,fixation,NA,NA,NA,NA,NA,NA,sub26
d3-animate-choice,106,540692,0.0-61.0-0.15,FALSE,TRUE,TRUE,TRUE,"""event"",""trial"",""time""
""fullscreenenter"",""5"",""19590""
","
","
","""event"",""trial"",""time""
""fullscreenenter"",""5"",""19590""
","
",468,NA,48,NA,NA,3000,1,NA,NA,images/earth.jpg,images/tutrocket2,images/tutrocket1,null,images/tutrocket2,NA,1,practice,null,2,NA,NA,NA,sub26
d3-animate-choice,107,543743,0.0-61.0-1.15,FALSE,TRUE,TRUE,TRUE,"""event"",""trial"",""time""
""fullscreenenter"",""5"",""19590""
","
","
","""event"",""trial"",""time""
""fullscreenenter"",""5"",""19590""
","
",1048.9999999998836,NA,48,NA,NA,3000,1,NA,NA,images/tutyellowplanet.jpg,images/tutalien4,images/tutalien3,images/tutrocket2,images/tutalien4,images/t.png,2,practice,true,2,common,1,2020-06-02T19:12:06Z,sub26
two-step-fixation,108,544745,0.0-61.0-2.15,FALSE,TRUE,TRUE,TRUE,"""event"",""trial"",""time""
""fullscreenenter"",""5"",""19590""
","
","
","""event"",""trial"",""time""
""fullscreenenter"",""5"",""19590""
","
",NA,images/earth.jpg,NA,NA,NA,NA,NA,NA,NA,NA,NA,NA,NA,NA,NA,fixation,NA,NA,NA,NA,NA,NA,sub26
d3-animate-choice,109,547363,0.0-61.0-0.16,FALSE,TRUE,TRUE,TRUE,"""event"",""trial"",""time""
""fullscreenenter"",""5"",""19590""
","
","
","""event"",""trial"",""time""
""fullscreenenter"",""5"",""19590""
","
",615,NA,48,NA,NA,3000,1,NA,NA,images/earth.jpg,images/tutrocket2,images/tutrocket1,null,images/tutrocket2,NA,1,practice,null,2,NA,NA,NA,sub26
d3-animate-choice,110,550134,0.0-61.0-1.16,FALSE,TRUE,TRUE,TRUE,"""event"",""trial"",""time""
""fullscreenenter"",""5"",""19590""
","
","
","""event"",""trial"",""time""
""fullscreenenter"",""5"",""19590""
","
",769,NA,48,NA,NA,3000,1,NA,NA,images/tutyellowplanet.jpg,images/tutalien4,images/tutalien3,images/tutrocket2,images/tutalien4,images/t.png,2,practice,true,2,common,1,2020-06-02T19:12:12Z,sub26
two-step-fixation,111,551136,0.0-61.0-2.16,FALSE,TRUE,TRUE,TRUE,"""event"",""trial"",""time""
""fullscreenenter"",""5"",""19590""
","
","
","""event"",""trial"",""time""
""fullscreenenter"",""5"",""19590""
","
",NA,images/earth.jpg,NA,NA,NA,NA,NA,NA,NA,NA,NA,NA,NA,NA,NA,fixation,NA,NA,NA,NA,NA,NA,sub26
d3-animate-choice,112,553211,0.0-61.0-0.17,FALSE,TRUE,TRUE,TRUE,"""event"",""trial"",""time""
""fullscreenenter"",""5"",""19590""
","
","
","""event"",""trial"",""time""
""fullscreenenter"",""5"",""19590""
","
",72,NA,49,NA,NA,3000,1,NA,NA,images/earth.jpg,images/tutrocket2,images/tutrocket1,null,images/tutrocket1,NA,1,practice,null,1,NA,NA,NA,sub26
d3-animate-choice,113,555626,0.0-61.0-1.17,FALSE,TRUE,TRUE,TRUE,"""event"",""trial"",""time""
""fullscreenenter"",""5"",""19590""
","
","
","""event"",""trial"",""time""
""fullscreenenter"",""5"",""19590""
","
",413,NA,48,NA,NA,3000,1,NA,NA,images/tutgreenplanet.jpg,images/tutalien2,images/tutalien1,images/tutrocket1,images/tutalien2,images/t.png,2,practice,true,2,common,1,2020-06-02T19:12:18Z,sub26
two-step-fixation,114,556628,0.0-61.0-2.17,FALSE,TRUE,TRUE,TRUE,"""event"",""trial"",""time""
""fullscreenenter"",""5"",""19590""
","
","
","""event"",""trial"",""time""
""fullscreenenter"",""5"",""19590""
","
",NA,images/earth.jpg,NA,NA,NA,NA,NA,NA,NA,NA,NA,NA,NA,NA,NA,fixation,NA,NA,NA,NA,NA,NA,sub26
d3-animate-choice,115,559936,0.0-61.0-0.18,FALSE,TRUE,TRUE,TRUE,"""event"",""trial"",""time""
""fullscreenenter"",""5"",""19590""
","
","
","""event"",""trial"",""time""
""fullscreenenter"",""5"",""19590""
","
",1306,NA,49,NA,NA,3000,1,NA,NA,images/earth.jpg,images/tutrocket2,images/tutrocket1,null,images/tutrocket1,NA,1,practice,null,1,NA,NA,NA,sub26
d3-animate-choice,116,562392,0.0-61.0-1.18,FALSE,TRUE,TRUE,TRUE,"""event"",""trial"",""time""
""fullscreenenter"",""5"",""19590""
","
","
","""event"",""trial"",""time""
""fullscreenenter"",""5"",""19590""
","
",453,NA,48,NA,NA,3000,1,NA,NA,images/tutgreenplanet.jpg,images/tutalien2,images/tutalien1,images/tutrocket1,images/tutalien2,images/nothing.png,2,practice,true,2,common,0,2020-06-02T19:12:25Z,sub26
two-step-fixation,117,563394,0.0-61.0-2.18,FALSE,TRUE,TRUE,TRUE,"""event"",""trial"",""time""
""fullscreenenter"",""5"",""19590""
","
","
","""event"",""trial"",""time""
""fullscreenenter"",""5"",""19590""
","
",NA,images/earth.jpg,NA,NA,NA,NA,NA,NA,NA,NA,NA,NA,NA,NA,NA,fixation,NA,NA,NA,NA,NA,NA,sub26
d3-animate-choice,118,565899,0.0-61.0-0.19,FALSE,TRUE,TRUE,TRUE,"""event"",""trial"",""time""
""fullscreenenter"",""5"",""19590""
","
","
","""event"",""trial"",""time""
""fullscreenenter"",""5"",""19590""
","
",502,NA,49,NA,NA,3000,1,NA,NA,images/earth.jpg,images/tutrocket2,images/tutrocket1,null,images/tutrocket1,NA,1,practice,null,1,NA,NA,NA,sub26
d3-animate-choice,119,568414,0.0-61.0-1.19,FALSE,TRUE,TRUE,TRUE,"""event"",""trial"",""time""
""fullscreenenter"",""5"",""19590""
","
","
","""event"",""trial"",""time""
""fullscreenenter"",""5"",""19590""
","
",512,NA,49,NA,NA,3000,1,NA,NA,images/tutgreenplanet.jpg,images/tutalien2,images/tutalien1,images/tutrocket1,images/tutalien1,images/nothing.png,2,practice,true,1,common,0,2020-06-02T19:12:31Z,sub26
two-step-fixation,120,569418,0.0-61.0-2.19,FALSE,TRUE,TRUE,TRUE,"""event"",""trial"",""time""
""fullscreenenter"",""5"",""19590""
","
","
","""event"",""trial"",""time""
""fullscreenenter"",""5"",""19590""
","
",NA,images/earth.jpg,NA,NA,NA,NA,NA,NA,NA,NA,NA,NA,NA,NA,NA,fixation,NA,NA,NA,NA,NA,NA,sub26
d3-instructions,121,576740,0.0-62.0,FALSE,TRUE,TRUE,TRUE,"""event"",""trial"",""time""
""fullscreenenter"",""5"",""19590""
","
","
","""event"",""trial"",""time""
""fullscreenenter"",""5"",""19590""
","
",NA,NA,NA,NA,NA,NA,NA,NA,NA,NA,NA,NA,NA,NA,NA,NA,NA,NA,NA,NA,NA,NA,sub26
audio-keyboard-response,122,582014,0.0-63.0,FALSE,TRUE,TRUE,TRUE,"""event"",""trial"",""time""
""fullscreenenter"",""5"",""19590""
","
","
","""event"",""trial"",""time""
""fullscreenenter"",""5"",""19590""
","
",5271,audio/instructions/treasure_feedback.wav,32,NA,NA,NA,NA,NA,NA,NA,NA,NA,NA,NA,NA,NA,NA,NA,NA,NA,NA,NA,sub26
d3-instructions,123,602394,0.0-64.0,FALSE,TRUE,TRUE,TRUE,"""event"",""trial"",""time""
""fullscreenenter"",""5"",""19590""
","
","
","""event"",""trial"",""time""
""fullscreenenter"",""5"",""19590""
","
",NA,NA,NA,NA,NA,NA,NA,NA,NA,NA,NA,NA,NA,NA,NA,NA,NA,NA,NA,NA,NA,NA,sub26
d3-instructions,124,619657,0.0-65.0,FALSE,TRUE,TRUE,TRUE,"""event"",""trial"",""time""
""fullscreenenter"",""5"",""19590""
","
","
","""event"",""trial"",""time""
""fullscreenenter"",""5"",""19590""
","
",NA,NA,NA,NA,NA,NA,NA,NA,NA,NA,NA,NA,NA,NA,NA,NA,NA,NA,NA,NA,NA,NA,sub26
d3-instructions,125,646847,0.0-66.0,FALSE,TRUE,TRUE,TRUE,"""event"",""trial"",""time""
""fullscreenenter"",""5"",""19590""
","
","
","""event"",""trial"",""time""
""fullscreenenter"",""5"",""19590""
","
",NA,NA,NA,NA,NA,NA,NA,NA,NA,NA,NA,NA,NA,NA,NA,NA,NA,NA,NA,NA,NA,NA,sub26
d3-instructions,126,662720,0.0-67.0,FALSE,TRUE,TRUE,TRUE,"""event"",""trial"",""time""
""fullscreenenter"",""5"",""19590""
","
","
","""event"",""trial"",""time""
""fullscreenenter"",""5"",""19590""
","
",NA,NA,NA,NA,NA,NA,NA,NA,NA,NA,NA,NA,NA,NA,NA,NA,NA,NA,NA,NA,NA,NA,sub26
d3-instructions,127,671232,0.0-68.0,FALSE,TRUE,TRUE,TRUE,"""event"",""trial"",""time""
""fullscreenenter"",""5"",""19590""
","
","
","""event"",""trial"",""time""
""fullscreenenter"",""5"",""19590""
","
",NA,NA,NA,NA,NA,NA,NA,NA,NA,NA,NA,NA,NA,NA,NA,NA,NA,NA,NA,NA,NA,NA,sub26
instructions-quiz,128,677455,0.0-69.0,FALSE,TRUE,TRUE,TRUE,"""event"",""trial"",""time""
""fullscreenenter"",""5"",""19590""
","
","
","""event"",""trial"",""time""
""fullscreenenter"",""5"",""19590""
","
",6222,audio/quiz/Q1_Prompt.wav,NA,1,NA,NA,NA,NA,NA,NA,NA,NA,NA,NA,NA,NA,NA,NA,NA,NA,NA,NA,sub26
audio-keyboard-response,129,685765,0.0-70.0,FALSE,TRUE,TRUE,TRUE,"""event"",""trial"",""time""
""fullscreenenter"",""5"",""19590""
","
","
","""event"",""trial"",""time""
""fullscreenenter"",""5"",""19590""
","
",8307,audio/quiz/Q1_Correct.wav,32,NA,NA,NA,NA,NA,NA,NA,NA,NA,NA,NA,NA,NA,NA,NA,NA,NA,NA,NA,sub26
instructions-quiz,130,694684,0.0-71.0,FALSE,TRUE,TRUE,TRUE,"""event"",""trial"",""time""
""fullscreenenter"",""5"",""19590""
","
","
","""event"",""trial"",""time""
""fullscreenenter"",""5"",""19590""
","
",8917,audio/quiz/Q2_Prompt.wav,NA,0,NA,NA,NA,NA,NA,NA,NA,NA,NA,NA,NA,NA,NA,NA,NA,NA,NA,NA,sub26
audio-keyboard-response,131,707304,0.0-72.0,FALSE,TRUE,TRUE,TRUE,"""event"",""trial"",""time""
""fullscreenenter"",""5"",""19590""
","
","
","""event"",""trial"",""time""
""fullscreenenter"",""5"",""19590""
","
",12620,audio/quiz/Q2_Correct.wav,32,NA,NA,NA,NA,NA,NA,NA,NA,NA,NA,NA,NA,NA,NA,NA,NA,NA,NA,NA,sub26
instructions-quiz,132,711925,0.0-73.0,FALSE,TRUE,TRUE,TRUE,"""event"",""trial"",""time""
""fullscreenenter"",""5"",""19590""
","
","
","""event"",""trial"",""time""
""fullscreenenter"",""5"",""19590""
","
",4620,audio/quiz/Q3_Prompt.wav,NA,1,NA,NA,NA,NA,NA,NA,NA,NA,NA,NA,NA,NA,NA,NA,NA,NA,NA,NA,sub26
audio-keyboard-response,133,717724,0.0-74.0,FALSE,TRUE,TRUE,TRUE,"""event"",""trial"",""time""
""fullscreenenter"",""5"",""19590""
","
","
","""event"",""trial"",""time""
""fullscreenenter"",""5"",""19590""
","
",null,audio/quiz/Q3_Correct.wav,null,NA,NA,NA,NA,NA,NA,NA,NA,NA,NA,NA,NA,NA,NA,NA,NA,NA,NA,NA,sub26
d3-instructions,134,731774,0.0-75.0,FALSE,TRUE,TRUE,TRUE,"""event"",""trial"",""time""
""fullscreenenter"",""5"",""19590""
","
","
","""event"",""trial"",""time""
""fullscreenenter"",""5"",""19590""
","
",NA,NA,NA,NA,NA,NA,NA,NA,NA,NA,NA,NA,NA,NA,NA,NA,NA,NA,NA,NA,NA,NA,sub26
d3-animate-choice,135,735172,0.0-76.0-0.0,FALSE,TRUE,TRUE,TRUE,"""event"",""trial"",""time""
""fullscreenenter"",""5"",""19590""
","
","
","""event"",""trial"",""time""
""fullscreenenter"",""5"",""19590""
","
",1396.0000000001164,NA,49,NA,NA,3000,1,NA,NA,images/earth.jpg,images/rocket1,images/rocket2,null,images/rocket2,NA,1,real,null,1,NA,NA,NA,sub26
d3-animate-choice,136,738460,0.0-76.0-1.0,FALSE,TRUE,TRUE,TRUE,"""event"",""trial"",""time""
""fullscreenenter"",""5"",""19590""
","
","
","""event"",""trial"",""time""
""fullscreenenter"",""5"",""19590""
","
",1285,NA,48,NA,NA,3000,1,NA,NA,images/redplanet1.jpg,images/alien2,images/alien1,images/rocket2,images/alien2,images/nothing.png,2,real,false,2,rare,0,2020-06-02T19:15:21Z,sub26
two-step-fixation,137,739461,0.0-76.0-2.0,FALSE,TRUE,TRUE,TRUE,"""event"",""trial"",""time""
""fullscreenenter"",""5"",""19590""
","
","
","""event"",""trial"",""time""
""fullscreenenter"",""5"",""19590""
","
",NA,images/earth.jpg,NA,NA,NA,NA,NA,NA,NA,NA,NA,NA,NA,NA,NA,fixation,NA,NA,NA,NA,NA,NA,sub26
d3-animate-choice,138,742016,0.0-76.0-0.1,FALSE,TRUE,TRUE,TRUE,"""event"",""trial"",""time""
""fullscreenenter"",""5"",""19590""
","
","
","""event"",""trial"",""time""
""fullscreenenter"",""5"",""19590""
","
",553,NA,49,NA,NA,3000,1,NA,NA,images/earth.jpg,images/rocket1,images/rocket2,null,images/rocket2,NA,1,real,null,1,NA,NA,NA,sub26
d3-animate-choice,139,744480,0.0-76.0-1.1,FALSE,TRUE,TRUE,TRUE,"""event"",""trial"",""time""
""fullscreenenter"",""5"",""19590""
","
","
","""event"",""trial"",""time""
""fullscreenenter"",""5"",""19590""
","
",462,NA,48,NA,NA,3000,1,NA,NA,images/purpleplanet.jpg,images/alien4,images/alien3,images/rocket2,images/alien4,images/t.png,2,real,true,2,common,1,2020-06-02T19:15:27Z,sub26
two-step-fixation,140,745481,0.0-76.0-2.1,FALSE,TRUE,TRUE,TRUE,"""event"",""trial"",""time""
""fullscreenenter"",""5"",""19590""
","
","
","""event"",""trial"",""time""
""fullscreenenter"",""5"",""19590""
","
",NA,images/earth.jpg,NA,NA,NA,NA,NA,NA,NA,NA,NA,NA,NA,NA,NA,fixation,NA,NA,NA,NA,NA,NA,sub26
d3-animate-choice,141,748037,0.0-76.0-0.2,FALSE,TRUE,TRUE,TRUE,"""event"",""trial"",""time""
""fullscreenenter"",""5"",""19590""
","
","
","""event"",""trial"",""time""
""fullscreenenter"",""5"",""19590""
","
",553,NA,48,NA,NA,3000,1,NA,NA,images/earth.jpg,images/rocket1,images/rocket2,null,images/rocket1,NA,1,real,null,2,NA,NA,NA,sub26
d3-animate-choice,142,751097,0.0-76.0-1.2,FALSE,TRUE,TRUE,TRUE,"""event"",""trial"",""time""
""fullscreenenter"",""5"",""19590""
","
","
","""event"",""trial"",""time""
""fullscreenenter"",""5"",""19590""
","
",1057,NA,48,NA,NA,3000,1,NA,NA,images/redplanet1.jpg,images/alien2,images/alien1,images/rocket1,images/alien2,images/nothing.png,2,real,true,2,common,0,2020-06-02T19:15:33Z,sub26
two-step-fixation,143,752099,0.0-76.0-2.2,FALSE,TRUE,TRUE,TRUE,"""event"",""trial"",""time""
""fullscreenenter"",""5"",""19590""
","
","
","""event"",""trial"",""time""
""fullscreenenter"",""5"",""19590""
","
",NA,images/earth.jpg,NA,NA,NA,NA,NA,NA,NA,NA,NA,NA,NA,NA,NA,fixation,NA,NA,NA,NA,NA,NA,sub26
d3-animate-choice,144,755724,0.0-76.0-0.3,FALSE,TRUE,TRUE,TRUE,"""event"",""trial"",""time""
""fullscreenenter"",""5"",""19590""
","
","
","""event"",""trial"",""time""
""fullscreenenter"",""5"",""19590""
","
",1621.9999999998836,NA,49,NA,NA,3000,1,NA,NA,images/earth.jpg,images/rocket1,images/rocket2,null,images/rocket2,NA,1,real,null,1,NA,NA,NA,sub26
d3-animate-choice,145,758847,0.0-76.0-1.3,FALSE,TRUE,TRUE,TRUE,"""event"",""trial"",""time""
""fullscreenenter"",""5"",""19590""
","
","
","""event"",""trial"",""time""
""fullscreenenter"",""5"",""19590""
","
",1120.9999999998836,NA,49,NA,NA,3000,1,NA,NA,images/purpleplanet.jpg,images/alien4,images/alien3,images/rocket2,images/alien3,images/nothing.png,2,real,true,1,common,0,2020-06-02T19:15:41Z,sub26
two-step-fixation,146,759849,0.0-76.0-2.3,FALSE,TRUE,TRUE,TRUE,"""event"",""trial"",""time""
""fullscreenenter"",""5"",""19590""
","
","
","""event"",""trial"",""time""
""fullscreenenter"",""5"",""19590""
","
",NA,images/earth.jpg,NA,NA,NA,NA,NA,NA,NA,NA,NA,NA,NA,NA,NA,fixation,NA,NA,NA,NA,NA,NA,sub26
d3-animate-choice,147,762551,0.0-76.0-0.4,FALSE,TRUE,TRUE,TRUE,"""event"",""trial"",""time""
""fullscreenenter"",""5"",""19590""
","
","
","""event"",""trial"",""time""
""fullscreenenter"",""5"",""19590""
","
",698.9999999998836,NA,48,NA,NA,3000,1,NA,NA,images/earth.jpg,images/rocket1,images/rocket2,null,images/rocket1,NA,1,real,null,2,NA,NA,NA,sub26
d3-animate-choice,148,765474,0.0-76.0-1.4,FALSE,TRUE,TRUE,TRUE,"""event"",""trial"",""time""
""fullscreenenter"",""5"",""19590""
","
","
","""event"",""trial"",""time""
""fullscreenenter"",""5"",""19590""
","
",920.9999999998836,NA,48,NA,NA,3000,1,NA,NA,images/purpleplanet.jpg,images/alien4,images/alien3,images/rocket1,images/alien4,images/t.png,2,real,false,2,rare,1,2020-06-02T19:15:48Z,sub26
two-step-fixation,149,766475,0.0-76.0-2.4,FALSE,TRUE,TRUE,TRUE,"""event"",""trial"",""time""
""fullscreenenter"",""5"",""19590""
","
","
","""event"",""trial"",""time""
""fullscreenenter"",""5"",""19590""
","
",NA,images/earth.jpg,NA,NA,NA,NA,NA,NA,NA,NA,NA,NA,NA,NA,NA,fixation,NA,NA,NA,NA,NA,NA,sub26
d3-animate-choice,150,769075,0.0-76.0-0.5,FALSE,TRUE,TRUE,TRUE,"""event"",""trial"",""time""
""fullscreenenter"",""5"",""19590""
","
","
","""event"",""trial"",""time""
""fullscreenenter"",""5"",""19590""
","
",597,NA,48,NA,NA,3000,1,NA,NA,images/earth.jpg,images/rocket1,images/rocket2,null,images/rocket1,NA,1,real,null,2,NA,NA,NA,sub26
d3-animate-choice,151,772251,0.0-76.0-1.5,FALSE,TRUE,TRUE,TRUE,"""event"",""trial"",""time""
""fullscreenenter"",""5"",""19590""
","
","
","""event"",""trial"",""time""
""fullscreenenter"",""5"",""19590""
","
",1173,NA,49,NA,NA,3000,1,NA,NA,images/redplanet1.jpg,images/alien2,images/alien1,images/rocket1,images/alien1,images/nothing.png,2,real,true,1,common,0,2020-06-02T19:15:55Z,sub26
two-step-fixation,152,773253,0.0-76.0-2.5,FALSE,TRUE,TRUE,TRUE,"""event"",""trial"",""time""
""fullscreenenter"",""5"",""19590""
","
","
","""event"",""trial"",""time""
""fullscreenenter"",""5"",""19590""
","
",NA,images/earth.jpg,NA,NA,NA,NA,NA,NA,NA,NA,NA,NA,NA,NA,NA,fixation,NA,NA,NA,NA,NA,NA,sub26
d3-animate-choice,153,775562,0.0-76.0-0.6,FALSE,TRUE,TRUE,TRUE,"""event"",""trial"",""time""
""fullscreenenter"",""5"",""19590""
","
","
","""event"",""trial"",""time""
""fullscreenenter"",""5"",""19590""
","
",306.9999999998836,NA,48,NA,NA,3000,1,NA,NA,images/earth.jpg,images/rocket1,images/rocket2,null,images/rocket1,NA,1,real,null,2,NA,NA,NA,sub26
d3-animate-choice,154,778250,0.0-76.0-1.6,FALSE,TRUE,TRUE,TRUE,"""event"",""trial"",""time""
""fullscreenenter"",""5"",""19590""
","
","
","""event"",""trial"",""time""
""fullscreenenter"",""5"",""19590""
","
",686.0000000001164,NA,49,NA,NA,3000,1,NA,NA,images/redplanet1.jpg,images/alien2,images/alien1,images/rocket1,images/alien1,images/t.png,2,real,true,1,common,1,2020-06-02T19:16:01Z,sub26
two-step-fixation,155,779252,0.0-76.0-2.6,FALSE,TRUE,TRUE,TRUE,"""event"",""trial"",""time""
""fullscreenenter"",""5"",""19590""
","
","
","""event"",""trial"",""time""
""fullscreenenter"",""5"",""19590""
","
",NA,images/earth.jpg,NA,NA,NA,NA,NA,NA,NA,NA,NA,NA,NA,NA,NA,fixation,NA,NA,NA,NA,NA,NA,sub26
d3-animate-choice,156,781598,0.0-76.0-0.7,FALSE,TRUE,TRUE,TRUE,"""event"",""trial"",""time""
""fullscreenenter"",""5"",""19590""
","
","
","""event"",""trial"",""time""
""fullscreenenter"",""5"",""19590""
","
",343,NA,49,NA,NA,3000,1,NA,NA,images/earth.jpg,images/rocket1,images/rocket2,null,images/rocket2,NA,1,real,null,1,NA,NA,NA,sub26
d3-animate-choice,157,784059,0.0-76.0-1.7,FALSE,TRUE,TRUE,TRUE,"""event"",""trial"",""time""
""fullscreenenter"",""5"",""19590""
","
","
","""event"",""trial"",""time""
""fullscreenenter"",""5"",""19590""
","
",459.0000000001164,NA,48,NA,NA,3000,1,NA,NA,images/purpleplanet.jpg,images/alien4,images/alien3,images/rocket2,images/alien4,images/t.png,2,real,true,2,common,1,2020-06-02T19:16:06Z,sub26
two-step-fixation,158,785060,0.0-76.0-2.7,FALSE,TRUE,TRUE,TRUE,"""event"",""trial"",""time""
""fullscreenenter"",""5"",""19590""
","
","
","""event"",""trial"",""time""
""fullscreenenter"",""5"",""19590""
","
",NA,images/earth.jpg,NA,NA,NA,NA,NA,NA,NA,NA,NA,NA,NA,NA,NA,fixation,NA,NA,NA,NA,NA,NA,sub26
d3-animate-choice,159,787587,0.0-76.0-0.8,FALSE,TRUE,TRUE,TRUE,"""event"",""trial"",""time""
""fullscreenenter"",""5"",""19590""
","
","
","""event"",""trial"",""time""
""fullscreenenter"",""5"",""19590""
","
",524,NA,49,NA,NA,3000,1,NA,NA,images/earth.jpg,images/rocket1,images/rocket2,null,images/rocket2,NA,1,real,null,1,NA,NA,NA,sub26
d3-animate-choice,160,790838,0.0-76.0-1.8,FALSE,TRUE,TRUE,TRUE,"""event"",""trial"",""time""
""fullscreenenter"",""5"",""19590""
","
","
","""event"",""trial"",""time""
""fullscreenenter"",""5"",""19590""
","
",1250,NA,49,NA,NA,3000,1,NA,NA,images/redplanet1.jpg,images/alien2,images/alien1,images/rocket2,images/alien1,images/t.png,2,real,false,1,rare,1,2020-06-02T19:16:13Z,sub26
two-step-fixation,161,791839,0.0-76.0-2.8,FALSE,TRUE,TRUE,TRUE,"""event"",""trial"",""time""
""fullscreenenter"",""5"",""19590""
","
","
","""event"",""trial"",""time""
""fullscreenenter"",""5"",""19590""
","
",NA,images/earth.jpg,NA,NA,NA,NA,NA,NA,NA,NA,NA,NA,NA,NA,NA,fixation,NA,NA,NA,NA,NA,NA,sub26
d3-animate-choice,162,794603,0.0-76.0-0.9,FALSE,TRUE,TRUE,TRUE,"""event"",""trial"",""time""
""fullscreenenter"",""5"",""19590""
","
","
","""event"",""trial"",""time""
""fullscreenenter"",""5"",""19590""
","
",761,NA,48,NA,NA,3000,1,NA,NA,images/earth.jpg,images/rocket1,images/rocket2,null,images/rocket1,NA,1,real,null,2,NA,NA,NA,sub26
d3-animate-choice,163,797524,0.0-76.0-1.9,FALSE,TRUE,TRUE,TRUE,"""event"",""trial"",""time""
""fullscreenenter"",""5"",""19590""
","
","
","""event"",""trial"",""time""
""fullscreenenter"",""5"",""19590""
","
",917,NA,49,NA,NA,3000,1,NA,NA,images/redplanet1.jpg,images/alien2,images/alien1,images/rocket1,images/alien1,images/t.png,2,real,true,1,common,1,2020-06-02T19:16:20Z,sub26
two-step-fixation,164,798526,0.0-76.0-2.9,FALSE,TRUE,TRUE,TRUE,"""event"",""trial"",""time""
""fullscreenenter"",""5"",""19590""
","
","
","""event"",""trial"",""time""
""fullscreenenter"",""5"",""19590""
","
",NA,images/earth.jpg,NA,NA,NA,NA,NA,NA,NA,NA,NA,NA,NA,NA,NA,fixation,NA,NA,NA,NA,NA,NA,sub26
d3-animate-choice,165,801066,0.0-76.0-0.10,FALSE,TRUE,TRUE,TRUE,"""event"",""trial"",""time""
""fullscreenenter"",""5"",""19590""
","
","
","""event"",""trial"",""time""
""fullscreenenter"",""5"",""19590""
","
",538,NA,48,NA,NA,3000,1,NA,NA,images/earth.jpg,images/rocket1,images/rocket2,null,images/rocket1,NA,1,real,null,2,NA,NA,NA,sub26
d3-animate-choice,166,804122,0.0-76.0-1.10,FALSE,TRUE,TRUE,TRUE,"""event"",""trial"",""time""
""fullscreenenter"",""5"",""19590""
","
","
","""event"",""trial"",""time""
""fullscreenenter"",""5"",""19590""
","
",1053.0000000001164,NA,49,NA,NA,3000,1,NA,NA,images/redplanet1.jpg,images/alien2,images/alien1,images/rocket1,images/alien1,images/nothing.png,2,real,true,1,common,0,2020-06-02T19:16:26Z,sub26
two-step-fixation,167,805124,0.0-76.0-2.10,FALSE,TRUE,TRUE,TRUE,"""event"",""trial"",""time""
""fullscreenenter"",""5"",""19590""
","
","
","""event"",""trial"",""time""
""fullscreenenter"",""5"",""19590""
","
",NA,images/earth.jpg,NA,NA,NA,NA,NA,NA,NA,NA,NA,NA,NA,NA,NA,fixation,NA,NA,NA,NA,NA,NA,sub26
d3-animate-choice,168,807919,0.0-76.0-0.11,FALSE,TRUE,TRUE,TRUE,"""event"",""trial"",""time""
""fullscreenenter"",""5"",""19590""
","
","
","""event"",""trial"",""time""
""fullscreenenter"",""5"",""19590""
","
",791.9999999998836,NA,49,NA,NA,3000,1,NA,NA,images/earth.jpg,images/rocket1,images/rocket2,null,images/rocket2,NA,1,real,null,1,NA,NA,NA,sub26
d3-animate-choice,169,811454,0.0-76.0-1.11,FALSE,TRUE,TRUE,TRUE,"""event"",""trial"",""time""
""fullscreenenter"",""5"",""19590""
","
","
","""event"",""trial"",""time""
""fullscreenenter"",""5"",""19590""
","
",1532.0000000001164,NA,49,NA,NA,3000,1,NA,NA,images/purpleplanet.jpg,images/alien4,images/alien3,images/rocket2,images/alien3,images/nothing.png,2,real,true,1,common,0,2020-06-02T19:16:34Z,sub26
two-step-fixation,170,812455,0.0-76.0-2.11,FALSE,TRUE,TRUE,TRUE,"""event"",""trial"",""time""
""fullscreenenter"",""5"",""19590""
","
","
","""event"",""trial"",""time""
""fullscreenenter"",""5"",""19590""
","
",NA,images/earth.jpg,NA,NA,NA,NA,NA,NA,NA,NA,NA,NA,NA,NA,NA,fixation,NA,NA,NA,NA,NA,NA,sub26
d3-animate-choice,171,814530,0.0-76.0-0.12,FALSE,TRUE,TRUE,TRUE,"""event"",""trial"",""time""
""fullscreenenter"",""5"",""19590""
","
","
","""event"",""trial"",""time""
""fullscreenenter"",""5"",""19590""
","
",72,NA,49,NA,NA,3000,1,NA,NA,images/earth.jpg,images/rocket1,images/rocket2,null,images/rocket2,NA,1,real,null,1,NA,NA,NA,sub26
d3-animate-choice,172,816903,0.0-76.0-1.12,FALSE,TRUE,TRUE,TRUE,"""event"",""trial"",""time""
""fullscreenenter"",""5"",""19590""
","
","
","""event"",""trial"",""time""
""fullscreenenter"",""5"",""19590""
","
",370,NA,48,NA,NA,3000,1,NA,NA,images/purpleplanet.jpg,images/alien4,images/alien3,images/rocket2,images/alien4,images/t.png,2,real,true,2,common,1,2020-06-02T19:16:39Z,sub26
two-step-fixation,173,817905,0.0-76.0-2.12,FALSE,TRUE,TRUE,TRUE,"""event"",""trial"",""time""
""fullscreenenter"",""5"",""19590""
","
","
","""event"",""trial"",""time""
""fullscreenenter"",""5"",""19590""
","
",NA,images/earth.jpg,NA,NA,NA,NA,NA,NA,NA,NA,NA,NA,NA,NA,NA,fixation,NA,NA,NA,NA,NA,NA,sub26
d3-animate-choice,174,820257,0.0-76.0-0.13,FALSE,TRUE,TRUE,TRUE,"""event"",""trial"",""time""
""fullscreenenter"",""5"",""19590""
","
","
","""event"",""trial"",""time""
""fullscreenenter"",""5"",""19590""
","
",350,NA,48,NA,NA,3000,1,NA,NA,images/earth.jpg,images/rocket1,images/rocket2,null,images/rocket1,NA,1,real,null,2,NA,NA,NA,sub26
d3-animate-choice,175,823390,0.0-76.0-1.13,FALSE,TRUE,TRUE,TRUE,"""event"",""trial"",""time""
""fullscreenenter"",""5"",""19590""
","
","
","""event"",""trial"",""time""
""fullscreenenter"",""5"",""19590""
","
",1130,NA,48,NA,NA,3000,1,NA,NA,images/redplanet1.jpg,images/alien2,images/alien1,images/rocket1,images/alien2,images/t.png,2,real,true,2,common,1,2020-06-02T19:16:46Z,sub26
two-step-fixation,176,824391,0.0-76.0-2.13,FALSE,TRUE,TRUE,TRUE,"""event"",""trial"",""time""
""fullscreenenter"",""5"",""19590""
","
","
","""event"",""trial"",""time""
""fullscreenenter"",""5"",""19590""
","
",NA,images/earth.jpg,NA,NA,NA,NA,NA,NA,NA,NA,NA,NA,NA,NA,NA,fixation,NA,NA,NA,NA,NA,NA,sub26
d3-animate-choice,177,826953,0.0-76.0-0.14,FALSE,TRUE,TRUE,TRUE,"""event"",""trial"",""time""
""fullscreenenter"",""5"",""19590""
","
","
","""event"",""trial"",""time""
""fullscreenenter"",""5"",""19590""
","
",561.0000000001164,NA,48,NA,NA,3000,1,NA,NA,images/earth.jpg,images/rocket1,images/rocket2,null,images/rocket1,NA,1,real,null,2,NA,NA,NA,sub26
d3-animate-choice,178,830015,0.0-76.0-1.14,FALSE,TRUE,TRUE,TRUE,"""event"",""trial"",""time""
""fullscreenenter"",""5"",""19590""
","
","
","""event"",""trial"",""time""
""fullscreenenter"",""5"",""19590""
","
",1058,NA,48,NA,NA,3000,1,NA,NA,images/purpleplanet.jpg,images/alien4,images/alien3,images/rocket1,images/alien4,images/t.png,2,real,false,2,rare,1,2020-06-02T19:16:52Z,sub26
two-step-fixation,179,831017,0.0-76.0-2.14,FALSE,TRUE,TRUE,TRUE,"""event"",""trial"",""time""
""fullscreenenter"",""5"",""19590""
","
","
","""event"",""trial"",""time""
""fullscreenenter"",""5"",""19590""
","
",NA,images/earth.jpg,NA,NA,NA,NA,NA,NA,NA,NA,NA,NA,NA,NA,NA,fixation,NA,NA,NA,NA,NA,NA,sub26
d3-animate-choice,180,833601,0.0-76.0-0.15,FALSE,TRUE,TRUE,TRUE,"""event"",""trial"",""time""
""fullscreenenter"",""5"",""19590""
","
","
","""event"",""trial"",""time""
""fullscreenenter"",""5"",""19590""
","
",582,NA,48,NA,NA,3000,1,NA,NA,images/earth.jpg,images/rocket1,images/rocket2,null,images/rocket1,NA,1,real,null,2,NA,NA,NA,sub26
d3-animate-choice,181,836277,0.0-76.0-1.15,FALSE,TRUE,TRUE,TRUE,"""event"",""trial"",""time""
""fullscreenenter"",""5"",""19590""
","
","
","""event"",""trial"",""time""
""fullscreenenter"",""5"",""19590""
","
",674.9999999998836,NA,49,NA,NA,3000,1,NA,NA,images/redplanet1.jpg,images/alien2,images/alien1,images/rocket1,images/alien1,images/nothing.png,2,real,true,1,common,0,2020-06-02T19:16:59Z,sub26
two-step-fixation,182,837278,0.0-76.0-2.15,FALSE,TRUE,TRUE,TRUE,"""event"",""trial"",""time""
""fullscreenenter"",""5"",""19590""
","
","
","""event"",""trial"",""time""
""fullscreenenter"",""5"",""19590""
","
",NA,images/earth.jpg,NA,NA,NA,NA,NA,NA,NA,NA,NA,NA,NA,NA,NA,fixation,NA,NA,NA,NA,NA,NA,sub26
d3-animate-choice,183,839702,0.0-76.0-0.16,FALSE,TRUE,TRUE,TRUE,"""event"",""trial"",""time""
""fullscreenenter"",""5"",""19590""
","
","
","""event"",""trial"",""time""
""fullscreenenter"",""5"",""19590""
","
",422,NA,48,NA,NA,3000,1,NA,NA,images/earth.jpg,images/rocket1,images/rocket2,null,images/rocket1,NA,1,real,null,2,NA,NA,NA,sub26
d3-animate-choice,184,842265,0.0-76.0-1.16,FALSE,TRUE,TRUE,TRUE,"""event"",""trial"",""time""
""fullscreenenter"",""5"",""19590""
","
","
","""event"",""trial"",""time""
""fullscreenenter"",""5"",""19590""
","
",560.9999999998836,NA,48,NA,NA,3000,1,NA,NA,images/redplanet1.jpg,images/alien2,images/alien1,images/rocket1,images/alien2,images/nothing.png,2,real,true,2,common,0,2020-06-02T19:17:05Z,sub26
two-step-fixation,185,843266,0.0-76.0-2.16,FALSE,TRUE,TRUE,TRUE,"""event"",""trial"",""time""
""fullscreenenter"",""5"",""19590""
","
","
","""event"",""trial"",""time""
""fullscreenenter"",""5"",""19590""
","
",NA,images/earth.jpg,NA,NA,NA,NA,NA,NA,NA,NA,NA,NA,NA,NA,NA,fixation,NA,NA,NA,NA,NA,NA,sub26
d3-animate-choice,186,847002,0.0-76.0-0.17,FALSE,TRUE,TRUE,TRUE,"""event"",""trial"",""time""
""fullscreenenter"",""5"",""19590""
","
","
","""event"",""trial"",""time""
""fullscreenenter"",""5"",""19590""
","
",1733,NA,49,NA,NA,3000,1,NA,NA,images/earth.jpg,images/rocket1,images/rocket2,null,images/rocket2,NA,1,real,null,1,NA,NA,NA,sub26
d3-animate-choice,187,849382,0.0-76.0-1.17,FALSE,TRUE,TRUE,TRUE,"""event"",""trial"",""time""
""fullscreenenter"",""5"",""19590""
","
","
","""event"",""trial"",""time""
""fullscreenenter"",""5"",""19590""
","
",379.0000000001164,NA,49,NA,NA,3000,1,NA,NA,images/purpleplanet.jpg,images/alien4,images/alien3,images/rocket2,images/alien3,images/t.png,2,real,true,1,common,1,2020-06-02T19:17:12Z,sub26
two-step-fixation,188,850383,0.0-76.0-2.17,FALSE,TRUE,TRUE,TRUE,"""event"",""trial"",""time""
""fullscreenenter"",""5"",""19590""
","
","
","""event"",""trial"",""time""
""fullscreenenter"",""5"",""19590""
","
",NA,images/earth.jpg,NA,NA,NA,NA,NA,NA,NA,NA,NA,NA,NA,NA,NA,fixation,NA,NA,NA,NA,NA,NA,sub26
d3-animate-choice,189,853686,0.0-76.0-0.18,FALSE,TRUE,TRUE,TRUE,"""event"",""trial"",""time""
""fullscreenenter"",""5"",""19590""
","
","
","""event"",""trial"",""time""
""fullscreenenter"",""5"",""19590""
","
",1300.0000000001164,NA,48,NA,NA,3000,1,NA,NA,images/earth.jpg,images/rocket1,images/rocket2,null,images/rocket1,NA,1,real,null,2,NA,NA,NA,sub26
d3-animate-choice,190,856826,0.0-76.0-1.18,FALSE,TRUE,TRUE,TRUE,"""event"",""trial"",""time""
""fullscreenenter"",""5"",""19590""
","
","
","""event"",""trial"",""time""
""fullscreenenter"",""5"",""19590""
","
",1136.0000000001164,NA,48,NA,NA,3000,1,NA,NA,images/redplanet1.jpg,images/alien2,images/alien1,images/rocket1,images/alien2,images/nothing.png,2,real,true,2,common,0,2020-06-02T19:17:19Z,sub26
two-step-fixation,191,857827,0.0-76.0-2.18,FALSE,TRUE,TRUE,TRUE,"""event"",""trial"",""time""
""fullscreenenter"",""5"",""19590""
","
","
","""event"",""trial"",""time""
""fullscreenenter"",""5"",""19590""
","
",NA,images/earth.jpg,NA,NA,NA,NA,NA,NA,NA,NA,NA,NA,NA,NA,NA,fixation,NA,NA,NA,NA,NA,NA,sub26
d3-animate-choice,192,860312,0.0-76.0-0.19,FALSE,TRUE,TRUE,TRUE,"""event"",""trial"",""time""
""fullscreenenter"",""5"",""19590""
","
","
","""event"",""trial"",""time""
""fullscreenenter"",""5"",""19590""
","
",482.0000000001164,NA,49,NA,NA,3000,1,NA,NA,images/earth.jpg,images/rocket1,images/rocket2,null,images/rocket2,NA,1,real,null,1,NA,NA,NA,sub26
d3-animate-choice,193,863076,0.0-76.0-1.19,FALSE,TRUE,TRUE,TRUE,"""event"",""trial"",""time""
""fullscreenenter"",""5"",""19590""
","
","
","""event"",""trial"",""time""
""fullscreenenter"",""5"",""19590""
","
",761.0000000001164,NA,49,NA,NA,3000,1,NA,NA,images/purpleplanet.jpg,images/alien4,images/alien3,images/rocket2,images/alien3,images/nothing.png,2,real,true,1,common,0,2020-06-02T19:17:25Z,sub26
two-step-fixation,194,864077,0.0-76.0-2.19,FALSE,TRUE,TRUE,TRUE,"""event"",""trial"",""time""
""fullscreenenter"",""5"",""19590""
","
","
","""event"",""trial"",""time""
""fullscreenenter"",""5"",""19590""
","
",NA,images/earth.jpg,NA,NA,NA,NA,NA,NA,NA,NA,NA,NA,NA,NA,NA,fixation,NA,NA,NA,NA,NA,NA,sub26
d3-animate-choice,195,866600,0.0-76.0-0.20,FALSE,TRUE,TRUE,TRUE,"""event"",""trial"",""time""
""fullscreenenter"",""5"",""19590""
","
","
","""event"",""trial"",""time""
""fullscreenenter"",""5"",""19590""
","
",519,NA,48,NA,NA,3000,1,NA,NA,images/earth.jpg,images/rocket1,images/rocket2,null,images/rocket1,NA,1,real,null,2,NA,NA,NA,sub26
d3-animate-choice,196,869195,0.0-76.0-1.20,FALSE,TRUE,TRUE,TRUE,"""event"",""trial"",""time""
""fullscreenenter"",""5"",""19590""
","
","
","""event"",""trial"",""time""
""fullscreenenter"",""5"",""19590""
","
",593.0000000001164,NA,48,NA,NA,3000,1,NA,NA,images/redplanet1.jpg,images/alien2,images/alien1,images/rocket1,images/alien2,images/t.png,2,real,true,2,common,1,2020-06-02T19:17:32Z,sub26
two-step-fixation,197,870196,0.0-76.0-2.20,FALSE,TRUE,TRUE,TRUE,"""event"",""trial"",""time""
""fullscreenenter"",""5"",""19590""
","
","
","""event"",""trial"",""time""
""fullscreenenter"",""5"",""19590""
","
",NA,images/earth.jpg,NA,NA,NA,NA,NA,NA,NA,NA,NA,NA,NA,NA,NA,fixation,NA,NA,NA,NA,NA,NA,sub26
d3-animate-choice,198,872558,0.0-76.0-0.21,FALSE,TRUE,TRUE,TRUE,"""event"",""trial"",""time""
""fullscreenenter"",""5"",""19590""
","
","
","""event"",""trial"",""time""
""fullscreenenter"",""5"",""19590""
","
",113.00000000011642,NA,49,NA,NA,3000,1,NA,NA,images/earth.jpg,images/rocket1,images/rocket2,null,images/rocket2,NA,1,real,null,1,NA,NA,NA,sub26
d3-animate-choice,199,875055,0.0-76.0-1.21,FALSE,TRUE,TRUE,TRUE,"""event"",""trial"",""time""
""fullscreenenter"",""5"",""19590""
","
","
","""event"",""trial"",""time""
""fullscreenenter"",""5"",""19590""
","
",495,NA,48,NA,NA,3000,1,NA,NA,images/redplanet1.jpg,images/alien2,images/alien1,images/rocket2,images/alien2,images/nothing.png,2,real,false,2,rare,0,2020-06-02T19:17:37Z,sub26
two-step-fixation,200,876056,0.0-76.0-2.21,FALSE,TRUE,TRUE,TRUE,"""event"",""trial"",""time""
""fullscreenenter"",""5"",""19590""
","
","
","""event"",""trial"",""time""
""fullscreenenter"",""5"",""19590""
","
",NA,images/earth.jpg,NA,NA,NA,NA,NA,NA,NA,NA,NA,NA,NA,NA,NA,fixation,NA,NA,NA,NA,NA,NA,sub26
d3-animate-choice,201,878613,0.0-76.0-0.22,FALSE,TRUE,TRUE,TRUE,"""event"",""trial"",""time""
""fullscreenenter"",""5"",""19590""
","
","
","""event"",""trial"",""time""
""fullscreenenter"",""5"",""19590""
","
",554,NA,49,NA,NA,3000,1,NA,NA,images/earth.jpg,images/rocket1,images/rocket2,null,images/rocket2,NA,1,real,null,1,NA,NA,NA,sub26
d3-animate-choice,202,881192,0.0-76.0-1.22,FALSE,TRUE,TRUE,TRUE,"""event"",""trial"",""time""
""fullscreenenter"",""5"",""19590""
","
","
","""event"",""trial"",""time""
""fullscreenenter"",""5"",""19590""
","
",577,NA,49,NA,NA,3000,1,NA,NA,images/purpleplanet.jpg,images/alien4,images/alien3,images/rocket2,images/alien3,images/t.png,2,real,true,1,common,1,2020-06-02T19:17:44Z,sub26
two-step-fixation,203,882193,0.0-76.0-2.22,FALSE,TRUE,TRUE,TRUE,"""event"",""trial"",""time""
""fullscreenenter"",""5"",""19590""
","
","
","""event"",""trial"",""time""
""fullscreenenter"",""5"",""19590""
","
",NA,images/earth.jpg,NA,NA,NA,NA,NA,NA,NA,NA,NA,NA,NA,NA,NA,fixation,NA,NA,NA,NA,NA,NA,sub26
d3-animate-choice,204,884714,0.0-76.0-0.23,FALSE,TRUE,TRUE,TRUE,"""event"",""trial"",""time""
""fullscreenenter"",""5"",""19590""
","
","
","""event"",""trial"",""time""
""fullscreenenter"",""5"",""19590""
","
",517.9999999998836,NA,48,NA,NA,3000,1,NA,NA,images/earth.jpg,images/rocket1,images/rocket2,null,images/rocket1,NA,1,real,null,2,NA,NA,NA,sub26
d3-animate-choice,205,887388,0.0-76.0-1.23,FALSE,TRUE,TRUE,TRUE,"""event"",""trial"",""time""
""fullscreenenter"",""5"",""19590""
","
","
","""event"",""trial"",""time""
""fullscreenenter"",""5"",""19590""
","
",662,NA,49,NA,NA,3000,1,NA,NA,images/purpleplanet.jpg,images/alien4,images/alien3,images/rocket1,images/alien3,images/nothing.png,2,real,false,1,rare,0,2020-06-02T19:17:50Z,sub26
two-step-fixation,206,888390,0.0-76.0-2.23,FALSE,TRUE,TRUE,TRUE,"""event"",""trial"",""time""
""fullscreenenter"",""5"",""19590""
","
","
","""event"",""trial"",""time""
""fullscreenenter"",""5"",""19590""
","
",NA,images/earth.jpg,NA,NA,NA,NA,NA,NA,NA,NA,NA,NA,NA,NA,NA,fixation,NA,NA,NA,NA,NA,NA,sub26
d3-animate-choice,207,890834,0.0-76.0-0.24,FALSE,TRUE,TRUE,TRUE,"""event"",""trial"",""time""
""fullscreenenter"",""5"",""19590""
","
","
","""event"",""trial"",""time""
""fullscreenenter"",""5"",""19590""
","
",441,NA,48,NA,NA,3000,1,NA,NA,images/earth.jpg,images/rocket1,images/rocket2,null,images/rocket1,NA,1,real,null,2,NA,NA,NA,sub26
d3-animate-choice,208,893253,0.0-76.0-1.24,FALSE,TRUE,TRUE,TRUE,"""event"",""trial"",""time""
""fullscreenenter"",""5"",""19590""
","
","
","""event"",""trial"",""time""
""fullscreenenter"",""5"",""19590""
","
",417.0000000001164,NA,48,NA,NA,3000,1,NA,NA,images/purpleplanet.jpg,images/alien4,images/alien3,images/rocket1,images/alien4,images/t.png,2,real,false,2,rare,1,2020-06-02T19:17:56Z,sub26
two-step-fixation,209,894256,0.0-76.0-2.24,FALSE,TRUE,TRUE,TRUE,"""event"",""trial"",""time""
""fullscreenenter"",""5"",""19590""
","
","
","""event"",""trial"",""time""
""fullscreenenter"",""5"",""19590""
","
",NA,images/earth.jpg,NA,NA,NA,NA,NA,NA,NA,NA,NA,NA,NA,NA,NA,fixation,NA,NA,NA,NA,NA,NA,sub26
d3-animate-choice,210,897123,0.0-76.0-0.25,FALSE,TRUE,TRUE,TRUE,"""event"",""trial"",""time""
""fullscreenenter"",""5"",""19590""
","
","
","""event"",""trial"",""time""
""fullscreenenter"",""5"",""19590""
","
",864,NA,48,NA,NA,3000,1,NA,NA,images/earth.jpg,images/rocket1,images/rocket2,null,images/rocket1,NA,1,real,null,2,NA,NA,NA,sub26
d3-animate-choice,211,900075,0.0-76.0-1.25,FALSE,TRUE,TRUE,TRUE,"""event"",""trial"",""time""
""fullscreenenter"",""5"",""19590""
","
","
","""event"",""trial"",""time""
""fullscreenenter"",""5"",""19590""
","
",949,NA,49,NA,NA,3000,1,NA,NA,images/redplanet1.jpg,images/alien2,images/alien1,images/rocket1,images/alien1,images/t.png,2,real,true,1,common,1,2020-06-02T19:18:02Z,sub26
two-step-fixation,212,901077,0.0-76.0-2.25,FALSE,TRUE,TRUE,TRUE,"""event"",""trial"",""time""
""fullscreenenter"",""5"",""19590""
","
","
","""event"",""trial"",""time""
""fullscreenenter"",""5"",""19590""
","
",NA,images/earth.jpg,NA,NA,NA,NA,NA,NA,NA,NA,NA,NA,NA,NA,NA,fixation,NA,NA,NA,NA,NA,NA,sub26
d3-animate-choice,213,903574,0.0-76.0-0.26,FALSE,TRUE,TRUE,TRUE,"""event"",""trial"",""time""
""fullscreenenter"",""5"",""19590""
","
","
","""event"",""trial"",""time""
""fullscreenenter"",""5"",""19590""
","
",495,NA,49,NA,NA,3000,1,NA,NA,images/earth.jpg,images/rocket1,images/rocket2,null,images/rocket2,NA,1,real,null,1,NA,NA,NA,sub26
d3-animate-choice,214,906411,0.0-76.0-1.26,FALSE,TRUE,TRUE,TRUE,"""event"",""trial"",""time""
""fullscreenenter"",""5"",""19590""
","
","
","""event"",""trial"",""time""
""fullscreenenter"",""5"",""19590""
","
",835,NA,48,NA,NA,3000,1,NA,NA,images/purpleplanet.jpg,images/alien4,images/alien3,images/rocket2,images/alien4,images/t.png,2,real,true,2,common,1,2020-06-02T19:18:09Z,sub26
two-step-fixation,215,907412,0.0-76.0-2.26,FALSE,TRUE,TRUE,TRUE,"""event"",""trial"",""time""
""fullscreenenter"",""5"",""19590""
","
","
","""event"",""trial"",""time""
""fullscreenenter"",""5"",""19590""
","
",NA,images/earth.jpg,NA,NA,NA,NA,NA,NA,NA,NA,NA,NA,NA,NA,NA,fixation,NA,NA,NA,NA,NA,NA,sub26
d3-animate-choice,216,909895,0.0-76.0-0.27,FALSE,TRUE,TRUE,TRUE,"""event"",""trial"",""time""
""fullscreenenter"",""5"",""19590""
","
","
","""event"",""trial"",""time""
""fullscreenenter"",""5"",""19590""
","
",479,NA,48,NA,NA,3000,1,NA,NA,images/earth.jpg,images/rocket1,images/rocket2,null,images/rocket1,NA,1,real,null,2,NA,NA,NA,sub26
d3-animate-choice,217,912683,0.0-76.0-1.27,FALSE,TRUE,TRUE,TRUE,"""event"",""trial"",""time""
""fullscreenenter"",""5"",""19590""
","
","
","""event"",""trial"",""time""
""fullscreenenter"",""5"",""19590""
","
",786.0000000001164,NA,49,NA,NA,3000,1,NA,NA,images/purpleplanet.jpg,images/alien4,images/alien3,images/rocket1,images/alien3,images/nothing.png,2,real,false,1,rare,0,2020-06-02T19:18:15Z,sub26
two-step-fixation,218,913685,0.0-76.0-2.27,FALSE,TRUE,TRUE,TRUE,"""event"",""trial"",""time""
""fullscreenenter"",""5"",""19590""
","
","
","""event"",""trial"",""time""
""fullscreenenter"",""5"",""19590""
","
",NA,images/earth.jpg,NA,NA,NA,NA,NA,NA,NA,NA,NA,NA,NA,NA,NA,fixation,NA,NA,NA,NA,NA,NA,sub26
d3-animate-choice,219,916059,0.0-76.0-0.28,FALSE,TRUE,TRUE,TRUE,"""event"",""trial"",""time""
""fullscreenenter"",""5"",""19590""
","
","
","""event"",""trial"",""time""
""fullscreenenter"",""5"",""19590""
","
",370.9999999998836,NA,48,NA,NA,3000,1,NA,NA,images/earth.jpg,images/rocket1,images/rocket2,null,images/rocket1,NA,1,real,null,2,NA,NA,NA,sub26
d3-animate-choice,220,919315,0.0-76.0-1.28,FALSE,TRUE,TRUE,TRUE,"""event"",""trial"",""time""
""fullscreenenter"",""5"",""19590""
","
","
","""event"",""trial"",""time""
""fullscreenenter"",""5"",""19590""
","
",1217.0000000001164,NA,48,NA,NA,3000,1,1221,49,images/redplanet1.jpg,images/alien2,images/alien1,images/rocket1,images/alien2,images/t.png,2,real,true,2,common,1,2020-06-02T19:18:22Z,sub26
two-step-fixation,221,920317,0.0-76.0-2.28,FALSE,TRUE,TRUE,TRUE,"""event"",""trial"",""time""
""fullscreenenter"",""5"",""19590""
","
","
","""event"",""trial"",""time""
""fullscreenenter"",""5"",""19590""
","
",NA,images/earth.jpg,NA,NA,NA,NA,NA,NA,NA,NA,NA,NA,NA,NA,NA,fixation,NA,NA,NA,NA,NA,NA,sub26
d3-animate-choice,222,924320,0.0-76.0-0.29,FALSE,TRUE,TRUE,TRUE,"""event"",""trial"",""time""
""fullscreenenter"",""5"",""19590""
","
","
","""event"",""trial"",""time""
""fullscreenenter"",""5"",""19590""
","
",null,NA,null,NA,NA,3000,0,NA,NA,images/earth.jpg,images/rocket1,images/rocket2,null,NA,NA,1,real,null,NA,NA,NA,NA,sub26
d3-animate-choice,223,925325,0.0-76.0-1.29,FALSE,TRUE,TRUE,TRUE,"""event"",""trial"",""time""
""fullscreenenter"",""5"",""19590""
","
","
","""event"",""trial"",""time""
""fullscreenenter"",""5"",""19590""
","
",null,NA,null,NA,NA,0,0,NA,NA,images/earth.jpg,images/rocket1,images/rocket2,null,NA,NA,2,real,null,NA,NA,0,2020-06-02T19:18:28Z,sub26
two-step-fixation,224,926326,0.0-76.0-2.29,FALSE,TRUE,TRUE,TRUE,"""event"",""trial"",""time""
""fullscreenenter"",""5"",""19590""
","
","
","""event"",""trial"",""time""
""fullscreenenter"",""5"",""19590""
","
",NA,images/earth.jpg,NA,NA,NA,NA,NA,NA,NA,NA,NA,NA,NA,NA,NA,fixation,NA,NA,NA,NA,NA,NA,sub26
d3-animate-choice,225,928886,0.0-76.0-0.30,FALSE,TRUE,TRUE,TRUE,"""event"",""trial"",""time""
""fullscreenenter"",""5"",""19590""
","
","
","""event"",""trial"",""time""
""fullscreenenter"",""5"",""19590""
","
",558,NA,49,NA,NA,3000,1,NA,NA,images/earth.jpg,images/rocket1,images/rocket2,null,images/rocket2,NA,1,real,null,1,NA,NA,NA,sub26
d3-animate-choice,226,931435,0.0-76.0-1.30,FALSE,TRUE,TRUE,TRUE,"""event"",""trial"",""time""
""fullscreenenter"",""5"",""19590""
","
","
","""event"",""trial"",""time""
""fullscreenenter"",""5"",""19590""
","
",546,NA,49,NA,NA,3000,1,NA,NA,images/purpleplanet.jpg,images/alien4,images/alien3,images/rocket2,images/alien3,images/nothing.png,2,real,true,1,common,0,2020-06-02T19:18:34Z,sub26
two-step-fixation,227,932436,0.0-76.0-2.30,FALSE,TRUE,TRUE,TRUE,"""event"",""trial"",""time""
""fullscreenenter"",""5"",""19590""
","
","
","""event"",""trial"",""time""
""fullscreenenter"",""5"",""19590""
","
",NA,images/earth.jpg,NA,NA,NA,NA,NA,NA,NA,NA,NA,NA,NA,NA,NA,fixation,NA,NA,NA,NA,NA,NA,sub26
d3-animate-choice,228,934778,0.0-76.0-0.31,FALSE,TRUE,TRUE,TRUE,"""event"",""trial"",""time""
""fullscreenenter"",""5"",""19590""
","
","
","""event"",""trial"",""time""
""fullscreenenter"",""5"",""19590""
","
",341,NA,48,NA,NA,3000,1,2341,49,images/earth.jpg,images/rocket1,images/rocket2,null,images/rocket1,NA,1,real,null,2,NA,NA,NA,sub26
d3-animate-choice,229,937727,0.0-76.0-1.31,FALSE,TRUE,TRUE,TRUE,"""event"",""trial"",""time""
""fullscreenenter"",""5"",""19590""
","
","
","""event"",""trial"",""time""
""fullscreenenter"",""5"",""19590""
","
",945.0000000001164,NA,49,NA,NA,3000,1,NA,NA,images/redplanet1.jpg,images/alien2,images/alien1,images/rocket1,images/alien1,images/nothing.png,2,real,true,1,common,0,2020-06-02T19:18:40Z,sub26
two-step-fixation,230,938729,0.0-76.0-2.31,FALSE,TRUE,TRUE,TRUE,"""event"",""trial"",""time""
""fullscreenenter"",""5"",""19590""
","
","
","""event"",""trial"",""time""
""fullscreenenter"",""5"",""19590""
","
",NA,images/earth.jpg,NA,NA,NA,NA,NA,NA,NA,NA,NA,NA,NA,NA,NA,fixation,NA,NA,NA,NA,NA,NA,sub26
d3-animate-choice,231,941396,0.0-76.0-0.32,FALSE,TRUE,TRUE,TRUE,"""event"",""trial"",""time""
""fullscreenenter"",""5"",""19590""
","
","
","""event"",""trial"",""time""
""fullscreenenter"",""5"",""19590""
","
",665.9999999998836,NA,48,NA,NA,3000,1,NA,NA,images/earth.jpg,images/rocket1,images/rocket2,null,images/rocket1,NA,1,real,null,2,NA,NA,NA,sub26
d3-animate-choice,232,944729,0.0-76.0-1.32,FALSE,TRUE,TRUE,TRUE,"""event"",""trial"",""time""
""fullscreenenter"",""5"",""19590""
","
","
","""event"",""trial"",""time""
""fullscreenenter"",""5"",""19590""
","
",1330,NA,48,NA,NA,3000,1,NA,NA,images/redplanet1.jpg,images/alien2,images/alien1,images/rocket1,images/alien2,images/t.png,2,real,true,2,common,1,2020-06-02T19:18:47Z,sub26
two-step-fixation,233,945730,0.0-76.0-2.32,FALSE,TRUE,TRUE,TRUE,"""event"",""trial"",""time""
""fullscreenenter"",""5"",""19590""
","
","
","""event"",""trial"",""time""
""fullscreenenter"",""5"",""19590""
","
",NA,images/earth.jpg,NA,NA,NA,NA,NA,NA,NA,NA,NA,NA,NA,NA,NA,fixation,NA,NA,NA,NA,NA,NA,sub26
d3-animate-choice,234,948272,0.0-76.0-0.33,FALSE,TRUE,TRUE,TRUE,"""event"",""trial"",""time""
""fullscreenenter"",""5"",""19590""
","
","
","""event"",""trial"",""time""
""fullscreenenter"",""5"",""19590""
","
",539,NA,48,NA,NA,3000,1,NA,NA,images/earth.jpg,images/rocket1,images/rocket2,null,images/rocket1,NA,1,real,null,2,NA,NA,NA,sub26
d3-animate-choice,235,951167,0.0-76.0-1.33,FALSE,TRUE,TRUE,TRUE,"""event"",""trial"",""time""
""fullscreenenter"",""5"",""19590""
","
","
","""event"",""trial"",""time""
""fullscreenenter"",""5"",""19590""
","
",893,NA,49,NA,NA,3000,1,NA,NA,images/redplanet1.jpg,images/alien2,images/alien1,images/rocket1,images/alien1,images/t.png,2,real,true,1,common,1,2020-06-02T19:18:54Z,sub26
two-step-fixation,236,952320,0.0-76.0-2.33,FALSE,TRUE,TRUE,TRUE,"""event"",""trial"",""time""
""fullscreenenter"",""5"",""19590""
","
","
","""event"",""trial"",""time""
""fullscreenenter"",""5"",""19590""
","
",NA,images/earth.jpg,NA,NA,NA,NA,NA,NA,NA,NA,NA,NA,NA,NA,NA,fixation,NA,NA,NA,NA,NA,NA,sub26
d3-animate-choice,237,954914,0.0-76.0-0.34,FALSE,TRUE,TRUE,TRUE,"""event"",""trial"",""time""
""fullscreenenter"",""5"",""19590""
","
","
","""event"",""trial"",""time""
""fullscreenenter"",""5"",""19590""
","
",591.9999999998836,NA,49,NA,NA,3000,1,NA,NA,images/earth.jpg,images/rocket1,images/rocket2,null,images/rocket2,NA,1,real,null,1,NA,NA,NA,sub26
d3-animate-choice,238,957904,0.0-76.0-1.34,FALSE,TRUE,TRUE,TRUE,"""event"",""trial"",""time""
""fullscreenenter"",""5"",""19590""
","
","
","""event"",""trial"",""time""
""fullscreenenter"",""5"",""19590""
","
",987,NA,48,NA,NA,3000,1,NA,NA,images/purpleplanet.jpg,images/alien4,images/alien3,images/rocket2,images/alien4,images/t.png,2,real,true,2,common,1,2020-06-02T19:19:00Z,sub26
two-step-fixation,239,958905,0.0-76.0-2.34,FALSE,TRUE,TRUE,TRUE,"""event"",""trial"",""time""
""fullscreenenter"",""5"",""19590""
","
","
","""event"",""trial"",""time""
""fullscreenenter"",""5"",""19590""
","
",NA,images/earth.jpg,NA,NA,NA,NA,NA,NA,NA,NA,NA,NA,NA,NA,NA,fixation,NA,NA,NA,NA,NA,NA,sub26
d3-animate-choice,240,961331,0.0-76.0-0.35,FALSE,TRUE,TRUE,TRUE,"""event"",""trial"",""time""
""fullscreenenter"",""5"",""19590""
","
","
","""event"",""trial"",""time""
""fullscreenenter"",""5"",""19590""
","
",424,NA,48,NA,NA,3000,1,NA,NA,images/earth.jpg,images/rocket1,images/rocket2,null,images/rocket1,NA,1,real,null,2,NA,NA,NA,sub26
d3-animate-choice,241,963752,0.0-76.0-1.35,FALSE,TRUE,TRUE,TRUE,"""event"",""trial"",""time""
""fullscreenenter"",""5"",""19590""
","
","
","""event"",""trial"",""time""
""fullscreenenter"",""5"",""19590""
","
",418,NA,49,NA,NA,3000,1,NA,NA,images/redplanet1.jpg,images/alien2,images/alien1,images/rocket1,images/alien1,images/nothing.png,2,real,true,1,common,0,2020-06-02T19:19:06Z,sub26
two-step-fixation,242,964754,0.0-76.0-2.35,FALSE,TRUE,TRUE,TRUE,"""event"",""trial"",""time""
""fullscreenenter"",""5"",""19590""
","
","
","""event"",""trial"",""time""
""fullscreenenter"",""5"",""19590""
","
",NA,images/earth.jpg,NA,NA,NA,NA,NA,NA,NA,NA,NA,NA,NA,NA,NA,fixation,NA,NA,NA,NA,NA,NA,sub26
d3-animate-choice,243,967128,0.0-76.0-0.36,FALSE,TRUE,TRUE,TRUE,"""event"",""trial"",""time""
""fullscreenenter"",""5"",""19590""
","
","
","""event"",""trial"",""time""
""fullscreenenter"",""5"",""19590""
","
",370.9999999998836,NA,48,NA,NA,3000,1,NA,NA,images/earth.jpg,images/rocket1,images/rocket2,null,images/rocket1,NA,1,real,null,2,NA,NA,NA,sub26
d3-animate-choice,244,969851,0.0-76.0-1.36,FALSE,TRUE,TRUE,TRUE,"""event"",""trial"",""time""
""fullscreenenter"",""5"",""19590""
","
","
","""event"",""trial"",""time""
""fullscreenenter"",""5"",""19590""
","
",720,NA,48,NA,NA,3000,1,NA,NA,images/purpleplanet.jpg,images/alien4,images/alien3,images/rocket1,images/alien4,images/nothing.png,2,real,false,2,rare,0,2020-06-02T19:19:12Z,sub26
two-step-fixation,245,970852,0.0-76.0-2.36,FALSE,TRUE,TRUE,TRUE,"""event"",""trial"",""time""
""fullscreenenter"",""5"",""19590""
","
","
","""event"",""trial"",""time""
""fullscreenenter"",""5"",""19590""
","
",NA,images/earth.jpg,NA,NA,NA,NA,NA,NA,NA,NA,NA,NA,NA,NA,NA,fixation,NA,NA,NA,NA,NA,NA,sub26
d3-animate-choice,246,973144,0.0-76.0-0.37,FALSE,TRUE,TRUE,TRUE,"""event"",""trial"",""time""
""fullscreenenter"",""5"",""19590""
","
","
","""event"",""trial"",""time""
""fullscreenenter"",""5"",""19590""
","
",289,NA,49,NA,NA,3000,1,NA,NA,images/earth.jpg,images/rocket1,images/rocket2,null,images/rocket2,NA,1,real,null,1,NA,NA,NA,sub26
d3-animate-choice,247,975684,0.0-76.0-1.37,FALSE,TRUE,TRUE,TRUE,"""event"",""trial"",""time""
""fullscreenenter"",""5"",""19590""
","
","
","""event"",""trial"",""time""
""fullscreenenter"",""5"",""19590""
","
",537,NA,49,NA,NA,3000,1,NA,NA,images/purpleplanet.jpg,images/alien4,images/alien3,images/rocket2,images/alien3,images/nothing.png,2,real,true,1,common,0,2020-06-02T19:19:18Z,sub26
two-step-fixation,248,976686,0.0-76.0-2.37,FALSE,TRUE,TRUE,TRUE,"""event"",""trial"",""time""
""fullscreenenter"",""5"",""19590""
","
","
","""event"",""trial"",""time""
""fullscreenenter"",""5"",""19590""
","
",NA,images/earth.jpg,NA,NA,NA,NA,NA,NA,NA,NA,NA,NA,NA,NA,NA,fixation,NA,NA,NA,NA,NA,NA,sub26
d3-animate-choice,249,979071,0.0-76.0-0.38,FALSE,TRUE,TRUE,TRUE,"""event"",""trial"",""time""
""fullscreenenter"",""5"",""19590""
","
","
","""event"",""trial"",""time""
""fullscreenenter"",""5"",""19590""
","
",382,NA,48,NA,NA,3000,1,NA,NA,images/earth.jpg,images/rocket1,images/rocket2,null,images/rocket1,NA,1,real,null,2,NA,NA,NA,sub26
d3-animate-choice,250,982251,0.0-76.0-1.38,FALSE,TRUE,TRUE,TRUE,"""event"",""trial"",""time""
""fullscreenenter"",""5"",""19590""
","
","
","""event"",""trial"",""time""
""fullscreenenter"",""5"",""19590""
","
",1178,NA,48,NA,NA,3000,1,1198.9999999998836,49,images/redplanet1.jpg,images/alien2,images/alien1,images/rocket1,images/alien2,images/t.png,2,real,true,2,common,1,2020-06-02T19:19:25Z,sub26
two-step-fixation,251,983252,0.0-76.0-2.38,FALSE,TRUE,TRUE,TRUE,"""event"",""trial"",""time""
""fullscreenenter"",""5"",""19590""
","
","
","""event"",""trial"",""time""
""fullscreenenter"",""5"",""19590""
","
",NA,images/earth.jpg,NA,NA,NA,NA,NA,NA,NA,NA,NA,NA,NA,NA,NA,fixation,NA,NA,NA,NA,NA,NA,sub26
d3-animate-choice,252,986497,0.0-76.0-0.39,FALSE,TRUE,TRUE,TRUE,"""event"",""trial"",""time""
""fullscreenenter"",""5"",""19590""
","
","
","""event"",""trial"",""time""
""fullscreenenter"",""5"",""19590""
","
",1243,NA,48,NA,NA,3000,1,NA,NA,images/earth.jpg,images/rocket1,images/rocket2,null,images/rocket1,NA,1,real,null,2,NA,NA,NA,sub26
d3-animate-choice,253,988934,0.0-76.0-1.39,FALSE,TRUE,TRUE,TRUE,"""event"",""trial"",""time""
""fullscreenenter"",""5"",""19590""
","
","
","""event"",""trial"",""time""
""fullscreenenter"",""5"",""19590""
","
",434,NA,48,NA,NA,3000,1,438,49,images/redplanet1.jpg,images/alien2,images/alien1,images/rocket1,images/alien2,images/t.png,2,real,true,2,common,1,2020-06-02T19:19:31Z,sub26
two-step-fixation,254,989936,0.0-76.0-2.39,FALSE,TRUE,TRUE,TRUE,"""event"",""trial"",""time""
""fullscreenenter"",""5"",""19590""
","
","
","""event"",""trial"",""time""
""fullscreenenter"",""5"",""19590""
","
",NA,images/earth.jpg,NA,NA,NA,NA,NA,NA,NA,NA,NA,NA,NA,NA,NA,fixation,NA,NA,NA,NA,NA,NA,sub26
d3-animate-choice,255,992282,0.0-76.0-0.40,FALSE,TRUE,TRUE,TRUE,"""event"",""trial"",""time""
""fullscreenenter"",""5"",""19590""
","
","
","""event"",""trial"",""time""
""fullscreenenter"",""5"",""19590""
","
",344,NA,48,NA,NA,3000,1,362.0000000001164,49,images/earth.jpg,images/rocket1,images/rocket2,null,images/rocket1,NA,1,real,null,2,NA,NA,NA,sub26
d3-animate-choice,256,994803,0.0-76.0-1.40,FALSE,TRUE,TRUE,TRUE,"""event"",""trial"",""time""
""fullscreenenter"",""5"",""19590""
","
","
","""event"",""trial"",""time""
""fullscreenenter"",""5"",""19590""
","
",518,NA,49,NA,NA,3000,1,520,48,images/purpleplanet.jpg,images/alien4,images/alien3,images/rocket1,images/alien3,images/t.png,2,real,false,1,rare,1,2020-06-02T19:19:37Z,sub26
two-step-fixation,257,995805,0.0-76.0-2.40,FALSE,TRUE,TRUE,TRUE,"""event"",""trial"",""time""
""fullscreenenter"",""5"",""19590""
","
","
","""event"",""trial"",""time""
""fullscreenenter"",""5"",""19590""
","
",NA,images/earth.jpg,NA,NA,NA,NA,NA,NA,NA,NA,NA,NA,NA,NA,NA,fixation,NA,NA,NA,NA,NA,NA,sub26
d3-animate-choice,258,997965,0.0-76.0-0.41,FALSE,TRUE,TRUE,TRUE,"""event"",""trial"",""time""
""fullscreenenter"",""5"",""19590""
","
","
","""event"",""trial"",""time""
""fullscreenenter"",""5"",""19590""
","
",158,NA,48,NA,NA,3000,1,163,49,images/earth.jpg,images/rocket1,images/rocket2,null,images/rocket1,NA,1,real,null,2,NA,NA,NA,sub26
d3-animate-choice,259,1000514,0.0-76.0-1.41,FALSE,TRUE,TRUE,TRUE,"""event"",""trial"",""time""
""fullscreenenter"",""5"",""19590""
","
","
","""event"",""trial"",""time""
""fullscreenenter"",""5"",""19590""
","
",547,NA,48,NA,NA,3000,1,564.0000000001164,49,images/redplanet1.jpg,images/alien2,images/alien1,images/rocket1,images/alien2,images/t.png,2,real,true,2,common,1,2020-06-02T19:19:43Z,sub26
two-step-fixation,260,1001516,0.0-76.0-2.41,FALSE,TRUE,TRUE,TRUE,"""event"",""trial"",""time""
""fullscreenenter"",""5"",""19590""
","
","
","""event"",""trial"",""time""
""fullscreenenter"",""5"",""19590""
","
",NA,images/earth.jpg,NA,NA,NA,NA,NA,NA,NA,NA,NA,NA,NA,NA,NA,fixation,NA,NA,NA,NA,NA,NA,sub26
d3-animate-choice,261,1004002,0.0-76.0-0.42,FALSE,TRUE,TRUE,TRUE,"""event"",""trial"",""time""
""fullscreenenter"",""5"",""19590""
","
","
","""event"",""trial"",""time""
""fullscreenenter"",""5"",""19590""
","
",484.0000000001164,NA,48,NA,NA,3000,1,508.0000000001164,49,images/earth.jpg,images/rocket1,images/rocket2,null,images/rocket1,NA,1,real,null,2,NA,NA,NA,sub26
d3-animate-choice,262,1006582,0.0-76.0-1.42,FALSE,TRUE,TRUE,TRUE,"""event"",""trial"",""time""
""fullscreenenter"",""5"",""19590""
","
","
","""event"",""trial"",""time""
""fullscreenenter"",""5"",""19590""
","
",576,NA,49,NA,NA,3000,1,590,48,images/redplanet1.jpg,images/alien2,images/alien1,images/rocket1,images/alien1,images/t.png,2,real,true,1,common,1,2020-06-02T19:19:49Z,sub26
two-step-fixation,263,1007584,0.0-76.0-2.42,FALSE,TRUE,TRUE,TRUE,"""event"",""trial"",""time""
""fullscreenenter"",""5"",""19590""
","
","
","""event"",""trial"",""time""
""fullscreenenter"",""5"",""19590""
","
",NA,images/earth.jpg,NA,NA,NA,NA,NA,NA,NA,NA,NA,NA,NA,NA,NA,fixation,NA,NA,NA,NA,NA,NA,sub26
d3-animate-choice,264,1010179,0.0-76.0-0.43,FALSE,TRUE,TRUE,TRUE,"""event"",""trial"",""time""
""fullscreenenter"",""5"",""19590""
","
","
","""event"",""trial"",""time""
""fullscreenenter"",""5"",""19590""
","
",592,NA,49,NA,NA,3000,1,640,48,images/earth.jpg,images/rocket1,images/rocket2,null,images/rocket2,NA,1,real,null,1,NA,NA,NA,sub26
d3-animate-choice,265,1013035,0.0-76.0-1.43,FALSE,TRUE,TRUE,TRUE,"""event"",""trial"",""time""
""fullscreenenter"",""5"",""19590""
","
","
","""event"",""trial"",""time""
""fullscreenenter"",""5"",""19590""
","
",853,NA,49,NA,NA,3000,1,861,48,images/purpleplanet.jpg,images/alien4,images/alien3,images/rocket2,images/alien3,images/nothing.png,2,real,true,1,common,0,2020-06-02T19:19:55Z,sub26
two-step-fixation,266,1014036,0.0-76.0-2.43,FALSE,TRUE,TRUE,TRUE,"""event"",""trial"",""time""
""fullscreenenter"",""5"",""19590""
","
","
","""event"",""trial"",""time""
""fullscreenenter"",""5"",""19590""
","
",NA,images/earth.jpg,NA,NA,NA,NA,NA,NA,NA,NA,NA,NA,NA,NA,NA,fixation,NA,NA,NA,NA,NA,NA,sub26
d3-animate-choice,267,1016675,0.0-76.0-0.44,FALSE,TRUE,TRUE,TRUE,"""event"",""trial"",""time""
""fullscreenenter"",""5"",""19590""
","
","
","""event"",""trial"",""time""
""fullscreenenter"",""5"",""19590""
","
",636,NA,48,NA,NA,3000,1,645,49,images/earth.jpg,images/rocket1,images/rocket2,null,images/rocket1,NA,1,real,null,2,NA,NA,NA,sub26
d3-animate-choice,268,1019667,0.0-76.0-1.44,FALSE,TRUE,TRUE,TRUE,"""event"",""trial"",""time""
""fullscreenenter"",""5"",""19590""
","
","
","""event"",""trial"",""time""
""fullscreenenter"",""5"",""19590""
","
",989,NA,48,NA,NA,3000,1,1013.9999999998836,49,images/redplanet1.jpg,images/alien2,images/alien1,images/rocket1,images/alien2,images/nothing.png,2,real,true,2,common,0,2020-06-02T19:20:02Z,sub26
two-step-fixation,269,1020669,0.0-76.0-2.44,FALSE,TRUE,TRUE,TRUE,"""event"",""trial"",""time""
""fullscreenenter"",""5"",""19590""
","
","
","""event"",""trial"",""time""
""fullscreenenter"",""5"",""19590""
","
",NA,images/earth.jpg,NA,NA,NA,NA,NA,NA,NA,NA,NA,NA,NA,NA,NA,fixation,NA,NA,NA,NA,NA,NA,sub26
d3-animate-choice,270,1023011,0.0-76.0-0.45,FALSE,TRUE,TRUE,TRUE,"""event"",""trial"",""time""
""fullscreenenter"",""5"",""19590""
","
","
","""event"",""trial"",""time""
""fullscreenenter"",""5"",""19590""
","
",340.0000000001164,NA,48,NA,NA,3000,1,NA,NA,images/earth.jpg,images/rocket1,images/rocket2,null,images/rocket1,NA,1,real,null,2,NA,NA,NA,sub26
d3-animate-choice,271,1025499,0.0-76.0-1.45,FALSE,TRUE,TRUE,TRUE,"""event"",""trial"",""time""
""fullscreenenter"",""5"",""19590""
","
","
","""event"",""trial"",""time""
""fullscreenenter"",""5"",""19590""
","
",484.9999999998836,NA,49,NA,NA,3000,1,NA,NA,images/redplanet1.jpg,images/alien2,images/alien1,images/rocket1,images/alien1,images/nothing.png,2,real,true,1,common,0,2020-06-02T19:20:08Z,sub26
two-step-fixation,272,1026501,0.0-76.0-2.45,FALSE,TRUE,TRUE,TRUE,"""event"",""trial"",""time""
""fullscreenenter"",""5"",""19590""
","
","
","""event"",""trial"",""time""
""fullscreenenter"",""5"",""19590""
","
",NA,images/earth.jpg,NA,NA,NA,NA,NA,NA,NA,NA,NA,NA,NA,NA,NA,fixation,NA,NA,NA,NA,NA,NA,sub26
d3-animate-choice,273,1029426,0.0-76.0-0.46,FALSE,TRUE,TRUE,TRUE,"""event"",""trial"",""time""
""fullscreenenter"",""5"",""19590""
","
","
","""event"",""trial"",""time""
""fullscreenenter"",""5"",""19590""
","
",923,NA,48,NA,NA,3000,1,NA,NA,images/earth.jpg,images/rocket1,images/rocket2,null,images/rocket1,NA,1,real,null,2,NA,NA,NA,sub26
d3-animate-choice,274,1032390,0.0-76.0-1.46,FALSE,TRUE,TRUE,TRUE,"""event"",""trial"",""time""
""fullscreenenter"",""5"",""19590""
","
","
","""event"",""trial"",""time""
""fullscreenenter"",""5"",""19590""
","
",961,NA,48,NA,NA,3000,1,NA,NA,images/redplanet1.jpg,images/alien2,images/alien1,images/rocket1,images/alien2,images/t.png,2,real,true,2,common,1,2020-06-02T19:20:15Z,sub26
two-step-fixation,275,1033391,0.0-76.0-2.46,FALSE,TRUE,TRUE,TRUE,"""event"",""trial"",""time""
""fullscreenenter"",""5"",""19590""
","
","
","""event"",""trial"",""time""
""fullscreenenter"",""5"",""19590""
","
",NA,images/earth.jpg,NA,NA,NA,NA,NA,NA,NA,NA,NA,NA,NA,NA,NA,fixation,NA,NA,NA,NA,NA,NA,sub26
d3-animate-choice,276,1036410,0.0-76.0-0.47,FALSE,TRUE,TRUE,TRUE,"""event"",""trial"",""time""
""fullscreenenter"",""5"",""19590""
","
","
","""event"",""trial"",""time""
""fullscreenenter"",""5"",""19590""
","
",1017,NA,48,NA,NA,3000,1,NA,NA,images/earth.jpg,images/rocket1,images/rocket2,null,images/rocket1,NA,1,real,null,2,NA,NA,NA,sub26
d3-animate-choice,277,1038878,0.0-76.0-1.47,FALSE,TRUE,TRUE,TRUE,"""event"",""trial"",""time""
""fullscreenenter"",""5"",""19590""
","
","
","""event"",""trial"",""time""
""fullscreenenter"",""5"",""19590""
","
",465.0000000001164,NA,48,NA,NA,3000,1,NA,NA,images/redplanet1.jpg,images/alien2,images/alien1,images/rocket1,images/alien2,images/nothing.png,2,real,true,2,common,0,2020-06-02T19:20:21Z,sub26
two-step-fixation,278,1039880,0.0-76.0-2.47,FALSE,TRUE,TRUE,TRUE,"""event"",""trial"",""time""
""fullscreenenter"",""5"",""19590""
","
","
","""event"",""trial"",""time""
""fullscreenenter"",""5"",""19590""
","
",NA,images/earth.jpg,NA,NA,NA,NA,NA,NA,NA,NA,NA,NA,NA,NA,NA,fixation,NA,NA,NA,NA,NA,NA,sub26
d3-animate-choice,279,1042026,0.0-76.0-0.48,FALSE,TRUE,TRUE,TRUE,"""event"",""trial"",""time""
""fullscreenenter"",""5"",""19590""
","
","
","""event"",""trial"",""time""
""fullscreenenter"",""5"",""19590""
","
",144,NA,48,NA,NA,3000,1,NA,NA,images/earth.jpg,images/rocket1,images/rocket2,null,images/rocket1,NA,1,real,null,2,NA,NA,NA,sub26
d3-animate-choice,280,1044575,0.0-76.0-1.48,FALSE,TRUE,TRUE,TRUE,"""event"",""trial"",""time""
""fullscreenenter"",""5"",""19590""
","
","
","""event"",""trial"",""time""
""fullscreenenter"",""5"",""19590""
","
",478,NA,49,NA,NA,3000,1,NA,NA,images/redplanet1.jpg,images/alien2,images/alien1,images/rocket1,images/alien1,images/nothing.png,2,real,true,1,common,0,2020-06-02T19:20:27Z,sub26
two-step-fixation,281,1045577,0.0-76.0-2.48,FALSE,TRUE,TRUE,TRUE,"""event"",""trial"",""time""
""fullscreenenter"",""5"",""19590""
","
","
","""event"",""trial"",""time""
""fullscreenenter"",""5"",""19590""
","
",NA,images/earth.jpg,NA,NA,NA,NA,NA,NA,NA,NA,NA,NA,NA,NA,NA,fixation,NA,NA,NA,NA,NA,NA,sub26
d3-animate-choice,282,1048010,0.0-76.0-0.49,FALSE,TRUE,TRUE,TRUE,"""event"",""trial"",""time""
""fullscreenenter"",""5"",""19590""
","
","
","""event"",""trial"",""time""
""fullscreenenter"",""5"",""19590""
","
",431,NA,48,NA,NA,3000,1,NA,NA,images/earth.jpg,images/rocket1,images/rocket2,null,images/rocket1,NA,1,real,null,2,NA,NA,NA,sub26
d3-animate-choice,283,1050502,0.0-76.0-1.49,FALSE,TRUE,TRUE,TRUE,"""event"",""trial"",""time""
""fullscreenenter"",""5"",""19590""
","
","
","""event"",""trial"",""time""
""fullscreenenter"",""5"",""19590""
","
",489.00000000023283,NA,48,NA,NA,3000,1,NA,NA,images/redplanet1.jpg,images/alien2,images/alien1,images/rocket1,images/alien2,images/nothing.png,2,real,true,2,common,0,2020-06-02T19:20:33Z,sub26
two-step-fixation,284,1051503,0.0-76.0-2.49,FALSE,TRUE,TRUE,TRUE,"""event"",""trial"",""time""
""fullscreenenter"",""5"",""19590""
","
","
","""event"",""trial"",""time""
""fullscreenenter"",""5"",""19590""
","
",NA,images/earth.jpg,NA,NA,NA,NA,NA,NA,NA,NA,NA,NA,NA,NA,NA,fixation,NA,NA,NA,NA,NA,NA,sub26
audio-button-response-2,285,1069919,0.0-77.0,FALSE,TRUE,TRUE,TRUE,"""event"",""trial"",""time""
""fullscreenenter"",""5"",""19590""
","
","
","""event"",""trial"",""time""
""fullscreenenter"",""5"",""19590""
","
",18412,audio/instructions/break_1.wav,NA,0,NA,NA,NA,NA,NA,NA,NA,NA,NA,NA,NA,NA,NA,NA,NA,NA,NA,NA,sub26
d3-animate-choice,286,1073690,0.0-78.0-0.0,FALSE,TRUE,TRUE,TRUE,"""event"",""trial"",""time""
""fullscreenenter"",""5"",""19590""
","
","
","""event"",""trial"",""time""
""fullscreenenter"",""5"",""19590""
","
",1319,NA,189,NA,NA,3000,1,1768,48,images/earth.jpg,images/rocket1,images/rocket2,null,images/rocket1,NA,1,real,null,NA,NA,NA,NA,sub26
d3-animate-choice,287,1076172,0.0-78.0-1.0,FALSE,TRUE,TRUE,TRUE,"""event"",""trial"",""time""
""fullscreenenter"",""5"",""19590""
","
","
","""event"",""trial"",""time""
""fullscreenenter"",""5"",""19590""
","
",479,NA,48,NA,NA,3000,1,483,49,images/redplanet1.jpg,images/alien2,images/alien1,images/rocket1,images/alien2,images/t.png,2,real,true,2,common,1,2020-06-02T19:20:59Z,sub26
two-step-fixation,288,1077174,0.0-78.0-2.0,FALSE,TRUE,TRUE,TRUE,"""event"",""trial"",""time""
""fullscreenenter"",""5"",""19590""
","
","
","""event"",""trial"",""time""
""fullscreenenter"",""5"",""19590""
","
",NA,images/earth.jpg,NA,NA,NA,NA,NA,NA,NA,NA,NA,NA,NA,NA,NA,fixation,NA,NA,NA,NA,NA,NA,sub26
d3-animate-choice,289,1079794,0.0-78.0-0.1,FALSE,TRUE,TRUE,TRUE,"""event"",""trial"",""time""
""fullscreenenter"",""5"",""19590""
","
","
