trial_type,trial_index,time_elapsed,internal_node_id,rocket_sides,red_planet_first_rocket,red_display_order,purple_display_order,interactions,blur_events,focus_events,fullscreenenter_events,fullscreenexit_events,rt,stimulus,key_press,button_pressed,success,duration,valid_pressed,rts,keys,planet_text,right_text,left_text,center_text,chosen_text,reward_text,trial_stage,practice_trial,transition_type,choice,transition,reward,timestamp,subject_id
pavlovia,0,12,0.0-0.0,FALSE,TRUE,FALSE,TRUE,"
","
","
","
","
",NA,NA,NA,NA,NA,NA,NA,NA,NA,NA,NA,NA,NA,NA,NA,NA,NA,NA,NA,NA,NA,NA,sub77
html-keyboard-response,1,3960,0.0-1.0,FALSE,TRUE,FALSE,TRUE,"
","
","
","
","
",3944.0750000067055,Welcome! Press the space bar to begin.,32,NA,NA,NA,NA,NA,NA,NA,NA,NA,NA,NA,NA,NA,NA,NA,NA,NA,NA,NA,sub77
audio-keyboard-response,2,6940,0.0-2.0,FALSE,TRUE,FALSE,TRUE,"
","
","
","
","
",2981,audio/beep_loop.wav,32,NA,NA,NA,NA,NA,NA,NA,NA,NA,NA,NA,NA,NA,NA,NA,NA,NA,NA,NA,sub77
audio-button-response,3,9353,0.0-3.0,FALSE,TRUE,FALSE,TRUE,"
","
","
","
","
",NaN,audio/fish.mp3,NA,1,NA,NA,NA,NA,NA,NA,NA,NA,NA,NA,NA,NA,NA,NA,NA,NA,NA,NA,sub77
audio-button-response,4,11822,0.0-4.0,FALSE,TRUE,FALSE,TRUE,"""event"",""trial"",""time""
""fullscreenenter"",""5"",""15518""
","
","
","""event"",""trial"",""time""
""fullscreenenter"",""5"",""15518""
","
",NaN,audio/tiger.mp3,NA,4,NA,NA,NA,NA,NA,NA,NA,NA,NA,NA,NA,NA,NA,NA,NA,NA,NA,NA,sub77
fullscreen,5,16334,0.0-5.0,FALSE,TRUE,FALSE,TRUE,"""event"",""trial"",""time""
""fullscreenenter"",""5"",""15518""
","
","
","""event"",""trial"",""time""
""fullscreenenter"",""5"",""15518""
","
",NA,NA,NA,NA,TRUE,NA,NA,NA,NA,NA,NA,NA,NA,NA,NA,NA,NA,NA,NA,NA,NA,NA,sub77
d3-instructions,6,28604,0.0-6.0,FALSE,TRUE,FALSE,TRUE,"""event"",""trial"",""time""
""fullscreenenter"",""5"",""15518""
","
","
","""event"",""trial"",""time""
""fullscreenenter"",""5"",""15518""
","
",NA,NA,NA,NA,NA,NA,NA,NA,NA,NA,NA,NA,NA,NA,NA,NA,NA,NA,NA,NA,NA,NA,sub77
d3-instructions,7,39941,0.0-7.0,FALSE,TRUE,FALSE,TRUE,"""event"",""trial"",""time""
""fullscreenenter"",""5"",""15518""
","
","
","""event"",""trial"",""time""
""fullscreenenter"",""5"",""15518""
","
",NA,NA,NA,NA,NA,NA,NA,NA,NA,NA,NA,NA,NA,NA,NA,NA,NA,NA,NA,NA,NA,NA,sub77
d3-instructions,8,47441,0.0-8.0,FALSE,TRUE,FALSE,TRUE,"""event"",""trial"",""time""
""fullscreenenter"",""5"",""15518""
","
","
","""event"",""trial"",""time""
""fullscreenenter"",""5"",""15518""
","
",NA,NA,NA,NA,NA,NA,NA,NA,NA,NA,NA,NA,NA,NA,NA,NA,NA,NA,NA,NA,NA,NA,sub77
d3-instructions,9,58402,0.0-9.0,FALSE,TRUE,FALSE,TRUE,"""event"",""trial"",""time""
""fullscreenenter"",""5"",""15518""
","
","
","""event"",""trial"",""time""
""fullscreenenter"",""5"",""15518""
","
",NA,NA,NA,NA,NA,NA,NA,NA,NA,NA,NA,NA,NA,NA,NA,NA,NA,NA,NA,NA,NA,NA,sub77
d3-instructions,10,78423,0.0-10.0,FALSE,TRUE,FALSE,TRUE,"""event"",""trial"",""time""
""fullscreenenter"",""5"",""15518""
","
","
","""event"",""trial"",""time""
""fullscreenenter"",""5"",""15518""
","
",NA,NA,NA,NA,NA,NA,NA,NA,NA,NA,NA,NA,NA,NA,NA,NA,NA,NA,NA,NA,NA,NA,sub77
d3-animate-choice,11,85325,0.0-11.0,FALSE,TRUE,FALSE,TRUE,"""event"",""trial"",""time""
""fullscreenenter"",""5"",""15518""
","
","
","""event"",""trial"",""time""
""fullscreenenter"",""5"",""15518""
","
",687.4300000199582,NA,35,NA,NA,3000,1,"1424.330000008922,2537.5500000081956,2826.7650000052527,3145.329999999376,4885.885000025155,6189.66500001261",353545454948,images/tutgreenplanet.jpg,images/tutalien1,images/tutalien2,null,images/tutalien2,NA,NA,practice,null,NA,NA,NA,NA,sub77
d3-animate-choice,12,92355,0.0-12.0,FALSE,TRUE,FALSE,TRUE,"""event"",""trial"",""time""
""fullscreenenter"",""5"",""15518""
","
","
","""event"",""trial"",""time""
""fullscreenenter"",""5"",""15518""
","
",223.8599999982398,NA,144,NA,NA,3000,1,"810.6650000263471,1126.1500000255182,1684.865000017453,2253.324999997858,3170.3050000069197,3903.5550000262447,4558.285000006435,5023.545000003651",97969796969614430,images/tutgreenplanet.jpg,images/tutalien1,images/tutalien2,null,images/tutalien1,NA,NA,practice,null,NA,NA,NA,NA,sub77
d3-animate-choice,13,97215,0.0-13.0,FALSE,TRUE,FALSE,TRUE,"""event"",""trial"",""time""
""fullscreenenter"",""5"",""15518""
","
","
","""event"",""trial"",""time""
""fullscreenenter"",""5"",""15518""
","
",2852.889999980107,NA,49,NA,NA,3000,1,NA,NA,images/tutgreenplanet.jpg,images/tutalien1,images/tutalien2,null,images/tutalien2,NA,NA,practice,null,NA,NA,NA,NA,sub77
d3-animate-choice,14,101645,0.0-14.0,FALSE,TRUE,FALSE,TRUE,"""event"",""trial"",""time""
""fullscreenenter"",""5"",""15518""
","
","
","""event"",""trial"",""time""
""fullscreenenter"",""5"",""15518""
","
",2422.8650000004563,NA,48,NA,NA,3000,1,NA,NA,images/tutgreenplanet.jpg,images/tutalien1,images/tutalien2,null,images/tutalien1,NA,NA,practice,null,NA,NA,NA,NA,sub77
d3-instructions,15,108816,0.0-15.0,FALSE,TRUE,FALSE,TRUE,"""event"",""trial"",""time""
""fullscreenenter"",""5"",""15518""
","
","
","""event"",""trial"",""time""
""fullscreenenter"",""5"",""15518""
","
",NA,NA,NA,NA,NA,NA,NA,NA,NA,NA,NA,NA,NA,NA,NA,NA,NA,NA,NA,NA,NA,NA,sub77
d3-instructions,16,115728,0.0-16.0,FALSE,TRUE,FALSE,TRUE,"""event"",""trial"",""time""
""fullscreenenter"",""5"",""15518""
","
","
","""event"",""trial"",""time""
""fullscreenenter"",""5"",""15518""
","
",NA,NA,NA,NA,NA,NA,NA,NA,NA,NA,NA,NA,NA,NA,NA,NA,NA,NA,NA,NA,NA,NA,sub77
d3-instructions,17,124310,0.0-17.0,FALSE,TRUE,FALSE,TRUE,"""event"",""trial"",""time""
""fullscreenenter"",""5"",""15518""
","
","
","""event"",""trial"",""time""
""fullscreenenter"",""5"",""15518""
","
",NA,NA,NA,NA,NA,NA,NA,NA,NA,NA,NA,NA,NA,NA,NA,NA,NA,NA,NA,NA,NA,NA,sub77
d3-instructions,18,140326,0.0-18.0,FALSE,TRUE,FALSE,TRUE,"""event"",""trial"",""time""
""fullscreenenter"",""5"",""15518""
","
","
","""event"",""trial"",""time""
""fullscreenenter"",""5"",""15518""
","
",NA,NA,NA,NA,NA,NA,NA,NA,NA,NA,NA,NA,NA,NA,NA,NA,NA,NA,NA,NA,NA,NA,sub77
d3-instructions,19,154209,0.0-19.0,FALSE,TRUE,FALSE,TRUE,"""event"",""trial"",""time""
""fullscreenenter"",""5"",""15518""
","
","
","""event"",""trial"",""time""
""fullscreenenter"",""5"",""15518""
","
",NA,NA,NA,NA,NA,NA,NA,NA,NA,NA,NA,NA,NA,NA,NA,NA,NA,NA,NA,NA,NA,NA,sub77
d3-animate-choice,20,157524,0.0-20.0,FALSE,TRUE,FALSE,TRUE,"""event"",""trial"",""time""
""fullscreenenter"",""5"",""15518""
","
","
","""event"",""trial"",""time""
""fullscreenenter"",""5"",""15518""
","
",1308.130000019446,NA,49,NA,NA,3000,1,NA,NA,images/tutyellowplanet.jpg,null,images/tutalien3,null,images/tutalien3,images/t.png,NA,practice,null,NA,NA,NA,NA,sub77
d3-animate-choice,21,159797,0.0-21.0,FALSE,TRUE,FALSE,TRUE,"""event"",""trial"",""time""
""fullscreenenter"",""5"",""15518""
","
","
","""event"",""trial"",""time""
""fullscreenenter"",""5"",""15518""
","
",265.91000001644716,NA,49,NA,NA,3000,1,NA,NA,images/tutyellowplanet.jpg,null,images/tutalien3,null,images/tutalien3,images/nothing.png,NA,practice,null,NA,NA,NA,NA,sub77
d3-animate-choice,22,162059,0.0-22.0,FALSE,TRUE,FALSE,TRUE,"""event"",""trial"",""time""
""fullscreenenter"",""5"",""15518""
","
","
","""event"",""trial"",""time""
""fullscreenenter"",""5"",""15518""
","
",255.68000000203028,NA,49,NA,NA,3000,1,1688.880000001518,49,images/tutyellowplanet.jpg,null,images/tutalien3,null,images/tutalien3,images/nothing.png,NA,practice,null,NA,NA,NA,NA,sub77
d3-animate-choice,23,164298,0.0-23.0,FALSE,TRUE,FALSE,TRUE,"""event"",""trial"",""time""
""fullscreenenter"",""5"",""15518""
","
","
","""event"",""trial"",""time""
""fullscreenenter"",""5"",""15518""
","
",232.0049999980256,NA,49,NA,NA,3000,1,1623.0700000014622,49,images/tutyellowplanet.jpg,null,images/tutalien3,null,images/tutalien3,images/t.png,NA,practice,null,NA,NA,NA,NA,sub77
d3-animate-choice,24,166344,0.0-24.0,FALSE,TRUE,FALSE,TRUE,"""event"",""trial"",""time""
""fullscreenenter"",""5"",""15518""
","
","
","""event"",""trial"",""time""
""fullscreenenter"",""5"",""15518""
","
",39.06999999890104,NA,49,NA,NA,3000,1,NA,NA,images/tutyellowplanet.jpg,null,images/tutalien3,null,images/tutalien3,images/nothing.png,NA,practice,null,NA,NA,NA,NA,sub77
d3-animate-choice,25,168488,0.0-25.0,FALSE,TRUE,FALSE,TRUE,"""event"",""trial"",""time""
""fullscreenenter"",""5"",""15518""
","
","
","""event"",""trial"",""time""
""fullscreenenter"",""5"",""15518""
","
",139.38000000780448,NA,49,NA,NA,3000,1,1977.195000014035,49,images/tutyellowplanet.jpg,null,images/tutalien3,null,images/tutalien3,images/t.png,NA,practice,null,NA,NA,NA,NA,sub77
d3-animate-choice,26,170913,0.0-26.0,FALSE,TRUE,FALSE,TRUE,"""event"",""trial"",""time""
""fullscreenenter"",""5"",""15518""
","
","
","""event"",""trial"",""time""
""fullscreenenter"",""5"",""15518""
","
",418.34999999264255,NA,49,NA,NA,3000,1,NA,NA,images/tutyellowplanet.jpg,null,images/tutalien3,null,images/tutalien3,images/t.png,NA,practice,null,NA,NA,NA,NA,sub77
d3-animate-choice,27,173212,0.0-27.0,FALSE,TRUE,FALSE,TRUE,"""event"",""trial"",""time""
""fullscreenenter"",""5"",""15518""
","
","
","""event"",""trial"",""time""
""fullscreenenter"",""5"",""15518""
","
",288.5050000040792,NA,49,NA,NA,3000,1,NA,NA,images/tutyellowplanet.jpg,null,images/tutalien3,null,images/tutalien3,images/t.png,NA,practice,null,NA,NA,NA,NA,sub77
d3-animate-choice,28,175463,0.0-28.0,FALSE,TRUE,FALSE,TRUE,"""event"",""trial"",""time""
""fullscreenenter"",""5"",""15518""
","
","
","""event"",""trial"",""time""
""fullscreenenter"",""5"",""15518""
","
",244.04999997932464,NA,49,NA,NA,3000,1,NA,NA,images/tutyellowplanet.jpg,null,images/tutalien3,null,images/tutalien3,images/t.png,NA,practice,null,NA,NA,NA,NA,sub77
d3-animate-choice,29,177701,0.0-29.0,FALSE,TRUE,FALSE,TRUE,"""event"",""trial"",""time""
""fullscreenenter"",""5"",""15518""
","
","
","""event"",""trial"",""time""
""fullscreenenter"",""5"",""15518""
","
",232.32499998994172,NA,49,NA,NA,3000,1,NA,NA,images/tutyellowplanet.jpg,null,images/tutalien3,null,images/tutalien3,images/t.png,NA,practice,null,NA,NA,NA,NA,sub77
d3-instructions,30,184073,0.0-30.0,FALSE,TRUE,FALSE,TRUE,"""event"",""trial"",""time""
""fullscreenenter"",""5"",""15518""
","
","
","""event"",""trial"",""time""
""fullscreenenter"",""5"",""15518""
","
",NA,NA,NA,NA,NA,NA,NA,NA,NA,NA,NA,NA,NA,NA,NA,NA,NA,NA,NA,NA,NA,NA,sub77
d3-instructions,31,194500,0.0-31.0,FALSE,TRUE,FALSE,TRUE,"""event"",""trial"",""time""
""fullscreenenter"",""5"",""15518""
","
","
","""event"",""trial"",""time""
""fullscreenenter"",""5"",""15518""
","
",NA,NA,NA,NA,NA,NA,NA,NA,NA,NA,NA,NA,NA,NA,NA,NA,NA,NA,NA,NA,NA,NA,sub77
d3-instructions,32,209518,0.0-32.0,FALSE,TRUE,FALSE,TRUE,"""event"",""trial"",""time""
""fullscreenenter"",""5"",""15518""
","
","
","""event"",""trial"",""time""
""fullscreenenter"",""5"",""15518""
","
",NA,NA,NA,NA,NA,NA,NA,NA,NA,NA,NA,NA,NA,NA,NA,NA,NA,NA,NA,NA,NA,NA,sub77
d3-instructions,33,219556,0.0-33.0,FALSE,TRUE,FALSE,TRUE,"""event"",""trial"",""time""
""fullscreenenter"",""5"",""15518""
","
","
","""event"",""trial"",""time""
""fullscreenenter"",""5"",""15518""
","
",NA,NA,NA,NA,NA,NA,NA,NA,NA,NA,NA,NA,NA,NA,NA,NA,NA,NA,NA,NA,NA,NA,sub77
d3-animate-choice,34,222924,0.0-34.0,FALSE,TRUE,FALSE,TRUE,"""event"",""trial"",""time""
""fullscreenenter"",""5"",""15518""
","
","
","""event"",""trial"",""time""
""fullscreenenter"",""5"",""15518""
","
",1361.9049999979325,NA,49,NA,NA,3000,1,NA,NA,images/tutgreenplanet.jpg,images/tutalien1,images/tutalien2,null,images/tutalien2,images/t.png,NA,practice,null,NA,NA,NA,NA,sub77
d3-animate-choice,35,225186,0.0-35.0,FALSE,TRUE,FALSE,TRUE,"""event"",""trial"",""time""
""fullscreenenter"",""5"",""15518""
","
","
","""event"",""trial"",""time""
""fullscreenenter"",""5"",""15518""
","
",256.1149999964982,NA,49,NA,NA,3000,1,NA,NA,images/tutgreenplanet.jpg,images/tutalien1,images/tutalien2,null,images/tutalien2,images/t.png,NA,practice,null,NA,NA,NA,NA,sub77
d3-animate-choice,36,227401,0.0-36.0,FALSE,TRUE,FALSE,TRUE,"""event"",""trial"",""time""
""fullscreenenter"",""5"",""15518""
","
","
","""event"",""trial"",""time""
""fullscreenenter"",""5"",""15518""
","
",207.605000003241,NA,49,NA,NA,3000,1,NA,NA,images/tutgreenplanet.jpg,images/tutalien1,images/tutalien2,null,images/tutalien2,images/t.png,NA,practice,null,NA,NA,NA,NA,sub77
d3-animate-choice,37,229579,0.0-37.0,FALSE,TRUE,FALSE,TRUE,"""event"",""trial"",""time""
""fullscreenenter"",""5"",""15518""
","
","
","""event"",""trial"",""time""
""fullscreenenter"",""5"",""15518""
","
",172.81499999808148,NA,49,NA,NA,3000,1,NA,NA,images/tutgreenplanet.jpg,images/tutalien1,images/tutalien2,null,images/tutalien2,images/t.png,NA,practice,null,NA,NA,NA,NA,sub77
d3-animate-choice,38,231664,0.0-38.0,FALSE,TRUE,FALSE,TRUE,"""event"",""trial"",""time""
""fullscreenenter"",""5"",""15518""
","
","
","""event"",""trial"",""time""
""fullscreenenter"",""5"",""15518""
","
",79.64999999967404,NA,49,NA,NA,3000,1,2081.7600000009406,49,images/tutgreenplanet.jpg,images/tutalien1,images/tutalien2,null,images/tutalien2,images/t.png,NA,practice,null,NA,NA,NA,NA,sub77
d3-animate-choice,39,234094,0.0-39.0,FALSE,TRUE,FALSE,TRUE,"""event"",""trial"",""time""
""fullscreenenter"",""5"",""15518""
","
","
","""event"",""trial"",""time""
""fullscreenenter"",""5"",""15518""
","
",423.1199999921955,NA,49,NA,NA,3000,1,NA,NA,images/tutgreenplanet.jpg,images/tutalien1,images/tutalien2,null,images/tutalien2,images/t.png,NA,practice,null,NA,NA,NA,NA,sub77
d3-animate-choice,40,236271,0.0-40.0,FALSE,TRUE,FALSE,TRUE,"""event"",""trial"",""time""
""fullscreenenter"",""5"",""15518""
","
","
","""event"",""trial"",""time""
""fullscreenenter"",""5"",""15518""
","
",171.62500001722947,NA,49,NA,NA,3000,1,NA,NA,images/tutgreenplanet.jpg,images/tutalien1,images/tutalien2,null,images/tutalien2,images/t.png,NA,practice,null,NA,NA,NA,NA,sub77
d3-animate-choice,41,238430,0.0-41.0,FALSE,TRUE,FALSE,TRUE,"""event"",""trial"",""time""
""fullscreenenter"",""5"",""15518""
","
","
","""event"",""trial"",""time""
""fullscreenenter"",""5"",""15518""
","
",153.5149999835994,NA,49,NA,NA,3000,1,NA,NA,images/tutgreenplanet.jpg,images/tutalien1,images/tutalien2,null,images/tutalien2,images/t.png,NA,practice,null,NA,NA,NA,NA,sub77
d3-animate-choice,42,240649,0.0-42.0,FALSE,TRUE,FALSE,TRUE,"""event"",""trial"",""time""
""fullscreenenter"",""5"",""15518""
","
","
","""event"",""trial"",""time""
""fullscreenenter"",""5"",""15518""
","
",211.88499999698251,NA,49,NA,NA,3000,1,NA,NA,images/tutgreenplanet.jpg,images/tutalien1,images/tutalien2,null,images/tutalien2,images/t.png,NA,practice,null,NA,NA,NA,NA,sub77
d3-animate-choice,43,242858,0.0-43.0,FALSE,TRUE,FALSE,TRUE,"""event"",""trial"",""time""
""fullscreenenter"",""5"",""15518""
","
","
","""event"",""trial"",""time""
""fullscreenenter"",""5"",""15518""
","
",202.12000000174157,NA,49,NA,NA,3000,1,NA,NA,images/tutgreenplanet.jpg,images/tutalien1,images/tutalien2,null,images/tutalien2,images/t.png,NA,practice,null,NA,NA,NA,NA,sub77
d3-instructions,44,258000,0.0-44.0,FALSE,TRUE,FALSE,TRUE,"""event"",""trial"",""time""
""fullscreenenter"",""5"",""15518""
","
","
","""event"",""trial"",""time""
""fullscreenenter"",""5"",""15518""
","
",NA,NA,NA,NA,NA,NA,NA,NA,NA,NA,NA,NA,NA,NA,NA,NA,NA,NA,NA,NA,NA,NA,sub77
d3-instructions,45,264273,0.0-45.0,FALSE,TRUE,FALSE,TRUE,"""event"",""trial"",""time""
""fullscreenenter"",""5"",""15518""
","
","
","""event"",""trial"",""time""
""fullscreenenter"",""5"",""15518""
","
",NA,NA,NA,NA,NA,NA,NA,NA,NA,NA,NA,NA,NA,NA,NA,NA,NA,NA,NA,NA,NA,NA,sub77
d3-instructions,46,270669,0.0-46.0,FALSE,TRUE,FALSE,TRUE,"""event"",""trial"",""time""
""fullscreenenter"",""5"",""15518""
","
","
","""event"",""trial"",""time""
""fullscreenenter"",""5"",""15518""
","
",NA,NA,NA,NA,NA,NA,NA,NA,NA,NA,NA,NA,NA,NA,NA,NA,NA,NA,NA,NA,NA,NA,sub77
d3-instructions,47,287801,0.0-47.0,FALSE,TRUE,FALSE,TRUE,"""event"",""trial"",""time""
""fullscreenenter"",""5"",""15518""
","
","
","""event"",""trial"",""time""
""fullscreenenter"",""5"",""15518""
","
",NA,NA,NA,NA,NA,NA,NA,NA,NA,NA,NA,NA,NA,NA,NA,NA,NA,NA,NA,NA,NA,NA,sub77
d3-instructions,48,294492,0.0-48.0,FALSE,TRUE,FALSE,TRUE,"""event"",""trial"",""time""
""fullscreenenter"",""5"",""15518""
","
","
","""event"",""trial"",""time""
""fullscreenenter"",""5"",""15518""
","
",NA,NA,NA,NA,NA,NA,NA,NA,NA,NA,NA,NA,NA,NA,NA,NA,NA,NA,NA,NA,NA,NA,sub77
d3-instructions,49,305657,0.0-49.0,FALSE,TRUE,FALSE,TRUE,"""event"",""trial"",""time""
""fullscreenenter"",""5"",""15518""
","
","
","""event"",""trial"",""time""
""fullscreenenter"",""5"",""15518""
","
",NA,NA,NA,NA,NA,NA,NA,NA,NA,NA,NA,NA,NA,NA,NA,NA,NA,NA,NA,NA,NA,NA,sub77
d3-instructions,50,314595,0.0-50.0,FALSE,TRUE,FALSE,TRUE,"""event"",""trial"",""time""
""fullscreenenter"",""5"",""15518""
","
","
","""event"",""trial"",""time""
""fullscreenenter"",""5"",""15518""
","
",NA,NA,NA,NA,NA,NA,NA,NA,NA,NA,NA,NA,NA,NA,NA,NA,NA,NA,NA,NA,NA,NA,sub77
d3-instructions,51,317460,0.0-51.0,FALSE,TRUE,FALSE,TRUE,"""event"",""trial"",""time""
""fullscreenenter"",""5"",""15518""
","
","
","""event"",""trial"",""time""
""fullscreenenter"",""5"",""15518""
","
",NA,NA,NA,NA,NA,NA,NA,NA,NA,NA,NA,NA,NA,NA,NA,NA,NA,NA,NA,NA,NA,NA,sub77
d3-instructions,52,320453,0.0-52.0,FALSE,TRUE,FALSE,TRUE,"""event"",""trial"",""time""
""fullscreenenter"",""5"",""15518""
","
","
","""event"",""trial"",""time""
""fullscreenenter"",""5"",""15518""
","
",NA,NA,NA,NA,NA,NA,NA,NA,NA,NA,NA,NA,NA,NA,NA,NA,NA,NA,NA,NA,NA,NA,sub77
d3-instructions,53,333751,0.0-53.0,FALSE,TRUE,FALSE,TRUE,"""event"",""trial"",""time""
""fullscreenenter"",""5"",""15518""
","
","
","""event"",""trial"",""time""
""fullscreenenter"",""5"",""15518""
","
",NA,NA,NA,NA,NA,NA,NA,NA,NA,NA,NA,NA,NA,NA,NA,NA,NA,NA,NA,NA,NA,NA,sub77
d3-instructions,54,347685,0.0-54.0,FALSE,TRUE,FALSE,TRUE,"""event"",""trial"",""time""
""fullscreenenter"",""5"",""15518""
","
","
","""event"",""trial"",""time""
""fullscreenenter"",""5"",""15518""
","
",NA,NA,NA,NA,NA,NA,NA,NA,NA,NA,NA,NA,NA,NA,NA,NA,NA,NA,NA,NA,NA,NA,sub77
d3-instructions,55,358332,0.0-55.0,FALSE,TRUE,FALSE,TRUE,"""event"",""trial"",""time""
""fullscreenenter"",""5"",""15518""
","
","
","""event"",""trial"",""time""
""fullscreenenter"",""5"",""15518""
","
",NA,NA,NA,NA,NA,NA,NA,NA,NA,NA,NA,NA,NA,NA,NA,NA,NA,NA,NA,NA,NA,NA,sub77
d3-instructions,56,366118,0.0-56.0,FALSE,TRUE,FALSE,TRUE,"""event"",""trial"",""time""
""fullscreenenter"",""5"",""15518""
","
","
","""event"",""trial"",""time""
""fullscreenenter"",""5"",""15518""
","
",NA,NA,NA,NA,NA,NA,NA,NA,NA,NA,NA,NA,NA,NA,NA,NA,NA,NA,NA,NA,NA,NA,sub77
d3-instructions,57,376519,0.0-57.0,FALSE,TRUE,FALSE,TRUE,"""event"",""trial"",""time""
""fullscreenenter"",""5"",""15518""
","
","
","""event"",""trial"",""time""
""fullscreenenter"",""5"",""15518""
","
",NA,NA,NA,NA,NA,NA,NA,NA,NA,NA,NA,NA,NA,NA,NA,NA,NA,NA,NA,NA,NA,NA,sub77
d3-instructions,58,389141,0.0-58.0,FALSE,TRUE,FALSE,TRUE,"""event"",""trial"",""time""
""fullscreenenter"",""5"",""15518""
","
","
","""event"",""trial"",""time""
""fullscreenenter"",""5"",""15518""
","
",NA,NA,NA,NA,NA,NA,NA,NA,NA,NA,NA,NA,NA,NA,NA,NA,NA,NA,NA,NA,NA,NA,sub77
d3-instructions,59,393589,0.0-59.0,FALSE,TRUE,FALSE,TRUE,"""event"",""trial"",""time""
""fullscreenenter"",""5"",""15518""
","
","
","""event"",""trial"",""time""
""fullscreenenter"",""5"",""15518""
","
",NA,NA,NA,NA,NA,NA,NA,NA,NA,NA,NA,NA,NA,NA,NA,NA,NA,NA,NA,NA,NA,NA,sub77
d3-instructions,60,402631,0.0-60.0,FALSE,TRUE,FALSE,TRUE,"""event"",""trial"",""time""
""fullscreenenter"",""5"",""15518""
","
","
","""event"",""trial"",""time""
""fullscreenenter"",""5"",""15518""
","
",NA,NA,NA,NA,NA,NA,NA,NA,NA,NA,NA,NA,NA,NA,NA,NA,NA,NA,NA,NA,NA,NA,sub77
d3-animate-choice,61,405171,0.0-61.0-0.0,FALSE,TRUE,FALSE,TRUE,"""event"",""trial"",""time""
""fullscreenenter"",""5"",""15518""
","
","
","""event"",""trial"",""time""
""fullscreenenter"",""5"",""15518""
","
",531.4950000029057,NA,48,NA,NA,3000,1,NA,NA,images/earth.jpg,images/tutrocket1,images/tutrocket2,null,images/tutrocket1,NA,1,practice,null,2,NA,NA,NA,sub77
d3-animate-choice,62,407977,0.0-61.0-1.0,FALSE,TRUE,FALSE,TRUE,"""event"",""trial"",""time""
""fullscreenenter"",""5"",""15518""
","
","
","""event"",""trial"",""time""
""fullscreenenter"",""5"",""15518""
","
",792.1450000139885,NA,49,NA,NA,3000,1,NA,NA,images/tutgreenplanet.jpg,images/tutalien2,images/tutalien1,images/tutrocket1,images/tutalien1,images/nothing.png,2,practice,true,1,common,0,2020-06-23T16:01:27Z,sub77
two-step-fixation,63,408988,0.0-61.0-2.0,FALSE,TRUE,FALSE,TRUE,"""event"",""trial"",""time""
""fullscreenenter"",""5"",""15518""
","
","
","""event"",""trial"",""time""
""fullscreenenter"",""5"",""15518""
","
",NA,images/earth.jpg,NA,NA,NA,NA,NA,NA,NA,NA,NA,NA,NA,NA,NA,fixation,NA,NA,NA,NA,NA,NA,sub77
d3-animate-choice,64,411861,0.0-61.0-0.1,FALSE,TRUE,FALSE,TRUE,"""event"",""trial"",""time""
""fullscreenenter"",""5"",""15518""
","
","
","""event"",""trial"",""time""
""fullscreenenter"",""5"",""15518""
","
",866.4649999991525,NA,48,NA,NA,3000,1,NA,NA,images/earth.jpg,images/tutrocket1,images/tutrocket2,null,images/tutrocket1,NA,1,practice,null,2,NA,NA,NA,sub77
d3-animate-choice,65,414594,0.0-61.0-1.1,FALSE,TRUE,FALSE,TRUE,"""event"",""trial"",""time""
""fullscreenenter"",""5"",""15518""
","
","
","""event"",""trial"",""time""
""fullscreenenter"",""5"",""15518""
","
",726.0249999817461,NA,49,NA,NA,3000,1,NA,NA,images/tutyellowplanet.jpg,images/tutalien4,images/tutalien3,images/tutrocket1,images/tutalien3,images/nothing.png,2,practice,false,1,rare,0,2020-06-23T16:01:34Z,sub77
two-step-fixation,66,415599,0.0-61.0-2.1,FALSE,TRUE,FALSE,TRUE,"""event"",""trial"",""time""
""fullscreenenter"",""5"",""15518""
","
","
","""event"",""trial"",""time""
""fullscreenenter"",""5"",""15518""
","
",NA,images/earth.jpg,NA,NA,NA,NA,NA,NA,NA,NA,NA,NA,NA,NA,NA,fixation,NA,NA,NA,NA,NA,NA,sub77
d3-animate-choice,67,417843,0.0-61.0-0.2,FALSE,TRUE,FALSE,TRUE,"""event"",""trial"",""time""
""fullscreenenter"",""5"",""15518""
","
","
","""event"",""trial"",""time""
""fullscreenenter"",""5"",""15518""
","
",238.25500000384636,NA,49,NA,NA,3000,1,NA,NA,images/earth.jpg,images/tutrocket1,images/tutrocket2,null,images/tutrocket2,NA,1,practice,null,1,NA,NA,NA,sub77
d3-animate-choice,68,420284,0.0-61.0-1.2,FALSE,TRUE,FALSE,TRUE,"""event"",""trial"",""time""
""fullscreenenter"",""5"",""15518""
","
","
","""event"",""trial"",""time""
""fullscreenenter"",""5"",""15518""
","
",433.0599999811966,NA,49,NA,NA,3000,1,NA,NA,images/tutyellowplanet.jpg,images/tutalien4,images/tutalien3,images/tutrocket2,images/tutalien3,images/nothing.png,2,practice,true,1,common,0,2020-06-23T16:01:40Z,sub77
two-step-fixation,69,421290,0.0-61.0-2.2,FALSE,TRUE,FALSE,TRUE,"""event"",""trial"",""time""
""fullscreenenter"",""5"",""15518""
","
","
","""event"",""trial"",""time""
""fullscreenenter"",""5"",""15518""
","
",NA,images/earth.jpg,NA,NA,NA,NA,NA,NA,NA,NA,NA,NA,NA,NA,NA,fixation,NA,NA,NA,NA,NA,NA,sub77
d3-animate-choice,70,423643,0.0-61.0-0.3,FALSE,TRUE,FALSE,TRUE,"""event"",""trial"",""time""
""fullscreenenter"",""5"",""15518""
","
","
","""event"",""trial"",""time""
""fullscreenenter"",""5"",""15518""
","
",346.9699999841396,NA,48,NA,NA,3000,1,NA,NA,images/earth.jpg,images/tutrocket1,images/tutrocket2,null,images/tutrocket1,NA,1,practice,null,2,NA,NA,NA,sub77
d3-animate-choice,71,426041,0.0-61.0-1.3,FALSE,TRUE,FALSE,TRUE,"""event"",""trial"",""time""
""fullscreenenter"",""5"",""15518""
","
","
","""event"",""trial"",""time""
""fullscreenenter"",""5"",""15518""
","
",389.1099999891594,NA,48,NA,NA,3000,1,NA,NA,images/tutyellowplanet.jpg,images/tutalien4,images/tutalien3,images/tutrocket1,images/tutalien4,images/nothing.png,2,practice,false,2,rare,0,2020-06-23T16:01:45Z,sub77
two-step-fixation,72,427047,0.0-61.0-2.3,FALSE,TRUE,FALSE,TRUE,"""event"",""trial"",""time""
""fullscreenenter"",""5"",""15518""
","
","
","""event"",""trial"",""time""
""fullscreenenter"",""5"",""15518""
","
",NA,images/earth.jpg,NA,NA,NA,NA,NA,NA,NA,NA,NA,NA,NA,NA,NA,fixation,NA,NA,NA,NA,NA,NA,sub77
d3-animate-choice,73,429492,0.0-61.0-0.4,FALSE,TRUE,FALSE,TRUE,"""event"",""trial"",""time""
""fullscreenenter"",""5"",""15518""
","
","
","""event"",""trial"",""time""
""fullscreenenter"",""5"",""15518""
","
",438.800000003539,NA,49,NA,NA,3000,1,NA,NA,images/earth.jpg,images/tutrocket1,images/tutrocket2,null,images/tutrocket2,NA,1,practice,null,1,NA,NA,NA,sub77
d3-animate-choice,74,432090,0.0-61.0-1.4,FALSE,TRUE,FALSE,TRUE,"""event"",""trial"",""time""
""fullscreenenter"",""5"",""15518""
","
","
","""event"",""trial"",""time""
""fullscreenenter"",""5"",""15518""
","
",590.5800000182353,NA,48,NA,NA,3000,1,NA,NA,images/tutyellowplanet.jpg,images/tutalien4,images/tutalien3,images/tutrocket2,images/tutalien4,images/t.png,2,practice,true,2,common,1,2020-06-23T16:01:51Z,sub77
two-step-fixation,75,433095,0.0-61.0-2.4,FALSE,TRUE,FALSE,TRUE,"""event"",""trial"",""time""
""fullscreenenter"",""5"",""15518""
","
","
","""event"",""trial"",""time""
""fullscreenenter"",""5"",""15518""
","
",NA,images/earth.jpg,NA,NA,NA,NA,NA,NA,NA,NA,NA,NA,NA,NA,NA,fixation,NA,NA,NA,NA,NA,NA,sub77
d3-animate-choice,76,435423,0.0-61.0-0.5,FALSE,TRUE,FALSE,TRUE,"""event"",""trial"",""time""
""fullscreenenter"",""5"",""15518""
","
","
","""event"",""trial"",""time""
""fullscreenenter"",""5"",""15518""
","
",318.9049999928102,NA,48,NA,NA,3000,1,NA,NA,images/earth.jpg,images/tutrocket1,images/tutrocket2,null,images/tutrocket1,NA,1,practice,null,2,NA,NA,NA,sub77
d3-animate-choice,77,437866,0.0-61.0-1.5,FALSE,TRUE,FALSE,TRUE,"""event"",""trial"",""time""
""fullscreenenter"",""5"",""15518""
","
","
","""event"",""trial"",""time""
""fullscreenenter"",""5"",""15518""
","
",434.385000000475,NA,48,NA,NA,3000,1,NA,NA,images/tutgreenplanet.jpg,images/tutalien2,images/tutalien1,images/tutrocket1,images/tutalien2,images/t.png,2,practice,true,2,common,1,2020-06-23T16:01:57Z,sub77
two-step-fixation,78,438871,0.0-61.0-2.5,FALSE,TRUE,FALSE,TRUE,"""event"",""trial"",""time""
""fullscreenenter"",""5"",""15518""
","
","
","""event"",""trial"",""time""
""fullscreenenter"",""5"",""15518""
","
",NA,images/earth.jpg,NA,NA,NA,NA,NA,NA,NA,NA,NA,NA,NA,NA,NA,fixation,NA,NA,NA,NA,NA,NA,sub77
d3-animate-choice,79,441337,0.0-61.0-0.6,FALSE,TRUE,FALSE,TRUE,"""event"",""trial"",""time""
""fullscreenenter"",""5"",""15518""
","
","
","""event"",""trial"",""time""
""fullscreenenter"",""5"",""15518""
","
",459.11500000511296,NA,49,NA,NA,3000,1,NA,NA,images/earth.jpg,images/tutrocket1,images/tutrocket2,null,images/tutrocket2,NA,1,practice,null,1,NA,NA,NA,sub77
d3-animate-choice,80,444018,0.0-61.0-1.6,FALSE,TRUE,FALSE,TRUE,"""event"",""trial"",""time""
""fullscreenenter"",""5"",""15518""
","
","
","""event"",""trial"",""time""
""fullscreenenter"",""5"",""15518""
","
",673.2049999991432,NA,48,NA,NA,3000,1,NA,NA,images/tutyellowplanet.jpg,images/tutalien4,images/tutalien3,images/tutrocket2,images/tutalien4,images/t.png,2,practice,true,2,common,1,2020-06-23T16:02:03Z,sub77
two-step-fixation,81,445025,0.0-61.0-2.6,FALSE,TRUE,FALSE,TRUE,"""event"",""trial"",""time""
""fullscreenenter"",""5"",""15518""
","
","
","""event"",""trial"",""time""
""fullscreenenter"",""5"",""15518""
","
",NA,images/earth.jpg,NA,NA,NA,NA,NA,NA,NA,NA,NA,NA,NA,NA,NA,fixation,NA,NA,NA,NA,NA,NA,sub77
d3-animate-choice,82,447352,0.0-61.0-0.7,FALSE,TRUE,FALSE,TRUE,"""event"",""trial"",""time""
""fullscreenenter"",""5"",""15518""
","
","
","""event"",""trial"",""time""
""fullscreenenter"",""5"",""15518""
","
",320.30999998096377,NA,48,NA,NA,3000,1,NA,NA,images/earth.jpg,images/tutrocket1,images/tutrocket2,null,images/tutrocket1,NA,1,practice,null,2,NA,NA,NA,sub77
d3-animate-choice,83,449992,0.0-61.0-1.7,FALSE,TRUE,FALSE,TRUE,"""event"",""trial"",""time""
""fullscreenenter"",""5"",""15518""
","
","
","""event"",""trial"",""time""
""fullscreenenter"",""5"",""15518""
","
",632.6650000119116,NA,48,NA,NA,3000,1,NA,NA,images/tutgreenplanet.jpg,images/tutalien2,images/tutalien1,images/tutrocket1,images/tutalien2,images/t.png,2,practice,true,2,common,1,2020-06-23T16:02:09Z,sub77
two-step-fixation,84,450998,0.0-61.0-2.7,FALSE,TRUE,FALSE,TRUE,"""event"",""trial"",""time""
""fullscreenenter"",""5"",""15518""
","
","
","""event"",""trial"",""time""
""fullscreenenter"",""5"",""15518""
","
",NA,images/earth.jpg,NA,NA,NA,NA,NA,NA,NA,NA,NA,NA,NA,NA,NA,fixation,NA,NA,NA,NA,NA,NA,sub77
d3-animate-choice,85,453573,0.0-61.0-0.8,FALSE,TRUE,FALSE,TRUE,"""event"",""trial"",""time""
""fullscreenenter"",""5"",""15518""
","
","
","""event"",""trial"",""time""
""fullscreenenter"",""5"",""15518""
","
",566.434999986086,NA,48,NA,NA,3000,1,NA,NA,images/earth.jpg,images/tutrocket1,images/tutrocket2,null,images/tutrocket1,NA,1,practice,null,2,NA,NA,NA,sub77
d3-animate-choice,86,456319,0.0-61.0-1.8,FALSE,TRUE,FALSE,TRUE,"""event"",""trial"",""time""
""fullscreenenter"",""5"",""15518""
","
","
","""event"",""trial"",""time""
""fullscreenenter"",""5"",""15518""
","
",738.8250000076368,NA,48,NA,NA,3000,1,NA,NA,images/tutyellowplanet.jpg,images/tutalien4,images/tutalien3,images/tutrocket1,images/tutalien4,images/nothing.png,2,practice,false,2,rare,0,2020-06-23T16:02:16Z,sub77
two-step-fixation,87,457326,0.0-61.0-2.8,FALSE,TRUE,FALSE,TRUE,"""event"",""trial"",""time""
""fullscreenenter"",""5"",""15518""
","
","
","""event"",""trial"",""time""
""fullscreenenter"",""5"",""15518""
","
",NA,images/earth.jpg,NA,NA,NA,NA,NA,NA,NA,NA,NA,NA,NA,NA,NA,fixation,NA,NA,NA,NA,NA,NA,sub77
d3-animate-choice,88,459663,0.0-61.0-0.9,FALSE,TRUE,FALSE,TRUE,"""event"",""trial"",""time""
""fullscreenenter"",""5"",""15518""
","
","
","""event"",""trial"",""time""
""fullscreenenter"",""5"",""15518""
","
",329.6599999885075,NA,48,NA,NA,3000,1,NA,NA,images/earth.jpg,images/tutrocket1,images/tutrocket2,null,images/tutrocket1,NA,1,practice,null,2,NA,NA,NA,sub77
d3-animate-choice,89,462306,0.0-61.0-1.9,FALSE,TRUE,FALSE,TRUE,"""event"",""trial"",""time""
""fullscreenenter"",""5"",""15518""
","
","
","""event"",""trial"",""time""
""fullscreenenter"",""5"",""15518""
","
",635.4499999724794,NA,48,NA,NA,3000,1,NA,NA,images/tutgreenplanet.jpg,images/tutalien2,images/tutalien1,images/tutrocket1,images/tutalien2,images/nothing.png,2,practice,true,2,common,0,2020-06-23T16:02:22Z,sub77
two-step-fixation,90,463311,0.0-61.0-2.9,FALSE,TRUE,FALSE,TRUE,"""event"",""trial"",""time""
""fullscreenenter"",""5"",""15518""
","
","
","""event"",""trial"",""time""
""fullscreenenter"",""5"",""15518""
","
",NA,images/earth.jpg,NA,NA,NA,NA,NA,NA,NA,NA,NA,NA,NA,NA,NA,fixation,NA,NA,NA,NA,NA,NA,sub77
d3-animate-choice,91,465566,0.0-61.0-0.10,FALSE,TRUE,FALSE,TRUE,"""event"",""trial"",""time""
""fullscreenenter"",""5"",""15518""
","
","
","""event"",""trial"",""time""
""fullscreenenter"",""5"",""15518""
","
",249.39000001177192,NA,49,NA,NA,3000,1,NA,NA,images/earth.jpg,images/tutrocket1,images/tutrocket2,null,images/tutrocket2,NA,1,practice,null,1,NA,NA,NA,sub77
d3-animate-choice,92,468197,0.0-61.0-1.10,FALSE,TRUE,FALSE,TRUE,"""event"",""trial"",""time""
""fullscreenenter"",""5"",""15518""
","
","
","""event"",""trial"",""time""
""fullscreenenter"",""5"",""15518""
","
",623.33000000217,NA,49,NA,NA,3000,1,NA,NA,images/tutyellowplanet.jpg,images/tutalien4,images/tutalien3,images/tutrocket2,images/tutalien3,images/t.png,2,practice,true,1,common,1,2020-06-23T16:02:27Z,sub77
two-step-fixation,93,469203,0.0-61.0-2.10,FALSE,TRUE,FALSE,TRUE,"""event"",""trial"",""time""
""fullscreenenter"",""5"",""15518""
","
","
","""event"",""trial"",""time""
""fullscreenenter"",""5"",""15518""
","
",NA,images/earth.jpg,NA,NA,NA,NA,NA,NA,NA,NA,NA,NA,NA,NA,NA,fixation,NA,NA,NA,NA,NA,NA,sub77
d3-animate-choice,94,471426,0.0-61.0-0.11,FALSE,TRUE,FALSE,TRUE,"""event"",""trial"",""time""
""fullscreenenter"",""5"",""15518""
","
","
","""event"",""trial"",""time""
""fullscreenenter"",""5"",""15518""
","
",216.05999997700565,NA,49,NA,NA,3000,1,NA,NA,images/earth.jpg,images/tutrocket1,images/tutrocket2,null,images/tutrocket2,NA,1,practice,null,1,NA,NA,NA,sub77
d3-animate-choice,95,473889,0.0-61.0-1.11,FALSE,TRUE,FALSE,TRUE,"""event"",""trial"",""time""
""fullscreenenter"",""5"",""15518""
","
","
","""event"",""trial"",""time""
""fullscreenenter"",""5"",""15518""
","
",454.2049999872688,NA,49,NA,NA,3000,1,NA,NA,images/tutyellowplanet.jpg,images/tutalien4,images/tutalien3,images/tutrocket2,images/tutalien3,images/nothing.png,2,practice,true,1,common,0,2020-06-23T16:02:33Z,sub77
two-step-fixation,96,474899,0.0-61.0-2.11,FALSE,TRUE,FALSE,TRUE,"""event"",""trial"",""time""
""fullscreenenter"",""5"",""15518""
","
","
","""event"",""trial"",""time""
""fullscreenenter"",""5"",""15518""
","
",NA,images/earth.jpg,NA,NA,NA,NA,NA,NA,NA,NA,NA,NA,NA,NA,NA,fixation,NA,NA,NA,NA,NA,NA,sub77
d3-animate-choice,97,477190,0.0-61.0-0.12,FALSE,TRUE,FALSE,TRUE,"""event"",""trial"",""time""
""fullscreenenter"",""5"",""15518""
","
","
","""event"",""trial"",""time""
""fullscreenenter"",""5"",""15518""
","
",283.68500000215136,NA,49,NA,NA,3000,1,NA,NA,images/earth.jpg,images/tutrocket1,images/tutrocket2,null,images/tutrocket2,NA,1,practice,null,1,NA,NA,NA,sub77
d3-animate-choice,98,479796,0.0-61.0-1.12,FALSE,TRUE,FALSE,TRUE,"""event"",""trial"",""time""
""fullscreenenter"",""5"",""15518""
","
","
","""event"",""trial"",""time""
""fullscreenenter"",""5"",""15518""
","
",597.6950000040233,NA,48,NA,NA,3000,1,NA,NA,images/tutyellowplanet.jpg,images/tutalien4,images/tutalien3,images/tutrocket2,images/tutalien4,images/t.png,2,practice,true,2,common,1,2020-06-23T16:02:39Z,sub77
two-step-fixation,99,480803,0.0-61.0-2.12,FALSE,TRUE,FALSE,TRUE,"""event"",""trial"",""time""
""fullscreenenter"",""5"",""15518""
","
","
","""event"",""trial"",""time""
""fullscreenenter"",""5"",""15518""
","
",NA,images/earth.jpg,NA,NA,NA,NA,NA,NA,NA,NA,NA,NA,NA,NA,NA,fixation,NA,NA,NA,NA,NA,NA,sub77
d3-animate-choice,100,483295,0.0-61.0-0.13,FALSE,TRUE,FALSE,TRUE,"""event"",""trial"",""time""
""fullscreenenter"",""5"",""15518""
","
","
","""event"",""trial"",""time""
""fullscreenenter"",""5"",""15518""
","
",486.83000000892207,NA,48,NA,NA,3000,1,NA,NA,images/earth.jpg,images/tutrocket1,images/tutrocket2,null,images/tutrocket1,NA,1,practice,null,2,NA,NA,NA,sub77
d3-animate-choice,101,485606,0.0-61.0-1.13,FALSE,TRUE,FALSE,TRUE,"""event"",""trial"",""time""
""fullscreenenter"",""5"",""15518""
","
","
","""event"",""trial"",""time""
""fullscreenenter"",""5"",""15518""
","
",304.93500002194196,NA,48,NA,NA,3000,1,NA,NA,images/tutyellowplanet.jpg,images/tutalien4,images/tutalien3,images/tutrocket1,images/tutalien4,images/nothing.png,2,practice,false,2,rare,0,2020-06-23T16:02:45Z,sub77
two-step-fixation,102,486612,0.0-61.0-2.13,FALSE,TRUE,FALSE,TRUE,"""event"",""trial"",""time""
""fullscreenenter"",""5"",""15518""
","
","
","""event"",""trial"",""time""
""fullscreenenter"",""5"",""15518""
","
",NA,images/earth.jpg,NA,NA,NA,NA,NA,NA,NA,NA,NA,NA,NA,NA,NA,fixation,NA,NA,NA,NA,NA,NA,sub77
d3-animate-choice,103,488889,0.0-61.0-0.14,FALSE,TRUE,FALSE,TRUE,"""event"",""trial"",""time""
""fullscreenenter"",""5"",""15518""
","
","
","""event"",""trial"",""time""
""fullscreenenter"",""5"",""15518""
","
",269.6599999908358,NA,48,NA,NA,3000,1,NA,NA,images/earth.jpg,images/tutrocket1,images/tutrocket2,null,images/tutrocket1,NA,1,practice,null,2,NA,NA,NA,sub77
d3-animate-choice,104,491219,0.0-61.0-1.14,FALSE,TRUE,FALSE,TRUE,"""event"",""trial"",""time""
""fullscreenenter"",""5"",""15518""
","
","
","""event"",""trial"",""time""
""fullscreenenter"",""5"",""15518""
","
",323.3299999847077,NA,49,NA,NA,3000,1,NA,NA,images/tutyellowplanet.jpg,images/tutalien4,images/tutalien3,images/tutrocket1,images/tutalien3,images/nothing.png,2,practice,false,1,rare,0,2020-06-23T16:02:50Z,sub77
two-step-fixation,105,492224,0.0-61.0-2.14,FALSE,TRUE,FALSE,TRUE,"""event"",""trial"",""time""
""fullscreenenter"",""5"",""15518""
","
","
","""event"",""trial"",""time""
""fullscreenenter"",""5"",""15518""
","
",NA,images/earth.jpg,NA,NA,NA,NA,NA,NA,NA,NA,NA,NA,NA,NA,NA,fixation,NA,NA,NA,NA,NA,NA,sub77
d3-animate-choice,106,494393,0.0-61.0-0.15,FALSE,TRUE,FALSE,TRUE,"""event"",""trial"",""time""
""fullscreenenter"",""5"",""15518""
","
","
","""event"",""trial"",""time""
""fullscreenenter"",""5"",""15518""
","
",162.56999998586252,NA,49,NA,NA,3000,1,NA,NA,images/earth.jpg,images/tutrocket1,images/tutrocket2,null,images/tutrocket2,NA,1,practice,null,1,NA,NA,NA,sub77
d3-animate-choice,107,496788,0.0-61.0-1.15,FALSE,TRUE,FALSE,TRUE,"""event"",""trial"",""time""
""fullscreenenter"",""5"",""15518""
","
","
","""event"",""trial"",""time""
""fullscreenenter"",""5"",""15518""
","
",387.87999999476597,NA,48,NA,NA,3000,1,NA,NA,images/tutyellowplanet.jpg,images/tutalien4,images/tutalien3,images/tutrocket2,images/tutalien4,images/t.png,2,practice,true,2,common,1,2020-06-23T16:02:56Z,sub77
two-step-fixation,108,497796,0.0-61.0-2.15,FALSE,TRUE,FALSE,TRUE,"""event"",""trial"",""time""
""fullscreenenter"",""5"",""15518""
","
","
","""event"",""trial"",""time""
""fullscreenenter"",""5"",""15518""
","
",NA,images/earth.jpg,NA,NA,NA,NA,NA,NA,NA,NA,NA,NA,NA,NA,NA,fixation,NA,NA,NA,NA,NA,NA,sub77
d3-animate-choice,109,500392,0.0-61.0-0.16,FALSE,TRUE,FALSE,TRUE,"""event"",""trial"",""time""
""fullscreenenter"",""5"",""15518""
","
","
","""event"",""trial"",""time""
""fullscreenenter"",""5"",""15518""
","
",587.7800000016578,NA,48,NA,NA,3000,1,NA,NA,images/earth.jpg,images/tutrocket1,images/tutrocket2,null,images/tutrocket1,NA,1,practice,null,2,NA,NA,NA,sub77
d3-animate-choice,110,503093,0.0-61.0-1.16,FALSE,TRUE,FALSE,TRUE,"""event"",""trial"",""time""
""fullscreenenter"",""5"",""15518""
","
","
","""event"",""trial"",""time""
""fullscreenenter"",""5"",""15518""
","
",694.4749999966007,NA,49,NA,NA,3000,1,NA,NA,images/tutgreenplanet.jpg,images/tutalien2,images/tutalien1,images/tutrocket1,images/tutalien1,images/nothing.png,2,practice,true,1,common,0,2020-06-23T16:03:02Z,sub77
two-step-fixation,111,504098,0.0-61.0-2.16,FALSE,TRUE,FALSE,TRUE,"""event"",""trial"",""time""
""fullscreenenter"",""5"",""15518""
","
","
","""event"",""trial"",""time""
""fullscreenenter"",""5"",""15518""
","
",NA,images/earth.jpg,NA,NA,NA,NA,NA,NA,NA,NA,NA,NA,NA,NA,NA,fixation,NA,NA,NA,NA,NA,NA,sub77
d3-animate-choice,112,506488,0.0-61.0-0.17,FALSE,TRUE,FALSE,TRUE,"""event"",""trial"",""time""
""fullscreenenter"",""5"",""15518""
","
","
","""event"",""trial"",""time""
""fullscreenenter"",""5"",""15518""
","
",382.884999999078,NA,48,NA,NA,3000,1,NA,NA,images/earth.jpg,images/tutrocket1,images/tutrocket2,null,images/tutrocket1,NA,1,practice,null,2,NA,NA,NA,sub77
d3-animate-choice,113,509076,0.0-61.0-1.17,FALSE,TRUE,FALSE,TRUE,"""event"",""trial"",""time""
""fullscreenenter"",""5"",""15518""
","
","
","""event"",""trial"",""time""
""fullscreenenter"",""5"",""15518""
","
",581.2349999905564,NA,48,NA,NA,3000,1,NA,NA,images/tutgreenplanet.jpg,images/tutalien2,images/tutalien1,images/tutrocket1,images/tutalien2,images/nothing.png,2,practice,true,2,common,0,2020-06-23T16:03:08Z,sub77
two-step-fixation,114,510083,0.0-61.0-2.17,FALSE,TRUE,FALSE,TRUE,"""event"",""trial"",""time""
""fullscreenenter"",""5"",""15518""
","
","
","""event"",""trial"",""time""
""fullscreenenter"",""5"",""15518""
","
",NA,images/earth.jpg,NA,NA,NA,NA,NA,NA,NA,NA,NA,NA,NA,NA,NA,fixation,NA,NA,NA,NA,NA,NA,sub77
d3-animate-choice,115,512262,0.0-61.0-0.18,FALSE,TRUE,FALSE,TRUE,"""event"",""trial"",""time""
""fullscreenenter"",""5"",""15518""
","
","
","""event"",""trial"",""time""
""fullscreenenter"",""5"",""15518""
","
",173.05000001215376,NA,49,NA,NA,3000,1,NA,NA,images/earth.jpg,images/tutrocket1,images/tutrocket2,null,images/tutrocket2,NA,1,practice,null,1,NA,NA,NA,sub77
d3-animate-choice,116,514685,0.0-61.0-1.18,FALSE,TRUE,FALSE,TRUE,"""event"",""trial"",""time""
""fullscreenenter"",""5"",""15518""
","
","
","""event"",""trial"",""time""
""fullscreenenter"",""5"",""15518""
","
",415.4850000049919,NA,48,NA,NA,3000,1,NA,NA,images/tutyellowplanet.jpg,images/tutalien4,images/tutalien3,images/tutrocket2,images/tutalien4,images/t.png,2,practice,true,2,common,1,2020-06-23T16:03:14Z,sub77
two-step-fixation,117,515690,0.0-61.0-2.18,FALSE,TRUE,FALSE,TRUE,"""event"",""trial"",""time""
""fullscreenenter"",""5"",""15518""
","
","
","""event"",""trial"",""time""
""fullscreenenter"",""5"",""15518""
","
",NA,images/earth.jpg,NA,NA,NA,NA,NA,NA,NA,NA,NA,NA,NA,NA,NA,fixation,NA,NA,NA,NA,NA,NA,sub77
d3-animate-choice,118,517990,0.0-61.0-0.19,FALSE,TRUE,FALSE,TRUE,"""event"",""trial"",""time""
""fullscreenenter"",""5"",""15518""
","
","
","""event"",""trial"",""time""
""fullscreenenter"",""5"",""15518""
","
",294.1550000105053,NA,48,NA,NA,3000,1,NA,NA,images/earth.jpg,images/tutrocket1,images/tutrocket2,null,images/tutrocket1,NA,1,practice,null,2,NA,NA,NA,sub77
d3-animate-choice,119,520717,0.0-61.0-1.19,FALSE,TRUE,FALSE,TRUE,"""event"",""trial"",""time""
""fullscreenenter"",""5"",""15518""
","
","
","""event"",""trial"",""time""
""fullscreenenter"",""5"",""15518""
","
",720.7999999809545,NA,49,NA,NA,3000,1,NA,NA,images/tutgreenplanet.jpg,images/tutalien2,images/tutalien1,images/tutrocket1,images/tutalien1,images/nothing.png,2,practice,true,1,common,0,2020-06-23T16:03:20Z,sub77
two-step-fixation,120,521723,0.0-61.0-2.19,FALSE,TRUE,FALSE,TRUE,"""event"",""trial"",""time""
""fullscreenenter"",""5"",""15518""
","
","
","""event"",""trial"",""time""
""fullscreenenter"",""5"",""15518""
","
",NA,images/earth.jpg,NA,NA,NA,NA,NA,NA,NA,NA,NA,NA,NA,NA,NA,fixation,NA,NA,NA,NA,NA,NA,sub77
d3-instructions,121,528151,0.0-62.0,FALSE,TRUE,FALSE,TRUE,"""event"",""trial"",""time""
""fullscreenenter"",""5"",""15518""
","
","
","""event"",""trial"",""time""
""fullscreenenter"",""5"",""15518""
","
",NA,NA,NA,NA,NA,NA,NA,NA,NA,NA,NA,NA,NA,NA,NA,NA,NA,NA,NA,NA,NA,NA,sub77
audio-keyboard-response,122,533302,0.0-63.0,FALSE,TRUE,FALSE,TRUE,"""event"",""trial"",""time""
""fullscreenenter"",""5"",""15518""
","
","
","""event"",""trial"",""time""
""fullscreenenter"",""5"",""15518""
","
",5149,audio/instructions/treasure_feedback.wav,32,NA,NA,NA,NA,NA,NA,NA,NA,NA,NA,NA,NA,NA,NA,NA,NA,NA,NA,NA,sub77
d3-instructions,123,553399,0.0-64.0,FALSE,TRUE,FALSE,TRUE,"""event"",""trial"",""time""
""fullscreenenter"",""5"",""15518""
","
","
","""event"",""trial"",""time""
""fullscreenenter"",""5"",""15518""
","
",NA,NA,NA,NA,NA,NA,NA,NA,NA,NA,NA,NA,NA,NA,NA,NA,NA,NA,NA,NA,NA,NA,sub77
d3-instructions,124,568593,0.0-65.0,FALSE,TRUE,FALSE,TRUE,"""event"",""trial"",""time""
""fullscreenenter"",""5"",""15518""
""blur"",""125"",""595815""
""focus"",""125"",""595911""
""fullscreenexit"",""125"",""595912""
","""event"",""trial"",""time""
""blur"",""125"",""595815""
","""event"",""trial"",""time""
""focus"",""125"",""595911""
","""event"",""trial"",""time""
""fullscreenenter"",""5"",""15518""
","""event"",""trial"",""time""
""fullscreenexit"",""125"",""595912""
",NA,NA,NA,NA,NA,NA,NA,NA,NA,NA,NA,NA,NA,NA,NA,NA,NA,NA,NA,NA,NA,NA,sub77
d3-instructions,125,598968,0.0-66.0,FALSE,TRUE,FALSE,TRUE,"""event"",""trial"",""time""
""fullscreenenter"",""5"",""15518""
""blur"",""125"",""595815""
""focus"",""125"",""595911""
""fullscreenexit"",""125"",""595912""
","""event"",""trial"",""time""
""blur"",""125"",""595815""
","""event"",""trial"",""time""
""focus"",""125"",""595911""
","""event"",""trial"",""time""
""fullscreenenter"",""5"",""15518""
","""event"",""trial"",""time""
""fullscreenexit"",""125"",""595912""
",NA,NA,NA,NA,NA,NA,NA,NA,NA,NA,NA,NA,NA,NA,NA,NA,NA,NA,NA,NA,NA,NA,sub77
d3-instructions,126,667074,0.0-67.0,FALSE,TRUE,FALSE,TRUE,"""event"",""trial"",""time""
""fullscreenenter"",""5"",""15518""
""blur"",""125"",""595815""
""focus"",""125"",""595911""
""fullscreenexit"",""125"",""595912""
","""event"",""trial"",""time""
""blur"",""125"",""595815""
","""event"",""trial"",""time""
""focus"",""125"",""595911""
","""event"",""trial"",""time""
""fullscreenenter"",""5"",""15518""
","""event"",""trial"",""time""
""fullscreenexit"",""125"",""595912""
",NA,NA,NA,NA,NA,NA,NA,NA,NA,NA,NA,NA,NA,NA,NA,NA,NA,NA,NA,NA,NA,NA,sub77
d3-instructions,127,675522,0.0-68.0,FALSE,TRUE,FALSE,TRUE,"""event"",""trial"",""time""
""fullscreenenter"",""5"",""15518""
""blur"",""125"",""595815""
""focus"",""125"",""595911""
""fullscreenexit"",""125"",""595912""
","""event"",""trial"",""time""
""blur"",""125"",""595815""
","""event"",""trial"",""time""
""focus"",""125"",""595911""
","""event"",""trial"",""time""
""fullscreenenter"",""5"",""15518""
","""event"",""trial"",""time""
""fullscreenexit"",""125"",""595912""
",NA,NA,NA,NA,NA,NA,NA,NA,NA,NA,NA,NA,NA,NA,NA,NA,NA,NA,NA,NA,NA,NA,sub77
instructions-quiz,128,679126,0.0-69.0,FALSE,TRUE,FALSE,TRUE,"""event"",""trial"",""time""
""fullscreenenter"",""5"",""15518""
""blur"",""125"",""595815""
""focus"",""125"",""595911""
""fullscreenexit"",""125"",""595912""
","""event"",""trial"",""time""
""blur"",""125"",""595815""
","""event"",""trial"",""time""
""focus"",""125"",""595911""
","""event"",""trial"",""time""
""fullscreenenter"",""5"",""15518""
","""event"",""trial"",""time""
""fullscreenexit"",""125"",""595912""
",3599.5199999888428,audio/quiz/Q1_Prompt.wav,NA,1,NA,NA,NA,NA,NA,NA,NA,NA,NA,NA,NA,NA,NA,NA,NA,NA,NA,NA,sub77
audio-keyboard-response,129,688292,0.0-70.0,FALSE,TRUE,FALSE,TRUE,"""event"",""trial"",""time""
""fullscreenenter"",""5"",""15518""
""blur"",""125"",""595815""
""focus"",""125"",""595911""
""fullscreenexit"",""125"",""595912""
","""event"",""trial"",""time""
""blur"",""125"",""595815""
","""event"",""trial"",""time""
""focus"",""125"",""595911""
","""event"",""trial"",""time""
""fullscreenenter"",""5"",""15518""
","""event"",""trial"",""time""
""fullscreenexit"",""125"",""595912""
",null,audio/quiz/Q1_Correct.wav,null,NA,NA,NA,NA,NA,NA,NA,NA,NA,NA,NA,NA,NA,NA,NA,NA,NA,NA,NA,sub77
instructions-quiz,130,695074,0.0-71.0,FALSE,TRUE,FALSE,TRUE,"""event"",""trial"",""time""
""fullscreenenter"",""5"",""15518""
""blur"",""125"",""595815""
""focus"",""125"",""595911""
""fullscreenexit"",""125"",""595912""
","""event"",""trial"",""time""
""blur"",""125"",""595815""
","""event"",""trial"",""time""
""focus"",""125"",""595911""
","""event"",""trial"",""time""
""fullscreenenter"",""5"",""15518""
","""event"",""trial"",""time""
""fullscreenexit"",""125"",""595912""
",6778.965000004973,audio/quiz/Q2_Prompt.wav,NA,0,NA,NA,NA,NA,NA,NA,NA,NA,NA,NA,NA,NA,NA,NA,NA,NA,NA,NA,sub77
audio-keyboard-response,131,707942,0.0-72.0,FALSE,TRUE,FALSE,TRUE,"""event"",""trial"",""time""
""fullscreenenter"",""5"",""15518""
""blur"",""125"",""595815""
""focus"",""125"",""595911""
""fullscreenexit"",""125"",""595912""
","""event"",""trial"",""time""
""blur"",""125"",""595815""
","""event"",""trial"",""time""
""focus"",""125"",""595911""
","""event"",""trial"",""time""
""fullscreenenter"",""5"",""15518""
","""event"",""trial"",""time""
""fullscreenexit"",""125"",""595912""
",null,audio/quiz/Q2_Correct.wav,null,NA,NA,NA,NA,NA,NA,NA,NA,NA,NA,NA,NA,NA,NA,NA,NA,NA,NA,NA,sub77
instructions-quiz,132,711953,0.0-73.0,FALSE,TRUE,FALSE,TRUE,"""event"",""trial"",""time""
""fullscreenenter"",""5"",""15518""
""blur"",""125"",""595815""
""focus"",""125"",""595911""
""fullscreenexit"",""125"",""595912""
","""event"",""trial"",""time""
""blur"",""125"",""595815""
","""event"",""trial"",""time""
""focus"",""125"",""595911""
","""event"",""trial"",""time""
""fullscreenenter"",""5"",""15518""
","""event"",""trial"",""time""
""fullscreenexit"",""125"",""595912""
",4007.9050000058487,audio/quiz/Q3_Prompt.wav,NA,1,NA,NA,NA,NA,NA,NA,NA,NA,NA,NA,NA,NA,NA,NA,NA,NA,NA,NA,sub77
audio-keyboard-response,133,717752,0.0-74.0,FALSE,TRUE,FALSE,TRUE,"""event"",""trial"",""time""
""fullscreenenter"",""5"",""15518""
""blur"",""125"",""595815""
""focus"",""125"",""595911""
""fullscreenexit"",""125"",""595912""
","""event"",""trial"",""time""
""blur"",""125"",""595815""
","""event"",""trial"",""time""
""focus"",""125"",""595911""
","""event"",""trial"",""time""
""fullscreenenter"",""5"",""15518""
","""event"",""trial"",""time""
""fullscreenexit"",""125"",""595912""
",null,audio/quiz/Q3_Correct.wav,null,NA,NA,NA,NA,NA,NA,NA,NA,NA,NA,NA,NA,NA,NA,NA,NA,NA,NA,NA,sub77
d3-instructions,134,731652,0.0-75.0,FALSE,TRUE,FALSE,TRUE,"""event"",""trial"",""time""
""fullscreenenter"",""5"",""15518""
""blur"",""125"",""595815""
""focus"",""125"",""595911""
""fullscreenexit"",""125"",""595912""
","""event"",""trial"",""time""
""blur"",""125"",""595815""
","""event"",""trial"",""time""
""focus"",""125"",""595911""
","""event"",""trial"",""time""
""fullscreenenter"",""5"",""15518""
","""event"",""trial"",""time""
""fullscreenexit"",""125"",""595912""
",NA,NA,NA,NA,NA,NA,NA,NA,NA,NA,NA,NA,NA,NA,NA,NA,NA,NA,NA,NA,NA,NA,sub77
d3-animate-choice,135,734864,0.0-76.0-0.0,FALSE,TRUE,FALSE,TRUE,"""event"",""trial"",""time""
""fullscreenenter"",""5"",""15518""
""blur"",""125"",""595815""
""focus"",""125"",""595911""
""fullscreenexit"",""125"",""595912""
","""event"",""trial"",""time""
""blur"",""125"",""595815""
","""event"",""trial"",""time""
""focus"",""125"",""595911""
","""event"",""trial"",""time""
""fullscreenenter"",""5"",""15518""
","""event"",""trial"",""time""
""fullscreenexit"",""125"",""595912""
",1204.8650000069756,NA,48,NA,NA,3000,1,NA,NA,images/earth.jpg,images/rocket1,images/rocket2,null,images/rocket1,NA,1,real,null,2,NA,NA,NA,sub77
d3-animate-choice,136,737364,0.0-76.0-1.0,FALSE,TRUE,FALSE,TRUE,"""event"",""trial"",""time""
""fullscreenenter"",""5"",""15518""
""blur"",""125"",""595815""
""focus"",""125"",""595911""
""fullscreenexit"",""125"",""595912""
","""event"",""trial"",""time""
""blur"",""125"",""595815""
","""event"",""trial"",""time""
""focus"",""125"",""595911""
","""event"",""trial"",""time""
""fullscreenenter"",""5"",""15518""
","""event"",""trial"",""time""
""fullscreenexit"",""125"",""595912""
",492.78500000946224,NA,49,NA,NA,3000,1,NA,NA,images/redplanet1.jpg,images/alien2,images/alien1,images/rocket1,images/alien1,images/t.png,2,real,true,1,common,1,2020-06-23T16:06:57Z,sub77
two-step-fixation,137,738370,0.0-76.0-2.0,FALSE,TRUE,FALSE,TRUE,"""event"",""trial"",""time""
""fullscreenenter"",""5"",""15518""
""blur"",""125"",""595815""
""focus"",""125"",""595911""
""fullscreenexit"",""125"",""595912""
","""event"",""trial"",""time""
""blur"",""125"",""595815""
","""event"",""trial"",""time""
""focus"",""125"",""595911""
","""event"",""trial"",""time""
""fullscreenenter"",""5"",""15518""
","""event"",""trial"",""time""
""fullscreenexit"",""125"",""595912""
",NA,images/earth.jpg,NA,NA,NA,NA,NA,NA,NA,NA,NA,NA,NA,NA,NA,fixation,NA,NA,NA,NA,NA,NA,sub77
d3-animate-choice,138,740679,0.0-76.0-0.1,FALSE,TRUE,FALSE,TRUE,"""event"",""trial"",""time""
""fullscreenenter"",""5"",""15518""
""blur"",""125"",""595815""
""focus"",""125"",""595911""
""fullscreenexit"",""125"",""595912""
","""event"",""trial"",""time""
""blur"",""125"",""595815""
","""event"",""trial"",""time""
""focus"",""125"",""595911""
","""event"",""trial"",""time""
""fullscreenenter"",""5"",""15518""
","""event"",""trial"",""time""
""fullscreenexit"",""125"",""595912""
",301.9899999781046,NA,48,NA,NA,3000,1,NA,NA,images/earth.jpg,images/rocket1,images/rocket2,null,images/rocket1,NA,1,real,null,2,NA,NA,NA,sub77
d3-animate-choice,139,743445,0.0-76.0-1.1,FALSE,TRUE,FALSE,TRUE,"""event"",""trial"",""time""
""fullscreenenter"",""5"",""15518""
""blur"",""125"",""595815""
""focus"",""125"",""595911""
""fullscreenexit"",""125"",""595912""
","""event"",""trial"",""time""
""blur"",""125"",""595815""
","""event"",""trial"",""time""
""focus"",""125"",""595911""
","""event"",""trial"",""time""
""fullscreenenter"",""5"",""15518""
","""event"",""trial"",""time""
""fullscreenexit"",""125"",""595912""
",757.2200000286102,NA,49,NA,NA,3000,1,NA,NA,images/purpleplanet.jpg,images/alien4,images/alien3,images/rocket1,images/alien3,images/nothing.png,2,real,false,1,rare,0,2020-06-23T16:07:03Z,sub77
two-step-fixation,140,744449,0.0-76.0-2.1,FALSE,TRUE,FALSE,TRUE,"""event"",""trial"",""time""
""fullscreenenter"",""5"",""15518""
""blur"",""125"",""595815""
""focus"",""125"",""595911""
""fullscreenexit"",""125"",""595912""
","""event"",""trial"",""time""
""blur"",""125"",""595815""
","""event"",""trial"",""time""
""focus"",""125"",""595911""
","""event"",""trial"",""time""
""fullscreenenter"",""5"",""15518""
","""event"",""trial"",""time""
""fullscreenexit"",""125"",""595912""
",NA,images/earth.jpg,NA,NA,NA,NA,NA,NA,NA,NA,NA,NA,NA,NA,NA,fixation,NA,NA,NA,NA,NA,NA,sub77
d3-animate-choice,141,746738,0.0-76.0-0.2,FALSE,TRUE,FALSE,TRUE,"""event"",""trial"",""time""
""fullscreenenter"",""5"",""15518""
""blur"",""125"",""595815""
""focus"",""125"",""595911""
""fullscreenexit"",""125"",""595912""
","""event"",""trial"",""time""
""blur"",""125"",""595815""
","""event"",""trial"",""time""
""focus"",""125"",""595911""
","""event"",""trial"",""time""
""fullscreenenter"",""5"",""15518""
","""event"",""trial"",""time""
""fullscreenexit"",""125"",""595912""
",282.0300000021234,NA,48,NA,NA,3000,1,NA,NA,images/earth.jpg,images/rocket1,images/rocket2,null,images/rocket1,NA,1,real,null,2,NA,NA,NA,sub77
d3-animate-choice,142,749210,0.0-76.0-1.2,FALSE,TRUE,FALSE,TRUE,"""event"",""trial"",""time""
""fullscreenenter"",""5"",""15518""
""blur"",""125"",""595815""
""focus"",""125"",""595911""
""fullscreenexit"",""125"",""595912""
","""event"",""trial"",""time""
""blur"",""125"",""595815""
","""event"",""trial"",""time""
""focus"",""125"",""595911""
","""event"",""trial"",""time""
""fullscreenenter"",""5"",""15518""
","""event"",""trial"",""time""
""fullscreenexit"",""125"",""595912""
",464.0850000141654,NA,49,NA,NA,3000,1,NA,NA,images/redplanet1.jpg,images/alien2,images/alien1,images/rocket1,images/alien1,images/nothing.png,2,real,true,1,common,0,2020-06-23T16:07:08Z,sub77
two-step-fixation,143,750215,0.0-76.0-2.2,FALSE,TRUE,FALSE,TRUE,"""event"",""trial"",""time""
""fullscreenenter"",""5"",""15518""
""blur"",""125"",""595815""
""focus"",""125"",""595911""
""fullscreenexit"",""125"",""595912""
","""event"",""trial"",""time""
""blur"",""125"",""595815""
","""event"",""trial"",""time""
""focus"",""125"",""595911""
","""event"",""trial"",""time""
""fullscreenenter"",""5"",""15518""
","""event"",""trial"",""time""
""fullscreenexit"",""125"",""595912""
",NA,images/earth.jpg,NA,NA,NA,NA,NA,NA,NA,NA,NA,NA,NA,NA,NA,fixation,NA,NA,NA,NA,NA,NA,sub77
d3-animate-choice,144,752407,0.0-76.0-0.3,FALSE,TRUE,FALSE,TRUE,"""event"",""trial"",""time""
""fullscreenenter"",""5"",""15518""
""blur"",""125"",""595815""
""focus"",""125"",""595911""
""fullscreenexit"",""125"",""595912""
","""event"",""trial"",""time""
""blur"",""125"",""595815""
","""event"",""trial"",""time""
""focus"",""125"",""595911""
","""event"",""trial"",""time""
""fullscreenenter"",""5"",""15518""
","""event"",""trial"",""time""
""fullscreenexit"",""125"",""595912""
",187.28499999269843,NA,49,NA,NA,3000,1,NA,NA,images/earth.jpg,images/rocket1,images/rocket2,null,images/rocket2,NA,1,real,null,1,NA,NA,NA,sub77
d3-animate-choice,145,755021,0.0-76.0-1.3,FALSE,TRUE,FALSE,TRUE,"""event"",""trial"",""time""
""fullscreenenter"",""5"",""15518""
""blur"",""125"",""595815""
""focus"",""125"",""595911""
""fullscreenexit"",""125"",""595912""
","""event"",""trial"",""time""
""blur"",""125"",""595815""
","""event"",""trial"",""time""
""focus"",""125"",""595911""
","""event"",""trial"",""time""
""fullscreenenter"",""5"",""15518""
","""event"",""trial"",""time""
""fullscreenexit"",""125"",""595912""
",605.7600000058301,NA,48,NA,NA,3000,1,NA,NA,images/redplanet1.jpg,images/alien2,images/alien1,images/rocket2,images/alien2,images/nothing.png,2,real,false,2,rare,0,2020-06-23T16:07:14Z,sub77
two-step-fixation,146,756027,0.0-76.0-2.3,FALSE,TRUE,FALSE,TRUE,"""event"",""trial"",""time""
""fullscreenenter"",""5"",""15518""
""blur"",""125"",""595815""
""focus"",""125"",""595911""
""fullscreenexit"",""125"",""595912""
","""event"",""trial"",""time""
""blur"",""125"",""595815""
","""event"",""trial"",""time""
""focus"",""125"",""595911""
","""event"",""trial"",""time""
""fullscreenenter"",""5"",""15518""
","""event"",""trial"",""time""
""fullscreenexit"",""125"",""595912""
",NA,images/earth.jpg,NA,NA,NA,NA,NA,NA,NA,NA,NA,NA,NA,NA,NA,fixation,NA,NA,NA,NA,NA,NA,sub77
d3-animate-choice,147,758771,0.0-76.0-0.4,FALSE,TRUE,FALSE,TRUE,"""event"",""trial"",""time""
""fullscreenenter"",""5"",""15518""
""blur"",""125"",""595815""
""focus"",""125"",""595911""
""fullscreenexit"",""125"",""595912""
","""event"",""trial"",""time""
""blur"",""125"",""595815""
","""event"",""trial"",""time""
""focus"",""125"",""595911""
","""event"",""trial"",""time""
""fullscreenenter"",""5"",""15518""
","""event"",""trial"",""time""
""fullscreenexit"",""125"",""595912""
",738.4249999886379,NA,49,NA,NA,3000,1,NA,NA,images/earth.jpg,images/rocket1,images/rocket2,null,images/rocket2,NA,1,real,null,1,NA,NA,NA,sub77
d3-animate-choice,148,761800,0.0-76.0-1.4,FALSE,TRUE,FALSE,TRUE,"""event"",""trial"",""time""
""fullscreenenter"",""5"",""15518""
""blur"",""125"",""595815""
""focus"",""125"",""595911""
""fullscreenexit"",""125"",""595912""
","""event"",""trial"",""time""
""blur"",""125"",""595815""
","""event"",""trial"",""time""
""focus"",""125"",""595911""
","""event"",""trial"",""time""
""fullscreenenter"",""5"",""15518""
","""event"",""trial"",""time""
""fullscreenexit"",""125"",""595912""
",1021.5399999869987,NA,49,NA,NA,3000,1,NA,NA,images/purpleplanet.jpg,images/alien4,images/alien3,images/rocket2,images/alien3,images/nothing.png,2,real,true,1,common,0,2020-06-23T16:07:21Z,sub77
two-step-fixation,149,762806,0.0-76.0-2.4,FALSE,TRUE,FALSE,TRUE,"""event"",""trial"",""time""
""fullscreenenter"",""5"",""15518""
""blur"",""125"",""595815""
""focus"",""125"",""595911""
""fullscreenexit"",""125"",""595912""
","""event"",""trial"",""time""
""blur"",""125"",""595815""
","""event"",""trial"",""time""
""focus"",""125"",""595911""
","""event"",""trial"",""time""
""fullscreenenter"",""5"",""15518""
","""event"",""trial"",""time""
""fullscreenexit"",""125"",""595912""
",NA,images/earth.jpg,NA,NA,NA,NA,NA,NA,NA,NA,NA,NA,NA,NA,NA,fixation,NA,NA,NA,NA,NA,NA,sub77
d3-animate-choice,150,765145,0.0-76.0-0.5,FALSE,TRUE,FALSE,TRUE,"""event"",""trial"",""time""
""fullscreenenter"",""5"",""15518""
""blur"",""125"",""595815""
""focus"",""125"",""595911""
""fullscreenexit"",""125"",""595912""
","""event"",""trial"",""time""
""blur"",""125"",""595815""
","""event"",""trial"",""time""
""focus"",""125"",""595911""
","""event"",""trial"",""time""
""fullscreenenter"",""5"",""15518""
","""event"",""trial"",""time""
""fullscreenexit"",""125"",""595912""
",331.91499998793006,NA,48,NA,NA,3000,1,NA,NA,images/earth.jpg,images/rocket1,images/rocket2,null,images/rocket1,NA,1,real,null,2,NA,NA,NA,sub77
d3-animate-choice,151,767830,0.0-76.0-1.5,FALSE,TRUE,FALSE,TRUE,"""event"",""trial"",""time""
""fullscreenenter"",""5"",""15518""
""blur"",""125"",""595815""
""focus"",""125"",""595911""
""fullscreenexit"",""125"",""595912""
","""event"",""trial"",""time""
""blur"",""125"",""595815""
","""event"",""trial"",""time""
""focus"",""125"",""595911""
","""event"",""trial"",""time""
""fullscreenenter"",""5"",""15518""
","""event"",""trial"",""time""
""fullscreenexit"",""125"",""595912""
",677.5649999908637,NA,49,NA,NA,3000,1,NA,NA,images/redplanet1.jpg,images/alien2,images/alien1,images/rocket1,images/alien1,images/nothing.png,2,real,true,1,common,0,2020-06-23T16:07:27Z,sub77
two-step-fixation,152,768837,0.0-76.0-2.5,FALSE,TRUE,FALSE,TRUE,"""event"",""trial"",""time""
""fullscreenenter"",""5"",""15518""
""blur"",""125"",""595815""
""focus"",""125"",""595911""
""fullscreenexit"",""125"",""595912""
","""event"",""trial"",""time""
""blur"",""125"",""595815""
","""event"",""trial"",""time""
""focus"",""125"",""595911""
","""event"",""trial"",""time""
""fullscreenenter"",""5"",""15518""
","""event"",""trial"",""time""
""fullscreenexit"",""125"",""595912""
",NA,images/earth.jpg,NA,NA,NA,NA,NA,NA,NA,NA,NA,NA,NA,NA,NA,fixation,NA,NA,NA,NA,NA,NA,sub77
d3-animate-choice,153,771058,0.0-76.0-0.6,FALSE,TRUE,FALSE,TRUE,"""event"",""trial"",""time""
""fullscreenenter"",""5"",""15518""
""blur"",""125"",""595815""
""focus"",""125"",""595911""
""fullscreenexit"",""125"",""595912""
","""event"",""trial"",""time""
""blur"",""125"",""595815""
","""event"",""trial"",""time""
""focus"",""125"",""595911""
","""event"",""trial"",""time""
""fullscreenenter"",""5"",""15518""
","""event"",""trial"",""time""
""fullscreenexit"",""125"",""595912""
",214.31499999016523,NA,49,NA,NA,3000,1,NA,NA,images/earth.jpg,images/rocket1,images/rocket2,null,images/rocket2,NA,1,real,null,1,NA,NA,NA,sub77
d3-animate-choice,154,773439,0.0-76.0-1.6,FALSE,TRUE,FALSE,TRUE,"""event"",""trial"",""time""
""fullscreenenter"",""5"",""15518""
""blur"",""125"",""595815""
""focus"",""125"",""595911""
""fullscreenexit"",""125"",""595912""
","""event"",""trial"",""time""
""blur"",""125"",""595815""
","""event"",""trial"",""time""
""focus"",""125"",""595911""
","""event"",""trial"",""time""
""fullscreenenter"",""5"",""15518""
","""event"",""trial"",""time""
""fullscreenexit"",""125"",""595912""
",374.93499999982305,NA,48,NA,NA,3000,1,NA,NA,images/purpleplanet.jpg,images/alien4,images/alien3,images/rocket2,images/alien4,images/nothing.png,2,real,true,2,common,0,2020-06-23T16:07:33Z,sub77
two-step-fixation,155,774445,0.0-76.0-2.6,FALSE,TRUE,FALSE,TRUE,"""event"",""trial"",""time""
""fullscreenenter"",""5"",""15518""
""blur"",""125"",""595815""
""focus"",""125"",""595911""
""fullscreenexit"",""125"",""595912""
","""event"",""trial"",""time""
""blur"",""125"",""595815""
","""event"",""trial"",""time""
""focus"",""125"",""595911""
","""event"",""trial"",""time""
""fullscreenenter"",""5"",""15518""
","""event"",""trial"",""time""
""fullscreenexit"",""125"",""595912""
",NA,images/earth.jpg,NA,NA,NA,NA,NA,NA,NA,NA,NA,NA,NA,NA,NA,fixation,NA,NA,NA,NA,NA,NA,sub77
d3-animate-choice,156,776747,0.0-76.0-0.7,FALSE,TRUE,FALSE,TRUE,"""event"",""trial"",""time""
""fullscreenenter"",""5"",""15518""
""blur"",""125"",""595815""
""focus"",""125"",""595911""
""fullscreenexit"",""125"",""595912""
","""event"",""trial"",""time""
""blur"",""125"",""595815""
","""event"",""trial"",""time""
""focus"",""125"",""595911""
","""event"",""trial"",""time""
""fullscreenenter"",""5"",""15518""
","""event"",""trial"",""time""
""fullscreenexit"",""125"",""595912""
",296.1300000024494,NA,48,NA,NA,3000,1,NA,NA,images/earth.jpg,images/rocket1,images/rocket2,null,images/rocket1,NA,1,real,null,2,NA,NA,NA,sub77
d3-animate-choice,157,779203,0.0-76.0-1.7,FALSE,TRUE,FALSE,TRUE,"""event"",""trial"",""time""
""fullscreenenter"",""5"",""15518""
""blur"",""125"",""595815""
""focus"",""125"",""595911""
""fullscreenexit"",""125"",""595912""
","""event"",""trial"",""time""
""blur"",""125"",""595815""
","""event"",""trial"",""time""
""focus"",""125"",""595911""
","""event"",""trial"",""time""
""fullscreenenter"",""5"",""15518""
","""event"",""trial"",""time""
""fullscreenexit"",""125"",""595912""
",449.1600000183098,NA,49,NA,NA,3000,1,NA,NA,images/purpleplanet.jpg,images/alien4,images/alien3,images/rocket1,images/alien3,images/nothing.png,2,real,false,1,rare,0,2020-06-23T16:07:38Z,sub77
two-step-fixation,158,780209,0.0-76.0-2.7,FALSE,TRUE,FALSE,TRUE,"""event"",""trial"",""time""
""fullscreenenter"",""5"",""15518""
""blur"",""125"",""595815""
""focus"",""125"",""595911""
""fullscreenexit"",""125"",""595912""
","""event"",""trial"",""time""
""blur"",""125"",""595815""
","""event"",""trial"",""time""
""focus"",""125"",""595911""
","""event"",""trial"",""time""
""fullscreenenter"",""5"",""15518""
","""event"",""trial"",""time""
""fullscreenexit"",""125"",""595912""
",NA,images/earth.jpg,NA,NA,NA,NA,NA,NA,NA,NA,NA,NA,NA,NA,NA,fixation,NA,NA,NA,NA,NA,NA,sub77
d3-animate-choice,159,782573,0.0-76.0-0.8,FALSE,TRUE,FALSE,TRUE,"""event"",""trial"",""time""
""fullscreenenter"",""5"",""15518""
""blur"",""125"",""595815""
""focus"",""125"",""595911""
""fullscreenexit"",""125"",""595912""
","""event"",""trial"",""time""
""blur"",""125"",""595815""
","""event"",""trial"",""time""
""focus"",""125"",""595911""
","""event"",""trial"",""time""
""fullscreenenter"",""5"",""15518""
","""event"",""trial"",""time""
""fullscreenexit"",""125"",""595912""
",357.0449999824632,NA,48,NA,NA,3000,1,NA,NA,images/earth.jpg,images/rocket1,images/rocket2,null,images/rocket1,NA,1,real,null,2,NA,NA,NA,sub77
d3-animate-choice,160,785015,0.0-76.0-1.8,FALSE,TRUE,FALSE,TRUE,"""event"",""trial"",""time""
""fullscreenenter"",""5"",""15518""
""blur"",""125"",""595815""
""focus"",""125"",""595911""
""fullscreenexit"",""125"",""595912""
","""event"",""trial"",""time""
""blur"",""125"",""595815""
","""event"",""trial"",""time""
""focus"",""125"",""595911""
","""event"",""trial"",""time""
""fullscreenenter"",""5"",""15518""
","""event"",""trial"",""time""
""fullscreenexit"",""125"",""595912""
",435.3300000075251,NA,48,NA,NA,3000,1,NA,NA,images/redplanet1.jpg,images/alien2,images/alien1,images/rocket1,images/alien2,images/nothing.png,2,real,true,2,common,0,2020-06-23T16:07:44Z,sub77
two-step-fixation,161,786021,0.0-76.0-2.8,FALSE,TRUE,FALSE,TRUE,"""event"",""trial"",""time""
""fullscreenenter"",""5"",""15518""
""blur"",""125"",""595815""
""focus"",""125"",""595911""
""fullscreenexit"",""125"",""595912""
","""event"",""trial"",""time""
""blur"",""125"",""595815""
","""event"",""trial"",""time""
""focus"",""125"",""595911""
","""event"",""trial"",""time""
""fullscreenenter"",""5"",""15518""
","""event"",""trial"",""time""
""fullscreenexit"",""125"",""595912""
",NA,images/earth.jpg,NA,NA,NA,NA,NA,NA,NA,NA,NA,NA,NA,NA,NA,fixation,NA,NA,NA,NA,NA,NA,sub77
d3-animate-choice,162,788337,0.0-76.0-0.9,FALSE,TRUE,FALSE,TRUE,"""event"",""trial"",""time""
""fullscreenenter"",""5"",""15518""
""blur"",""125"",""595815""
""focus"",""125"",""595911""
""fullscreenexit"",""125"",""595912""
","""event"",""trial"",""time""
""blur"",""125"",""595815""
","""event"",""trial"",""time""
""focus"",""125"",""595911""
","""event"",""trial"",""time""
""fullscreenenter"",""5"",""15518""
","""event"",""trial"",""time""
""fullscreenexit"",""125"",""595912""
",310.15999999362975,NA,48,NA,NA,3000,1,NA,NA,images/earth.jpg,images/rocket1,images/rocket2,null,images/rocket1,NA,1,real,null,2,NA,NA,NA,sub77
d3-animate-choice,163,790611,0.0-76.0-1.9,FALSE,TRUE,FALSE,TRUE,"""event"",""trial"",""time""
""fullscreenenter"",""5"",""15518""
""blur"",""125"",""595815""
""focus"",""125"",""595911""
""fullscreenexit"",""125"",""595912""
","""event"",""trial"",""time""
""blur"",""125"",""595815""
","""event"",""trial"",""time""
""focus"",""125"",""595911""
","""event"",""trial"",""time""
""fullscreenenter"",""5"",""15518""
","""event"",""trial"",""time""
""fullscreenexit"",""125"",""595912""
",267.070000001695,NA,49,NA,NA,3000,1,NA,NA,images/redplanet1.jpg,images/alien2,images/alien1,images/rocket1,images/alien1,images/t.png,2,real,true,1,common,1,2020-06-23T16:07:50Z,sub77
two-step-fixation,164,791617,0.0-76.0-2.9,FALSE,TRUE,FALSE,TRUE,"""event"",""trial"",""time""
""fullscreenenter"",""5"",""15518""
""blur"",""125"",""595815""
""focus"",""125"",""595911""
""fullscreenexit"",""125"",""595912""
","""event"",""trial"",""time""
""blur"",""125"",""595815""
","""event"",""trial"",""time""
""focus"",""125"",""595911""
","""event"",""trial"",""time""
""fullscreenenter"",""5"",""15518""
","""event"",""trial"",""time""
""fullscreenexit"",""125"",""595912""
",NA,images/earth.jpg,NA,NA,NA,NA,NA,NA,NA,NA,NA,NA,NA,NA,NA,fixation,NA,NA,NA,NA,NA,NA,sub77
d3-animate-choice,165,794225,0.0-76.0-0.10,FALSE,TRUE,FALSE,TRUE,"""event"",""trial"",""time""
""fullscreenenter"",""5"",""15518""
""blur"",""125"",""595815""
""focus"",""125"",""595911""
""fullscreenexit"",""125"",""595912""
","""event"",""trial"",""time""
""blur"",""125"",""595815""
","""event"",""trial"",""time""
""focus"",""125"",""595911""
","""event"",""trial"",""time""
""fullscreenenter"",""5"",""15518""
","""event"",""trial"",""time""
""fullscreenexit"",""125"",""595912""
",603.4750000108033,NA,49,NA,NA,3000,1,NA,NA,images/earth.jpg,images/rocket1,images/rocket2,null,images/rocket2,NA,1,real,null,1,NA,NA,NA,sub77
d3-animate-choice,166,796926,0.0-76.0-1.10,FALSE,TRUE,FALSE,TRUE,"""event"",""trial"",""time""
""fullscreenenter"",""5"",""15518""
""blur"",""125"",""595815""
""focus"",""125"",""595911""
""fullscreenexit"",""125"",""595912""
","""event"",""trial"",""time""
""blur"",""125"",""595815""
","""event"",""trial"",""time""
""focus"",""125"",""595911""
","""event"",""trial"",""time""
""fullscreenenter"",""5"",""15518""
","""event"",""trial"",""time""
""fullscreenexit"",""125"",""595912""
",692.9400000080932,NA,48,NA,NA,3000,1,NA,NA,images/purpleplanet.jpg,images/alien4,images/alien3,images/rocket2,images/alien4,images/nothing.png,2,real,true,2,common,0,2020-06-23T16:07:56Z,sub77
two-step-fixation,167,797932,0.0-76.0-2.10,FALSE,TRUE,FALSE,TRUE,"""event"",""trial"",""time""
""fullscreenenter"",""5"",""15518""
""blur"",""125"",""595815""
""focus"",""125"",""595911""
""fullscreenexit"",""125"",""595912""
","""event"",""trial"",""time""
""blur"",""125"",""595815""
","""event"",""trial"",""time""
""focus"",""125"",""595911""
","""event"",""trial"",""time""
""fullscreenenter"",""5"",""15518""
","""event"",""trial"",""time""
""fullscreenexit"",""125"",""595912""
",NA,images/earth.jpg,NA,NA,NA,NA,NA,NA,NA,NA,NA,NA,NA,NA,NA,fixation,NA,NA,NA,NA,NA,NA,sub77
d3-animate-choice,168,800291,0.0-76.0-0.11,FALSE,TRUE,FALSE,TRUE,"""event"",""trial"",""time""
""fullscreenenter"",""5"",""15518""
""blur"",""125"",""595815""
""focus"",""125"",""595911""
""fullscreenexit"",""125"",""595912""
","""event"",""trial"",""time""
""blur"",""125"",""595815""
","""event"",""trial"",""time""
""focus"",""125"",""595911""
","""event"",""trial"",""time""
""fullscreenenter"",""5"",""15518""
","""event"",""trial"",""time""
""fullscreenexit"",""125"",""595912""
",353.0200000095647,NA,48,NA,NA,3000,1,NA,NA,images/earth.jpg,images/rocket1,images/rocket2,null,images/rocket1,NA,1,real,null,2,NA,NA,NA,sub77
d3-animate-choice,169,802735,0.0-76.0-1.11,FALSE,TRUE,FALSE,TRUE,"""event"",""trial"",""time""
""fullscreenenter"",""5"",""15518""
""blur"",""125"",""595815""
""focus"",""125"",""595911""
""fullscreenexit"",""125"",""595912""
","""event"",""trial"",""time""
""blur"",""125"",""595815""
","""event"",""trial"",""time""
""focus"",""125"",""595911""
","""event"",""trial"",""time""
""fullscreenenter"",""5"",""15518""
","""event"",""trial"",""time""
""fullscreenexit"",""125"",""595912""
",435.50999998115003,NA,49,NA,NA,3000,1,NA,NA,images/redplanet1.jpg,images/alien2,images/alien1,images/rocket1,images/alien1,images/t.png,2,real,true,1,common,1,2020-06-23T16:08:02Z,sub77
two-step-fixation,170,803740,0.0-76.0-2.11,FALSE,TRUE,FALSE,TRUE,"""event"",""trial"",""time""
""fullscreenenter"",""5"",""15518""
""blur"",""125"",""595815""
""focus"",""125"",""595911""
""fullscreenexit"",""125"",""595912""
","""event"",""trial"",""time""
""blur"",""125"",""595815""
","""event"",""trial"",""time""
""focus"",""125"",""595911""
","""event"",""trial"",""time""
""fullscreenenter"",""5"",""15518""
","""event"",""trial"",""time""
""fullscreenexit"",""125"",""595912""
",NA,images/earth.jpg,NA,NA,NA,NA,NA,NA,NA,NA,NA,NA,NA,NA,NA,fixation,NA,NA,NA,NA,NA,NA,sub77
d3-animate-choice,171,806065,0.0-76.0-0.12,FALSE,TRUE,FALSE,TRUE,"""event"",""trial"",""time""
""fullscreenenter"",""5"",""15518""
""blur"",""125"",""595815""
""focus"",""125"",""595911""
""fullscreenexit"",""125"",""595912""
","""event"",""trial"",""time""
""blur"",""125"",""595815""
","""event"",""trial"",""time""
""focus"",""125"",""595911""
","""event"",""trial"",""time""
""fullscreenenter"",""5"",""15518""
","""event"",""trial"",""time""
""fullscreenexit"",""125"",""595912""
",319.08499999553896,NA,48,NA,NA,3000,1,NA,NA,images/earth.jpg,images/rocket1,images/rocket2,null,images/rocket1,NA,1,real,null,2,NA,NA,NA,sub77
d3-animate-choice,172,808437,0.0-76.0-1.12,FALSE,TRUE,FALSE,TRUE,"""event"",""trial"",""time""
""fullscreenenter"",""5"",""15518""
""blur"",""125"",""595815""
""focus"",""125"",""595911""
""fullscreenexit"",""125"",""595912""
","""event"",""trial"",""time""
""blur"",""125"",""595815""
","""event"",""trial"",""time""
""focus"",""125"",""595911""
","""event"",""trial"",""time""
""fullscreenenter"",""5"",""15518""
","""event"",""trial"",""time""
""fullscreenexit"",""125"",""595912""
",365.8549999818206,NA,48,NA,NA,3000,1,NA,NA,images/purpleplanet.jpg,images/alien4,images/alien3,images/rocket1,images/alien4,images/t.png,2,real,false,2,rare,1,2020-06-23T16:08:08Z,sub77
two-step-fixation,173,809442,0.0-76.0-2.12,FALSE,TRUE,FALSE,TRUE,"""event"",""trial"",""time""
""fullscreenenter"",""5"",""15518""
""blur"",""125"",""595815""
""focus"",""125"",""595911""
""fullscreenexit"",""125"",""595912""
","""event"",""trial"",""time""
""blur"",""125"",""595815""
","""event"",""trial"",""time""
""focus"",""125"",""595911""
","""event"",""trial"",""time""
""fullscreenenter"",""5"",""15518""
","""event"",""trial"",""time""
""fullscreenexit"",""125"",""595912""
",NA,images/earth.jpg,NA,NA,NA,NA,NA,NA,NA,NA,NA,NA,NA,NA,NA,fixation,NA,NA,NA,NA,NA,NA,sub77
d3-animate-choice,174,811728,0.0-76.0-0.13,FALSE,TRUE,FALSE,TRUE,"""event"",""trial"",""time""
""fullscreenenter"",""5"",""15518""
""blur"",""125"",""595815""
""focus"",""125"",""595911""
""fullscreenexit"",""125"",""595912""
","""event"",""trial"",""time""
""blur"",""125"",""595815""
","""event"",""trial"",""time""
""focus"",""125"",""595911""
","""event"",""trial"",""time""
""fullscreenenter"",""5"",""15518""
","""event"",""trial"",""time""
""fullscreenexit"",""125"",""595912""
",278.07999998913147,NA,49,NA,NA,3000,1,NA,NA,images/earth.jpg,images/rocket1,images/rocket2,null,images/rocket2,NA,1,real,null,1,NA,NA,NA,sub77
d3-animate-choice,175,814118,0.0-76.0-1.13,FALSE,TRUE,FALSE,TRUE,"""event"",""trial"",""time""
""fullscreenenter"",""5"",""15518""
""blur"",""125"",""595815""
""focus"",""125"",""595911""
""fullscreenexit"",""125"",""595912""
","""event"",""trial"",""time""
""blur"",""125"",""595815""
","""event"",""trial"",""time""
""focus"",""125"",""595911""
","""event"",""trial"",""time""
""fullscreenenter"",""5"",""15518""
","""event"",""trial"",""time""
""fullscreenexit"",""125"",""595912""
",382.4999999778811,NA,48,NA,NA,3000,1,NA,NA,images/purpleplanet.jpg,images/alien4,images/alien3,images/rocket2,images/alien4,images/t.png,2,real,true,2,common,1,2020-06-23T16:08:13Z,sub77
two-step-fixation,176,815125,0.0-76.0-2.13,FALSE,TRUE,FALSE,TRUE,"""event"",""trial"",""time""
""fullscreenenter"",""5"",""15518""
""blur"",""125"",""595815""
""focus"",""125"",""595911""
""fullscreenexit"",""125"",""595912""
","""event"",""trial"",""time""
""blur"",""125"",""595815""
","""event"",""trial"",""time""
""focus"",""125"",""595911""
","""event"",""trial"",""time""
""fullscreenenter"",""5"",""15518""
","""event"",""trial"",""time""
""fullscreenexit"",""125"",""595912""
",NA,images/earth.jpg,NA,NA,NA,NA,NA,NA,NA,NA,NA,NA,NA,NA,NA,fixation,NA,NA,NA,NA,NA,NA,sub77
d3-animate-choice,177,817447,0.0-76.0-0.14,FALSE,TRUE,FALSE,TRUE,"""event"",""trial"",""time""
""fullscreenenter"",""5"",""15518""
""blur"",""125"",""595815""
""focus"",""125"",""595911""
""fullscreenexit"",""125"",""595912""
","""event"",""trial"",""time""
""blur"",""125"",""595815""
","""event"",""trial"",""time""
""focus"",""125"",""595911""
","""event"",""trial"",""time""
""fullscreenenter"",""5"",""15518""
","""event"",""trial"",""time""
""fullscreenexit"",""125"",""595912""
",315.53499997244217,NA,49,NA,NA,3000,1,NA,NA,images/earth.jpg,images/rocket1,images/rocket2,null,images/rocket2,NA,1,real,null,1,NA,NA,NA,sub77
d3-animate-choice,178,820131,0.0-76.0-1.14,FALSE,TRUE,FALSE,TRUE,"""event"",""trial"",""time""
""fullscreenenter"",""5"",""15518""
""blur"",""125"",""595815""
""focus"",""125"",""595911""
""fullscreenexit"",""125"",""595912""
","""event"",""trial"",""time""
""blur"",""125"",""595815""
","""event"",""trial"",""time""
""focus"",""125"",""595911""
","""event"",""trial"",""time""
""fullscreenenter"",""5"",""15518""
","""event"",""trial"",""time""
""fullscreenexit"",""125"",""595912""
",675.8200000040233,NA,48,NA,NA,3000,1,NA,NA,images/purpleplanet.jpg,images/alien4,images/alien3,images/rocket2,images/alien4,images/t.png,2,real,true,2,common,1,2020-06-23T16:08:19Z,sub77
two-step-fixation,179,821135,0.0-76.0-2.14,FALSE,TRUE,FALSE,TRUE,"""event"",""trial"",""time""
""fullscreenenter"",""5"",""15518""
""blur"",""125"",""595815""
""focus"",""125"",""595911""
""fullscreenexit"",""125"",""595912""
","""event"",""trial"",""time""
""blur"",""125"",""595815""
","""event"",""trial"",""time""
""focus"",""125"",""595911""
","""event"",""trial"",""time""
""fullscreenenter"",""5"",""15518""
","""event"",""trial"",""time""
""fullscreenexit"",""125"",""595912""
",NA,images/earth.jpg,NA,NA,NA,NA,NA,NA,NA,NA,NA,NA,NA,NA,NA,fixation,NA,NA,NA,NA,NA,NA,sub77
d3-animate-choice,180,823449,0.0-76.0-0.15,FALSE,TRUE,FALSE,TRUE,"""event"",""trial"",""time""
""fullscreenenter"",""5"",""15518""
""blur"",""125"",""595815""
""focus"",""125"",""595911""
""fullscreenexit"",""125"",""595912""
","""event"",""trial"",""time""
""blur"",""125"",""595815""
","""event"",""trial"",""time""
""focus"",""125"",""595911""
","""event"",""trial"",""time""
""fullscreenenter"",""5"",""15518""
","""event"",""trial"",""time""
""fullscreenexit"",""125"",""595912""
",308.3299999998417,NA,49,NA,NA,3000,1,NA,NA,images/earth.jpg,images/rocket1,images/rocket2,null,images/rocket2,NA,1,real,null,1,NA,NA,NA,sub77
d3-animate-choice,181,825928,0.0-76.0-1.15,FALSE,TRUE,FALSE,TRUE,"""event"",""trial"",""time""
""fullscreenenter"",""5"",""15518""
""blur"",""125"",""595815""
""focus"",""125"",""595911""
""fullscreenexit"",""125"",""595912""
","""event"",""trial"",""time""
""blur"",""125"",""595815""
","""event"",""trial"",""time""
""focus"",""125"",""595911""
","""event"",""trial"",""time""
""fullscreenenter"",""5"",""15518""
","""event"",""trial"",""time""
""fullscreenexit"",""125"",""595912""
",467.160000000149,NA,48,NA,NA,3000,1,NA,NA,images/purpleplanet.jpg,images/alien4,images/alien3,images/rocket2,images/alien4,images/t.png,2,real,true,2,common,1,2020-06-23T16:08:25Z,sub77
two-step-fixation,182,826955,0.0-76.0-2.15,FALSE,TRUE,FALSE,TRUE,"""event"",""trial"",""time""
""fullscreenenter"",""5"",""15518""
""blur"",""125"",""595815""
""focus"",""125"",""595911""
""fullscreenexit"",""125"",""595912""
","""event"",""trial"",""time""
""blur"",""125"",""595815""
","""event"",""trial"",""time""
""focus"",""125"",""595911""
","""event"",""trial"",""time""
""fullscreenenter"",""5"",""15518""
","""event"",""trial"",""time""
""fullscreenexit"",""125"",""595912""
",NA,images/earth.jpg,NA,NA,NA,NA,NA,NA,NA,NA,NA,NA,NA,NA,NA,fixation,NA,NA,NA,NA,NA,NA,sub77
d3-animate-choice,183,829296,0.0-76.0-0.16,FALSE,TRUE,FALSE,TRUE,"""event"",""trial"",""time""
""fullscreenenter"",""5"",""15518""
""blur"",""125"",""595815""
""focus"",""125"",""595911""
""fullscreenexit"",""125"",""595912""
","""event"",""trial"",""time""
""blur"",""125"",""595815""
","""event"",""trial"",""time""
""focus"",""125"",""595911""
","""event"",""trial"",""time""
""fullscreenenter"",""5"",""15518""
","""event"",""trial"",""time""
""fullscreenexit"",""125"",""595912""
",332.1599999908358,NA,49,NA,NA,3000,1,NA,NA,images/earth.jpg,images/rocket1,images/rocket2,null,images/rocket2,NA,1,real,null,1,NA,NA,NA,sub77
d3-animate-choice,184,831961,0.0-76.0-1.16,FALSE,TRUE,FALSE,TRUE,"""event"",""trial"",""time""
""fullscreenenter"",""5"",""15518""
""blur"",""125"",""595815""
""focus"",""125"",""595911""
""fullscreenexit"",""125"",""595912""
","""event"",""trial"",""time""
""blur"",""125"",""595815""
","""event"",""trial"",""time""
""focus"",""125"",""595911""
","""event"",""trial"",""time""
""fullscreenenter"",""5"",""15518""
","""event"",""trial"",""time""
""fullscreenexit"",""125"",""595912""
",656.9350000063423,NA,49,NA,NA,3000,1,NA,NA,images/redplanet1.jpg,images/alien2,images/alien1,images/rocket2,images/alien1,images/t.png,2,real,false,1,rare,1,2020-06-23T16:08:31Z,sub77
two-step-fixation,185,832967,0.0-76.0-2.16,FALSE,TRUE,FALSE,TRUE,"""event"",""trial"",""time""
""fullscreenenter"",""5"",""15518""
""blur"",""125"",""595815""
""focus"",""125"",""595911""
""fullscreenexit"",""125"",""595912""
","""event"",""trial"",""time""
""blur"",""125"",""595815""
","""event"",""trial"",""time""
""focus"",""125"",""595911""
","""event"",""trial"",""time""
""fullscreenenter"",""5"",""15518""
","""event"",""trial"",""time""
""fullscreenexit"",""125"",""595912""
",NA,images/earth.jpg,NA,NA,NA,NA,NA,NA,NA,NA,NA,NA,NA,NA,NA,fixation,NA,NA,NA,NA,NA,NA,sub77
d3-animate-choice,186,835045,0.0-76.0-0.17,FALSE,TRUE,FALSE,TRUE,"""event"",""trial"",""time""
""fullscreenenter"",""5"",""15518""
""blur"",""125"",""595815""
""focus"",""125"",""595911""
""fullscreenexit"",""125"",""595912""
","""event"",""trial"",""time""
""blur"",""125"",""595815""
","""event"",""trial"",""time""
""focus"",""125"",""595911""
","""event"",""trial"",""time""
""fullscreenenter"",""5"",""15518""
","""event"",""trial"",""time""
""fullscreenexit"",""125"",""595912""
",72.69999998970889,NA,49,NA,NA,3000,1,NA,NA,images/earth.jpg,images/rocket1,images/rocket2,null,images/rocket2,NA,1,real,null,1,NA,NA,NA,sub77
d3-animate-choice,187,837598,0.0-76.0-1.17,FALSE,TRUE,FALSE,TRUE,"""event"",""trial"",""time""
""fullscreenenter"",""5"",""15518""
""blur"",""125"",""595815""
""focus"",""125"",""595911""
""fullscreenexit"",""125"",""595912""
","""event"",""trial"",""time""
""blur"",""125"",""595815""
","""event"",""trial"",""time""
""focus"",""125"",""595911""
","""event"",""trial"",""time""
""fullscreenenter"",""5"",""15518""
","""event"",""trial"",""time""
""fullscreenexit"",""125"",""595912""
",545.7700000260957,NA,48,NA,NA,3000,1,NA,NA,images/purpleplanet.jpg,images/alien4,images/alien3,images/rocket2,images/alien4,images/t.png,2,real,true,2,common,1,2020-06-23T16:08:37Z,sub77
two-step-fixation,188,838603,0.0-76.0-2.17,FALSE,TRUE,FALSE,TRUE,"""event"",""trial"",""time""
""fullscreenenter"",""5"",""15518""
""blur"",""125"",""595815""
""focus"",""125"",""595911""
""fullscreenexit"",""125"",""595912""
","""event"",""trial"",""time""
""blur"",""125"",""595815""
","""event"",""trial"",""time""
""focus"",""125"",""595911""
","""event"",""trial"",""time""
""fullscreenenter"",""5"",""15518""
","""event"",""trial"",""time""
""fullscreenexit"",""125"",""595912""
",NA,images/earth.jpg,NA,NA,NA,NA,NA,NA,NA,NA,NA,NA,NA,NA,NA,fixation,NA,NA,NA,NA,NA,NA,sub77
d3-animate-choice,189,840943,0.0-76.0-0.18,FALSE,TRUE,FALSE,TRUE,"""event"",""trial"",""time""
""fullscreenenter"",""5"",""15518""
""blur"",""125"",""595815""
""focus"",""125"",""595911""
""fullscreenexit"",""125"",""595912""
","""event"",""trial"",""time""
""blur"",""125"",""595815""
","""event"",""trial"",""time""
""focus"",""125"",""595911""
","""event"",""trial"",""time""
""fullscreenenter"",""5"",""15518""
","""event"",""trial"",""time""
""fullscreenexit"",""125"",""595912""
",332.66500002355315,NA,49,NA,NA,3000,1,NA,NA,images/earth.jpg,images/rocket1,images/rocket2,null,images/rocket2,NA,1,real,null,1,NA,NA,NA,sub77
d3-animate-choice,190,843376,0.0-76.0-1.18,FALSE,TRUE,FALSE,TRUE,"""event"",""trial"",""time""
""fullscreenenter"",""5"",""15518""
""blur"",""125"",""595815""
""focus"",""125"",""595911""
""fullscreenexit"",""125"",""595912""
","""event"",""trial"",""time""
""blur"",""125"",""595815""
","""event"",""trial"",""time""
""focus"",""125"",""595911""
","""event"",""trial"",""time""
""fullscreenenter"",""5"",""15518""
","""event"",""trial"",""time""
""fullscreenexit"",""125"",""595912""
",426.69000002206303,NA,48,NA,NA,3000,1,NA,NA,images/purpleplanet.jpg,images/alien4,images/alien3,images/rocket2,images/alien4,images/t.png,2,real,true,2,common,1,2020-06-23T16:08:43Z,sub77
two-step-fixation,191,844382,0.0-76.0-2.18,FALSE,TRUE,FALSE,TRUE,"""event"",""trial"",""time""
""fullscreenenter"",""5"",""15518""
""blur"",""125"",""595815""
""focus"",""125"",""595911""
""fullscreenexit"",""125"",""595912""
","""event"",""trial"",""time""
""blur"",""125"",""595815""
","""event"",""trial"",""time""
""focus"",""125"",""595911""
","""event"",""trial"",""time""
""fullscreenenter"",""5"",""15518""
","""event"",""trial"",""time""
""fullscreenexit"",""125"",""595912""
",NA,images/earth.jpg,NA,NA,NA,NA,NA,NA,NA,NA,NA,NA,NA,NA,NA,fixation,NA,NA,NA,NA,NA,NA,sub77
d3-animate-choice,192,846866,0.0-76.0-0.19,FALSE,TRUE,FALSE,TRUE,"""event"",""trial"",""time""
""fullscreenenter"",""5"",""15518""
""blur"",""125"",""595815""
""focus"",""125"",""595911""
""fullscreenexit"",""125"",""595912""
","""event"",""trial"",""time""
""blur"",""125"",""595815""
","""event"",""trial"",""time""
""focus"",""125"",""595911""
","""event"",""trial"",""time""
""fullscreenenter"",""5"",""15518""
","""event"",""trial"",""time""
""fullscreenexit"",""125"",""595912""
",476.68999998131767,NA,49,NA,NA,3000,1,NA,NA,images/earth.jpg,images/rocket1,images/rocket2,null,images/rocket2,NA,1,real,null,1,NA,NA,NA,sub77
d3-animate-choice,193,849310,0.0-76.0-1.19,FALSE,TRUE,FALSE,TRUE,"""event"",""trial"",""time""
""fullscreenenter"",""5"",""15518""
""blur"",""125"",""595815""
""focus"",""125"",""595911""
""fullscreenexit"",""125"",""595912""
","""event"",""trial"",""time""
""blur"",""125"",""595815""
","""event"",""trial"",""time""
""focus"",""125"",""595911""
","""event"",""trial"",""time""
""fullscreenenter"",""5"",""15518""
","""event"",""trial"",""time""
""fullscreenexit"",""125"",""595912""
",435.65500000840984,NA,48,NA,NA,3000,1,NA,NA,images/redplanet1.jpg,images/alien2,images/alien1,images/rocket2,images/alien2,images/t.png,2,real,false,2,rare,1,2020-06-23T16:08:49Z,sub77
two-step-fixation,194,850315,0.0-76.0-2.19,FALSE,TRUE,FALSE,TRUE,"""event"",""trial"",""time""
""fullscreenenter"",""5"",""15518""
""blur"",""125"",""595815""
""focus"",""125"",""595911""
""fullscreenexit"",""125"",""595912""
","""event"",""trial"",""time""
""blur"",""125"",""595815""
","""event"",""trial"",""time""
""focus"",""125"",""595911""
","""event"",""trial"",""time""
""fullscreenenter"",""5"",""15518""
","""event"",""trial"",""time""
""fullscreenexit"",""125"",""595912""
",NA,images/earth.jpg,NA,NA,NA,NA,NA,NA,NA,NA,NA,NA,NA,NA,NA,fixation,NA,NA,NA,NA,NA,NA,sub77
d3-animate-choice,195,852701,0.0-76.0-0.20,FALSE,TRUE,FALSE,TRUE,"""event"",""trial"",""time""
""fullscreenenter"",""5"",""15518""
""blur"",""125"",""595815""
""focus"",""125"",""595911""
""fullscreenexit"",""125"",""595912""
","""event"",""trial"",""time""
""blur"",""125"",""595815""
","""event"",""trial"",""time""
""focus"",""125"",""595911""
","""event"",""trial"",""time""
""fullscreenenter"",""5"",""15518""
","""event"",""trial"",""time""
""fullscreenexit"",""125"",""595912""
",379.2099999845959,NA,49,NA,NA,3000,1,NA,NA,images/earth.jpg,images/rocket1,images/rocket2,null,images/rocket2,NA,1,real,null,1,NA,NA,NA,sub77
d3-animate-choice,196,855289,0.0-76.0-1.20,FALSE,TRUE,FALSE,TRUE,"""event"",""trial"",""time""
""fullscreenenter"",""5"",""15518""
""blur"",""125"",""595815""
""focus"",""125"",""595911""
""fullscreenexit"",""125"",""595912""
","""event"",""trial"",""time""
""blur"",""125"",""595815""
","""event"",""trial"",""time""
""focus"",""125"",""595911""
","""event"",""trial"",""time""
""fullscreenenter"",""5"",""15518""
","""event"",""trial"",""time""
""fullscreenexit"",""125"",""595912""
",581.2299999815878,NA,48,NA,NA,3000,1,NA,NA,images/purpleplanet.jpg,images/alien4,images/alien3,images/rocket2,images/alien4,images/nothing.png,2,real,true,2,common,0,2020-06-23T16:08:55Z,sub77
two-step-fixation,197,856293,0.0-76.0-2.20,FALSE,TRUE,FALSE,TRUE,"""event"",""trial"",""time""
""fullscreenenter"",""5"",""15518""
""blur"",""125"",""595815""
""focus"",""125"",""595911""
""fullscreenexit"",""125"",""595912""
","""event"",""trial"",""time""
""blur"",""125"",""595815""
","""event"",""trial"",""time""
""focus"",""125"",""595911""
","""event"",""trial"",""time""
""fullscreenenter"",""5"",""15518""
","""event"",""trial"",""time""
""fullscreenexit"",""125"",""595912""
",NA,images/earth.jpg,NA,NA,NA,NA,NA,NA,NA,NA,NA,NA,NA,NA,NA,fixation,NA,NA,NA,NA,NA,NA,sub77
d3-animate-choice,198,858605,0.0-76.0-0.21,FALSE,TRUE,FALSE,TRUE,"""event"",""trial"",""time""
""fullscreenenter"",""5"",""15518""
""blur"",""125"",""595815""
""focus"",""125"",""595911""
""fullscreenexit"",""125"",""595912""
","""event"",""trial"",""time""
""blur"",""125"",""595815""
","""event"",""trial"",""time""
""focus"",""125"",""595911""
","""event"",""trial"",""time""
""fullscreenenter"",""5"",""15518""
","""event"",""trial"",""time""
""fullscreenexit"",""125"",""595912""
",304.0749999927357,NA,49,NA,NA,3000,1,NA,NA,images/earth.jpg,images/rocket1,images/rocket2,null,images/rocket2,NA,1,real,null,1,NA,NA,NA,sub77
d3-animate-choice,199,861421,0.0-76.0-1.21,FALSE,TRUE,FALSE,TRUE,"""event"",""trial"",""time""
""fullscreenenter"",""5"",""15518""
""blur"",""125"",""595815""
""focus"",""125"",""595911""
""fullscreenexit"",""125"",""595912""
","""event"",""trial"",""time""
""blur"",""125"",""595815""
","""event"",""trial"",""time""
""focus"",""125"",""595911""
","""event"",""trial"",""time""
""fullscreenenter"",""5"",""15518""
","""event"",""trial"",""time""
""fullscreenexit"",""125"",""595912""
",810.3249999985565,NA,48,NA,NA,3000,1,NA,NA,images/redplanet1.jpg,images/alien2,images/alien1,images/rocket2,images/alien2,images/t.png,2,real,false,2,rare,1,2020-06-23T16:09:01Z,sub77
two-step-fixation,200,862425,0.0-76.0-2.21,FALSE,TRUE,FALSE,TRUE,"""event"",""trial"",""time""
""fullscreenenter"",""5"",""15518""
""blur"",""125"",""595815""
""focus"",""125"",""595911""
""fullscreenexit"",""125"",""595912""
","""event"",""trial"",""time""
""blur"",""125"",""595815""
","""event"",""trial"",""time""
""focus"",""125"",""595911""
","""event"",""trial"",""time""
""fullscreenenter"",""5"",""15518""
","""event"",""trial"",""time""
""fullscreenexit"",""125"",""595912""
",NA,images/earth.jpg,NA,NA,NA,NA,NA,NA,NA,NA,NA,NA,NA,NA,NA,fixation,NA,NA,NA,NA,NA,NA,sub77
d3-animate-choice,201,864668,0.0-76.0-0.22,FALSE,TRUE,FALSE,TRUE,"""event"",""trial"",""time""
""fullscreenenter"",""5"",""15518""
""blur"",""125"",""595815""
""focus"",""125"",""595911""
""fullscreenexit"",""125"",""595912""
","""event"",""trial"",""time""
""blur"",""125"",""595815""
","""event"",""trial"",""time""
""focus"",""125"",""595911""
","""event"",""trial"",""time""
""fullscreenenter"",""5"",""15518""
","""event"",""trial"",""time""
""fullscreenexit"",""125"",""595912""
",235.50999999861233,NA,49,NA,NA,3000,1,NA,NA,images/earth.jpg,images/rocket1,images/rocket2,null,images/rocket2,NA,1,real,null,1,NA,NA,NA,sub77
d3-animate-choice,202,867067,0.0-76.0-1.22,FALSE,TRUE,FALSE,TRUE,"""event"",""trial"",""time""
""fullscreenenter"",""5"",""15518""
""blur"",""125"",""595815""
""focus"",""125"",""595911""
""fullscreenexit"",""125"",""595912""
","""event"",""trial"",""time""
""blur"",""125"",""595815""
","""event"",""trial"",""time""
""focus"",""125"",""595911""
","""event"",""trial"",""time""
""fullscreenenter"",""5"",""15518""
","""event"",""trial"",""time""
""fullscreenexit"",""125"",""595912""
",392.0800000196323,NA,49,NA,NA,3000,1,NA,NA,images/purpleplanet.jpg,images/alien4,images/alien3,images/rocket2,images/alien3,images/nothing.png,2,real,true,1,common,0,2020-06-23T16:09:06Z,sub77
two-step-fixation,203,868073,0.0-76.0-2.22,FALSE,TRUE,FALSE,TRUE,"""event"",""trial"",""time""
""fullscreenenter"",""5"",""15518""
""blur"",""125"",""595815""
""focus"",""125"",""595911""
""fullscreenexit"",""125"",""595912""
","""event"",""trial"",""time""
""blur"",""125"",""595815""
","""event"",""trial"",""time""
""focus"",""125"",""595911""
","""event"",""trial"",""time""
""fullscreenenter"",""5"",""15518""
","""event"",""trial"",""time""
""fullscreenexit"",""125"",""595912""
",NA,images/earth.jpg,NA,NA,NA,NA,NA,NA,NA,NA,NA,NA,NA,NA,NA,fixation,NA,NA,NA,NA,NA,NA,sub77
d3-animate-choice,204,870411,0.0-76.0-0.23,FALSE,TRUE,FALSE,TRUE,"""event"",""trial"",""time""
""fullscreenenter"",""5"",""15518""
""blur"",""125"",""595815""
""focus"",""125"",""595911""
""fullscreenexit"",""125"",""595912""
","""event"",""trial"",""time""
""blur"",""125"",""595815""
","""event"",""trial"",""time""
""focus"",""125"",""595911""
","""event"",""trial"",""time""
""fullscreenenter"",""5"",""15518""
","""event"",""trial"",""time""
""fullscreenexit"",""125"",""595912""
",331.5549999824725,NA,48,NA,NA,3000,1,NA,NA,images/earth.jpg,images/rocket1,images/rocket2,null,images/rocket1,NA,1,real,null,2,NA,NA,NA,sub77
d3-animate-choice,205,873396,0.0-76.0-1.23,FALSE,TRUE,FALSE,TRUE,"""event"",""trial"",""time""
""fullscreenenter"",""5"",""15518""
""blur"",""125"",""595815""
""focus"",""125"",""595911""
""fullscreenexit"",""125"",""595912""
","""event"",""trial"",""time""
""blur"",""125"",""595815""
","""event"",""trial"",""time""
""focus"",""125"",""595911""
","""event"",""trial"",""time""
""fullscreenenter"",""5"",""15518""
","""event"",""trial"",""time""
""fullscreenexit"",""125"",""595912""
",979.1149999946356,NA,48,NA,NA,3000,1,NA,NA,images/purpleplanet.jpg,images/alien4,images/alien3,images/rocket1,images/alien4,images/t.png,2,real,false,2,rare,1,2020-06-23T16:09:13Z,sub77
two-step-fixation,206,874401,0.0-76.0-2.23,FALSE,TRUE,FALSE,TRUE,"""event"",""trial"",""time""
""fullscreenenter"",""5"",""15518""
""blur"",""125"",""595815""
""focus"",""125"",""595911""
""fullscreenexit"",""125"",""595912""
","""event"",""trial"",""time""
""blur"",""125"",""595815""
","""event"",""trial"",""time""
""focus"",""125"",""595911""
","""event"",""trial"",""time""
""fullscreenenter"",""5"",""15518""
","""event"",""trial"",""time""
""fullscreenexit"",""125"",""595912""
",NA,images/earth.jpg,NA,NA,NA,NA,NA,NA,NA,NA,NA,NA,NA,NA,NA,fixation,NA,NA,NA,NA,NA,NA,sub77
d3-animate-choice,207,876669,0.0-76.0-0.24,FALSE,TRUE,FALSE,TRUE,"""event"",""trial"",""time""
""fullscreenenter"",""5"",""15518""
""blur"",""125"",""595815""
""focus"",""125"",""595911""
""fullscreenexit"",""125"",""595912""
","""event"",""trial"",""time""
""blur"",""125"",""595815""
","""event"",""trial"",""time""
""focus"",""125"",""595911""
","""event"",""trial"",""time""
""fullscreenenter"",""5"",""15518""
","""event"",""trial"",""time""
""fullscreenexit"",""125"",""595912""
",261.2500000104774,NA,49,NA,NA,3000,1,NA,NA,images/earth.jpg,images/rocket1,images/rocket2,null,images/rocket2,NA,1,real,null,1,NA,NA,NA,sub77
d3-animate-choice,208,879419,0.0-76.0-1.24,FALSE,TRUE,FALSE,TRUE,"""event"",""trial"",""time""
""fullscreenenter"",""5"",""15518""
""blur"",""125"",""595815""
""focus"",""125"",""595911""
""fullscreenexit"",""125"",""595912""
","""event"",""trial"",""time""
""blur"",""125"",""595815""
","""event"",""trial"",""time""
""focus"",""125"",""595911""
","""event"",""trial"",""time""
""fullscreenenter"",""5"",""15518""
","""event"",""trial"",""time""
""fullscreenexit"",""125"",""595912""
",743.4099999954924,NA,49,NA,NA,3000,1,NA,NA,images/redplanet1.jpg,images/alien2,images/alien1,images/rocket2,images/alien1,images/t.png,2,real,false,1,rare,1,2020-06-23T16:09:19Z,sub77
two-step-fixation,209,880424,0.0-76.0-2.24,FALSE,TRUE,FALSE,TRUE,"""event"",""trial"",""time""
""fullscreenenter"",""5"",""15518""
""blur"",""125"",""595815""
""focus"",""125"",""595911""
""fullscreenexit"",""125"",""595912""
","""event"",""trial"",""time""
""blur"",""125"",""595815""
","""event"",""trial"",""time""
""focus"",""125"",""595911""
","""event"",""trial"",""time""
""fullscreenenter"",""5"",""15518""
","""event"",""trial"",""time""
""fullscreenexit"",""125"",""595912""
",NA,images/earth.jpg,NA,NA,NA,NA,NA,NA,NA,NA,NA,NA,NA,NA,NA,fixation,NA,NA,NA,NA,NA,NA,sub77
d3-animate-choice,210,882868,0.0-76.0-0.25,FALSE,TRUE,FALSE,TRUE,"""event"",""trial"",""time""
""fullscreenenter"",""5"",""15518""
""blur"",""125"",""595815""
""focus"",""125"",""595911""
""fullscreenexit"",""125"",""595912""
","""event"",""trial"",""time""
""blur"",""125"",""595815""
","""event"",""trial"",""time""
""focus"",""125"",""595911""
","""event"",""trial"",""time""
""fullscreenenter"",""5"",""15518""
","""event"",""trial"",""time""
""fullscreenexit"",""125"",""595912""
",437.3349999950733,NA,49,NA,NA,3000,1,NA,NA,images/earth.jpg,images/rocket1,images/rocket2,null,images/rocket2,NA,1,real,null,1,NA,NA,NA,sub77
d3-animate-choice,211,885713,0.0-76.0-1.25,FALSE,TRUE,FALSE,TRUE,"""event"",""trial"",""time""
""fullscreenenter"",""5"",""15518""
""blur"",""125"",""595815""
""focus"",""125"",""595911""
""fullscreenexit"",""125"",""595912""
","""event"",""trial"",""time""
""blur"",""125"",""595815""
","""event"",""trial"",""time""
""focus"",""125"",""595911""
","""event"",""trial"",""time""
""fullscreenenter"",""5"",""15518""
","""event"",""trial"",""time""
""fullscreenexit"",""125"",""595912""
",835.8550000120886,NA,48,NA,NA,3000,1,NA,NA,images/purpleplanet.jpg,images/alien4,images/alien3,images/rocket2,images/alien4,images/nothing.png,2,real,true,2,common,0,2020-06-23T16:09:25Z,sub77
two-step-fixation,212,886718,0.0-76.0-2.25,FALSE,TRUE,FALSE,TRUE,"""event"",""trial"",""time""
""fullscreenenter"",""5"",""15518""
""blur"",""125"",""595815""
""focus"",""125"",""595911""
""fullscreenexit"",""125"",""595912""
","""event"",""trial"",""time""
""blur"",""125"",""595815""
","""event"",""trial"",""time""
""focus"",""125"",""595911""
","""event"",""trial"",""time""
""fullscreenenter"",""5"",""15518""
","""event"",""trial"",""time""
""fullscreenexit"",""125"",""595912""
",NA,images/earth.jpg,NA,NA,NA,NA,NA,NA,NA,NA,NA,NA,NA,NA,NA,fixation,NA,NA,NA,NA,NA,NA,sub77
d3-animate-choice,213,889089,0.0-76.0-0.26,FALSE,TRUE,FALSE,TRUE,"""event"",""trial"",""time""
""fullscreenenter"",""5"",""15518""
""blur"",""125"",""595815""
""focus"",""125"",""595911""
""fullscreenexit"",""125"",""595912""
","""event"",""trial"",""time""
""blur"",""125"",""595815""
","""event"",""trial"",""time""
""focus"",""125"",""595911""
","""event"",""trial"",""time""
