trial_type,trial_index,time_elapsed,internal_node_id,rocket_sides,red_planet_first_rocket,red_display_order,purple_display_order,interactions,blur_events,focus_events,fullscreenenter_events,fullscreenexit_events,rt,stimulus,key_press,button_pressed,success,duration,valid_pressed,rts,keys,planet_text,right_text,left_text,center_text,chosen_text,reward_text,trial_stage,practice_trial,transition_type,choice,transition,reward,timestamp,subject_id
pavlovia,0,4,0.0-0.0,FALSE,TRUE,TRUE,TRUE,"
","
","
","
","
",NA,NA,NA,NA,NA,NA,NA,NA,NA,NA,NA,NA,NA,NA,NA,NA,NA,NA,NA,NA,NA,NA,sub4
html-keyboard-response,1,2337,0.0-1.0,FALSE,TRUE,TRUE,TRUE,"
","
","
","
","
",2332.820000000538,Welcome! Press the space bar to begin.,32,NA,NA,NA,NA,NA,NA,NA,NA,NA,NA,NA,NA,NA,NA,NA,NA,NA,NA,NA,sub4
audio-keyboard-response,2,6125,0.0-2.0,FALSE,TRUE,TRUE,TRUE,"
","
","
","
","
",3781,audio/beep_loop.wav,32,NA,NA,NA,NA,NA,NA,NA,NA,NA,NA,NA,NA,NA,NA,NA,NA,NA,NA,NA,sub4
audio-button-response,3,10398,0.0-3.0,FALSE,TRUE,TRUE,TRUE,"
","
","
","
","
",NaN,audio/fish.mp3,NA,1,NA,NA,NA,NA,NA,NA,NA,NA,NA,NA,NA,NA,NA,NA,NA,NA,NA,NA,sub4
audio-button-response,4,13615,0.0-4.0,FALSE,TRUE,TRUE,TRUE,"""event"",""trial"",""time""
""fullscreenenter"",""5"",""18143""
","
","
","""event"",""trial"",""time""
""fullscreenenter"",""5"",""18143""
","
",NaN,audio/tiger.mp3,NA,4,NA,NA,NA,NA,NA,NA,NA,NA,NA,NA,NA,NA,NA,NA,NA,NA,NA,NA,sub4
fullscreen,5,19126,0.0-5.0,FALSE,TRUE,TRUE,TRUE,"""event"",""trial"",""time""
""fullscreenenter"",""5"",""18143""
","
","
","""event"",""trial"",""time""
""fullscreenenter"",""5"",""18143""
","
",NA,NA,NA,NA,TRUE,NA,NA,NA,NA,NA,NA,NA,NA,NA,NA,NA,NA,NA,NA,NA,NA,NA,sub4
d3-instructions,6,33526,0.0-6.0,FALSE,TRUE,TRUE,TRUE,"""event"",""trial"",""time""
""fullscreenenter"",""5"",""18143""
","
","
","""event"",""trial"",""time""
""fullscreenenter"",""5"",""18143""
","
",NA,NA,NA,NA,NA,NA,NA,NA,NA,NA,NA,NA,NA,NA,NA,NA,NA,NA,NA,NA,NA,NA,sub4
d3-instructions,7,44622,0.0-7.0,FALSE,TRUE,TRUE,TRUE,"""event"",""trial"",""time""
""fullscreenenter"",""5"",""18143""
","
","
","""event"",""trial"",""time""
""fullscreenenter"",""5"",""18143""
","
",NA,NA,NA,NA,NA,NA,NA,NA,NA,NA,NA,NA,NA,NA,NA,NA,NA,NA,NA,NA,NA,NA,sub4
d3-instructions,8,52312,0.0-8.0,FALSE,TRUE,TRUE,TRUE,"""event"",""trial"",""time""
""fullscreenenter"",""5"",""18143""
","
","
","""event"",""trial"",""time""
""fullscreenenter"",""5"",""18143""
","
",NA,NA,NA,NA,NA,NA,NA,NA,NA,NA,NA,NA,NA,NA,NA,NA,NA,NA,NA,NA,NA,NA,sub4
d3-instructions,9,63418,0.0-9.0,FALSE,TRUE,TRUE,TRUE,"""event"",""trial"",""time""
""fullscreenenter"",""5"",""18143""
","
","
","""event"",""trial"",""time""
""fullscreenenter"",""5"",""18143""
","
",NA,NA,NA,NA,NA,NA,NA,NA,NA,NA,NA,NA,NA,NA,NA,NA,NA,NA,NA,NA,NA,NA,sub4
d3-instructions,10,82485,0.0-10.0,FALSE,TRUE,TRUE,TRUE,"""event"",""trial"",""time""
""fullscreenenter"",""5"",""18143""
","
","
","""event"",""trial"",""time""
""fullscreenenter"",""5"",""18143""
","
",NA,NA,NA,NA,NA,NA,NA,NA,NA,NA,NA,NA,NA,NA,NA,NA,NA,NA,NA,NA,NA,NA,sub4
d3-animate-choice,11,90780,0.0-11.0,FALSE,TRUE,TRUE,TRUE,"""event"",""trial"",""time""
""fullscreenenter"",""5"",""18143""
","
","
","""event"",""trial"",""time""
""fullscreenenter"",""5"",""18143""
","
",6289.655000000494,NA,49,NA,NA,3000,1,NA,NA,images/tutgreenplanet.jpg,images/tutalien1,images/tutalien2,null,images/tutalien2,NA,NA,practice,null,NA,NA,NA,NA,sub4
d3-animate-choice,12,94695,0.0-12.0,FALSE,TRUE,TRUE,TRUE,"""event"",""trial"",""time""
""fullscreenenter"",""5"",""18143""
","
","
","""event"",""trial"",""time""
""fullscreenenter"",""5"",""18143""
","
",1911.8449999996228,NA,48,NA,NA,3000,1,NA,NA,images/tutgreenplanet.jpg,images/tutalien1,images/tutalien2,null,images/tutalien1,NA,NA,practice,null,NA,NA,NA,NA,sub4
d3-animate-choice,13,98760,0.0-13.0,FALSE,TRUE,TRUE,TRUE,"""event"",""trial"",""time""
""fullscreenenter"",""5"",""18143""
","
","
","""event"",""trial"",""time""
""fullscreenenter"",""5"",""18143""
","
",2061.9699999997392,NA,48,NA,NA,3000,1,NA,NA,images/tutgreenplanet.jpg,images/tutalien1,images/tutalien2,null,images/tutalien1,NA,NA,practice,null,NA,NA,NA,NA,sub4
d3-animate-choice,14,101662,0.0-14.0,FALSE,TRUE,TRUE,TRUE,"""event"",""trial"",""time""
""fullscreenenter"",""5"",""18143""
","
","
","""event"",""trial"",""time""
""fullscreenenter"",""5"",""18143""
","
",899.9549999998562,NA,49,NA,NA,3000,1,NA,NA,images/tutgreenplanet.jpg,images/tutalien1,images/tutalien2,null,images/tutalien2,NA,NA,practice,null,NA,NA,NA,NA,sub4
d3-instructions,15,110247,0.0-15.0,FALSE,TRUE,TRUE,TRUE,"""event"",""trial"",""time""
""fullscreenenter"",""5"",""18143""
","
","
","""event"",""trial"",""time""
""fullscreenenter"",""5"",""18143""
","
",NA,NA,NA,NA,NA,NA,NA,NA,NA,NA,NA,NA,NA,NA,NA,NA,NA,NA,NA,NA,NA,NA,sub4
d3-instructions,16,117678,0.0-16.0,FALSE,TRUE,TRUE,TRUE,"""event"",""trial"",""time""
""fullscreenenter"",""5"",""18143""
","
","
","""event"",""trial"",""time""
""fullscreenenter"",""5"",""18143""
","
",NA,NA,NA,NA,NA,NA,NA,NA,NA,NA,NA,NA,NA,NA,NA,NA,NA,NA,NA,NA,NA,NA,sub4
d3-instructions,17,127140,0.0-17.0,FALSE,TRUE,TRUE,TRUE,"""event"",""trial"",""time""
""fullscreenenter"",""5"",""18143""
","
","
","""event"",""trial"",""time""
""fullscreenenter"",""5"",""18143""
","
",NA,NA,NA,NA,NA,NA,NA,NA,NA,NA,NA,NA,NA,NA,NA,NA,NA,NA,NA,NA,NA,NA,sub4
d3-instructions,18,140843,0.0-18.0,FALSE,TRUE,TRUE,TRUE,"""event"",""trial"",""time""
""fullscreenenter"",""5"",""18143""
","
","
","""event"",""trial"",""time""
""fullscreenenter"",""5"",""18143""
","
",NA,NA,NA,NA,NA,NA,NA,NA,NA,NA,NA,NA,NA,NA,NA,NA,NA,NA,NA,NA,NA,NA,sub4
d3-instructions,19,154036,0.0-19.0,FALSE,TRUE,TRUE,TRUE,"""event"",""trial"",""time""
""fullscreenenter"",""5"",""18143""
","
","
","""event"",""trial"",""time""
""fullscreenenter"",""5"",""18143""
","
",NA,NA,NA,NA,NA,NA,NA,NA,NA,NA,NA,NA,NA,NA,NA,NA,NA,NA,NA,NA,NA,NA,sub4
d3-animate-choice,20,157372,0.0-20.0,FALSE,TRUE,TRUE,TRUE,"""event"",""trial"",""time""
""fullscreenenter"",""5"",""18143""
","
","
","""event"",""trial"",""time""
""fullscreenenter"",""5"",""18143""
","
",1333.189999999362,NA,49,NA,NA,3000,1,NA,NA,images/tutyellowplanet.jpg,null,images/tutalien3,null,images/tutalien3,images/t.png,NA,practice,null,NA,NA,NA,NA,sub4
d3-animate-choice,21,159640,0.0-21.0,FALSE,TRUE,TRUE,TRUE,"""event"",""trial"",""time""
""fullscreenenter"",""5"",""18143""
","
","
","""event"",""trial"",""time""
""fullscreenenter"",""5"",""18143""
","
",265.79500000027474,NA,49,NA,NA,3000,1,1680.82500000039,49,images/tutyellowplanet.jpg,null,images/tutalien3,null,images/tutalien3,images/t.png,NA,practice,null,NA,NA,NA,NA,sub4
d3-animate-choice,22,162820,0.0-22.0,FALSE,TRUE,TRUE,TRUE,"""event"",""trial"",""time""
""fullscreenenter"",""5"",""18143""
","
","
","""event"",""trial"",""time""
""fullscreenenter"",""5"",""18143""
","
",1177.5299999999406,NA,49,NA,NA,3000,1,NA,NA,images/tutyellowplanet.jpg,null,images/tutalien3,null,images/tutalien3,images/nothing.png,NA,practice,null,NA,NA,NA,NA,sub4
d3-animate-choice,23,165396,0.0-23.0,FALSE,TRUE,TRUE,TRUE,"""event"",""trial"",""time""
""fullscreenenter"",""5"",""18143""
","
","
","""event"",""trial"",""time""
""fullscreenenter"",""5"",""18143""
","
",573.9250000005995,NA,49,NA,NA,3000,1,NA,NA,images/tutyellowplanet.jpg,null,images/tutalien3,null,images/tutalien3,images/nothing.png,NA,practice,null,NA,NA,NA,NA,sub4
d3-animate-choice,24,168230,0.0-24.0,FALSE,TRUE,TRUE,TRUE,"""event"",""trial"",""time""
""fullscreenenter"",""5"",""18143""
","
","
","""event"",""trial"",""time""
""fullscreenenter"",""5"",""18143""
","
",832.2099999995553,NA,49,NA,NA,3000,1,NA,NA,images/tutyellowplanet.jpg,null,images/tutalien3,null,images/tutalien3,images/t.png,NA,practice,null,NA,NA,NA,NA,sub4
d3-animate-choice,25,170762,0.0-25.0,FALSE,TRUE,TRUE,TRUE,"""event"",""trial"",""time""
""fullscreenenter"",""5"",""18143""
","
","
","""event"",""trial"",""time""
""fullscreenenter"",""5"",""18143""
","
",529.7749999999942,NA,49,NA,NA,3000,1,NA,NA,images/tutyellowplanet.jpg,null,images/tutalien3,null,images/tutalien3,images/nothing.png,NA,practice,null,NA,NA,NA,NA,sub4
d3-animate-choice,26,173201,0.0-26.0,FALSE,TRUE,TRUE,TRUE,"""event"",""trial"",""time""
""fullscreenenter"",""5"",""18143""
","
","
","""event"",""trial"",""time""
""fullscreenenter"",""5"",""18143""
","
",436.10499999977765,NA,49,NA,NA,3000,1,NA,NA,images/tutyellowplanet.jpg,null,images/tutalien3,null,images/tutalien3,images/t.png,NA,practice,null,NA,NA,NA,NA,sub4
d3-animate-choice,27,175562,0.0-27.0,FALSE,TRUE,TRUE,TRUE,"""event"",""trial"",""time""
""fullscreenenter"",""5"",""18143""
","
","
","""event"",""trial"",""time""
""fullscreenenter"",""5"",""18143""
","
",358.1799999992945,NA,49,NA,NA,3000,1,NA,NA,images/tutyellowplanet.jpg,null,images/tutalien3,null,images/tutalien3,images/t.png,NA,practice,null,NA,NA,NA,NA,sub4
d3-animate-choice,28,178048,0.0-28.0,FALSE,TRUE,TRUE,TRUE,"""event"",""trial"",""time""
""fullscreenenter"",""5"",""18143""
","
","
","""event"",""trial"",""time""
""fullscreenenter"",""5"",""18143""
","
",483.9350000002014,NA,49,NA,NA,3000,1,NA,NA,images/tutyellowplanet.jpg,null,images/tutalien3,null,images/tutalien3,images/t.png,NA,practice,null,NA,NA,NA,NA,sub4
d3-animate-choice,29,180486,0.0-29.0,FALSE,TRUE,TRUE,TRUE,"""event"",""trial"",""time""
""fullscreenenter"",""5"",""18143""
","
","
","""event"",""trial"",""time""
""fullscreenenter"",""5"",""18143""
","
",436.8749999994179,NA,49,NA,NA,3000,1,NA,NA,images/tutyellowplanet.jpg,null,images/tutalien3,null,images/tutalien3,images/t.png,NA,practice,null,NA,NA,NA,NA,sub4
d3-instructions,30,190226,0.0-30.0,FALSE,TRUE,TRUE,TRUE,"""event"",""trial"",""time""
""fullscreenenter"",""5"",""18143""
","
","
","""event"",""trial"",""time""
""fullscreenenter"",""5"",""18143""
","
",NA,NA,NA,NA,NA,NA,NA,NA,NA,NA,NA,NA,NA,NA,NA,NA,NA,NA,NA,NA,NA,NA,sub4
d3-instructions,31,202447,0.0-31.0,FALSE,TRUE,TRUE,TRUE,"""event"",""trial"",""time""
""fullscreenenter"",""5"",""18143""
","
","
","""event"",""trial"",""time""
""fullscreenenter"",""5"",""18143""
","
",NA,NA,NA,NA,NA,NA,NA,NA,NA,NA,NA,NA,NA,NA,NA,NA,NA,NA,NA,NA,NA,NA,sub4
d3-instructions,32,209451,0.0-32.0,FALSE,TRUE,TRUE,TRUE,"""event"",""trial"",""time""
""fullscreenenter"",""5"",""18143""
","
","
","""event"",""trial"",""time""
""fullscreenenter"",""5"",""18143""
","
",NA,NA,NA,NA,NA,NA,NA,NA,NA,NA,NA,NA,NA,NA,NA,NA,NA,NA,NA,NA,NA,NA,sub4
d3-instructions,33,220616,0.0-33.0,FALSE,TRUE,TRUE,TRUE,"""event"",""trial"",""time""
""fullscreenenter"",""5"",""18143""
","
","
","""event"",""trial"",""time""
""fullscreenenter"",""5"",""18143""
","
",NA,NA,NA,NA,NA,NA,NA,NA,NA,NA,NA,NA,NA,NA,NA,NA,NA,NA,NA,NA,NA,NA,sub4
d3-animate-choice,34,224786,0.0-34.0,FALSE,TRUE,TRUE,TRUE,"""event"",""trial"",""time""
""fullscreenenter"",""5"",""18143""
","
","
","""event"",""trial"",""time""
""fullscreenenter"",""5"",""18143""
","
",2166.995000000519,NA,49,NA,NA,3000,1,NA,NA,images/tutgreenplanet.jpg,images/tutalien1,images/tutalien2,null,images/tutalien2,images/t.png,NA,practice,null,NA,NA,NA,NA,sub4
d3-animate-choice,35,229138,0.0-35.0,FALSE,TRUE,TRUE,TRUE,"""event"",""trial"",""time""
""fullscreenenter"",""5"",""18143""
","
","
","""event"",""trial"",""time""
""fullscreenenter"",""5"",""18143""
","
",2349.169999999489,NA,49,NA,NA,3000,1,NA,NA,images/tutgreenplanet.jpg,images/tutalien1,images/tutalien2,null,images/tutalien2,images/t.png,NA,practice,null,NA,NA,NA,NA,sub4
d3-animate-choice,36,231610,0.0-36.0,FALSE,TRUE,TRUE,TRUE,"""event"",""trial"",""time""
""fullscreenenter"",""5"",""18143""
","
","
","""event"",""trial"",""time""
""fullscreenenter"",""5"",""18143""
","
",469.1699999994016,NA,49,NA,NA,3000,1,NA,NA,images/tutgreenplanet.jpg,images/tutalien1,images/tutalien2,null,images/tutalien2,images/t.png,NA,practice,null,NA,NA,NA,NA,sub4
d3-animate-choice,37,234041,0.0-37.0,FALSE,TRUE,TRUE,TRUE,"""event"",""trial"",""time""
""fullscreenenter"",""5"",""18143""
","
","
","""event"",""trial"",""time""
""fullscreenenter"",""5"",""18143""
","
",428.70000000039,NA,49,NA,NA,3000,1,NA,NA,images/tutgreenplanet.jpg,images/tutalien1,images/tutalien2,null,images/tutalien2,images/t.png,NA,practice,null,NA,NA,NA,NA,sub4
d3-animate-choice,38,236421,0.0-38.0,FALSE,TRUE,TRUE,TRUE,"""event"",""trial"",""time""
""fullscreenenter"",""5"",""18143""
","
","
","""event"",""trial"",""time""
""fullscreenenter"",""5"",""18143""
","
",376.88499999966007,NA,49,NA,NA,3000,1,NA,NA,images/tutgreenplanet.jpg,images/tutalien1,images/tutalien2,null,images/tutalien2,images/t.png,NA,practice,null,NA,NA,NA,NA,sub4
d3-animate-choice,39,238774,0.0-39.0,FALSE,TRUE,TRUE,TRUE,"""event"",""trial"",""time""
""fullscreenenter"",""5"",""18143""
","
","
","""event"",""trial"",""time""
""fullscreenenter"",""5"",""18143""
","
",351.1950000001816,NA,49,NA,NA,3000,1,NA,NA,images/tutgreenplanet.jpg,images/tutalien1,images/tutalien2,null,images/tutalien2,images/t.png,NA,practice,null,NA,NA,NA,NA,sub4
d3-animate-choice,40,241187,0.0-40.0,FALSE,TRUE,TRUE,TRUE,"""event"",""trial"",""time""
""fullscreenenter"",""5"",""18143""
","
","
","""event"",""trial"",""time""
""fullscreenenter"",""5"",""18143""
","
",410.954999999376,NA,49,NA,NA,3000,1,NA,NA,images/tutgreenplanet.jpg,images/tutalien1,images/tutalien2,null,images/tutalien2,images/t.png,NA,practice,null,NA,NA,NA,NA,sub4
d3-animate-choice,41,243741,0.0-41.0,FALSE,TRUE,TRUE,TRUE,"""event"",""trial"",""time""
""fullscreenenter"",""5"",""18143""
","
","
","""event"",""trial"",""time""
""fullscreenenter"",""5"",""18143""
","
",550.6750000004249,NA,49,NA,NA,3000,1,NA,NA,images/tutgreenplanet.jpg,images/tutalien1,images/tutalien2,null,images/tutalien2,images/t.png,NA,practice,null,NA,NA,NA,NA,sub4
d3-animate-choice,42,246052,0.0-42.0,FALSE,TRUE,TRUE,TRUE,"""event"",""trial"",""time""
""fullscreenenter"",""5"",""18143""
","
","
","""event"",""trial"",""time""
""fullscreenenter"",""5"",""18143""
","
",309.44499999989057,NA,49,NA,NA,3000,1,NA,NA,images/tutgreenplanet.jpg,images/tutalien1,images/tutalien2,null,images/tutalien2,images/t.png,NA,practice,null,NA,NA,NA,NA,sub4
d3-animate-choice,43,248368,0.0-43.0,FALSE,TRUE,TRUE,TRUE,"""event"",""trial"",""time""
""fullscreenenter"",""5"",""18143""
","
","
","""event"",""trial"",""time""
""fullscreenenter"",""5"",""18143""
","
",313.21999999997206,NA,49,NA,NA,3000,1,NA,NA,images/tutgreenplanet.jpg,images/tutalien1,images/tutalien2,null,images/tutalien2,images/t.png,NA,practice,null,NA,NA,NA,NA,sub4
d3-instructions,44,261575,0.0-44.0,FALSE,TRUE,TRUE,TRUE,"""event"",""trial"",""time""
""fullscreenenter"",""5"",""18143""
","
","
","""event"",""trial"",""time""
""fullscreenenter"",""5"",""18143""
","
",NA,NA,NA,NA,NA,NA,NA,NA,NA,NA,NA,NA,NA,NA,NA,NA,NA,NA,NA,NA,NA,NA,sub4
d3-instructions,45,268260,0.0-45.0,FALSE,TRUE,TRUE,TRUE,"""event"",""trial"",""time""
""fullscreenenter"",""5"",""18143""
","
","
","""event"",""trial"",""time""
""fullscreenenter"",""5"",""18143""
","
",NA,NA,NA,NA,NA,NA,NA,NA,NA,NA,NA,NA,NA,NA,NA,NA,NA,NA,NA,NA,NA,NA,sub4
d3-instructions,46,273591,0.0-46.0,FALSE,TRUE,TRUE,TRUE,"""event"",""trial"",""time""
""fullscreenenter"",""5"",""18143""
","
","
","""event"",""trial"",""time""
""fullscreenenter"",""5"",""18143""
","
",NA,NA,NA,NA,NA,NA,NA,NA,NA,NA,NA,NA,NA,NA,NA,NA,NA,NA,NA,NA,NA,NA,sub4
d3-instructions,47,290646,0.0-47.0,FALSE,TRUE,TRUE,TRUE,"""event"",""trial"",""time""
""fullscreenenter"",""5"",""18143""
","
","
","""event"",""trial"",""time""
""fullscreenenter"",""5"",""18143""
","
",NA,NA,NA,NA,NA,NA,NA,NA,NA,NA,NA,NA,NA,NA,NA,NA,NA,NA,NA,NA,NA,NA,sub4
d3-instructions,48,297739,0.0-48.0,FALSE,TRUE,TRUE,TRUE,"""event"",""trial"",""time""
""fullscreenenter"",""5"",""18143""
","
","
","""event"",""trial"",""time""
""fullscreenenter"",""5"",""18143""
","
",NA,NA,NA,NA,NA,NA,NA,NA,NA,NA,NA,NA,NA,NA,NA,NA,NA,NA,NA,NA,NA,NA,sub4
d3-instructions,49,308691,0.0-49.0,FALSE,TRUE,TRUE,TRUE,"""event"",""trial"",""time""
""fullscreenenter"",""5"",""18143""
","
","
","""event"",""trial"",""time""
""fullscreenenter"",""5"",""18143""
","
",NA,NA,NA,NA,NA,NA,NA,NA,NA,NA,NA,NA,NA,NA,NA,NA,NA,NA,NA,NA,NA,NA,sub4
d3-instructions,50,318837,0.0-50.0,FALSE,TRUE,TRUE,TRUE,"""event"",""trial"",""time""
""fullscreenenter"",""5"",""18143""
","
","
","""event"",""trial"",""time""
""fullscreenenter"",""5"",""18143""
","
",NA,NA,NA,NA,NA,NA,NA,NA,NA,NA,NA,NA,NA,NA,NA,NA,NA,NA,NA,NA,NA,NA,sub4
d3-instructions,51,322133,0.0-51.0,FALSE,TRUE,TRUE,TRUE,"""event"",""trial"",""time""
""fullscreenenter"",""5"",""18143""
","
","
","""event"",""trial"",""time""
""fullscreenenter"",""5"",""18143""
","
",NA,NA,NA,NA,NA,NA,NA,NA,NA,NA,NA,NA,NA,NA,NA,NA,NA,NA,NA,NA,NA,NA,sub4
d3-instructions,52,325620,0.0-52.0,FALSE,TRUE,TRUE,TRUE,"""event"",""trial"",""time""
""fullscreenenter"",""5"",""18143""
","
","
","""event"",""trial"",""time""
""fullscreenenter"",""5"",""18143""
","
",NA,NA,NA,NA,NA,NA,NA,NA,NA,NA,NA,NA,NA,NA,NA,NA,NA,NA,NA,NA,NA,NA,sub4
d3-instructions,53,337452,0.0-53.0,FALSE,TRUE,TRUE,TRUE,"""event"",""trial"",""time""
""fullscreenenter"",""5"",""18143""
","
","
","""event"",""trial"",""time""
""fullscreenenter"",""5"",""18143""
","
",NA,NA,NA,NA,NA,NA,NA,NA,NA,NA,NA,NA,NA,NA,NA,NA,NA,NA,NA,NA,NA,NA,sub4
d3-instructions,54,351070,0.0-54.0,FALSE,TRUE,TRUE,TRUE,"""event"",""trial"",""time""
""fullscreenenter"",""5"",""18143""
","
","
","""event"",""trial"",""time""
""fullscreenenter"",""5"",""18143""
","
",NA,NA,NA,NA,NA,NA,NA,NA,NA,NA,NA,NA,NA,NA,NA,NA,NA,NA,NA,NA,NA,NA,sub4
d3-instructions,55,361832,0.0-55.0,FALSE,TRUE,TRUE,TRUE,"""event"",""trial"",""time""
""fullscreenenter"",""5"",""18143""
","
","
","""event"",""trial"",""time""
""fullscreenenter"",""5"",""18143""
","
",NA,NA,NA,NA,NA,NA,NA,NA,NA,NA,NA,NA,NA,NA,NA,NA,NA,NA,NA,NA,NA,NA,sub4
d3-instructions,56,370114,0.0-56.0,FALSE,TRUE,TRUE,TRUE,"""event"",""trial"",""time""
""fullscreenenter"",""5"",""18143""
","
","
","""event"",""trial"",""time""
""fullscreenenter"",""5"",""18143""
","
",NA,NA,NA,NA,NA,NA,NA,NA,NA,NA,NA,NA,NA,NA,NA,NA,NA,NA,NA,NA,NA,NA,sub4
d3-instructions,57,380535,0.0-57.0,FALSE,TRUE,TRUE,TRUE,"""event"",""trial"",""time""
""fullscreenenter"",""5"",""18143""
","
","
","""event"",""trial"",""time""
""fullscreenenter"",""5"",""18143""
","
",NA,NA,NA,NA,NA,NA,NA,NA,NA,NA,NA,NA,NA,NA,NA,NA,NA,NA,NA,NA,NA,NA,sub4
d3-instructions,58,391908,0.0-58.0,FALSE,TRUE,TRUE,TRUE,"""event"",""trial"",""time""
""fullscreenenter"",""5"",""18143""
","
","
","""event"",""trial"",""time""
""fullscreenenter"",""5"",""18143""
","
",NA,NA,NA,NA,NA,NA,NA,NA,NA,NA,NA,NA,NA,NA,NA,NA,NA,NA,NA,NA,NA,NA,sub4
d3-instructions,59,398171,0.0-59.0,FALSE,TRUE,TRUE,TRUE,"""event"",""trial"",""time""
""fullscreenenter"",""5"",""18143""
","
","
","""event"",""trial"",""time""
""fullscreenenter"",""5"",""18143""
","
",NA,NA,NA,NA,NA,NA,NA,NA,NA,NA,NA,NA,NA,NA,NA,NA,NA,NA,NA,NA,NA,NA,sub4
d3-instructions,60,404919,0.0-60.0,FALSE,TRUE,TRUE,TRUE,"""event"",""trial"",""time""
""fullscreenenter"",""5"",""18143""
","
","
","""event"",""trial"",""time""
""fullscreenenter"",""5"",""18143""
","
",NA,NA,NA,NA,NA,NA,NA,NA,NA,NA,NA,NA,NA,NA,NA,NA,NA,NA,NA,NA,NA,NA,sub4
d3-animate-choice,61,408092,0.0-61.0-0.0,FALSE,TRUE,TRUE,TRUE,"""event"",""trial"",""time""
""fullscreenenter"",""5"",""18143""
","
","
","""event"",""trial"",""time""
""fullscreenenter"",""5"",""18143""
","
",1169.6949999995995,NA,48,NA,NA,3000,1,NA,NA,images/earth.jpg,images/tutrocket2,images/tutrocket1,null,images/tutrocket2,NA,1,practice,null,2,NA,NA,NA,sub4
d3-animate-choice,62,412095,0.0-61.0-1.0,FALSE,TRUE,TRUE,TRUE,"""event"",""trial"",""time""
""fullscreenenter"",""5"",""18143""
","
","
","""event"",""trial"",""time""
""fullscreenenter"",""5"",""18143""
","
",2338.7750000001397,NA,49,NA,NA,3000,1,NA,NA,images/tutyellowplanet.jpg,images/tutalien4,images/tutalien3,images/tutrocket2,images/tutalien3,images/nothing.png,2,practice,true,1,common,0,2020-06-11T16:36:08Z,sub4
two-step-fixation,63,413099,0.0-61.0-2.0,FALSE,TRUE,TRUE,TRUE,"""event"",""trial"",""time""
""fullscreenenter"",""5"",""18143""
","
","
","""event"",""trial"",""time""
""fullscreenenter"",""5"",""18143""
","
",NA,images/earth.jpg,NA,NA,NA,NA,NA,NA,NA,NA,NA,NA,NA,NA,NA,fixation,NA,NA,NA,NA,NA,NA,sub4
d3-animate-choice,64,416244,0.0-61.0-0.1,FALSE,TRUE,TRUE,TRUE,"""event"",""trial"",""time""
""fullscreenenter"",""5"",""18143""
","
","
","""event"",""trial"",""time""
""fullscreenenter"",""5"",""18143""
","
",1142.4200000001583,NA,49,NA,NA,3000,1,NA,NA,images/earth.jpg,images/tutrocket2,images/tutrocket1,null,images/tutrocket1,NA,1,practice,null,1,NA,NA,NA,sub4
d3-animate-choice,65,419189,0.0-61.0-1.1,FALSE,TRUE,TRUE,TRUE,"""event"",""trial"",""time""
""fullscreenenter"",""5"",""18143""
","
","
","""event"",""trial"",""time""
""fullscreenenter"",""5"",""18143""
","
",942.0200000004261,NA,48,NA,NA,3000,1,NA,NA,images/tutyellowplanet.jpg,images/tutalien4,images/tutalien3,images/tutrocket1,images/tutalien4,images/t.png,2,practice,false,2,rare,1,2020-06-11T16:36:15Z,sub4
two-step-fixation,66,420192,0.0-61.0-2.1,FALSE,TRUE,TRUE,TRUE,"""event"",""trial"",""time""
""fullscreenenter"",""5"",""18143""
","
","
","""event"",""trial"",""time""
""fullscreenenter"",""5"",""18143""
","
",NA,images/earth.jpg,NA,NA,NA,NA,NA,NA,NA,NA,NA,NA,NA,NA,NA,fixation,NA,NA,NA,NA,NA,NA,sub4
d3-animate-choice,67,423314,0.0-61.0-0.2,FALSE,TRUE,TRUE,TRUE,"""event"",""trial"",""time""
""fullscreenenter"",""5"",""18143""
","
","
","""event"",""trial"",""time""
""fullscreenenter"",""5"",""18143""
","
",1119.625000000291,NA,49,NA,NA,3000,1,NA,NA,images/earth.jpg,images/tutrocket2,images/tutrocket1,null,images/tutrocket1,NA,1,practice,null,1,NA,NA,NA,sub4
d3-animate-choice,68,426014,0.0-61.0-1.2,FALSE,TRUE,TRUE,TRUE,"""event"",""trial"",""time""
""fullscreenenter"",""5"",""18143""
","
","
","""event"",""trial"",""time""
""fullscreenenter"",""5"",""18143""
","
",696.1299999993644,NA,48,NA,NA,3000,1,NA,NA,images/tutyellowplanet.jpg,images/tutalien4,images/tutalien3,images/tutrocket1,images/tutalien4,images/nothing.png,2,practice,false,2,rare,0,2020-06-11T16:36:22Z,sub4
two-step-fixation,69,427016,0.0-61.0-2.2,FALSE,TRUE,TRUE,TRUE,"""event"",""trial"",""time""
""fullscreenenter"",""5"",""18143""
","
","
","""event"",""trial"",""time""
""fullscreenenter"",""5"",""18143""
","
",NA,images/earth.jpg,NA,NA,NA,NA,NA,NA,NA,NA,NA,NA,NA,NA,NA,fixation,NA,NA,NA,NA,NA,NA,sub4
d3-animate-choice,70,430164,0.0-61.0-0.3,FALSE,TRUE,TRUE,TRUE,"""event"",""trial"",""time""
""fullscreenenter"",""5"",""18143""
","
","
","""event"",""trial"",""time""
""fullscreenenter"",""5"",""18143""
","
",1146.4450000003562,NA,48,NA,NA,3000,1,NA,NA,images/earth.jpg,images/tutrocket2,images/tutrocket1,null,images/tutrocket2,NA,1,practice,null,2,NA,NA,NA,sub4
d3-animate-choice,71,433281,0.0-61.0-1.3,FALSE,TRUE,TRUE,TRUE,"""event"",""trial"",""time""
""fullscreenenter"",""5"",""18143""
","
","
","""event"",""trial"",""time""
""fullscreenenter"",""5"",""18143""
","
",1112.7449999994715,NA,48,NA,NA,3000,1,NA,NA,images/tutgreenplanet.jpg,images/tutalien2,images/tutalien1,images/tutrocket2,images/tutalien2,images/nothing.png,2,practice,false,2,rare,0,2020-06-11T16:36:29Z,sub4
two-step-fixation,72,434283,0.0-61.0-2.3,FALSE,TRUE,TRUE,TRUE,"""event"",""trial"",""time""
""fullscreenenter"",""5"",""18143""
","
","
","""event"",""trial"",""time""
""fullscreenenter"",""5"",""18143""
","
",NA,images/earth.jpg,NA,NA,NA,NA,NA,NA,NA,NA,NA,NA,NA,NA,NA,fixation,NA,NA,NA,NA,NA,NA,sub4
d3-animate-choice,73,436732,0.0-61.0-0.4,FALSE,TRUE,TRUE,TRUE,"""event"",""trial"",""time""
""fullscreenenter"",""5"",""18143""
","
","
","""event"",""trial"",""time""
""fullscreenenter"",""5"",""18143""
","
",447.34999999945285,NA,48,NA,NA,3000,1,NA,NA,images/earth.jpg,images/tutrocket2,images/tutrocket1,null,images/tutrocket2,NA,1,practice,null,2,NA,NA,NA,sub4
d3-animate-choice,74,439144,0.0-61.0-1.4,FALSE,TRUE,TRUE,TRUE,"""event"",""trial"",""time""
""fullscreenenter"",""5"",""18143""
","
","
","""event"",""trial"",""time""
""fullscreenenter"",""5"",""18143""
","
",409.7149999997928,NA,49,NA,NA,3000,1,NA,NA,images/tutyellowplanet.jpg,images/tutalien4,images/tutalien3,images/tutrocket2,images/tutalien3,images/nothing.png,2,practice,true,1,common,0,2020-06-11T16:36:35Z,sub4
two-step-fixation,75,440146,0.0-61.0-2.4,FALSE,TRUE,TRUE,TRUE,"""event"",""trial"",""time""
""fullscreenenter"",""5"",""18143""
","
","
","""event"",""trial"",""time""
""fullscreenenter"",""5"",""18143""
","
",NA,images/earth.jpg,NA,NA,NA,NA,NA,NA,NA,NA,NA,NA,NA,NA,NA,fixation,NA,NA,NA,NA,NA,NA,sub4
d3-animate-choice,76,443916,0.0-61.0-0.5,FALSE,TRUE,TRUE,TRUE,"""event"",""trial"",""time""
""fullscreenenter"",""5"",""18143""
","
","
","""event"",""trial"",""time""
""fullscreenenter"",""5"",""18143""
","
",1766.6950000002398,NA,49,NA,NA,3000,1,NA,NA,images/earth.jpg,images/tutrocket2,images/tutrocket1,null,images/tutrocket1,NA,1,practice,null,1,NA,NA,NA,sub4
d3-animate-choice,77,446868,0.0-61.0-1.5,FALSE,TRUE,TRUE,TRUE,"""event"",""trial"",""time""
""fullscreenenter"",""5"",""18143""
","
","
","""event"",""trial"",""time""
""fullscreenenter"",""5"",""18143""
","
",950.9399999997113,NA,48,NA,NA,3000,1,NA,NA,images/tutgreenplanet.jpg,images/tutalien2,images/tutalien1,images/tutrocket1,images/tutalien2,images/nothing.png,2,practice,true,2,common,0,2020-06-11T16:36:43Z,sub4
two-step-fixation,78,447870,0.0-61.0-2.5,FALSE,TRUE,TRUE,TRUE,"""event"",""trial"",""time""
""fullscreenenter"",""5"",""18143""
","
","
","""event"",""trial"",""time""
""fullscreenenter"",""5"",""18143""
","
",NA,images/earth.jpg,NA,NA,NA,NA,NA,NA,NA,NA,NA,NA,NA,NA,NA,fixation,NA,NA,NA,NA,NA,NA,sub4
d3-animate-choice,79,450754,0.0-61.0-0.6,FALSE,TRUE,TRUE,TRUE,"""event"",""trial"",""time""
""fullscreenenter"",""5"",""18143""
","
","
","""event"",""trial"",""time""
""fullscreenenter"",""5"",""18143""
","
",881.2999999999884,NA,49,NA,NA,3000,1,NA,NA,images/earth.jpg,images/tutrocket2,images/tutrocket1,null,images/tutrocket1,NA,1,practice,null,1,NA,NA,NA,sub4
d3-animate-choice,80,453835,0.0-61.0-1.6,FALSE,TRUE,TRUE,TRUE,"""event"",""trial"",""time""
""fullscreenenter"",""5"",""18143""
","
","
","""event"",""trial"",""time""
""fullscreenenter"",""5"",""18143""
","
",1077.405000000028,NA,49,NA,NA,3000,1,NA,NA,images/tutgreenplanet.jpg,images/tutalien2,images/tutalien1,images/tutrocket1,images/tutalien1,images/t.png,2,practice,true,1,common,1,2020-06-11T16:36:50Z,sub4
two-step-fixation,81,454838,0.0-61.0-2.6,FALSE,TRUE,TRUE,TRUE,"""event"",""trial"",""time""
""fullscreenenter"",""5"",""18143""
","
","
","""event"",""trial"",""time""
""fullscreenenter"",""5"",""18143""
","
",NA,images/earth.jpg,NA,NA,NA,NA,NA,NA,NA,NA,NA,NA,NA,NA,NA,fixation,NA,NA,NA,NA,NA,NA,sub4
d3-animate-choice,82,458611,0.0-61.0-0.7,FALSE,TRUE,TRUE,TRUE,"""event"",""trial"",""time""
""fullscreenenter"",""5"",""18143""
","
","
","""event"",""trial"",""time""
""fullscreenenter"",""5"",""18143""
","
",1771.510000000475,NA,48,NA,NA,3000,1,NA,NA,images/earth.jpg,images/tutrocket2,images/tutrocket1,null,images/tutrocket2,NA,1,practice,null,2,NA,NA,NA,sub4
d3-animate-choice,83,461760,0.0-61.0-1.7,FALSE,TRUE,TRUE,TRUE,"""event"",""trial"",""time""
""fullscreenenter"",""5"",""18143""
","
","
","""event"",""trial"",""time""
""fullscreenenter"",""5"",""18143""
","
",1145.4100000000908,NA,49,NA,NA,3000,1,NA,NA,images/tutgreenplanet.jpg,images/tutalien2,images/tutalien1,images/tutrocket2,images/tutalien1,images/t.png,2,practice,false,1,rare,1,2020-06-11T16:36:58Z,sub4
two-step-fixation,84,462762,0.0-61.0-2.7,FALSE,TRUE,TRUE,TRUE,"""event"",""trial"",""time""
""fullscreenenter"",""5"",""18143""
","
","
","""event"",""trial"",""time""
""fullscreenenter"",""5"",""18143""
","
",NA,images/earth.jpg,NA,NA,NA,NA,NA,NA,NA,NA,NA,NA,NA,NA,NA,fixation,NA,NA,NA,NA,NA,NA,sub4
d3-animate-choice,85,465680,0.0-61.0-0.8,FALSE,TRUE,TRUE,TRUE,"""event"",""trial"",""time""
""fullscreenenter"",""5"",""18143""
","
","
","""event"",""trial"",""time""
""fullscreenenter"",""5"",""18143""
","
",914.9400000005844,NA,49,NA,NA,3000,1,NA,NA,images/earth.jpg,images/tutrocket2,images/tutrocket1,null,images/tutrocket1,NA,1,practice,null,1,NA,NA,NA,sub4
d3-animate-choice,86,468391,0.0-61.0-1.8,FALSE,TRUE,TRUE,TRUE,"""event"",""trial"",""time""
""fullscreenenter"",""5"",""18143""
","
","
","""event"",""trial"",""time""
""fullscreenenter"",""5"",""18143""
","
",709.0099999996019,NA,48,NA,NA,3000,1,NA,NA,images/tutyellowplanet.jpg,images/tutalien4,images/tutalien3,images/tutrocket1,images/tutalien4,images/t.png,2,practice,false,2,rare,1,2020-06-11T16:37:04Z,sub4
two-step-fixation,87,469393,0.0-61.0-2.8,FALSE,TRUE,TRUE,TRUE,"""event"",""trial"",""time""
""fullscreenenter"",""5"",""18143""
","
","
","""event"",""trial"",""time""
""fullscreenenter"",""5"",""18143""
","
",NA,images/earth.jpg,NA,NA,NA,NA,NA,NA,NA,NA,NA,NA,NA,NA,NA,fixation,NA,NA,NA,NA,NA,NA,sub4
d3-animate-choice,88,472389,0.0-61.0-0.9,FALSE,TRUE,TRUE,TRUE,"""event"",""trial"",""time""
""fullscreenenter"",""5"",""18143""
","
","
","""event"",""trial"",""time""
""fullscreenenter"",""5"",""18143""
","
",993.2100000005448,NA,48,NA,NA,3000,1,NA,NA,images/earth.jpg,images/tutrocket2,images/tutrocket1,null,images/tutrocket2,NA,1,practice,null,2,NA,NA,NA,sub4
d3-animate-choice,89,475303,0.0-61.0-1.9,FALSE,TRUE,TRUE,TRUE,"""event"",""trial"",""time""
""fullscreenenter"",""5"",""18143""
","
","
","""event"",""trial"",""time""
""fullscreenenter"",""5"",""18143""
","
",911.6750000002794,NA,49,NA,NA,3000,1,NA,NA,images/tutgreenplanet.jpg,images/tutalien2,images/tutalien1,images/tutrocket2,images/tutalien1,images/nothing.png,2,practice,false,1,rare,0,2020-06-11T16:37:11Z,sub4
two-step-fixation,90,476306,0.0-61.0-2.9,FALSE,TRUE,TRUE,TRUE,"""event"",""trial"",""time""
""fullscreenenter"",""5"",""18143""
","
","
","""event"",""trial"",""time""
""fullscreenenter"",""5"",""18143""
","
",NA,images/earth.jpg,NA,NA,NA,NA,NA,NA,NA,NA,NA,NA,NA,NA,NA,fixation,NA,NA,NA,NA,NA,NA,sub4
d3-animate-choice,91,480309,0.0-61.0-0.10,FALSE,TRUE,TRUE,TRUE,"""event"",""trial"",""time""
""fullscreenenter"",""5"",""18143""
","
","
","""event"",""trial"",""time""
""fullscreenenter"",""5"",""18143""
","
",2750.1050000000396,NA,49,NA,NA,3000,1,NA,NA,images/earth.jpg,images/tutrocket2,images/tutrocket1,null,images/tutrocket1,NA,1,practice,null,1,NA,NA,NA,sub4
d3-animate-choice,92,483942,0.0-61.0-1.10,FALSE,TRUE,TRUE,TRUE,"""event"",""trial"",""time""
""fullscreenenter"",""5"",""18143""
","
","
","""event"",""trial"",""time""
""fullscreenenter"",""5"",""18143""
","
",1631.5749999994296,NA,48,NA,NA,3000,1,NA,NA,images/tutyellowplanet.jpg,images/tutalien4,images/tutalien3,images/tutrocket1,images/tutalien4,images/t.png,2,practice,false,2,rare,1,2020-06-11T16:37:20Z,sub4
two-step-fixation,93,484945,0.0-61.0-2.10,FALSE,TRUE,TRUE,TRUE,"""event"",""trial"",""time""
""fullscreenenter"",""5"",""18143""
","
","
","""event"",""trial"",""time""
""fullscreenenter"",""5"",""18143""
","
",NA,images/earth.jpg,NA,NA,NA,NA,NA,NA,NA,NA,NA,NA,NA,NA,NA,fixation,NA,NA,NA,NA,NA,NA,sub4
d3-animate-choice,94,487753,0.0-61.0-0.11,FALSE,TRUE,TRUE,TRUE,"""event"",""trial"",""time""
""fullscreenenter"",""5"",""18143""
","
","
","""event"",""trial"",""time""
""fullscreenenter"",""5"",""18143""
","
",804.0700000001234,NA,49,NA,NA,3000,1,NA,NA,images/earth.jpg,images/tutrocket2,images/tutrocket1,null,images/tutrocket1,NA,1,practice,null,1,NA,NA,NA,sub4
d3-animate-choice,95,490198,0.0-61.0-1.11,FALSE,TRUE,TRUE,TRUE,"""event"",""trial"",""time""
""fullscreenenter"",""5"",""18143""
","
","
","""event"",""trial"",""time""
""fullscreenenter"",""5"",""18143""
","
",442.35999999998603,NA,48,NA,NA,3000,1,NA,NA,images/tutgreenplanet.jpg,images/tutalien2,images/tutalien1,images/tutrocket1,images/tutalien2,images/nothing.png,2,practice,true,2,common,0,2020-06-11T16:37:26Z,sub4
two-step-fixation,96,491201,0.0-61.0-2.11,FALSE,TRUE,TRUE,TRUE,"""event"",""trial"",""time""
""fullscreenenter"",""5"",""18143""
","
","
","""event"",""trial"",""time""
""fullscreenenter"",""5"",""18143""
","
",NA,images/earth.jpg,NA,NA,NA,NA,NA,NA,NA,NA,NA,NA,NA,NA,NA,fixation,NA,NA,NA,NA,NA,NA,sub4
d3-animate-choice,97,494238,0.0-61.0-0.12,FALSE,TRUE,TRUE,TRUE,"""event"",""trial"",""time""
""fullscreenenter"",""5"",""18143""
","
","
","""event"",""trial"",""time""
""fullscreenenter"",""5"",""18143""
","
",1033.29000000027,NA,48,NA,NA,3000,1,NA,NA,images/earth.jpg,images/tutrocket2,images/tutrocket1,null,images/tutrocket2,NA,1,practice,null,2,NA,NA,NA,sub4
d3-animate-choice,98,497556,0.0-61.0-1.12,FALSE,TRUE,TRUE,TRUE,"""event"",""trial"",""time""
""fullscreenenter"",""5"",""18143""
","
","
","""event"",""trial"",""time""
""fullscreenenter"",""5"",""18143""
","
",1316.5349999999162,NA,48,NA,NA,3000,1,NA,NA,images/tutyellowplanet.jpg,images/tutalien4,images/tutalien3,images/tutrocket2,images/tutalien4,images/nothing.png,2,practice,true,2,common,0,2020-06-11T16:37:34Z,sub4
two-step-fixation,99,498558,0.0-61.0-2.12,FALSE,TRUE,TRUE,TRUE,"""event"",""trial"",""time""
""fullscreenenter"",""5"",""18143""
","
","
","""event"",""trial"",""time""
""fullscreenenter"",""5"",""18143""
","
",NA,images/earth.jpg,NA,NA,NA,NA,NA,NA,NA,NA,NA,NA,NA,NA,NA,fixation,NA,NA,NA,NA,NA,NA,sub4
d3-animate-choice,100,501405,0.0-61.0-0.13,FALSE,TRUE,TRUE,TRUE,"""event"",""trial"",""time""
""fullscreenenter"",""5"",""18143""
","
","
","""event"",""trial"",""time""
""fullscreenenter"",""5"",""18143""
","
",844.6100000001024,NA,49,NA,NA,3000,1,NA,NA,images/earth.jpg,images/tutrocket2,images/tutrocket1,null,images/tutrocket1,NA,1,practice,null,1,NA,NA,NA,sub4
d3-animate-choice,101,504199,0.0-61.0-1.13,FALSE,TRUE,TRUE,TRUE,"""event"",""trial"",""time""
""fullscreenenter"",""5"",""18143""
","
","
","""event"",""trial"",""time""
""fullscreenenter"",""5"",""18143""
","
",792.3250000003609,NA,48,NA,NA,3000,1,NA,NA,images/tutgreenplanet.jpg,images/tutalien2,images/tutalien1,images/tutrocket1,images/tutalien2,images/nothing.png,2,practice,true,2,common,0,2020-06-11T16:37:40Z,sub4
two-step-fixation,102,505202,0.0-61.0-2.13,FALSE,TRUE,TRUE,TRUE,"""event"",""trial"",""time""
""fullscreenenter"",""5"",""18143""
","
","
","""event"",""trial"",""time""
""fullscreenenter"",""5"",""18143""
","
",NA,images/earth.jpg,NA,NA,NA,NA,NA,NA,NA,NA,NA,NA,NA,NA,NA,fixation,NA,NA,NA,NA,NA,NA,sub4
d3-animate-choice,103,508061,0.0-61.0-0.14,FALSE,TRUE,TRUE,TRUE,"""event"",""trial"",""time""
""fullscreenenter"",""5"",""18143""
","
","
","""event"",""trial"",""time""
""fullscreenenter"",""5"",""18143""
","
",857.3350000005448,NA,49,NA,NA,3000,1,NA,NA,images/earth.jpg,images/tutrocket2,images/tutrocket1,null,images/tutrocket1,NA,1,practice,null,1,NA,NA,NA,sub4
d3-animate-choice,104,510592,0.0-61.0-1.14,FALSE,TRUE,TRUE,TRUE,"""event"",""trial"",""time""
""fullscreenenter"",""5"",""18143""
","
","
","""event"",""trial"",""time""
""fullscreenenter"",""5"",""18143""
","
",528.4400000000605,NA,49,NA,NA,3000,1,NA,NA,images/tutgreenplanet.jpg,images/tutalien2,images/tutalien1,images/tutrocket1,images/tutalien1,images/nothing.png,2,practice,true,1,common,0,2020-06-11T16:37:47Z,sub4
two-step-fixation,105,511595,0.0-61.0-2.14,FALSE,TRUE,TRUE,TRUE,"""event"",""trial"",""time""
""fullscreenenter"",""5"",""18143""
","
","
","""event"",""trial"",""time""
""fullscreenenter"",""5"",""18143""
","
",NA,images/earth.jpg,NA,NA,NA,NA,NA,NA,NA,NA,NA,NA,NA,NA,NA,fixation,NA,NA,NA,NA,NA,NA,sub4
d3-animate-choice,106,514099,0.0-61.0-0.15,FALSE,TRUE,TRUE,TRUE,"""event"",""trial"",""time""
""fullscreenenter"",""5"",""18143""
","
","
","""event"",""trial"",""time""
""fullscreenenter"",""5"",""18143""
","
",502.1749999995809,NA,48,NA,NA,3000,1,NA,NA,images/earth.jpg,images/tutrocket2,images/tutrocket1,null,images/tutrocket2,NA,1,practice,null,2,NA,NA,NA,sub4
d3-animate-choice,107,518102,0.0-61.0-1.15,FALSE,TRUE,TRUE,TRUE,"""event"",""trial"",""time""
""fullscreenenter"",""5"",""18143""
","
","
","""event"",""trial"",""time""
""fullscreenenter"",""5"",""18143""
","
",2681.7900000006193,NA,48,NA,NA,3000,1,NA,NA,images/tutyellowplanet.jpg,images/tutalien4,images/tutalien3,images/tutrocket2,images/tutalien4,NA,2,practice,true,2,common,0,2020-06-11T16:37:54Z,sub4
two-step-fixation,108,519104,0.0-61.0-2.15,FALSE,TRUE,TRUE,TRUE,"""event"",""trial"",""time""
""fullscreenenter"",""5"",""18143""
","
","
","""event"",""trial"",""time""
""fullscreenenter"",""5"",""18143""
","
",NA,images/earth.jpg,NA,NA,NA,NA,NA,NA,NA,NA,NA,NA,NA,NA,NA,fixation,NA,NA,NA,NA,NA,NA,sub4
d3-animate-choice,109,522419,0.0-61.0-0.16,FALSE,TRUE,TRUE,TRUE,"""event"",""trial"",""time""
""fullscreenenter"",""5"",""18143""
","
","
","""event"",""trial"",""time""
""fullscreenenter"",""5"",""18143""
","
",1311.3300000004238,NA,49,NA,NA,3000,1,NA,NA,images/earth.jpg,images/tutrocket2,images/tutrocket1,null,images/tutrocket1,NA,1,practice,null,1,NA,NA,NA,sub4
d3-animate-choice,110,526162,0.0-61.0-1.16,FALSE,TRUE,TRUE,TRUE,"""event"",""trial"",""time""
""fullscreenenter"",""5"",""18143""
","
","
","""event"",""trial"",""time""
""fullscreenenter"",""5"",""18143""
","
",1741.3950000000186,NA,49,NA,NA,3000,1,NA,NA,images/tutgreenplanet.jpg,images/tutalien2,images/tutalien1,images/tutrocket1,images/tutalien1,images/nothing.png,2,practice,true,1,common,0,2020-06-11T16:38:02Z,sub4
two-step-fixation,111,527164,0.0-61.0-2.16,FALSE,TRUE,TRUE,TRUE,"""event"",""trial"",""time""
""fullscreenenter"",""5"",""18143""
","
","
","""event"",""trial"",""time""
""fullscreenenter"",""5"",""18143""
","
",NA,images/earth.jpg,NA,NA,NA,NA,NA,NA,NA,NA,NA,NA,NA,NA,NA,fixation,NA,NA,NA,NA,NA,NA,sub4
d3-animate-choice,112,530359,0.0-61.0-0.17,FALSE,TRUE,TRUE,TRUE,"""event"",""trial"",""time""
""fullscreenenter"",""5"",""18143""
","
","
","""event"",""trial"",""time""
""fullscreenenter"",""5"",""18143""
","
",1191.8999999997905,NA,49,NA,NA,3000,1,NA,NA,images/earth.jpg,images/tutrocket2,images/tutrocket1,null,images/tutrocket1,NA,1,practice,null,1,NA,NA,NA,sub4
d3-animate-choice,113,533253,0.0-61.0-1.17,FALSE,TRUE,TRUE,TRUE,"""event"",""trial"",""time""
""fullscreenenter"",""5"",""18143""
","
","
","""event"",""trial"",""time""
""fullscreenenter"",""5"",""18143""
","
",891.7850000006147,NA,48,NA,NA,3000,1,NA,NA,images/tutyellowplanet.jpg,images/tutalien4,images/tutalien3,images/tutrocket1,images/tutalien4,images/nothing.png,2,practice,false,2,rare,0,2020-06-11T16:38:09Z,sub4
two-step-fixation,114,534256,0.0-61.0-2.17,FALSE,TRUE,TRUE,TRUE,"""event"",""trial"",""time""
""fullscreenenter"",""5"",""18143""
","
","
","""event"",""trial"",""time""
""fullscreenenter"",""5"",""18143""
","
",NA,images/earth.jpg,NA,NA,NA,NA,NA,NA,NA,NA,NA,NA,NA,NA,NA,fixation,NA,NA,NA,NA,NA,NA,sub4
d3-animate-choice,115,537170,0.0-61.0-0.18,FALSE,TRUE,TRUE,TRUE,"""event"",""trial"",""time""
""fullscreenenter"",""5"",""18143""
","
","
","""event"",""trial"",""time""
""fullscreenenter"",""5"",""18143""
","
",911.5400000000373,NA,48,NA,NA,3000,1,NA,NA,images/earth.jpg,images/tutrocket2,images/tutrocket1,null,images/tutrocket2,NA,1,practice,null,2,NA,NA,NA,sub4
d3-animate-choice,116,540137,0.0-61.0-1.18,FALSE,TRUE,TRUE,TRUE,"""event"",""trial"",""time""
""fullscreenenter"",""5"",""18143""
","
","
","""event"",""trial"",""time""
""fullscreenenter"",""5"",""18143""
","
",965.5750000001863,NA,48,NA,NA,3000,1,NA,NA,images/tutyellowplanet.jpg,images/tutalien4,images/tutalien3,images/tutrocket2,images/tutalien4,images/nothing.png,2,practice,true,2,common,0,2020-06-11T16:38:16Z,sub4
two-step-fixation,117,541139,0.0-61.0-2.18,FALSE,TRUE,TRUE,TRUE,"""event"",""trial"",""time""
""fullscreenenter"",""5"",""18143""
","
","
","""event"",""trial"",""time""
""fullscreenenter"",""5"",""18143""
","
",NA,images/earth.jpg,NA,NA,NA,NA,NA,NA,NA,NA,NA,NA,NA,NA,NA,fixation,NA,NA,NA,NA,NA,NA,sub4
d3-animate-choice,118,544372,0.0-61.0-0.19,FALSE,TRUE,TRUE,TRUE,"""event"",""trial"",""time""
""fullscreenenter"",""5"",""18143""
","
","
","""event"",""trial"",""time""
""fullscreenenter"",""5"",""18143""
","
",1231.2599999995437,NA,49,NA,NA,3000,1,NA,NA,images/earth.jpg,images/tutrocket2,images/tutrocket1,null,images/tutrocket1,NA,1,practice,null,1,NA,NA,NA,sub4
d3-animate-choice,119,547578,0.0-61.0-1.19,FALSE,TRUE,TRUE,TRUE,"""event"",""trial"",""time""
""fullscreenenter"",""5"",""18143""
","
","
","""event"",""trial"",""time""
""fullscreenenter"",""5"",""18143""
","
",1203.1499999994412,NA,49,NA,NA,3000,1,NA,NA,images/tutgreenplanet.jpg,images/tutalien2,images/tutalien1,images/tutrocket1,images/tutalien1,images/nothing.png,2,practice,true,1,common,0,2020-06-11T16:38:24Z,sub4
two-step-fixation,120,548580,0.0-61.0-2.19,FALSE,TRUE,TRUE,TRUE,"""event"",""trial"",""time""
""fullscreenenter"",""5"",""18143""
","
","
","""event"",""trial"",""time""
""fullscreenenter"",""5"",""18143""
","
",NA,images/earth.jpg,NA,NA,NA,NA,NA,NA,NA,NA,NA,NA,NA,NA,NA,fixation,NA,NA,NA,NA,NA,NA,sub4
d3-instructions,121,557217,0.0-62.0,FALSE,TRUE,TRUE,TRUE,"""event"",""trial"",""time""
""fullscreenenter"",""5"",""18143""
","
","
","""event"",""trial"",""time""
""fullscreenenter"",""5"",""18143""
","
",NA,NA,NA,NA,NA,NA,NA,NA,NA,NA,NA,NA,NA,NA,NA,NA,NA,NA,NA,NA,NA,NA,sub4
audio-keyboard-response,122,562539,0.0-63.0,FALSE,TRUE,TRUE,TRUE,"""event"",""trial"",""time""
""fullscreenenter"",""5"",""18143""
","
","
","""event"",""trial"",""time""
""fullscreenenter"",""5"",""18143""
","
",5320,audio/instructions/treasure_feedback.wav,32,NA,NA,NA,NA,NA,NA,NA,NA,NA,NA,NA,NA,NA,NA,NA,NA,NA,NA,NA,sub4
d3-instructions,123,583822,0.0-64.0,FALSE,TRUE,TRUE,TRUE,"""event"",""trial"",""time""
""fullscreenenter"",""5"",""18143""
","
","
","""event"",""trial"",""time""
""fullscreenenter"",""5"",""18143""
","
",NA,NA,NA,NA,NA,NA,NA,NA,NA,NA,NA,NA,NA,NA,NA,NA,NA,NA,NA,NA,NA,NA,sub4
d3-instructions,124,598682,0.0-65.0,FALSE,TRUE,TRUE,TRUE,"""event"",""trial"",""time""
""fullscreenenter"",""5"",""18143""
","
","
","""event"",""trial"",""time""
""fullscreenenter"",""5"",""18143""
","
",NA,NA,NA,NA,NA,NA,NA,NA,NA,NA,NA,NA,NA,NA,NA,NA,NA,NA,NA,NA,NA,NA,sub4
d3-instructions,125,624849,0.0-66.0,FALSE,TRUE,TRUE,TRUE,"""event"",""trial"",""time""
""fullscreenenter"",""5"",""18143""
","
","
","""event"",""trial"",""time""
""fullscreenenter"",""5"",""18143""
","
",NA,NA,NA,NA,NA,NA,NA,NA,NA,NA,NA,NA,NA,NA,NA,NA,NA,NA,NA,NA,NA,NA,sub4
d3-instructions,126,642116,0.0-67.0,FALSE,TRUE,TRUE,TRUE,"""event"",""trial"",""time""
""fullscreenenter"",""5"",""18143""
","
","
","""event"",""trial"",""time""
""fullscreenenter"",""5"",""18143""
","
",NA,NA,NA,NA,NA,NA,NA,NA,NA,NA,NA,NA,NA,NA,NA,NA,NA,NA,NA,NA,NA,NA,sub4
d3-instructions,127,651202,0.0-68.0,FALSE,TRUE,TRUE,TRUE,"""event"",""trial"",""time""
""fullscreenenter"",""5"",""18143""
","
","
","""event"",""trial"",""time""
""fullscreenenter"",""5"",""18143""
","
",NA,NA,NA,NA,NA,NA,NA,NA,NA,NA,NA,NA,NA,NA,NA,NA,NA,NA,NA,NA,NA,NA,sub4
instructions-quiz,128,656690,0.0-69.0,FALSE,TRUE,TRUE,TRUE,"""event"",""trial"",""time""
""fullscreenenter"",""5"",""18143""
","
","
","""event"",""trial"",""time""
""fullscreenenter"",""5"",""18143""
","
",5486.0200000002515,audio/quiz/Q1_Prompt.wav,NA,1,NA,NA,NA,NA,NA,NA,NA,NA,NA,NA,NA,NA,NA,NA,NA,NA,NA,NA,sub4
audio-keyboard-response,129,665854,0.0-70.0,FALSE,TRUE,TRUE,TRUE,"""event"",""trial"",""time""
""fullscreenenter"",""5"",""18143""
","
","
","""event"",""trial"",""time""
""fullscreenenter"",""5"",""18143""
","
",null,audio/quiz/Q1_Correct.wav,null,NA,NA,NA,NA,NA,NA,NA,NA,NA,NA,NA,NA,NA,NA,NA,NA,NA,NA,NA,sub4
instructions-quiz,130,674985,0.0-71.0,FALSE,TRUE,TRUE,TRUE,"""event"",""trial"",""time""
""fullscreenenter"",""5"",""18143""
","
","
","""event"",""trial"",""time""
""fullscreenenter"",""5"",""18143""
","
",9130.065000000293,audio/quiz/Q2_Prompt.wav,NA,0,NA,NA,NA,NA,NA,NA,NA,NA,NA,NA,NA,NA,NA,NA,NA,NA,NA,NA,sub4
audio-keyboard-response,131,687854,0.0-72.0,FALSE,TRUE,TRUE,TRUE,"""event"",""trial"",""time""
""fullscreenenter"",""5"",""18143""
","
","
","""event"",""trial"",""time""
""fullscreenenter"",""5"",""18143""
","
",null,audio/quiz/Q2_Correct.wav,null,NA,NA,NA,NA,NA,NA,NA,NA,NA,NA,NA,NA,NA,NA,NA,NA,NA,NA,NA,sub4
instructions-quiz,132,692787,0.0-73.0,FALSE,TRUE,TRUE,TRUE,"""event"",""trial"",""time""
""fullscreenenter"",""5"",""18143""
","
","
","""event"",""trial"",""time""
""fullscreenenter"",""5"",""18143""
","
",4932.845000000321,audio/quiz/Q3_Prompt.wav,NA,1,NA,NA,NA,NA,NA,NA,NA,NA,NA,NA,NA,NA,NA,NA,NA,NA,NA,NA,sub4
audio-keyboard-response,133,698584,0.0-74.0,FALSE,TRUE,TRUE,TRUE,"""event"",""trial"",""time""
""fullscreenenter"",""5"",""18143""
","
","
","""event"",""trial"",""time""
""fullscreenenter"",""5"",""18143""
","
",null,audio/quiz/Q3_Correct.wav,null,NA,NA,NA,NA,NA,NA,NA,NA,NA,NA,NA,NA,NA,NA,NA,NA,NA,NA,NA,sub4
d3-instructions,134,714649,0.0-75.0,FALSE,TRUE,TRUE,TRUE,"""event"",""trial"",""time""
""fullscreenenter"",""5"",""18143""
","
","
","""event"",""trial"",""time""
""fullscreenenter"",""5"",""18143""
","
",NA,NA,NA,NA,NA,NA,NA,NA,NA,NA,NA,NA,NA,NA,NA,NA,NA,NA,NA,NA,NA,NA,sub4
d3-animate-choice,135,718177,0.0-76.0-0.0,FALSE,TRUE,TRUE,TRUE,"""event"",""trial"",""time""
""fullscreenenter"",""5"",""18143""
","
","
","""event"",""trial"",""time""
""fullscreenenter"",""5"",""18143""
","
",1524.8650000002235,NA,49,NA,NA,3000,1,NA,NA,images/earth.jpg,images/rocket1,images/rocket2,null,images/rocket2,NA,1,real,null,1,NA,NA,NA,sub4
d3-animate-choice,136,721121,0.0-76.0-1.0,FALSE,TRUE,TRUE,TRUE,"""event"",""trial"",""time""
""fullscreenenter"",""5"",""18143""
","
","
","""event"",""trial"",""time""
""fullscreenenter"",""5"",""18143""
","
",942.2299999996321,NA,48,NA,NA,3000,1,NA,NA,images/purpleplanet.jpg,images/alien4,images/alien3,images/rocket2,images/alien4,images/t.png,2,real,true,2,common,1,2020-06-11T16:41:17Z,sub4
two-step-fixation,137,722123,0.0-76.0-2.0,FALSE,TRUE,TRUE,TRUE,"""event"",""trial"",""time""
""fullscreenenter"",""5"",""18143""
","
","
","""event"",""trial"",""time""
""fullscreenenter"",""5"",""18143""
","
",NA,images/earth.jpg,NA,NA,NA,NA,NA,NA,NA,NA,NA,NA,NA,NA,NA,fixation,NA,NA,NA,NA,NA,NA,sub4
d3-animate-choice,138,724526,0.0-76.0-0.1,FALSE,TRUE,TRUE,TRUE,"""event"",""trial"",""time""
""fullscreenenter"",""5"",""18143""
","
","
","""event"",""trial"",""time""
""fullscreenenter"",""5"",""18143""
","
",400.1499999994412,NA,49,NA,NA,3000,1,NA,NA,images/earth.jpg,images/rocket1,images/rocket2,null,images/rocket2,NA,1,real,null,1,NA,NA,NA,sub4
d3-animate-choice,139,727207,0.0-76.0-1.1,FALSE,TRUE,TRUE,TRUE,"""event"",""trial"",""time""
""fullscreenenter"",""5"",""18143""
","
","
","""event"",""trial"",""time""
""fullscreenenter"",""5"",""18143""
","
",678.8900000001304,NA,48,NA,NA,3000,1,NA,NA,images/purpleplanet.jpg,images/alien4,images/alien3,images/rocket2,images/alien4,images/t.png,2,real,true,2,common,1,2020-06-11T16:41:23Z,sub4
two-step-fixation,140,728210,0.0-76.0-2.1,FALSE,TRUE,TRUE,TRUE,"""event"",""trial"",""time""
""fullscreenenter"",""5"",""18143""
","
","
","""event"",""trial"",""time""
""fullscreenenter"",""5"",""18143""
","
",NA,images/earth.jpg,NA,NA,NA,NA,NA,NA,NA,NA,NA,NA,NA,NA,NA,fixation,NA,NA,NA,NA,NA,NA,sub4
d3-animate-choice,141,732212,0.0-76.0-0.2,FALSE,TRUE,TRUE,TRUE,"""event"",""trial"",""time""
""fullscreenenter"",""5"",""18143""
","
","
","""event"",""trial"",""time""
""fullscreenenter"",""5"",""18143""
","
",2534.270000000135,NA,49,NA,NA,3000,1,NA,NA,images/earth.jpg,images/rocket1,images/rocket2,null,images/rocket2,NA,1,real,null,1,NA,NA,NA,sub4
d3-animate-choice,142,734645,0.0-76.0-1.2,FALSE,TRUE,TRUE,TRUE,"""event"",""trial"",""time""
""fullscreenenter"",""5"",""18143""
","
","
","""event"",""trial"",""time""
""fullscreenenter"",""5"",""18143""
","
",429.33499999984633,NA,48,NA,NA,3000,1,NA,NA,images/purpleplanet.jpg,images/alien4,images/alien3,images/rocket2,images/alien4,images/t.png,2,real,true,2,common,1,2020-06-11T16:41:31Z,sub4
two-step-fixation,143,735647,0.0-76.0-2.2,FALSE,TRUE,TRUE,TRUE,"""event"",""trial"",""time""
""fullscreenenter"",""5"",""18143""
","
","
","""event"",""trial"",""time""
""fullscreenenter"",""5"",""18143""
","
",NA,images/earth.jpg,NA,NA,NA,NA,NA,NA,NA,NA,NA,NA,NA,NA,NA,fixation,NA,NA,NA,NA,NA,NA,sub4
d3-animate-choice,144,737981,0.0-76.0-0.3,FALSE,TRUE,TRUE,TRUE,"""event"",""trial"",""time""
""fullscreenenter"",""5"",""18143""
","
","
","""event"",""trial"",""time""
""fullscreenenter"",""5"",""18143""
","
",330.8100000002887,NA,49,NA,NA,3000,1,NA,NA,images/earth.jpg,images/rocket1,images/rocket2,null,images/rocket2,NA,1,real,null,1,NA,NA,NA,sub4
d3-animate-choice,145,740532,0.0-76.0-1.3,FALSE,TRUE,TRUE,TRUE,"""event"",""trial"",""time""
""fullscreenenter"",""5"",""18143""
","
","
","""event"",""trial"",""time""
""fullscreenenter"",""5"",""18143""
","
",549.0499999995809,NA,48,NA,NA,3000,1,NA,NA,images/purpleplanet.jpg,images/alien4,images/alien3,images/rocket2,images/alien4,images/nothing.png,2,real,true,2,common,0,2020-06-11T16:41:37Z,sub4
two-step-fixation,146,741534,0.0-76.0-2.3,FALSE,TRUE,TRUE,TRUE,"""event"",""trial"",""time""
""fullscreenenter"",""5"",""18143""
","
","
","""event"",""trial"",""time""
""fullscreenenter"",""5"",""18143""
","
",NA,images/earth.jpg,NA,NA,NA,NA,NA,NA,NA,NA,NA,NA,NA,NA,NA,fixation,NA,NA,NA,NA,NA,NA,sub4
d3-animate-choice,147,744430,0.0-76.0-0.4,FALSE,TRUE,TRUE,TRUE,"""event"",""trial"",""time""
""fullscreenenter"",""5"",""18143""
","
","
","""event"",""trial"",""time""
""fullscreenenter"",""5"",""18143""
","
",894.1799999993527,NA,48,NA,NA,3000,1,NA,NA,images/earth.jpg,images/rocket1,images/rocket2,null,images/rocket1,NA,1,real,null,2,NA,NA,NA,sub4
d3-animate-choice,148,747778,0.0-76.0-1.4,FALSE,TRUE,TRUE,TRUE,"""event"",""trial"",""time""
""fullscreenenter"",""5"",""18143""
","
","
","""event"",""trial"",""time""
""fullscreenenter"",""5"",""18143""
","
",1345.2349999997532,NA,48,NA,NA,3000,1,NA,NA,images/redplanet1.jpg,images/alien2,images/alien1,images/rocket1,images/alien2,images/nothing.png,2,real,true,2,common,0,2020-06-11T16:41:44Z,sub4
two-step-fixation,149,748780,0.0-76.0-2.4,FALSE,TRUE,TRUE,TRUE,"""event"",""trial"",""time""
""fullscreenenter"",""5"",""18143""
","
","
","""event"",""trial"",""time""
""fullscreenenter"",""5"",""18143""
","
",NA,images/earth.jpg,NA,NA,NA,NA,NA,NA,NA,NA,NA,NA,NA,NA,NA,fixation,NA,NA,NA,NA,NA,NA,sub4
d3-animate-choice,150,751145,0.0-76.0-0.5,FALSE,TRUE,TRUE,TRUE,"""event"",""trial"",""time""
""fullscreenenter"",""5"",""18143""
","
","
","""event"",""trial"",""time""
""fullscreenenter"",""5"",""18143""
","
",362.68000000016764,NA,48,NA,NA,3000,1,NA,NA,images/earth.jpg,images/rocket1,images/rocket2,null,images/rocket1,NA,1,real,null,2,NA,NA,NA,sub4
d3-animate-choice,151,753507,0.0-76.0-1.5,FALSE,TRUE,TRUE,TRUE,"""event"",""trial"",""time""
""fullscreenenter"",""5"",""18143""
","
","
","""event"",""trial"",""time""
""fullscreenenter"",""5"",""18143""
","
",360.2799999997951,NA,49,NA,NA,3000,1,NA,NA,images/redplanet1.jpg,images/alien2,images/alien1,images/rocket1,images/alien1,images/t.png,2,real,true,1,common,1,2020-06-11T16:41:50Z,sub4
two-step-fixation,152,754510,0.0-76.0-2.5,FALSE,TRUE,TRUE,TRUE,"""event"",""trial"",""time""
""fullscreenenter"",""5"",""18143""
","
","
","""event"",""trial"",""time""
""fullscreenenter"",""5"",""18143""
","
",NA,images/earth.jpg,NA,NA,NA,NA,NA,NA,NA,NA,NA,NA,NA,NA,NA,fixation,NA,NA,NA,NA,NA,NA,sub4
d3-animate-choice,153,757108,0.0-76.0-0.6,FALSE,TRUE,TRUE,TRUE,"""event"",""trial"",""time""
""fullscreenenter"",""5"",""18143""
","
","
","""event"",""trial"",""time""
""fullscreenenter"",""5"",""18143""
","
",596.4199999999255,NA,48,NA,NA,3000,1,NA,NA,images/earth.jpg,images/rocket1,images/rocket2,null,images/rocket1,NA,1,real,null,2,NA,NA,NA,sub4
d3-animate-choice,154,759557,0.0-76.0-1.6,FALSE,TRUE,TRUE,TRUE,"""event"",""trial"",""time""
""fullscreenenter"",""5"",""18143""
","
","
","""event"",""trial"",""time""
""fullscreenenter"",""5"",""18143""
","
",446.69499999971595,NA,49,NA,NA,3000,1,NA,NA,images/redplanet1.jpg,images/alien2,images/alien1,images/rocket1,images/alien1,images/nothing.png,2,real,true,1,common,0,2020-06-11T16:41:56Z,sub4
two-step-fixation,155,760561,0.0-76.0-2.6,FALSE,TRUE,TRUE,TRUE,"""event"",""trial"",""time""
""fullscreenenter"",""5"",""18143""
","
","
","""event"",""trial"",""time""
""fullscreenenter"",""5"",""18143""
","
",NA,images/earth.jpg,NA,NA,NA,NA,NA,NA,NA,NA,NA,NA,NA,NA,NA,fixation,NA,NA,NA,NA,NA,NA,sub4
d3-animate-choice,156,763385,0.0-76.0-0.7,FALSE,TRUE,TRUE,TRUE,"""event"",""trial"",""time""
""fullscreenenter"",""5"",""18143""
","
","
","""event"",""trial"",""time""
""fullscreenenter"",""5"",""18143""
","
",821.8049999995856,NA,49,NA,NA,3000,1,NA,NA,images/earth.jpg,images/rocket1,images/rocket2,null,images/rocket2,NA,1,real,null,1,NA,NA,NA,sub4
d3-animate-choice,157,766533,0.0-76.0-1.7,FALSE,TRUE,TRUE,TRUE,"""event"",""trial"",""time""
""fullscreenenter"",""5"",""18143""
","
","
","""event"",""trial"",""time""
""fullscreenenter"",""5"",""18143""
","
",1146.1099999997532,NA,49,NA,NA,3000,1,NA,NA,images/redplanet1.jpg,images/alien2,images/alien1,images/rocket2,images/alien1,images/t.png,2,real,false,1,rare,1,2020-06-11T16:42:03Z,sub4
two-step-fixation,158,767535,0.0-76.0-2.7,FALSE,TRUE,TRUE,TRUE,"""event"",""trial"",""time""
""fullscreenenter"",""5"",""18143""
","
","
","""event"",""trial"",""time""
""fullscreenenter"",""5"",""18143""
","
",NA,images/earth.jpg,NA,NA,NA,NA,NA,NA,NA,NA,NA,NA,NA,NA,NA,fixation,NA,NA,NA,NA,NA,NA,sub4
d3-animate-choice,159,769922,0.0-76.0-0.8,FALSE,TRUE,TRUE,TRUE,"""event"",""trial"",""time""
""fullscreenenter"",""5"",""18143""
","
","
","""event"",""trial"",""time""
""fullscreenenter"",""5"",""18143""
","
",385.19000000006054,NA,49,NA,NA,3000,1,NA,NA,images/earth.jpg,images/rocket1,images/rocket2,null,images/rocket2,NA,1,real,null,1,NA,NA,NA,sub4
d3-animate-choice,160,772939,0.0-76.0-1.8,FALSE,TRUE,TRUE,TRUE,"""event"",""trial"",""time""
""fullscreenenter"",""5"",""18143""
","
","
","""event"",""trial"",""time""
""fullscreenenter"",""5"",""18143""
","
",1014.6699999995762,NA,49,NA,NA,3000,1,NA,NA,images/redplanet1.jpg,images/alien2,images/alien1,images/rocket2,images/alien1,images/t.png,2,real,false,1,rare,1,2020-06-11T16:42:09Z,sub4
two-step-fixation,161,773941,0.0-76.0-2.8,FALSE,TRUE,TRUE,TRUE,"""event"",""trial"",""time""
""fullscreenenter"",""5"",""18143""
","
","
","""event"",""trial"",""time""
""fullscreenenter"",""5"",""18143""
","
",NA,images/earth.jpg,NA,NA,NA,NA,NA,NA,NA,NA,NA,NA,NA,NA,NA,fixation,NA,NA,NA,NA,NA,NA,sub4
d3-animate-choice,162,776589,0.0-76.0-0.9,FALSE,TRUE,TRUE,TRUE,"""event"",""trial"",""time""
""fullscreenenter"",""5"",""18143""
","
","
","""event"",""trial"",""time""
""fullscreenenter"",""5"",""18143""
","
",645.5299999997951,NA,49,NA,NA,3000,1,NA,NA,images/earth.jpg,images/rocket1,images/rocket2,null,images/rocket2,NA,1,real,null,1,NA,NA,NA,sub4
d3-animate-choice,163,779227,0.0-76.0-1.9,FALSE,TRUE,TRUE,TRUE,"""event"",""trial"",""time""
""fullscreenenter"",""5"",""18143""
","
","
","""event"",""trial"",""time""
""fullscreenenter"",""5"",""18143""
","
",636.5349999996834,NA,49,NA,NA,3000,1,NA,NA,images/redplanet1.jpg,images/alien2,images/alien1,images/rocket2,images/alien1,images/nothing.png,2,real,false,1,rare,0,2020-06-11T16:42:15Z,sub4
two-step-fixation,164,780228,0.0-76.0-2.9,FALSE,TRUE,TRUE,TRUE,"""event"",""trial"",""time""
""fullscreenenter"",""5"",""18143""
","
","
","""event"",""trial"",""time""
""fullscreenenter"",""5"",""18143""
","
",NA,images/earth.jpg,NA,NA,NA,NA,NA,NA,NA,NA,NA,NA,NA,NA,NA,fixation,NA,NA,NA,NA,NA,NA,sub4
d3-animate-choice,165,782817,0.0-76.0-0.10,FALSE,TRUE,TRUE,TRUE,"""event"",""trial"",""time""
""fullscreenenter"",""5"",""18143""
","
","
","""event"",""trial"",""time""
""fullscreenenter"",""5"",""18143""
","
",585.8299999999581,NA,48,NA,NA,3000,1,NA,NA,images/earth.jpg,images/rocket1,images/rocket2,null,images/rocket1,NA,1,real,null,2,NA,NA,NA,sub4
d3-animate-choice,166,786366,0.0-76.0-1.10,FALSE,TRUE,TRUE,TRUE,"""event"",""trial"",""time""
""fullscreenenter"",""5"",""18143""
","
","
","""event"",""trial"",""time""
""fullscreenenter"",""5"",""18143""
","
",1546.5450000001583,NA,48,NA,NA,3000,1,NA,NA,images/purpleplanet.jpg,images/alien4,images/alien3,images/rocket1,images/alien4,images/t.png,2,real,false,2,rare,1,2020-06-11T16:42:22Z,sub4
two-step-fixation,167,787369,0.0-76.0-2.10,FALSE,TRUE,TRUE,TRUE,"""event"",""trial"",""time""
""fullscreenenter"",""5"",""18143""
","
","
","""event"",""trial"",""time""
""fullscreenenter"",""5"",""18143""
","
",NA,images/earth.jpg,NA,NA,NA,NA,NA,NA,NA,NA,NA,NA,NA,NA,NA,fixation,NA,NA,NA,NA,NA,NA,sub4
d3-animate-choice,168,789874,0.0-76.0-0.11,FALSE,TRUE,TRUE,TRUE,"""event"",""trial"",""time""
""fullscreenenter"",""5"",""18143""
","
","
","""event"",""trial"",""time""
""fullscreenenter"",""5"",""18143""
","
",501.33499999996275,NA,48,NA,NA,3000,1,NA,NA,images/earth.jpg,images/rocket1,images/rocket2,null,images/rocket1,NA,1,real,null,2,NA,NA,NA,sub4
d3-animate-choice,169,792452,0.0-76.0-1.11,FALSE,TRUE,TRUE,TRUE,"""event"",""trial"",""time""
""fullscreenenter"",""5"",""18143""
","
","
","""event"",""trial"",""time""
""fullscreenenter"",""5"",""18143""
","
",576.1549999996787,NA,48,NA,NA,3000,1,NA,NA,images/purpleplanet.jpg,images/alien4,images/alien3,images/rocket1,images/alien4,images/t.png,2,real,false,2,rare,1,2020-06-11T16:42:28Z,sub4
two-step-fixation,170,793454,0.0-76.0-2.11,FALSE,TRUE,TRUE,TRUE,"""event"",""trial"",""time""
""fullscreenenter"",""5"",""18143""
","
","
","""event"",""trial"",""time""
""fullscreenenter"",""5"",""18143""
","
",NA,images/earth.jpg,NA,NA,NA,NA,NA,NA,NA,NA,NA,NA,NA,NA,NA,fixation,NA,NA,NA,NA,NA,NA,sub4
d3-animate-choice,171,795831,0.0-76.0-0.12,FALSE,TRUE,TRUE,TRUE,"""event"",""trial"",""time""
""fullscreenenter"",""5"",""18143""
","
","
","""event"",""trial"",""time""
""fullscreenenter"",""5"",""18143""
","
",373.5250000000233,NA,48,NA,NA,3000,1,NA,NA,images/earth.jpg,images/rocket1,images/rocket2,null,images/rocket1,NA,1,real,null,2,NA,NA,NA,sub4
d3-animate-choice,172,798333,0.0-76.0-1.12,FALSE,TRUE,TRUE,TRUE,"""event"",""trial"",""time""
""fullscreenenter"",""5"",""18143""
","
","
","""event"",""trial"",""time""
""fullscreenenter"",""5"",""18143""
","
",500.24500000011176,NA,48,NA,NA,3000,1,NA,NA,images/redplanet1.jpg,images/alien2,images/alien1,images/rocket1,images/alien2,images/t.png,2,real,true,2,common,1,2020-06-11T16:42:34Z,sub4
two-step-fixation,173,799335,0.0-76.0-2.12,FALSE,TRUE,TRUE,TRUE,"""event"",""trial"",""time""
""fullscreenenter"",""5"",""18143""
","
","
","""event"",""trial"",""time""
""fullscreenenter"",""5"",""18143""
","
",NA,images/earth.jpg,NA,NA,NA,NA,NA,NA,NA,NA,NA,NA,NA,NA,NA,fixation,NA,NA,NA,NA,NA,NA,sub4
d3-animate-choice,174,801814,0.0-76.0-0.13,FALSE,TRUE,TRUE,TRUE,"""event"",""trial"",""time""
""fullscreenenter"",""5"",""18143""
","
","
","""event"",""trial"",""time""
""fullscreenenter"",""5"",""18143""
","
",477.3800000002375,NA,48,NA,NA,3000,1,NA,NA,images/earth.jpg,images/rocket1,images/rocket2,null,images/rocket1,NA,1,real,null,2,NA,NA,NA,sub4
d3-animate-choice,175,805698,0.0-76.0-1.13,FALSE,TRUE,TRUE,TRUE,"""event"",""trial"",""time""
""fullscreenenter"",""5"",""18143""
","
","
","""event"",""trial"",""time""
""fullscreenenter"",""5"",""18143""
","
",1882.4649999996182,NA,49,NA,NA,3000,1,NA,NA,images/redplanet1.jpg,images/alien2,images/alien1,images/rocket1,images/alien1,images/t.png,2,real,true,1,common,1,2020-06-11T16:42:42Z,sub4
two-step-fixation,176,806700,0.0-76.0-2.13,FALSE,TRUE,TRUE,TRUE,"""event"",""trial"",""time""
""fullscreenenter"",""5"",""18143""
","
","
","""event"",""trial"",""time""
""fullscreenenter"",""5"",""18143""
","
",NA,images/earth.jpg,NA,NA,NA,NA,NA,NA,NA,NA,NA,NA,NA,NA,NA,fixation,NA,NA,NA,NA,NA,NA,sub4
d3-animate-choice,177,810027,0.0-76.0-0.14,FALSE,TRUE,TRUE,TRUE,"""event"",""trial"",""time""
""fullscreenenter"",""5"",""18143""
","
","
","""event"",""trial"",""time""
""fullscreenenter"",""5"",""18143""
","
",1324.7500000006985,NA,48,NA,NA,3000,1,NA,NA,images/earth.jpg,images/rocket1,images/rocket2,null,images/rocket1,NA,1,real,null,2,NA,NA,NA,sub4
d3-animate-choice,178,812580,0.0-76.0-1.14,FALSE,TRUE,TRUE,TRUE,"""event"",""trial"",""time""
""fullscreenenter"",""5"",""18143""
","
","
","""event"",""trial"",""time""
""fullscreenenter"",""5"",""18143""
","
",551.4400000002934,NA,49,NA,NA,3000,1,NA,NA,images/purpleplanet.jpg,images/alien4,images/alien3,images/rocket1,images/alien3,images/t.png,2,real,false,1,rare,1,2020-06-11T16:42:49Z,sub4
two-step-fixation,179,813582,0.0-76.0-2.14,FALSE,TRUE,TRUE,TRUE,"""event"",""trial"",""time""
""fullscreenenter"",""5"",""18143""
","
","
","""event"",""trial"",""time""
""fullscreenenter"",""5"",""18143""
","
",NA,images/earth.jpg,NA,NA,NA,NA,NA,NA,NA,NA,NA,NA,NA,NA,NA,fixation,NA,NA,NA,NA,NA,NA,sub4
d3-animate-choice,180,816603,0.0-76.0-0.15,FALSE,TRUE,TRUE,TRUE,"""event"",""trial"",""time""
""fullscreenenter"",""5"",""18143""
","
","
","""event"",""trial"",""time""
""fullscreenenter"",""5"",""18143""
","
",1017.2050000000745,NA,48,NA,NA,3000,1,NA,NA,images/earth.jpg,images/rocket1,images/rocket2,null,images/rocket1,NA,1,real,null,2,NA,NA,NA,sub4
d3-animate-choice,181,819462,0.0-76.0-1.15,FALSE,TRUE,TRUE,TRUE,"""event"",""trial"",""time""
""fullscreenenter"",""5"",""18143""
","
","
","""event"",""trial"",""time""
""fullscreenenter"",""5"",""18143""
","
",857.0550000004005,NA,49,NA,NA,3000,1,NA,NA,images/redplanet1.jpg,images/alien2,images/alien1,images/rocket1,images/alien1,images/t.png,2,real,true,1,common,1,2020-06-11T16:42:55Z,sub4
two-step-fixation,182,820464,0.0-76.0-2.15,FALSE,TRUE,TRUE,TRUE,"""event"",""trial"",""time""
""fullscreenenter"",""5"",""18143""
","
","
","""event"",""trial"",""time""
""fullscreenenter"",""5"",""18143""
","
",NA,images/earth.jpg,NA,NA,NA,NA,NA,NA,NA,NA,NA,NA,NA,NA,NA,fixation,NA,NA,NA,NA,NA,NA,sub4
d3-animate-choice,183,823145,0.0-76.0-0.16,FALSE,TRUE,TRUE,TRUE,"""event"",""trial"",""time""
""fullscreenenter"",""5"",""18143""
","
","
","""event"",""trial"",""time""
""fullscreenenter"",""5"",""18143""
","
",677.0299999999115,NA,48,NA,NA,3000,1,NA,NA,images/earth.jpg,images/rocket1,images/rocket2,null,images/rocket1,NA,1,real,null,2,NA,NA,NA,sub4
d3-animate-choice,184,825942,0.0-76.0-1.16,FALSE,TRUE,TRUE,TRUE,"""event"",""trial"",""time""
""fullscreenenter"",""5"",""18143""
","
","
","""event"",""trial"",""time""
""fullscreenenter"",""5"",""18143""
","
",794.7600000007078,NA,49,NA,NA,3000,1,NA,NA,images/redplanet1.jpg,images/alien2,images/alien1,images/rocket1,images/alien1,images/t.png,2,real,true,1,common,1,2020-06-11T16:43:02Z,sub4
two-step-fixation,185,826944,0.0-76.0-2.16,FALSE,TRUE,TRUE,TRUE,"""event"",""trial"",""time""
""fullscreenenter"",""5"",""18143""
","
","
","""event"",""trial"",""time""
""fullscreenenter"",""5"",""18143""
","
",NA,images/earth.jpg,NA,NA,NA,NA,NA,NA,NA,NA,NA,NA,NA,NA,NA,fixation,NA,NA,NA,NA,NA,NA,sub4
d3-animate-choice,186,830503,0.0-76.0-0.17,FALSE,TRUE,TRUE,TRUE,"""event"",""trial"",""time""
""fullscreenenter"",""5"",""18143""
","
","
","""event"",""trial"",""time""
""fullscreenenter"",""5"",""18143""
","
",1556.2200000004377,NA,48,NA,NA,3000,1,NA,NA,images/earth.jpg,images/rocket1,images/rocket2,null,images/rocket1,NA,1,real,null,2,NA,NA,NA,sub4
d3-animate-choice,187,833176,0.0-76.0-1.17,FALSE,TRUE,TRUE,TRUE,"""event"",""trial"",""time""
""fullscreenenter"",""5"",""18143""
","
","
","""event"",""trial"",""time""
""fullscreenenter"",""5"",""18143""
","
",670.3049999995856,NA,49,NA,NA,3000,1,NA,NA,images/redplanet1.jpg,images/alien2,images/alien1,images/rocket1,images/alien1,images/t.png,2,real,true,1,common,1,2020-06-11T16:43:09Z,sub4
two-step-fixation,188,834179,0.0-76.0-2.17,FALSE,TRUE,TRUE,TRUE,"""event"",""trial"",""time""
""fullscreenenter"",""5"",""18143""
","
","
","""event"",""trial"",""time""
""fullscreenenter"",""5"",""18143""
","
",NA,images/earth.jpg,NA,NA,NA,NA,NA,NA,NA,NA,NA,NA,NA,NA,NA,fixation,NA,NA,NA,NA,NA,NA,sub4
d3-animate-choice,189,837958,0.0-76.0-0.18,FALSE,TRUE,TRUE,TRUE,"""event"",""trial"",""time""
""fullscreenenter"",""5"",""18143""
","
","
","""event"",""trial"",""time""
""fullscreenenter"",""5"",""18143""
","
",1776.2349999992875,NA,48,NA,NA,3000,1,NA,NA,images/earth.jpg,images/rocket1,images/rocket2,null,images/rocket1,NA,1,real,null,2,NA,NA,NA,sub4
d3-animate-choice,190,840933,0.0-76.0-1.18,FALSE,TRUE,TRUE,TRUE,"""event"",""trial"",""time""
""fullscreenenter"",""5"",""18143""
","
","
","""event"",""trial"",""time""
""fullscreenenter"",""5"",""18143""
","
",973.4749999997439,NA,49,NA,NA,3000,1,NA,NA,images/redplanet1.jpg,images/alien2,images/alien1,images/rocket1,images/alien1,images/t.png,2,real,true,1,common,1,2020-06-11T16:43:17Z,sub4
two-step-fixation,191,841936,0.0-76.0-2.18,FALSE,TRUE,TRUE,TRUE,"""event"",""trial"",""time""
""fullscreenenter"",""5"",""18143""
","
","
","""event"",""trial"",""time""
""fullscreenenter"",""5"",""18143""
","
",NA,images/earth.jpg,NA,NA,NA,NA,NA,NA,NA,NA,NA,NA,NA,NA,NA,fixation,NA,NA,NA,NA,NA,NA,sub4
d3-animate-choice,192,845071,0.0-76.0-0.19,FALSE,TRUE,TRUE,TRUE,"""event"",""trial"",""time""
""fullscreenenter"",""5"",""18143""
","
","
","""event"",""trial"",""time""
""fullscreenenter"",""5"",""18143""
","
",1131.8899999996647,NA,48,NA,NA,3000,1,NA,NA,images/earth.jpg,images/rocket1,images/rocket2,null,images/rocket1,NA,1,real,null,2,NA,NA,NA,sub4
d3-animate-choice,193,847761,0.0-76.0-1.19,FALSE,TRUE,TRUE,TRUE,"""event"",""trial"",""time""
""fullscreenenter"",""5"",""18143""
","
","
","""event"",""trial"",""time""
""fullscreenenter"",""5"",""18143""
","
",685.5450000002747,NA,49,NA,NA,3000,1,NA,NA,images/redplanet1.jpg,images/alien2,images/alien1,images/rocket1,images/alien1,images/nothing.png,2,real,true,1,common,0,2020-06-11T16:43:24Z,sub4
two-step-fixation,194,848764,0.0-76.0-2.19,FALSE,TRUE,TRUE,TRUE,"""event"",""trial"",""time""
""fullscreenenter"",""5"",""18143""
","
","
","""event"",""trial"",""time""
""fullscreenenter"",""5"",""18143""
","
",NA,images/earth.jpg,NA,NA,NA,NA,NA,NA,NA,NA,NA,NA,NA,NA,NA,fixation,NA,NA,NA,NA,NA,NA,sub4
d3-animate-choice,195,851147,0.0-76.0-0.20,FALSE,TRUE,TRUE,TRUE,"""event"",""trial"",""time""
""fullscreenenter"",""5"",""18143""
","
","
","""event"",""trial"",""time""
""fullscreenenter"",""5"",""18143""
","
",380.6400000002468,NA,49,NA,NA,3000,1,NA,NA,images/earth.jpg,images/rocket1,images/rocket2,null,images/rocket2,NA,1,real,null,1,NA,NA,NA,sub4
d3-animate-choice,196,854476,0.0-76.0-1.20,FALSE,TRUE,TRUE,TRUE,"""event"",""trial"",""time""
""fullscreenenter"",""5"",""18143""
","
","
","""event"",""trial"",""time""
""fullscreenenter"",""5"",""18143""
","
",1326.1299999994226,NA,48,NA,NA,3000,1,NA,NA,images/purpleplanet.jpg,images/alien4,images/alien3,images/rocket2,images/alien4,images/t.png,2,real,true,2,common,1,2020-06-11T16:43:30Z,sub4
two-step-fixation,197,855478,0.0-76.0-2.20,FALSE,TRUE,TRUE,TRUE,"""event"",""trial"",""time""
""fullscreenenter"",""5"",""18143""
","
","
","""event"",""trial"",""time""
""fullscreenenter"",""5"",""18143""
","
",NA,images/earth.jpg,NA,NA,NA,NA,NA,NA,NA,NA,NA,NA,NA,NA,NA,fixation,NA,NA,NA,NA,NA,NA,sub4
d3-animate-choice,198,857853,0.0-76.0-0.21,FALSE,TRUE,TRUE,TRUE,"""event"",""trial"",""time""
""fullscreenenter"",""5"",""18143""
","
","
","""event"",""trial"",""time""
""fullscreenenter"",""5"",""18143""
","
",371.3900000002468,NA,49,NA,NA,3000,1,NA,NA,images/earth.jpg,images/rocket1,images/rocket2,null,images/rocket2,NA,1,real,null,1,NA,NA,NA,sub4
d3-animate-choice,199,860448,0.0-76.0-1.21,FALSE,TRUE,TRUE,TRUE,"""event"",""trial"",""time""
""fullscreenenter"",""5"",""18143""
","
","
","""event"",""trial"",""time""
""fullscreenenter"",""5"",""18143""
","
",592.5999999998603,NA,48,NA,NA,3000,1,NA,NA,images/purpleplanet.jpg,images/alien4,images/alien3,images/rocket2,images/alien4,images/t.png,2,real,true,2,common,1,2020-06-11T16:43:36Z,sub4
two-step-fixation,200,861451,0.0-76.0-2.21,FALSE,TRUE,TRUE,TRUE,"""event"",""trial"",""time""
""fullscreenenter"",""5"",""18143""
","
","
","""event"",""trial"",""time""
""fullscreenenter"",""5"",""18143""
","
",NA,images/earth.jpg,NA,NA,NA,NA,NA,NA,NA,NA,NA,NA,NA,NA,NA,fixation,NA,NA,NA,NA,NA,NA,sub4
d3-animate-choice,201,863816,0.0-76.0-0.22,FALSE,TRUE,TRUE,TRUE,"""event"",""trial"",""time""
""fullscreenenter"",""5"",""18143""
","
","
","""event"",""trial"",""time""
""fullscreenenter"",""5"",""18143""
","
",361.50499999988824,NA,49,NA,NA,3000,1,NA,NA,images/earth.jpg,images/rocket1,images/rocket2,null,images/rocket2,NA,1,real,null,1,NA,NA,NA,sub4
d3-animate-choice,202,866600,0.0-76.0-1.22,FALSE,TRUE,TRUE,TRUE,"""event"",""trial"",""time""
""fullscreenenter"",""5"",""18143""
","
","
","""event"",""trial"",""time""
""fullscreenenter"",""5"",""18143""
","
",781.765000000596,NA,48,NA,NA,3000,1,NA,NA,images/purpleplanet.jpg,images/alien4,images/alien3,images/rocket2,images/alien4,images/nothing.png,2,real,true,2,common,0,2020-06-11T16:43:43Z,sub4
two-step-fixation,203,867603,0.0-76.0-2.22,FALSE,TRUE,TRUE,TRUE,"""event"",""trial"",""time""
""fullscreenenter"",""5"",""18143""
","
","
","""event"",""trial"",""time""
""fullscreenenter"",""5"",""18143""
","
",NA,images/earth.jpg,NA,NA,NA,NA,NA,NA,NA,NA,NA,NA,NA,NA,NA,fixation,NA,NA,NA,NA,NA,NA,sub4
d3-animate-choice,204,870601,0.0-76.0-0.23,FALSE,TRUE,TRUE,TRUE,"""event"",""trial"",""time""
""fullscreenenter"",""5"",""18143""
","
","
","""event"",""trial"",""time""
""fullscreenenter"",""5"",""18143""
","
",994.7749999992084,NA,48,NA,NA,3000,1,NA,NA,images/earth.jpg,images/rocket1,images/rocket2,null,images/rocket1,NA,1,real,null,2,NA,NA,NA,sub4
d3-animate-choice,205,873421,0.0-76.0-1.23,FALSE,TRUE,TRUE,TRUE,"""event"",""trial"",""time""
""fullscreenenter"",""5"",""18143""
","
","
","""event"",""trial"",""time""
""fullscreenenter"",""5"",""18143""
","
",816.7949999998091,NA,49,NA,NA,3000,1,NA,NA,images/redplanet1.jpg,images/alien2,images/alien1,images/rocket1,images/alien1,images/t.png,2,real,true,1,common,1,2020-06-11T16:43:49Z,sub4
two-step-fixation,206,874424,0.0-76.0-2.23,FALSE,TRUE,TRUE,TRUE,"""event"",""trial"",""time""
""fullscreenenter"",""5"",""18143""
","
","
","""event"",""trial"",""time""
""fullscreenenter"",""5"",""18143""
","
",NA,images/earth.jpg,NA,NA,NA,NA,NA,NA,NA,NA,NA,NA,NA,NA,NA,fixation,NA,NA,NA,NA,NA,NA,sub4
d3-animate-choice,207,878427,0.0-76.0-0.24,FALSE,TRUE,TRUE,TRUE,"""event"",""trial"",""time""
""fullscreenenter"",""5"",""18143""
","
","
","""event"",""trial"",""time""
""fullscreenenter"",""5"",""18143""
","
",2100.680000000517,NA,48,NA,NA,3000,1,NA,NA,images/earth.jpg,images/rocket1,images/rocket2,null,images/rocket1,NA,1,real,null,2,NA,NA,NA,sub4
d3-animate-choice,208,881015,0.0-76.0-1.24,FALSE,TRUE,TRUE,TRUE,"""event"",""trial"",""time""
""fullscreenenter"",""5"",""18143""
","
","
","""event"",""trial"",""time""
""fullscreenenter"",""5"",""18143""
","
",584.3400000003166,NA,49,NA,NA,3000,1,NA,NA,images/purpleplanet.jpg,images/alien4,images/alien3,images/rocket1,images/alien3,images/nothing.png,2,real,false,1,rare,0,2020-06-11T16:43:57Z,sub4
two-step-fixation,209,882017,0.0-76.0-2.24,FALSE,TRUE,TRUE,TRUE,"""event"",""trial"",""time""
""fullscreenenter"",""5"",""18143""
","
","
","""event"",""trial"",""time""
""fullscreenenter"",""5"",""18143""
","
",NA,images/earth.jpg,NA,NA,NA,NA,NA,NA,NA,NA,NA,NA,NA,NA,NA,fixation,NA,NA,NA,NA,NA,NA,sub4
d3-animate-choice,210,884741,0.0-76.0-0.25,FALSE,TRUE,TRUE,TRUE,"""event"",""trial"",""time""
""fullscreenenter"",""5"",""18143""
","
","
","""event"",""trial"",""time""
""fullscreenenter"",""5"",""18143""
","
",721.8299999994924,NA,48,NA,NA,3000,1,NA,NA,images/earth.jpg,images/rocket1,images/rocket2,null,images/rocket1,NA,1,real,null,2,NA,NA,NA,sub4
d3-animate-choice,211,887533,0.0-76.0-1.25,FALSE,TRUE,TRUE,TRUE,"""event"",""trial"",""time""
""fullscreenenter"",""5"",""18143""
","
","
","""event"",""trial"",""time""
""fullscreenenter"",""5"",""18143""
","
",789.2549999996554,NA,48,NA,NA,3000,1,NA,NA,images/redplanet1.jpg,images/alien2,images/alien1,images/rocket1,images/alien2,images/t.png,2,real,true,2,common,1,2020-06-11T16:44:04Z,sub4
two-step-fixation,212,888536,0.0-76.0-2.25,FALSE,TRUE,TRUE,TRUE,"""event"",""trial"",""time""
""fullscreenenter"",""5"",""18143""
","
","
","""event"",""trial"",""time""
""fullscreenenter"",""5"",""18143""
","
",NA,images/earth.jpg,NA,NA,NA,NA,NA,NA,NA,NA,NA,NA,NA,NA,NA,fixation,NA,NA,NA,NA,NA,NA,sub4
d3-animate-choice,213,891609,0.0-76.0-0.26,FALSE,TRUE,TRUE,TRUE,"""event"",""trial"",""time""
""fullscreenenter"",""5"",""18143""
","
","
","""event"",""trial"",""time""
""fullscreenenter"",""5"",""18143""
","
",1069.4549999998417,NA,48,NA,NA,3000,1,NA,NA,images/earth.jpg,images/rocket1,images/rocket2,null,images/rocket1,NA,1,real,null,2,NA,NA,NA,sub4
d3-animate-choice,214,894651,0.0-76.0-1.26,FALSE,TRUE,TRUE,TRUE,"""event"",""trial"",""time""
""fullscreenenter"",""5"",""18143""
","
","
","""event"",""trial"",""time""
""fullscreenenter"",""5"",""18143""
","
",1040.159999999567,NA,49,NA,NA,3000,1,NA,NA,images/purpleplanet.jpg,images/alien4,images/alien3,images/rocket1,images/alien3,images/nothing.png,2,real,false,1,rare,0,2020-06-11T16:44:11Z,sub4
two-step-fixation,215,895655,0.0-76.0-2.26,FALSE,TRUE,TRUE,TRUE,"""event"",""trial"",""time""
""fullscreenenter"",""5"",""18143""
","
","
","""event"",""trial"",""time""
""fullscreenenter"",""5"",""18143""
","
",NA,images/earth.jpg,NA,NA,NA,NA,NA,NA,NA,NA,NA,NA,NA,NA,NA,fixation,NA,NA,NA,NA,NA,NA,sub4
d3-animate-choice,216,898895,0.0-76.0-0.27,FALSE,TRUE,TRUE,TRUE,"""event"",""trial"",""time""
""fullscreenenter"",""5"",""18143""
","
","
","""event"",""trial"",""time""
""fullscreenenter"",""5"",""18143""
","
",1236.324999999837,NA,49,NA,NA,3000,1,NA,NA,images/earth.jpg,images/rocket1,images/rocket2,null,images/rocket2,NA,1,real,null,1,NA,NA,NA,sub4
d3-animate-choice,217,901936,0.0-76.0-1.27,FALSE,TRUE,TRUE,TRUE,"""event"",""trial"",""time""
""fullscreenenter"",""5"",""18143""
","
","
","""event"",""trial"",""time""
""fullscreenenter"",""5"",""18143""
","
",1039.695000000298,NA,49,NA,NA,3000,1,NA,NA,images/purpleplanet.jpg,images/alien4,images/alien3,images/rocket2,images/alien3,images/nothing.png,2,real,true,1,common,0,2020-06-11T16:44:18Z,sub4
two-step-fixation,218,902939,0.0-76.0-2.27,FALSE,TRUE,TRUE,TRUE,"""event"",""trial"",""time""
""fullscreenenter"",""5"",""18143""
","
","
","""event"",""trial"",""time""
""fullscreenenter"",""5"",""18143""
","
",NA,images/earth.jpg,NA,NA,NA,NA,NA,NA,NA,NA,NA,NA,NA,NA,NA,fixation,NA,NA,NA,NA,NA,NA,sub4
d3-animate-choice,219,906942,0.0-76.0-0.28,FALSE,TRUE,TRUE,TRUE,"""event"",""trial"",""time""
""fullscreenenter"",""5"",""18143""
","
","
","""event"",""trial"",""time""
""fullscreenenter"",""5"",""18143""
","
",2053.225000000559,NA,49,NA,NA,3000,1,NA,NA,images/earth.jpg,images/rocket1,images/rocket2,null,images/rocket2,NA,1,real,null,1,NA,NA,NA,sub4
d3-animate-choice,220,910066,0.0-76.0-1.28,FALSE,TRUE,TRUE,TRUE,"""event"",""trial"",""time""
""fullscreenenter"",""5"",""18143""
","
","
","""event"",""trial"",""time""
""fullscreenenter"",""5"",""18143""
","
",1121.2500000001164,NA,48,NA,NA,3000,1,NA,NA,images/purpleplanet.jpg,images/alien4,images/alien3,images/rocket2,images/alien4,images/t.png,2,real,true,2,common,1,2020-06-11T16:44:26Z,sub4
two-step-fixation,221,911069,0.0-76.0-2.28,FALSE,TRUE,TRUE,TRUE,"""event"",""trial"",""time""
""fullscreenenter"",""5"",""18143""
","
","
","""event"",""trial"",""time""
""fullscreenenter"",""5"",""18143""
","
",NA,images/earth.jpg,NA,NA,NA,NA,NA,NA,NA,NA,NA,NA,NA,NA,NA,fixation,NA,NA,NA,NA,NA,NA,sub4
d3-animate-choice,222,913338,0.0-76.0-0.29,FALSE,TRUE,TRUE,TRUE,"""event"",""trial"",""time""
""fullscreenenter"",""5"",""18143""
","
","
","""event"",""trial"",""time""
""fullscreenenter"",""5"",""18143""
","
",265.08500000007916,NA,49,NA,NA,3000,1,NA,NA,images/earth.jpg,images/rocket1,images/rocket2,null,images/rocket2,NA,1,real,null,1,NA,NA,NA,sub4
d3-animate-choice,223,915685,0.0-76.0-1.29,FALSE,TRUE,TRUE,TRUE,"""event"",""trial"",""time""
""fullscreenenter"",""5"",""18143""
","
","
","""event"",""trial"",""time""
""fullscreenenter"",""5"",""18143""
","
",344.3299999999581,NA,48,NA,NA,3000,1,NA,NA,images/redplanet1.jpg,images/alien2,images/alien1,images/rocket2,images/alien2,images/t.png,2,real,false,2,rare,1,2020-06-11T16:44:32Z,sub4
two-step-fixation,224,916688,0.0-76.0-2.29,FALSE,TRUE,TRUE,TRUE,"""event"",""trial"",""time""
""fullscreenenter"",""5"",""18143""
","
","
","""event"",""trial"",""time""
""fullscreenenter"",""5"",""18143""
","
",NA,images/earth.jpg,NA,NA,NA,NA,NA,NA,NA,NA,NA,NA,NA,NA,NA,fixation,NA,NA,NA,NA,NA,NA,sub4
d3-animate-choice,225,920117,0.0-76.0-0.30,FALSE,TRUE,TRUE,TRUE,"""event"",""trial"",""time""
""fullscreenenter"",""5"",""18143""
","
","
","""event"",""trial"",""time""
""fullscreenenter"",""5"",""18143""
","
",1425.414999999688,NA,49,NA,NA,3000,1,NA,NA,images/earth.jpg,images/rocket1,images/rocket2,null,images/rocket2,NA,1,real,null,1,NA,NA,NA,sub4
d3-animate-choice,226,922523,0.0-76.0-1.30,FALSE,TRUE,TRUE,TRUE,"""event"",""trial"",""time""
""fullscreenenter"",""5"",""18143""
","
","
","""event"",""trial"",""time""
""fullscreenenter"",""5"",""18143""
","
",404.3350000001956,NA,48,NA,NA,3000,1,NA,NA,images/purpleplanet.jpg,images/alien4,images/alien3,images/rocket2,images/alien4,images/t.png,2,real,true,2,common,1,2020-06-11T16:44:39Z,sub4
two-step-fixation,227,923526,0.0-76.0-2.30,FALSE,TRUE,TRUE,TRUE,"""event"",""trial"",""time""
""fullscreenenter"",""5"",""18143""
","
","
","""event"",""trial"",""time""
""fullscreenenter"",""5"",""18143""
","
",NA,images/earth.jpg,NA,NA,NA,NA,NA,NA,NA,NA,NA,NA,NA,NA,NA,fixation,NA,NA,NA,NA,NA,NA,sub4
d3-animate-choice,228,926923,0.0-76.0-0.31,FALSE,TRUE,TRUE,TRUE,"""event"",""trial"",""time""
""fullscreenenter"",""5"",""18143""
","
","
","""event"",""trial"",""time""
""fullscreenenter"",""5"",""18143""
","
",1393.3200000000652,NA,49,NA,NA,3000,1,NA,NA,images/earth.jpg,images/rocket1,images/rocket2,null,images/rocket2,NA,1,real,null,1,NA,NA,NA,sub4
d3-animate-choice,229,929566,0.0-76.0-1.31,FALSE,TRUE,TRUE,TRUE,"""event"",""trial"",""time""
""fullscreenenter"",""5"",""18143""
","
","
","""event"",""trial"",""time""
""fullscreenenter"",""5"",""18143""
","
",638.515000000596,NA,48,NA,NA,3000,1,NA,NA,images/purpleplanet.jpg,images/alien4,images/alien3,images/rocket2,images/alien4,images/t.png,2,real,true,2,common,1,2020-06-11T16:44:46Z,sub4
two-step-fixation,230,930569,0.0-76.0-2.31,FALSE,TRUE,TRUE,TRUE,"""event"",""trial"",""time""
""fullscreenenter"",""5"",""18143""
","
","
","""event"",""trial"",""time""
""fullscreenenter"",""5"",""18143""
","
",NA,images/earth.jpg,NA,NA,NA,NA,NA,NA,NA,NA,NA,NA,NA,NA,NA,fixation,NA,NA,NA,NA,NA,NA,sub4
d3-animate-choice,231,933252,0.0-76.0-0.32,FALSE,TRUE,TRUE,TRUE,"""event"",""trial"",""time""
""fullscreenenter"",""5"",""18143""
","
","
","""event"",""trial"",""time""
""fullscreenenter"",""5"",""18143""
","
",681.6550000002608,NA,49,NA,NA,3000,1,NA,NA,images/earth.jpg,images/rocket1,images/rocket2,null,images/rocket2,NA,1,real,null,1,NA,NA,NA,sub4
d3-animate-choice,232,935588,0.0-76.0-1.32,FALSE,TRUE,TRUE,TRUE,"""event"",""trial"",""time""
""fullscreenenter"",""5"",""18143""
","
","
","""event"",""trial"",""time""
""fullscreenenter"",""5"",""18143""
","
",333.2200000004377,NA,48,NA,NA,3000,1,NA,NA,images/redplanet1.jpg,images/alien2,images/alien1,images/rocket2,images/alien2,images/t.png,2,real,false,2,rare,1,2020-06-11T16:44:52Z,sub4
two-step-fixation,233,936592,0.0-76.0-2.32,FALSE,TRUE,TRUE,TRUE,"""event"",""trial"",""time""
""fullscreenenter"",""5"",""18143""
","
","
","""event"",""trial"",""time""
""fullscreenenter"",""5"",""18143""
","
",NA,images/earth.jpg,NA,NA,NA,NA,NA,NA,NA,NA,NA,NA,NA,NA,NA,fixation,NA,NA,NA,NA,NA,NA,sub4
d3-animate-choice,234,939126,0.0-76.0-0.33,FALSE,TRUE,TRUE,TRUE,"""event"",""trial"",""time""
""fullscreenenter"",""5"",""18143""
","
","
","""event"",""trial"",""time""
""fullscreenenter"",""5"",""18143""
","
",532.2150000002002,NA,49,NA,NA,3000,1,NA,NA,images/earth.jpg,images/rocket1,images/rocket2,null,images/rocket2,NA,1,real,null,1,NA,NA,NA,sub4
d3-animate-choice,235,941638,0.0-76.0-1.33,FALSE,TRUE,TRUE,TRUE,"""event"",""trial"",""time""
""fullscreenenter"",""5"",""18143""
","
","
","""event"",""trial"",""time""
""fullscreenenter"",""5"",""18143""
","
",507.42499999981374,NA,48,NA,NA,3000,1,NA,NA,images/purpleplanet.jpg,images/alien4,images/alien3,images/rocket2,images/alien4,images/t.png,2,real,true,2,common,1,2020-06-11T16:44:58Z,sub4
two-step-fixation,236,942641,0.0-76.0-2.33,FALSE,TRUE,TRUE,TRUE,"""event"",""trial"",""time""
""fullscreenenter"",""5"",""18143""
","
","
","""event"",""trial"",""time""
""fullscreenenter"",""5"",""18143""
","
",NA,images/earth.jpg,NA,NA,NA,NA,NA,NA,NA,NA,NA,NA,NA,NA,NA,fixation,NA,NA,NA,NA,NA,NA,sub4
d3-animate-choice,237,946180,0.0-76.0-0.34,FALSE,TRUE,TRUE,TRUE,"""event"",""trial"",""time""
""fullscreenenter"",""5"",""18143""
","
","
","""event"",""trial"",""time""
""fullscreenenter"",""5"",""18143""
","
",1535.4499999993714,NA,49,NA,NA,3000,1,NA,NA,images/earth.jpg,images/rocket1,images/rocket2,null,images/rocket2,NA,1,real,null,1,NA,NA,NA,sub4
d3-animate-choice,238,948617,0.0-76.0-1.34,FALSE,TRUE,TRUE,TRUE,"""event"",""trial"",""time""
""fullscreenenter"",""5"",""18143""
","
","
","""event"",""trial"",""time""
""fullscreenenter"",""5"",""18143""
","
",434.6400000003632,NA,48,NA,NA,3000,1,NA,NA,images/purpleplanet.jpg,images/alien4,images/alien3,images/rocket2,images/alien4,images/nothing.png,2,real,true,2,common,0,2020-06-11T16:45:05Z,sub4
two-step-fixation,239,949620,0.0-76.0-2.34,FALSE,TRUE,TRUE,TRUE,"""event"",""trial"",""time""
""fullscreenenter"",""5"",""18143""
","
","
","""event"",""trial"",""time""
""fullscreenenter"",""5"",""18143""
","
",NA,images/earth.jpg,NA,NA,NA,NA,NA,NA,NA,NA,NA,NA,NA,NA,NA,fixation,NA,NA,NA,NA,NA,NA,sub4
d3-animate-choice,240,951917,0.0-76.0-0.35,FALSE,TRUE,TRUE,TRUE,"""event"",""trial"",""time""
""fullscreenenter"",""5"",""18143""
","
","
","""event"",""trial"",""time""
""fullscreenenter"",""5"",""18143""
","
",292.9700000004377,NA,48,NA,NA,3000,1,NA,NA,images/earth.jpg,images/rocket1,images/rocket2,null,images/rocket1,NA,1,real,null,2,NA,NA,NA,sub4
d3-animate-choice,241,954604,0.0-76.0-1.35,FALSE,TRUE,TRUE,TRUE,"""event"",""trial"",""time""
""fullscreenenter"",""5"",""18143""
","
","
","""event"",""trial"",""time""
""fullscreenenter"",""5"",""18143""
","
",684.0899999997346,NA,49,NA,NA,3000,1,NA,NA,images/redplanet1.jpg,images/alien2,images/alien1,images/rocket1,images/alien1,images/t.png,2,real,true,1,common,1,2020-06-11T16:45:11Z,sub4
two-step-fixation,242,955607,0.0-76.0-2.35,FALSE,TRUE,TRUE,TRUE,"""event"",""trial"",""time""
""fullscreenenter"",""5"",""18143""
","
","
","""event"",""trial"",""time""
""fullscreenenter"",""5"",""18143""
","
",NA,images/earth.jpg,NA,NA,NA,NA,NA,NA,NA,NA,NA,NA,NA,NA,NA,fixation,NA,NA,NA,NA,NA,NA,sub4
d3-animate-choice,243,958104,0.0-76.0-0.36,FALSE,TRUE,TRUE,TRUE,"""event"",""trial"",""time""
""fullscreenenter"",""5"",""18143""
","
","
","""event"",""trial"",""time""
""fullscreenenter"",""5"",""18143""
","
",493.30000000004657,NA,48,NA,NA,3000,1,NA,NA,images/earth.jpg,images/rocket1,images/rocket2,null,images/rocket1,NA,1,real,null,2,NA,NA,NA,sub4
d3-animate-choice,244,960705,0.0-76.0-1.36,FALSE,TRUE,TRUE,TRUE,"""event"",""trial"",""time""
""fullscreenenter"",""5"",""18143""
","
","
","""event"",""trial"",""time""
""fullscreenenter"",""5"",""18143""
","
",597.3949999997858,NA,49,NA,NA,3000,1,NA,NA,images/redplanet1.jpg,images/alien2,images/alien1,images/rocket1,images/alien1,images/t.png,2,real,true,1,common,1,2020-06-11T16:45:17Z,sub4
two-step-fixation,245,961707,0.0-76.0-2.36,FALSE,TRUE,TRUE,TRUE,"""event"",""trial"",""time""
""fullscreenenter"",""5"",""18143""
","
","
","""event"",""trial"",""time""
""fullscreenenter"",""5"",""18143""
","
",NA,images/earth.jpg,NA,NA,NA,NA,NA,NA,NA,NA,NA,NA,NA,NA,NA,fixation,NA,NA,NA,NA,NA,NA,sub4
d3-animate-choice,246,964446,0.0-76.0-0.37,FALSE,TRUE,TRUE,TRUE,"""event"",""trial"",""time""
""fullscreenenter"",""5"",""18143""
","
","
","""event"",""trial"",""time""
""fullscreenenter"",""5"",""18143""
","
",735.4999999997672,NA,48,NA,NA,3000,1,NA,NA,images/earth.jpg,images/rocket1,images/rocket2,null,images/rocket1,NA,1,real,null,2,NA,NA,NA,sub4
d3-animate-choice,247,966810,0.0-76.0-1.37,FALSE,TRUE,TRUE,TRUE,"""event"",""trial"",""time""
""fullscreenenter"",""5"",""18143""
","
","
","""event"",""trial"",""time""
""fullscreenenter"",""5"",""18143""
","
",360.53499999979977,NA,49,NA,NA,3000,1,NA,NA,images/redplanet1.jpg,images/alien2,images/alien1,images/rocket1,images/alien1,images/t.png,2,real,true,1,common,1,2020-06-11T16:45:23Z,sub4
two-step-fixation,248,967812,0.0-76.0-2.37,FALSE,TRUE,TRUE,TRUE,"""event"",""trial"",""time""
""fullscreenenter"",""5"",""18143""
","
","
","""event"",""trial"",""time""
""fullscreenenter"",""5"",""18143""
","
",NA,images/earth.jpg,NA,NA,NA,NA,NA,NA,NA,NA,NA,NA,NA,NA,NA,fixation,NA,NA,NA,NA,NA,NA,sub4
d3-animate-choice,249,971461,0.0-76.0-0.38,FALSE,TRUE,TRUE,TRUE,"""event"",""trial"",""time""
""fullscreenenter"",""5"",""18143""
","
","
","""event"",""trial"",""time""
""fullscreenenter"",""5"",""18143""
","
",1645.860000000568,NA,48,NA,NA,3000,1,NA,NA,images/earth.jpg,images/rocket1,images/rocket2,null,images/rocket1,NA,1,real,null,2,NA,NA,NA,sub4
d3-animate-choice,250,974146,0.0-76.0-1.38,FALSE,TRUE,TRUE,TRUE,"""event"",""trial"",""time""
""fullscreenenter"",""5"",""18143""
","
","
","""event"",""trial"",""time""
""fullscreenenter"",""5"",""18143""
","
",681.7500000006985,NA,49,NA,NA,3000,1,NA,NA,images/redplanet1.jpg,images/alien2,images/alien1,images/rocket1,images/alien1,images/t.png,2,real,true,1,common,1,2020-06-11T16:45:30Z,sub4
two-step-fixation,251,975149,0.0-76.0-2.38,FALSE,TRUE,TRUE,TRUE,"""event"",""trial"",""time""
""fullscreenenter"",""5"",""18143""
","
","
","""event"",""trial"",""time""
""fullscreenenter"",""5"",""18143""
","
",NA,images/earth.jpg,NA,NA,NA,NA,NA,NA,NA,NA,NA,NA,NA,NA,NA,fixation,NA,NA,NA,NA,NA,NA,sub4
d3-animate-choice,252,978930,0.0-76.0-0.39,FALSE,TRUE,TRUE,TRUE,"""event"",""trial"",""time""
""fullscreenenter"",""5"",""18143""
","
","
","""event"",""trial"",""time""
""fullscreenenter"",""5"",""18143""
","
",1778.0000000002328,NA,48,NA,NA,3000,1,NA,NA,images/earth.jpg,images/rocket1,images/rocket2,null,images/rocket1,NA,1,real,null,2,NA,NA,NA,sub4
d3-animate-choice,253,981475,0.0-76.0-1.39,FALSE,TRUE,TRUE,TRUE,"""event"",""trial"",""time""
""fullscreenenter"",""5"",""18143""
","
","
","""event"",""trial"",""time""
""fullscreenenter"",""5"",""18143""
","
",541.0099999998929,NA,49,NA,NA,3000,1,NA,NA,images/purpleplanet.jpg,images/alien4,images/alien3,images/rocket1,images/alien3,images/nothing.png,2,real,false,1,rare,0,2020-06-11T16:45:37Z,sub4
two-step-fixation,254,982478,0.0-76.0-2.39,FALSE,TRUE,TRUE,TRUE,"""event"",""trial"",""time""
""fullscreenenter"",""5"",""18143""
","
","
","""event"",""trial"",""time""
""fullscreenenter"",""5"",""18143""
","
",NA,images/earth.jpg,NA,NA,NA,NA,NA,NA,NA,NA,NA,NA,NA,NA,NA,fixation,NA,NA,NA,NA,NA,NA,sub4
d3-animate-choice,255,984915,0.0-76.0-0.40,FALSE,TRUE,TRUE,TRUE,"""event"",""trial"",""time""
""fullscreenenter"",""5"",""18143""
","
","
","""event"",""trial"",""time""
""fullscreenenter"",""5"",""18143""
","
",434.25000000034925,NA,48,NA,NA,3000,1,NA,NA,images/earth.jpg,images/rocket1,images/rocket2,null,images/rocket1,NA,1,real,null,2,NA,NA,NA,sub4
d3-animate-choice,256,987891,0.0-76.0-1.40,FALSE,TRUE,TRUE,TRUE,"""event"",""trial"",""time""
""fullscreenenter"",""5"",""18143""
","
","
","""event"",""trial"",""time""
""fullscreenenter"",""5"",""18143""
","
",973.2549999998882,NA,49,NA,NA,3000,1,NA,NA,images/redplanet1.jpg,images/alien2,images/alien1,images/rocket1,images/alien1,images/t.png,2,real,true,1,common,1,2020-06-11T16:45:44Z,sub4
two-step-fixation,257,988894,0.0-76.0-2.40,FALSE,TRUE,TRUE,TRUE,"""event"",""trial"",""time""
""fullscreenenter"",""5"",""18143""
","
","
","""event"",""trial"",""time""
""fullscreenenter"",""5"",""18143""
","
",NA,images/earth.jpg,NA,NA,NA,NA,NA,NA,NA,NA,NA,NA,NA,NA,NA,fixation,NA,NA,NA,NA,NA,NA,sub4
d3-animate-choice,258,992771,0.0-76.0-0.41,FALSE,TRUE,TRUE,TRUE,"""event"",""trial"",""time""
""fullscreenenter"",""5"",""18143""
","
","
","""event"",""trial"",""time""
""fullscreenenter"",""5"",""18143""
","
",1874.399999999674,NA,48,NA,NA,3000,1,NA,NA,images/earth.jpg,images/rocket1,images/rocket2,null,images/rocket1,NA,1,real,null,2,NA,NA,NA,sub4
d3-animate-choice,259,995397,0.0-76.0-1.41,FALSE,TRUE,TRUE,TRUE,"""event"",""trial"",""time""
""fullscreenenter"",""5"",""18143""
","
","
","""event"",""trial"",""time""
""fullscreenenter"",""5"",""18143""
","
",622.4050000000279,NA,49,NA,NA,3000,1,NA,NA,images/purpleplanet.jpg,images/alien4,images/alien3,images/rocket1,images/alien3,images/nothing.png,2,real,false,1,rare,0,2020-06-11T16:45:51Z,sub4
two-step-fixation,260,996399,0.0-76.0-2.41,FALSE,TRUE,TRUE,TRUE,"""event"",""trial"",""time""
""fullscreenenter"",""5"",""18143""
","
","
","""event"",""trial"",""time""
""fullscreenenter"",""5"",""18143""
","
",NA,images/earth.jpg,NA,NA,NA,NA,NA,NA,NA,NA,NA,NA,NA,NA,NA,fixation,NA,NA,NA,NA,NA,NA,sub4
d3-animate-choice,261,999576,0.0-76.0-0.42,FALSE,TRUE,TRUE,TRUE,"""event"",""trial"",""time""
""fullscreenenter"",""5"",""18143""
","
","
","""event"",""trial"",""time""
""fullscreenenter"",""5"",""18143""
","
",1175.3199999993667,NA,48,NA,NA,3000,1,NA,NA,images/earth.jpg,images/rocket1,images/rocket2,null,images/rocket1,NA,1,real,null,2,NA,NA,NA,sub4
d3-animate-choice,262,1002544,0.0-76.0-1.42,FALSE,TRUE,TRUE,TRUE,"""event"",""trial"",""time""
""fullscreenenter"",""5"",""18143""
","
","
","""event"",""trial"",""time""
""fullscreenenter"",""5"",""18143""
","
",964.5149999996647,NA,49,NA,NA,3000,1,NA,NA,images/redplanet1.jpg,images/alien2,images/alien1,images/rocket1,images/alien1,images/t.png,2,real,true,1,common,1,2020-06-11T16:45:59Z,sub4
two-step-fixation,263,1003545,0.0-76.0-2.42,FALSE,TRUE,TRUE,TRUE,"""event"",""trial"",""time""
""fullscreenenter"",""5"",""18143""
","
","
","""event"",""trial"",""time""
""fullscreenenter"",""5"",""18143""
","
",NA,images/earth.jpg,NA,NA,NA,NA,NA,NA,NA,NA,NA,NA,NA,NA,NA,fixation,NA,NA,NA,NA,NA,NA,sub4
d3-animate-choice,264,1006484,0.0-76.0-0.43,FALSE,TRUE,TRUE,TRUE,"""event"",""trial"",""time""
""fullscreenenter"",""5"",""18143""
","
","
","""event"",""trial"",""time""
""fullscreenenter"",""5"",""18143""
","
",935.2399999997579,NA,48,NA,NA,3000,1,NA,NA,images/earth.jpg,images/rocket1,images/rocket2,null,images/rocket1,NA,1,real,null,2,NA,NA,NA,sub4
d3-animate-choice,265,1009361,0.0-76.0-1.43,FALSE,TRUE,TRUE,TRUE,"""event"",""trial"",""time""
""fullscreenenter"",""5"",""18143""
","
","
","""event"",""trial"",""time""
""fullscreenenter"",""5"",""18143""
","
",874.6900000006426,NA,49,NA,NA,3000,1,NA,NA,images/redplanet1.jpg,images/alien2,images/alien1,images/rocket1,images/alien1,images/t.png,2,real,true,1,common,1,2020-06-11T16:46:05Z,sub4
two-step-fixation,266,1010364,0.0-76.0-2.43,FALSE,TRUE,TRUE,TRUE,"""event"",""trial"",""time""
""fullscreenenter"",""5"",""18143""
","
","
","""event"",""trial"",""time""
""fullscreenenter"",""5"",""18143""
","
",NA,images/earth.jpg,NA,NA,NA,NA,NA,NA,NA,NA,NA,NA,NA,NA,NA,fixation,NA,NA,NA,NA,NA,NA,sub4
d3-animate-choice,267,1013411,0.0-76.0-0.44,FALSE,TRUE,TRUE,TRUE,"""event"",""trial"",""time""
""fullscreenenter"",""5"",""18143""
","
","
","""event"",""trial"",""time""
""fullscreenenter"",""5"",""18143""
","
",1044.1450000008335,NA,48,NA,NA,3000,1,NA,NA,images/earth.jpg,images/rocket1,images/rocket2,null,images/rocket1,NA,1,real,null,2,NA,NA,NA,sub4
d3-animate-choice,268,1016128,0.0-76.0-1.44,FALSE,TRUE,TRUE,TRUE,"""event"",""trial"",""time""
""fullscreenenter"",""5"",""18143""
","
","
","""event"",""trial"",""time""
""fullscreenenter"",""5"",""18143""
","
",714.3999999999069,NA,49,NA,NA,3000,1,NA,NA,images/purpleplanet.jpg,images/alien4,images/alien3,images/rocket1,images/alien3,images/t.png,2,real,false,1,rare,1,2020-06-11T16:46:12Z,sub4
two-step-fixation,269,1017131,0.0-76.0-2.44,FALSE,TRUE,TRUE,TRUE,"""event"",""trial"",""time""
""fullscreenenter"",""5"",""18143""
","
","
","""event"",""trial"",""time""
""fullscreenenter"",""5"",""18143""
","
",NA,images/earth.jpg,NA,NA,NA,NA,NA,NA,NA,NA,NA,NA,NA,NA,NA,fixation,NA,NA,NA,NA,NA,NA,sub4
d3-animate-choice,270,1019591,0.0-76.0-0.45,FALSE,TRUE,TRUE,TRUE,"""event"",""trial"",""time""
""fullscreenenter"",""5"",""18143""
","
","
","""event"",""trial"",""time""
""fullscreenenter"",""5"",""18143""
","
",455.90500000072643,NA,48,NA,NA,3000,1,NA,NA,images/earth.jpg,images/rocket1,images/rocket2,null,images/rocket1,NA,1,real,null,2,NA,NA,NA,sub4
d3-animate-choice,271,1022312,0.0-76.0-1.45,FALSE,TRUE,TRUE,TRUE,"""event"",""trial"",""time""
""fullscreenenter"",""5"",""18143""
","
","
","""event"",""trial"",""time""
""fullscreenenter"",""5"",""18143""
","
",717.7600000003586,NA,49,NA,NA,3000,1,NA,NA,images/purpleplanet.jpg,images/alien4,images/alien3,images/rocket1,images/alien3,images/nothing.png,2,real,false,1,rare,0,2020-06-11T16:46:18Z,sub4
two-step-fixation,272,1023315,0.0-76.0-2.45,FALSE,TRUE,TRUE,TRUE,"""event"",""trial"",""time""
""fullscreenenter"",""5"",""18143""
","
","
","""event"",""trial"",""time""
""fullscreenenter"",""5"",""18143""
","
",NA,images/earth.jpg,NA,NA,NA,NA,NA,NA,NA,NA,NA,NA,NA,NA,NA,fixation,NA,NA,NA,NA,NA,NA,sub4
d3-animate-choice,273,1026062,0.0-76.0-0.46,FALSE,TRUE,TRUE,TRUE,"""event"",""trial"",""time""
""fullscreenenter"",""5"",""18143""
","
","
","""event"",""trial"",""time""
""fullscreenenter"",""5"",""18143""
","
",743.440000000177,NA,48,NA,NA,3000,1,NA,NA,images/earth.jpg,images/rocket1,images/rocket2,null,images/rocket1,NA,1,real,null,2,NA,NA,NA,sub4
d3-animate-choice,274,1029225,0.0-76.0-1.46,FALSE,TRUE,TRUE,TRUE,"""event"",""trial"",""time""
""fullscreenenter"",""5"",""18143""
","
","
","""event"",""trial"",""time""
""fullscreenenter"",""5"",""18143""
","
",1159.9050000003772,NA,49,NA,NA,3000,1,NA,NA,images/redplanet1.jpg,images/alien2,images/alien1,images/rocket1,images/alien1,images/nothing.png,2,real,true,1,common,0,2020-06-11T16:46:25Z,sub4
two-step-fixation,275,1030227,0.0-76.0-2.46,FALSE,TRUE,TRUE,TRUE,"""event"",""trial"",""time""
""fullscreenenter"",""5"",""18143""
","
","
","""event"",""trial"",""time""
""fullscreenenter"",""5"",""18143""
","
",NA,images/earth.jpg,NA,NA,NA,NA,NA,NA,NA,NA,NA,NA,NA,NA,NA,fixation,NA,NA,NA,NA,NA,NA,sub4
d3-animate-choice,276,1032601,0.0-76.0-0.47,FALSE,TRUE,TRUE,TRUE,"""event"",""trial"",""time""
""fullscreenenter"",""5"",""18143""
","
","
","""event"",""trial"",""time""
""fullscreenenter"",""5"",""18143""
","
",371.04999999981374,NA,48,NA,NA,3000,1,NA,NA,images/earth.jpg,images/rocket1,images/rocket2,null,images/rocket1,NA,1,real,null,2,NA,NA,NA,sub4
d3-animate-choice,277,1035303,0.0-76.0-1.47,FALSE,TRUE,TRUE,TRUE,"""event"",""trial"",""time""
""fullscreenenter"",""5"",""18143""
","
","
","""event"",""trial"",""time""
""fullscreenenter"",""5"",""18143""
","
",698.7600000002421,NA,48,NA,NA,3000,1,NA,NA,images/purpleplanet.jpg,images/alien4,images/alien3,images/rocket1,images/alien4,images/nothing.png,2,real,false,2,rare,0,2020-06-11T16:46:31Z,sub4
two-step-fixation,278,1036306,0.0-76.0-2.47,FALSE,TRUE,TRUE,TRUE,"""event"",""trial"",""time""
""fullscreenenter"",""5"",""18143""
","
","
","""event"",""trial"",""time""
""fullscreenenter"",""5"",""18143""
","
",NA,images/earth.jpg,NA,NA,NA,NA,NA,NA,NA,NA,NA,NA,NA,NA,NA,fixation,NA,NA,NA,NA,NA,NA,sub4
d3-animate-choice,279,1039016,0.0-76.0-0.48,FALSE,TRUE,TRUE,TRUE,"""event"",""trial"",""time""
""fullscreenenter"",""5"",""18143""
","
","
","""event"",""trial"",""time""
""fullscreenenter"",""5"",""18143""
","
",706.4750000000931,NA,49,NA,NA,3000,1,NA,NA,images/earth.jpg,images/rocket1,images/rocket2,null,images/rocket2,NA,1,real,null,1,NA,NA,NA,sub4
d3-animate-choice,280,1042355,0.0-76.0-1.48,FALSE,TRUE,TRUE,TRUE,"""event"",""trial"",""time""
""fullscreenenter"",""5"",""18143""
","
","
","""event"",""trial"",""time""
""fullscreenenter"",""5"",""18143""
","
",1335.9200000003912,NA,48,NA,NA,3000,1,NA,NA,images/purpleplanet.jpg,images/alien4,images/alien3,images/rocket2,images/alien4,images/nothing.png,2,real,true,2,common,0,2020-06-11T16:46:38Z,sub4
two-step-fixation,281,1043358,0.0-76.0-2.48,FALSE,TRUE,TRUE,TRUE,"""event"",""trial"",""time""
""fullscreenenter"",""5"",""18143""
","
","
","""event"",""trial"",""time""
""fullscreenenter"",""5"",""18143""
","
",NA,images/earth.jpg,NA,NA,NA,NA,NA,NA,NA,NA,NA,NA,NA,NA,NA,fixation,NA,NA,NA,NA,NA,NA,sub4
d3-animate-choice,282,1045706,0.0-76.0-0.49,FALSE,TRUE,TRUE,TRUE,"""event"",""trial"",""time""
""fullscreenenter"",""5"",""18143""
","
","
","""event"",""trial"",""time""
""fullscreenenter"",""5"",""18143""
","
",345.84499999973923,NA,49,NA,NA,3000,1,NA,NA,images/earth.jpg,images/rocket1,images/rocket2,null,images/rocket2,NA,1,real,null,1,NA,NA,NA,sub4
d3-animate-choice,283,1048081,0.0-76.0-1.49,FALSE,TRUE,TRUE,TRUE,"""event"",""trial"",""time""
""fullscreenenter"",""5"",""18143""
","
","
","""event"",""trial"",""time""
""fullscreenenter"",""5"",""18143""
","
",372.0299999995623,NA,49,NA,NA,3000,1,NA,NA,images/redplanet1.jpg,images/alien2,images/alien1,images/rocket2,images/alien1,images/nothing.png,2,real,false,1,rare,0,2020-06-11T16:46:44Z,sub4
two-step-fixation,284,1049084,0.0-76.0-2.49,FALSE,TRUE,TRUE,TRUE,"""event"",""trial"",""time""
""fullscreenenter"",""5"",""18143""
","
","
","""event"",""trial"",""time""
""fullscreenenter"",""5"",""18143""
","
",NA,images/earth.jpg,NA,NA,NA,NA,NA,NA,NA,NA,NA,NA,NA,NA,NA,fixation,NA,NA,NA,NA,NA,NA,sub4
audio-button-response-2,285,1081342,0.0-77.0,FALSE,TRUE,TRUE,TRUE,"""event"",""trial"",""time""
""fullscreenenter"",""5"",""18143""
","
","
","""event"",""trial"",""time""
""fullscreenenter"",""5"",""18143""
","
