trial_type,trial_index,time_elapsed,internal_node_id,rocket_sides,red_planet_first_rocket,red_display_order,purple_display_order,interactions,blur_events,focus_events,fullscreenenter_events,fullscreenexit_events,rt,stimulus,key_press,button_pressed,success,duration,valid_pressed,rts,keys,planet_text,right_text,left_text,center_text,chosen_text,reward_text,trial_stage,practice_trial,transition_type,choice,transition,reward,timestamp,subject_id
pavlovia,0,4,0.0-0.0,FALSE,FALSE,TRUE,TRUE,"
","
","
","
","
",NA,NA,NA,NA,NA,NA,NA,NA,NA,NA,NA,NA,NA,NA,NA,NA,NA,NA,NA,NA,NA,NA,sub47
html-keyboard-response,1,1265,0.0-1.0,FALSE,FALSE,TRUE,TRUE,"
","
","
","
","
",1259.5999999903142,Welcome! Press the space bar to begin.,32,NA,NA,NA,NA,NA,NA,NA,NA,NA,NA,NA,NA,NA,NA,NA,NA,NA,NA,NA,sub47
audio-keyboard-response,2,2442,0.0-2.0,FALSE,FALSE,TRUE,TRUE,"
","
","
","
","
",1011,audio/beep_loop.wav,32,NA,NA,NA,NA,NA,NA,NA,NA,NA,NA,NA,NA,NA,NA,NA,NA,NA,NA,NA,sub47
audio-button-response,3,8743,0.0-3.0,FALSE,FALSE,TRUE,TRUE,"
","
","
","
","
",NaN,audio/fish.mp3,NA,1,NA,NA,NA,NA,NA,NA,NA,NA,NA,NA,NA,NA,NA,NA,NA,NA,NA,NA,sub47
audio-button-response,4,11845,0.0-4.0,FALSE,FALSE,TRUE,TRUE,"""event"",""trial"",""time""
""fullscreenenter"",""5"",""19457""
","
","
","""event"",""trial"",""time""
""fullscreenenter"",""5"",""19457""
","
",NaN,audio/tiger.mp3,NA,4,NA,NA,NA,NA,NA,NA,NA,NA,NA,NA,NA,NA,NA,NA,NA,NA,NA,NA,sub47
fullscreen,5,20440,0.0-5.0,FALSE,FALSE,TRUE,TRUE,"""event"",""trial"",""time""
""fullscreenenter"",""5"",""19457""
","
","
","""event"",""trial"",""time""
""fullscreenenter"",""5"",""19457""
","
",NA,NA,NA,NA,TRUE,NA,NA,NA,NA,NA,NA,NA,NA,NA,NA,NA,NA,NA,NA,NA,NA,NA,sub47
d3-instructions,6,32380,0.0-6.0,FALSE,FALSE,TRUE,TRUE,"""event"",""trial"",""time""
""fullscreenenter"",""5"",""19457""
","
","
","""event"",""trial"",""time""
""fullscreenenter"",""5"",""19457""
","
",NA,NA,NA,NA,NA,NA,NA,NA,NA,NA,NA,NA,NA,NA,NA,NA,NA,NA,NA,NA,NA,NA,sub47
d3-instructions,7,34137,0.0-7.0,FALSE,FALSE,TRUE,TRUE,"""event"",""trial"",""time""
""fullscreenenter"",""5"",""19457""
","
","
","""event"",""trial"",""time""
""fullscreenenter"",""5"",""19457""
","
",NA,NA,NA,NA,NA,NA,NA,NA,NA,NA,NA,NA,NA,NA,NA,NA,NA,NA,NA,NA,NA,NA,sub47
d3-instructions,8,35426,0.0-8.0,FALSE,FALSE,TRUE,TRUE,"""event"",""trial"",""time""
""fullscreenenter"",""5"",""19457""
","
","
","""event"",""trial"",""time""
""fullscreenenter"",""5"",""19457""
","
",NA,NA,NA,NA,NA,NA,NA,NA,NA,NA,NA,NA,NA,NA,NA,NA,NA,NA,NA,NA,NA,NA,sub47
d3-instructions,9,36595,0.0-9.0,FALSE,FALSE,TRUE,TRUE,"""event"",""trial"",""time""
""fullscreenenter"",""5"",""19457""
","
","
","""event"",""trial"",""time""
""fullscreenenter"",""5"",""19457""
","
",NA,NA,NA,NA,NA,NA,NA,NA,NA,NA,NA,NA,NA,NA,NA,NA,NA,NA,NA,NA,NA,NA,sub47
d3-instructions,10,37686,0.0-10.0,FALSE,FALSE,TRUE,TRUE,"""event"",""trial"",""time""
""fullscreenenter"",""5"",""19457""
","
","
","""event"",""trial"",""time""
""fullscreenenter"",""5"",""19457""
","
",NA,NA,NA,NA,NA,NA,NA,NA,NA,NA,NA,NA,NA,NA,NA,NA,NA,NA,NA,NA,NA,NA,sub47
d3-animate-choice,11,42853,0.0-11.0,FALSE,FALSE,TRUE,TRUE,"""event"",""trial"",""time""
""fullscreenenter"",""5"",""19457""
","
","
","""event"",""trial"",""time""
""fullscreenenter"",""5"",""19457""
","
",2095.6200000364333,NA,32,NA,NA,3000,1,3160.700000007637,49,images/tutgreenplanet.jpg,images/tutalien1,images/tutalien2,null,images/tutalien2,NA,NA,practice,null,NA,NA,NA,NA,sub47
d3-animate-choice,12,46786,0.0-12.0,FALSE,FALSE,TRUE,TRUE,"""event"",""trial"",""time""
""fullscreenenter"",""5"",""19457""
","
","
","""event"",""trial"",""time""
""fullscreenenter"",""5"",""19457""
","
",1929.3949999846518,NA,48,NA,NA,3000,1,NA,NA,images/tutgreenplanet.jpg,images/tutalien1,images/tutalien2,null,images/tutalien1,NA,NA,practice,null,NA,NA,NA,NA,sub47
d3-animate-choice,13,50646,0.0-13.0,FALSE,FALSE,TRUE,TRUE,"""event"",""trial"",""time""
""fullscreenenter"",""5"",""19457""
","
","
","""event"",""trial"",""time""
""fullscreenenter"",""5"",""19457""
","
",1855.6400000234134,NA,49,NA,NA,3000,1,NA,NA,images/tutgreenplanet.jpg,images/tutalien1,images/tutalien2,null,images/tutalien2,NA,NA,practice,null,NA,NA,NA,NA,sub47
d3-animate-choice,14,53064,0.0-14.0,FALSE,FALSE,TRUE,TRUE,"""event"",""trial"",""time""
""fullscreenenter"",""5"",""19457""
","
","
","""event"",""trial"",""time""
""fullscreenenter"",""5"",""19457""
","
",414.1400000080466,NA,49,NA,NA,3000,1,2291.350000014063,49,images/tutgreenplanet.jpg,images/tutalien1,images/tutalien2,null,images/tutalien2,NA,NA,practice,null,NA,NA,NA,NA,sub47
d3-instructions,15,97795,0.0-15.0,FALSE,FALSE,TRUE,TRUE,"""event"",""trial"",""time""
""fullscreenenter"",""5"",""19457""
","
","
","""event"",""trial"",""time""
""fullscreenenter"",""5"",""19457""
","
",NA,NA,NA,NA,NA,NA,NA,NA,NA,NA,NA,NA,NA,NA,NA,NA,NA,NA,NA,NA,NA,NA,sub47
d3-instructions,16,99097,0.0-16.0,FALSE,FALSE,TRUE,TRUE,"""event"",""trial"",""time""
""fullscreenenter"",""5"",""19457""
","
","
","""event"",""trial"",""time""
""fullscreenenter"",""5"",""19457""
","
",NA,NA,NA,NA,NA,NA,NA,NA,NA,NA,NA,NA,NA,NA,NA,NA,NA,NA,NA,NA,NA,NA,sub47
d3-instructions,17,100012,0.0-17.0,FALSE,FALSE,TRUE,TRUE,"""event"",""trial"",""time""
""fullscreenenter"",""5"",""19457""
","
","
","""event"",""trial"",""time""
""fullscreenenter"",""5"",""19457""
","
",NA,NA,NA,NA,NA,NA,NA,NA,NA,NA,NA,NA,NA,NA,NA,NA,NA,NA,NA,NA,NA,NA,sub47
d3-instructions,18,100928,0.0-18.0,FALSE,FALSE,TRUE,TRUE,"""event"",""trial"",""time""
""fullscreenenter"",""5"",""19457""
","
","
","""event"",""trial"",""time""
""fullscreenenter"",""5"",""19457""
","
",NA,NA,NA,NA,NA,NA,NA,NA,NA,NA,NA,NA,NA,NA,NA,NA,NA,NA,NA,NA,NA,NA,sub47
d3-instructions,19,110506,0.0-19.0,FALSE,FALSE,TRUE,TRUE,"""event"",""trial"",""time""
""fullscreenenter"",""5"",""19457""
","
","
","""event"",""trial"",""time""
""fullscreenenter"",""5"",""19457""
","
",NA,NA,NA,NA,NA,NA,NA,NA,NA,NA,NA,NA,NA,NA,NA,NA,NA,NA,NA,NA,NA,NA,sub47
d3-animate-choice,20,113489,0.0-20.0,FALSE,FALSE,TRUE,TRUE,"""event"",""trial"",""time""
""fullscreenenter"",""5"",""19457""
","
","
","""event"",""trial"",""time""
""fullscreenenter"",""5"",""19457""
","
",979.4500000425614,NA,49,NA,NA,3000,1,NA,NA,images/tutyellowplanet.jpg,null,images/tutalien3,null,images/tutalien3,images/t.png,NA,practice,null,NA,NA,NA,NA,sub47
d3-animate-choice,21,115942,0.0-21.0,FALSE,FALSE,TRUE,TRUE,"""event"",""trial"",""time""
""fullscreenenter"",""5"",""19457""
","
","
","""event"",""trial"",""time""
""fullscreenenter"",""5"",""19457""
","
",449.45000001462176,NA,49,NA,NA,3000,1,"2062.4749999842606,2372.704999987036",4949,images/tutyellowplanet.jpg,null,images/tutalien3,null,images/tutalien3,images/t.png,NA,practice,null,NA,NA,NA,NA,sub47
d3-animate-choice,22,118154,0.0-22.0,FALSE,FALSE,TRUE,TRUE,"""event"",""trial"",""time""
""fullscreenenter"",""5"",""19457""
","
","
","""event"",""trial"",""time""
""fullscreenenter"",""5"",""19457""
","
",209.34000000124797,NA,49,NA,NA,3000,1,"438.2249999907799,1623.4600000316277,2062.6800000318326",494949,images/tutyellowplanet.jpg,null,images/tutalien3,null,images/tutalien3,images/t.png,NA,practice,null,NA,NA,NA,NA,sub47
d3-animate-choice,23,120307,0.0-23.0,FALSE,FALSE,TRUE,TRUE,"""event"",""trial"",""time""
""fullscreenenter"",""5"",""19457""
","
","
","""event"",""trial"",""time""
""fullscreenenter"",""5"",""19457""
","
",149.6649999753572,NA,49,NA,NA,3000,1,"644.6799999685027,1133.609999960754,1622.0549999852665,1991.814999957569",49494949,images/tutyellowplanet.jpg,null,images/tutalien3,null,images/tutalien3,images/t.png,NA,practice,null,NA,NA,NA,NA,sub47
d3-animate-choice,24,122372,0.0-24.0,FALSE,FALSE,TRUE,TRUE,"""event"",""trial"",""time""
""fullscreenenter"",""5"",""19457""
","
","
","""event"",""trial"",""time""
""fullscreenenter"",""5"",""19457""
","
",61.09999999171123,NA,49,NA,NA,3000,1,"306.5999999525957,1463.530000008177,1918.6699999845587",494949,images/tutyellowplanet.jpg,null,images/tutalien3,null,images/tutalien3,images/nothing.png,NA,practice,null,NA,NA,NA,NA,sub47
d3-animate-choice,25,124475,0.0-25.0,FALSE,FALSE,TRUE,TRUE,"""event"",""trial"",""time""
""fullscreenenter"",""5"",""19457""
","
","
","""event"",""trial"",""time""
""fullscreenenter"",""5"",""19457""
","
",99.45999999763444,NA,49,NA,NA,3000,1,"342.53999998327345,1532.115000009071",4949,images/tutyellowplanet.jpg,null,images/tutalien3,null,images/tutalien3,images/t.png,NA,practice,null,NA,NA,NA,NA,sub47
d3-animate-choice,26,126602,0.0-26.0,FALSE,FALSE,TRUE,TRUE,"""event"",""trial"",""time""
""fullscreenenter"",""5"",""19457""
","
","
","""event"",""trial"",""time""
""fullscreenenter"",""5"",""19457""
","
",124.85000002197921,NA,49,NA,NA,3000,1,"1738.820000027772,2124.180000042543",4949,images/tutyellowplanet.jpg,null,images/tutalien3,null,images/tutalien3,images/nothing.png,NA,practice,null,NA,NA,NA,NA,sub47
d3-animate-choice,27,128964,0.0-27.0,FALSE,FALSE,TRUE,TRUE,"""event"",""trial"",""time""
""fullscreenenter"",""5"",""19457""
","
","
","""event"",""trial"",""time""
""fullscreenenter"",""5"",""19457""
","
",357.8900000429712,NA,49,NA,NA,3000,1,2093.9450000296347,49,images/tutyellowplanet.jpg,null,images/tutalien3,null,images/tutalien3,images/t.png,NA,practice,null,NA,NA,NA,NA,sub47
d3-animate-choice,28,131125,0.0-28.0,FALSE,FALSE,TRUE,TRUE,"""event"",""trial"",""time""
""fullscreenenter"",""5"",""19457""
","
","
","""event"",""trial"",""time""
""fullscreenenter"",""5"",""19457""
","
",157.5600000214763,NA,49,NA,NA,3000,1,"395.06000000983477,1809.2300000134856",4949,images/tutyellowplanet.jpg,null,images/tutalien3,null,images/tutalien3,images/t.png,NA,practice,null,NA,NA,NA,NA,sub47
d3-animate-choice,29,133460,0.0-29.0,FALSE,FALSE,TRUE,TRUE,"""event"",""trial"",""time""
""fullscreenenter"",""5"",""19457""
","
","
","""event"",""trial"",""time""
""fullscreenenter"",""5"",""19457""
","
",332.5649999896996,NA,49,NA,NA,3000,1,NA,NA,images/tutyellowplanet.jpg,null,images/tutalien3,null,images/tutalien3,images/t.png,NA,practice,null,NA,NA,NA,NA,sub47
d3-instructions,30,135915,0.0-30.0,FALSE,FALSE,TRUE,TRUE,"""event"",""trial"",""time""
""fullscreenenter"",""5"",""19457""
","
","
","""event"",""trial"",""time""
""fullscreenenter"",""5"",""19457""
","
",NA,NA,NA,NA,NA,NA,NA,NA,NA,NA,NA,NA,NA,NA,NA,NA,NA,NA,NA,NA,NA,NA,sub47
d3-instructions,31,139049,0.0-31.0,FALSE,FALSE,TRUE,TRUE,"""event"",""trial"",""time""
""fullscreenenter"",""5"",""19457""
","
","
","""event"",""trial"",""time""
""fullscreenenter"",""5"",""19457""
","
",NA,NA,NA,NA,NA,NA,NA,NA,NA,NA,NA,NA,NA,NA,NA,NA,NA,NA,NA,NA,NA,NA,sub47
d3-instructions,32,141015,0.0-32.0,FALSE,FALSE,TRUE,TRUE,"""event"",""trial"",""time""
""fullscreenenter"",""5"",""19457""
","
","
","""event"",""trial"",""time""
""fullscreenenter"",""5"",""19457""
","
",NA,NA,NA,NA,NA,NA,NA,NA,NA,NA,NA,NA,NA,NA,NA,NA,NA,NA,NA,NA,NA,NA,sub47
d3-instructions,33,142618,0.0-33.0,FALSE,FALSE,TRUE,TRUE,"""event"",""trial"",""time""
""fullscreenenter"",""5"",""19457""
","
","
","""event"",""trial"",""time""
""fullscreenenter"",""5"",""19457""
","
",NA,NA,NA,NA,NA,NA,NA,NA,NA,NA,NA,NA,NA,NA,NA,NA,NA,NA,NA,NA,NA,NA,sub47
d3-animate-choice,34,145831,0.0-34.0,FALSE,FALSE,TRUE,TRUE,"""event"",""trial"",""time""
""fullscreenenter"",""5"",""19457""
","
","
","""event"",""trial"",""time""
""fullscreenenter"",""5"",""19457""
","
",1209.865000040736,NA,49,NA,NA,3000,1,NA,NA,images/tutgreenplanet.jpg,images/tutalien1,images/tutalien2,null,images/tutalien2,images/t.png,NA,practice,null,NA,NA,NA,NA,sub47
d3-animate-choice,35,148937,0.0-35.0,FALSE,FALSE,TRUE,TRUE,"""event"",""trial"",""time""
""fullscreenenter"",""5"",""19457""
","
","
","""event"",""trial"",""time""
""fullscreenenter"",""5"",""19457""
","
",1103.304999996908,NA,48,NA,NA,3000,1,NA,NA,images/tutgreenplanet.jpg,images/tutalien1,images/tutalien2,null,images/tutalien1,images/nothing.png,NA,practice,null,NA,NA,NA,NA,sub47
d3-animate-choice,36,151327,0.0-36.0,FALSE,FALSE,TRUE,TRUE,"""event"",""trial"",""time""
""fullscreenenter"",""5"",""19457""
","
","
","""event"",""trial"",""time""
""fullscreenenter"",""5"",""19457""
","
",387.334999977611,NA,49,NA,NA,3000,1,NA,NA,images/tutgreenplanet.jpg,images/tutalien1,images/tutalien2,null,images/tutalien2,images/t.png,NA,practice,null,NA,NA,NA,NA,sub47
d3-animate-choice,37,153642,0.0-37.0,FALSE,FALSE,TRUE,TRUE,"""event"",""trial"",""time""
""fullscreenenter"",""5"",""19457""
","
","
","""event"",""trial"",""time""
""fullscreenenter"",""5"",""19457""
","
",311.2500000279397,NA,49,NA,NA,3000,1,NA,NA,images/tutgreenplanet.jpg,images/tutalien1,images/tutalien2,null,images/tutalien2,images/t.png,NA,practice,null,NA,NA,NA,NA,sub47
d3-animate-choice,38,155917,0.0-38.0,FALSE,FALSE,TRUE,TRUE,"""event"",""trial"",""time""
""fullscreenenter"",""5"",""19457""
","
","
","""event"",""trial"",""time""
""fullscreenenter"",""5"",""19457""
","
",272.629999963101,NA,49,NA,NA,3000,1,NA,NA,images/tutgreenplanet.jpg,images/tutalien1,images/tutalien2,null,images/tutalien2,images/t.png,NA,practice,null,NA,NA,NA,NA,sub47
d3-animate-choice,39,157994,0.0-39.0,FALSE,FALSE,TRUE,TRUE,"""event"",""trial"",""time""
""fullscreenenter"",""5"",""19457""
","
","
","""event"",""trial"",""time""
""fullscreenenter"",""5"",""19457""
","
",72.36499997088686,NA,49,NA,NA,3000,1,202.4849999579601,49,images/tutgreenplanet.jpg,images/tutalien1,images/tutalien2,null,images/tutalien2,images/t.png,NA,practice,null,NA,NA,NA,NA,sub47
d3-animate-choice,40,160273,0.0-40.0,FALSE,FALSE,TRUE,TRUE,"""event"",""trial"",""time""
""fullscreenenter"",""5"",""19457""
","
","
","""event"",""trial"",""time""
""fullscreenenter"",""5"",""19457""
","
",274.61999998195097,NA,49,NA,NA,3000,1,1727.8949999599718,49,images/tutgreenplanet.jpg,images/tutalien1,images/tutalien2,null,images/tutalien2,images/t.png,NA,practice,null,NA,NA,NA,NA,sub47
d3-animate-choice,41,162470,0.0-41.0,FALSE,FALSE,TRUE,TRUE,"""event"",""trial"",""time""
""fullscreenenter"",""5"",""19457""
","
","
","""event"",""trial"",""time""
""fullscreenenter"",""5"",""19457""
","
",194.42500005243346,NA,49,NA,NA,3000,1,NA,NA,images/tutgreenplanet.jpg,images/tutalien1,images/tutalien2,null,images/tutalien2,images/t.png,NA,practice,null,NA,NA,NA,NA,sub47
d3-animate-choice,42,164968,0.0-42.0,FALSE,FALSE,TRUE,TRUE,"""event"",""trial"",""time""
""fullscreenenter"",""5"",""19457""
","
","
","""event"",""trial"",""time""
""fullscreenenter"",""5"",""19457""
","
",495.98500004503876,NA,49,NA,NA,3000,1,"1957.2850000113249,2227.3450000211596",4949,images/tutgreenplanet.jpg,images/tutalien1,images/tutalien2,null,images/tutalien2,images/t.png,NA,practice,null,NA,NA,NA,NA,sub47
d3-animate-choice,43,167028,0.0-43.0,FALSE,FALSE,TRUE,TRUE,"""event"",""trial"",""time""
""fullscreenenter"",""5"",""19457""
","
","
","""event"",""trial"",""time""
""fullscreenenter"",""5"",""19457""
","
",57.410000008530915,NA,49,NA,NA,3000,1,"582.4649999849498,918.2000000146218,1614.469999971334",494949,images/tutgreenplanet.jpg,images/tutalien1,images/tutalien2,null,images/tutalien2,images/t.png,NA,practice,null,NA,NA,NA,NA,sub47
d3-instructions,44,170314,0.0-44.0,FALSE,FALSE,TRUE,TRUE,"""event"",""trial"",""time""
""fullscreenenter"",""5"",""19457""
","
","
","""event"",""trial"",""time""
""fullscreenenter"",""5"",""19457""
","
",NA,NA,NA,NA,NA,NA,NA,NA,NA,NA,NA,NA,NA,NA,NA,NA,NA,NA,NA,NA,NA,NA,sub47
d3-instructions,45,173995,0.0-45.0,FALSE,FALSE,TRUE,TRUE,"""event"",""trial"",""time""
""fullscreenenter"",""5"",""19457""
","
","
","""event"",""trial"",""time""
""fullscreenenter"",""5"",""19457""
","
",NA,NA,NA,NA,NA,NA,NA,NA,NA,NA,NA,NA,NA,NA,NA,NA,NA,NA,NA,NA,NA,NA,sub47
d3-instructions,46,176526,0.0-46.0,FALSE,FALSE,TRUE,TRUE,"""event"",""trial"",""time""
""fullscreenenter"",""5"",""19457""
","
","
","""event"",""trial"",""time""
""fullscreenenter"",""5"",""19457""
","
",NA,NA,NA,NA,NA,NA,NA,NA,NA,NA,NA,NA,NA,NA,NA,NA,NA,NA,NA,NA,NA,NA,sub47
d3-instructions,47,178545,0.0-47.0,FALSE,FALSE,TRUE,TRUE,"""event"",""trial"",""time""
""fullscreenenter"",""5"",""19457""
","
","
","""event"",""trial"",""time""
""fullscreenenter"",""5"",""19457""
","
",NA,NA,NA,NA,NA,NA,NA,NA,NA,NA,NA,NA,NA,NA,NA,NA,NA,NA,NA,NA,NA,NA,sub47
d3-instructions,48,181495,0.0-48.0,FALSE,FALSE,TRUE,TRUE,"""event"",""trial"",""time""
""fullscreenenter"",""5"",""19457""
","
","
","""event"",""trial"",""time""
""fullscreenenter"",""5"",""19457""
","
",NA,NA,NA,NA,NA,NA,NA,NA,NA,NA,NA,NA,NA,NA,NA,NA,NA,NA,NA,NA,NA,NA,sub47
d3-instructions,49,182763,0.0-49.0,FALSE,FALSE,TRUE,TRUE,"""event"",""trial"",""time""
""fullscreenenter"",""5"",""19457""
","
","
","""event"",""trial"",""time""
""fullscreenenter"",""5"",""19457""
","
",NA,NA,NA,NA,NA,NA,NA,NA,NA,NA,NA,NA,NA,NA,NA,NA,NA,NA,NA,NA,NA,NA,sub47
d3-instructions,50,185399,0.0-50.0,FALSE,FALSE,TRUE,TRUE,"""event"",""trial"",""time""
""fullscreenenter"",""5"",""19457""
","
","
","""event"",""trial"",""time""
""fullscreenenter"",""5"",""19457""
","
",NA,NA,NA,NA,NA,NA,NA,NA,NA,NA,NA,NA,NA,NA,NA,NA,NA,NA,NA,NA,NA,NA,sub47
d3-instructions,51,187514,0.0-51.0,FALSE,FALSE,TRUE,TRUE,"""event"",""trial"",""time""
""fullscreenenter"",""5"",""19457""
","
","
","""event"",""trial"",""time""
""fullscreenenter"",""5"",""19457""
","
",NA,NA,NA,NA,NA,NA,NA,NA,NA,NA,NA,NA,NA,NA,NA,NA,NA,NA,NA,NA,NA,NA,sub47
d3-instructions,52,189264,0.0-52.0,FALSE,FALSE,TRUE,TRUE,"""event"",""trial"",""time""
""fullscreenenter"",""5"",""19457""
","
","
","""event"",""trial"",""time""
""fullscreenenter"",""5"",""19457""
","
",NA,NA,NA,NA,NA,NA,NA,NA,NA,NA,NA,NA,NA,NA,NA,NA,NA,NA,NA,NA,NA,NA,sub47
d3-instructions,53,191842,0.0-53.0,FALSE,FALSE,TRUE,TRUE,"""event"",""trial"",""time""
""fullscreenenter"",""5"",""19457""
","
","
","""event"",""trial"",""time""
""fullscreenenter"",""5"",""19457""
","
",NA,NA,NA,NA,NA,NA,NA,NA,NA,NA,NA,NA,NA,NA,NA,NA,NA,NA,NA,NA,NA,NA,sub47
d3-instructions,54,193341,0.0-54.0,FALSE,FALSE,TRUE,TRUE,"""event"",""trial"",""time""
""fullscreenenter"",""5"",""19457""
","
","
","""event"",""trial"",""time""
""fullscreenenter"",""5"",""19457""
","
",NA,NA,NA,NA,NA,NA,NA,NA,NA,NA,NA,NA,NA,NA,NA,NA,NA,NA,NA,NA,NA,NA,sub47
d3-instructions,55,195992,0.0-55.0,FALSE,FALSE,TRUE,TRUE,"""event"",""trial"",""time""
""fullscreenenter"",""5"",""19457""
","
","
","""event"",""trial"",""time""
""fullscreenenter"",""5"",""19457""
","
",NA,NA,NA,NA,NA,NA,NA,NA,NA,NA,NA,NA,NA,NA,NA,NA,NA,NA,NA,NA,NA,NA,sub47
d3-instructions,56,197536,0.0-56.0,FALSE,FALSE,TRUE,TRUE,"""event"",""trial"",""time""
""fullscreenenter"",""5"",""19457""
","
","
","""event"",""trial"",""time""
""fullscreenenter"",""5"",""19457""
","
",NA,NA,NA,NA,NA,NA,NA,NA,NA,NA,NA,NA,NA,NA,NA,NA,NA,NA,NA,NA,NA,NA,sub47
d3-instructions,57,200411,0.0-57.0,FALSE,FALSE,TRUE,TRUE,"""event"",""trial"",""time""
""fullscreenenter"",""5"",""19457""
","
","
","""event"",""trial"",""time""
""fullscreenenter"",""5"",""19457""
","
",NA,NA,NA,NA,NA,NA,NA,NA,NA,NA,NA,NA,NA,NA,NA,NA,NA,NA,NA,NA,NA,NA,sub47
d3-instructions,58,205199,0.0-58.0,FALSE,FALSE,TRUE,TRUE,"""event"",""trial"",""time""
""fullscreenenter"",""5"",""19457""
","
","
","""event"",""trial"",""time""
""fullscreenenter"",""5"",""19457""
","
",NA,NA,NA,NA,NA,NA,NA,NA,NA,NA,NA,NA,NA,NA,NA,NA,NA,NA,NA,NA,NA,NA,sub47
d3-instructions,59,207346,0.0-59.0,FALSE,FALSE,TRUE,TRUE,"""event"",""trial"",""time""
""fullscreenenter"",""5"",""19457""
","
","
","""event"",""trial"",""time""
""fullscreenenter"",""5"",""19457""
","
",NA,NA,NA,NA,NA,NA,NA,NA,NA,NA,NA,NA,NA,NA,NA,NA,NA,NA,NA,NA,NA,NA,sub47
d3-instructions,60,210802,0.0-60.0,FALSE,FALSE,TRUE,TRUE,"""event"",""trial"",""time""
""fullscreenenter"",""5"",""19457""
","
","
","""event"",""trial"",""time""
""fullscreenenter"",""5"",""19457""
","
",NA,NA,NA,NA,NA,NA,NA,NA,NA,NA,NA,NA,NA,NA,NA,NA,NA,NA,NA,NA,NA,NA,sub47
d3-animate-choice,61,213271,0.0-61.0-0.0,FALSE,FALSE,TRUE,TRUE,"""event"",""trial"",""time""
""fullscreenenter"",""5"",""19457""
","
","
","""event"",""trial"",""time""
""fullscreenenter"",""5"",""19457""
","
",465.68500000284985,NA,49,NA,NA,3000,1,NA,NA,images/earth.jpg,images/tutrocket1,images/tutrocket2,null,images/tutrocket2,NA,1,practice,null,1,NA,NA,NA,sub47
d3-animate-choice,62,215898,0.0-61.0-1.0,FALSE,FALSE,TRUE,TRUE,"""event"",""trial"",""time""
""fullscreenenter"",""5"",""19457""
","
","
","""event"",""trial"",""time""
""fullscreenenter"",""5"",""19457""
","
",621.6249999706633,NA,49,NA,NA,3000,1,NA,NA,images/tutgreenplanet.jpg,images/tutalien2,images/tutalien1,images/tutrocket2,images/tutalien1,images/nothing.png,2,practice,true,1,common,0,2020-06-23T14:23:36Z,sub47
two-step-fixation,63,216903,0.0-61.0-2.0,FALSE,FALSE,TRUE,TRUE,"""event"",""trial"",""time""
""fullscreenenter"",""5"",""19457""
","
","
","""event"",""trial"",""time""
""fullscreenenter"",""5"",""19457""
","
",NA,images/earth.jpg,NA,NA,NA,NA,NA,NA,NA,NA,NA,NA,NA,NA,NA,fixation,NA,NA,NA,NA,NA,NA,sub47
d3-animate-choice,64,219164,0.0-61.0-0.1,FALSE,FALSE,TRUE,TRUE,"""event"",""trial"",""time""
""fullscreenenter"",""5"",""19457""
","
","
","""event"",""trial"",""time""
""fullscreenenter"",""5"",""19457""
","
",258.85500002186745,NA,49,NA,NA,3000,1,NA,NA,images/earth.jpg,images/tutrocket1,images/tutrocket2,null,images/tutrocket2,NA,1,practice,null,1,NA,NA,NA,sub47
d3-animate-choice,65,221556,0.0-61.0-1.1,FALSE,FALSE,TRUE,TRUE,"""event"",""trial"",""time""
""fullscreenenter"",""5"",""19457""
","
","
","""event"",""trial"",""time""
""fullscreenenter"",""5"",""19457""
","
",389.15000000270084,NA,48,NA,NA,3000,1,NA,NA,images/tutyellowplanet.jpg,images/tutalien4,images/tutalien3,images/tutrocket2,images/tutalien4,images/nothing.png,2,practice,false,2,rare,0,2020-06-23T14:23:42Z,sub47
two-step-fixation,66,222560,0.0-61.0-2.1,FALSE,FALSE,TRUE,TRUE,"""event"",""trial"",""time""
""fullscreenenter"",""5"",""19457""
","
","
","""event"",""trial"",""time""
""fullscreenenter"",""5"",""19457""
","
",NA,images/earth.jpg,NA,NA,NA,NA,NA,NA,NA,NA,NA,NA,NA,NA,NA,fixation,NA,NA,NA,NA,NA,NA,sub47
d3-animate-choice,67,224710,0.0-61.0-0.2,FALSE,FALSE,TRUE,TRUE,"""event"",""trial"",""time""
""fullscreenenter"",""5"",""19457""
","
","
","""event"",""trial"",""time""
""fullscreenenter"",""5"",""19457""
","
",145.74999996693805,NA,49,NA,NA,3000,1,NA,NA,images/earth.jpg,images/tutrocket1,images/tutrocket2,null,images/tutrocket2,NA,1,practice,null,1,NA,NA,NA,sub47
d3-animate-choice,68,227500,0.0-61.0-1.2,FALSE,FALSE,TRUE,TRUE,"""event"",""trial"",""time""
""fullscreenenter"",""5"",""19457""
","
","
","""event"",""trial"",""time""
""fullscreenenter"",""5"",""19457""
","
",786.3849999848753,NA,49,NA,NA,3000,1,NA,NA,images/tutyellowplanet.jpg,images/tutalien4,images/tutalien3,images/tutrocket2,images/tutalien3,images/nothing.png,2,practice,false,1,rare,0,2020-06-23T14:23:48Z,sub47
two-step-fixation,69,228503,0.0-61.0-2.2,FALSE,FALSE,TRUE,TRUE,"""event"",""trial"",""time""
""fullscreenenter"",""5"",""19457""
","
","
","""event"",""trial"",""time""
""fullscreenenter"",""5"",""19457""
","
",NA,images/earth.jpg,NA,NA,NA,NA,NA,NA,NA,NA,NA,NA,NA,NA,NA,fixation,NA,NA,NA,NA,NA,NA,sub47
d3-animate-choice,70,230910,0.0-61.0-0.3,FALSE,FALSE,TRUE,TRUE,"""event"",""trial"",""time""
""fullscreenenter"",""5"",""19457""
","
","
","""event"",""trial"",""time""
""fullscreenenter"",""5"",""19457""
","
",404.7900000005029,NA,48,NA,NA,3000,1,NA,NA,images/earth.jpg,images/tutrocket1,images/tutrocket2,null,images/tutrocket1,NA,1,practice,null,2,NA,NA,NA,sub47
d3-animate-choice,71,233931,0.0-61.0-1.3,FALSE,FALSE,TRUE,TRUE,"""event"",""trial"",""time""
""fullscreenenter"",""5"",""19457""
","
","
","""event"",""trial"",""time""
""fullscreenenter"",""5"",""19457""
","
",1016.8599999742582,NA,49,NA,NA,3000,1,NA,NA,images/tutyellowplanet.jpg,images/tutalien4,images/tutalien3,images/tutrocket1,images/tutalien3,images/nothing.png,2,practice,true,1,common,0,2020-06-23T14:23:54Z,sub47
two-step-fixation,72,234933,0.0-61.0-2.3,FALSE,FALSE,TRUE,TRUE,"""event"",""trial"",""time""
""fullscreenenter"",""5"",""19457""
","
","
","""event"",""trial"",""time""
""fullscreenenter"",""5"",""19457""
","
",NA,images/earth.jpg,NA,NA,NA,NA,NA,NA,NA,NA,NA,NA,NA,NA,NA,fixation,NA,NA,NA,NA,NA,NA,sub47
d3-animate-choice,73,237302,0.0-61.0-0.4,FALSE,FALSE,TRUE,TRUE,"""event"",""trial"",""time""
""fullscreenenter"",""5"",""19457""
","
","
","""event"",""trial"",""time""
""fullscreenenter"",""5"",""19457""
","
",365.8900000154972,NA,49,NA,NA,3000,1,NA,NA,images/earth.jpg,images/tutrocket1,images/tutrocket2,null,images/tutrocket2,NA,1,practice,null,1,NA,NA,NA,sub47
d3-animate-choice,74,240802,0.0-61.0-1.4,FALSE,FALSE,TRUE,TRUE,"""event"",""trial"",""time""
""fullscreenenter"",""5"",""19457""
","
","
","""event"",""trial"",""time""
""fullscreenenter"",""5"",""19457""
","
",1496.4550000149757,NA,48,NA,NA,3000,1,NA,NA,images/tutyellowplanet.jpg,images/tutalien4,images/tutalien3,images/tutrocket2,images/tutalien4,images/nothing.png,2,practice,false,2,rare,0,2020-06-23T14:24:01Z,sub47
two-step-fixation,75,241805,0.0-61.0-2.4,FALSE,FALSE,TRUE,TRUE,"""event"",""trial"",""time""
""fullscreenenter"",""5"",""19457""
","
","
","""event"",""trial"",""time""
""fullscreenenter"",""5"",""19457""
","
",NA,images/earth.jpg,NA,NA,NA,NA,NA,NA,NA,NA,NA,NA,NA,NA,NA,fixation,NA,NA,NA,NA,NA,NA,sub47
d3-animate-choice,76,243864,0.0-61.0-0.5,FALSE,FALSE,TRUE,TRUE,"""event"",""trial"",""time""
""fullscreenenter"",""5"",""19457""
","
","
","""event"",""trial"",""time""
""fullscreenenter"",""5"",""19457""
","
",54.874999972525984,NA,49,NA,NA,3000,1,NA,NA,images/earth.jpg,images/tutrocket1,images/tutrocket2,null,images/tutrocket2,NA,1,practice,null,1,NA,NA,NA,sub47
d3-animate-choice,77,246800,0.0-61.0-1.5,FALSE,FALSE,TRUE,TRUE,"""event"",""trial"",""time""
""fullscreenenter"",""5"",""19457""
","
","
","""event"",""trial"",""time""
""fullscreenenter"",""5"",""19457""
","
",932.2850000462495,NA,48,NA,NA,3000,1,NA,NA,images/tutgreenplanet.jpg,images/tutalien2,images/tutalien1,images/tutrocket2,images/tutalien2,images/t.png,2,practice,true,2,common,1,2020-06-23T14:24:07Z,sub47
two-step-fixation,78,247803,0.0-61.0-2.5,FALSE,FALSE,TRUE,TRUE,"""event"",""trial"",""time""
""fullscreenenter"",""5"",""19457""
","
","
","""event"",""trial"",""time""
""fullscreenenter"",""5"",""19457""
","
",NA,images/earth.jpg,NA,NA,NA,NA,NA,NA,NA,NA,NA,NA,NA,NA,NA,fixation,NA,NA,NA,NA,NA,NA,sub47
d3-animate-choice,79,250058,0.0-61.0-0.6,FALSE,FALSE,TRUE,TRUE,"""event"",""trial"",""time""
""fullscreenenter"",""5"",""19457""
","
","
","""event"",""trial"",""time""
""fullscreenenter"",""5"",""19457""
","
",252.61500000488013,NA,49,NA,NA,3000,1,NA,NA,images/earth.jpg,images/tutrocket1,images/tutrocket2,null,images/tutrocket2,NA,1,practice,null,1,NA,NA,NA,sub47
d3-animate-choice,80,253034,0.0-61.0-1.6,FALSE,FALSE,TRUE,TRUE,"""event"",""trial"",""time""
""fullscreenenter"",""5"",""19457""
","
","
","""event"",""trial"",""time""
""fullscreenenter"",""5"",""19457""
","
",973.4700000262819,NA,49,NA,NA,3000,1,NA,NA,images/tutyellowplanet.jpg,images/tutalien4,images/tutalien3,images/tutrocket2,images/tutalien3,images/nothing.png,2,practice,false,1,rare,0,2020-06-23T14:24:13Z,sub47
two-step-fixation,81,254037,0.0-61.0-2.6,FALSE,FALSE,TRUE,TRUE,"""event"",""trial"",""time""
""fullscreenenter"",""5"",""19457""
","
","
","""event"",""trial"",""time""
""fullscreenenter"",""5"",""19457""
","
",NA,images/earth.jpg,NA,NA,NA,NA,NA,NA,NA,NA,NA,NA,NA,NA,NA,fixation,NA,NA,NA,NA,NA,NA,sub47
d3-animate-choice,82,256565,0.0-61.0-0.7,FALSE,FALSE,TRUE,TRUE,"""event"",""trial"",""time""
""fullscreenenter"",""5"",""19457""
","
","
","""event"",""trial"",""time""
""fullscreenenter"",""5"",""19457""
","
",525.1500000013039,NA,49,NA,NA,3000,1,NA,NA,images/earth.jpg,images/tutrocket1,images/tutrocket2,null,images/tutrocket2,NA,1,practice,null,1,NA,NA,NA,sub47
d3-animate-choice,83,259274,0.0-61.0-1.7,FALSE,FALSE,TRUE,TRUE,"""event"",""trial"",""time""
""fullscreenenter"",""5"",""19457""
","
","
","""event"",""trial"",""time""
""fullscreenenter"",""5"",""19457""
","
",705.3900000173599,NA,48,NA,NA,3000,1,NA,NA,images/tutgreenplanet.jpg,images/tutalien2,images/tutalien1,images/tutrocket2,images/tutalien2,images/nothing.png,2,practice,true,2,common,0,2020-06-23T14:24:19Z,sub47
two-step-fixation,84,260277,0.0-61.0-2.7,FALSE,FALSE,TRUE,TRUE,"""event"",""trial"",""time""
""fullscreenenter"",""5"",""19457""
","
","
","""event"",""trial"",""time""
""fullscreenenter"",""5"",""19457""
","
",NA,images/earth.jpg,NA,NA,NA,NA,NA,NA,NA,NA,NA,NA,NA,NA,NA,fixation,NA,NA,NA,NA,NA,NA,sub47
d3-animate-choice,85,262357,0.0-61.0-0.8,FALSE,FALSE,TRUE,TRUE,"""event"",""trial"",""time""
""fullscreenenter"",""5"",""19457""
","
","
","""event"",""trial"",""time""
""fullscreenenter"",""5"",""19457""
","
",77.41000002715737,NA,49,NA,NA,3000,1,NA,NA,images/earth.jpg,images/tutrocket1,images/tutrocket2,null,images/tutrocket2,NA,1,practice,null,1,NA,NA,NA,sub47
d3-animate-choice,86,266005,0.0-61.0-1.8,FALSE,FALSE,TRUE,TRUE,"""event"",""trial"",""time""
""fullscreenenter"",""5"",""19457""
","
","
","""event"",""trial"",""time""
""fullscreenenter"",""5"",""19457""
","
",1644.4899999769405,NA,48,NA,NA,3000,1,NA,NA,images/tutyellowplanet.jpg,images/tutalien4,images/tutalien3,images/tutrocket2,images/tutalien4,images/t.png,2,practice,false,2,rare,1,2020-06-23T14:24:26Z,sub47
two-step-fixation,87,267007,0.0-61.0-2.8,FALSE,FALSE,TRUE,TRUE,"""event"",""trial"",""time""
""fullscreenenter"",""5"",""19457""
","
","
","""event"",""trial"",""time""
""fullscreenenter"",""5"",""19457""
","
",NA,images/earth.jpg,NA,NA,NA,NA,NA,NA,NA,NA,NA,NA,NA,NA,NA,fixation,NA,NA,NA,NA,NA,NA,sub47
d3-animate-choice,88,269341,0.0-61.0-0.9,FALSE,FALSE,TRUE,TRUE,"""event"",""trial"",""time""
""fullscreenenter"",""5"",""19457""
","
","
","""event"",""trial"",""time""
""fullscreenenter"",""5"",""19457""
","
",330.5500000133179,NA,49,NA,NA,3000,1,NA,NA,images/earth.jpg,images/tutrocket1,images/tutrocket2,null,images/tutrocket2,NA,1,practice,null,1,NA,NA,NA,sub47
d3-animate-choice,89,272369,0.0-61.0-1.9,FALSE,FALSE,TRUE,TRUE,"""event"",""trial"",""time""
""fullscreenenter"",""5"",""19457""
","
","
","""event"",""trial"",""time""
""fullscreenenter"",""5"",""19457""
","
",1025.1700000371784,NA,48,NA,NA,3000,1,NA,NA,images/tutgreenplanet.jpg,images/tutalien2,images/tutalien1,images/tutrocket2,images/tutalien2,images/t.png,2,practice,true,2,common,1,2020-06-23T14:24:32Z,sub47
two-step-fixation,90,273371,0.0-61.0-2.9,FALSE,FALSE,TRUE,TRUE,"""event"",""trial"",""time""
""fullscreenenter"",""5"",""19457""
","
","
","""event"",""trial"",""time""
""fullscreenenter"",""5"",""19457""
","
",NA,images/earth.jpg,NA,NA,NA,NA,NA,NA,NA,NA,NA,NA,NA,NA,NA,fixation,NA,NA,NA,NA,NA,NA,sub47
d3-animate-choice,91,275708,0.0-61.0-0.10,FALSE,FALSE,TRUE,TRUE,"""event"",""trial"",""time""
""fullscreenenter"",""5"",""19457""
","
","
","""event"",""trial"",""time""
""fullscreenenter"",""5"",""19457""
","
",334.7199999843724,NA,49,NA,NA,3000,1,NA,NA,images/earth.jpg,images/tutrocket1,images/tutrocket2,null,images/tutrocket2,NA,1,practice,null,1,NA,NA,NA,sub47
d3-animate-choice,92,278284,0.0-61.0-1.10,FALSE,FALSE,TRUE,TRUE,"""event"",""trial"",""time""
""fullscreenenter"",""5"",""19457""
","
","
","""event"",""trial"",""time""
""fullscreenenter"",""5"",""19457""
","
",573.3000000473112,NA,48,NA,NA,3000,1,NA,NA,images/tutgreenplanet.jpg,images/tutalien2,images/tutalien1,images/tutrocket2,images/tutalien2,images/t.png,2,practice,true,2,common,1,2020-06-23T14:24:38Z,sub47
two-step-fixation,93,279287,0.0-61.0-2.10,FALSE,FALSE,TRUE,TRUE,"""event"",""trial"",""time""
""fullscreenenter"",""5"",""19457""
","
","
","""event"",""trial"",""time""
""fullscreenenter"",""5"",""19457""
","
",NA,images/earth.jpg,NA,NA,NA,NA,NA,NA,NA,NA,NA,NA,NA,NA,NA,fixation,NA,NA,NA,NA,NA,NA,sub47
d3-animate-choice,94,281478,0.0-61.0-0.11,FALSE,FALSE,TRUE,TRUE,"""event"",""trial"",""time""
""fullscreenenter"",""5"",""19457""
","
","
","""event"",""trial"",""time""
""fullscreenenter"",""5"",""19457""
","
",187.32000002637506,NA,49,NA,NA,3000,1,NA,NA,images/earth.jpg,images/tutrocket1,images/tutrocket2,null,images/tutrocket2,NA,1,practice,null,1,NA,NA,NA,sub47
d3-animate-choice,95,283874,0.0-61.0-1.11,FALSE,FALSE,TRUE,TRUE,"""event"",""trial"",""time""
""fullscreenenter"",""5"",""19457""
","
","
","""event"",""trial"",""time""
""fullscreenenter"",""5"",""19457""
","
",391.6199999512173,NA,48,NA,NA,3000,1,NA,NA,images/tutgreenplanet.jpg,images/tutalien2,images/tutalien1,images/tutrocket2,images/tutalien2,images/nothing.png,2,practice,true,2,common,0,2020-06-23T14:24:44Z,sub47
two-step-fixation,96,284877,0.0-61.0-2.11,FALSE,FALSE,TRUE,TRUE,"""event"",""trial"",""time""
""fullscreenenter"",""5"",""19457""
","
","
","""event"",""trial"",""time""
""fullscreenenter"",""5"",""19457""
","
",NA,images/earth.jpg,NA,NA,NA,NA,NA,NA,NA,NA,NA,NA,NA,NA,NA,fixation,NA,NA,NA,NA,NA,NA,sub47
d3-animate-choice,97,287513,0.0-61.0-0.12,FALSE,FALSE,TRUE,TRUE,"""event"",""trial"",""time""
""fullscreenenter"",""5"",""19457""
","
","
","""event"",""trial"",""time""
""fullscreenenter"",""5"",""19457""
","
",633.0999999772757,NA,49,NA,NA,3000,1,NA,NA,images/earth.jpg,images/tutrocket1,images/tutrocket2,null,images/tutrocket2,NA,1,practice,null,1,NA,NA,NA,sub47
d3-animate-choice,98,289883,0.0-61.0-1.12,FALSE,FALSE,TRUE,TRUE,"""event"",""trial"",""time""
""fullscreenenter"",""5"",""19457""
","
","
","""event"",""trial"",""time""
""fullscreenenter"",""5"",""19457""
","
",367.6749999867752,NA,48,NA,NA,3000,1,NA,NA,images/tutgreenplanet.jpg,images/tutalien2,images/tutalien1,images/tutrocket2,images/tutalien2,images/nothing.png,2,practice,true,2,common,0,2020-06-23T14:24:50Z,sub47
two-step-fixation,99,290886,0.0-61.0-2.12,FALSE,FALSE,TRUE,TRUE,"""event"",""trial"",""time""
""fullscreenenter"",""5"",""19457""
","
","
","""event"",""trial"",""time""
""fullscreenenter"",""5"",""19457""
","
",NA,images/earth.jpg,NA,NA,NA,NA,NA,NA,NA,NA,NA,NA,NA,NA,NA,fixation,NA,NA,NA,NA,NA,NA,sub47
d3-animate-choice,100,293916,0.0-61.0-0.13,FALSE,FALSE,TRUE,TRUE,"""event"",""trial"",""time""
""fullscreenenter"",""5"",""19457""
","
","
","""event"",""trial"",""time""
""fullscreenenter"",""5"",""19457""
","
",1026.015000010375,NA,49,NA,NA,3000,1,NA,NA,images/earth.jpg,images/tutrocket1,images/tutrocket2,null,images/tutrocket2,NA,1,practice,null,1,NA,NA,NA,sub47
d3-animate-choice,101,297082,0.0-61.0-1.13,FALSE,FALSE,TRUE,TRUE,"""event"",""trial"",""time""
""fullscreenenter"",""5"",""19457""
","
","
","""event"",""trial"",""time""
""fullscreenenter"",""5"",""19457""
","
",1161.4199999603443,NA,48,NA,NA,3000,1,NA,NA,images/tutyellowplanet.jpg,images/tutalien4,images/tutalien3,images/tutrocket2,images/tutalien4,images/t.png,2,practice,false,2,rare,1,2020-06-23T14:24:57Z,sub47
two-step-fixation,102,298084,0.0-61.0-2.13,FALSE,FALSE,TRUE,TRUE,"""event"",""trial"",""time""
""fullscreenenter"",""5"",""19457""
","
","
","""event"",""trial"",""time""
""fullscreenenter"",""5"",""19457""
","
",NA,images/earth.jpg,NA,NA,NA,NA,NA,NA,NA,NA,NA,NA,NA,NA,NA,fixation,NA,NA,NA,NA,NA,NA,sub47
d3-animate-choice,103,300418,0.0-61.0-0.14,FALSE,FALSE,TRUE,TRUE,"""event"",""trial"",""time""
""fullscreenenter"",""5"",""19457""
","
","
","""event"",""trial"",""time""
""fullscreenenter"",""5"",""19457""
","
",331.63000002969056,NA,49,NA,NA,3000,1,NA,NA,images/earth.jpg,images/tutrocket1,images/tutrocket2,null,images/tutrocket2,NA,1,practice,null,1,NA,NA,NA,sub47
d3-animate-choice,104,303899,0.0-61.0-1.14,FALSE,FALSE,TRUE,TRUE,"""event"",""trial"",""time""
""fullscreenenter"",""5"",""19457""
","
","
","""event"",""trial"",""time""
""fullscreenenter"",""5"",""19457""
","
",1477.2000000230037,NA,48,NA,NA,3000,1,NA,NA,images/tutgreenplanet.jpg,images/tutalien2,images/tutalien1,images/tutrocket2,images/tutalien2,images/t.png,2,practice,true,2,common,1,2020-06-23T14:25:04Z,sub47
two-step-fixation,105,304903,0.0-61.0-2.14,FALSE,FALSE,TRUE,TRUE,"""event"",""trial"",""time""
""fullscreenenter"",""5"",""19457""
","
","
","""event"",""trial"",""time""
""fullscreenenter"",""5"",""19457""
","
",NA,images/earth.jpg,NA,NA,NA,NA,NA,NA,NA,NA,NA,NA,NA,NA,NA,fixation,NA,NA,NA,NA,NA,NA,sub47
d3-animate-choice,106,307565,0.0-61.0-0.15,FALSE,FALSE,TRUE,TRUE,"""event"",""trial"",""time""
""fullscreenenter"",""5"",""19457""
","
","
","""event"",""trial"",""time""
""fullscreenenter"",""5"",""19457""
","
",658.6999999708496,NA,49,NA,NA,3000,1,NA,NA,images/earth.jpg,images/tutrocket1,images/tutrocket2,null,images/tutrocket2,NA,1,practice,null,1,NA,NA,NA,sub47
d3-animate-choice,107,311116,0.0-61.0-1.15,FALSE,FALSE,TRUE,TRUE,"""event"",""trial"",""time""
""fullscreenenter"",""5"",""19457""
","
","
","""event"",""trial"",""time""
""fullscreenenter"",""5"",""19457""
","
",1548.3649999951012,NA,48,NA,NA,3000,1,NA,NA,images/tutgreenplanet.jpg,images/tutalien2,images/tutalien1,images/tutrocket2,images/tutalien2,images/t.png,2,practice,true,2,common,1,2020-06-23T14:25:11Z,sub47
two-step-fixation,108,312118,0.0-61.0-2.15,FALSE,FALSE,TRUE,TRUE,"""event"",""trial"",""time""
""fullscreenenter"",""5"",""19457""
","
","
","""event"",""trial"",""time""
""fullscreenenter"",""5"",""19457""
","
",NA,images/earth.jpg,NA,NA,NA,NA,NA,NA,NA,NA,NA,NA,NA,NA,NA,fixation,NA,NA,NA,NA,NA,NA,sub47
d3-animate-choice,109,315325,0.0-61.0-0.16,FALSE,FALSE,TRUE,TRUE,"""event"",""trial"",""time""
""fullscreenenter"",""5"",""19457""
","
","
","""event"",""trial"",""time""
""fullscreenenter"",""5"",""19457""
","
",1202.7499999967404,NA,49,NA,NA,3000,1,NA,NA,images/earth.jpg,images/tutrocket1,images/tutrocket2,null,images/tutrocket2,NA,1,practice,null,1,NA,NA,NA,sub47
d3-animate-choice,110,317928,0.0-61.0-1.16,FALSE,FALSE,TRUE,TRUE,"""event"",""trial"",""time""
""fullscreenenter"",""5"",""19457""
","
","
","""event"",""trial"",""time""
""fullscreenenter"",""5"",""19457""
","
",599.3550000130199,NA,48,NA,NA,3000,1,779.0600000298582,32,images/tutgreenplanet.jpg,images/tutalien2,images/tutalien1,images/tutrocket2,images/tutalien2,images/t.png,2,practice,true,2,common,1,2020-06-23T14:25:18Z,sub47
two-step-fixation,111,318931,0.0-61.0-2.16,FALSE,FALSE,TRUE,TRUE,"""event"",""trial"",""time""
""fullscreenenter"",""5"",""19457""
","
","
","""event"",""trial"",""time""
""fullscreenenter"",""5"",""19457""
","
",NA,images/earth.jpg,NA,NA,NA,NA,NA,NA,NA,NA,NA,NA,NA,NA,NA,fixation,NA,NA,NA,NA,NA,NA,sub47
d3-animate-choice,112,321708,0.0-61.0-0.17,FALSE,FALSE,TRUE,TRUE,"""event"",""trial"",""time""
""fullscreenenter"",""5"",""19457""
","
","
","""event"",""trial"",""time""
""fullscreenenter"",""5"",""19457""
","
",772.5249999784864,NA,49,NA,NA,3000,1,NA,NA,images/earth.jpg,images/tutrocket1,images/tutrocket2,null,images/tutrocket2,NA,1,practice,null,1,NA,NA,NA,sub47
d3-animate-choice,113,324298,0.0-61.0-1.17,FALSE,FALSE,TRUE,TRUE,"""event"",""trial"",""time""
""fullscreenenter"",""5"",""19457""
","
","
","""event"",""trial"",""time""
""fullscreenenter"",""5"",""19457""
","
",586.4849999779835,NA,48,NA,NA,3000,1,NA,NA,images/tutgreenplanet.jpg,images/tutalien2,images/tutalien1,images/tutrocket2,images/tutalien2,images/nothing.png,2,practice,true,2,common,0,2020-06-23T14:25:24Z,sub47
two-step-fixation,114,325301,0.0-61.0-2.17,FALSE,FALSE,TRUE,TRUE,"""event"",""trial"",""time""
""fullscreenenter"",""5"",""19457""
","
","
","""event"",""trial"",""time""
""fullscreenenter"",""5"",""19457""
","
",NA,images/earth.jpg,NA,NA,NA,NA,NA,NA,NA,NA,NA,NA,NA,NA,NA,fixation,NA,NA,NA,NA,NA,NA,sub47
d3-animate-choice,115,327728,0.0-61.0-0.18,FALSE,FALSE,TRUE,TRUE,"""event"",""trial"",""time""
""fullscreenenter"",""5"",""19457""
","
","
","""event"",""trial"",""time""
""fullscreenenter"",""5"",""19457""
","
",424.34999998658895,NA,49,NA,NA,3000,1,NA,NA,images/earth.jpg,images/tutrocket1,images/tutrocket2,null,images/tutrocket2,NA,1,practice,null,1,NA,NA,NA,sub47
d3-animate-choice,116,331122,0.0-61.0-1.18,FALSE,FALSE,TRUE,TRUE,"""event"",""trial"",""time""
""fullscreenenter"",""5"",""19457""
","
","
","""event"",""trial"",""time""
""fullscreenenter"",""5"",""19457""
","
",1392.055000003893,NA,48,NA,NA,3000,1,2612.340000050608,48,images/tutgreenplanet.jpg,images/tutalien2,images/tutalien1,images/tutrocket2,images/tutalien2,images/nothing.png,2,practice,true,2,common,0,2020-06-23T14:25:31Z,sub47
two-step-fixation,117,332126,0.0-61.0-2.18,FALSE,FALSE,TRUE,TRUE,"""event"",""trial"",""time""
""fullscreenenter"",""5"",""19457""
","
","
","""event"",""trial"",""time""
""fullscreenenter"",""5"",""19457""
","
",NA,images/earth.jpg,NA,NA,NA,NA,NA,NA,NA,NA,NA,NA,NA,NA,NA,fixation,NA,NA,NA,NA,NA,NA,sub47
d3-animate-choice,118,334936,0.0-61.0-0.19,FALSE,FALSE,TRUE,TRUE,"""event"",""trial"",""time""
""fullscreenenter"",""5"",""19457""
","
","
","""event"",""trial"",""time""
""fullscreenenter"",""5"",""19457""
","
",808.0250000348315,NA,49,NA,NA,3000,1,NA,NA,images/earth.jpg,images/tutrocket1,images/tutrocket2,null,images/tutrocket2,NA,1,practice,null,1,NA,NA,NA,sub47
d3-animate-choice,119,337358,0.0-61.0-1.19,FALSE,FALSE,TRUE,TRUE,"""event"",""trial"",""time""
""fullscreenenter"",""5"",""19457""
","
","
","""event"",""trial"",""time""
""fullscreenenter"",""5"",""19457""
","
",418.0000000051223,NA,49,NA,NA,3000,1,NA,NA,images/tutyellowplanet.jpg,images/tutalien4,images/tutalien3,images/tutrocket2,images/tutalien3,images/nothing.png,2,practice,false,1,rare,0,2020-06-23T14:25:37Z,sub47
two-step-fixation,120,338361,0.0-61.0-2.19,FALSE,FALSE,TRUE,TRUE,"""event"",""trial"",""time""
""fullscreenenter"",""5"",""19457""
","
","
","""event"",""trial"",""time""
""fullscreenenter"",""5"",""19457""
","
",NA,images/earth.jpg,NA,NA,NA,NA,NA,NA,NA,NA,NA,NA,NA,NA,NA,fixation,NA,NA,NA,NA,NA,NA,sub47
d3-instructions,121,344146,0.0-62.0,FALSE,FALSE,TRUE,TRUE,"""event"",""trial"",""time""
""fullscreenenter"",""5"",""19457""
","
","
","""event"",""trial"",""time""
""fullscreenenter"",""5"",""19457""
","
",NA,NA,NA,NA,NA,NA,NA,NA,NA,NA,NA,NA,NA,NA,NA,NA,NA,NA,NA,NA,NA,NA,sub47
audio-keyboard-response,122,354843,0.0-63.0,FALSE,FALSE,TRUE,TRUE,"""event"",""trial"",""time""
""fullscreenenter"",""5"",""19457""
","
","
","""event"",""trial"",""time""
""fullscreenenter"",""5"",""19457""
","
",10701,audio/instructions/treasure_feedback.wav,32,NA,NA,NA,NA,NA,NA,NA,NA,NA,NA,NA,NA,NA,NA,NA,NA,NA,NA,NA,sub47
d3-instructions,123,357544,0.0-64.0,FALSE,FALSE,TRUE,TRUE,"""event"",""trial"",""time""
""fullscreenenter"",""5"",""19457""
","
","
","""event"",""trial"",""time""
""fullscreenenter"",""5"",""19457""
","
",NA,NA,NA,NA,NA,NA,NA,NA,NA,NA,NA,NA,NA,NA,NA,NA,NA,NA,NA,NA,NA,NA,sub47
d3-instructions,124,362348,0.0-65.0,FALSE,FALSE,TRUE,TRUE,"""event"",""trial"",""time""
""fullscreenenter"",""5"",""19457""
","
","
","""event"",""trial"",""time""
""fullscreenenter"",""5"",""19457""
","
",NA,NA,NA,NA,NA,NA,NA,NA,NA,NA,NA,NA,NA,NA,NA,NA,NA,NA,NA,NA,NA,NA,sub47
d3-instructions,125,364126,0.0-66.0,FALSE,FALSE,TRUE,TRUE,"""event"",""trial"",""time""
""fullscreenenter"",""5"",""19457""
","
","
","""event"",""trial"",""time""
""fullscreenenter"",""5"",""19457""
","
",NA,NA,NA,NA,NA,NA,NA,NA,NA,NA,NA,NA,NA,NA,NA,NA,NA,NA,NA,NA,NA,NA,sub47
d3-instructions,126,365334,0.0-67.0,FALSE,FALSE,TRUE,TRUE,"""event"",""trial"",""time""
""fullscreenenter"",""5"",""19457""
","
","
","""event"",""trial"",""time""
""fullscreenenter"",""5"",""19457""
","
",NA,NA,NA,NA,NA,NA,NA,NA,NA,NA,NA,NA,NA,NA,NA,NA,NA,NA,NA,NA,NA,NA,sub47
d3-instructions,127,367515,0.0-68.0,FALSE,FALSE,TRUE,TRUE,"""event"",""trial"",""time""
""fullscreenenter"",""5"",""19457""
","
","
","""event"",""trial"",""time""
""fullscreenenter"",""5"",""19457""
","
",NA,NA,NA,NA,NA,NA,NA,NA,NA,NA,NA,NA,NA,NA,NA,NA,NA,NA,NA,NA,NA,NA,sub47
instructions-quiz,128,371019,0.0-69.0,FALSE,FALSE,TRUE,TRUE,"""event"",""trial"",""time""
""fullscreenenter"",""5"",""19457""
","
","
","""event"",""trial"",""time""
""fullscreenenter"",""5"",""19457""
","
",3502.5749999913387,audio/quiz/Q1_Prompt.wav,NA,1,NA,NA,NA,NA,NA,NA,NA,NA,NA,NA,NA,NA,NA,NA,NA,NA,NA,NA,sub47
audio-keyboard-response,129,374534,0.0-70.0,FALSE,FALSE,TRUE,TRUE,"""event"",""trial"",""time""
""fullscreenenter"",""5"",""19457""
","
","
","""event"",""trial"",""time""
""fullscreenenter"",""5"",""19457""
","
",3520,audio/quiz/Q1_Correct.wav,32,NA,NA,NA,NA,NA,NA,NA,NA,NA,NA,NA,NA,NA,NA,NA,NA,NA,NA,NA,sub47
instructions-quiz,130,379955,0.0-71.0,FALSE,FALSE,TRUE,TRUE,"""event"",""trial"",""time""
""fullscreenenter"",""5"",""19457""
","
","
","""event"",""trial"",""time""
""fullscreenenter"",""5"",""19457""
","
",5419.920000014827,audio/quiz/Q2_Prompt.wav,NA,0,NA,NA,NA,NA,NA,NA,NA,NA,NA,NA,NA,NA,NA,NA,NA,NA,NA,NA,sub47
audio-keyboard-response,131,381023,0.0-72.0,FALSE,FALSE,TRUE,TRUE,"""event"",""trial"",""time""
""fullscreenenter"",""5"",""19457""
","
","
","""event"",""trial"",""time""
""fullscreenenter"",""5"",""19457""
","
",1069,audio/quiz/Q2_Correct.wav,32,NA,NA,NA,NA,NA,NA,NA,NA,NA,NA,NA,NA,NA,NA,NA,NA,NA,NA,NA,sub47
instructions-quiz,132,384630,0.0-73.0,FALSE,FALSE,TRUE,TRUE,"""event"",""trial"",""time""
""fullscreenenter"",""5"",""19457""
","
","
","""event"",""trial"",""time""
""fullscreenenter"",""5"",""19457""
","
",3605.2500000223517,audio/quiz/Q3_Prompt.wav,NA,1,NA,NA,NA,NA,NA,NA,NA,NA,NA,NA,NA,NA,NA,NA,NA,NA,NA,NA,sub47
audio-keyboard-response,133,384782,0.0-74.0,FALSE,FALSE,TRUE,TRUE,"""event"",""trial"",""time""
""fullscreenenter"",""5"",""19457""
","
","
","""event"",""trial"",""time""
""fullscreenenter"",""5"",""19457""
","
",160,audio/quiz/Q3_Correct.wav,32,NA,NA,NA,NA,NA,NA,NA,NA,NA,NA,NA,NA,NA,NA,NA,NA,NA,NA,NA,sub47
d3-instructions,134,386578,0.0-75.0,FALSE,FALSE,TRUE,TRUE,"""event"",""trial"",""time""
""fullscreenenter"",""5"",""19457""
","
","
","""event"",""trial"",""time""
""fullscreenenter"",""5"",""19457""
","
",NA,NA,NA,NA,NA,NA,NA,NA,NA,NA,NA,NA,NA,NA,NA,NA,NA,NA,NA,NA,NA,NA,sub47
d3-animate-choice,135,390148,0.0-76.0-0.0,FALSE,FALSE,TRUE,TRUE,"""event"",""trial"",""time""
""fullscreenenter"",""5"",""19457""
","
","
","""event"",""trial"",""time""
""fullscreenenter"",""5"",""19457""
","
",1567.8800000459887,NA,49,NA,NA,3000,1,NA,NA,images/earth.jpg,images/rocket1,images/rocket2,null,images/rocket2,NA,1,real,null,1,NA,NA,NA,sub47
d3-animate-choice,136,393113,0.0-76.0-1.0,FALSE,FALSE,TRUE,TRUE,"""event"",""trial"",""time""
""fullscreenenter"",""5"",""19457""
","
","
","""event"",""trial"",""time""
""fullscreenenter"",""5"",""19457""
","
",962.0649999706075,NA,49,NA,NA,3000,1,NA,NA,images/purpleplanet.jpg,images/alien4,images/alien3,images/rocket2,images/alien3,images/nothing.png,2,real,false,1,rare,0,2020-06-23T14:26:33Z,sub47
two-step-fixation,137,394116,0.0-76.0-2.0,FALSE,FALSE,TRUE,TRUE,"""event"",""trial"",""time""
""fullscreenenter"",""5"",""19457""
","
","
","""event"",""trial"",""time""
""fullscreenenter"",""5"",""19457""
","
",NA,images/earth.jpg,NA,NA,NA,NA,NA,NA,NA,NA,NA,NA,NA,NA,NA,fixation,NA,NA,NA,NA,NA,NA,sub47
d3-animate-choice,138,397175,0.0-76.0-0.1,FALSE,FALSE,TRUE,TRUE,"""event"",""trial"",""time""
""fullscreenenter"",""5"",""19457""
","
","
","""event"",""trial"",""time""
""fullscreenenter"",""5"",""19457""
","
",1055.6150000193156,NA,48,NA,NA,3000,1,NA,NA,images/earth.jpg,images/rocket1,images/rocket2,null,images/rocket1,NA,1,real,null,2,NA,NA,NA,sub47
d3-animate-choice,139,400559,0.0-76.0-1.1,FALSE,FALSE,TRUE,TRUE,"""event"",""trial"",""time""
""fullscreenenter"",""5"",""19457""
","
","
","""event"",""trial"",""time""
""fullscreenenter"",""5"",""19457""
","
",1381.389999995008,NA,48,NA,NA,3000,1,NA,NA,images/purpleplanet.jpg,images/alien4,images/alien3,images/rocket1,images/alien4,images/t.png,2,real,true,2,common,1,2020-06-23T14:26:41Z,sub47
two-step-fixation,140,401562,0.0-76.0-2.1,FALSE,FALSE,TRUE,TRUE,"""event"",""trial"",""time""
""fullscreenenter"",""5"",""19457""
","
","
","""event"",""trial"",""time""
""fullscreenenter"",""5"",""19457""
","
",NA,images/earth.jpg,NA,NA,NA,NA,NA,NA,NA,NA,NA,NA,NA,NA,NA,fixation,NA,NA,NA,NA,NA,NA,sub47
d3-animate-choice,141,403605,0.0-76.0-0.2,FALSE,FALSE,TRUE,TRUE,"""event"",""trial"",""time""
""fullscreenenter"",""5"",""19457""
","
","
","""event"",""trial"",""time""
""fullscreenenter"",""5"",""19457""
","
",40.24000000208616,NA,49,NA,NA,3000,1,NA,NA,images/earth.jpg,images/rocket1,images/rocket2,null,images/rocket2,NA,1,real,null,1,NA,NA,NA,sub47
d3-animate-choice,142,407348,0.0-76.0-1.2,FALSE,FALSE,TRUE,TRUE,"""event"",""trial"",""time""
""fullscreenenter"",""5"",""19457""
","
","
","""event"",""trial"",""time""
""fullscreenenter"",""5"",""19457""
","
",1739.2649999819696,NA,49,NA,NA,3000,1,NA,NA,images/redplanet1.jpg,images/alien2,images/alien1,images/rocket2,images/alien1,images/nothing.png,2,real,true,1,common,0,2020-06-23T14:26:47Z,sub47
two-step-fixation,143,408350,0.0-76.0-2.2,FALSE,FALSE,TRUE,TRUE,"""event"",""trial"",""time""
""fullscreenenter"",""5"",""19457""
","
","
","""event"",""trial"",""time""
""fullscreenenter"",""5"",""19457""
","
",NA,images/earth.jpg,NA,NA,NA,NA,NA,NA,NA,NA,NA,NA,NA,NA,NA,fixation,NA,NA,NA,NA,NA,NA,sub47
d3-animate-choice,144,410700,0.0-76.0-0.3,FALSE,FALSE,TRUE,TRUE,"""event"",""trial"",""time""
""fullscreenenter"",""5"",""19457""
","
","
","""event"",""trial"",""time""
""fullscreenenter"",""5"",""19457""
","
",346.0550000309013,NA,49,NA,NA,3000,1,NA,NA,images/earth.jpg,images/rocket1,images/rocket2,null,images/rocket2,NA,1,real,null,1,NA,NA,NA,sub47
d3-animate-choice,145,413558,0.0-76.0-1.3,FALSE,FALSE,TRUE,TRUE,"""event"",""trial"",""time""
""fullscreenenter"",""5"",""19457""
","
","
","""event"",""trial"",""time""
""fullscreenenter"",""5"",""19457""
","
",854.8650000011548,NA,48,NA,NA,3000,1,NA,NA,images/purpleplanet.jpg,images/alien4,images/alien3,images/rocket2,images/alien4,images/nothing.png,2,real,false,2,rare,0,2020-06-23T14:26:54Z,sub47
two-step-fixation,146,414561,0.0-76.0-2.3,FALSE,FALSE,TRUE,TRUE,"""event"",""trial"",""time""
""fullscreenenter"",""5"",""19457""
","
","
","""event"",""trial"",""time""
""fullscreenenter"",""5"",""19457""
","
",NA,images/earth.jpg,NA,NA,NA,NA,NA,NA,NA,NA,NA,NA,NA,NA,NA,fixation,NA,NA,NA,NA,NA,NA,sub47
d3-animate-choice,147,417473,0.0-76.0-0.4,FALSE,FALSE,TRUE,TRUE,"""event"",""trial"",""time""
""fullscreenenter"",""5"",""19457""
","
","
","""event"",""trial"",""time""
""fullscreenenter"",""5"",""19457""
","
",907.3300000163727,NA,49,NA,NA,3000,1,NA,NA,images/earth.jpg,images/rocket1,images/rocket2,null,images/rocket2,NA,1,real,null,1,NA,NA,NA,sub47
d3-animate-choice,148,420168,0.0-76.0-1.4,FALSE,FALSE,TRUE,TRUE,"""event"",""trial"",""time""
""fullscreenenter"",""5"",""19457""
","
","
","""event"",""trial"",""time""
""fullscreenenter"",""5"",""19457""
","
",692.2299999860115,NA,48,NA,NA,3000,1,NA,NA,images/purpleplanet.jpg,images/alien4,images/alien3,images/rocket2,images/alien4,images/t.png,2,real,false,2,rare,1,2020-06-23T14:27:00Z,sub47
two-step-fixation,149,421170,0.0-76.0-2.4,FALSE,FALSE,TRUE,TRUE,"""event"",""trial"",""time""
""fullscreenenter"",""5"",""19457""
","
","
","""event"",""trial"",""time""
""fullscreenenter"",""5"",""19457""
","
",NA,images/earth.jpg,NA,NA,NA,NA,NA,NA,NA,NA,NA,NA,NA,NA,NA,fixation,NA,NA,NA,NA,NA,NA,sub47
d3-animate-choice,150,423557,0.0-76.0-0.5,FALSE,FALSE,TRUE,TRUE,"""event"",""trial"",""time""
""fullscreenenter"",""5"",""19457""
","
","
","""event"",""trial"",""time""
""fullscreenenter"",""5"",""19457""
","
",384.0850000269711,NA,49,NA,NA,3000,1,NA,NA,images/earth.jpg,images/rocket1,images/rocket2,null,images/rocket2,NA,1,real,null,1,NA,NA,NA,sub47
d3-animate-choice,151,426678,0.0-76.0-1.5,FALSE,FALSE,TRUE,TRUE,"""event"",""trial"",""time""
""fullscreenenter"",""5"",""19457""
","
","
","""event"",""trial"",""time""
""fullscreenenter"",""5"",""19457""
","
",1118.8599999877624,NA,48,NA,NA,3000,1,NA,NA,images/redplanet1.jpg,images/alien2,images/alien1,images/rocket2,images/alien2,images/t.png,2,real,true,2,common,1,2020-06-23T14:27:07Z,sub47
two-step-fixation,152,427681,0.0-76.0-2.5,FALSE,FALSE,TRUE,TRUE,"""event"",""trial"",""time""
""fullscreenenter"",""5"",""19457""
","
","
","""event"",""trial"",""time""
""fullscreenenter"",""5"",""19457""
","
",NA,images/earth.jpg,NA,NA,NA,NA,NA,NA,NA,NA,NA,NA,NA,NA,NA,fixation,NA,NA,NA,NA,NA,NA,sub47
d3-animate-choice,153,430162,0.0-76.0-0.6,FALSE,FALSE,TRUE,TRUE,"""event"",""trial"",""time""
""fullscreenenter"",""5"",""19457""
","
","
","""event"",""trial"",""time""
""fullscreenenter"",""5"",""19457""
","
",477.7749999775551,NA,49,NA,NA,3000,1,"965.04499996081,1462.8999999840744",4849,images/earth.jpg,images/rocket1,images/rocket2,null,images/rocket2,NA,1,real,null,1,NA,NA,NA,sub47
d3-animate-choice,154,432686,0.0-76.0-1.6,FALSE,FALSE,TRUE,TRUE,"""event"",""trial"",""time""
""fullscreenenter"",""5"",""19457""
","
","
","""event"",""trial"",""time""
""fullscreenenter"",""5"",""19457""
","
",521.6999999829568,NA,48,NA,NA,3000,1,NA,NA,images/purpleplanet.jpg,images/alien4,images/alien3,images/rocket2,images/alien4,images/nothing.png,2,real,false,2,rare,0,2020-06-23T14:27:13Z,sub47
two-step-fixation,155,433689,0.0-76.0-2.6,FALSE,FALSE,TRUE,TRUE,"""event"",""trial"",""time""
""fullscreenenter"",""5"",""19457""
","
","
","""event"",""trial"",""time""
""fullscreenenter"",""5"",""19457""
","
",NA,images/earth.jpg,NA,NA,NA,NA,NA,NA,NA,NA,NA,NA,NA,NA,NA,fixation,NA,NA,NA,NA,NA,NA,sub47
d3-animate-choice,156,436008,0.0-76.0-0.7,FALSE,FALSE,TRUE,TRUE,"""event"",""trial"",""time""
""fullscreenenter"",""5"",""19457""
","
","
","""event"",""trial"",""time""
""fullscreenenter"",""5"",""19457""
","
",315.11999998474494,NA,49,NA,NA,3000,1,903.6799999885261,9,images/earth.jpg,images/rocket1,images/rocket2,null,images/rocket2,NA,1,real,null,1,NA,NA,NA,sub47
d3-animate-choice,157,438390,0.0-76.0-1.7,FALSE,FALSE,TRUE,TRUE,"""event"",""trial"",""time""
""fullscreenenter"",""5"",""19457""
","
","
","""event"",""trial"",""time""
""fullscreenenter"",""5"",""19457""
","
",378.3550000516698,NA,48,NA,NA,3000,1,NA,NA,images/purpleplanet.jpg,images/alien4,images/alien3,images/rocket2,images/alien4,images/nothing.png,2,real,false,2,rare,0,2020-06-23T14:27:19Z,sub47
two-step-fixation,158,439392,0.0-76.0-2.7,FALSE,FALSE,TRUE,TRUE,"""event"",""trial"",""time""
""fullscreenenter"",""5"",""19457""
","
","
","""event"",""trial"",""time""
""fullscreenenter"",""5"",""19457""
","
",NA,images/earth.jpg,NA,NA,NA,NA,NA,NA,NA,NA,NA,NA,NA,NA,NA,fixation,NA,NA,NA,NA,NA,NA,sub47
d3-animate-choice,159,441957,0.0-76.0-0.8,FALSE,FALSE,TRUE,TRUE,"""event"",""trial"",""time""
""fullscreenenter"",""5"",""19457""
","
","
","""event"",""trial"",""time""
""fullscreenenter"",""5"",""19457""
","
",562.1150000370108,NA,49,NA,NA,3000,1,NA,NA,images/earth.jpg,images/rocket1,images/rocket2,null,images/rocket2,NA,1,real,null,1,NA,NA,NA,sub47
d3-animate-choice,160,444320,0.0-76.0-1.8,FALSE,FALSE,TRUE,TRUE,"""event"",""trial"",""time""
""fullscreenenter"",""5"",""19457""
","
","
","""event"",""trial"",""time""
""fullscreenenter"",""5"",""19457""
","
",360.1500000222586,NA,49,NA,NA,3000,1,NA,NA,images/purpleplanet.jpg,images/alien4,images/alien3,images/rocket2,images/alien3,images/nothing.png,2,real,false,1,rare,0,2020-06-23T14:27:24Z,sub47
two-step-fixation,161,445322,0.0-76.0-2.8,FALSE,FALSE,TRUE,TRUE,"""event"",""trial"",""time""
""fullscreenenter"",""5"",""19457""
","
","
","""event"",""trial"",""time""
""fullscreenenter"",""5"",""19457""
","
",NA,images/earth.jpg,NA,NA,NA,NA,NA,NA,NA,NA,NA,NA,NA,NA,NA,fixation,NA,NA,NA,NA,NA,NA,sub47
d3-animate-choice,162,447488,0.0-76.0-0.9,FALSE,FALSE,TRUE,TRUE,"""event"",""trial"",""time""
""fullscreenenter"",""5"",""19457""
","
","
","""event"",""trial"",""time""
""fullscreenenter"",""5"",""19457""
","
",162.1199999935925,NA,48,NA,NA,3000,1,341.2300000200048,189,images/earth.jpg,images/rocket1,images/rocket2,null,images/rocket1,NA,1,real,null,2,NA,NA,NA,sub47
d3-animate-choice,163,450855,0.0-76.0-1.9,FALSE,FALSE,TRUE,TRUE,"""event"",""trial"",""time""
""fullscreenenter"",""5"",""19457""
","
","
","""event"",""trial"",""time""
""fullscreenenter"",""5"",""19457""
","
",1362.7850000048056,NA,48,NA,NA,3000,1,NA,NA,images/purpleplanet.jpg,images/alien4,images/alien3,images/rocket1,images/alien4,images/t.png,2,real,true,2,common,1,2020-06-23T14:27:31Z,sub47
two-step-fixation,164,451858,0.0-76.0-2.9,FALSE,FALSE,TRUE,TRUE,"""event"",""trial"",""time""
""fullscreenenter"",""5"",""19457""
","
","
","""event"",""trial"",""time""
""fullscreenenter"",""5"",""19457""
","
",NA,images/earth.jpg,NA,NA,NA,NA,NA,NA,NA,NA,NA,NA,NA,NA,NA,fixation,NA,NA,NA,NA,NA,NA,sub47
d3-animate-choice,165,454152,0.0-76.0-0.10,FALSE,FALSE,TRUE,TRUE,"""event"",""trial"",""time""
""fullscreenenter"",""5"",""19457""
","
","
","""event"",""trial"",""time""
""fullscreenenter"",""5"",""19457""
","
",290.97000003093854,NA,49,NA,NA,3000,1,858.3150000195019,49,images/earth.jpg,images/rocket1,images/rocket2,null,images/rocket2,NA,1,real,null,1,NA,NA,NA,sub47
d3-animate-choice,166,456886,0.0-76.0-1.10,FALSE,FALSE,TRUE,TRUE,"""event"",""trial"",""time""
""fullscreenenter"",""5"",""19457""
","
","
","""event"",""trial"",""time""
""fullscreenenter"",""5"",""19457""
","
",683.4899999666959,NA,189,NA,NA,3000,1,729.8900000168942,48,images/redplanet1.jpg,images/alien2,images/alien1,images/rocket2,images/alien2,images/t.png,2,real,true,NA,common,1,2020-06-23T14:27:37Z,sub47
two-step-fixation,167,457889,0.0-76.0-2.10,FALSE,FALSE,TRUE,TRUE,"""event"",""trial"",""time""
""fullscreenenter"",""5"",""19457""
","
","
","""event"",""trial"",""time""
""fullscreenenter"",""5"",""19457""
","
",NA,images/earth.jpg,NA,NA,NA,NA,NA,NA,NA,NA,NA,NA,NA,NA,NA,fixation,NA,NA,NA,NA,NA,NA,sub47
d3-animate-choice,168,459983,0.0-76.0-0.11,FALSE,FALSE,TRUE,TRUE,"""event"",""trial"",""time""
""fullscreenenter"",""5"",""19457""
","
","
","""event"",""trial"",""time""
""fullscreenenter"",""5"",""19457""
","
",89.9150000186637,NA,49,NA,NA,3000,1,NA,NA,images/earth.jpg,images/rocket1,images/rocket2,null,images/rocket2,NA,1,real,null,1,NA,NA,NA,sub47
d3-animate-choice,169,462618,0.0-76.0-1.11,FALSE,FALSE,TRUE,TRUE,"""event"",""trial"",""time""
""fullscreenenter"",""5"",""19457""
","
","
","""event"",""trial"",""time""
""fullscreenenter"",""5"",""19457""
","
",631.1299999943003,NA,48,NA,NA,3000,1,NA,NA,images/redplanet1.jpg,images/alien2,images/alien1,images/rocket2,images/alien2,images/t.png,2,real,true,2,common,1,2020-06-23T14:27:43Z,sub47
two-step-fixation,170,463620,0.0-76.0-2.11,FALSE,FALSE,TRUE,TRUE,"""event"",""trial"",""time""
""fullscreenenter"",""5"",""19457""
","
","
","""event"",""trial"",""time""
""fullscreenenter"",""5"",""19457""
","
",NA,images/earth.jpg,NA,NA,NA,NA,NA,NA,NA,NA,NA,NA,NA,NA,NA,fixation,NA,NA,NA,NA,NA,NA,sub47
d3-animate-choice,171,465916,0.0-76.0-0.12,FALSE,FALSE,TRUE,TRUE,"""event"",""trial"",""time""
""fullscreenenter"",""5"",""19457""
","
","
","""event"",""trial"",""time""
""fullscreenenter"",""5"",""19457""
","
",293.355000030715,NA,49,NA,NA,3000,1,NA,NA,images/earth.jpg,images/rocket1,images/rocket2,null,images/rocket2,NA,1,real,null,1,NA,NA,NA,sub47
d3-animate-choice,172,468293,0.0-76.0-1.12,FALSE,FALSE,TRUE,TRUE,"""event"",""trial"",""time""
""fullscreenenter"",""5"",""19457""
","
","
","""event"",""trial"",""time""
""fullscreenenter"",""5"",""19457""
","
",374.22500003594905,NA,48,NA,NA,3000,1,NA,NA,images/purpleplanet.jpg,images/alien4,images/alien3,images/rocket2,images/alien4,images/t.png,2,real,false,2,rare,1,2020-06-23T14:27:48Z,sub47
two-step-fixation,173,469296,0.0-76.0-2.12,FALSE,FALSE,TRUE,TRUE,"""event"",""trial"",""time""
""fullscreenenter"",""5"",""19457""
","
","
","""event"",""trial"",""time""
""fullscreenenter"",""5"",""19457""
","
",NA,images/earth.jpg,NA,NA,NA,NA,NA,NA,NA,NA,NA,NA,NA,NA,NA,fixation,NA,NA,NA,NA,NA,NA,sub47
d3-animate-choice,174,471725,0.0-76.0-0.13,FALSE,FALSE,TRUE,TRUE,"""event"",""trial"",""time""
""fullscreenenter"",""5"",""19457""
","
","
","""event"",""trial"",""time""
""fullscreenenter"",""5"",""19457""
","
",427.20500001451,NA,49,NA,NA,3000,1,NA,NA,images/earth.jpg,images/rocket1,images/rocket2,null,images/rocket2,NA,1,real,null,1,NA,NA,NA,sub47
d3-animate-choice,175,474496,0.0-76.0-1.13,FALSE,FALSE,TRUE,TRUE,"""event"",""trial"",""time""
""fullscreenenter"",""5"",""19457""
","
","
","""event"",""trial"",""time""
""fullscreenenter"",""5"",""19457""
","
",768.7100000330247,NA,48,NA,NA,3000,1,NA,NA,images/redplanet1.jpg,images/alien2,images/alien1,images/rocket2,images/alien2,images/nothing.png,2,real,true,2,common,0,2020-06-23T14:27:55Z,sub47
two-step-fixation,176,475499,0.0-76.0-2.13,FALSE,FALSE,TRUE,TRUE,"""event"",""trial"",""time""
""fullscreenenter"",""5"",""19457""
","
","
","""event"",""trial"",""time""
""fullscreenenter"",""5"",""19457""
","
",NA,images/earth.jpg,NA,NA,NA,NA,NA,NA,NA,NA,NA,NA,NA,NA,NA,fixation,NA,NA,NA,NA,NA,NA,sub47
d3-animate-choice,177,477953,0.0-76.0-0.14,FALSE,FALSE,TRUE,TRUE,"""event"",""trial"",""time""
""fullscreenenter"",""5"",""19457""
","
","
","""event"",""trial"",""time""
""fullscreenenter"",""5"",""19457""
","
",450.5549999885261,NA,49,NA,NA,3000,1,NA,NA,images/earth.jpg,images/rocket1,images/rocket2,null,images/rocket2,NA,1,real,null,1,NA,NA,NA,sub47
d3-animate-choice,178,480596,0.0-76.0-1.14,FALSE,FALSE,TRUE,TRUE,"""event"",""trial"",""time""
""fullscreenenter"",""5"",""19457""
","
","
","""event"",""trial"",""time""
""fullscreenenter"",""5"",""19457""
","
",640.4249999905005,NA,48,NA,NA,3000,1,NA,NA,images/redplanet1.jpg,images/alien2,images/alien1,images/rocket2,images/alien2,images/nothing.png,2,real,true,2,common,0,2020-06-23T14:28:01Z,sub47
two-step-fixation,179,481598,0.0-76.0-2.14,FALSE,FALSE,TRUE,TRUE,"""event"",""trial"",""time""
""fullscreenenter"",""5"",""19457""
","
","
","""event"",""trial"",""time""
""fullscreenenter"",""5"",""19457""
","
",NA,images/earth.jpg,NA,NA,NA,NA,NA,NA,NA,NA,NA,NA,NA,NA,NA,fixation,NA,NA,NA,NA,NA,NA,sub47
d3-animate-choice,180,483889,0.0-76.0-0.15,FALSE,FALSE,TRUE,TRUE,"""event"",""trial"",""time""
""fullscreenenter"",""5"",""19457""
","
","
","""event"",""trial"",""time""
""fullscreenenter"",""5"",""19457""
","
",287.79999999096617,NA,49,NA,NA,3000,1,NA,NA,images/earth.jpg,images/rocket1,images/rocket2,null,images/rocket2,NA,1,real,null,1,NA,NA,NA,sub47
d3-animate-choice,181,486420,0.0-76.0-1.15,FALSE,FALSE,TRUE,TRUE,"""event"",""trial"",""time""
""fullscreenenter"",""5"",""19457""
","
","
","""event"",""trial"",""time""
""fullscreenenter"",""5"",""19457""
","
",528.4400000236928,NA,48,NA,NA,3000,1,NA,NA,images/redplanet1.jpg,images/alien2,images/alien1,images/rocket2,images/alien2,images/nothing.png,2,real,true,2,common,0,2020-06-23T14:28:07Z,sub47
two-step-fixation,182,487423,0.0-76.0-2.15,FALSE,FALSE,TRUE,TRUE,"""event"",""trial"",""time""
""fullscreenenter"",""5"",""19457""
","
","
","""event"",""trial"",""time""
""fullscreenenter"",""5"",""19457""
","
",NA,images/earth.jpg,NA,NA,NA,NA,NA,NA,NA,NA,NA,NA,NA,NA,NA,fixation,NA,NA,NA,NA,NA,NA,sub47
d3-animate-choice,183,489741,0.0-76.0-0.16,FALSE,FALSE,TRUE,TRUE,"""event"",""trial"",""time""
""fullscreenenter"",""5"",""19457""
","
","
","""event"",""trial"",""time""
""fullscreenenter"",""5"",""19457""
","
",315.7999999821186,NA,49,NA,NA,3000,1,NA,NA,images/earth.jpg,images/rocket1,images/rocket2,null,images/rocket2,NA,1,real,null,1,NA,NA,NA,sub47
d3-animate-choice,184,492238,0.0-76.0-1.16,FALSE,FALSE,TRUE,TRUE,"""event"",""trial"",""time""
""fullscreenenter"",""5"",""19457""
","
","
","""event"",""trial"",""time""
""fullscreenenter"",""5"",""19457""
","
",493.9499999745749,NA,49,NA,NA,3000,1,NA,NA,images/redplanet1.jpg,images/alien2,images/alien1,images/rocket2,images/alien1,images/nothing.png,2,real,true,1,common,0,2020-06-23T14:28:12Z,sub47
two-step-fixation,185,493242,0.0-76.0-2.16,FALSE,FALSE,TRUE,TRUE,"""event"",""trial"",""time""
""fullscreenenter"",""5"",""19457""
","
","
","""event"",""trial"",""time""
""fullscreenenter"",""5"",""19457""
","
",NA,images/earth.jpg,NA,NA,NA,NA,NA,NA,NA,NA,NA,NA,NA,NA,NA,fixation,NA,NA,NA,NA,NA,NA,sub47
d3-animate-choice,186,495660,0.0-76.0-0.17,FALSE,FALSE,TRUE,TRUE,"""event"",""trial"",""time""
""fullscreenenter"",""5"",""19457""
","
","
","""event"",""trial"",""time""
""fullscreenenter"",""5"",""19457""
","
",414.5500000449829,NA,48,NA,NA,3000,1,NA,NA,images/earth.jpg,images/rocket1,images/rocket2,null,images/rocket1,NA,1,real,null,2,NA,NA,NA,sub47
d3-animate-choice,187,498765,0.0-76.0-1.17,FALSE,FALSE,TRUE,TRUE,"""event"",""trial"",""time""
""fullscreenenter"",""5"",""19457""
","
","
","""event"",""trial"",""time""
""fullscreenenter"",""5"",""19457""
","
",1102.42000001017,NA,49,NA,NA,3000,1,1478.4699999727309,49,images/purpleplanet.jpg,images/alien4,images/alien3,images/rocket1,images/alien3,images/nothing.png,2,real,true,1,common,0,2020-06-23T14:28:19Z,sub47
two-step-fixation,188,499768,0.0-76.0-2.17,FALSE,FALSE,TRUE,TRUE,"""event"",""trial"",""time""
""fullscreenenter"",""5"",""19457""
","
","
","""event"",""trial"",""time""
""fullscreenenter"",""5"",""19457""
","
",NA,images/earth.jpg,NA,NA,NA,NA,NA,NA,NA,NA,NA,NA,NA,NA,NA,fixation,NA,NA,NA,NA,NA,NA,sub47
d3-animate-choice,189,502211,0.0-76.0-0.18,FALSE,FALSE,TRUE,TRUE,"""event"",""trial"",""time""
""fullscreenenter"",""5"",""19457""
","
","
","""event"",""trial"",""time""
""fullscreenenter"",""5"",""19457""
","
",439.4849999807775,NA,48,NA,NA,3000,1,NA,NA,images/earth.jpg,images/rocket1,images/rocket2,null,images/rocket1,NA,1,real,null,2,NA,NA,NA,sub47
d3-animate-choice,190,504753,0.0-76.0-1.18,FALSE,FALSE,TRUE,TRUE,"""event"",""trial"",""time""
""fullscreenenter"",""5"",""19457""
","
","
","""event"",""trial"",""time""
""fullscreenenter"",""5"",""19457""
","
",539.055000001099,NA,48,NA,NA,3000,1,NA,NA,images/purpleplanet.jpg,images/alien4,images/alien3,images/rocket1,images/alien4,images/t.png,2,real,true,2,common,1,2020-06-23T14:28:25Z,sub47
two-step-fixation,191,505756,0.0-76.0-2.18,FALSE,FALSE,TRUE,TRUE,"""event"",""trial"",""time""
""fullscreenenter"",""5"",""19457""
","
","
","""event"",""trial"",""time""
""fullscreenenter"",""5"",""19457""
","
",NA,images/earth.jpg,NA,NA,NA,NA,NA,NA,NA,NA,NA,NA,NA,NA,NA,fixation,NA,NA,NA,NA,NA,NA,sub47
d3-animate-choice,192,508203,0.0-76.0-0.19,FALSE,FALSE,TRUE,TRUE,"""event"",""trial"",""time""
""fullscreenenter"",""5"",""19457""
","
","
","""event"",""trial"",""time""
""fullscreenenter"",""5"",""19457""
","
",443.7749999924563,NA,48,NA,NA,3000,1,NA,NA,images/earth.jpg,images/rocket1,images/rocket2,null,images/rocket1,NA,1,real,null,2,NA,NA,NA,sub47
d3-animate-choice,193,511097,0.0-76.0-1.19,FALSE,FALSE,TRUE,TRUE,"""event"",""trial"",""time""
""fullscreenenter"",""5"",""19457""
","
","
","""event"",""trial"",""time""
""fullscreenenter"",""5"",""19457""
","
",891.6249999892898,NA,48,NA,NA,3000,1,NA,NA,images/purpleplanet.jpg,images/alien4,images/alien3,images/rocket1,images/alien4,images/t.png,2,real,true,2,common,1,2020-06-23T14:28:31Z,sub47
two-step-fixation,194,512099,0.0-76.0-2.19,FALSE,FALSE,TRUE,TRUE,"""event"",""trial"",""time""
""fullscreenenter"",""5"",""19457""
","
","
","""event"",""trial"",""time""
""fullscreenenter"",""5"",""19457""
","
",NA,images/earth.jpg,NA,NA,NA,NA,NA,NA,NA,NA,NA,NA,NA,NA,NA,fixation,NA,NA,NA,NA,NA,NA,sub47
d3-animate-choice,195,514825,0.0-76.0-0.20,FALSE,FALSE,TRUE,TRUE,"""event"",""trial"",""time""
""fullscreenenter"",""5"",""19457""
","
","
","""event"",""trial"",""time""
""fullscreenenter"",""5"",""19457""
","
",722.8999999933876,NA,48,NA,NA,3000,1,NA,NA,images/earth.jpg,images/rocket1,images/rocket2,null,images/rocket1,NA,1,real,null,2,NA,NA,NA,sub47
d3-animate-choice,196,518286,0.0-76.0-1.20,FALSE,FALSE,TRUE,TRUE,"""event"",""trial"",""time""
""fullscreenenter"",""5"",""19457""
","
","
","""event"",""trial"",""time""
""fullscreenenter"",""5"",""19457""
","
",1458.1400000024587,NA,48,NA,NA,3000,1,NA,NA,images/redplanet1.jpg,images/alien2,images/alien1,images/rocket1,images/alien2,images/t.png,2,real,false,2,rare,1,2020-06-23T14:28:38Z,sub47
two-step-fixation,197,519288,0.0-76.0-2.20,FALSE,FALSE,TRUE,TRUE,"""event"",""trial"",""time""
""fullscreenenter"",""5"",""19457""
","
","
","""event"",""trial"",""time""
""fullscreenenter"",""5"",""19457""
","
",NA,images/earth.jpg,NA,NA,NA,NA,NA,NA,NA,NA,NA,NA,NA,NA,NA,fixation,NA,NA,NA,NA,NA,NA,sub47
d3-animate-choice,198,521685,0.0-76.0-0.21,FALSE,FALSE,TRUE,TRUE,"""event"",""trial"",""time""
""fullscreenenter"",""5"",""19457""
","
","
","""event"",""trial"",""time""
""fullscreenenter"",""5"",""19457""
","
",392.8799999994226,NA,48,NA,NA,3000,1,NA,NA,images/earth.jpg,images/rocket1,images/rocket2,null,images/rocket1,NA,1,real,null,2,NA,NA,NA,sub47
d3-animate-choice,199,524453,0.0-76.0-1.21,FALSE,FALSE,TRUE,TRUE,"""event"",""trial"",""time""
""fullscreenenter"",""5"",""19457""
","
","
","""event"",""trial"",""time""
""fullscreenenter"",""5"",""19457""
","
",764.5299999858253,NA,48,NA,NA,3000,1,NA,NA,images/purpleplanet.jpg,images/alien4,images/alien3,images/rocket1,images/alien4,images/t.png,2,real,true,2,common,1,2020-06-23T14:28:45Z,sub47
two-step-fixation,200,525455,0.0-76.0-2.21,FALSE,FALSE,TRUE,TRUE,"""event"",""trial"",""time""
""fullscreenenter"",""5"",""19457""
","
","
","""event"",""trial"",""time""
""fullscreenenter"",""5"",""19457""
","
",NA,images/earth.jpg,NA,NA,NA,NA,NA,NA,NA,NA,NA,NA,NA,NA,NA,fixation,NA,NA,NA,NA,NA,NA,sub47
d3-animate-choice,201,528062,0.0-76.0-0.22,FALSE,FALSE,TRUE,TRUE,"""event"",""trial"",""time""
""fullscreenenter"",""5"",""19457""
","
","
","""event"",""trial"",""time""
""fullscreenenter"",""5"",""19457""
","
",604.7600000165403,NA,48,NA,NA,3000,1,NA,NA,images/earth.jpg,images/rocket1,images/rocket2,null,images/rocket1,NA,1,real,null,2,NA,NA,NA,sub47
d3-animate-choice,202,530604,0.0-76.0-1.22,FALSE,FALSE,TRUE,TRUE,"""event"",""trial"",""time""
""fullscreenenter"",""5"",""19457""
","
","
","""event"",""trial"",""time""
""fullscreenenter"",""5"",""19457""
","
",538.1799999740906,NA,48,NA,NA,3000,1,NA,NA,images/purpleplanet.jpg,images/alien4,images/alien3,images/rocket1,images/alien4,images/t.png,2,real,true,2,common,1,2020-06-23T14:28:51Z,sub47
two-step-fixation,203,531606,0.0-76.0-2.22,FALSE,FALSE,TRUE,TRUE,"""event"",""trial"",""time""
""fullscreenenter"",""5"",""19457""
","
","
","""event"",""trial"",""time""
""fullscreenenter"",""5"",""19457""
","
",NA,images/earth.jpg,NA,NA,NA,NA,NA,NA,NA,NA,NA,NA,NA,NA,NA,fixation,NA,NA,NA,NA,NA,NA,sub47
d3-animate-choice,204,534092,0.0-76.0-0.23,FALSE,FALSE,TRUE,TRUE,"""event"",""trial"",""time""
""fullscreenenter"",""5"",""19457""
","
","
","""event"",""trial"",""time""
""fullscreenenter"",""5"",""19457""
","
",483.95999998319894,NA,48,NA,NA,3000,1,NA,NA,images/earth.jpg,images/rocket1,images/rocket2,null,images/rocket1,NA,1,real,null,2,NA,NA,NA,sub47
d3-animate-choice,205,536703,0.0-76.0-1.23,FALSE,FALSE,TRUE,TRUE,"""event"",""trial"",""time""
""fullscreenenter"",""5"",""19457""
","
","
","""event"",""trial"",""time""
""fullscreenenter"",""5"",""19457""
","
",607.9100000206381,NA,48,NA,NA,3000,1,NA,NA,images/purpleplanet.jpg,images/alien4,images/alien3,images/rocket1,images/alien4,images/nothing.png,2,real,true,2,common,0,2020-06-23T14:28:57Z,sub47
two-step-fixation,206,537707,0.0-76.0-2.23,FALSE,FALSE,TRUE,TRUE,"""event"",""trial"",""time""
""fullscreenenter"",""5"",""19457""
","
","
","""event"",""trial"",""time""
""fullscreenenter"",""5"",""19457""
","
",NA,images/earth.jpg,NA,NA,NA,NA,NA,NA,NA,NA,NA,NA,NA,NA,NA,fixation,NA,NA,NA,NA,NA,NA,sub47
d3-animate-choice,207,540189,0.0-76.0-0.24,FALSE,FALSE,TRUE,TRUE,"""event"",""trial"",""time""
""fullscreenenter"",""5"",""19457""
","
","
","""event"",""trial"",""time""
""fullscreenenter"",""5"",""19457""
","
",478.99999999208376,NA,48,NA,NA,3000,1,NA,NA,images/earth.jpg,images/rocket1,images/rocket2,null,images/rocket1,NA,1,real,null,2,NA,NA,NA,sub47
d3-animate-choice,208,542706,0.0-76.0-1.24,FALSE,FALSE,TRUE,TRUE,"""event"",""trial"",""time""
""fullscreenenter"",""5"",""19457""
","
","
","""event"",""trial"",""time""
""fullscreenenter"",""5"",""19457""
","
",513.2599999778904,NA,48,NA,NA,3000,1,NA,NA,images/purpleplanet.jpg,images/alien4,images/alien3,images/rocket1,images/alien4,images/t.png,2,real,true,2,common,1,2020-06-23T14:29:03Z,sub47
two-step-fixation,209,543708,0.0-76.0-2.24,FALSE,FALSE,TRUE,TRUE,"""event"",""trial"",""time""
""fullscreenenter"",""5"",""19457""
","
","
","""event"",""trial"",""time""
""fullscreenenter"",""5"",""19457""
","
",NA,images/earth.jpg,NA,NA,NA,NA,NA,NA,NA,NA,NA,NA,NA,NA,NA,fixation,NA,NA,NA,NA,NA,NA,sub47
d3-animate-choice,210,546149,0.0-76.0-0.25,FALSE,FALSE,TRUE,TRUE,"""event"",""trial"",""time""
""fullscreenenter"",""5"",""19457""
","
","
","""event"",""trial"",""time""
""fullscreenenter"",""5"",""19457""
","
",438.38499998673797,NA,48,NA,NA,3000,1,NA,NA,images/earth.jpg,images/rocket1,images/rocket2,null,images/rocket1,NA,1,real,null,2,NA,NA,NA,sub47
d3-animate-choice,211,548767,0.0-76.0-1.25,FALSE,FALSE,TRUE,TRUE,"""event"",""trial"",""time""
""fullscreenenter"",""5"",""19457""
","
","
","""event"",""trial"",""time""
""fullscreenenter"",""5"",""19457""
","
",614.9149999837391,NA,48,NA,NA,3000,1,NA,NA,images/purpleplanet.jpg,images/alien4,images/alien3,images/rocket1,images/alien4,images/t.png,2,real,true,2,common,1,2020-06-23T14:29:09Z,sub47
two-step-fixation,212,549769,0.0-76.0-2.25,FALSE,FALSE,TRUE,TRUE,"""event"",""trial"",""time""
""fullscreenenter"",""5"",""19457""
","
","
","""event"",""trial"",""time""
""fullscreenenter"",""5"",""19457""
","
",NA,images/earth.jpg,NA,NA,NA,NA,NA,NA,NA,NA,NA,NA,NA,NA,NA,fixation,NA,NA,NA,NA,NA,NA,sub47
d3-animate-choice,213,552257,0.0-76.0-0.26,FALSE,FALSE,TRUE,TRUE,"""event"",""trial"",""time""
""fullscreenenter"",""5"",""19457""
","
","
","""event"",""trial"",""time""
""fullscreenenter"",""5"",""19457""
","
",484.82499999227,NA,48,NA,NA,3000,1,NA,NA,images/earth.jpg,images/rocket1,images/rocket2,null,images/rocket1,NA,1,real,null,2,NA,NA,NA,sub47
d3-animate-choice,214,554704,0.0-76.0-1.26,FALSE,FALSE,TRUE,TRUE,"""event"",""trial"",""time""
""fullscreenenter"",""5"",""19457""
","
","
","""event"",""trial"",""time""
""fullscreenenter"",""5"",""19457""
","
",442.8549999720417,NA,48,NA,NA,3000,1,NA,NA,images/purpleplanet.jpg,images/alien4,images/alien3,images/rocket1,images/alien4,images/nothing.png,2,real,true,2,common,0,2020-06-23T14:29:15Z,sub47
two-step-fixation,215,555706,0.0-76.0-2.26,FALSE,FALSE,TRUE,TRUE,"""event"",""trial"",""time""
""fullscreenenter"",""5"",""19457""
","
","
","""event"",""trial"",""time""
""fullscreenenter"",""5"",""19457""
","
",NA,images/earth.jpg,NA,NA,NA,NA,NA,NA,NA,NA,NA,NA,NA,NA,NA,fixation,NA,NA,NA,NA,NA,NA,sub47
d3-animate-choice,216,558391,0.0-76.0-0.27,FALSE,FALSE,TRUE,TRUE,"""event"",""trial"",""time""
""fullscreenenter"",""5"",""19457""
","
","
","""event"",""trial"",""time""
""fullscreenenter"",""5"",""19457""
","
",683.06999997003,NA,48,NA,NA,3000,1,NA,NA,images/earth.jpg,images/rocket1,images/rocket2,null,images/rocket1,NA,1,real,null,2,NA,NA,NA,sub47
d3-animate-choice,217,561103,0.0-76.0-1.27,FALSE,FALSE,TRUE,TRUE,"""event"",""trial"",""time""
""fullscreenenter"",""5"",""19457""
","
","
","""event"",""trial"",""time""
""fullscreenenter"",""5"",""19457""
","
",707.8300000284798,NA,48,NA,NA,3000,1,NA,NA,images/redplanet1.jpg,images/alien2,images/alien1,images/rocket1,images/alien2,images/t.png,2,real,false,2,rare,1,2020-06-23T14:29:21Z,sub47
two-step-fixation,218,562106,0.0-76.0-2.27,FALSE,FALSE,TRUE,TRUE,"""event"",""trial"",""time""
""fullscreenenter"",""5"",""19457""
","
","
","""event"",""trial"",""time""
""fullscreenenter"",""5"",""19457""
","
",NA,images/earth.jpg,NA,NA,NA,NA,NA,NA,NA,NA,NA,NA,NA,NA,NA,fixation,NA,NA,NA,NA,NA,NA,sub47
d3-animate-choice,219,564598,0.0-76.0-0.28,FALSE,FALSE,TRUE,TRUE,"""event"",""trial"",""time""
""fullscreenenter"",""5"",""19457""
","
","
","""event"",""trial"",""time""
""fullscreenenter"",""5"",""19457""
","
",490.20000000018626,NA,48,NA,NA,3000,1,NA,NA,images/earth.jpg,images/rocket1,images/rocket2,null,images/rocket1,NA,1,real,null,2,NA,NA,NA,sub47
d3-animate-choice,220,567354,0.0-76.0-1.28,FALSE,FALSE,TRUE,TRUE,"""event"",""trial"",""time""
""fullscreenenter"",""5"",""19457""
","
","
","""event"",""trial"",""time""
""fullscreenenter"",""5"",""19457""
","
",752.2050000261515,NA,48,NA,NA,3000,1,NA,NA,images/purpleplanet.jpg,images/alien4,images/alien3,images/rocket1,images/alien4,images/t.png,2,real,true,2,common,1,2020-06-23T14:29:27Z,sub47
two-step-fixation,221,568357,0.0-76.0-2.28,FALSE,FALSE,TRUE,TRUE,"""event"",""trial"",""time""
""fullscreenenter"",""5"",""19457""
","
","
","""event"",""trial"",""time""
""fullscreenenter"",""5"",""19457""
","
",NA,images/earth.jpg,NA,NA,NA,NA,NA,NA,NA,NA,NA,NA,NA,NA,NA,fixation,NA,NA,NA,NA,NA,NA,sub47
d3-animate-choice,222,570827,0.0-76.0-0.29,FALSE,FALSE,TRUE,TRUE,"""event"",""trial"",""time""
""fullscreenenter"",""5"",""19457""
","
","
","""event"",""trial"",""time""
""fullscreenenter"",""5"",""19457""
","
",467.2499999869615,NA,48,NA,NA,3000,1,NA,NA,images/earth.jpg,images/rocket1,images/rocket2,null,images/rocket1,NA,1,real,null,2,NA,NA,NA,sub47
d3-animate-choice,223,573703,0.0-76.0-1.29,FALSE,FALSE,TRUE,TRUE,"""event"",""trial"",""time""
""fullscreenenter"",""5"",""19457""
","
","
","""event"",""trial"",""time""
""fullscreenenter"",""5"",""19457""
","
",872.4400000064634,NA,48,NA,NA,3000,1,NA,NA,images/redplanet1.jpg,images/alien2,images/alien1,images/rocket1,images/alien2,images/t.png,2,real,false,2,rare,1,2020-06-23T14:29:34Z,sub47
two-step-fixation,224,574706,0.0-76.0-2.29,FALSE,FALSE,TRUE,TRUE,"""event"",""trial"",""time""
""fullscreenenter"",""5"",""19457""
","
","
","""event"",""trial"",""time""
""fullscreenenter"",""5"",""19457""
","
",NA,images/earth.jpg,NA,NA,NA,NA,NA,NA,NA,NA,NA,NA,NA,NA,NA,fixation,NA,NA,NA,NA,NA,NA,sub47
d3-animate-choice,225,577880,0.0-76.0-0.30,FALSE,FALSE,TRUE,TRUE,"""event"",""trial"",""time""
""fullscreenenter"",""5"",""19457""
","
","
","""event"",""trial"",""time""
""fullscreenenter"",""5"",""19457""
","
",1170.0849999906495,NA,48,NA,NA,3000,1,NA,NA,images/earth.jpg,images/rocket1,images/rocket2,null,images/rocket1,NA,1,real,null,2,NA,NA,NA,sub47
d3-animate-choice,226,580794,0.0-76.0-1.30,FALSE,FALSE,TRUE,TRUE,"""event"",""trial"",""time""
""fullscreenenter"",""5"",""19457""
","
","
","""event"",""trial"",""time""
""fullscreenenter"",""5"",""19457""
","
",910.7949999743141,NA,48,NA,NA,3000,1,NA,NA,images/purpleplanet.jpg,images/alien4,images/alien3,images/rocket1,images/alien4,images/t.png,2,real,true,2,common,1,2020-06-23T14:29:41Z,sub47
two-step-fixation,227,581797,0.0-76.0-2.30,FALSE,FALSE,TRUE,TRUE,"""event"",""trial"",""time""
""fullscreenenter"",""5"",""19457""
","
","
","""event"",""trial"",""time""
""fullscreenenter"",""5"",""19457""
","
",NA,images/earth.jpg,NA,NA,NA,NA,NA,NA,NA,NA,NA,NA,NA,NA,NA,fixation,NA,NA,NA,NA,NA,NA,sub47
d3-animate-choice,228,585074,0.0-76.0-0.31,FALSE,FALSE,TRUE,TRUE,"""event"",""trial"",""time""
""fullscreenenter"",""5"",""19457""
","
","
","""event"",""trial"",""time""
""fullscreenenter"",""5"",""19457""
","
",1274.710000026971,NA,48,NA,NA,3000,1,NA,NA,images/earth.jpg,images/rocket1,images/rocket2,null,images/rocket1,NA,1,real,null,2,NA,NA,NA,sub47
d3-animate-choice,229,588157,0.0-76.0-1.31,FALSE,FALSE,TRUE,TRUE,"""event"",""trial"",""time""
""fullscreenenter"",""5"",""19457""
","
","
","""event"",""trial"",""time""
""fullscreenenter"",""5"",""19457""
","
",1078.9799999911338,NA,48,NA,NA,3000,1,NA,NA,images/purpleplanet.jpg,images/alien4,images/alien3,images/rocket1,images/alien4,images/t.png,2,real,true,2,common,1,2020-06-23T14:29:48Z,sub47
two-step-fixation,230,589160,0.0-76.0-2.31,FALSE,FALSE,TRUE,TRUE,"""event"",""trial"",""time""
""fullscreenenter"",""5"",""19457""
","
","
","""event"",""trial"",""time""
""fullscreenenter"",""5"",""19457""
","
",NA,images/earth.jpg,NA,NA,NA,NA,NA,NA,NA,NA,NA,NA,NA,NA,NA,fixation,NA,NA,NA,NA,NA,NA,sub47
d3-animate-choice,231,592778,0.0-76.0-0.32,FALSE,FALSE,TRUE,TRUE,"""event"",""trial"",""time""
""fullscreenenter"",""5"",""19457""
","
","
","""event"",""trial"",""time""
""fullscreenenter"",""5"",""19457""
","
",888.9649999910034,NA,189,NA,NA,3000,1,1615.6450000125915,48,images/earth.jpg,images/rocket1,images/rocket2,null,images/rocket1,NA,1,real,null,NA,NA,NA,NA,sub47
d3-animate-choice,232,595931,0.0-76.0-1.32,FALSE,FALSE,TRUE,TRUE,"""event"",""trial"",""time""
""fullscreenenter"",""5"",""19457""
","
","
","""event"",""trial"",""time""
""fullscreenenter"",""5"",""19457""
","
",1149.2899999720976,NA,48,NA,NA,3000,1,NA,NA,images/purpleplanet.jpg,images/alien4,images/alien3,images/rocket1,images/alien4,images/nothing.png,2,real,true,2,common,0,2020-06-23T14:29:56Z,sub47
two-step-fixation,233,596934,0.0-76.0-2.32,FALSE,FALSE,TRUE,TRUE,"""event"",""trial"",""time""
""fullscreenenter"",""5"",""19457""
","
","
","""event"",""trial"",""time""
""fullscreenenter"",""5"",""19457""
","
",NA,images/earth.jpg,NA,NA,NA,NA,NA,NA,NA,NA,NA,NA,NA,NA,NA,fixation,NA,NA,NA,NA,NA,NA,sub47
d3-animate-choice,234,599417,0.0-76.0-0.33,FALSE,FALSE,TRUE,TRUE,"""event"",""trial"",""time""
""fullscreenenter"",""5"",""19457""
","
","
","""event"",""trial"",""time""
""fullscreenenter"",""5"",""19457""
","
",479.445000004489,NA,48,NA,NA,3000,1,NA,NA,images/earth.jpg,images/rocket1,images/rocket2,null,images/rocket1,NA,1,real,null,2,NA,NA,NA,sub47
d3-animate-choice,235,602898,0.0-76.0-1.33,FALSE,FALSE,TRUE,TRUE,"""event"",""trial"",""time""
""fullscreenenter"",""5"",""19457""
","
","
","""event"",""trial"",""time""
""fullscreenenter"",""5"",""19457""
","
",1478.209999972023,NA,48,NA,NA,3000,1,NA,NA,images/purpleplanet.jpg,images/alien4,images/alien3,images/rocket1,images/alien4,images/t.png,2,real,true,2,common,1,2020-06-23T14:30:03Z,sub47
two-step-fixation,236,603901,0.0-76.0-2.33,FALSE,FALSE,TRUE,TRUE,"""event"",""trial"",""time""
""fullscreenenter"",""5"",""19457""
","
","
","""event"",""trial"",""time""
""fullscreenenter"",""5"",""19457""
","
",NA,images/earth.jpg,NA,NA,NA,NA,NA,NA,NA,NA,NA,NA,NA,NA,NA,fixation,NA,NA,NA,NA,NA,NA,sub47
d3-animate-choice,237,606358,0.0-76.0-0.34,FALSE,FALSE,TRUE,TRUE,"""event"",""trial"",""time""
""fullscreenenter"",""5"",""19457""
","
","
","""event"",""trial"",""time""
""fullscreenenter"",""5"",""19457""
","
",452.8099999879487,NA,48,NA,NA,3000,1,NA,NA,images/earth.jpg,images/rocket1,images/rocket2,null,images/rocket1,NA,1,real,null,2,NA,NA,NA,sub47
d3-animate-choice,238,609096,0.0-76.0-1.34,FALSE,FALSE,TRUE,TRUE,"""event"",""trial"",""time""
""fullscreenenter"",""5"",""19457""
","
","
","""event"",""trial"",""time""
""fullscreenenter"",""5"",""19457""
","
",733.7149999802932,NA,48,NA,NA,3000,1,NA,NA,images/redplanet1.jpg,images/alien2,images/alien1,images/rocket1,images/alien2,images/nothing.png,2,real,false,2,rare,0,2020-06-23T14:30:09Z,sub47
two-step-fixation,239,610098,0.0-76.0-2.34,FALSE,FALSE,TRUE,TRUE,"""event"",""trial"",""time""
""fullscreenenter"",""5"",""19457""
","
","
","""event"",""trial"",""time""
""fullscreenenter"",""5"",""19457""
","
",NA,images/earth.jpg,NA,NA,NA,NA,NA,NA,NA,NA,NA,NA,NA,NA,NA,fixation,NA,NA,NA,NA,NA,NA,sub47
d3-animate-choice,240,612418,0.0-76.0-0.35,FALSE,FALSE,TRUE,TRUE,"""event"",""trial"",""time""
""fullscreenenter"",""5"",""19457""
","
","
","""event"",""trial"",""time""
""fullscreenenter"",""5"",""19457""
","
",317.5949999713339,NA,48,NA,NA,3000,1,NA,NA,images/earth.jpg,images/rocket1,images/rocket2,null,images/rocket1,NA,1,real,null,2,NA,NA,NA,sub47
d3-animate-choice,241,615134,0.0-76.0-1.35,FALSE,FALSE,TRUE,TRUE,"""event"",""trial"",""time""
""fullscreenenter"",""5"",""19457""
","
","
","""event"",""trial"",""time""
""fullscreenenter"",""5"",""19457""
","
",712.7599999657832,NA,48,NA,NA,3000,1,NA,NA,images/purpleplanet.jpg,images/alien4,images/alien3,images/rocket1,images/alien4,images/nothing.png,2,real,true,2,common,0,2020-06-23T14:30:15Z,sub47
two-step-fixation,242,616136,0.0-76.0-2.35,FALSE,FALSE,TRUE,TRUE,"""event"",""trial"",""time""
""fullscreenenter"",""5"",""19457""
","
","
","""event"",""trial"",""time""
""fullscreenenter"",""5"",""19457""
","
",NA,images/earth.jpg,NA,NA,NA,NA,NA,NA,NA,NA,NA,NA,NA,NA,NA,fixation,NA,NA,NA,NA,NA,NA,sub47
d3-animate-choice,243,618580,0.0-76.0-0.36,FALSE,FALSE,TRUE,TRUE,"""event"",""trial"",""time""
""fullscreenenter"",""5"",""19457""
","
","
","""event"",""trial"",""time""
""fullscreenenter"",""5"",""19457""
","
",440.84499997552484,NA,48,NA,NA,3000,1,NA,NA,images/earth.jpg,images/rocket1,images/rocket2,null,images/rocket1,NA,1,real,null,2,NA,NA,NA,sub47
d3-animate-choice,244,620964,0.0-76.0-1.36,FALSE,FALSE,TRUE,TRUE,"""event"",""trial"",""time""
""fullscreenenter"",""5"",""19457""
","
","
","""event"",""trial"",""time""
""fullscreenenter"",""5"",""19457""
","
",381.8699999828823,NA,49,NA,NA,3000,1,NA,NA,images/purpleplanet.jpg,images/alien4,images/alien3,images/rocket1,images/alien3,images/nothing.png,2,real,true,1,common,0,2020-06-23T14:30:21Z,sub47
two-step-fixation,245,621966,0.0-76.0-2.36,FALSE,FALSE,TRUE,TRUE,"""event"",""trial"",""time""
""fullscreenenter"",""5"",""19457""
","
","
","""event"",""trial"",""time""
""fullscreenenter"",""5"",""19457""
","
",NA,images/earth.jpg,NA,NA,NA,NA,NA,NA,NA,NA,NA,NA,NA,NA,NA,fixation,NA,NA,NA,NA,NA,NA,sub47
d3-animate-choice,246,624330,0.0-76.0-0.37,FALSE,FALSE,TRUE,TRUE,"""event"",""trial"",""time""
""fullscreenenter"",""5"",""19457""
","
","
","""event"",""trial"",""time""
""fullscreenenter"",""5"",""19457""
","
",360.91500002657995,NA,49,NA,NA,3000,1,1743.5249999980442,48,images/earth.jpg,images/rocket1,images/rocket2,null,images/rocket2,NA,1,real,null,1,NA,NA,NA,sub47
d3-animate-choice,247,627395,0.0-76.0-1.37,FALSE,FALSE,TRUE,TRUE,"""event"",""trial"",""time""
""fullscreenenter"",""5"",""19457""
","
","
","""event"",""trial"",""time""
""fullscreenenter"",""5"",""19457""
","
",1062.7600000007078,NA,49,NA,NA,3000,1,NA,NA,images/redplanet1.jpg,images/alien2,images/alien1,images/rocket2,images/alien1,images/t.png,2,real,true,1,common,1,2020-06-23T14:30:28Z,sub47
two-step-fixation,248,628398,0.0-76.0-2.37,FALSE,FALSE,TRUE,TRUE,"""event"",""trial"",""time""
""fullscreenenter"",""5"",""19457""
","
","
","""event"",""trial"",""time""
""fullscreenenter"",""5"",""19457""
","
",NA,images/earth.jpg,NA,NA,NA,NA,NA,NA,NA,NA,NA,NA,NA,NA,NA,fixation,NA,NA,NA,NA,NA,NA,sub47
d3-animate-choice,249,630746,0.0-76.0-0.38,FALSE,FALSE,TRUE,TRUE,"""event"",""trial"",""time""
""fullscreenenter"",""5"",""19457""
","
","
","""event"",""trial"",""time""
""fullscreenenter"",""5"",""19457""
","
",345.29500000644475,NA,49,NA,NA,3000,1,NA,NA,images/earth.jpg,images/rocket1,images/rocket2,null,images/rocket2,NA,1,real,null,1,NA,NA,NA,sub47
d3-animate-choice,250,633254,0.0-76.0-1.38,FALSE,FALSE,TRUE,TRUE,"""event"",""trial"",""time""
""fullscreenenter"",""5"",""19457""
","
","
","""event"",""trial"",""time""
""fullscreenenter"",""5"",""19457""
","
",504.9950000247918,NA,49,NA,NA,3000,1,NA,NA,images/redplanet1.jpg,images/alien2,images/alien1,images/rocket2,images/alien1,images/t.png,2,real,true,1,common,1,2020-06-23T14:30:33Z,sub47
two-step-fixation,251,634256,0.0-76.0-2.38,FALSE,FALSE,TRUE,TRUE,"""event"",""trial"",""time""
""fullscreenenter"",""5"",""19457""
","
","
","""event"",""trial"",""time""
""fullscreenenter"",""5"",""19457""
","
",NA,images/earth.jpg,NA,NA,NA,NA,NA,NA,NA,NA,NA,NA,NA,NA,NA,fixation,NA,NA,NA,NA,NA,NA,sub47
d3-animate-choice,252,636553,0.0-76.0-0.39,FALSE,FALSE,TRUE,TRUE,"""event"",""trial"",""time""
""fullscreenenter"",""5"",""19457""
","
","
","""event"",""trial"",""time""
""fullscreenenter"",""5"",""19457""
","
",293.27999998349696,NA,49,NA,NA,3000,1,NA,NA,images/earth.jpg,images/rocket1,images/rocket2,null,images/rocket2,NA,1,real,null,1,NA,NA,NA,sub47
d3-animate-choice,253,638884,0.0-76.0-1.39,FALSE,FALSE,TRUE,TRUE,"""event"",""trial"",""time""
""fullscreenenter"",""5"",""19457""
","
","
","""event"",""trial"",""time""
""fullscreenenter"",""5"",""19457""
","
",328.35999998496845,NA,49,NA,NA,3000,1,NA,NA,images/purpleplanet.jpg,images/alien4,images/alien3,images/rocket2,images/alien3,images/nothing.png,2,real,false,1,rare,0,2020-06-23T14:30:39Z,sub47
two-step-fixation,254,639887,0.0-76.0-2.39,FALSE,FALSE,TRUE,TRUE,"""event"",""trial"",""time""
""fullscreenenter"",""5"",""19457""
","
","
","""event"",""trial"",""time""
""fullscreenenter"",""5"",""19457""
","
",NA,images/earth.jpg,NA,NA,NA,NA,NA,NA,NA,NA,NA,NA,NA,NA,NA,fixation,NA,NA,NA,NA,NA,NA,sub47
d3-animate-choice,255,642324,0.0-76.0-0.40,FALSE,FALSE,TRUE,TRUE,"""event"",""trial"",""time""
""fullscreenenter"",""5"",""19457""
","
","
","""event"",""trial"",""time""
""fullscreenenter"",""5"",""19457""
","
",433.56000003404915,NA,49,NA,NA,3000,1,NA,NA,images/earth.jpg,images/rocket1,images/rocket2,null,images/rocket2,NA,1,real,null,1,NA,NA,NA,sub47
d3-animate-choice,256,644896,0.0-76.0-1.40,FALSE,FALSE,TRUE,TRUE,"""event"",""trial"",""time""
""fullscreenenter"",""5"",""19457""
","
","
","""event"",""trial"",""time""
""fullscreenenter"",""5"",""19457""
","
",569.1499999957159,NA,49,NA,NA,3000,1,NA,NA,images/redplanet1.jpg,images/alien2,images/alien1,images/rocket2,images/alien1,images/nothing.png,2,real,true,1,common,0,2020-06-23T14:30:45Z,sub47
two-step-fixation,257,645899,0.0-76.0-2.40,FALSE,FALSE,TRUE,TRUE,"""event"",""trial"",""time""
""fullscreenenter"",""5"",""19457""
","
","
","""event"",""trial"",""time""
""fullscreenenter"",""5"",""19457""
","
",NA,images/earth.jpg,NA,NA,NA,NA,NA,NA,NA,NA,NA,NA,NA,NA,NA,fixation,NA,NA,NA,NA,NA,NA,sub47
d3-animate-choice,258,648667,0.0-76.0-0.41,FALSE,FALSE,TRUE,TRUE,"""event"",""trial"",""time""
""fullscreenenter"",""5"",""19457""
","
","
","""event"",""trial"",""time""
""fullscreenenter"",""5"",""19457""
","
",763.8799999840558,NA,49,NA,NA,3000,1,NA,NA,images/earth.jpg,images/rocket1,images/rocket2,null,images/rocket2,NA,1,real,null,1,NA,NA,NA,sub47
d3-animate-choice,259,651319,0.0-76.0-1.41,FALSE,FALSE,TRUE,TRUE,"""event"",""trial"",""time""
""fullscreenenter"",""5"",""19457""
","
","
","""event"",""trial"",""time""
""fullscreenenter"",""5"",""19457""
","
",648.8349999999627,NA,49,NA,NA,3000,1,NA,NA,images/redplanet1.jpg,images/alien2,images/alien1,images/rocket2,images/alien1,images/t.png,2,real,true,1,common,1,2020-06-23T14:30:51Z,sub47
two-step-fixation,260,652322,0.0-76.0-2.41,FALSE,FALSE,TRUE,TRUE,"""event"",""trial"",""time""
""fullscreenenter"",""5"",""19457""
","
","
","""event"",""trial"",""time""
""fullscreenenter"",""5"",""19457""
","
",NA,images/earth.jpg,NA,NA,NA,NA,NA,NA,NA,NA,NA,NA,NA,NA,NA,fixation,NA,NA,NA,NA,NA,NA,sub47
d3-animate-choice,261,655066,0.0-76.0-0.42,FALSE,FALSE,TRUE,TRUE,"""event"",""trial"",""time""
""fullscreenenter"",""5"",""19457""
","
","
","""event"",""trial"",""time""
""fullscreenenter"",""5"",""19457""
","
",741.2149999872781,NA,49,NA,NA,3000,1,NA,NA,images/earth.jpg,images/rocket1,images/rocket2,null,images/rocket2,NA,1,real,null,1,NA,NA,NA,sub47
d3-animate-choice,262,657594,0.0-76.0-1.42,FALSE,FALSE,TRUE,TRUE,"""event"",""trial"",""time""
""fullscreenenter"",""5"",""19457""
","
","
","""event"",""trial"",""time""
""fullscreenenter"",""5"",""19457""
","
",524.959999951534,NA,49,NA,NA,3000,1,NA,NA,images/redplanet1.jpg,images/alien2,images/alien1,images/rocket2,images/alien1,images/t.png,2,real,true,1,common,1,2020-06-23T14:30:58Z,sub47
two-step-fixation,263,658597,0.0-76.0-2.42,FALSE,FALSE,TRUE,TRUE,"""event"",""trial"",""time""
""fullscreenenter"",""5"",""19457""
","
","
","""event"",""trial"",""time""
""fullscreenenter"",""5"",""19457""
","
",NA,images/earth.jpg,NA,NA,NA,NA,NA,NA,NA,NA,NA,NA,NA,NA,NA,fixation,NA,NA,NA,NA,NA,NA,sub47
d3-animate-choice,264,660956,0.0-76.0-0.43,FALSE,FALSE,TRUE,TRUE,"""event"",""trial"",""time""
""fullscreenenter"",""5"",""19457""
","
","
","""event"",""trial"",""time""
""fullscreenenter"",""5"",""19457""
","
",356.10500001348555,NA,49,NA,NA,3000,1,NA,NA,images/earth.jpg,images/rocket1,images/rocket2,null,images/rocket2,NA,1,real,null,1,NA,NA,NA,sub47
d3-animate-choice,265,663905,0.0-76.0-1.43,FALSE,FALSE,TRUE,TRUE,"""event"",""trial"",""time""
""fullscreenenter"",""5"",""19457""
","
","
","""event"",""trial"",""time""
""fullscreenenter"",""5"",""19457""
","
",944.8449999908917,NA,49,NA,NA,3000,1,NA,NA,images/redplanet1.jpg,images/alien2,images/alien1,images/rocket2,images/alien1,images/t.png,2,real,true,1,common,1,2020-06-23T14:31:04Z,sub47
two-step-fixation,266,664908,0.0-76.0-2.43,FALSE,FALSE,TRUE,TRUE,"""event"",""trial"",""time""
""fullscreenenter"",""5"",""19457""
","
","
","""event"",""trial"",""time""
""fullscreenenter"",""5"",""19457""
","
",NA,images/earth.jpg,NA,NA,NA,NA,NA,NA,NA,NA,NA,NA,NA,NA,NA,fixation,NA,NA,NA,NA,NA,NA,sub47
d3-animate-choice,267,667326,0.0-76.0-0.44,FALSE,FALSE,TRUE,TRUE,"""event"",""trial"",""time""
""fullscreenenter"",""5"",""19457""
","
","
","""event"",""trial"",""time""
""fullscreenenter"",""5"",""19457""
","
",414.58500002045184,NA,49,NA,NA,3000,1,NA,NA,images/earth.jpg,images/rocket1,images/rocket2,null,images/rocket2,NA,1,real,null,1,NA,NA,NA,sub47
d3-animate-choice,268,669946,0.0-76.0-1.44,FALSE,FALSE,TRUE,TRUE,"""event"",""trial"",""time""
""fullscreenenter"",""5"",""19457""
","
","
","""event"",""trial"",""time""
""fullscreenenter"",""5"",""19457""
","
",616.5550000150688,NA,49,NA,NA,3000,1,NA,NA,images/redplanet1.jpg,images/alien2,images/alien1,images/rocket2,images/alien1,images/t.png,2,real,true,1,common,1,2020-06-23T14:31:10Z,sub47
two-step-fixation,269,670948,0.0-76.0-2.44,FALSE,FALSE,TRUE,TRUE,"""event"",""trial"",""time""
""fullscreenenter"",""5"",""19457""
","
","
","""event"",""trial"",""time""
""fullscreenenter"",""5"",""19457""
","
",NA,images/earth.jpg,NA,NA,NA,NA,NA,NA,NA,NA,NA,NA,NA,NA,NA,fixation,NA,NA,NA,NA,NA,NA,sub47
d3-animate-choice,270,673498,0.0-76.0-0.45,FALSE,FALSE,TRUE,TRUE,"""event"",""trial"",""time""
""fullscreenenter"",""5"",""19457""
","
","
","""event"",""trial"",""time""
""fullscreenenter"",""5"",""19457""
","
",547.1600000164472,NA,49,NA,NA,3000,1,NA,NA,images/earth.jpg,images/rocket1,images/rocket2,null,images/rocket2,NA,1,real,null,1,NA,NA,NA,sub47
d3-animate-choice,271,676760,0.0-76.0-1.45,FALSE,FALSE,TRUE,TRUE,"""event"",""trial"",""time""
""fullscreenenter"",""5"",""19457""
","
","
","""event"",""trial"",""time""
""fullscreenenter"",""5"",""19457""
","
",1259.604999970179,NA,49,NA,NA,3000,1,NA,NA,images/redplanet1.jpg,images/alien2,images/alien1,images/rocket2,images/alien1,images/t.png,2,real,true,1,common,1,2020-06-23T14:31:17Z,sub47
two-step-fixation,272,677763,0.0-76.0-2.45,FALSE,FALSE,TRUE,TRUE,"""event"",""trial"",""time""
""fullscreenenter"",""5"",""19457""
","
","
","""event"",""trial"",""time""
""fullscreenenter"",""5"",""19457""
","
",NA,images/earth.jpg,NA,NA,NA,NA,NA,NA,NA,NA,NA,NA,NA,NA,NA,fixation,NA,NA,NA,NA,NA,NA,sub47
d3-animate-choice,273,680421,0.0-76.0-0.46,FALSE,FALSE,TRUE,TRUE,"""event"",""trial"",""time""
""fullscreenenter"",""5"",""19457""
","
","
","""event"",""trial"",""time""
""fullscreenenter"",""5"",""19457""
","
",653.4000000101514,NA,49,NA,NA,3000,1,NA,NA,images/earth.jpg,images/rocket1,images/rocket2,null,images/rocket2,NA,1,real,null,1,NA,NA,NA,sub47
d3-animate-choice,274,682970,0.0-76.0-1.46,FALSE,FALSE,TRUE,TRUE,"""event"",""trial"",""time""
""fullscreenenter"",""5"",""19457""
","
","
","""event"",""trial"",""time""
""fullscreenenter"",""5"",""19457""
","
",544.6499999961816,NA,49,NA,NA,3000,1,NA,NA,images/redplanet1.jpg,images/alien2,images/alien1,images/rocket2,images/alien1,images/nothing.png,2,real,true,1,common,0,2020-06-23T14:31:23Z,sub47
two-step-fixation,275,683973,0.0-76.0-2.46,FALSE,FALSE,TRUE,TRUE,"""event"",""trial"",""time""
""fullscreenenter"",""5"",""19457""
","
","
","""event"",""trial"",""time""
""fullscreenenter"",""5"",""19457""
","
",NA,images/earth.jpg,NA,NA,NA,NA,NA,NA,NA,NA,NA,NA,NA,NA,NA,fixation,NA,NA,NA,NA,NA,NA,sub47
d3-animate-choice,276,686261,0.0-76.0-0.47,FALSE,FALSE,TRUE,TRUE,"""event"",""trial"",""time""
""fullscreenenter"",""5"",""19457""
","
","
","""event"",""trial"",""time""
""fullscreenenter"",""5"",""19457""
","
",286.435000016354,NA,49,NA,NA,3000,1,NA,NA,images/earth.jpg,images/rocket1,images/rocket2,null,images/rocket2,NA,1,real,null,1,NA,NA,NA,sub47
d3-animate-choice,277,688816,0.0-76.0-1.47,FALSE,FALSE,TRUE,TRUE,"""event"",""trial"",""time""
""fullscreenenter"",""5"",""19457""
","
","
","""event"",""trial"",""time""
""fullscreenenter"",""5"",""19457""
","
",550.6349999923259,NA,49,NA,NA,3000,1,NA,NA,images/redplanet1.jpg,images/alien2,images/alien1,images/rocket2,images/alien1,images/t.png,2,real,true,1,common,1,2020-06-23T14:31:29Z,sub47
two-step-fixation,278,689818,0.0-76.0-2.47,FALSE,FALSE,TRUE,TRUE,"""event"",""trial"",""time""
""fullscreenenter"",""5"",""19457""
","
","
","""event"",""trial"",""time""
""fullscreenenter"",""5"",""19457""
","
",NA,images/earth.jpg,NA,NA,NA,NA,NA,NA,NA,NA,NA,NA,NA,NA,NA,fixation,NA,NA,NA,NA,NA,NA,sub47
d3-animate-choice,279,692230,0.0-76.0-0.48,FALSE,FALSE,TRUE,TRUE,"""event"",""trial"",""time""
""fullscreenenter"",""5"",""19457""
","
","
","""event"",""trial"",""time""
""fullscreenenter"",""5"",""19457""
","
",409.7149999579415,NA,49,NA,NA,3000,1,NA,NA,images/earth.jpg,images/rocket1,images/rocket2,null,images/rocket2,NA,1,real,null,1,NA,NA,NA,sub47
d3-animate-choice,280,694678,0.0-76.0-1.48,FALSE,FALSE,TRUE,TRUE,"""event"",""trial"",""time""
""fullscreenenter"",""5"",""19457""
","
","
","""event"",""trial"",""time""
""fullscreenenter"",""5"",""19457""
","
",444.46500000776723,NA,49,NA,NA,3000,1,NA,NA,images/redplanet1.jpg,images/alien2,images/alien1,images/rocket2,images/alien1,images/t.png,2,real,true,1,common,1,2020-06-23T14:31:35Z,sub47
two-step-fixation,281,695680,0.0-76.0-2.48,FALSE,FALSE,TRUE,TRUE,"""event"",""trial"",""time""
""fullscreenenter"",""5"",""19457""
","
","
","""event"",""trial"",""time""
""fullscreenenter"",""5"",""19457""
","
",NA,images/earth.jpg,NA,NA,NA,NA,NA,NA,NA,NA,NA,NA,NA,NA,NA,fixation,NA,NA,NA,NA,NA,NA,sub47
d3-animate-choice,282,698239,0.0-76.0-0.49,FALSE,FALSE,TRUE,TRUE,"""event"",""trial"",""time""
