trial_type,trial_index,time_elapsed,internal_node_id,rocket_sides,red_planet_first_rocket,red_display_order,purple_display_order,interactions,blur_events,focus_events,fullscreenenter_events,fullscreenexit_events,rt,stimulus,key_press,button_pressed,success,duration,valid_pressed,rts,keys,planet_text,right_text,left_text,center_text,chosen_text,reward_text,trial_stage,practice_trial,transition_type,choice,transition,reward,timestamp,subject_id
pavlovia,0,5,0.0-0.0,TRUE,TRUE,TRUE,TRUE,"
","
","
","
","
",NA,NA,NA,NA,NA,NA,NA,NA,NA,NA,NA,NA,NA,NA,NA,NA,NA,NA,NA,NA,NA,NA,sub132
html-keyboard-response,1,1175,0.0-1.0,TRUE,TRUE,TRUE,TRUE,"
","
","
","
","
",1168.8250000588596,Welcome! Press the space bar to begin.,32,NA,NA,NA,NA,NA,NA,NA,NA,NA,NA,NA,NA,NA,NA,NA,NA,NA,NA,NA,sub132
audio-keyboard-response,2,4653,0.0-2.0,TRUE,TRUE,TRUE,TRUE,"
","
","
","
","
",3411,audio/beep_loop.wav,174,NA,NA,NA,NA,NA,NA,NA,NA,NA,NA,NA,NA,NA,NA,NA,NA,NA,NA,NA,sub132
audio-button-response,3,8628,0.0-3.0,TRUE,TRUE,TRUE,TRUE,"
","
","
","
","
",NaN,audio/fish.mp3,NA,1,NA,NA,NA,NA,NA,NA,NA,NA,NA,NA,NA,NA,NA,NA,NA,NA,NA,NA,sub132
audio-button-response,4,12256,0.0-4.0,TRUE,TRUE,TRUE,TRUE,"""event"",""trial"",""time""
""fullscreenenter"",""5"",""20391""
","
","
","""event"",""trial"",""time""
""fullscreenenter"",""5"",""20391""
","
",NaN,audio/tiger.mp3,NA,4,NA,NA,NA,NA,NA,NA,NA,NA,NA,NA,NA,NA,NA,NA,NA,NA,NA,NA,sub132
fullscreen,5,21373,0.0-5.0,TRUE,TRUE,TRUE,TRUE,"""event"",""trial"",""time""
""fullscreenenter"",""5"",""20391""
","
","
","""event"",""trial"",""time""
""fullscreenenter"",""5"",""20391""
","
",NA,NA,NA,NA,TRUE,NA,NA,NA,NA,NA,NA,NA,NA,NA,NA,NA,NA,NA,NA,NA,NA,NA,sub132
d3-instructions,6,35791,0.0-6.0,TRUE,TRUE,TRUE,TRUE,"""event"",""trial"",""time""
""fullscreenenter"",""5"",""20391""
","
","
","""event"",""trial"",""time""
""fullscreenenter"",""5"",""20391""
","
",NA,NA,NA,NA,NA,NA,NA,NA,NA,NA,NA,NA,NA,NA,NA,NA,NA,NA,NA,NA,NA,NA,sub132
d3-instructions,7,45121,0.0-7.0,TRUE,TRUE,TRUE,TRUE,"""event"",""trial"",""time""
""fullscreenenter"",""5"",""20391""
","
","
","""event"",""trial"",""time""
""fullscreenenter"",""5"",""20391""
","
",NA,NA,NA,NA,NA,NA,NA,NA,NA,NA,NA,NA,NA,NA,NA,NA,NA,NA,NA,NA,NA,NA,sub132
d3-instructions,8,52422,0.0-8.0,TRUE,TRUE,TRUE,TRUE,"""event"",""trial"",""time""
""fullscreenenter"",""5"",""20391""
","
","
","""event"",""trial"",""time""
""fullscreenenter"",""5"",""20391""
","
",NA,NA,NA,NA,NA,NA,NA,NA,NA,NA,NA,NA,NA,NA,NA,NA,NA,NA,NA,NA,NA,NA,sub132
d3-instructions,9,63484,0.0-9.0,TRUE,TRUE,TRUE,TRUE,"""event"",""trial"",""time""
""fullscreenenter"",""5"",""20391""
","
","
","""event"",""trial"",""time""
""fullscreenenter"",""5"",""20391""
","
",NA,NA,NA,NA,NA,NA,NA,NA,NA,NA,NA,NA,NA,NA,NA,NA,NA,NA,NA,NA,NA,NA,sub132
d3-instructions,10,83964,0.0-10.0,TRUE,TRUE,TRUE,TRUE,"""event"",""trial"",""time""
""fullscreenenter"",""5"",""20391""
","
","
","""event"",""trial"",""time""
""fullscreenenter"",""5"",""20391""
","
",NA,NA,NA,NA,NA,NA,NA,NA,NA,NA,NA,NA,NA,NA,NA,NA,NA,NA,NA,NA,NA,NA,sub132
d3-animate-choice,11,87583,0.0-11.0,TRUE,TRUE,TRUE,TRUE,"""event"",""trial"",""time""
""fullscreenenter"",""5"",""20391""
","
","
","""event"",""trial"",""time""
""fullscreenenter"",""5"",""20391""
","
",1601.4749999158084,NA,49,NA,NA,3000,1,2728.5249999258667,48,images/tutgreenplanet.jpg,images/tutalien1,images/tutalien2,null,images/tutalien2,NA,NA,practice,null,NA,NA,NA,NA,sub132
d3-animate-choice,12,90803,0.0-12.0,TRUE,TRUE,TRUE,TRUE,"""event"",""trial"",""time""
""fullscreenenter"",""5"",""20391""
","
","
","""event"",""trial"",""time""
""fullscreenenter"",""5"",""20391""
","
",1196.870000101626,NA,48,NA,NA,3000,1,NA,NA,images/tutgreenplanet.jpg,images/tutalien1,images/tutalien2,null,images/tutalien1,NA,NA,practice,null,NA,NA,NA,NA,sub132
d3-animate-choice,13,95543,0.0-13.0,TRUE,TRUE,TRUE,TRUE,"""event"",""trial"",""time""
""fullscreenenter"",""5"",""20391""
","
","
","""event"",""trial"",""time""
""fullscreenenter"",""5"",""20391""
","
",2734.4349999912083,NA,49,NA,NA,3000,1,NA,NA,images/tutgreenplanet.jpg,images/tutalien1,images/tutalien2,null,images/tutalien2,NA,NA,practice,null,NA,NA,NA,NA,sub132
d3-animate-choice,14,99303,0.0-14.0,TRUE,TRUE,TRUE,TRUE,"""event"",""trial"",""time""
""fullscreenenter"",""5"",""20391""
","
","
","""event"",""trial"",""time""
""fullscreenenter"",""5"",""20391""
","
",1754.1349999373779,NA,48,NA,NA,3000,1,NA,NA,images/tutgreenplanet.jpg,images/tutalien1,images/tutalien2,null,images/tutalien1,NA,NA,practice,null,NA,NA,NA,NA,sub132
d3-instructions,15,106736,0.0-15.0,TRUE,TRUE,TRUE,TRUE,"""event"",""trial"",""time""
""fullscreenenter"",""5"",""20391""
","
","
","""event"",""trial"",""time""
""fullscreenenter"",""5"",""20391""
","
",NA,NA,NA,NA,NA,NA,NA,NA,NA,NA,NA,NA,NA,NA,NA,NA,NA,NA,NA,NA,NA,NA,sub132
d3-instructions,16,113483,0.0-16.0,TRUE,TRUE,TRUE,TRUE,"""event"",""trial"",""time""
""fullscreenenter"",""5"",""20391""
","
","
","""event"",""trial"",""time""
""fullscreenenter"",""5"",""20391""
","
",NA,NA,NA,NA,NA,NA,NA,NA,NA,NA,NA,NA,NA,NA,NA,NA,NA,NA,NA,NA,NA,NA,sub132
d3-instructions,17,122693,0.0-17.0,TRUE,TRUE,TRUE,TRUE,"""event"",""trial"",""time""
""fullscreenenter"",""5"",""20391""
","
","
","""event"",""trial"",""time""
""fullscreenenter"",""5"",""20391""
","
",NA,NA,NA,NA,NA,NA,NA,NA,NA,NA,NA,NA,NA,NA,NA,NA,NA,NA,NA,NA,NA,NA,sub132
d3-instructions,18,136127,0.0-18.0,TRUE,TRUE,TRUE,TRUE,"""event"",""trial"",""time""
""fullscreenenter"",""5"",""20391""
","
","
","""event"",""trial"",""time""
""fullscreenenter"",""5"",""20391""
","
",NA,NA,NA,NA,NA,NA,NA,NA,NA,NA,NA,NA,NA,NA,NA,NA,NA,NA,NA,NA,NA,NA,sub132
d3-instructions,19,151031,0.0-19.0,TRUE,TRUE,TRUE,TRUE,"""event"",""trial"",""time""
""fullscreenenter"",""5"",""20391""
","
","
","""event"",""trial"",""time""
""fullscreenenter"",""5"",""20391""
","
",NA,NA,NA,NA,NA,NA,NA,NA,NA,NA,NA,NA,NA,NA,NA,NA,NA,NA,NA,NA,NA,NA,sub132
d3-animate-choice,20,154523,0.0-20.0,TRUE,TRUE,TRUE,TRUE,"""event"",""trial"",""time""
""fullscreenenter"",""5"",""20391""
","
","
","""event"",""trial"",""time""
""fullscreenenter"",""5"",""20391""
","
",1487.4050000216812,NA,49,NA,NA,3000,1,NA,NA,images/tutyellowplanet.jpg,null,images/tutalien3,null,images/tutalien3,images/t.png,NA,practice,null,NA,NA,NA,NA,sub132
d3-animate-choice,21,157253,0.0-21.0,TRUE,TRUE,TRUE,TRUE,"""event"",""trial"",""time""
""fullscreenenter"",""5"",""20391""
","
","
","""event"",""trial"",""time""
""fullscreenenter"",""5"",""20391""
","
",720.5199999734759,NA,49,NA,NA,3000,1,NA,NA,images/tutyellowplanet.jpg,null,images/tutalien3,null,images/tutalien3,images/t.png,NA,practice,null,NA,NA,NA,NA,sub132
d3-animate-choice,22,159703,0.0-22.0,TRUE,TRUE,TRUE,TRUE,"""event"",""trial"",""time""
""fullscreenenter"",""5"",""20391""
","
","
","""event"",""trial"",""time""
""fullscreenenter"",""5"",""20391""
","
",433.9499999769032,NA,49,NA,NA,3000,1,NA,NA,images/tutyellowplanet.jpg,null,images/tutalien3,null,images/tutalien3,images/t.png,NA,practice,null,NA,NA,NA,NA,sub132
d3-animate-choice,23,162103,0.0-23.0,TRUE,TRUE,TRUE,TRUE,"""event"",""trial"",""time""
""fullscreenenter"",""5"",""20391""
","
","
","""event"",""trial"",""time""
""fullscreenenter"",""5"",""20391""
","
",385.98000002093613,NA,49,NA,NA,3000,1,NA,NA,images/tutyellowplanet.jpg,null,images/tutalien3,null,images/tutalien3,images/t.png,NA,practice,null,NA,NA,NA,NA,sub132
d3-animate-choice,24,164789,0.0-24.0,TRUE,TRUE,TRUE,TRUE,"""event"",""trial"",""time""
""fullscreenenter"",""5"",""20391""
","
","
","""event"",""trial"",""time""
""fullscreenenter"",""5"",""20391""
","
",679.9550000578165,NA,49,NA,NA,3000,1,NA,NA,images/tutyellowplanet.jpg,null,images/tutalien3,null,images/tutalien3,images/t.png,NA,practice,null,NA,NA,NA,NA,sub132
d3-animate-choice,25,167183,0.0-25.0,TRUE,TRUE,TRUE,TRUE,"""event"",""trial"",""time""
""fullscreenenter"",""5"",""20391""
","
","
","""event"",""trial"",""time""
""fullscreenenter"",""5"",""20391""
","
",379.0850000223145,NA,49,NA,NA,3000,1,1654.355000006035,49,images/tutyellowplanet.jpg,null,images/tutalien3,null,images/tutalien3,images/t.png,NA,practice,null,NA,NA,NA,NA,sub132
d3-animate-choice,26,169514,0.0-26.0,TRUE,TRUE,TRUE,TRUE,"""event"",""trial"",""time""
""fullscreenenter"",""5"",""20391""
","
","
","""event"",""trial"",""time""
""fullscreenenter"",""5"",""20391""
","
",325.07499994244426,NA,49,NA,NA,3000,1,1809.6849999856204,49,images/tutyellowplanet.jpg,null,images/tutalien3,null,images/tutalien3,images/t.png,NA,practice,null,NA,NA,NA,NA,sub132
d3-animate-choice,27,171833,0.0-27.0,TRUE,TRUE,TRUE,TRUE,"""event"",""trial"",""time""
""fullscreenenter"",""5"",""20391""
","
","
","""event"",""trial"",""time""
""fullscreenenter"",""5"",""20391""
","
",312.67999997362494,NA,49,NA,NA,3000,1,NA,NA,images/tutyellowplanet.jpg,null,images/tutalien3,null,images/tutalien3,images/t.png,NA,practice,null,NA,NA,NA,NA,sub132
d3-animate-choice,28,174173,0.0-28.0,TRUE,TRUE,TRUE,TRUE,"""event"",""trial"",""time""
""fullscreenenter"",""5"",""20391""
","
","
","""event"",""trial"",""time""
""fullscreenenter"",""5"",""20391""
","
",327.27499993052334,NA,49,NA,NA,3000,1,1848.2649999205023,49,images/tutyellowplanet.jpg,null,images/tutalien3,null,images/tutalien3,images/t.png,NA,practice,null,NA,NA,NA,NA,sub132
d3-animate-choice,29,176513,0.0-29.0,TRUE,TRUE,TRUE,TRUE,"""event"",""trial"",""time""
""fullscreenenter"",""5"",""20391""
","
","
","""event"",""trial"",""time""
""fullscreenenter"",""5"",""20391""
","
",323.22999997995794,NA,49,NA,NA,3000,1,NA,NA,images/tutyellowplanet.jpg,null,images/tutalien3,null,images/tutalien3,images/t.png,NA,practice,null,NA,NA,NA,NA,sub132
d3-instructions,30,184049,0.0-30.0,TRUE,TRUE,TRUE,TRUE,"""event"",""trial"",""time""
""fullscreenenter"",""5"",""20391""
","
","
","""event"",""trial"",""time""
""fullscreenenter"",""5"",""20391""
","
",NA,NA,NA,NA,NA,NA,NA,NA,NA,NA,NA,NA,NA,NA,NA,NA,NA,NA,NA,NA,NA,NA,sub132
d3-instructions,31,193826,0.0-31.0,TRUE,TRUE,TRUE,TRUE,"""event"",""trial"",""time""
""fullscreenenter"",""5"",""20391""
","
","
","""event"",""trial"",""time""
""fullscreenenter"",""5"",""20391""
","
",NA,NA,NA,NA,NA,NA,NA,NA,NA,NA,NA,NA,NA,NA,NA,NA,NA,NA,NA,NA,NA,NA,sub132
d3-instructions,32,204098,0.0-32.0,TRUE,TRUE,TRUE,TRUE,"""event"",""trial"",""time""
""fullscreenenter"",""5"",""20391""
","
","
","""event"",""trial"",""time""
""fullscreenenter"",""5"",""20391""
","
",NA,NA,NA,NA,NA,NA,NA,NA,NA,NA,NA,NA,NA,NA,NA,NA,NA,NA,NA,NA,NA,NA,sub132
d3-instructions,33,214685,0.0-33.0,TRUE,TRUE,TRUE,TRUE,"""event"",""trial"",""time""
""fullscreenenter"",""5"",""20391""
","
","
","""event"",""trial"",""time""
""fullscreenenter"",""5"",""20391""
","
",NA,NA,NA,NA,NA,NA,NA,NA,NA,NA,NA,NA,NA,NA,NA,NA,NA,NA,NA,NA,NA,NA,sub132
d3-animate-choice,34,226573,0.0-34.0,TRUE,TRUE,TRUE,TRUE,"""event"",""trial"",""time""
""fullscreenenter"",""5"",""20391""
","
","
","""event"",""trial"",""time""
""fullscreenenter"",""5"",""20391""
","
",9869.775000028312,NA,49,NA,NA,3000,1,NA,NA,images/tutgreenplanet.jpg,images/tutalien1,images/tutalien2,null,images/tutalien2,images/t.png,NA,practice,null,NA,NA,NA,NA,sub132
d3-animate-choice,35,229743,0.0-35.0,TRUE,TRUE,TRUE,TRUE,"""event"",""trial"",""time""
""fullscreenenter"",""5"",""20391""
","
","
","""event"",""trial"",""time""
""fullscreenenter"",""5"",""20391""
","
",1164.710000040941,NA,49,NA,NA,3000,1,NA,NA,images/tutgreenplanet.jpg,images/tutalien1,images/tutalien2,null,images/tutalien2,images/t.png,NA,practice,null,NA,NA,NA,NA,sub132
d3-animate-choice,36,232413,0.0-36.0,TRUE,TRUE,TRUE,TRUE,"""event"",""trial"",""time""
""fullscreenenter"",""5"",""20391""
","
","
","""event"",""trial"",""time""
""fullscreenenter"",""5"",""20391""
","
",662.3149999650195,NA,49,NA,NA,3000,1,NA,NA,images/tutgreenplanet.jpg,images/tutalien1,images/tutalien2,null,images/tutalien2,images/t.png,NA,practice,null,NA,NA,NA,NA,sub132
d3-animate-choice,37,235013,0.0-37.0,TRUE,TRUE,TRUE,TRUE,"""event"",""trial"",""time""
""fullscreenenter"",""5"",""20391""
","
","
","""event"",""trial"",""time""
""fullscreenenter"",""5"",""20391""
","
",578.1449999194592,NA,49,NA,NA,3000,1,NA,NA,images/tutgreenplanet.jpg,images/tutalien1,images/tutalien2,null,images/tutalien2,images/t.png,NA,practice,null,NA,NA,NA,NA,sub132
d3-animate-choice,38,237583,0.0-38.0,TRUE,TRUE,TRUE,TRUE,"""event"",""trial"",""time""
""fullscreenenter"",""5"",""20391""
","
","
","""event"",""trial"",""time""
""fullscreenenter"",""5"",""20391""
","
",557.6900000451133,NA,49,NA,NA,3000,1,NA,NA,images/tutgreenplanet.jpg,images/tutalien1,images/tutalien2,null,images/tutalien2,images/t.png,NA,practice,null,NA,NA,NA,NA,sub132
d3-animate-choice,39,239963,0.0-39.0,TRUE,TRUE,TRUE,TRUE,"""event"",""trial"",""time""
""fullscreenenter"",""5"",""20391""
","
","
","""event"",""trial"",""time""
""fullscreenenter"",""5"",""20391""
","
",360.7149999588728,NA,49,NA,NA,3000,1,NA,NA,images/tutgreenplanet.jpg,images/tutalien1,images/tutalien2,null,images/tutalien2,images/t.png,NA,practice,null,NA,NA,NA,NA,sub132
d3-animate-choice,40,242363,0.0-40.0,TRUE,TRUE,TRUE,TRUE,"""event"",""trial"",""time""
""fullscreenenter"",""5"",""20391""
","
","
","""event"",""trial"",""time""
""fullscreenenter"",""5"",""20391""
","
",391.4450000738725,NA,49,NA,NA,3000,1,NA,NA,images/tutgreenplanet.jpg,images/tutalien1,images/tutalien2,null,images/tutalien2,images/t.png,NA,practice,null,NA,NA,NA,NA,sub132
d3-animate-choice,41,244736,0.0-41.0,TRUE,TRUE,TRUE,TRUE,"""event"",""trial"",""time""
""fullscreenenter"",""5"",""20391""
","
","
","""event"",""trial"",""time""
""fullscreenenter"",""5"",""20391""
","
",370.33000006340444,NA,49,NA,NA,3000,1,NA,NA,images/tutgreenplanet.jpg,images/tutalien1,images/tutalien2,null,images/tutalien2,images/t.png,NA,practice,null,NA,NA,NA,NA,sub132
d3-animate-choice,42,247152,0.0-42.0,TRUE,TRUE,TRUE,TRUE,"""event"",""trial"",""time""
""fullscreenenter"",""5"",""20391""
","
","
","""event"",""trial"",""time""
""fullscreenenter"",""5"",""20391""
","
",413.19500003010035,NA,49,NA,NA,3000,1,NA,NA,images/tutgreenplanet.jpg,images/tutalien1,images/tutalien2,null,images/tutalien2,images/t.png,NA,practice,null,NA,NA,NA,NA,sub132
d3-animate-choice,43,249501,0.0-43.0,TRUE,TRUE,TRUE,TRUE,"""event"",""trial"",""time""
""fullscreenenter"",""5"",""20391""
","
","
","""event"",""trial"",""time""
""fullscreenenter"",""5"",""20391""
","
",346.5100000612438,NA,49,NA,NA,3000,1,NA,NA,images/tutgreenplanet.jpg,images/tutalien1,images/tutalien2,null,images/tutalien2,images/t.png,NA,practice,null,NA,NA,NA,NA,sub132
d3-instructions,44,263606,0.0-44.0,TRUE,TRUE,TRUE,TRUE,"""event"",""trial"",""time""
""fullscreenenter"",""5"",""20391""
","
","
","""event"",""trial"",""time""
""fullscreenenter"",""5"",""20391""
","
",NA,NA,NA,NA,NA,NA,NA,NA,NA,NA,NA,NA,NA,NA,NA,NA,NA,NA,NA,NA,NA,NA,sub132
d3-instructions,45,271571,0.0-45.0,TRUE,TRUE,TRUE,TRUE,"""event"",""trial"",""time""
""fullscreenenter"",""5"",""20391""
","
","
","""event"",""trial"",""time""
""fullscreenenter"",""5"",""20391""
","
",NA,NA,NA,NA,NA,NA,NA,NA,NA,NA,NA,NA,NA,NA,NA,NA,NA,NA,NA,NA,NA,NA,sub132
d3-instructions,46,278486,0.0-46.0,TRUE,TRUE,TRUE,TRUE,"""event"",""trial"",""time""
""fullscreenenter"",""5"",""20391""
","
","
","""event"",""trial"",""time""
""fullscreenenter"",""5"",""20391""
","
",NA,NA,NA,NA,NA,NA,NA,NA,NA,NA,NA,NA,NA,NA,NA,NA,NA,NA,NA,NA,NA,NA,sub132
d3-instructions,47,298170,0.0-47.0,TRUE,TRUE,TRUE,TRUE,"""event"",""trial"",""time""
""fullscreenenter"",""5"",""20391""
","
","
","""event"",""trial"",""time""
""fullscreenenter"",""5"",""20391""
","
",NA,NA,NA,NA,NA,NA,NA,NA,NA,NA,NA,NA,NA,NA,NA,NA,NA,NA,NA,NA,NA,NA,sub132
d3-instructions,48,304877,0.0-48.0,TRUE,TRUE,TRUE,TRUE,"""event"",""trial"",""time""
""fullscreenenter"",""5"",""20391""
","
","
","""event"",""trial"",""time""
""fullscreenenter"",""5"",""20391""
","
",NA,NA,NA,NA,NA,NA,NA,NA,NA,NA,NA,NA,NA,NA,NA,NA,NA,NA,NA,NA,NA,NA,sub132
d3-instructions,49,317235,0.0-49.0,TRUE,TRUE,TRUE,TRUE,"""event"",""trial"",""time""
""fullscreenenter"",""5"",""20391""
","
","
","""event"",""trial"",""time""
""fullscreenenter"",""5"",""20391""
","
",NA,NA,NA,NA,NA,NA,NA,NA,NA,NA,NA,NA,NA,NA,NA,NA,NA,NA,NA,NA,NA,NA,sub132
d3-instructions,50,323502,0.0-50.0,TRUE,TRUE,TRUE,TRUE,"""event"",""trial"",""time""
""fullscreenenter"",""5"",""20391""
","
","
","""event"",""trial"",""time""
""fullscreenenter"",""5"",""20391""
","
",NA,NA,NA,NA,NA,NA,NA,NA,NA,NA,NA,NA,NA,NA,NA,NA,NA,NA,NA,NA,NA,NA,sub132
d3-instructions,51,326382,0.0-51.0,TRUE,TRUE,TRUE,TRUE,"""event"",""trial"",""time""
""fullscreenenter"",""5"",""20391""
","
","
","""event"",""trial"",""time""
""fullscreenenter"",""5"",""20391""
","
",NA,NA,NA,NA,NA,NA,NA,NA,NA,NA,NA,NA,NA,NA,NA,NA,NA,NA,NA,NA,NA,NA,sub132
d3-instructions,52,328047,0.0-52.0,TRUE,TRUE,TRUE,TRUE,"""event"",""trial"",""time""
""fullscreenenter"",""5"",""20391""
","
","
","""event"",""trial"",""time""
""fullscreenenter"",""5"",""20391""
","
",NA,NA,NA,NA,NA,NA,NA,NA,NA,NA,NA,NA,NA,NA,NA,NA,NA,NA,NA,NA,NA,NA,sub132
d3-instructions,53,340632,0.0-53.0,TRUE,TRUE,TRUE,TRUE,"""event"",""trial"",""time""
""fullscreenenter"",""5"",""20391""
","
","
","""event"",""trial"",""time""
""fullscreenenter"",""5"",""20391""
","
",NA,NA,NA,NA,NA,NA,NA,NA,NA,NA,NA,NA,NA,NA,NA,NA,NA,NA,NA,NA,NA,NA,sub132
d3-instructions,54,351986,0.0-54.0,TRUE,TRUE,TRUE,TRUE,"""event"",""trial"",""time""
""fullscreenenter"",""5"",""20391""
","
","
","""event"",""trial"",""time""
""fullscreenenter"",""5"",""20391""
","
",NA,NA,NA,NA,NA,NA,NA,NA,NA,NA,NA,NA,NA,NA,NA,NA,NA,NA,NA,NA,NA,NA,sub132
d3-instructions,55,356409,0.0-55.0,TRUE,TRUE,TRUE,TRUE,"""event"",""trial"",""time""
""fullscreenenter"",""5"",""20391""
","
","
","""event"",""trial"",""time""
""fullscreenenter"",""5"",""20391""
","
",NA,NA,NA,NA,NA,NA,NA,NA,NA,NA,NA,NA,NA,NA,NA,NA,NA,NA,NA,NA,NA,NA,sub132
d3-instructions,56,364703,0.0-56.0,TRUE,TRUE,TRUE,TRUE,"""event"",""trial"",""time""
""fullscreenenter"",""5"",""20391""
","
","
","""event"",""trial"",""time""
""fullscreenenter"",""5"",""20391""
","
",NA,NA,NA,NA,NA,NA,NA,NA,NA,NA,NA,NA,NA,NA,NA,NA,NA,NA,NA,NA,NA,NA,sub132
d3-instructions,57,371513,0.0-57.0,TRUE,TRUE,TRUE,TRUE,"""event"",""trial"",""time""
""fullscreenenter"",""5"",""20391""
","
","
","""event"",""trial"",""time""
""fullscreenenter"",""5"",""20391""
","
",NA,NA,NA,NA,NA,NA,NA,NA,NA,NA,NA,NA,NA,NA,NA,NA,NA,NA,NA,NA,NA,NA,sub132
d3-instructions,58,381250,0.0-58.0,TRUE,TRUE,TRUE,TRUE,"""event"",""trial"",""time""
""fullscreenenter"",""5"",""20391""
","
","
","""event"",""trial"",""time""
""fullscreenenter"",""5"",""20391""
","
",NA,NA,NA,NA,NA,NA,NA,NA,NA,NA,NA,NA,NA,NA,NA,NA,NA,NA,NA,NA,NA,NA,sub132
d3-instructions,59,383594,0.0-59.0,TRUE,TRUE,TRUE,TRUE,"""event"",""trial"",""time""
""fullscreenenter"",""5"",""20391""
","
","
","""event"",""trial"",""time""
""fullscreenenter"",""5"",""20391""
","
",NA,NA,NA,NA,NA,NA,NA,NA,NA,NA,NA,NA,NA,NA,NA,NA,NA,NA,NA,NA,NA,NA,sub132
d3-instructions,60,385720,0.0-60.0,TRUE,TRUE,TRUE,TRUE,"""event"",""trial"",""time""
""fullscreenenter"",""5"",""20391""
","
","
","""event"",""trial"",""time""
""fullscreenenter"",""5"",""20391""
","
",NA,NA,NA,NA,NA,NA,NA,NA,NA,NA,NA,NA,NA,NA,NA,NA,NA,NA,NA,NA,NA,NA,sub132
d3-animate-choice,61,388752,0.0-61.0-0.0,TRUE,TRUE,TRUE,TRUE,"""event"",""trial"",""time""
""fullscreenenter"",""5"",""20391""
","
","
","""event"",""trial"",""time""
""fullscreenenter"",""5"",""20391""
","
",1008.1249999348074,NA,48,NA,NA,3000,1,NA,NA,images/earth.jpg,images/tutrocket1,images/tutrocket2,null,images/tutrocket1,NA,1,practice,null,2,NA,NA,NA,sub132
d3-animate-choice,62,392392,0.0-61.0-1.0,TRUE,TRUE,TRUE,TRUE,"""event"",""trial"",""time""
""fullscreenenter"",""5"",""20391""
","
","
","""event"",""trial"",""time""
""fullscreenenter"",""5"",""20391""
","
",1630.654999986291,NA,48,NA,NA,3000,1,NA,NA,images/tutgreenplanet.jpg,images/tutalien2,images/tutalien1,images/tutrocket1,images/tutalien2,images/nothing.png,2,practice,true,2,common,0,2020-06-30T15:50:57Z,sub132
two-step-fixation,63,393411,0.0-61.0-2.0,TRUE,TRUE,TRUE,TRUE,"""event"",""trial"",""time""
""fullscreenenter"",""5"",""20391""
","
","
","""event"",""trial"",""time""
""fullscreenenter"",""5"",""20391""
","
",NA,images/earth.jpg,NA,NA,NA,NA,NA,NA,NA,NA,NA,NA,NA,NA,NA,fixation,NA,NA,NA,NA,NA,NA,sub132
d3-animate-choice,64,396391,0.0-61.0-0.1,TRUE,TRUE,TRUE,TRUE,"""event"",""trial"",""time""
""fullscreenenter"",""5"",""20391""
","
","
","""event"",""trial"",""time""
""fullscreenenter"",""5"",""20391""
","
",967.6350000081584,NA,48,NA,NA,3000,1,NA,NA,images/earth.jpg,images/tutrocket1,images/tutrocket2,null,images/tutrocket1,NA,1,practice,null,2,NA,NA,NA,sub132
d3-animate-choice,65,399011,0.0-61.0-1.1,TRUE,TRUE,TRUE,TRUE,"""event"",""trial"",""time""
""fullscreenenter"",""5"",""20391""
","
","
","""event"",""trial"",""time""
""fullscreenenter"",""5"",""20391""
","
",598.2850000727922,NA,49,NA,NA,3000,1,NA,NA,images/tutgreenplanet.jpg,images/tutalien2,images/tutalien1,images/tutrocket1,images/tutalien1,images/nothing.png,2,practice,true,1,common,0,2020-06-30T15:51:04Z,sub132
two-step-fixation,66,400032,0.0-61.0-2.1,TRUE,TRUE,TRUE,TRUE,"""event"",""trial"",""time""
""fullscreenenter"",""5"",""20391""
","
","
","""event"",""trial"",""time""
""fullscreenenter"",""5"",""20391""
","
",NA,images/earth.jpg,NA,NA,NA,NA,NA,NA,NA,NA,NA,NA,NA,NA,NA,fixation,NA,NA,NA,NA,NA,NA,sub132
d3-animate-choice,67,402552,0.0-61.0-0.2,TRUE,TRUE,TRUE,TRUE,"""event"",""trial"",""time""
""fullscreenenter"",""5"",""20391""
","
","
","""event"",""trial"",""time""
""fullscreenenter"",""5"",""20391""
","
",511.96000003255904,NA,49,NA,NA,3000,1,NA,NA,images/earth.jpg,images/tutrocket1,images/tutrocket2,null,images/tutrocket2,NA,1,practice,null,1,NA,NA,NA,sub132
d3-animate-choice,68,405852,0.0-61.0-1.2,TRUE,TRUE,TRUE,TRUE,"""event"",""trial"",""time""
""fullscreenenter"",""5"",""20391""
","
","
","""event"",""trial"",""time""
""fullscreenenter"",""5"",""20391""
","
",1296.8049999326468,NA,48,NA,NA,3000,1,NA,NA,images/tutyellowplanet.jpg,images/tutalien4,images/tutalien3,images/tutrocket2,images/tutalien4,images/t.png,2,practice,true,2,common,1,2020-06-30T15:51:11Z,sub132
two-step-fixation,69,406855,0.0-61.0-2.2,TRUE,TRUE,TRUE,TRUE,"""event"",""trial"",""time""
""fullscreenenter"",""5"",""20391""
","
","
","""event"",""trial"",""time""
""fullscreenenter"",""5"",""20391""
","
",NA,images/earth.jpg,NA,NA,NA,NA,NA,NA,NA,NA,NA,NA,NA,NA,NA,fixation,NA,NA,NA,NA,NA,NA,sub132
d3-animate-choice,70,409266,0.0-61.0-0.3,TRUE,TRUE,TRUE,TRUE,"""event"",""trial"",""time""
""fullscreenenter"",""5"",""20391""
","
","
","""event"",""trial"",""time""
""fullscreenenter"",""5"",""20391""
","
",408.7350000627339,NA,49,NA,NA,3000,1,NA,NA,images/earth.jpg,images/tutrocket1,images/tutrocket2,null,images/tutrocket2,NA,1,practice,null,1,NA,NA,NA,sub132
d3-animate-choice,71,411763,0.0-61.0-1.3,TRUE,TRUE,TRUE,TRUE,"""event"",""trial"",""time""
""fullscreenenter"",""5"",""20391""
","
","
","""event"",""trial"",""time""
""fullscreenenter"",""5"",""20391""
","
",491.5850000688806,NA,48,NA,NA,3000,1,NA,NA,images/tutyellowplanet.jpg,images/tutalien4,images/tutalien3,images/tutrocket2,images/tutalien4,images/nothing.png,2,practice,true,2,common,0,2020-06-30T15:51:17Z,sub132
two-step-fixation,72,412777,0.0-61.0-2.3,TRUE,TRUE,TRUE,TRUE,"""event"",""trial"",""time""
""fullscreenenter"",""5"",""20391""
","
","
","""event"",""trial"",""time""
""fullscreenenter"",""5"",""20391""
","
",NA,images/earth.jpg,NA,NA,NA,NA,NA,NA,NA,NA,NA,NA,NA,NA,NA,fixation,NA,NA,NA,NA,NA,NA,sub132
d3-animate-choice,73,415072,0.0-61.0-0.4,TRUE,TRUE,TRUE,TRUE,"""event"",""trial"",""time""
""fullscreenenter"",""5"",""20391""
","
","
","""event"",""trial"",""time""
""fullscreenenter"",""5"",""20391""
","
",290.05499999038875,NA,49,NA,NA,3000,1,NA,NA,images/earth.jpg,images/tutrocket1,images/tutrocket2,null,images/tutrocket2,NA,1,practice,null,1,NA,NA,NA,sub132
d3-animate-choice,74,417393,0.0-61.0-1.4,TRUE,TRUE,TRUE,TRUE,"""event"",""trial"",""time""
""fullscreenenter"",""5"",""20391""
","
","
","""event"",""trial"",""time""
""fullscreenenter"",""5"",""20391""
","
",317.7949999226257,NA,49,NA,NA,3000,1,NA,NA,images/tutyellowplanet.jpg,images/tutalien4,images/tutalien3,images/tutrocket2,images/tutalien3,images/nothing.png,2,practice,true,1,common,0,2020-06-30T15:51:22Z,sub132
two-step-fixation,75,418396,0.0-61.0-2.4,TRUE,TRUE,TRUE,TRUE,"""event"",""trial"",""time""
""fullscreenenter"",""5"",""20391""
","
","
","""event"",""trial"",""time""
""fullscreenenter"",""5"",""20391""
","
",NA,images/earth.jpg,NA,NA,NA,NA,NA,NA,NA,NA,NA,NA,NA,NA,NA,fixation,NA,NA,NA,NA,NA,NA,sub132
d3-animate-choice,76,420707,0.0-61.0-0.5,TRUE,TRUE,TRUE,TRUE,"""event"",""trial"",""time""
""fullscreenenter"",""5"",""20391""
","
","
","""event"",""trial"",""time""
""fullscreenenter"",""5"",""20391""
","
",308.4249999374151,NA,49,NA,NA,3000,1,NA,NA,images/earth.jpg,images/tutrocket1,images/tutrocket2,null,images/tutrocket2,NA,1,practice,null,1,NA,NA,NA,sub132
d3-animate-choice,77,422995,0.0-61.0-1.5,TRUE,TRUE,TRUE,TRUE,"""event"",""trial"",""time""
""fullscreenenter"",""5"",""20391""
","
","
","""event"",""trial"",""time""
""fullscreenenter"",""5"",""20391""
","
",285.77499999664724,NA,48,NA,NA,3000,1,NA,NA,images/tutyellowplanet.jpg,images/tutalien4,images/tutalien3,images/tutrocket2,images/tutalien4,images/t.png,2,practice,true,2,common,1,2020-06-30T15:51:28Z,sub132
two-step-fixation,78,423998,0.0-61.0-2.5,TRUE,TRUE,TRUE,TRUE,"""event"",""trial"",""time""
""fullscreenenter"",""5"",""20391""
","
","
","""event"",""trial"",""time""
""fullscreenenter"",""5"",""20391""
","
",NA,images/earth.jpg,NA,NA,NA,NA,NA,NA,NA,NA,NA,NA,NA,NA,NA,fixation,NA,NA,NA,NA,NA,NA,sub132
d3-animate-choice,79,426235,0.0-61.0-0.6,TRUE,TRUE,TRUE,TRUE,"""event"",""trial"",""time""
""fullscreenenter"",""5"",""20391""
","
","
","""event"",""trial"",""time""
""fullscreenenter"",""5"",""20391""
","
",234.33999996632338,NA,49,NA,NA,3000,1,NA,NA,images/earth.jpg,images/tutrocket1,images/tutrocket2,null,images/tutrocket2,NA,1,practice,null,1,NA,NA,NA,sub132
d3-animate-choice,80,428532,0.0-61.0-1.6,TRUE,TRUE,TRUE,TRUE,"""event"",""trial"",""time""
""fullscreenenter"",""5"",""20391""
","
","
","""event"",""trial"",""time""
""fullscreenenter"",""5"",""20391""
","
",294.0099999541417,NA,48,NA,NA,3000,1,NA,NA,images/tutyellowplanet.jpg,images/tutalien4,images/tutalien3,images/tutrocket2,images/tutalien4,images/t.png,2,practice,true,2,common,1,2020-06-30T15:51:33Z,sub132
two-step-fixation,81,429534,0.0-61.0-2.6,TRUE,TRUE,TRUE,TRUE,"""event"",""trial"",""time""
""fullscreenenter"",""5"",""20391""
","
","
","""event"",""trial"",""time""
""fullscreenenter"",""5"",""20391""
","
",NA,images/earth.jpg,NA,NA,NA,NA,NA,NA,NA,NA,NA,NA,NA,NA,NA,fixation,NA,NA,NA,NA,NA,NA,sub132
d3-animate-choice,82,431818,0.0-61.0-0.7,TRUE,TRUE,TRUE,TRUE,"""event"",""trial"",""time""
""fullscreenenter"",""5"",""20391""
","
","
","""event"",""trial"",""time""
""fullscreenenter"",""5"",""20391""
","
",281.53999999631196,NA,49,NA,NA,3000,1,NA,NA,images/earth.jpg,images/tutrocket1,images/tutrocket2,null,images/tutrocket2,NA,1,practice,null,1,NA,NA,NA,sub132
d3-animate-choice,83,434145,0.0-61.0-1.7,TRUE,TRUE,TRUE,TRUE,"""event"",""trial"",""time""
""fullscreenenter"",""5"",""20391""
","
","
","""event"",""trial"",""time""
""fullscreenenter"",""5"",""20391""
","
",324.2150000296533,NA,48,NA,NA,3000,1,NA,NA,images/tutgreenplanet.jpg,images/tutalien2,images/tutalien1,images/tutrocket2,images/tutalien2,images/nothing.png,2,practice,false,2,rare,0,2020-06-30T15:51:39Z,sub132
two-step-fixation,84,435147,0.0-61.0-2.7,TRUE,TRUE,TRUE,TRUE,"""event"",""trial"",""time""
""fullscreenenter"",""5"",""20391""
","
","
","""event"",""trial"",""time""
""fullscreenenter"",""5"",""20391""
","
",NA,images/earth.jpg,NA,NA,NA,NA,NA,NA,NA,NA,NA,NA,NA,NA,NA,fixation,NA,NA,NA,NA,NA,NA,sub132
d3-animate-choice,85,437455,0.0-61.0-0.8,TRUE,TRUE,TRUE,TRUE,"""event"",""trial"",""time""
""fullscreenenter"",""5"",""20391""
","
","
","""event"",""trial"",""time""
""fullscreenenter"",""5"",""20391""
","
",304.5699999202043,NA,49,NA,NA,3000,1,NA,NA,images/earth.jpg,images/tutrocket1,images/tutrocket2,null,images/tutrocket2,NA,1,practice,null,1,NA,NA,NA,sub132
d3-animate-choice,86,439819,0.0-61.0-1.8,TRUE,TRUE,TRUE,TRUE,"""event"",""trial"",""time""
""fullscreenenter"",""5"",""20391""
","
","
","""event"",""trial"",""time""
""fullscreenenter"",""5"",""20391""
","
",359.3949999194592,NA,48,NA,NA,3000,1,NA,NA,images/tutgreenplanet.jpg,images/tutalien2,images/tutalien1,images/tutrocket2,images/tutalien2,images/t.png,2,practice,false,2,rare,1,2020-06-30T15:51:45Z,sub132
two-step-fixation,87,440822,0.0-61.0-2.8,TRUE,TRUE,TRUE,TRUE,"""event"",""trial"",""time""
""fullscreenenter"",""5"",""20391""
","
","
","""event"",""trial"",""time""
""fullscreenenter"",""5"",""20391""
","
",NA,images/earth.jpg,NA,NA,NA,NA,NA,NA,NA,NA,NA,NA,NA,NA,NA,fixation,NA,NA,NA,NA,NA,NA,sub132
d3-animate-choice,88,443196,0.0-61.0-0.9,TRUE,TRUE,TRUE,TRUE,"""event"",""trial"",""time""
""fullscreenenter"",""5"",""20391""
","
","
","""event"",""trial"",""time""
""fullscreenenter"",""5"",""20391""
","
",370.36499998066574,NA,49,NA,NA,3000,1,NA,NA,images/earth.jpg,images/tutrocket1,images/tutrocket2,null,images/tutrocket2,NA,1,practice,null,1,NA,NA,NA,sub132
d3-animate-choice,89,445948,0.0-61.0-1.9,TRUE,TRUE,TRUE,TRUE,"""event"",""trial"",""time""
""fullscreenenter"",""5"",""20391""
","
","
","""event"",""trial"",""time""
""fullscreenenter"",""5"",""20391""
","
",748.8550000125542,NA,48,NA,NA,3000,1,NA,NA,images/tutyellowplanet.jpg,images/tutalien4,images/tutalien3,images/tutrocket2,images/tutalien4,images/nothing.png,2,practice,true,2,common,0,2020-06-30T15:51:51Z,sub132
two-step-fixation,90,446951,0.0-61.0-2.9,TRUE,TRUE,TRUE,TRUE,"""event"",""trial"",""time""
""fullscreenenter"",""5"",""20391""
","
","
","""event"",""trial"",""time""
""fullscreenenter"",""5"",""20391""
","
",NA,images/earth.jpg,NA,NA,NA,NA,NA,NA,NA,NA,NA,NA,NA,NA,NA,fixation,NA,NA,NA,NA,NA,NA,sub132
d3-animate-choice,91,449288,0.0-61.0-0.10,TRUE,TRUE,TRUE,TRUE,"""event"",""trial"",""time""
""fullscreenenter"",""5"",""20391""
","
","
","""event"",""trial"",""time""
""fullscreenenter"",""5"",""20391""
","
",333.74500006902963,NA,49,NA,NA,3000,1,NA,NA,images/earth.jpg,images/tutrocket1,images/tutrocket2,null,images/tutrocket2,NA,1,practice,null,1,NA,NA,NA,sub132
d3-animate-choice,92,452036,0.0-61.0-1.10,TRUE,TRUE,TRUE,TRUE,"""event"",""trial"",""time""
""fullscreenenter"",""5"",""20391""
","
","
","""event"",""trial"",""time""
""fullscreenenter"",""5"",""20391""
","
",745.4699999652803,NA,49,NA,NA,3000,1,NA,NA,images/tutyellowplanet.jpg,images/tutalien4,images/tutalien3,images/tutrocket2,images/tutalien3,images/nothing.png,2,practice,true,1,common,0,2020-06-30T15:51:57Z,sub132
two-step-fixation,93,453039,0.0-61.0-2.10,TRUE,TRUE,TRUE,TRUE,"""event"",""trial"",""time""
""fullscreenenter"",""5"",""20391""
","
","
","""event"",""trial"",""time""
""fullscreenenter"",""5"",""20391""
","
",NA,images/earth.jpg,NA,NA,NA,NA,NA,NA,NA,NA,NA,NA,NA,NA,NA,fixation,NA,NA,NA,NA,NA,NA,sub132
d3-animate-choice,94,455378,0.0-61.0-0.11,TRUE,TRUE,TRUE,TRUE,"""event"",""trial"",""time""
""fullscreenenter"",""5"",""20391""
","
","
","""event"",""trial"",""time""
""fullscreenenter"",""5"",""20391""
","
",335.4599999729544,NA,49,NA,NA,3000,1,NA,NA,images/earth.jpg,images/tutrocket1,images/tutrocket2,null,images/tutrocket2,NA,1,practice,null,1,NA,NA,NA,sub132
d3-animate-choice,95,458023,0.0-61.0-1.11,TRUE,TRUE,TRUE,TRUE,"""event"",""trial"",""time""
""fullscreenenter"",""5"",""20391""
","
","
","""event"",""trial"",""time""
""fullscreenenter"",""5"",""20391""
","
",641.9600000372157,NA,48,NA,NA,3000,1,NA,NA,images/tutyellowplanet.jpg,images/tutalien4,images/tutalien3,images/tutrocket2,images/tutalien4,images/nothing.png,2,practice,true,2,common,0,2020-06-30T15:52:03Z,sub132
two-step-fixation,96,459025,0.0-61.0-2.11,TRUE,TRUE,TRUE,TRUE,"""event"",""trial"",""time""
""fullscreenenter"",""5"",""20391""
","
","
","""event"",""trial"",""time""
""fullscreenenter"",""5"",""20391""
","
",NA,images/earth.jpg,NA,NA,NA,NA,NA,NA,NA,NA,NA,NA,NA,NA,NA,fixation,NA,NA,NA,NA,NA,NA,sub132
d3-animate-choice,97,461325,0.0-61.0-0.12,TRUE,TRUE,TRUE,TRUE,"""event"",""trial"",""time""
""fullscreenenter"",""5"",""20391""
","
","
","""event"",""trial"",""time""
""fullscreenenter"",""5"",""20391""
","
",297.09000000730157,NA,48,NA,NA,3000,1,NA,NA,images/earth.jpg,images/tutrocket1,images/tutrocket2,null,images/tutrocket1,NA,1,practice,null,2,NA,NA,NA,sub132
d3-animate-choice,98,463908,0.0-61.0-1.12,TRUE,TRUE,TRUE,TRUE,"""event"",""trial"",""time""
""fullscreenenter"",""5"",""20391""
","
","
","""event"",""trial"",""time""
""fullscreenenter"",""5"",""20391""
","
",579.4349999632686,NA,48,NA,NA,3000,1,NA,NA,images/tutgreenplanet.jpg,images/tutalien2,images/tutalien1,images/tutrocket1,images/tutalien2,images/nothing.png,2,practice,true,2,common,0,2020-06-30T15:52:09Z,sub132
two-step-fixation,99,464911,0.0-61.0-2.12,TRUE,TRUE,TRUE,TRUE,"""event"",""trial"",""time""
""fullscreenenter"",""5"",""20391""
","
","
","""event"",""trial"",""time""
""fullscreenenter"",""5"",""20391""
","
",NA,images/earth.jpg,NA,NA,NA,NA,NA,NA,NA,NA,NA,NA,NA,NA,NA,fixation,NA,NA,NA,NA,NA,NA,sub132
d3-animate-choice,100,467598,0.0-61.0-0.13,TRUE,TRUE,TRUE,TRUE,"""event"",""trial"",""time""
""fullscreenenter"",""5"",""20391""
","
","
","""event"",""trial"",""time""
""fullscreenenter"",""5"",""20391""
","
",685.1500000339001,NA,49,NA,NA,3000,1,NA,NA,images/earth.jpg,images/tutrocket1,images/tutrocket2,null,images/tutrocket2,NA,1,practice,null,1,NA,NA,NA,sub132
d3-animate-choice,101,470838,0.0-61.0-1.13,TRUE,TRUE,TRUE,TRUE,"""event"",""trial"",""time""
""fullscreenenter"",""5"",""20391""
","
","
","""event"",""trial"",""time""
""fullscreenenter"",""5"",""20391""
","
",1236.7099999682978,NA,49,NA,NA,3000,1,NA,NA,images/tutgreenplanet.jpg,images/tutalien2,images/tutalien1,images/tutrocket2,images/tutalien1,images/nothing.png,2,practice,false,1,rare,0,2020-06-30T15:52:16Z,sub132
two-step-fixation,102,471841,0.0-61.0-2.13,TRUE,TRUE,TRUE,TRUE,"""event"",""trial"",""time""
""fullscreenenter"",""5"",""20391""
","
","
","""event"",""trial"",""time""
""fullscreenenter"",""5"",""20391""
","
",NA,images/earth.jpg,NA,NA,NA,NA,NA,NA,NA,NA,NA,NA,NA,NA,NA,fixation,NA,NA,NA,NA,NA,NA,sub132
d3-animate-choice,103,474220,0.0-61.0-0.14,TRUE,TRUE,TRUE,TRUE,"""event"",""trial"",""time""
""fullscreenenter"",""5"",""20391""
","
","
","""event"",""trial"",""time""
""fullscreenenter"",""5"",""20391""
","
",375.1600000541657,NA,49,NA,NA,3000,1,NA,NA,images/earth.jpg,images/tutrocket1,images/tutrocket2,null,images/tutrocket2,NA,1,practice,null,1,NA,NA,NA,sub132
d3-animate-choice,104,477025,0.0-61.0-1.14,TRUE,TRUE,TRUE,TRUE,"""event"",""trial"",""time""
""fullscreenenter"",""5"",""20391""
","
","
","""event"",""trial"",""time""
""fullscreenenter"",""5"",""20391""
","
",801.644999999553,NA,48,NA,NA,3000,1,NA,NA,images/tutgreenplanet.jpg,images/tutalien2,images/tutalien1,images/tutrocket2,images/tutalien2,images/nothing.png,2,practice,false,2,rare,0,2020-06-30T15:52:22Z,sub132
two-step-fixation,105,478028,0.0-61.0-2.14,TRUE,TRUE,TRUE,TRUE,"""event"",""trial"",""time""
""fullscreenenter"",""5"",""20391""
","
","
","""event"",""trial"",""time""
""fullscreenenter"",""5"",""20391""
","
",NA,images/earth.jpg,NA,NA,NA,NA,NA,NA,NA,NA,NA,NA,NA,NA,NA,fixation,NA,NA,NA,NA,NA,NA,sub132
d3-animate-choice,106,480346,0.0-61.0-0.15,TRUE,TRUE,TRUE,TRUE,"""event"",""trial"",""time""
""fullscreenenter"",""5"",""20391""
","
","
","""event"",""trial"",""time""
""fullscreenenter"",""5"",""20391""
","
",314.3350000027567,NA,49,NA,NA,3000,1,NA,NA,images/earth.jpg,images/tutrocket1,images/tutrocket2,null,images/tutrocket2,NA,1,practice,null,1,NA,NA,NA,sub132
d3-animate-choice,107,482996,0.0-61.0-1.15,TRUE,TRUE,TRUE,TRUE,"""event"",""trial"",""time""
""fullscreenenter"",""5"",""20391""
","
","
","""event"",""trial"",""time""
""fullscreenenter"",""5"",""20391""
","
",647.1649999730289,NA,48,NA,NA,3000,1,NA,NA,images/tutyellowplanet.jpg,images/tutalien4,images/tutalien3,images/tutrocket2,images/tutalien4,images/nothing.png,2,practice,true,2,common,0,2020-06-30T15:52:28Z,sub132
two-step-fixation,108,483999,0.0-61.0-2.15,TRUE,TRUE,TRUE,TRUE,"""event"",""trial"",""time""
""fullscreenenter"",""5"",""20391""
","
","
","""event"",""trial"",""time""
""fullscreenenter"",""5"",""20391""
","
",NA,images/earth.jpg,NA,NA,NA,NA,NA,NA,NA,NA,NA,NA,NA,NA,NA,fixation,NA,NA,NA,NA,NA,NA,sub132
d3-animate-choice,109,486305,0.0-61.0-0.16,TRUE,TRUE,TRUE,TRUE,"""event"",""trial"",""time""
""fullscreenenter"",""5"",""20391""
","
","
","""event"",""trial"",""time""
""fullscreenenter"",""5"",""20391""
","
",302.8100000228733,NA,49,NA,NA,3000,1,NA,NA,images/earth.jpg,images/tutrocket1,images/tutrocket2,null,images/tutrocket2,NA,1,practice,null,1,NA,NA,NA,sub132
d3-animate-choice,110,488696,0.0-61.0-1.16,TRUE,TRUE,TRUE,TRUE,"""event"",""trial"",""time""
""fullscreenenter"",""5"",""20391""
","
","
","""event"",""trial"",""time""
""fullscreenenter"",""5"",""20391""
","
",388.245000038296,NA,49,NA,NA,3000,1,NA,NA,images/tutyellowplanet.jpg,images/tutalien4,images/tutalien3,images/tutrocket2,images/tutalien3,images/nothing.png,2,practice,true,1,common,0,2020-06-30T15:52:34Z,sub132
two-step-fixation,111,489700,0.0-61.0-2.16,TRUE,TRUE,TRUE,TRUE,"""event"",""trial"",""time""
""fullscreenenter"",""5"",""20391""
","
","
","""event"",""trial"",""time""
""fullscreenenter"",""5"",""20391""
","
",NA,images/earth.jpg,NA,NA,NA,NA,NA,NA,NA,NA,NA,NA,NA,NA,NA,fixation,NA,NA,NA,NA,NA,NA,sub132
d3-animate-choice,112,492005,0.0-61.0-0.17,TRUE,TRUE,TRUE,TRUE,"""event"",""trial"",""time""
""fullscreenenter"",""5"",""20391""
","
","
","""event"",""trial"",""time""
""fullscreenenter"",""5"",""20391""
","
",301.3450000435114,NA,48,NA,NA,3000,1,NA,NA,images/earth.jpg,images/tutrocket1,images/tutrocket2,null,images/tutrocket1,NA,1,practice,null,2,NA,NA,NA,sub132
d3-animate-choice,113,494363,0.0-61.0-1.17,TRUE,TRUE,TRUE,TRUE,"""event"",""trial"",""time""
""fullscreenenter"",""5"",""20391""
","
","
","""event"",""trial"",""time""
""fullscreenenter"",""5"",""20391""
","
",354.7349999425933,NA,48,NA,NA,3000,1,NA,NA,images/tutgreenplanet.jpg,images/tutalien2,images/tutalien1,images/tutrocket1,images/tutalien2,images/nothing.png,2,practice,true,2,common,0,2020-06-30T15:52:39Z,sub132
two-step-fixation,114,495367,0.0-61.0-2.17,TRUE,TRUE,TRUE,TRUE,"""event"",""trial"",""time""
""fullscreenenter"",""5"",""20391""
","
","
","""event"",""trial"",""time""
""fullscreenenter"",""5"",""20391""
","
",NA,images/earth.jpg,NA,NA,NA,NA,NA,NA,NA,NA,NA,NA,NA,NA,NA,fixation,NA,NA,NA,NA,NA,NA,sub132
d3-animate-choice,115,497671,0.0-61.0-0.18,TRUE,TRUE,TRUE,TRUE,"""event"",""trial"",""time""
""fullscreenenter"",""5"",""20391""
","
","
","""event"",""trial"",""time""
""fullscreenenter"",""5"",""20391""
","
",300.92499998863786,NA,48,NA,NA,3000,1,NA,NA,images/earth.jpg,images/tutrocket1,images/tutrocket2,null,images/tutrocket1,NA,1,practice,null,2,NA,NA,NA,sub132
d3-animate-choice,116,500050,0.0-61.0-1.18,TRUE,TRUE,TRUE,TRUE,"""event"",""trial"",""time""
""fullscreenenter"",""5"",""20391""
","
","
","""event"",""trial"",""time""
""fullscreenenter"",""5"",""20391""
","
",375.28000003658235,NA,48,NA,NA,3000,1,NA,NA,images/tutgreenplanet.jpg,images/tutalien2,images/tutalien1,images/tutrocket1,images/tutalien2,images/nothing.png,2,practice,true,2,common,0,2020-06-30T15:52:45Z,sub132
two-step-fixation,117,501053,0.0-61.0-2.18,TRUE,TRUE,TRUE,TRUE,"""event"",""trial"",""time""
""fullscreenenter"",""5"",""20391""
","
","
","""event"",""trial"",""time""
""fullscreenenter"",""5"",""20391""
","
",NA,images/earth.jpg,NA,NA,NA,NA,NA,NA,NA,NA,NA,NA,NA,NA,NA,fixation,NA,NA,NA,NA,NA,NA,sub132
d3-animate-choice,118,503375,0.0-61.0-0.19,TRUE,TRUE,TRUE,TRUE,"""event"",""trial"",""time""
""fullscreenenter"",""5"",""20391""
","
","
","""event"",""trial"",""time""
""fullscreenenter"",""5"",""20391""
","
",319.2349999444559,NA,48,NA,NA,3000,1,NA,NA,images/earth.jpg,images/tutrocket1,images/tutrocket2,null,images/tutrocket1,NA,1,practice,null,2,NA,NA,NA,sub132
d3-animate-choice,119,505679,0.0-61.0-1.19,TRUE,TRUE,TRUE,TRUE,"""event"",""trial"",""time""
""fullscreenenter"",""5"",""20391""
","
","
","""event"",""trial"",""time""
""fullscreenenter"",""5"",""20391""
","
",300.99000001791865,NA,49,NA,NA,3000,1,NA,NA,images/tutgreenplanet.jpg,images/tutalien2,images/tutalien1,images/tutrocket1,images/tutalien1,images/nothing.png,2,practice,true,1,common,0,2020-06-30T15:52:50Z,sub132
two-step-fixation,120,506681,0.0-61.0-2.19,TRUE,TRUE,TRUE,TRUE,"""event"",""trial"",""time""
""fullscreenenter"",""5"",""20391""
","
","
","""event"",""trial"",""time""
""fullscreenenter"",""5"",""20391""
","
",NA,images/earth.jpg,NA,NA,NA,NA,NA,NA,NA,NA,NA,NA,NA,NA,NA,fixation,NA,NA,NA,NA,NA,NA,sub132
d3-instructions,121,511624,0.0-62.0,TRUE,TRUE,TRUE,TRUE,"""event"",""trial"",""time""
""fullscreenenter"",""5"",""20391""
","
","
","""event"",""trial"",""time""
""fullscreenenter"",""5"",""20391""
","
",NA,NA,NA,NA,NA,NA,NA,NA,NA,NA,NA,NA,NA,NA,NA,NA,NA,NA,NA,NA,NA,NA,sub132
audio-keyboard-response,122,515212,0.0-63.0,TRUE,TRUE,TRUE,TRUE,"""event"",""trial"",""time""
""fullscreenenter"",""5"",""20391""
","
","
","""event"",""trial"",""time""
""fullscreenenter"",""5"",""20391""
","
",3589,audio/instructions/treasure_feedback.wav,32,NA,NA,NA,NA,NA,NA,NA,NA,NA,NA,NA,NA,NA,NA,NA,NA,NA,NA,NA,sub132
d3-instructions,123,526615,0.0-64.0,TRUE,TRUE,TRUE,TRUE,"""event"",""trial"",""time""
""fullscreenenter"",""5"",""20391""
","
","
","""event"",""trial"",""time""
""fullscreenenter"",""5"",""20391""
","
",NA,NA,NA,NA,NA,NA,NA,NA,NA,NA,NA,NA,NA,NA,NA,NA,NA,NA,NA,NA,NA,NA,sub132
d3-instructions,124,541760,0.0-65.0,TRUE,TRUE,TRUE,TRUE,"""event"",""trial"",""time""
""fullscreenenter"",""5"",""20391""
","
","
","""event"",""trial"",""time""
""fullscreenenter"",""5"",""20391""
","
",NA,NA,NA,NA,NA,NA,NA,NA,NA,NA,NA,NA,NA,NA,NA,NA,NA,NA,NA,NA,NA,NA,sub132
d3-instructions,125,561984,0.0-66.0,TRUE,TRUE,TRUE,TRUE,"""event"",""trial"",""time""
""fullscreenenter"",""5"",""20391""
","
","
","""event"",""trial"",""time""
""fullscreenenter"",""5"",""20391""
","
",NA,NA,NA,NA,NA,NA,NA,NA,NA,NA,NA,NA,NA,NA,NA,NA,NA,NA,NA,NA,NA,NA,sub132
d3-instructions,126,579080,0.0-67.0,TRUE,TRUE,TRUE,TRUE,"""event"",""trial"",""time""
""fullscreenenter"",""5"",""20391""
","
","
","""event"",""trial"",""time""
""fullscreenenter"",""5"",""20391""
","
",NA,NA,NA,NA,NA,NA,NA,NA,NA,NA,NA,NA,NA,NA,NA,NA,NA,NA,NA,NA,NA,NA,sub132
d3-instructions,127,582828,0.0-68.0,TRUE,TRUE,TRUE,TRUE,"""event"",""trial"",""time""
""fullscreenenter"",""5"",""20391""
","
","
","""event"",""trial"",""time""
""fullscreenenter"",""5"",""20391""
","
",NA,NA,NA,NA,NA,NA,NA,NA,NA,NA,NA,NA,NA,NA,NA,NA,NA,NA,NA,NA,NA,NA,sub132
instructions-quiz,128,586115,0.0-69.0,TRUE,TRUE,TRUE,TRUE,"""event"",""trial"",""time""
""fullscreenenter"",""5"",""20391""
","
","
","""event"",""trial"",""time""
""fullscreenenter"",""5"",""20391""
","
",3285.3500000201166,audio/quiz/Q1_Prompt.wav,NA,1,NA,NA,NA,NA,NA,NA,NA,NA,NA,NA,NA,NA,NA,NA,NA,NA,NA,NA,sub132
audio-keyboard-response,129,595279,0.0-70.0,TRUE,TRUE,TRUE,TRUE,"""event"",""trial"",""time""
""fullscreenenter"",""5"",""20391""
","
","
","""event"",""trial"",""time""
""fullscreenenter"",""5"",""20391""
","
",null,audio/quiz/Q1_Correct.wav,null,NA,NA,NA,NA,NA,NA,NA,NA,NA,NA,NA,NA,NA,NA,NA,NA,NA,NA,NA,sub132
instructions-quiz,130,601021,0.0-71.0,TRUE,TRUE,TRUE,TRUE,"""event"",""trial"",""time""
""fullscreenenter"",""5"",""20391""
","
","
","""event"",""trial"",""time""
""fullscreenenter"",""5"",""20391""
","
",5741.40499997884,audio/quiz/Q2_Prompt.wav,NA,0,NA,NA,NA,NA,NA,NA,NA,NA,NA,NA,NA,NA,NA,NA,NA,NA,NA,NA,sub132
audio-keyboard-response,131,613889,0.0-72.0,TRUE,TRUE,TRUE,TRUE,"""event"",""trial"",""time""
""fullscreenenter"",""5"",""20391""
","
","
","""event"",""trial"",""time""
""fullscreenenter"",""5"",""20391""
","
",null,audio/quiz/Q2_Correct.wav,null,NA,NA,NA,NA,NA,NA,NA,NA,NA,NA,NA,NA,NA,NA,NA,NA,NA,NA,NA,sub132
instructions-quiz,132,616663,0.0-73.0,TRUE,TRUE,TRUE,TRUE,"""event"",""trial"",""time""
""fullscreenenter"",""5"",""20391""
","
","
","""event"",""trial"",""time""
""fullscreenenter"",""5"",""20391""
","
",2773.714999901131,audio/quiz/Q3_Prompt.wav,NA,1,NA,NA,NA,NA,NA,NA,NA,NA,NA,NA,NA,NA,NA,NA,NA,NA,NA,NA,sub132
audio-keyboard-response,133,622459,0.0-74.0,TRUE,TRUE,TRUE,TRUE,"""event"",""trial"",""time""
""fullscreenenter"",""5"",""20391""
","
","
","""event"",""trial"",""time""
""fullscreenenter"",""5"",""20391""
","
",null,audio/quiz/Q3_Correct.wav,null,NA,NA,NA,NA,NA,NA,NA,NA,NA,NA,NA,NA,NA,NA,NA,NA,NA,NA,NA,sub132
d3-instructions,134,629171,0.0-75.0,TRUE,TRUE,TRUE,TRUE,"""event"",""trial"",""time""
""fullscreenenter"",""5"",""20391""
","
","
","""event"",""trial"",""time""
""fullscreenenter"",""5"",""20391""
","
",NA,NA,NA,NA,NA,NA,NA,NA,NA,NA,NA,NA,NA,NA,NA,NA,NA,NA,NA,NA,NA,NA,sub132
d3-animate-choice,135,632038,0.0-76.0-0.0,TRUE,TRUE,TRUE,TRUE,"""event"",""trial"",""time""
""fullscreenenter"",""5"",""20391""
","
","
","""event"",""trial"",""time""
""fullscreenenter"",""5"",""20391""
","
",845.255000051111,NA,49,NA,NA,3000,1,NA,NA,images/earth.jpg,images/rocket2,images/rocket1,null,images/rocket1,NA,1,real,null,1,NA,NA,NA,sub132
d3-animate-choice,136,635082,0.0-76.0-1.0,TRUE,TRUE,TRUE,TRUE,"""event"",""trial"",""time""
""fullscreenenter"",""5"",""20391""
","
","
","""event"",""trial"",""time""
""fullscreenenter"",""5"",""20391""
","
",1041.0749999573454,NA,49,NA,NA,3000,1,NA,NA,images/redplanet1.jpg,images/alien2,images/alien1,images/rocket1,images/alien1,images/nothing.png,2,real,true,1,common,0,2020-06-30T15:55:00Z,sub132
two-step-fixation,137,636085,0.0-76.0-2.0,TRUE,TRUE,TRUE,TRUE,"""event"",""trial"",""time""
""fullscreenenter"",""5"",""20391""
","
","
","""event"",""trial"",""time""
""fullscreenenter"",""5"",""20391""
","
",NA,images/earth.jpg,NA,NA,NA,NA,NA,NA,NA,NA,NA,NA,NA,NA,NA,fixation,NA,NA,NA,NA,NA,NA,sub132
d3-animate-choice,138,638449,0.0-76.0-0.1,TRUE,TRUE,TRUE,TRUE,"""event"",""trial"",""time""
""fullscreenenter"",""5"",""20391""
","
","
","""event"",""trial"",""time""
""fullscreenenter"",""5"",""20391""
","
",361.36499990243465,NA,49,NA,NA,3000,1,NA,NA,images/earth.jpg,images/rocket2,images/rocket1,null,images/rocket1,NA,1,real,null,1,NA,NA,NA,sub132
d3-animate-choice,139,640776,0.0-76.0-1.1,TRUE,TRUE,TRUE,TRUE,"""event"",""trial"",""time""
""fullscreenenter"",""5"",""20391""
","
","
","""event"",""trial"",""time""
""fullscreenenter"",""5"",""20391""
","
",323.0999999213964,NA,48,NA,NA,3000,1,NA,NA,images/redplanet1.jpg,images/alien2,images/alien1,images/rocket1,images/alien2,images/t.png,2,real,true,2,common,1,2020-06-30T15:55:06Z,sub132
two-step-fixation,140,641779,0.0-76.0-2.1,TRUE,TRUE,TRUE,TRUE,"""event"",""trial"",""time""
""fullscreenenter"",""5"",""20391""
","
","
","""event"",""trial"",""time""
""fullscreenenter"",""5"",""20391""
","
",NA,images/earth.jpg,NA,NA,NA,NA,NA,NA,NA,NA,NA,NA,NA,NA,NA,fixation,NA,NA,NA,NA,NA,NA,sub132
d3-animate-choice,141,644482,0.0-76.0-0.2,TRUE,TRUE,TRUE,TRUE,"""event"",""trial"",""time""
""fullscreenenter"",""5"",""20391""
","
","
","""event"",""trial"",""time""
""fullscreenenter"",""5"",""20391""
","
",700.15000004787,NA,49,NA,NA,3000,1,NA,NA,images/earth.jpg,images/rocket2,images/rocket1,null,images/rocket1,NA,1,real,null,1,NA,NA,NA,sub132
d3-animate-choice,142,646857,0.0-76.0-1.2,TRUE,TRUE,TRUE,TRUE,"""event"",""trial"",""time""
""fullscreenenter"",""5"",""20391""
","
","
","""event"",""trial"",""time""
""fullscreenenter"",""5"",""20391""
","
",371.5650000376627,NA,48,NA,NA,3000,1,NA,NA,images/redplanet1.jpg,images/alien2,images/alien1,images/rocket1,images/alien2,images/t.png,2,real,true,2,common,1,2020-06-30T15:55:12Z,sub132
two-step-fixation,143,647860,0.0-76.0-2.2,TRUE,TRUE,TRUE,TRUE,"""event"",""trial"",""time""
""fullscreenenter"",""5"",""20391""
","
","
","""event"",""trial"",""time""
""fullscreenenter"",""5"",""20391""
","
",NA,images/earth.jpg,NA,NA,NA,NA,NA,NA,NA,NA,NA,NA,NA,NA,NA,fixation,NA,NA,NA,NA,NA,NA,sub132
d3-animate-choice,144,650198,0.0-76.0-0.3,TRUE,TRUE,TRUE,TRUE,"""event"",""trial"",""time""
""fullscreenenter"",""5"",""20391""
","
","
","""event"",""trial"",""time""
""fullscreenenter"",""5"",""20391""
","
",332.61000004131347,NA,49,NA,NA,3000,1,NA,NA,images/earth.jpg,images/rocket2,images/rocket1,null,images/rocket1,NA,1,real,null,1,NA,NA,NA,sub132
d3-animate-choice,145,652578,0.0-76.0-1.3,TRUE,TRUE,TRUE,TRUE,"""event"",""trial"",""time""
""fullscreenenter"",""5"",""20391""
","
","
","""event"",""trial"",""time""
""fullscreenenter"",""5"",""20391""
","
",363.5100000537932,NA,48,NA,NA,3000,1,NA,NA,images/redplanet1.jpg,images/alien2,images/alien1,images/rocket1,images/alien2,images/t.png,2,real,true,2,common,1,2020-06-30T15:55:17Z,sub132
two-step-fixation,146,653598,0.0-76.0-2.3,TRUE,TRUE,TRUE,TRUE,"""event"",""trial"",""time""
""fullscreenenter"",""5"",""20391""
","
","
","""event"",""trial"",""time""
""fullscreenenter"",""5"",""20391""
","
",NA,images/earth.jpg,NA,NA,NA,NA,NA,NA,NA,NA,NA,NA,NA,NA,NA,fixation,NA,NA,NA,NA,NA,NA,sub132
d3-animate-choice,147,655836,0.0-76.0-0.4,TRUE,TRUE,TRUE,TRUE,"""event"",""trial"",""time""
""fullscreenenter"",""5"",""20391""
","
","
","""event"",""trial"",""time""
""fullscreenenter"",""5"",""20391""
","
",234.89999992307276,NA,49,NA,NA,3000,1,NA,NA,images/earth.jpg,images/rocket2,images/rocket1,null,images/rocket1,NA,1,real,null,1,NA,NA,NA,sub132
d3-animate-choice,148,658319,0.0-76.0-1.4,TRUE,TRUE,TRUE,TRUE,"""event"",""trial"",""time""
""fullscreenenter"",""5"",""20391""
","
","
","""event"",""trial"",""time""
""fullscreenenter"",""5"",""20391""
","
",480.0800000084564,NA,48,NA,NA,3000,1,NA,NA,images/purpleplanet.jpg,images/alien4,images/alien3,images/rocket1,images/alien4,images/t.png,2,real,false,2,rare,1,2020-06-30T15:55:23Z,sub132
two-step-fixation,149,659321,0.0-76.0-2.4,TRUE,TRUE,TRUE,TRUE,"""event"",""trial"",""time""
""fullscreenenter"",""5"",""20391""
","
","
","""event"",""trial"",""time""
""fullscreenenter"",""5"",""20391""
","
",NA,images/earth.jpg,NA,NA,NA,NA,NA,NA,NA,NA,NA,NA,NA,NA,NA,fixation,NA,NA,NA,NA,NA,NA,sub132
d3-animate-choice,150,661641,0.0-76.0-0.5,TRUE,TRUE,TRUE,TRUE,"""event"",""trial"",""time""
""fullscreenenter"",""5"",""20391""
","
","
","""event"",""trial"",""time""
""fullscreenenter"",""5"",""20391""
","
",316.84999994467944,NA,49,NA,NA,3000,1,NA,NA,images/earth.jpg,images/rocket2,images/rocket1,null,images/rocket1,NA,1,real,null,1,NA,NA,NA,sub132
d3-animate-choice,151,663974,0.0-76.0-1.5,TRUE,TRUE,TRUE,TRUE,"""event"",""trial"",""time""
""fullscreenenter"",""5"",""20391""
","
","
","""event"",""trial"",""time""
""fullscreenenter"",""5"",""20391""
","
",330.4299999726936,NA,48,NA,NA,3000,1,NA,NA,images/redplanet1.jpg,images/alien2,images/alien1,images/rocket1,images/alien2,images/t.png,2,real,true,2,common,1,2020-06-30T15:55:29Z,sub132
two-step-fixation,152,664977,0.0-76.0-2.5,TRUE,TRUE,TRUE,TRUE,"""event"",""trial"",""time""
""fullscreenenter"",""5"",""20391""
","
","
","""event"",""trial"",""time""
""fullscreenenter"",""5"",""20391""
","
",NA,images/earth.jpg,NA,NA,NA,NA,NA,NA,NA,NA,NA,NA,NA,NA,NA,fixation,NA,NA,NA,NA,NA,NA,sub132
d3-animate-choice,153,667267,0.0-76.0-0.6,TRUE,TRUE,TRUE,TRUE,"""event"",""trial"",""time""
""fullscreenenter"",""5"",""20391""
","
","
","""event"",""trial"",""time""
""fullscreenenter"",""5"",""20391""
","
",287.0600000023842,NA,49,NA,NA,3000,1,NA,NA,images/earth.jpg,images/rocket2,images/rocket1,null,images/rocket1,NA,1,real,null,1,NA,NA,NA,sub132
d3-animate-choice,154,669619,0.0-76.0-1.6,TRUE,TRUE,TRUE,TRUE,"""event"",""trial"",""time""
""fullscreenenter"",""5"",""20391""
","
","
","""event"",""trial"",""time""
""fullscreenenter"",""5"",""20391""
","
",349.225000012666,NA,48,NA,NA,3000,1,NA,NA,images/redplanet1.jpg,images/alien2,images/alien1,images/rocket1,images/alien2,images/t.png,2,real,true,2,common,1,2020-06-30T15:55:34Z,sub132
two-step-fixation,155,670621,0.0-76.0-2.6,TRUE,TRUE,TRUE,TRUE,"""event"",""trial"",""time""
""fullscreenenter"",""5"",""20391""
","
","
","""event"",""trial"",""time""
""fullscreenenter"",""5"",""20391""
","
",NA,images/earth.jpg,NA,NA,NA,NA,NA,NA,NA,NA,NA,NA,NA,NA,NA,fixation,NA,NA,NA,NA,NA,NA,sub132
d3-animate-choice,156,672905,0.0-76.0-0.7,TRUE,TRUE,TRUE,TRUE,"""event"",""trial"",""time""
""fullscreenenter"",""5"",""20391""
","
","
","""event"",""trial"",""time""
""fullscreenenter"",""5"",""20391""
","
",281.0899999458343,NA,49,NA,NA,3000,1,NA,NA,images/earth.jpg,images/rocket2,images/rocket1,null,images/rocket1,NA,1,real,null,1,NA,NA,NA,sub132
d3-animate-choice,157,675281,0.0-76.0-1.7,TRUE,TRUE,TRUE,TRUE,"""event"",""trial"",""time""
""fullscreenenter"",""5"",""20391""
","
","
","""event"",""trial"",""time""
""fullscreenenter"",""5"",""20391""
","
",372.34000000171363,NA,48,NA,NA,3000,1,NA,NA,images/redplanet1.jpg,images/alien2,images/alien1,images/rocket1,images/alien2,images/t.png,2,real,true,2,common,1,2020-06-30T15:55:40Z,sub132
two-step-fixation,158,676284,0.0-76.0-2.7,TRUE,TRUE,TRUE,TRUE,"""event"",""trial"",""time""
""fullscreenenter"",""5"",""20391""
","
","
","""event"",""trial"",""time""
""fullscreenenter"",""5"",""20391""
","
",NA,images/earth.jpg,NA,NA,NA,NA,NA,NA,NA,NA,NA,NA,NA,NA,NA,fixation,NA,NA,NA,NA,NA,NA,sub132
d3-animate-choice,159,678555,0.0-76.0-0.8,TRUE,TRUE,TRUE,TRUE,"""event"",""trial"",""time""
""fullscreenenter"",""5"",""20391""
","
","
","""event"",""trial"",""time""
""fullscreenenter"",""5"",""20391""
","
",267.96500000637025,NA,49,NA,NA,3000,1,NA,NA,images/earth.jpg,images/rocket2,images/rocket1,null,images/rocket1,NA,1,real,null,1,NA,NA,NA,sub132
d3-animate-choice,160,680871,0.0-76.0-1.8,TRUE,TRUE,TRUE,TRUE,"""event"",""trial"",""time""
""fullscreenenter"",""5"",""20391""
","
","
","""event"",""trial"",""time""
""fullscreenenter"",""5"",""20391""
","
",312.3550000600517,NA,48,NA,NA,3000,1,NA,NA,images/redplanet1.jpg,images/alien2,images/alien1,images/rocket1,images/alien2,images/t.png,2,real,true,2,common,1,2020-06-30T15:55:46Z,sub132
two-step-fixation,161,681874,0.0-76.0-2.8,TRUE,TRUE,TRUE,TRUE,"""event"",""trial"",""time""
""fullscreenenter"",""5"",""20391""
","
","
","""event"",""trial"",""time""
""fullscreenenter"",""5"",""20391""
","
",NA,images/earth.jpg,NA,NA,NA,NA,NA,NA,NA,NA,NA,NA,NA,NA,NA,fixation,NA,NA,NA,NA,NA,NA,sub132
d3-animate-choice,162,684142,0.0-76.0-0.9,TRUE,TRUE,TRUE,TRUE,"""event"",""trial"",""time""
""fullscreenenter"",""5"",""20391""
","
","
","""event"",""trial"",""time""
""fullscreenenter"",""5"",""20391""
","
",264.7949999663979,NA,49,NA,NA,3000,1,NA,NA,images/earth.jpg,images/rocket2,images/rocket1,null,images/rocket1,NA,1,real,null,1,NA,NA,NA,sub132
d3-animate-choice,163,686456,0.0-76.0-1.9,TRUE,TRUE,TRUE,TRUE,"""event"",""trial"",""time""
""fullscreenenter"",""5"",""20391""
","
","
","""event"",""trial"",""time""
""fullscreenenter"",""5"",""20391""
","
",311.6200000513345,NA,48,NA,NA,3000,1,NA,NA,images/redplanet1.jpg,images/alien2,images/alien1,images/rocket1,images/alien2,images/nothing.png,2,real,true,2,common,0,2020-06-30T15:55:51Z,sub132
two-step-fixation,164,687459,0.0-76.0-2.9,TRUE,TRUE,TRUE,TRUE,"""event"",""trial"",""time""
""fullscreenenter"",""5"",""20391""
","
","
","""event"",""trial"",""time""
""fullscreenenter"",""5"",""20391""
","
",NA,images/earth.jpg,NA,NA,NA,NA,NA,NA,NA,NA,NA,NA,NA,NA,NA,fixation,NA,NA,NA,NA,NA,NA,sub132
d3-animate-choice,165,689793,0.0-76.0-0.10,TRUE,TRUE,TRUE,TRUE,"""event"",""trial"",""time""
""fullscreenenter"",""5"",""20391""
","
","
","""event"",""trial"",""time""
""fullscreenenter"",""5"",""20391""
","
",330.32499998807907,NA,48,NA,NA,3000,1,NA,NA,images/earth.jpg,images/rocket2,images/rocket1,null,images/rocket2,NA,1,real,null,2,NA,NA,NA,sub132
d3-animate-choice,166,692143,0.0-76.0-1.10,TRUE,TRUE,TRUE,TRUE,"""event"",""trial"",""time""
""fullscreenenter"",""5"",""20391""
","
","
","""event"",""trial"",""time""
""fullscreenenter"",""5"",""20391""
","
",346.75999998580664,NA,48,NA,NA,3000,1,NA,NA,images/purpleplanet.jpg,images/alien4,images/alien3,images/rocket2,images/alien4,images/t.png,2,real,true,2,common,1,2020-06-30T15:55:57Z,sub132
two-step-fixation,167,693145,0.0-76.0-2.10,TRUE,TRUE,TRUE,TRUE,"""event"",""trial"",""time""
""fullscreenenter"",""5"",""20391""
","
","
","""event"",""trial"",""time""
""fullscreenenter"",""5"",""20391""
","
",NA,images/earth.jpg,NA,NA,NA,NA,NA,NA,NA,NA,NA,NA,NA,NA,NA,fixation,NA,NA,NA,NA,NA,NA,sub132
d3-animate-choice,168,695398,0.0-76.0-0.11,TRUE,TRUE,TRUE,TRUE,"""event"",""trial"",""time""
""fullscreenenter"",""5"",""20391""
","
","
","""event"",""trial"",""time""
""fullscreenenter"",""5"",""20391""
","
",250.63000002410263,NA,48,NA,NA,3000,1,NA,NA,images/earth.jpg,images/rocket2,images/rocket1,null,images/rocket2,NA,1,real,null,2,NA,NA,NA,sub132
d3-animate-choice,169,697679,0.0-76.0-1.11,TRUE,TRUE,TRUE,TRUE,"""event"",""trial"",""time""
""fullscreenenter"",""5"",""20391""
","
","
","""event"",""trial"",""time""
""fullscreenenter"",""5"",""20391""
","
",278.09000003617257,NA,48,NA,NA,3000,1,NA,NA,images/purpleplanet.jpg,images/alien4,images/alien3,images/rocket2,images/alien4,images/t.png,2,real,true,2,common,1,2020-06-30T15:56:02Z,sub132
two-step-fixation,170,698681,0.0-76.0-2.11,TRUE,TRUE,TRUE,TRUE,"""event"",""trial"",""time""
""fullscreenenter"",""5"",""20391""
","
","
","""event"",""trial"",""time""
""fullscreenenter"",""5"",""20391""
","
",NA,images/earth.jpg,NA,NA,NA,NA,NA,NA,NA,NA,NA,NA,NA,NA,NA,fixation,NA,NA,NA,NA,NA,NA,sub132
d3-animate-choice,171,700924,0.0-76.0-0.12,TRUE,TRUE,TRUE,TRUE,"""event"",""trial"",""time""
""fullscreenenter"",""5"",""20391""
","
","
","""event"",""trial"",""time""
""fullscreenenter"",""5"",""20391""
","
",240.51999999210238,NA,48,NA,NA,3000,1,NA,NA,images/earth.jpg,images/rocket2,images/rocket1,null,images/rocket2,NA,1,real,null,2,NA,NA,NA,sub132
d3-animate-choice,172,703203,0.0-76.0-1.12,TRUE,TRUE,TRUE,TRUE,"""event"",""trial"",""time""
""fullscreenenter"",""5"",""20391""
","
","
","""event"",""trial"",""time""
""fullscreenenter"",""5"",""20391""
","
",275.00000002328306,NA,48,NA,NA,3000,1,NA,NA,images/purpleplanet.jpg,images/alien4,images/alien3,images/rocket2,images/alien4,images/t.png,2,real,true,2,common,1,2020-06-30T15:56:08Z,sub132
two-step-fixation,173,704206,0.0-76.0-2.12,TRUE,TRUE,TRUE,TRUE,"""event"",""trial"",""time""
""fullscreenenter"",""5"",""20391""
","
","
","""event"",""trial"",""time""
""fullscreenenter"",""5"",""20391""
","
",NA,images/earth.jpg,NA,NA,NA,NA,NA,NA,NA,NA,NA,NA,NA,NA,NA,fixation,NA,NA,NA,NA,NA,NA,sub132
d3-animate-choice,174,706556,0.0-76.0-0.13,TRUE,TRUE,TRUE,TRUE,"""event"",""trial"",""time""
""fullscreenenter"",""5"",""20391""
","
","
","""event"",""trial"",""time""
""fullscreenenter"",""5"",""20391""
","
",347.1650000428781,NA,48,NA,NA,3000,1,NA,NA,images/earth.jpg,images/rocket2,images/rocket1,null,images/rocket2,NA,1,real,null,2,NA,NA,NA,sub132
d3-animate-choice,175,709005,0.0-76.0-1.13,TRUE,TRUE,TRUE,TRUE,"""event"",""trial"",""time""
""fullscreenenter"",""5"",""20391""
","
","
","""event"",""trial"",""time""
""fullscreenenter"",""5"",""20391""
","
",445.8800000138581,NA,48,NA,NA,3000,1,NA,NA,images/purpleplanet.jpg,images/alien4,images/alien3,images/rocket2,images/alien4,images/t.png,2,real,true,2,common,1,2020-06-30T15:56:14Z,sub132
two-step-fixation,176,710007,0.0-76.0-2.13,TRUE,TRUE,TRUE,TRUE,"""event"",""trial"",""time""
""fullscreenenter"",""5"",""20391""
","
","
","""event"",""trial"",""time""
""fullscreenenter"",""5"",""20391""
","
",NA,images/earth.jpg,NA,NA,NA,NA,NA,NA,NA,NA,NA,NA,NA,NA,NA,fixation,NA,NA,NA,NA,NA,NA,sub132
d3-animate-choice,177,712292,0.0-76.0-0.14,TRUE,TRUE,TRUE,TRUE,"""event"",""trial"",""time""
""fullscreenenter"",""5"",""20391""
","
","
","""event"",""trial"",""time""
""fullscreenenter"",""5"",""20391""
","
",281.1050000600517,NA,48,NA,NA,3000,1,NA,NA,images/earth.jpg,images/rocket2,images/rocket1,null,images/rocket2,NA,1,real,null,2,NA,NA,NA,sub132
d3-animate-choice,178,714651,0.0-76.0-1.14,TRUE,TRUE,TRUE,TRUE,"""event"",""trial"",""time""
""fullscreenenter"",""5"",""20391""
","
","
","""event"",""trial"",""time""
""fullscreenenter"",""5"",""20391""
","
",356.52499995194376,NA,48,NA,NA,3000,1,NA,NA,images/purpleplanet.jpg,images/alien4,images/alien3,images/rocket2,images/alien4,images/t.png,2,real,true,2,common,1,2020-06-30T15:56:19Z,sub132
two-step-fixation,179,715654,0.0-76.0-2.14,TRUE,TRUE,TRUE,TRUE,"""event"",""trial"",""time""
""fullscreenenter"",""5"",""20391""
","
","
","""event"",""trial"",""time""
""fullscreenenter"",""5"",""20391""
","
",NA,images/earth.jpg,NA,NA,NA,NA,NA,NA,NA,NA,NA,NA,NA,NA,NA,fixation,NA,NA,NA,NA,NA,NA,sub132
d3-animate-choice,180,717898,0.0-76.0-0.15,TRUE,TRUE,TRUE,TRUE,"""event"",""trial"",""time""
""fullscreenenter"",""5"",""20391""
","
","
","""event"",""trial"",""time""
""fullscreenenter"",""5"",""20391""
","
",240.0950000155717,NA,48,NA,NA,3000,1,NA,NA,images/earth.jpg,images/rocket2,images/rocket1,null,images/rocket2,NA,1,real,null,2,NA,NA,NA,sub132
d3-animate-choice,181,720221,0.0-76.0-1.15,TRUE,TRUE,TRUE,TRUE,"""event"",""trial"",""time""
""fullscreenenter"",""5"",""20391""
","
","
","""event"",""trial"",""time""
""fullscreenenter"",""5"",""20391""
","
",319.73999994806945,NA,48,NA,NA,3000,1,NA,NA,images/purpleplanet.jpg,images/alien4,images/alien3,images/rocket2,images/alien4,images/nothing.png,2,real,true,2,common,0,2020-06-30T15:56:25Z,sub132
two-step-fixation,182,721223,0.0-76.0-2.15,TRUE,TRUE,TRUE,TRUE,"""event"",""trial"",""time""
""fullscreenenter"",""5"",""20391""
","
","
","""event"",""trial"",""time""
""fullscreenenter"",""5"",""20391""
","
",NA,images/earth.jpg,NA,NA,NA,NA,NA,NA,NA,NA,NA,NA,NA,NA,NA,fixation,NA,NA,NA,NA,NA,NA,sub132
d3-animate-choice,183,723509,0.0-76.0-0.16,TRUE,TRUE,TRUE,TRUE,"""event"",""trial"",""time""
""fullscreenenter"",""5"",""20391""
","
","
","""event"",""trial"",""time""
""fullscreenenter"",""5"",""20391""
","
",282.7400000533089,NA,48,NA,NA,3000,1,NA,NA,images/earth.jpg,images/rocket2,images/rocket1,null,images/rocket2,NA,1,real,null,2,NA,NA,NA,sub132
d3-animate-choice,184,725921,0.0-76.0-1.16,TRUE,TRUE,TRUE,TRUE,"""event"",""trial"",""time""
""fullscreenenter"",""5"",""20391""
","
","
","""event"",""trial"",""time""
""fullscreenenter"",""5"",""20391""
","
",408.2949999719858,NA,49,NA,NA,3000,1,NA,NA,images/redplanet1.jpg,images/alien2,images/alien1,images/rocket2,images/alien1,images/t.png,2,real,false,1,rare,1,2020-06-30T15:56:31Z,sub132
two-step-fixation,185,726924,0.0-76.0-2.16,TRUE,TRUE,TRUE,TRUE,"""event"",""trial"",""time""
""fullscreenenter"",""5"",""20391""
","
","
","""event"",""trial"",""time""
""fullscreenenter"",""5"",""20391""
","
",NA,images/earth.jpg,NA,NA,NA,NA,NA,NA,NA,NA,NA,NA,NA,NA,NA,fixation,NA,NA,NA,NA,NA,NA,sub132
d3-animate-choice,186,729266,0.0-76.0-0.17,TRUE,TRUE,TRUE,TRUE,"""event"",""trial"",""time""
""fullscreenenter"",""5"",""20391""
","
","
","""event"",""trial"",""time""
""fullscreenenter"",""5"",""20391""
","
",339.5699999528006,NA,49,NA,NA,3000,1,NA,NA,images/earth.jpg,images/rocket2,images/rocket1,null,images/rocket1,NA,1,real,null,1,NA,NA,NA,sub132
d3-animate-choice,187,731641,0.0-76.0-1.17,TRUE,TRUE,TRUE,TRUE,"""event"",""trial"",""time""
""fullscreenenter"",""5"",""20391""
","
","
","""event"",""trial"",""time""
""fullscreenenter"",""5"",""20391""
","
",372.25000001490116,NA,49,NA,NA,3000,1,NA,NA,images/redplanet1.jpg,images/alien2,images/alien1,images/rocket1,images/alien1,images/nothing.png,2,real,true,1,common,0,2020-06-30T15:56:36Z,sub132
two-step-fixation,188,732644,0.0-76.0-2.17,TRUE,TRUE,TRUE,TRUE,"""event"",""trial"",""time""
""fullscreenenter"",""5"",""20391""
","
","
","""event"",""trial"",""time""
""fullscreenenter"",""5"",""20391""
","
",NA,images/earth.jpg,NA,NA,NA,NA,NA,NA,NA,NA,NA,NA,NA,NA,NA,fixation,NA,NA,NA,NA,NA,NA,sub132
d3-animate-choice,189,735081,0.0-76.0-0.18,TRUE,TRUE,TRUE,TRUE,"""event"",""trial"",""time""
""fullscreenenter"",""5"",""20391""
","
","
","""event"",""trial"",""time""
""fullscreenenter"",""5"",""20391""
","
",434.0099999681115,NA,48,NA,NA,3000,1,NA,NA,images/earth.jpg,images/rocket2,images/rocket1,null,images/rocket2,NA,1,real,null,2,NA,NA,NA,sub132
d3-animate-choice,190,737532,0.0-76.0-1.18,TRUE,TRUE,TRUE,TRUE,"""event"",""trial"",""time""
""fullscreenenter"",""5"",""20391""
","
","
","""event"",""trial"",""time""
""fullscreenenter"",""5"",""20391""
","
",448.64999991841614,NA,49,NA,NA,3000,1,NA,NA,images/purpleplanet.jpg,images/alien4,images/alien3,images/rocket2,images/alien3,images/nothing.png,2,real,true,1,common,0,2020-06-30T15:56:42Z,sub132
two-step-fixation,191,738535,0.0-76.0-2.18,TRUE,TRUE,TRUE,TRUE,"""event"",""trial"",""time""
""fullscreenenter"",""5"",""20391""
","
","
","""event"",""trial"",""time""
""fullscreenenter"",""5"",""20391""
","
",NA,images/earth.jpg,NA,NA,NA,NA,NA,NA,NA,NA,NA,NA,NA,NA,NA,fixation,NA,NA,NA,NA,NA,NA,sub132
d3-animate-choice,192,740888,0.0-76.0-0.19,TRUE,TRUE,TRUE,TRUE,"""event"",""trial"",""time""
""fullscreenenter"",""5"",""20391""
","
","
","""event"",""trial"",""time""
""fullscreenenter"",""5"",""20391""
","
",350.3999999957159,NA,49,NA,NA,3000,1,NA,NA,images/earth.jpg,images/rocket2,images/rocket1,null,images/rocket1,NA,1,real,null,1,NA,NA,NA,sub132
d3-animate-choice,193,743251,0.0-76.0-1.19,TRUE,TRUE,TRUE,TRUE,"""event"",""trial"",""time""
""fullscreenenter"",""5"",""20391""
","
","
","""event"",""trial"",""time""
""fullscreenenter"",""5"",""20391""
","
",360.5199999874458,NA,48,NA,NA,3000,1,NA,NA,images/redplanet1.jpg,images/alien2,images/alien1,images/rocket1,images/alien2,images/nothing.png,2,real,true,2,common,0,2020-06-30T15:56:48Z,sub132
two-step-fixation,194,744254,0.0-76.0-2.19,TRUE,TRUE,TRUE,TRUE,"""event"",""trial"",""time""
""fullscreenenter"",""5"",""20391""
","
","
","""event"",""trial"",""time""
""fullscreenenter"",""5"",""20391""
","
",NA,images/earth.jpg,NA,NA,NA,NA,NA,NA,NA,NA,NA,NA,NA,NA,NA,fixation,NA,NA,NA,NA,NA,NA,sub132
d3-animate-choice,195,746560,0.0-76.0-0.20,TRUE,TRUE,TRUE,TRUE,"""event"",""trial"",""time""
""fullscreenenter"",""5"",""20391""
","
","
","""event"",""trial"",""time""
""fullscreenenter"",""5"",""20391""
","
",303.33499994594604,NA,48,NA,NA,3000,1,NA,NA,images/earth.jpg,images/rocket2,images/rocket1,null,images/rocket2,NA,1,real,null,2,NA,NA,NA,sub132
d3-animate-choice,196,748895,0.0-76.0-1.20,TRUE,TRUE,TRUE,TRUE,"""event"",""trial"",""time""
""fullscreenenter"",""5"",""20391""
","
","
","""event"",""trial"",""time""
""fullscreenenter"",""5"",""20391""
","
",331.25000004656613,NA,48,NA,NA,3000,1,NA,NA,images/redplanet1.jpg,images/alien2,images/alien1,images/rocket2,images/alien2,images/nothing.png,2,real,false,2,rare,0,2020-06-30T15:56:54Z,sub132
two-step-fixation,197,749898,0.0-76.0-2.20,TRUE,TRUE,TRUE,TRUE,"""event"",""trial"",""time""
""fullscreenenter"",""5"",""20391""
","
","
","""event"",""trial"",""time""
""fullscreenenter"",""5"",""20391""
","
",NA,images/earth.jpg,NA,NA,NA,NA,NA,NA,NA,NA,NA,NA,NA,NA,NA,fixation,NA,NA,NA,NA,NA,NA,sub132
d3-animate-choice,198,753452,0.0-76.0-0.21,TRUE,TRUE,TRUE,TRUE,"""event"",""trial"",""time""
""fullscreenenter"",""5"",""20391""
","
","
","""event"",""trial"",""time""
""fullscreenenter"",""5"",""20391""
","
",1550.9499999461696,NA,49,NA,NA,3000,1,NA,NA,images/earth.jpg,images/rocket2,images/rocket1,null,images/rocket1,NA,1,real,null,1,NA,NA,NA,sub132
d3-animate-choice,199,755819,0.0-76.0-1.21,TRUE,TRUE,TRUE,TRUE,"""event"",""trial"",""time""
""fullscreenenter"",""5"",""20391""
","
","
","""event"",""trial"",""time""
""fullscreenenter"",""5"",""20391""
","
",364.55499997828156,NA,48,NA,NA,3000,1,NA,NA,images/redplanet1.jpg,images/alien2,images/alien1,images/rocket1,images/alien2,images/t.png,2,real,true,2,common,1,2020-06-30T15:57:01Z,sub132
two-step-fixation,200,756822,0.0-76.0-2.21,TRUE,TRUE,TRUE,TRUE,"""event"",""trial"",""time""
""fullscreenenter"",""5"",""20391""
","
","
","""event"",""trial"",""time""
""fullscreenenter"",""5"",""20391""
","
",NA,images/earth.jpg,NA,NA,NA,NA,NA,NA,NA,NA,NA,NA,NA,NA,NA,fixation,NA,NA,NA,NA,NA,NA,sub132
d3-animate-choice,201,759175,0.0-76.0-0.22,TRUE,TRUE,TRUE,TRUE,"""event"",""trial"",""time""
""fullscreenenter"",""5"",""20391""
","
","
","""event"",""trial"",""time""
""fullscreenenter"",""5"",""20391""
","
",349.4850000133738,NA,49,NA,NA,3000,1,NA,NA,images/earth.jpg,images/rocket2,images/rocket1,null,images/rocket1,NA,1,real,null,1,NA,NA,NA,sub132
d3-animate-choice,202,761597,0.0-76.0-1.22,TRUE,TRUE,TRUE,TRUE,"""event"",""trial"",""time""
""fullscreenenter"",""5"",""20391""
","
","
","""event"",""trial"",""time""
""fullscreenenter"",""5"",""20391""
","
",418.6500000068918,NA,48,NA,NA,3000,1,NA,NA,images/redplanet1.jpg,images/alien2,images/alien1,images/rocket1,images/alien2,images/t.png,2,real,true,2,common,1,2020-06-30T15:57:06Z,sub132
two-step-fixation,203,762600,0.0-76.0-2.22,TRUE,TRUE,TRUE,TRUE,"""event"",""trial"",""time""
""fullscreenenter"",""5"",""20391""
","
","
","""event"",""trial"",""time""
""fullscreenenter"",""5"",""20391""
","
",NA,images/earth.jpg,NA,NA,NA,NA,NA,NA,NA,NA,NA,NA,NA,NA,NA,fixation,NA,NA,NA,NA,NA,NA,sub132
d3-animate-choice,204,764922,0.0-76.0-0.23,TRUE,TRUE,TRUE,TRUE,"""event"",""trial"",""time""
""fullscreenenter"",""5"",""20391""
","
","
","""event"",""trial"",""time""
""fullscreenenter"",""5"",""20391""
","
",320.27500006370246,NA,49,NA,NA,3000,1,NA,NA,images/earth.jpg,images/rocket2,images/rocket1,null,images/rocket1,NA,1,real,null,1,NA,NA,NA,sub132
d3-animate-choice,205,767285,0.0-76.0-1.23,TRUE,TRUE,TRUE,TRUE,"""event"",""trial"",""time""
""fullscreenenter"",""5"",""20391""
","
","
","""event"",""trial"",""time""
""fullscreenenter"",""5"",""20391""
","
",359.71500002779067,NA,48,NA,NA,3000,1,NA,NA,images/redplanet1.jpg,images/alien2,images/alien1,images/rocket1,images/alien2,images/t.png,2,real,true,2,common,1,2020-06-30T15:57:12Z,sub132
two-step-fixation,206,768288,0.0-76.0-2.23,TRUE,TRUE,TRUE,TRUE,"""event"",""trial"",""time""
""fullscreenenter"",""5"",""20391""
","
","
","""event"",""trial"",""time""
""fullscreenenter"",""5"",""20391""
","
",NA,images/earth.jpg,NA,NA,NA,NA,NA,NA,NA,NA,NA,NA,NA,NA,NA,fixation,NA,NA,NA,NA,NA,NA,sub132
d3-animate-choice,207,770603,0.0-76.0-0.24,TRUE,TRUE,TRUE,TRUE,"""event"",""trial"",""time""
""fullscreenenter"",""5"",""20391""
","
","
","""event"",""trial"",""time""
""fullscreenenter"",""5"",""20391""
","
",311.64000008720905,NA,49,NA,NA,3000,1,NA,NA,images/earth.jpg,images/rocket2,images/rocket1,null,images/rocket1,NA,1,real,null,1,NA,NA,NA,sub132
d3-animate-choice,208,773005,0.0-76.0-1.24,TRUE,TRUE,TRUE,TRUE,"""event"",""trial"",""time""
""fullscreenenter"",""5"",""20391""
","
","
","""event"",""trial"",""time""
""fullscreenenter"",""5"",""20391""
","
",399.9700000276789,NA,48,NA,NA,3000,1,NA,NA,images/redplanet1.jpg,images/alien2,images/alien1,images/rocket1,images/alien2,images/nothing.png,2,real,true,2,common,0,2020-06-30T15:57:18Z,sub132
two-step-fixation,209,774008,0.0-76.0-2.24,TRUE,TRUE,TRUE,TRUE,"""event"",""trial"",""time""
""fullscreenenter"",""5"",""20391""
","
","
","""event"",""trial"",""time""
""fullscreenenter"",""5"",""20391""
","
",NA,images/earth.jpg,NA,NA,NA,NA,NA,NA,NA,NA,NA,NA,NA,NA,NA,fixation,NA,NA,NA,NA,NA,NA,sub132
d3-animate-choice,210,776289,0.0-76.0-0.25,TRUE,TRUE,TRUE,TRUE,"""event"",""trial"",""time""
""fullscreenenter"",""5"",""20391""
","
","
","""event"",""trial"",""time""
""fullscreenenter"",""5"",""20391""
","
",278.0499999644235,NA,48,NA,NA,3000,1,NA,NA,images/earth.jpg,images/rocket2,images/rocket1,null,images/rocket2,NA,1,real,null,2,NA,NA,NA,sub132
d3-animate-choice,211,778574,0.0-76.0-1.25,TRUE,TRUE,TRUE,TRUE,"""event"",""trial"",""time""
""fullscreenenter"",""5"",""20391""
","
","
","""event"",""trial"",""time""
""fullscreenenter"",""5"",""20391""
","
",282.06500003580004,NA,48,NA,NA,3000,1,NA,NA,images/purpleplanet.jpg,images/alien4,images/alien3,images/rocket2,images/alien4,images/nothing.png,2,real,true,2,common,0,2020-06-30T15:57:23Z,sub132
two-step-fixation,212,779576,0.0-76.0-2.25,TRUE,TRUE,TRUE,TRUE,"""event"",""trial"",""time""
""fullscreenenter"",""5"",""20391""
","
","
","""event"",""trial"",""time""
""fullscreenenter"",""5"",""20391""
","
",NA,images/earth.jpg,NA,NA,NA,NA,NA,NA,NA,NA,NA,NA,NA,NA,NA,fixation,NA,NA,NA,NA,NA,NA,sub132
d3-animate-choice,213,781883,0.0-76.0-0.26,TRUE,TRUE,TRUE,TRUE,"""event"",""trial"",""time""
""fullscreenenter"",""5"",""20391""
","
","
","""event"",""trial"",""time""
""fullscreenenter"",""5"",""20391""
","
",303.91999997664243,NA,48,NA,NA,3000,1,NA,NA,images/earth.jpg,images/rocket2,images/rocket1,null,images/rocket2,NA,1,real,null,2,NA,NA,NA,sub132
d3-animate-choice,214,785240,0.0-76.0-1.26,TRUE,TRUE,TRUE,TRUE,"""event"",""trial"",""time""
""fullscreenenter"",""5"",""20391""
","
","
","""event"",""trial"",""time""
""fullscreenenter"",""5"",""20391""
","
",1354.6949999872595,NA,48,NA,NA,3000,1,NA,NA,images/redplanet1.jpg,images/alien2,images/alien1,images/rocket2,images/alien2,images/t.png,2,real,false,2,rare,1,2020-06-30T15:57:30Z,sub132
two-step-fixation,215,786242,0.0-76.0-2.26,TRUE,TRUE,TRUE,TRUE,"""event"",""trial"",""time""
""fullscreenenter"",""5"",""20391""
","
","
","""event"",""trial"",""time""
""fullscreenenter"",""5"",""20391""
","
",NA,images/earth.jpg,NA,NA,NA,NA,NA,NA,NA,NA,NA,NA,NA,NA,NA,fixation,NA,NA,NA,NA,NA,NA,sub132
d3-animate-choice,216,788606,0.0-76.0-0.27,TRUE,TRUE,TRUE,TRUE,"""event"",""trial"",""time""
""fullscreenenter"",""5"",""20391""
","
","
","""event"",""trial"",""time""
""fullscreenenter"",""5"",""20391""
","
",360.49499991349876,NA,49,NA,NA,3000,1,NA,NA,images/earth.jpg,images/rocket2,images/rocket1,null,images/rocket1,NA,1,real,null,1,NA,NA,NA,sub132
d3-animate-choice,217,792181,0.0-76.0-1.27,TRUE,TRUE,TRUE,TRUE,"""event"",""trial"",""time""
""fullscreenenter"",""5"",""20391""
","
","
","""event"",""trial"",""time""
""fullscreenenter"",""5"",""20391""
","
",1572.7249999763444,NA,48,NA,NA,3000,1,NA,NA,images/purpleplanet.jpg,images/alien4,images/alien3,images/rocket1,images/alien4,images/nothing.png,2,real,false,2,rare,0,2020-06-30T15:57:37Z,sub132
two-step-fixation,218,793184,0.0-76.0-2.27,TRUE,TRUE,TRUE,TRUE,"""event"",""trial"",""time""
""fullscreenenter"",""5"",""20391""
","
","
","""event"",""trial"",""time""
""fullscreenenter"",""5"",""20391""
","
",NA,images/earth.jpg,NA,NA,NA,NA,NA,NA,NA,NA,NA,NA,NA,NA,NA,fixation,NA,NA,NA,NA,NA,NA,sub132
d3-animate-choice,219,795539,0.0-76.0-0.28,TRUE,TRUE,TRUE,TRUE,"""event"",""trial"",""time""
""fullscreenenter"",""5"",""20391""
","
","
","""event"",""trial"",""time""
""fullscreenenter"",""5"",""20391""
","
",352.25499991793185,NA,49,NA,NA,3000,1,NA,NA,images/earth.jpg,images/rocket2,images/rocket1,null,images/rocket1,NA,1,real,null,1,NA,NA,NA,sub132
d3-animate-choice,220,798087,0.0-76.0-1.28,TRUE,TRUE,TRUE,TRUE,"""event"",""trial"",""time""
""fullscreenenter"",""5"",""20391""
","
","
","""event"",""trial"",""time""
""fullscreenenter"",""5"",""20391""
","
",545.0400001136586,NA,48,NA,NA,3000,1,NA,NA,images/purpleplanet.jpg,images/alien4,images/alien3,images/rocket1,images/alien4,images/t.png,2,real,false,2,rare,1,2020-06-30T15:57:43Z,sub132
two-step-fixation,221,799090,0.0-76.0-2.28,TRUE,TRUE,TRUE,TRUE,"""event"",""trial"",""time""
""fullscreenenter"",""5"",""20391""
","
","
","""event"",""trial"",""time""
""fullscreenenter"",""5"",""20391""
","
",NA,images/earth.jpg,NA,NA,NA,NA,NA,NA,NA,NA,NA,NA,NA,NA,NA,fixation,NA,NA,NA,NA,NA,NA,sub132
d3-animate-choice,222,801485,0.0-76.0-0.29,TRUE,TRUE,TRUE,TRUE,"""event"",""trial"",""time""
""fullscreenenter"",""5"",""20391""
","
","
","""event"",""trial"",""time""
""fullscreenenter"",""5"",""20391""
","
",392.44500000495464,NA,49,NA,NA,3000,1,NA,NA,images/earth.jpg,images/rocket2,images/rocket1,null,images/rocket1,NA,1,real,null,1,NA,NA,NA,sub132
d3-animate-choice,223,803806,0.0-76.0-1.29,TRUE,TRUE,TRUE,TRUE,"""event"",""trial"",""time""
""fullscreenenter"",""5"",""20391""
","
","
","""event"",""trial"",""time""
""fullscreenenter"",""5"",""20391""
","
",317.69499997608364,NA,48,NA,NA,3000,1,NA,NA,images/purpleplanet.jpg,images/alien4,images/alien3,images/rocket1,images/alien4,images/t.png,2,real,false,2,rare,1,2020-06-30T15:57:49Z,sub132
two-step-fixation,224,804809,0.0-76.0-2.29,TRUE,TRUE,TRUE,TRUE,"""event"",""trial"",""time""
""fullscreenenter"",""5"",""20391""
","
","
","""event"",""trial"",""time""
""fullscreenenter"",""5"",""20391""
","
",NA,images/earth.jpg,NA,NA,NA,NA,NA,NA,NA,NA,NA,NA,NA,NA,NA,fixation,NA,NA,NA,NA,NA,NA,sub132
d3-animate-choice,225,807173,0.0-76.0-0.30,TRUE,TRUE,TRUE,TRUE,"""event"",""trial"",""time""
""fullscreenenter"",""5"",""20391""
","
","
","""event"",""trial"",""time""
""fullscreenenter"",""5"",""20391""
","
",361.80999991483986,NA,49,NA,NA,3000,1,NA,NA,images/earth.jpg,images/rocket2,images/rocket1,null,images/rocket1,NA,1,real,null,1,NA,NA,NA,sub132
d3-animate-choice,226,810435,0.0-76.0-1.30,TRUE,TRUE,TRUE,TRUE,"""event"",""trial"",""time""
""fullscreenenter"",""5"",""20391""
","
","
","""event"",""trial"",""time""
""fullscreenenter"",""5"",""20391""
","
",1259.3099999940023,NA,49,NA,NA,3000,1,NA,NA,images/redplanet1.jpg,images/alien2,images/alien1,images/rocket1,images/alien1,images/t.png,2,real,true,1,common,1,2020-06-30T15:57:55Z,sub132
two-step-fixation,227,811438,0.0-76.0-2.30,TRUE,TRUE,TRUE,TRUE,"""event"",""trial"",""time""
""fullscreenenter"",""5"",""20391""
","
","
","""event"",""trial"",""time""
""fullscreenenter"",""5"",""20391""
","
",NA,images/earth.jpg,NA,NA,NA,NA,NA,NA,NA,NA,NA,NA,NA,NA,NA,fixation,NA,NA,NA,NA,NA,NA,sub132
d3-animate-choice,228,813925,0.0-76.0-0.31,TRUE,TRUE,TRUE,TRUE,"""event"",""trial"",""time""
""fullscreenenter"",""5"",""20391""
","
","
","""event"",""trial"",""time""
""fullscreenenter"",""5"",""20391""
","
",484.27000001538545,NA,49,NA,NA,3000,1,NA,NA,images/earth.jpg,images/rocket2,images/rocket1,null,images/rocket1,NA,1,real,null,1,NA,NA,NA,sub132
d3-animate-choice,229,816750,0.0-76.0-1.31,TRUE,TRUE,TRUE,TRUE,"""event"",""trial"",""time""
""fullscreenenter"",""5"",""20391""
","
","
","""event"",""trial"",""time""
""fullscreenenter"",""5"",""20391""
","
",822.0100000035018,NA,49,NA,NA,3000,1,NA,NA,images/redplanet1.jpg,images/alien2,images/alien1,images/rocket1,images/alien1,images/t.png,2,real,true,1,common,1,2020-06-30T15:58:02Z,sub132
two-step-fixation,230,817753,0.0-76.0-2.31,TRUE,TRUE,TRUE,TRUE,"""event"",""trial"",""time""
""fullscreenenter"",""5"",""20391""
","
","
","""event"",""trial"",""time""
""fullscreenenter"",""5"",""20391""
","
",NA,images/earth.jpg,NA,NA,NA,NA,NA,NA,NA,NA,NA,NA,NA,NA,NA,fixation,NA,NA,NA,NA,NA,NA,sub132
d3-animate-choice,231,820730,0.0-76.0-0.32,TRUE,TRUE,TRUE,TRUE,"""event"",""trial"",""time""
""fullscreenenter"",""5"",""20391""
","
","
","""event"",""trial"",""time""
""fullscreenenter"",""5"",""20391""
","
",974.4799999753013,NA,48,NA,NA,3000,1,NA,NA,images/earth.jpg,images/rocket2,images/rocket1,null,images/rocket2,NA,1,real,null,2,NA,NA,NA,sub132
d3-animate-choice,232,823660,0.0-76.0-1.32,TRUE,TRUE,TRUE,TRUE,"""event"",""trial"",""time""
""fullscreenenter"",""5"",""20391""
","
","
","""event"",""trial"",""time""
""fullscreenenter"",""5"",""20391""
","
",926.8099999753758,NA,48,NA,NA,3000,1,NA,NA,images/purpleplanet.jpg,images/alien4,images/alien3,images/rocket2,images/alien4,images/t.png,2,real,true,2,common,1,2020-06-30T15:58:08Z,sub132
two-step-fixation,233,824663,0.0-76.0-2.32,TRUE,TRUE,TRUE,TRUE,"""event"",""trial"",""time""
""fullscreenenter"",""5"",""20391""
","
","
","""event"",""trial"",""time""
""fullscreenenter"",""5"",""20391""
","
",NA,images/earth.jpg,NA,NA,NA,NA,NA,NA,NA,NA,NA,NA,NA,NA,NA,fixation,NA,NA,NA,NA,NA,NA,sub132
d3-animate-choice,234,826969,0.0-76.0-0.33,TRUE,TRUE,TRUE,TRUE,"""event"",""trial"",""time""
""fullscreenenter"",""5"",""20391""
","
","
","""event"",""trial"",""time""
""fullscreenenter"",""5"",""20391""
","
",303.2300000777468,NA,48,NA,NA,3000,1,NA,NA,images/earth.jpg,images/rocket2,images/rocket1,null,images/rocket2,NA,1,real,null,2,NA,NA,NA,sub132
d3-animate-choice,235,829801,0.0-76.0-1.33,TRUE,TRUE,TRUE,TRUE,"""event"",""trial"",""time""
""fullscreenenter"",""5"",""20391""
","
","
","""event"",""trial"",""time""
""fullscreenenter"",""5"",""20391""
","
",829.340000054799,NA,48,NA,NA,3000,1,NA,NA,images/purpleplanet.jpg,images/alien4,images/alien3,images/rocket2,images/alien4,images/t.png,2,real,true,2,common,1,2020-06-30T15:58:15Z,sub132
two-step-fixation,236,830804,0.0-76.0-2.33,TRUE,TRUE,TRUE,TRUE,"""event"",""trial"",""time""
""fullscreenenter"",""5"",""20391""
","
","
","""event"",""trial"",""time""
""fullscreenenter"",""5"",""20391""
","
",NA,images/earth.jpg,NA,NA,NA,NA,NA,NA,NA,NA,NA,NA,NA,NA,NA,fixation,NA,NA,NA,NA,NA,NA,sub132
d3-animate-choice,237,833164,0.0-76.0-0.34,TRUE,TRUE,TRUE,TRUE,"""event"",""trial"",""time""
""fullscreenenter"",""5"",""20391""
","
","
","""event"",""trial"",""time""
""fullscreenenter"",""5"",""20391""
","
",356.04500002227724,NA,48,NA,NA,3000,1,NA,NA,images/earth.jpg,images/rocket2,images/rocket1,null,images/rocket2,NA,1,real,null,2,NA,NA,NA,sub132
d3-animate-choice,238,835908,0.0-76.0-1.34,TRUE,TRUE,TRUE,TRUE,"""event"",""trial"",""time""
""fullscreenenter"",""5"",""20391""
","
","
","""event"",""trial"",""time""
""fullscreenenter"",""5"",""20391""
","
",739.739999989979,NA,48,NA,NA,3000,1,NA,NA,images/purpleplanet.jpg,images/alien4,images/alien3,images/rocket2,images/alien4,images/nothing.png,2,real,true,2,common,0,2020-06-30T15:58:21Z,sub132
two-step-fixation,239,836911,0.0-76.0-2.34,TRUE,TRUE,TRUE,TRUE,"""event"",""trial"",""time""
""fullscreenenter"",""5"",""20391""
","
","
","""event"",""trial"",""time""
""fullscreenenter"",""5"",""20391""
","
",NA,images/earth.jpg,NA,NA,NA,NA,NA,NA,NA,NA,NA,NA,NA,NA,NA,fixation,NA,NA,NA,NA,NA,NA,sub132
d3-animate-choice,240,839236,0.0-76.0-0.35,TRUE,TRUE,TRUE,TRUE,"""event"",""trial"",""time""
""fullscreenenter"",""5"",""20391""
","
","
","""event"",""trial"",""time""
""fullscreenenter"",""5"",""20391""
","
",321.89000002108514,NA,48,NA,NA,3000,1,NA,NA,images/earth.jpg,images/rocket2,images/rocket1,null,images/rocket2,NA,1,real,null,2,NA,NA,NA,sub132
d3-animate-choice,241,842269,0.0-76.0-1.35,TRUE,TRUE,TRUE,TRUE,"""event"",""trial"",""time""
""fullscreenenter"",""5"",""20391""
","
","
","""event"",""trial"",""time""
""fullscreenenter"",""5"",""20391""
","
",1029.3300000485033,NA,48,NA,NA,3000,1,NA,NA,images/purpleplanet.jpg,images/alien4,images/alien3,images/rocket2,images/alien4,images/nothing.png,2,real,true,2,common,0,2020-06-30T15:58:27Z,sub132
two-step-fixation,242,843271,0.0-76.0-2.35,TRUE,TRUE,TRUE,TRUE,"""event"",""trial"",""time""
""fullscreenenter"",""5"",""20391""
","
","
","""event"",""trial"",""time""
""fullscreenenter"",""5"",""20391""
","
",NA,images/earth.jpg,NA,NA,NA,NA,NA,NA,NA,NA,NA,NA,NA,NA,NA,fixation,NA,NA,NA,NA,NA,NA,sub132
d3-animate-choice,243,845634,0.0-76.0-0.36,TRUE,TRUE,TRUE,TRUE,"""event"",""trial"",""time""
""fullscreenenter"",""5"",""20391""
","
","
","""event"",""trial"",""time""
""fullscreenenter"",""5"",""20391""
","
",360.2449999889359,NA,49,NA,NA,3000,1,NA,NA,images/earth.jpg,images/rocket2,images/rocket1,null,images/rocket1,NA,1,real,null,1,NA,NA,NA,sub132
d3-animate-choice,244,848552,0.0-76.0-1.36,TRUE,TRUE,TRUE,TRUE,"""event"",""trial"",""time""
""fullscreenenter"",""5"",""20391""
","
","
","""event"",""trial"",""time""
""fullscreenenter"",""5"",""20391""
","
",914.6700000856072,NA,48,NA,NA,3000,1,NA,NA,images/purpleplanet.jpg,images/alien4,images/alien3,images/rocket1,images/alien4,images/nothing.png,2,real,false,2,rare,0,2020-06-30T15:58:33Z,sub132
two-step-fixation,245,849555,0.0-76.0-2.36,TRUE,TRUE,TRUE,TRUE,"""event"",""trial"",""time""
""fullscreenenter"",""5"",""20391""
","
","
","""event"",""trial"",""time""
""fullscreenenter"",""5"",""20391""
","
",NA,images/earth.jpg,NA,NA,NA,NA,NA,NA,NA,NA,NA,NA,NA,NA,NA,fixation,NA,NA,NA,NA,NA,NA,sub132
d3-animate-choice,246,852589,0.0-76.0-0.37,TRUE,TRUE,TRUE,TRUE,"""event"",""trial"",""time""
""fullscreenenter"",""5"",""20391""
","
","
","""event"",""trial"",""time""
""fullscreenenter"",""5"",""20391""
","
",1031.2300000805408,NA,48,NA,NA,3000,1,NA,NA,images/earth.jpg,images/rocket2,images/rocket1,null,images/rocket2,NA,1,real,null,2,NA,NA,NA,sub132
d3-animate-choice,247,855043,0.0-76.0-1.37,TRUE,TRUE,TRUE,TRUE,"""event"",""trial"",""time""
""fullscreenenter"",""5"",""20391""
","
","
","""event"",""trial"",""time""
""fullscreenenter"",""5"",""20391""
","
",449.640000006184,NA,49,NA,NA,3000,1,NA,NA,images/redplanet1.jpg,images/alien2,images/alien1,images/rocket2,images/alien1,images/t.png,2,real,false,1,rare,1,2020-06-30T15:58:40Z,sub132
two-step-fixation,248,856046,0.0-76.0-2.37,TRUE,TRUE,TRUE,TRUE,"""event"",""trial"",""time""
""fullscreenenter"",""5"",""20391""
","
","
","""event"",""trial"",""time""
""fullscreenenter"",""5"",""20391""
","
",NA,images/earth.jpg,NA,NA,NA,NA,NA,NA,NA,NA,NA,NA,NA,NA,NA,fixation,NA,NA,NA,NA,NA,NA,sub132
d3-animate-choice,249,858429,0.0-76.0-0.38,TRUE,TRUE,TRUE,TRUE,"""event"",""trial"",""time""
""fullscreenenter"",""5"",""20391""
","
","
","""event"",""trial"",""time""
""fullscreenenter"",""5"",""20391""
","
",380.73999993503094,NA,48,NA,NA,3000,1,NA,NA,images/earth.jpg,images/rocket2,images/rocket1,null,images/rocket2,NA,1,real,null,2,NA,NA,NA,sub132
d3-animate-choice,250,862433,0.0-76.0-1.38,TRUE,TRUE,TRUE,TRUE,"""event"",""trial"",""time""
""fullscreenenter"",""5"",""20391""
","
","
","""event"",""trial"",""time""
""fullscreenenter"",""5"",""20391""
","
",2267.0299999881536,NA,48,NA,NA,3000,1,NA,NA,images/purpleplanet.jpg,images/alien4,images/alien3,images/rocket2,images/alien4,images/nothing.png,2,real,true,2,common,0,2020-06-30T15:58:47Z,sub132
two-step-fixation,251,863435,0.0-76.0-2.38,TRUE,TRUE,TRUE,TRUE,"""event"",""trial"",""time""
""fullscreenenter"",""5"",""20391""
","
","
","""event"",""trial"",""time""
""fullscreenenter"",""5"",""20391""
","
",NA,images/earth.jpg,NA,NA,NA,NA,NA,NA,NA,NA,NA,NA,NA,NA,NA,fixation,NA,NA,NA,NA,NA,NA,sub132
d3-animate-choice,252,865803,0.0-76.0-0.39,TRUE,TRUE,TRUE,TRUE,"""event"",""trial"",""time""
""fullscreenenter"",""5"",""20391""
","
","
","""event"",""trial"",""time""
""fullscreenenter"",""5"",""20391""
","
",364.7000000346452,NA,48,NA,NA,3000,1,NA,NA,images/earth.jpg,images/rocket2,images/rocket1,null,images/rocket2,NA,1,real,null,2,NA,NA,NA,sub132
d3-animate-choice,253,868800,0.0-76.0-1.39,TRUE,TRUE,TRUE,TRUE,"""event"",""trial"",""time""
""fullscreenenter"",""5"",""20391""
","
","
","""event"",""trial"",""time""
""fullscreenenter"",""5"",""20391""
","
",994.0349999815226,NA,49,NA,NA,3000,1,NA,NA,images/purpleplanet.jpg,images/alien4,images/alien3,images/rocket2,images/alien3,images/nothing.png,2,real,true,1,common,0,2020-06-30T15:58:54Z,sub132
two-step-fixation,254,869802,0.0-76.0-2.39,TRUE,TRUE,TRUE,TRUE,"""event"",""trial"",""time""
""fullscreenenter"",""5"",""20391""
","
","
","""event"",""trial"",""time""
""fullscreenenter"",""5"",""20391""
","
",NA,images/earth.jpg,NA,NA,NA,NA,NA,NA,NA,NA,NA,NA,NA,NA,NA,fixation,NA,NA,NA,NA,NA,NA,sub132
d3-animate-choice,255,872161,0.0-76.0-0.40,TRUE,TRUE,TRUE,TRUE,"""event"",""trial"",""time""
""fullscreenenter"",""5"",""20391""
","
","
","""event"",""trial"",""time""
""fullscreenenter"",""5"",""20391""
","
",355.21999991033226,NA,48,NA,NA,3000,1,NA,NA,images/earth.jpg,images/rocket2,images/rocket1,null,images/rocket2,NA,1,real,null,2,NA,NA,NA,sub132
d3-animate-choice,256,874822,0.0-76.0-1.40,TRUE,TRUE,TRUE,TRUE,"""event"",""trial"",""time""
""fullscreenenter"",""5"",""20391""
","
","
","""event"",""trial"",""time""
""fullscreenenter"",""5"",""20391""
","
",656.0949999839067,NA,48,NA,NA,3000,1,NA,NA,images/purpleplanet.jpg,images/alien4,images/alien3,images/rocket2,images/alien4,images/t.png,2,real,true,2,common,1,2020-06-30T15:59:00Z,sub132
two-step-fixation,257,875825,0.0-76.0-2.40,TRUE,TRUE,TRUE,TRUE,"""event"",""trial"",""time""
""fullscreenenter"",""5"",""20391""
","
","
","""event"",""trial"",""time""
""fullscreenenter"",""5"",""20391""
","
",NA,images/earth.jpg,NA,NA,NA,NA,NA,NA,NA,NA,NA,NA,NA,NA,NA,fixation,NA,NA,NA,NA,NA,NA,sub132
d3-animate-choice,258,878177,0.0-76.0-0.41,TRUE,TRUE,TRUE,TRUE,"""event"",""trial"",""time""
""fullscreenenter"",""5"",""20391""
","
","
","""event"",""trial"",""time""
""fullscreenenter"",""5"",""20391""
","
",348.340000025928,NA,48,NA,NA,3000,1,NA,NA,images/earth.jpg,images/rocket2,images/rocket1,null,images/rocket2,NA,1,real,null,2,NA,NA,NA,sub132
d3-animate-choice,259,880781,0.0-76.0-1.41,TRUE,TRUE,TRUE,TRUE,"""event"",""trial"",""time""
""fullscreenenter"",""5"",""20391""
","
","
","""event"",""trial"",""time""
""fullscreenenter"",""5"",""20391""
","
",601.5550000593066,NA,48,NA,NA,3000,1,NA,NA,images/purpleplanet.jpg,images/alien4,images/alien3,images/rocket2,images/alien4,images/t.png,2,real,true,2,common,1,2020-06-30T15:59:06Z,sub132
two-step-fixation,260,881784,0.0-76.0-2.41,TRUE,TRUE,TRUE,TRUE,"""event"",""trial"",""time""
""fullscreenenter"",""5"",""20391""
","
","
","""event"",""trial"",""time""
""fullscreenenter"",""5"",""20391""
","
",NA,images/earth.jpg,NA,NA,NA,NA,NA,NA,NA,NA,NA,NA,NA,NA,NA,fixation,NA,NA,NA,NA,NA,NA,sub132
d3-animate-choice,261,884105,0.0-76.0-0.42,TRUE,TRUE,TRUE,TRUE,"""event"",""trial"",""time""
""fullscreenenter"",""5"",""20391""
","
","
","""event"",""trial"",""time""
""fullscreenenter"",""5"",""20391""
","
",317.22500000614673,NA,48,NA,NA,3000,1,NA,NA,images/earth.jpg,images/rocket2,images/rocket1,null,images/rocket2,NA,1,real,null,2,NA,NA,NA,sub132
d3-animate-choice,262,886545,0.0-76.0-1.42,TRUE,TRUE,TRUE,TRUE,"""event"",""trial"",""time""
""fullscreenenter"",""5"",""20391""
","
","
","""event"",""trial"",""time""
""fullscreenenter"",""5"",""20391""
","
",438.08499991428107,NA,48,NA,NA,3000,1,NA,NA,images/purpleplanet.jpg,images/alien4,images/alien3,images/rocket2,images/alien4,images/t.png,2,real,true,2,common,1,2020-06-30T15:59:11Z,sub132
two-step-fixation,263,887547,0.0-76.0-2.42,TRUE,TRUE,TRUE,TRUE,"""event"",""trial"",""time""
""fullscreenenter"",""5"",""20391""
","
","
","""event"",""trial"",""time""
""fullscreenenter"",""5"",""20391""
","
",NA,images/earth.jpg,NA,NA,NA,NA,NA,NA,NA,NA,NA,NA,NA,NA,NA,fixation,NA,NA,NA,NA,NA,NA,sub132
d3-animate-choice,264,889880,0.0-76.0-0.43,TRUE,TRUE,TRUE,TRUE,"""event"",""trial"",""time""
""fullscreenenter"",""5"",""20391""
","
","
","""event"",""trial"",""time""
""fullscreenenter"",""5"",""20391""
","
",330.23999992292374,NA,48,NA,NA,3000,1,NA,NA,images/earth.jpg,images/rocket2,images/rocket1,null,images/rocket2,NA,1,real,null,2,NA,NA,NA,sub132
d3-animate-choice,265,892339,0.0-76.0-1.43,TRUE,TRUE,TRUE,TRUE,"""event"",""trial"",""time""
""fullscreenenter"",""5"",""20391""
","
","
","""event"",""trial"",""time""
""fullscreenenter"",""5"",""20391""
","
",456.01000008173287,NA,48,NA,NA,3000,1,NA,NA,images/purpleplanet.jpg,images/alien4,images/alien3,images/rocket2,images/alien4,images/nothing.png,2,real,true,2,common,0,2020-06-30T15:59:17Z,sub132
two-step-fixation,266,893342,0.0-76.0-2.43,TRUE,TRUE,TRUE,TRUE,"""event"",""trial"",""time""
""fullscreenenter"",""5"",""20391""
","
","
","""event"",""trial"",""time""
""fullscreenenter"",""5"",""20391""
","
",NA,images/earth.jpg,NA,NA,NA,NA,NA,NA,NA,NA,NA,NA,NA,NA,NA,fixation,NA,NA,NA,NA,NA,NA,sub132
d3-animate-choice,267,895711,0.0-76.0-0.44,TRUE,TRUE,TRUE,TRUE,"""event"",""trial"",""time""
""fullscreenenter"",""5"",""20391""
","
","
","""event"",""trial"",""time""
""fullscreenenter"",""5"",""20391""
","
",366.2999999942258,NA,49,NA,NA,3000,1,NA,NA,images/earth.jpg,images/rocket2,images/rocket1,null,images/rocket1,NA,1,real,null,1,NA,NA,NA,sub132
d3-animate-choice,268,898321,0.0-76.0-1.44,TRUE,TRUE,TRUE,TRUE,"""event"",""trial"",""time""
""fullscreenenter"",""5"",""20391""
","
","
","""event"",""trial"",""time""
""fullscreenenter"",""5"",""20391""
","
",606.5599999856204,NA,49,NA,NA,3000,1,NA,NA,images/redplanet1.jpg,images/alien2,images/alien1,images/rocket1,images/alien1,images/nothing.png,2,real,true,1,common,0,2020-06-30T15:59:23Z,sub132
two-step-fixation,269,899324,0.0-76.0-2.44,TRUE,TRUE,TRUE,TRUE,"""event"",""trial"",""time""
""fullscreenenter"",""5"",""20391""
","
","
","""event"",""trial"",""time""
""fullscreenenter"",""5"",""20391""
","
",NA,images/earth.jpg,NA,NA,NA,NA,NA,NA,NA,NA,NA,NA,NA,NA,NA,fixation,NA,NA,NA,NA,NA,NA,sub132
d3-animate-choice,270,902171,0.0-76.0-0.45,TRUE,TRUE,TRUE,TRUE,"""event"",""trial"",""time""
""fullscreenenter"",""5"",""20391""
","
","
","""event"",""trial"",""time""
""fullscreenenter"",""5"",""20391""
","
",844.1599999787286,NA,49,NA,NA,3000,1,NA,NA,images/earth.jpg,images/rocket2,images/rocket1,null,images/rocket1,NA,1,real,null,1,NA,NA,NA,sub132
d3-animate-choice,271,904526,0.0-76.0-1.45,TRUE,TRUE,TRUE,TRUE,"""event"",""trial"",""time""
""fullscreenenter"",""5"",""20391""
","
","
","""event"",""trial"",""time""
""fullscreenenter"",""5"",""20391""
","
",351.80000006221235,NA,48,NA,NA,3000,1,NA,NA,images/redplanet1.jpg,images/alien2,images/alien1,images/rocket1,images/alien2,images/nothing.png,2,real,true,2,common,0,2020-06-30T15:59:29Z,sub132
two-step-fixation,272,905529,0.0-76.0-2.45,TRUE,TRUE,TRUE,TRUE,"""event"",""trial"",""time""
""fullscreenenter"",""5"",""20391""
","
","
","""event"",""trial"",""time""
""fullscreenenter"",""5"",""20391""
","
",NA,images/earth.jpg,NA,NA,NA,NA,NA,NA,NA,NA,NA,NA,NA,NA,NA,fixation,NA,NA,NA,NA,NA,NA,sub132
d3-animate-choice,273,907841,0.0-76.0-0.46,TRUE,TRUE,TRUE,TRUE,"""event"",""trial"",""time""
""fullscreenenter"",""5"",""20391""
","
","
","""event"",""trial"",""time""
""fullscreenenter"",""5"",""20391""
","
",309.15500002447516,NA,48,NA,NA,3000,1,NA,NA,images/earth.jpg,images/rocket2,images/rocket1,null,images/rocket2,NA,1,real,null,2,NA,NA,NA,sub132
d3-animate-choice,274,910270,0.0-76.0-1.46,TRUE,TRUE,TRUE,TRUE,"""event"",""trial"",""time""
""fullscreenenter"",""5"",""20391""
","
","
","""event"",""trial"",""time""
""fullscreenenter"",""5"",""20391""
","
",426.24000005889684,NA,48,NA,NA,3000,1,NA,NA,images/purpleplanet.jpg,images/alien4,images/alien3,images/rocket2,images/alien4,images/t.png,2,real,true,2,common,1,2020-06-30T15:59:35Z,sub132
two-step-fixation,275,911273,0.0-76.0-2.46,TRUE,TRUE,TRUE,TRUE,"""event"",""trial"",""time""
""fullscreenenter"",""5"",""20391""
","
","
","""event"",""trial"",""time""
""fullscreenenter"",""5"",""20391""
","
",NA,images/earth.jpg,NA,NA,NA,NA,NA,NA,NA,NA,NA,NA,NA,NA,NA,fixation,NA,NA,NA,NA,NA,NA,sub132
d3-animate-choice,276,913683,0.0-76.0-0.47,TRUE,TRUE,TRUE,TRUE,"""event"",""trial"",""time""
""fullscreenenter"",""5"",""20391""
","
","
","""event"",""trial"",""time""
""fullscreenenter"",""5"",""20391""
","
",407.46000001672655,NA,48,NA,NA,3000,1,NA,NA,images/earth.jpg,images/rocket2,images/rocket1,null,images/rocket2,NA,1,real,null,2,NA,NA,NA,sub132
d3-animate-choice,277,916775,0.0-76.0-1.47,TRUE,TRUE,TRUE,TRUE,"""event"",""trial"",""time""
""fullscreenenter"",""5"",""20391""
","
","
","""event"",""trial"",""time""
""fullscreenenter"",""5"",""20391""
","
",1088.9050000114366,NA,49,NA,NA,3000,1,NA,NA,images/redplanet1.jpg,images/alien2,images/alien1,images/rocket2,images/alien1,images/t.png,2,real,false,1,rare,1,2020-06-30T15:59:42Z,sub132
two-step-fixation,278,917778,0.0-76.0-2.47,TRUE,TRUE,TRUE,TRUE,"""event"",""trial"",""time""
""fullscreenenter"",""5"",""20391""
","
","
","""event"",""trial"",""time""
""fullscreenenter"",""5"",""20391""
","
",NA,images/earth.jpg,NA,NA,NA,NA,NA,NA,NA,NA,NA,NA,NA,NA,NA,fixation,NA,NA,NA,NA,NA,NA,sub132
d3-animate-choice,279,920092,0.0-76.0-0.48,TRUE,TRUE,TRUE,TRUE,"""event"",""trial"",""time""
""fullscreenenter"",""5"",""20391""
","
","
","""event"",""trial"",""time""
""fullscreenenter"",""5"",""20391""
","
",311.25500006601214,NA,48,NA,NA,3000,1,NA,NA,images/earth.jpg,images/rocket2,images/rocket1,null,images/rocket2,NA,1,real,null,2,NA,NA,NA,sub132
d3-animate-choice,280,922702,0.0-76.0-1.48,TRUE,TRUE,TRUE,TRUE,"""event"",""trial"",""time""
""fullscreenenter"",""5"",""20391""
","
","
","""event"",""trial"",""time""
""fullscreenenter"",""5"",""20391""
","
",606.4300000434741,NA,48,NA,NA,3000,1,NA,NA,images/purpleplanet.jpg,images/alien4,images/alien3,images/rocket2,images/alien4,images/t.png,2,real,true,2,common,1,2020-06-30T15:59:48Z,sub132
two-step-fixation,281,923705,0.0-76.0-2.48,TRUE,TRUE,TRUE,TRUE,"""event"",""trial"",""time""
""fullscreenenter"",""5"",""20391""
","
","
","""event"",""trial"",""time""
""fullscreenenter"",""5"",""20391""
","
",NA,images/earth.jpg,NA,NA,NA,NA,NA,NA,NA,NA,NA,NA,NA,NA,NA,fixation,NA,NA,NA,NA,NA,NA,sub132
d3-animate-choice,282,926020,0.0-76.0-0.49,TRUE,TRUE,TRUE,TRUE,"""event"",""trial"",""time""
""fullscreenenter"",""5"",""20391""
","
","
","""event"",""trial"",""time""
""fullscreenenter"",""5"",""20391""
","
",312.0549999875948,NA,48,NA,NA,3000,1,NA,NA,images/earth.jpg,images/rocket2,images/rocket1,null,images/rocket2,NA,1,real,null,2,NA,NA,NA,sub132
d3-animate-choice,283,928433,0.0-76.0-1.49,TRUE,TRUE,TRUE,TRUE,"""event"",""trial"",""time""
""fullscreenenter"",""5"",""20391""
","
","
","""event"",""trial"",""time""
""fullscreenenter"",""5"",""20391""
","
",410.64999997615814,NA,48,NA,NA,3000,1,NA,NA,images/purpleplanet.jpg,images/alien4,images/alien3,images/rocket2,images/alien4,images/t.png,2,real,true,2,common,1,2020-06-30T15:59:53Z,sub132
two-step-fixation,284,929436,0.0-76.0-2.49,TRUE,TRUE,TRUE,TRUE,"""event"",""trial"",""time""
""fullscreenenter"",""5"",""20391""
","
","
","""event"",""trial"",""time""
""fullscreenenter"",""5"",""20391""
","
