trial_type,trial_index,time_elapsed,internal_node_id,rocket_sides,red_planet_first_rocket,red_display_order,purple_display_order,interactions,blur_events,focus_events,fullscreenenter_events,fullscreenexit_events,rt,stimulus,key_press,button_pressed,success,duration,valid_pressed,rts,keys,planet_text,right_text,left_text,center_text,chosen_text,reward_text,trial_stage,practice_trial,transition_type,choice,transition,reward,timestamp,subject_id
pavlovia,0,5,0.0-0.0,FALSE,FALSE,TRUE,TRUE,"
","
","
","
","
",NA,NA,NA,NA,NA,NA,NA,NA,NA,NA,NA,NA,NA,NA,NA,NA,NA,NA,NA,NA,NA,NA,sub143
html-keyboard-response,1,2203,0.0-1.0,FALSE,FALSE,TRUE,TRUE,"
","
","
","
","
",2196.745000081137,Welcome! Press the space bar to begin.,32,NA,NA,NA,NA,NA,NA,NA,NA,NA,NA,NA,NA,NA,NA,NA,NA,NA,NA,NA,sub143
audio-keyboard-response,2,5893,0.0-2.0,FALSE,FALSE,TRUE,TRUE,"
","
","
","
","
",3461,audio/beep_loop.wav,32,NA,NA,NA,NA,NA,NA,NA,NA,NA,NA,NA,NA,NA,NA,NA,NA,NA,NA,NA,sub143
audio-button-response,3,8288,0.0-3.0,FALSE,FALSE,TRUE,TRUE,"
","
","
","
","
",NaN,audio/fish.mp3,NA,1,NA,NA,NA,NA,NA,NA,NA,NA,NA,NA,NA,NA,NA,NA,NA,NA,NA,NA,sub143
audio-button-response,4,10901,0.0-4.0,FALSE,FALSE,TRUE,TRUE,"""event"",""trial"",""time""
""fullscreenenter"",""5"",""15441""
","
","
","""event"",""trial"",""time""
""fullscreenenter"",""5"",""15441""
","
",NaN,audio/tiger.mp3,NA,4,NA,NA,NA,NA,NA,NA,NA,NA,NA,NA,NA,NA,NA,NA,NA,NA,NA,NA,sub143
fullscreen,5,16381,0.0-5.0,FALSE,FALSE,TRUE,TRUE,"""event"",""trial"",""time""
""fullscreenenter"",""5"",""15441""
","
","
","""event"",""trial"",""time""
""fullscreenenter"",""5"",""15441""
","
",NA,NA,NA,NA,TRUE,NA,NA,NA,NA,NA,NA,NA,NA,NA,NA,NA,NA,NA,NA,NA,NA,NA,sub143
d3-instructions,6,29922,0.0-6.0,FALSE,FALSE,TRUE,TRUE,"""event"",""trial"",""time""
""fullscreenenter"",""5"",""15441""
","
","
","""event"",""trial"",""time""
""fullscreenenter"",""5"",""15441""
","
",NA,NA,NA,NA,NA,NA,NA,NA,NA,NA,NA,NA,NA,NA,NA,NA,NA,NA,NA,NA,NA,NA,sub143
d3-instructions,7,37991,0.0-7.0,FALSE,FALSE,TRUE,TRUE,"""event"",""trial"",""time""
""fullscreenenter"",""5"",""15441""
","
","
","""event"",""trial"",""time""
""fullscreenenter"",""5"",""15441""
","
",NA,NA,NA,NA,NA,NA,NA,NA,NA,NA,NA,NA,NA,NA,NA,NA,NA,NA,NA,NA,NA,NA,sub143
d3-instructions,8,44621,0.0-8.0,FALSE,FALSE,TRUE,TRUE,"""event"",""trial"",""time""
""fullscreenenter"",""5"",""15441""
","
","
","""event"",""trial"",""time""
""fullscreenenter"",""5"",""15441""
","
",NA,NA,NA,NA,NA,NA,NA,NA,NA,NA,NA,NA,NA,NA,NA,NA,NA,NA,NA,NA,NA,NA,sub143
d3-instructions,9,55657,0.0-9.0,FALSE,FALSE,TRUE,TRUE,"""event"",""trial"",""time""
""fullscreenenter"",""5"",""15441""
","
","
","""event"",""trial"",""time""
""fullscreenenter"",""5"",""15441""
","
",NA,NA,NA,NA,NA,NA,NA,NA,NA,NA,NA,NA,NA,NA,NA,NA,NA,NA,NA,NA,NA,NA,sub143
d3-instructions,10,78318,0.0-10.0,FALSE,FALSE,TRUE,TRUE,"""event"",""trial"",""time""
""fullscreenenter"",""5"",""15441""
","
","
","""event"",""trial"",""time""
""fullscreenenter"",""5"",""15441""
","
",NA,NA,NA,NA,NA,NA,NA,NA,NA,NA,NA,NA,NA,NA,NA,NA,NA,NA,NA,NA,NA,NA,sub143
d3-animate-choice,11,81311,0.0-11.0,FALSE,FALSE,TRUE,TRUE,"""event"",""trial"",""time""
""fullscreenenter"",""5"",""15441""
","
","
","""event"",""trial"",""time""
""fullscreenenter"",""5"",""15441""
","
",983.185000019148,NA,49,NA,NA,3000,1,NA,NA,images/tutgreenplanet.jpg,images/tutalien1,images/tutalien2,null,images/tutalien2,NA,NA,practice,null,NA,NA,NA,NA,sub143
d3-animate-choice,12,85550,0.0-12.0,FALSE,FALSE,TRUE,TRUE,"""event"",""trial"",""time""
""fullscreenenter"",""5"",""15441""
","
","
","""event"",""trial"",""time""
""fullscreenenter"",""5"",""15441""
","
",2231.02999990806,NA,49,NA,NA,3000,1,NA,NA,images/tutgreenplanet.jpg,images/tutalien1,images/tutalien2,null,images/tutalien2,NA,NA,practice,null,NA,NA,NA,NA,sub143
d3-animate-choice,13,88528,0.0-13.0,FALSE,FALSE,TRUE,TRUE,"""event"",""trial"",""time""
""fullscreenenter"",""5"",""15441""
","
","
","""event"",""trial"",""time""
""fullscreenenter"",""5"",""15441""
","
",969.1249998286366,NA,48,NA,NA,3000,1,NA,NA,images/tutgreenplanet.jpg,images/tutalien1,images/tutalien2,null,images/tutalien1,NA,NA,practice,null,NA,NA,NA,NA,sub143
d3-animate-choice,14,91398,0.0-14.0,FALSE,FALSE,TRUE,TRUE,"""event"",""trial"",""time""
""fullscreenenter"",""5"",""15441""
","
","
","""event"",""trial"",""time""
""fullscreenenter"",""5"",""15441""
","
",862.6899998635054,NA,48,NA,NA,3000,1,NA,NA,images/tutgreenplanet.jpg,images/tutalien1,images/tutalien2,null,images/tutalien1,NA,NA,practice,null,NA,NA,NA,NA,sub143
d3-instructions,15,98686,0.0-15.0,FALSE,FALSE,TRUE,TRUE,"""event"",""trial"",""time""
""fullscreenenter"",""5"",""15441""
","
","
","""event"",""trial"",""time""
""fullscreenenter"",""5"",""15441""
","
",NA,NA,NA,NA,NA,NA,NA,NA,NA,NA,NA,NA,NA,NA,NA,NA,NA,NA,NA,NA,NA,NA,sub143
d3-instructions,16,105649,0.0-16.0,FALSE,FALSE,TRUE,TRUE,"""event"",""trial"",""time""
""fullscreenenter"",""5"",""15441""
","
","
","""event"",""trial"",""time""
""fullscreenenter"",""5"",""15441""
","
",NA,NA,NA,NA,NA,NA,NA,NA,NA,NA,NA,NA,NA,NA,NA,NA,NA,NA,NA,NA,NA,NA,sub143
d3-instructions,17,114598,0.0-17.0,FALSE,FALSE,TRUE,TRUE,"""event"",""trial"",""time""
""fullscreenenter"",""5"",""15441""
","
","
","""event"",""trial"",""time""
""fullscreenenter"",""5"",""15441""
","
",NA,NA,NA,NA,NA,NA,NA,NA,NA,NA,NA,NA,NA,NA,NA,NA,NA,NA,NA,NA,NA,NA,sub143
d3-instructions,18,128437,0.0-18.0,FALSE,FALSE,TRUE,TRUE,"""event"",""trial"",""time""
""fullscreenenter"",""5"",""15441""
","
","
","""event"",""trial"",""time""
""fullscreenenter"",""5"",""15441""
","
",NA,NA,NA,NA,NA,NA,NA,NA,NA,NA,NA,NA,NA,NA,NA,NA,NA,NA,NA,NA,NA,NA,sub143
d3-instructions,19,142297,0.0-19.0,FALSE,FALSE,TRUE,TRUE,"""event"",""trial"",""time""
""fullscreenenter"",""5"",""15441""
","
","
","""event"",""trial"",""time""
""fullscreenenter"",""5"",""15441""
","
",NA,NA,NA,NA,NA,NA,NA,NA,NA,NA,NA,NA,NA,NA,NA,NA,NA,NA,NA,NA,NA,NA,sub143
d3-animate-choice,20,144869,0.0-20.0,FALSE,FALSE,TRUE,TRUE,"""event"",""trial"",""time""
""fullscreenenter"",""5"",""15441""
","
","
","""event"",""trial"",""time""
""fullscreenenter"",""5"",""15441""
","
",563.0949998740107,NA,49,NA,NA,3000,1,NA,NA,images/tutyellowplanet.jpg,null,images/tutalien3,null,images/tutalien3,images/t.png,NA,practice,null,NA,NA,NA,NA,sub143
d3-animate-choice,21,147356,0.0-21.0,FALSE,FALSE,TRUE,TRUE,"""event"",""trial"",""time""
""fullscreenenter"",""5"",""15441""
","
","
","""event"",""trial"",""time""
""fullscreenenter"",""5"",""15441""
","
",481.8949999753386,NA,49,NA,NA,3000,1,NA,NA,images/tutyellowplanet.jpg,null,images/tutalien3,null,images/tutalien3,images/t.png,NA,practice,null,NA,NA,NA,NA,sub143
d3-animate-choice,22,149611,0.0-22.0,FALSE,FALSE,TRUE,TRUE,"""event"",""trial"",""time""
""fullscreenenter"",""5"",""15441""
","
","
","""event"",""trial"",""time""
""fullscreenenter"",""5"",""15441""
","
",249.98500011861324,NA,49,NA,NA,3000,1,1673.3300001360476,49,images/tutyellowplanet.jpg,null,images/tutalien3,null,images/tutalien3,images/t.png,NA,practice,null,NA,NA,NA,NA,sub143
d3-animate-choice,23,152056,0.0-23.0,FALSE,FALSE,TRUE,TRUE,"""event"",""trial"",""time""
""fullscreenenter"",""5"",""15441""
","
","
","""event"",""trial"",""time""
""fullscreenenter"",""5"",""15441""
","
",435.8149999752641,NA,49,NA,NA,3000,1,NA,NA,images/tutyellowplanet.jpg,null,images/tutalien3,null,images/tutalien3,images/t.png,NA,practice,null,NA,NA,NA,NA,sub143
d3-animate-choice,24,154394,0.0-24.0,FALSE,FALSE,TRUE,TRUE,"""event"",""trial"",""time""
""fullscreenenter"",""5"",""15441""
","
","
","""event"",""trial"",""time""
""fullscreenenter"",""5"",""15441""
","
",332.36500015482306,NA,49,NA,NA,3000,1,NA,NA,images/tutyellowplanet.jpg,null,images/tutalien3,null,images/tutalien3,images/t.png,NA,practice,null,NA,NA,NA,NA,sub143
d3-animate-choice,25,156702,0.0-25.0,FALSE,FALSE,TRUE,TRUE,"""event"",""trial"",""time""
""fullscreenenter"",""5"",""15441""
","
","
","""event"",""trial"",""time""
""fullscreenenter"",""5"",""15441""
","
",302.64999996870756,NA,49,NA,NA,3000,1,NA,NA,images/tutyellowplanet.jpg,null,images/tutalien3,null,images/tutalien3,images/nothing.png,NA,practice,null,NA,NA,NA,NA,sub143
d3-animate-choice,26,158994,0.0-26.0,FALSE,FALSE,TRUE,TRUE,"""event"",""trial"",""time""
""fullscreenenter"",""5"",""15441""
","
","
","""event"",""trial"",""time""
""fullscreenenter"",""5"",""15441""
","
",285.135000012815,NA,49,NA,NA,3000,1,NA,NA,images/tutyellowplanet.jpg,null,images/tutalien3,null,images/tutalien3,images/t.png,NA,practice,null,NA,NA,NA,NA,sub143
d3-animate-choice,27,161306,0.0-27.0,FALSE,FALSE,TRUE,TRUE,"""event"",""trial"",""time""
""fullscreenenter"",""5"",""15441""
","
","
","""event"",""trial"",""time""
""fullscreenenter"",""5"",""15441""
","
",304.2699999641627,NA,49,NA,NA,3000,1,NA,NA,images/tutyellowplanet.jpg,null,images/tutalien3,null,images/tutalien3,images/nothing.png,NA,practice,null,NA,NA,NA,NA,sub143
d3-animate-choice,28,163632,0.0-28.0,FALSE,FALSE,TRUE,TRUE,"""event"",""trial"",""time""
""fullscreenenter"",""5"",""15441""
","
","
","""event"",""trial"",""time""
""fullscreenenter"",""5"",""15441""
","
",320.0350000988692,NA,49,NA,NA,3000,1,NA,NA,images/tutyellowplanet.jpg,null,images/tutalien3,null,images/tutalien3,images/nothing.png,NA,practice,null,NA,NA,NA,NA,sub143
d3-animate-choice,29,165939,0.0-29.0,FALSE,FALSE,TRUE,TRUE,"""event"",""trial"",""time""
""fullscreenenter"",""5"",""15441""
","
","
","""event"",""trial"",""time""
""fullscreenenter"",""5"",""15441""
","
",300.73999986052513,NA,49,NA,NA,3000,1,NA,NA,images/tutyellowplanet.jpg,null,images/tutalien3,null,images/tutalien3,images/nothing.png,NA,practice,null,NA,NA,NA,NA,sub143
d3-instructions,30,172551,0.0-30.0,FALSE,FALSE,TRUE,TRUE,"""event"",""trial"",""time""
""fullscreenenter"",""5"",""15441""
","
","
","""event"",""trial"",""time""
""fullscreenenter"",""5"",""15441""
","
",NA,NA,NA,NA,NA,NA,NA,NA,NA,NA,NA,NA,NA,NA,NA,NA,NA,NA,NA,NA,NA,NA,sub143
d3-instructions,31,182700,0.0-31.0,FALSE,FALSE,TRUE,TRUE,"""event"",""trial"",""time""
""fullscreenenter"",""5"",""15441""
","
","
","""event"",""trial"",""time""
""fullscreenenter"",""5"",""15441""
","
",NA,NA,NA,NA,NA,NA,NA,NA,NA,NA,NA,NA,NA,NA,NA,NA,NA,NA,NA,NA,NA,NA,sub143
d3-instructions,32,195093,0.0-32.0,FALSE,FALSE,TRUE,TRUE,"""event"",""trial"",""time""
""fullscreenenter"",""5"",""15441""
","
","
","""event"",""trial"",""time""
""fullscreenenter"",""5"",""15441""
","
",NA,NA,NA,NA,NA,NA,NA,NA,NA,NA,NA,NA,NA,NA,NA,NA,NA,NA,NA,NA,NA,NA,sub143
d3-instructions,33,203326,0.0-33.0,FALSE,FALSE,TRUE,TRUE,"""event"",""trial"",""time""
""fullscreenenter"",""5"",""15441""
","
","
","""event"",""trial"",""time""
""fullscreenenter"",""5"",""15441""
","
",NA,NA,NA,NA,NA,NA,NA,NA,NA,NA,NA,NA,NA,NA,NA,NA,NA,NA,NA,NA,NA,NA,sub143
d3-animate-choice,34,206039,0.0-34.0,FALSE,FALSE,TRUE,TRUE,"""event"",""trial"",""time""
""fullscreenenter"",""5"",""15441""
","
","
","""event"",""trial"",""time""
""fullscreenenter"",""5"",""15441""
","
",705.3199999500066,NA,49,NA,NA,3000,1,NA,NA,images/tutgreenplanet.jpg,images/tutalien1,images/tutalien2,null,images/tutalien2,images/t.png,NA,practice,null,NA,NA,NA,NA,sub143
d3-animate-choice,35,208643,0.0-35.0,FALSE,FALSE,TRUE,TRUE,"""event"",""trial"",""time""
""fullscreenenter"",""5"",""15441""
","
","
","""event"",""trial"",""time""
""fullscreenenter"",""5"",""15441""
","
",593.5499998740852,NA,49,NA,NA,3000,1,NA,NA,images/tutgreenplanet.jpg,images/tutalien1,images/tutalien2,null,images/tutalien2,images/nothing.png,NA,practice,null,NA,NA,NA,NA,sub143
d3-animate-choice,36,210973,0.0-36.0,FALSE,FALSE,TRUE,TRUE,"""event"",""trial"",""time""
""fullscreenenter"",""5"",""15441""
","
","
","""event"",""trial"",""time""
""fullscreenenter"",""5"",""15441""
","
",322.9000000283122,NA,49,NA,NA,3000,1,NA,NA,images/tutgreenplanet.jpg,images/tutalien1,images/tutalien2,null,images/tutalien2,images/t.png,NA,practice,null,NA,NA,NA,NA,sub143
d3-animate-choice,37,213345,0.0-37.0,FALSE,FALSE,TRUE,TRUE,"""event"",""trial"",""time""
""fullscreenenter"",""5"",""15441""
","
","
","""event"",""trial"",""time""
""fullscreenenter"",""5"",""15441""
","
",364.77499990724027,NA,49,NA,NA,3000,1,NA,NA,images/tutgreenplanet.jpg,images/tutalien1,images/tutalien2,null,images/tutalien2,images/t.png,NA,practice,null,NA,NA,NA,NA,sub143
d3-animate-choice,38,215676,0.0-38.0,FALSE,FALSE,TRUE,TRUE,"""event"",""trial"",""time""
""fullscreenenter"",""5"",""15441""
","
","
","""event"",""trial"",""time""
""fullscreenenter"",""5"",""15441""
","
",323.219999903813,NA,49,NA,NA,3000,1,NA,NA,images/tutgreenplanet.jpg,images/tutalien1,images/tutalien2,null,images/tutalien2,images/t.png,NA,practice,null,NA,NA,NA,NA,sub143
d3-animate-choice,39,217954,0.0-39.0,FALSE,FALSE,TRUE,TRUE,"""event"",""trial"",""time""
""fullscreenenter"",""5"",""15441""
","
","
","""event"",""trial"",""time""
""fullscreenenter"",""5"",""15441""
","
",271.59000001847744,NA,49,NA,NA,3000,1,NA,NA,images/tutgreenplanet.jpg,images/tutalien1,images/tutalien2,null,images/tutalien2,images/t.png,NA,practice,null,NA,NA,NA,NA,sub143
d3-animate-choice,40,220289,0.0-40.0,FALSE,FALSE,TRUE,TRUE,"""event"",""trial"",""time""
""fullscreenenter"",""5"",""15441""
","
","
","""event"",""trial"",""time""
""fullscreenenter"",""5"",""15441""
","
",328.50500009953976,NA,49,NA,NA,3000,1,NA,NA,images/tutgreenplanet.jpg,images/tutalien1,images/tutalien2,null,images/tutalien2,images/t.png,NA,practice,null,NA,NA,NA,NA,sub143
d3-animate-choice,41,222634,0.0-41.0,FALSE,FALSE,TRUE,TRUE,"""event"",""trial"",""time""
""fullscreenenter"",""5"",""15441""
","
","
","""event"",""trial"",""time""
""fullscreenenter"",""5"",""15441""
","
",338.5749999433756,NA,49,NA,NA,3000,1,NA,NA,images/tutgreenplanet.jpg,images/tutalien1,images/tutalien2,null,images/tutalien2,images/nothing.png,NA,practice,null,NA,NA,NA,NA,sub143
d3-animate-choice,42,224983,0.0-42.0,FALSE,FALSE,TRUE,TRUE,"""event"",""trial"",""time""
""fullscreenenter"",""5"",""15441""
","
","
","""event"",""trial"",""time""
""fullscreenenter"",""5"",""15441""
","
",341.56000008806586,NA,49,NA,NA,3000,1,NA,NA,images/tutgreenplanet.jpg,images/tutalien1,images/tutalien2,null,images/tutalien2,images/t.png,NA,practice,null,NA,NA,NA,NA,sub143
d3-animate-choice,43,227339,0.0-43.0,FALSE,FALSE,TRUE,TRUE,"""event"",""trial"",""time""
""fullscreenenter"",""5"",""15441""
","
","
","""event"",""trial"",""time""
""fullscreenenter"",""5"",""15441""
","
",346.8800000846386,NA,49,NA,NA,3000,1,NA,NA,images/tutgreenplanet.jpg,images/tutalien1,images/tutalien2,null,images/tutalien2,images/t.png,NA,practice,null,NA,NA,NA,NA,sub143
d3-instructions,44,240365,0.0-44.0,FALSE,FALSE,TRUE,TRUE,"""event"",""trial"",""time""
""fullscreenenter"",""5"",""15441""
","
","
","""event"",""trial"",""time""
""fullscreenenter"",""5"",""15441""
","
",NA,NA,NA,NA,NA,NA,NA,NA,NA,NA,NA,NA,NA,NA,NA,NA,NA,NA,NA,NA,NA,NA,sub143
d3-instructions,45,246548,0.0-45.0,FALSE,FALSE,TRUE,TRUE,"""event"",""trial"",""time""
""fullscreenenter"",""5"",""15441""
","
","
","""event"",""trial"",""time""
""fullscreenenter"",""5"",""15441""
","
",NA,NA,NA,NA,NA,NA,NA,NA,NA,NA,NA,NA,NA,NA,NA,NA,NA,NA,NA,NA,NA,NA,sub143
d3-instructions,46,252527,0.0-46.0,FALSE,FALSE,TRUE,TRUE,"""event"",""trial"",""time""
""fullscreenenter"",""5"",""15441""
","
","
","""event"",""trial"",""time""
""fullscreenenter"",""5"",""15441""
","
",NA,NA,NA,NA,NA,NA,NA,NA,NA,NA,NA,NA,NA,NA,NA,NA,NA,NA,NA,NA,NA,NA,sub143
d3-instructions,47,269260,0.0-47.0,FALSE,FALSE,TRUE,TRUE,"""event"",""trial"",""time""
""fullscreenenter"",""5"",""15441""
","
","
","""event"",""trial"",""time""
""fullscreenenter"",""5"",""15441""
","
",NA,NA,NA,NA,NA,NA,NA,NA,NA,NA,NA,NA,NA,NA,NA,NA,NA,NA,NA,NA,NA,NA,sub143
d3-instructions,48,276872,0.0-48.0,FALSE,FALSE,TRUE,TRUE,"""event"",""trial"",""time""
""fullscreenenter"",""5"",""15441""
","
","
","""event"",""trial"",""time""
""fullscreenenter"",""5"",""15441""
","
",NA,NA,NA,NA,NA,NA,NA,NA,NA,NA,NA,NA,NA,NA,NA,NA,NA,NA,NA,NA,NA,NA,sub143
d3-instructions,49,287920,0.0-49.0,FALSE,FALSE,TRUE,TRUE,"""event"",""trial"",""time""
""fullscreenenter"",""5"",""15441""
","
","
","""event"",""trial"",""time""
""fullscreenenter"",""5"",""15441""
","
",NA,NA,NA,NA,NA,NA,NA,NA,NA,NA,NA,NA,NA,NA,NA,NA,NA,NA,NA,NA,NA,NA,sub143
d3-instructions,50,296996,0.0-50.0,FALSE,FALSE,TRUE,TRUE,"""event"",""trial"",""time""
""fullscreenenter"",""5"",""15441""
","
","
","""event"",""trial"",""time""
""fullscreenenter"",""5"",""15441""
","
",NA,NA,NA,NA,NA,NA,NA,NA,NA,NA,NA,NA,NA,NA,NA,NA,NA,NA,NA,NA,NA,NA,sub143
d3-instructions,51,300219,0.0-51.0,FALSE,FALSE,TRUE,TRUE,"""event"",""trial"",""time""
""fullscreenenter"",""5"",""15441""
","
","
","""event"",""trial"",""time""
""fullscreenenter"",""5"",""15441""
","
",NA,NA,NA,NA,NA,NA,NA,NA,NA,NA,NA,NA,NA,NA,NA,NA,NA,NA,NA,NA,NA,NA,sub143
d3-instructions,52,303420,0.0-52.0,FALSE,FALSE,TRUE,TRUE,"""event"",""trial"",""time""
""fullscreenenter"",""5"",""15441""
","
","
","""event"",""trial"",""time""
""fullscreenenter"",""5"",""15441""
","
",NA,NA,NA,NA,NA,NA,NA,NA,NA,NA,NA,NA,NA,NA,NA,NA,NA,NA,NA,NA,NA,NA,sub143
d3-instructions,53,318058,0.0-53.0,FALSE,FALSE,TRUE,TRUE,"""event"",""trial"",""time""
""fullscreenenter"",""5"",""15441""
","
","
","""event"",""trial"",""time""
""fullscreenenter"",""5"",""15441""
","
",NA,NA,NA,NA,NA,NA,NA,NA,NA,NA,NA,NA,NA,NA,NA,NA,NA,NA,NA,NA,NA,NA,sub143
d3-instructions,54,329137,0.0-54.0,FALSE,FALSE,TRUE,TRUE,"""event"",""trial"",""time""
""fullscreenenter"",""5"",""15441""
","
","
","""event"",""trial"",""time""
""fullscreenenter"",""5"",""15441""
","
",NA,NA,NA,NA,NA,NA,NA,NA,NA,NA,NA,NA,NA,NA,NA,NA,NA,NA,NA,NA,NA,NA,sub143
d3-instructions,55,339447,0.0-55.0,FALSE,FALSE,TRUE,TRUE,"""event"",""trial"",""time""
""fullscreenenter"",""5"",""15441""
","
","
","""event"",""trial"",""time""
""fullscreenenter"",""5"",""15441""
","
",NA,NA,NA,NA,NA,NA,NA,NA,NA,NA,NA,NA,NA,NA,NA,NA,NA,NA,NA,NA,NA,NA,sub143
d3-instructions,56,347859,0.0-56.0,FALSE,FALSE,TRUE,TRUE,"""event"",""trial"",""time""
""fullscreenenter"",""5"",""15441""
","
","
","""event"",""trial"",""time""
""fullscreenenter"",""5"",""15441""
","
",NA,NA,NA,NA,NA,NA,NA,NA,NA,NA,NA,NA,NA,NA,NA,NA,NA,NA,NA,NA,NA,NA,sub143
d3-instructions,57,354839,0.0-57.0,FALSE,FALSE,TRUE,TRUE,"""event"",""trial"",""time""
""fullscreenenter"",""5"",""15441""
","
","
","""event"",""trial"",""time""
""fullscreenenter"",""5"",""15441""
","
",NA,NA,NA,NA,NA,NA,NA,NA,NA,NA,NA,NA,NA,NA,NA,NA,NA,NA,NA,NA,NA,NA,sub143
d3-instructions,58,367402,0.0-58.0,FALSE,FALSE,TRUE,TRUE,"""event"",""trial"",""time""
""fullscreenenter"",""5"",""15441""
","
","
","""event"",""trial"",""time""
""fullscreenenter"",""5"",""15441""
","
",NA,NA,NA,NA,NA,NA,NA,NA,NA,NA,NA,NA,NA,NA,NA,NA,NA,NA,NA,NA,NA,NA,sub143
d3-instructions,59,373138,0.0-59.0,FALSE,FALSE,TRUE,TRUE,"""event"",""trial"",""time""
""fullscreenenter"",""5"",""15441""
","
","
","""event"",""trial"",""time""
""fullscreenenter"",""5"",""15441""
","
",NA,NA,NA,NA,NA,NA,NA,NA,NA,NA,NA,NA,NA,NA,NA,NA,NA,NA,NA,NA,NA,NA,sub143
d3-instructions,60,381363,0.0-60.0,FALSE,FALSE,TRUE,TRUE,"""event"",""trial"",""time""
""fullscreenenter"",""5"",""15441""
","
","
","""event"",""trial"",""time""
""fullscreenenter"",""5"",""15441""
","
",NA,NA,NA,NA,NA,NA,NA,NA,NA,NA,NA,NA,NA,NA,NA,NA,NA,NA,NA,NA,NA,NA,sub143
d3-animate-choice,61,384450,0.0-61.0-0.0,FALSE,FALSE,TRUE,TRUE,"""event"",""trial"",""time""
""fullscreenenter"",""5"",""15441""
","
","
","""event"",""trial"",""time""
""fullscreenenter"",""5"",""15441""
","
",1082.7449997887015,NA,49,NA,NA,3000,1,NA,NA,images/earth.jpg,images/tutrocket1,images/tutrocket2,null,images/tutrocket2,NA,1,practice,null,1,NA,NA,NA,sub143
d3-animate-choice,62,387348,0.0-61.0-1.0,FALSE,FALSE,TRUE,TRUE,"""event"",""trial"",""time""
""fullscreenenter"",""5"",""15441""
","
","
","""event"",""trial"",""time""
""fullscreenenter"",""5"",""15441""
","
",890.6999998725951,NA,49,NA,NA,3000,1,NA,NA,images/tutyellowplanet.jpg,images/tutalien4,images/tutalien3,images/tutrocket2,images/tutalien3,images/nothing.png,2,practice,false,1,rare,0,2020-07-02T12:27:19Z,sub143
two-step-fixation,63,388353,0.0-61.0-2.0,FALSE,FALSE,TRUE,TRUE,"""event"",""trial"",""time""
""fullscreenenter"",""5"",""15441""
","
","
","""event"",""trial"",""time""
""fullscreenenter"",""5"",""15441""
","
",NA,images/earth.jpg,NA,NA,NA,NA,NA,NA,NA,NA,NA,NA,NA,NA,NA,fixation,NA,NA,NA,NA,NA,NA,sub143
d3-animate-choice,64,390781,0.0-61.0-0.1,FALSE,FALSE,TRUE,TRUE,"""event"",""trial"",""time""
""fullscreenenter"",""5"",""15441""
","
","
","""event"",""trial"",""time""
""fullscreenenter"",""5"",""15441""
","
",425.8250000420958,NA,49,NA,NA,3000,1,NA,NA,images/earth.jpg,images/tutrocket1,images/tutrocket2,null,images/tutrocket2,NA,1,practice,null,1,NA,NA,NA,sub143
d3-animate-choice,65,393429,0.0-61.0-1.1,FALSE,FALSE,TRUE,TRUE,"""event"",""trial"",""time""
""fullscreenenter"",""5"",""15441""
","
","
","""event"",""trial"",""time""
""fullscreenenter"",""5"",""15441""
","
",643.3099999558181,NA,49,NA,NA,3000,1,NA,NA,images/tutgreenplanet.jpg,images/tutalien2,images/tutalien1,images/tutrocket2,images/tutalien1,images/t.png,2,practice,true,1,common,1,2020-07-02T12:27:25Z,sub143
two-step-fixation,66,394433,0.0-61.0-2.1,FALSE,FALSE,TRUE,TRUE,"""event"",""trial"",""time""
""fullscreenenter"",""5"",""15441""
","
","
","""event"",""trial"",""time""
""fullscreenenter"",""5"",""15441""
","
",NA,images/earth.jpg,NA,NA,NA,NA,NA,NA,NA,NA,NA,NA,NA,NA,NA,fixation,NA,NA,NA,NA,NA,NA,sub143
d3-animate-choice,67,396845,0.0-61.0-0.2,FALSE,FALSE,TRUE,TRUE,"""event"",""trial"",""time""
""fullscreenenter"",""5"",""15441""
","
","
","""event"",""trial"",""time""
""fullscreenenter"",""5"",""15441""
","
",409.1900000348687,NA,49,NA,NA,3000,1,NA,NA,images/earth.jpg,images/tutrocket1,images/tutrocket2,null,images/tutrocket2,NA,1,practice,null,1,NA,NA,NA,sub143
d3-animate-choice,68,399319,0.0-61.0-1.2,FALSE,FALSE,TRUE,TRUE,"""event"",""trial"",""time""
""fullscreenenter"",""5"",""15441""
","
","
","""event"",""trial"",""time""
""fullscreenenter"",""5"",""15441""
","
",470.8849999587983,NA,49,NA,NA,3000,1,NA,NA,images/tutyellowplanet.jpg,images/tutalien4,images/tutalien3,images/tutrocket2,images/tutalien3,images/nothing.png,2,practice,false,1,rare,0,2020-07-02T12:27:31Z,sub143
two-step-fixation,69,400323,0.0-61.0-2.2,FALSE,FALSE,TRUE,TRUE,"""event"",""trial"",""time""
""fullscreenenter"",""5"",""15441""
","
","
","""event"",""trial"",""time""
""fullscreenenter"",""5"",""15441""
","
",NA,images/earth.jpg,NA,NA,NA,NA,NA,NA,NA,NA,NA,NA,NA,NA,NA,fixation,NA,NA,NA,NA,NA,NA,sub143
d3-animate-choice,70,402710,0.0-61.0-0.3,FALSE,FALSE,TRUE,TRUE,"""event"",""trial"",""time""
""fullscreenenter"",""5"",""15441""
","
","
","""event"",""trial"",""time""
""fullscreenenter"",""5"",""15441""
","
",383.05999990552664,NA,49,NA,NA,3000,1,NA,NA,images/earth.jpg,images/tutrocket1,images/tutrocket2,null,images/tutrocket2,NA,1,practice,null,1,NA,NA,NA,sub143
d3-animate-choice,71,406715,0.0-61.0-1.3,FALSE,FALSE,TRUE,TRUE,"""event"",""trial"",""time""
""fullscreenenter"",""5"",""15441""
","
","
","""event"",""trial"",""time""
""fullscreenenter"",""5"",""15441""
","
",763.3449998684227,NA,50,NA,NA,3000,1,2721.2749999016523,48,images/tutgreenplanet.jpg,images/tutalien2,images/tutalien1,images/tutrocket2,images/tutalien2,NA,2,practice,true,NA,common,0,2020-07-02T12:27:38Z,sub143
two-step-fixation,72,407719,0.0-61.0-2.3,FALSE,FALSE,TRUE,TRUE,"""event"",""trial"",""time""
""fullscreenenter"",""5"",""15441""
","
","
","""event"",""trial"",""time""
""fullscreenenter"",""5"",""15441""
","
",NA,images/earth.jpg,NA,NA,NA,NA,NA,NA,NA,NA,NA,NA,NA,NA,NA,fixation,NA,NA,NA,NA,NA,NA,sub143
d3-animate-choice,73,410858,0.0-61.0-0.4,FALSE,FALSE,TRUE,TRUE,"""event"",""trial"",""time""
""fullscreenenter"",""5"",""15441""
","
","
","""event"",""trial"",""time""
""fullscreenenter"",""5"",""15441""
","
",1135.2099999785423,NA,49,NA,NA,3000,1,NA,NA,images/earth.jpg,images/tutrocket1,images/tutrocket2,null,images/tutrocket2,NA,1,practice,null,1,NA,NA,NA,sub143
d3-animate-choice,74,414250,0.0-61.0-1.4,FALSE,FALSE,TRUE,TRUE,"""event"",""trial"",""time""
""fullscreenenter"",""5"",""15441""
","
","
","""event"",""trial"",""time""
""fullscreenenter"",""5"",""15441""
","
",597.1299998927861,NA,50,NA,NA,3000,1,1384.92999994196,48,images/tutgreenplanet.jpg,images/tutalien2,images/tutalien1,images/tutrocket2,images/tutalien2,images/nothing.png,2,practice,true,NA,common,0,2020-07-02T12:27:46Z,sub143
two-step-fixation,75,415258,0.0-61.0-2.4,FALSE,FALSE,TRUE,TRUE,"""event"",""trial"",""time""
""fullscreenenter"",""5"",""15441""
","
","
","""event"",""trial"",""time""
""fullscreenenter"",""5"",""15441""
","
",NA,images/earth.jpg,NA,NA,NA,NA,NA,NA,NA,NA,NA,NA,NA,NA,NA,fixation,NA,NA,NA,NA,NA,NA,sub143
d3-animate-choice,76,418716,0.0-61.0-0.5,FALSE,FALSE,TRUE,TRUE,"""event"",""trial"",""time""
""fullscreenenter"",""5"",""15441""
","
","
","""event"",""trial"",""time""
""fullscreenenter"",""5"",""15441""
","
",1448.439999949187,NA,49,NA,NA,3000,1,NA,NA,images/earth.jpg,images/tutrocket1,images/tutrocket2,null,images/tutrocket2,NA,1,practice,null,1,NA,NA,NA,sub143
d3-animate-choice,77,422131,0.0-61.0-1.5,FALSE,FALSE,TRUE,TRUE,"""event"",""trial"",""time""
""fullscreenenter"",""5"",""15441""
","
","
","""event"",""trial"",""time""
""fullscreenenter"",""5"",""15441""
","
",1406.6200000233948,NA,49,NA,NA,3000,1,NA,NA,images/tutyellowplanet.jpg,images/tutalien4,images/tutalien3,images/tutrocket2,images/tutalien3,images/nothing.png,2,practice,false,1,rare,0,2020-07-02T12:27:54Z,sub143
two-step-fixation,78,423139,0.0-61.0-2.5,FALSE,FALSE,TRUE,TRUE,"""event"",""trial"",""time""
""fullscreenenter"",""5"",""15441""
","
","
","""event"",""trial"",""time""
""fullscreenenter"",""5"",""15441""
","
",NA,images/earth.jpg,NA,NA,NA,NA,NA,NA,NA,NA,NA,NA,NA,NA,NA,fixation,NA,NA,NA,NA,NA,NA,sub143
d3-animate-choice,79,425444,0.0-61.0-0.6,FALSE,FALSE,TRUE,TRUE,"""event"",""trial"",""time""
""fullscreenenter"",""5"",""15441""
","
","
","""event"",""trial"",""time""
""fullscreenenter"",""5"",""15441""
","
",297.4549999926239,NA,49,NA,NA,3000,1,NA,NA,images/earth.jpg,images/tutrocket1,images/tutrocket2,null,images/tutrocket2,NA,1,practice,null,1,NA,NA,NA,sub143
d3-animate-choice,80,428523,0.0-61.0-1.6,FALSE,FALSE,TRUE,TRUE,"""event"",""trial"",""time""
""fullscreenenter"",""5"",""15441""
","
","
","""event"",""trial"",""time""
""fullscreenenter"",""5"",""15441""
","
",1070.2100000344217,NA,49,NA,NA,3000,1,NA,NA,images/tutgreenplanet.jpg,images/tutalien2,images/tutalien1,images/tutrocket2,images/tutalien1,images/nothing.png,2,practice,true,1,common,0,2020-07-02T12:28:00Z,sub143
two-step-fixation,81,429531,0.0-61.0-2.6,FALSE,FALSE,TRUE,TRUE,"""event"",""trial"",""time""
""fullscreenenter"",""5"",""15441""
","
","
","""event"",""trial"",""time""
""fullscreenenter"",""5"",""15441""
","
",NA,images/earth.jpg,NA,NA,NA,NA,NA,NA,NA,NA,NA,NA,NA,NA,NA,fixation,NA,NA,NA,NA,NA,NA,sub143
d3-animate-choice,82,431927,0.0-61.0-0.7,FALSE,FALSE,TRUE,TRUE,"""event"",""trial"",""time""
""fullscreenenter"",""5"",""15441""
","
","
","""event"",""trial"",""time""
""fullscreenenter"",""5"",""15441""
","
",387.0099999476224,NA,49,NA,NA,3000,1,NA,NA,images/earth.jpg,images/tutrocket1,images/tutrocket2,null,images/tutrocket2,NA,1,practice,null,1,NA,NA,NA,sub143
d3-animate-choice,83,434803,0.0-61.0-1.7,FALSE,FALSE,TRUE,TRUE,"""event"",""trial"",""time""
""fullscreenenter"",""5"",""15441""
","
","
","""event"",""trial"",""time""
""fullscreenenter"",""5"",""15441""
","
",866.0149998031557,NA,48,NA,NA,3000,1,NA,NA,images/tutgreenplanet.jpg,images/tutalien2,images/tutalien1,images/tutrocket2,images/tutalien2,images/t.png,2,practice,true,2,common,1,2020-07-02T12:28:06Z,sub143
two-step-fixation,84,435811,0.0-61.0-2.7,FALSE,FALSE,TRUE,TRUE,"""event"",""trial"",""time""
""fullscreenenter"",""5"",""15441""
","
","
","""event"",""trial"",""time""
""fullscreenenter"",""5"",""15441""
","
",NA,images/earth.jpg,NA,NA,NA,NA,NA,NA,NA,NA,NA,NA,NA,NA,NA,fixation,NA,NA,NA,NA,NA,NA,sub143
d3-animate-choice,85,438231,0.0-61.0-0.8,FALSE,FALSE,TRUE,TRUE,"""event"",""trial"",""time""
""fullscreenenter"",""5"",""15441""
","
","
","""event"",""trial"",""time""
""fullscreenenter"",""5"",""15441""
","
",412.1850000228733,NA,49,NA,NA,3000,1,NA,NA,images/earth.jpg,images/tutrocket1,images/tutrocket2,null,images/tutrocket2,NA,1,practice,null,1,NA,NA,NA,sub143
d3-animate-choice,86,440836,0.0-61.0-1.8,FALSE,FALSE,TRUE,TRUE,"""event"",""trial"",""time""
""fullscreenenter"",""5"",""15441""
","
","
","""event"",""trial"",""time""
""fullscreenenter"",""5"",""15441""
","
",596.1249999236315,NA,48,NA,NA,3000,1,NA,NA,images/tutgreenplanet.jpg,images/tutalien2,images/tutalien1,images/tutrocket2,images/tutalien2,images/nothing.png,2,practice,true,2,common,0,2020-07-02T12:28:12Z,sub143
two-step-fixation,87,441844,0.0-61.0-2.8,FALSE,FALSE,TRUE,TRUE,"""event"",""trial"",""time""
""fullscreenenter"",""5"",""15441""
","
","
","""event"",""trial"",""time""
""fullscreenenter"",""5"",""15441""
","
",NA,images/earth.jpg,NA,NA,NA,NA,NA,NA,NA,NA,NA,NA,NA,NA,NA,fixation,NA,NA,NA,NA,NA,NA,sub143
d3-animate-choice,88,444362,0.0-61.0-0.9,FALSE,FALSE,TRUE,TRUE,"""event"",""trial"",""time""
""fullscreenenter"",""5"",""15441""
","
","
","""event"",""trial"",""time""
""fullscreenenter"",""5"",""15441""
","
",508.875000057742,NA,49,NA,NA,3000,1,NA,NA,images/earth.jpg,images/tutrocket1,images/tutrocket2,null,images/tutrocket2,NA,1,practice,null,1,NA,NA,NA,sub143
d3-animate-choice,89,447511,0.0-61.0-1.9,FALSE,FALSE,TRUE,TRUE,"""event"",""trial"",""time""
""fullscreenenter"",""5"",""15441""
","
","
","""event"",""trial"",""time""
""fullscreenenter"",""5"",""15441""
","
",1141.025000018999,NA,49,NA,NA,3000,1,NA,NA,images/tutgreenplanet.jpg,images/tutalien2,images/tutalien1,images/tutrocket2,images/tutalien1,images/nothing.png,2,practice,true,1,common,0,2020-07-02T12:28:19Z,sub143
two-step-fixation,90,448517,0.0-61.0-2.9,FALSE,FALSE,TRUE,TRUE,"""event"",""trial"",""time""
""fullscreenenter"",""5"",""15441""
","
","
","""event"",""trial"",""time""
""fullscreenenter"",""5"",""15441""
","
",NA,images/earth.jpg,NA,NA,NA,NA,NA,NA,NA,NA,NA,NA,NA,NA,NA,fixation,NA,NA,NA,NA,NA,NA,sub143
d3-animate-choice,91,450846,0.0-61.0-0.10,FALSE,FALSE,TRUE,TRUE,"""event"",""trial"",""time""
""fullscreenenter"",""5"",""15441""
","
","
","""event"",""trial"",""time""
""fullscreenenter"",""5"",""15441""
","
",320.28000010177493,NA,48,NA,NA,3000,1,NA,NA,images/earth.jpg,images/tutrocket1,images/tutrocket2,null,images/tutrocket1,NA,1,practice,null,2,NA,NA,NA,sub143
d3-animate-choice,92,453933,0.0-61.0-1.10,FALSE,FALSE,TRUE,TRUE,"""event"",""trial"",""time""
""fullscreenenter"",""5"",""15441""
","
","
","""event"",""trial"",""time""
""fullscreenenter"",""5"",""15441""
","
",1078.3099997788668,NA,48,NA,NA,3000,1,NA,NA,images/tutgreenplanet.jpg,images/tutalien2,images/tutalien1,images/tutrocket1,images/tutalien2,images/t.png,2,practice,false,2,rare,1,2020-07-02T12:28:25Z,sub143
two-step-fixation,93,454940,0.0-61.0-2.10,FALSE,FALSE,TRUE,TRUE,"""event"",""trial"",""time""
""fullscreenenter"",""5"",""15441""
","
","
","""event"",""trial"",""time""
""fullscreenenter"",""5"",""15441""
","
",NA,images/earth.jpg,NA,NA,NA,NA,NA,NA,NA,NA,NA,NA,NA,NA,NA,fixation,NA,NA,NA,NA,NA,NA,sub143
d3-animate-choice,94,457346,0.0-61.0-0.11,FALSE,FALSE,TRUE,TRUE,"""event"",""trial"",""time""
""fullscreenenter"",""5"",""15441""
","
","
","""event"",""trial"",""time""
""fullscreenenter"",""5"",""15441""
","
",398.9900001324713,NA,48,NA,NA,3000,1,NA,NA,images/earth.jpg,images/tutrocket1,images/tutrocket2,null,images/tutrocket1,NA,1,practice,null,2,NA,NA,NA,sub143
d3-animate-choice,95,459823,0.0-61.0-1.11,FALSE,FALSE,TRUE,TRUE,"""event"",""trial"",""time""
""fullscreenenter"",""5"",""15441""
","
","
","""event"",""trial"",""time""
""fullscreenenter"",""5"",""15441""
","
",469.07000010833144,NA,48,NA,NA,3000,1,NA,NA,images/tutyellowplanet.jpg,images/tutalien4,images/tutalien3,images/tutrocket1,images/tutalien4,images/nothing.png,2,practice,true,2,common,0,2020-07-02T12:28:31Z,sub143
two-step-fixation,96,460831,0.0-61.0-2.11,FALSE,FALSE,TRUE,TRUE,"""event"",""trial"",""time""
""fullscreenenter"",""5"",""15441""
","
","
","""event"",""trial"",""time""
""fullscreenenter"",""5"",""15441""
","
",NA,images/earth.jpg,NA,NA,NA,NA,NA,NA,NA,NA,NA,NA,NA,NA,NA,fixation,NA,NA,NA,NA,NA,NA,sub143
d3-animate-choice,97,463285,0.0-61.0-0.12,FALSE,FALSE,TRUE,TRUE,"""event"",""trial"",""time""
""fullscreenenter"",""5"",""15441""
","
","
","""event"",""trial"",""time""
""fullscreenenter"",""5"",""15441""
","
",441.3299998268485,NA,48,NA,NA,3000,1,NA,NA,images/earth.jpg,images/tutrocket1,images/tutrocket2,null,images/tutrocket1,NA,1,practice,null,2,NA,NA,NA,sub143
d3-animate-choice,98,466425,0.0-61.0-1.12,FALSE,FALSE,TRUE,TRUE,"""event"",""trial"",""time""
""fullscreenenter"",""5"",""15441""
","
","
","""event"",""trial"",""time""
""fullscreenenter"",""5"",""15441""
","
",1131.3799999188632,NA,49,NA,NA,3000,1,NA,NA,images/tutyellowplanet.jpg,images/tutalien4,images/tutalien3,images/tutrocket1,images/tutalien3,images/nothing.png,2,practice,true,1,common,0,2020-07-02T12:28:38Z,sub143
two-step-fixation,99,467432,0.0-61.0-2.12,FALSE,FALSE,TRUE,TRUE,"""event"",""trial"",""time""
""fullscreenenter"",""5"",""15441""
","
","
","""event"",""trial"",""time""
""fullscreenenter"",""5"",""15441""
","
",NA,images/earth.jpg,NA,NA,NA,NA,NA,NA,NA,NA,NA,NA,NA,NA,NA,fixation,NA,NA,NA,NA,NA,NA,sub143
d3-animate-choice,100,469523,0.0-61.0-0.13,FALSE,FALSE,TRUE,TRUE,"""event"",""trial"",""time""
""fullscreenenter"",""5"",""15441""
","
","
","""event"",""trial"",""time""
""fullscreenenter"",""5"",""15441""
","
",80.75500000268221,NA,49,NA,NA,3000,1,NA,NA,images/earth.jpg,images/tutrocket1,images/tutrocket2,null,images/tutrocket2,NA,1,practice,null,1,NA,NA,NA,sub143
d3-animate-choice,101,472653,0.0-61.0-1.13,FALSE,FALSE,TRUE,TRUE,"""event"",""trial"",""time""
""fullscreenenter"",""5"",""15441""
","
","
","""event"",""trial"",""time""
""fullscreenenter"",""5"",""15441""
","
",1123.725000070408,NA,49,NA,NA,3000,1,NA,NA,images/tutyellowplanet.jpg,images/tutalien4,images/tutalien3,images/tutrocket2,images/tutalien3,images/nothing.png,2,practice,false,1,rare,0,2020-07-02T12:28:44Z,sub143
two-step-fixation,102,473662,0.0-61.0-2.13,FALSE,FALSE,TRUE,TRUE,"""event"",""trial"",""time""
""fullscreenenter"",""5"",""15441""
","
","
","""event"",""trial"",""time""
""fullscreenenter"",""5"",""15441""
","
",NA,images/earth.jpg,NA,NA,NA,NA,NA,NA,NA,NA,NA,NA,NA,NA,NA,fixation,NA,NA,NA,NA,NA,NA,sub143
d3-animate-choice,103,475945,0.0-61.0-0.14,FALSE,FALSE,TRUE,TRUE,"""event"",""trial"",""time""
""fullscreenenter"",""5"",""15441""
","
","
","""event"",""trial"",""time""
""fullscreenenter"",""5"",""15441""
","
",273.930000141263,NA,48,NA,NA,3000,1,NA,NA,images/earth.jpg,images/tutrocket1,images/tutrocket2,null,images/tutrocket1,NA,1,practice,null,2,NA,NA,NA,sub143
d3-animate-choice,104,479092,0.0-61.0-1.14,FALSE,FALSE,TRUE,TRUE,"""event"",""trial"",""time""
""fullscreenenter"",""5"",""15441""
","
","
","""event"",""trial"",""time""
""fullscreenenter"",""5"",""15441""
","
",1139.9850000161678,NA,48,NA,NA,3000,1,NA,NA,images/tutyellowplanet.jpg,images/tutalien4,images/tutalien3,images/tutrocket1,images/tutalien4,images/nothing.png,2,practice,true,2,common,0,2020-07-02T12:28:51Z,sub143
two-step-fixation,105,480101,0.0-61.0-2.14,FALSE,FALSE,TRUE,TRUE,"""event"",""trial"",""time""
""fullscreenenter"",""5"",""15441""
","
","
","""event"",""trial"",""time""
""fullscreenenter"",""5"",""15441""
","
",NA,images/earth.jpg,NA,NA,NA,NA,NA,NA,NA,NA,NA,NA,NA,NA,NA,fixation,NA,NA,NA,NA,NA,NA,sub143
d3-animate-choice,106,482512,0.0-61.0-0.15,FALSE,FALSE,TRUE,TRUE,"""event"",""trial"",""time""
""fullscreenenter"",""5"",""15441""
","
","
","""event"",""trial"",""time""
""fullscreenenter"",""5"",""15441""
","
",403.6449999548495,NA,48,NA,NA,3000,1,NA,NA,images/earth.jpg,images/tutrocket1,images/tutrocket2,null,images/tutrocket1,NA,1,practice,null,2,NA,NA,NA,sub143
d3-animate-choice,107,485489,0.0-61.0-1.15,FALSE,FALSE,TRUE,TRUE,"""event"",""trial"",""time""
""fullscreenenter"",""5"",""15441""
","
","
","""event"",""trial"",""time""
""fullscreenenter"",""5"",""15441""
","
",969.1600000951439,NA,49,NA,NA,3000,1,NA,NA,images/tutyellowplanet.jpg,images/tutalien4,images/tutalien3,images/tutrocket1,images/tutalien3,images/t.png,2,practice,true,1,common,1,2020-07-02T12:28:57Z,sub143
two-step-fixation,108,486497,0.0-61.0-2.15,FALSE,FALSE,TRUE,TRUE,"""event"",""trial"",""time""
""fullscreenenter"",""5"",""15441""
","
","
","""event"",""trial"",""time""
""fullscreenenter"",""5"",""15441""
","
",NA,images/earth.jpg,NA,NA,NA,NA,NA,NA,NA,NA,NA,NA,NA,NA,NA,fixation,NA,NA,NA,NA,NA,NA,sub143
d3-animate-choice,109,489513,0.0-61.0-0.16,FALSE,FALSE,TRUE,TRUE,"""event"",""trial"",""time""
""fullscreenenter"",""5"",""15441""
","
","
","""event"",""trial"",""time""
""fullscreenenter"",""5"",""15441""
","
",1008.3600000943989,NA,49,NA,NA,3000,1,NA,NA,images/earth.jpg,images/tutrocket1,images/tutrocket2,null,images/tutrocket2,NA,1,practice,null,1,NA,NA,NA,sub143
d3-animate-choice,110,492510,0.0-61.0-1.16,FALSE,FALSE,TRUE,TRUE,"""event"",""trial"",""time""
""fullscreenenter"",""5"",""15441""
","
","
","""event"",""trial"",""time""
""fullscreenenter"",""5"",""15441""
","
",989.5999999716878,NA,48,NA,NA,3000,1,NA,NA,images/tutgreenplanet.jpg,images/tutalien2,images/tutalien1,images/tutrocket2,images/tutalien2,images/nothing.png,2,practice,true,2,common,0,2020-07-02T12:29:04Z,sub143
two-step-fixation,111,493518,0.0-61.0-2.16,FALSE,FALSE,TRUE,TRUE,"""event"",""trial"",""time""
""fullscreenenter"",""5"",""15441""
","
","
","""event"",""trial"",""time""
""fullscreenenter"",""5"",""15441""
","
",NA,images/earth.jpg,NA,NA,NA,NA,NA,NA,NA,NA,NA,NA,NA,NA,NA,fixation,NA,NA,NA,NA,NA,NA,sub143
d3-animate-choice,112,495929,0.0-61.0-0.17,FALSE,FALSE,TRUE,TRUE,"""event"",""trial"",""time""
""fullscreenenter"",""5"",""15441""
","
","
","""event"",""trial"",""time""
""fullscreenenter"",""5"",""15441""
","
",403.5350000485778,NA,48,NA,NA,3000,1,NA,NA,images/earth.jpg,images/tutrocket1,images/tutrocket2,null,images/tutrocket1,NA,1,practice,null,2,NA,NA,NA,sub143
d3-animate-choice,113,498926,0.0-61.0-1.17,FALSE,FALSE,TRUE,TRUE,"""event"",""trial"",""time""
""fullscreenenter"",""5"",""15441""
","
","
","""event"",""trial"",""time""
""fullscreenenter"",""5"",""15441""
","
",992.8649999201298,NA,48,NA,NA,3000,1,NA,NA,images/tutyellowplanet.jpg,images/tutalien4,images/tutalien3,images/tutrocket1,images/tutalien4,images/nothing.png,2,practice,true,2,common,0,2020-07-02T12:29:10Z,sub143
two-step-fixation,114,499934,0.0-61.0-2.17,FALSE,FALSE,TRUE,TRUE,"""event"",""trial"",""time""
""fullscreenenter"",""5"",""15441""
","
","
","""event"",""trial"",""time""
""fullscreenenter"",""5"",""15441""
","
",NA,images/earth.jpg,NA,NA,NA,NA,NA,NA,NA,NA,NA,NA,NA,NA,NA,fixation,NA,NA,NA,NA,NA,NA,sub143
d3-animate-choice,115,502229,0.0-61.0-0.18,FALSE,FALSE,TRUE,TRUE,"""event"",""trial"",""time""
""fullscreenenter"",""5"",""15441""
","
","
","""event"",""trial"",""time""
""fullscreenenter"",""5"",""15441""
","
",286.31999995559454,NA,49,NA,NA,3000,1,NA,NA,images/earth.jpg,images/tutrocket1,images/tutrocket2,null,images/tutrocket2,NA,1,practice,null,1,NA,NA,NA,sub143
d3-animate-choice,116,505238,0.0-61.0-1.18,FALSE,FALSE,TRUE,TRUE,"""event"",""trial"",""time""
""fullscreenenter"",""5"",""15441""
","
","
","""event"",""trial"",""time""
""fullscreenenter"",""5"",""15441""
","
",1000.4499999340624,NA,48,NA,NA,3000,1,NA,NA,images/tutgreenplanet.jpg,images/tutalien2,images/tutalien1,images/tutrocket2,images/tutalien2,images/nothing.png,2,practice,true,2,common,0,2020-07-02T12:29:17Z,sub143
two-step-fixation,117,506247,0.0-61.0-2.18,FALSE,FALSE,TRUE,TRUE,"""event"",""trial"",""time""
""fullscreenenter"",""5"",""15441""
","
","
","""event"",""trial"",""time""
""fullscreenenter"",""5"",""15441""
","
",NA,images/earth.jpg,NA,NA,NA,NA,NA,NA,NA,NA,NA,NA,NA,NA,NA,fixation,NA,NA,NA,NA,NA,NA,sub143
d3-animate-choice,118,509551,0.0-61.0-0.19,FALSE,FALSE,TRUE,TRUE,"""event"",""trial"",""time""
""fullscreenenter"",""5"",""15441""
","
","
","""event"",""trial"",""time""
""fullscreenenter"",""5"",""15441""
","
",1294.0050000324845,NA,49,NA,NA,3000,1,NA,NA,images/earth.jpg,images/tutrocket1,images/tutrocket2,null,images/tutrocket2,NA,1,practice,null,1,NA,NA,NA,sub143
d3-animate-choice,119,511985,0.0-61.0-1.19,FALSE,FALSE,TRUE,TRUE,"""event"",""trial"",""time""
""fullscreenenter"",""5"",""15441""
","
","
","""event"",""trial"",""time""
""fullscreenenter"",""5"",""15441""
","
",424.95999997481704,NA,49,NA,NA,3000,1,NA,NA,images/tutgreenplanet.jpg,images/tutalien2,images/tutalien1,images/tutrocket2,images/tutalien1,images/nothing.png,2,practice,true,1,common,0,2020-07-02T12:29:24Z,sub143
two-step-fixation,120,512993,0.0-61.0-2.19,FALSE,FALSE,TRUE,TRUE,"""event"",""trial"",""time""
""fullscreenenter"",""5"",""15441""
","
","
","""event"",""trial"",""time""
""fullscreenenter"",""5"",""15441""
","
",NA,images/earth.jpg,NA,NA,NA,NA,NA,NA,NA,NA,NA,NA,NA,NA,NA,fixation,NA,NA,NA,NA,NA,NA,sub143
d3-instructions,121,519750,0.0-62.0,FALSE,FALSE,TRUE,TRUE,"""event"",""trial"",""time""
""fullscreenenter"",""5"",""15441""
","
","
","""event"",""trial"",""time""
""fullscreenenter"",""5"",""15441""
","
",NA,NA,NA,NA,NA,NA,NA,NA,NA,NA,NA,NA,NA,NA,NA,NA,NA,NA,NA,NA,NA,NA,sub143
audio-keyboard-response,122,521983,0.0-63.0,FALSE,FALSE,TRUE,TRUE,"""event"",""trial"",""time""
""fullscreenenter"",""5"",""15441""
","
","
","""event"",""trial"",""time""
""fullscreenenter"",""5"",""15441""
","
",2219,audio/instructions/treasure_feedback.wav,32,NA,NA,NA,NA,NA,NA,NA,NA,NA,NA,NA,NA,NA,NA,NA,NA,NA,NA,NA,sub143
d3-instructions,123,541051,0.0-64.0,FALSE,FALSE,TRUE,TRUE,"""event"",""trial"",""time""
""fullscreenenter"",""5"",""15441""
","
","
","""event"",""trial"",""time""
""fullscreenenter"",""5"",""15441""
","
",NA,NA,NA,NA,NA,NA,NA,NA,NA,NA,NA,NA,NA,NA,NA,NA,NA,NA,NA,NA,NA,NA,sub143
d3-instructions,124,555111,0.0-65.0,FALSE,FALSE,TRUE,TRUE,"""event"",""trial"",""time""
""fullscreenenter"",""5"",""15441""
","
","
","""event"",""trial"",""time""
""fullscreenenter"",""5"",""15441""
","
",NA,NA,NA,NA,NA,NA,NA,NA,NA,NA,NA,NA,NA,NA,NA,NA,NA,NA,NA,NA,NA,NA,sub143
d3-instructions,125,582057,0.0-66.0,FALSE,FALSE,TRUE,TRUE,"""event"",""trial"",""time""
""fullscreenenter"",""5"",""15441""
","
","
","""event"",""trial"",""time""
""fullscreenenter"",""5"",""15441""
","
",NA,NA,NA,NA,NA,NA,NA,NA,NA,NA,NA,NA,NA,NA,NA,NA,NA,NA,NA,NA,NA,NA,sub143
d3-instructions,126,597646,0.0-67.0,FALSE,FALSE,TRUE,TRUE,"""event"",""trial"",""time""
""fullscreenenter"",""5"",""15441""
","
","
","""event"",""trial"",""time""
""fullscreenenter"",""5"",""15441""
","
",NA,NA,NA,NA,NA,NA,NA,NA,NA,NA,NA,NA,NA,NA,NA,NA,NA,NA,NA,NA,NA,NA,sub143
d3-instructions,127,603940,0.0-68.0,FALSE,FALSE,TRUE,TRUE,"""event"",""trial"",""time""
""fullscreenenter"",""5"",""15441""
","
","
","""event"",""trial"",""time""
""fullscreenenter"",""5"",""15441""
","
",NA,NA,NA,NA,NA,NA,NA,NA,NA,NA,NA,NA,NA,NA,NA,NA,NA,NA,NA,NA,NA,NA,sub143
instructions-quiz,128,606391,0.0-69.0,FALSE,FALSE,TRUE,TRUE,"""event"",""trial"",""time""
""fullscreenenter"",""5"",""15441""
","
","
","""event"",""trial"",""time""
""fullscreenenter"",""5"",""15441""
","
",2447.0850001089275,audio/quiz/Q1_Prompt.wav,NA,1,NA,NA,NA,NA,NA,NA,NA,NA,NA,NA,NA,NA,NA,NA,NA,NA,NA,NA,sub143
audio-keyboard-response,129,615564,0.0-70.0,FALSE,FALSE,TRUE,TRUE,"""event"",""trial"",""time""
""fullscreenenter"",""5"",""15441""
","
","
","""event"",""trial"",""time""
""fullscreenenter"",""5"",""15441""
","
",null,audio/quiz/Q1_Correct.wav,null,NA,NA,NA,NA,NA,NA,NA,NA,NA,NA,NA,NA,NA,NA,NA,NA,NA,NA,NA,sub143
instructions-quiz,130,619699,0.0-71.0,FALSE,FALSE,TRUE,TRUE,"""event"",""trial"",""time""
""fullscreenenter"",""5"",""15441""
","
","
","""event"",""trial"",""time""
""fullscreenenter"",""5"",""15441""
","
",4132.074999855831,audio/quiz/Q2_Prompt.wav,NA,0,NA,NA,NA,NA,NA,NA,NA,NA,NA,NA,NA,NA,NA,NA,NA,NA,NA,NA,sub143
audio-keyboard-response,131,622178,0.0-72.0,FALSE,FALSE,TRUE,TRUE,"""event"",""trial"",""time""
""fullscreenenter"",""5"",""15441""
","
","
","""event"",""trial"",""time""
""fullscreenenter"",""5"",""15441""
","
",2480,audio/quiz/Q2_Correct.wav,32,NA,NA,NA,NA,NA,NA,NA,NA,NA,NA,NA,NA,NA,NA,NA,NA,NA,NA,NA,sub143
instructions-quiz,132,625153,0.0-73.0,FALSE,FALSE,TRUE,TRUE,"""event"",""trial"",""time""
""fullscreenenter"",""5"",""15441""
","
","
","""event"",""trial"",""time""
""fullscreenenter"",""5"",""15441""
","
",2972.7650000713766,audio/quiz/Q3_Prompt.wav,NA,1,NA,NA,NA,NA,NA,NA,NA,NA,NA,NA,NA,NA,NA,NA,NA,NA,NA,NA,sub143
audio-keyboard-response,133,626075,0.0-74.0,FALSE,FALSE,TRUE,TRUE,"""event"",""trial"",""time""
""fullscreenenter"",""5"",""15441""
","
","
","""event"",""trial"",""time""
""fullscreenenter"",""5"",""15441""
","
",920,audio/quiz/Q3_Correct.wav,32,NA,NA,NA,NA,NA,NA,NA,NA,NA,NA,NA,NA,NA,NA,NA,NA,NA,NA,NA,sub143
d3-instructions,134,638613,0.0-75.0,FALSE,FALSE,TRUE,TRUE,"""event"",""trial"",""time""
""fullscreenenter"",""5"",""15441""
","
","
","""event"",""trial"",""time""
""fullscreenenter"",""5"",""15441""
","
",NA,NA,NA,NA,NA,NA,NA,NA,NA,NA,NA,NA,NA,NA,NA,NA,NA,NA,NA,NA,NA,NA,sub143
d3-animate-choice,135,641338,0.0-76.0-0.0,FALSE,FALSE,TRUE,TRUE,"""event"",""trial"",""time""
""fullscreenenter"",""5"",""15441""
","
","
","""event"",""trial"",""time""
""fullscreenenter"",""5"",""15441""
","
",720.0500001199543,NA,49,NA,NA,3000,1,NA,NA,images/earth.jpg,images/rocket1,images/rocket2,null,images/rocket2,NA,1,real,null,1,NA,NA,NA,sub143
d3-animate-choice,136,644292,0.0-76.0-1.0,FALSE,FALSE,TRUE,TRUE,"""event"",""trial"",""time""
""fullscreenenter"",""5"",""15441""
","
","
","""event"",""trial"",""time""
""fullscreenenter"",""5"",""15441""
","
",947.6850000210106,NA,49,NA,NA,3000,1,NA,NA,images/redplanet1.jpg,images/alien2,images/alien1,images/rocket2,images/alien1,images/nothing.png,2,real,true,1,common,0,2020-07-02T12:31:36Z,sub143
two-step-fixation,137,645299,0.0-76.0-2.0,FALSE,FALSE,TRUE,TRUE,"""event"",""trial"",""time""
""fullscreenenter"",""5"",""15441""
","
","
","""event"",""trial"",""time""
""fullscreenenter"",""5"",""15441""
","
",NA,images/earth.jpg,NA,NA,NA,NA,NA,NA,NA,NA,NA,NA,NA,NA,NA,fixation,NA,NA,NA,NA,NA,NA,sub143
d3-animate-choice,138,647674,0.0-76.0-0.1,FALSE,FALSE,TRUE,TRUE,"""event"",""trial"",""time""
""fullscreenenter"",""5"",""15441""
","
","
","""event"",""trial"",""time""
""fullscreenenter"",""5"",""15441""
","
",366.7299998924136,NA,49,NA,NA,3000,1,NA,NA,images/earth.jpg,images/rocket1,images/rocket2,null,images/rocket2,NA,1,real,null,1,NA,NA,NA,sub143
d3-animate-choice,139,650708,0.0-76.0-1.1,FALSE,FALSE,TRUE,TRUE,"""event"",""trial"",""time""
""fullscreenenter"",""5"",""15441""
","
","
","""event"",""trial"",""time""
""fullscreenenter"",""5"",""15441""
","
",1027.1250000223517,NA,49,NA,NA,3000,1,NA,NA,images/redplanet1.jpg,images/alien2,images/alien1,images/rocket2,images/alien1,images/nothing.png,2,real,true,1,common,0,2020-07-02T12:31:42Z,sub143
two-step-fixation,140,651715,0.0-76.0-2.1,FALSE,FALSE,TRUE,TRUE,"""event"",""trial"",""time""
""fullscreenenter"",""5"",""15441""
","
","
","""event"",""trial"",""time""
""fullscreenenter"",""5"",""15441""
","
",NA,images/earth.jpg,NA,NA,NA,NA,NA,NA,NA,NA,NA,NA,NA,NA,NA,fixation,NA,NA,NA,NA,NA,NA,sub143
d3-animate-choice,141,654112,0.0-76.0-0.2,FALSE,FALSE,TRUE,TRUE,"""event"",""trial"",""time""
""fullscreenenter"",""5"",""15441""
","
","
","""event"",""trial"",""time""
""fullscreenenter"",""5"",""15441""
","
",389.9749999400228,NA,49,NA,NA,3000,1,NA,NA,images/earth.jpg,images/rocket1,images/rocket2,null,images/rocket2,NA,1,real,null,1,NA,NA,NA,sub143
d3-animate-choice,142,656588,0.0-76.0-1.2,FALSE,FALSE,TRUE,TRUE,"""event"",""trial"",""time""
""fullscreenenter"",""5"",""15441""
","
","
","""event"",""trial"",""time""
""fullscreenenter"",""5"",""15441""
","
",466.4700001012534,NA,48,NA,NA,3000,1,NA,NA,images/redplanet1.jpg,images/alien2,images/alien1,images/rocket2,images/alien2,images/nothing.png,2,real,true,2,common,0,2020-07-02T12:31:48Z,sub143
two-step-fixation,143,657596,0.0-76.0-2.2,FALSE,FALSE,TRUE,TRUE,"""event"",""trial"",""time""
""fullscreenenter"",""5"",""15441""
","
","
","""event"",""trial"",""time""
""fullscreenenter"",""5"",""15441""
","
",NA,images/earth.jpg,NA,NA,NA,NA,NA,NA,NA,NA,NA,NA,NA,NA,NA,fixation,NA,NA,NA,NA,NA,NA,sub143
d3-animate-choice,144,659903,0.0-76.0-0.3,FALSE,FALSE,TRUE,TRUE,"""event"",""trial"",""time""
""fullscreenenter"",""5"",""15441""
","
","
","""event"",""trial"",""time""
""fullscreenenter"",""5"",""15441""
","
",299.6149999089539,NA,49,NA,NA,3000,1,NA,NA,images/earth.jpg,images/rocket1,images/rocket2,null,images/rocket2,NA,1,real,null,1,NA,NA,NA,sub143
d3-animate-choice,145,662373,0.0-76.0-1.3,FALSE,FALSE,TRUE,TRUE,"""event"",""trial"",""time""
""fullscreenenter"",""5"",""15441""
","
","
","""event"",""trial"",""time""
""fullscreenenter"",""5"",""15441""
","
",461.6300000343472,NA,48,NA,NA,3000,1,NA,NA,images/redplanet1.jpg,images/alien2,images/alien1,images/rocket2,images/alien2,images/t.png,2,real,true,2,common,1,2020-07-02T12:31:54Z,sub143
two-step-fixation,146,663379,0.0-76.0-2.3,FALSE,FALSE,TRUE,TRUE,"""event"",""trial"",""time""
""fullscreenenter"",""5"",""15441""
","
","
","""event"",""trial"",""time""
""fullscreenenter"",""5"",""15441""
","
",NA,images/earth.jpg,NA,NA,NA,NA,NA,NA,NA,NA,NA,NA,NA,NA,NA,fixation,NA,NA,NA,NA,NA,NA,sub143
d3-animate-choice,147,665695,0.0-76.0-0.4,FALSE,FALSE,TRUE,TRUE,"""event"",""trial"",""time""
""fullscreenenter"",""5"",""15441""
","
","
","""event"",""trial"",""time""
""fullscreenenter"",""5"",""15441""
","
",308.4400000516325,NA,49,NA,NA,3000,1,NA,NA,images/earth.jpg,images/rocket1,images/rocket2,null,images/rocket2,NA,1,real,null,1,NA,NA,NA,sub143
d3-animate-choice,148,668029,0.0-76.0-1.4,FALSE,FALSE,TRUE,TRUE,"""event"",""trial"",""time""
""fullscreenenter"",""5"",""15441""
","
","
","""event"",""trial"",""time""
""fullscreenenter"",""5"",""15441""
","
",327.55999988876283,NA,48,NA,NA,3000,1,NA,NA,images/purpleplanet.jpg,images/alien4,images/alien3,images/rocket2,images/alien4,images/nothing.png,2,real,false,2,rare,0,2020-07-02T12:32:00Z,sub143
two-step-fixation,149,669033,0.0-76.0-2.4,FALSE,FALSE,TRUE,TRUE,"""event"",""trial"",""time""
""fullscreenenter"",""5"",""15441""
","
","
","""event"",""trial"",""time""
""fullscreenenter"",""5"",""15441""
","
",NA,images/earth.jpg,NA,NA,NA,NA,NA,NA,NA,NA,NA,NA,NA,NA,NA,fixation,NA,NA,NA,NA,NA,NA,sub143
d3-animate-choice,150,671692,0.0-76.0-0.5,FALSE,FALSE,TRUE,TRUE,"""event"",""trial"",""time""
""fullscreenenter"",""5"",""15441""
","
","
","""event"",""trial"",""time""
""fullscreenenter"",""5"",""15441""
","
",648.5749999992549,NA,49,NA,NA,3000,1,NA,NA,images/earth.jpg,images/rocket1,images/rocket2,null,images/rocket2,NA,1,real,null,1,NA,NA,NA,sub143
d3-animate-choice,151,674919,0.0-76.0-1.5,FALSE,FALSE,TRUE,TRUE,"""event"",""trial"",""time""
""fullscreenenter"",""5"",""15441""
","
","
","""event"",""trial"",""time""
""fullscreenenter"",""5"",""15441""
","
",1218.174999812618,NA,48,NA,NA,3000,1,NA,NA,images/purpleplanet.jpg,images/alien4,images/alien3,images/rocket2,images/alien4,images/nothing.png,2,real,false,2,rare,0,2020-07-02T12:32:06Z,sub143
two-step-fixation,152,675926,0.0-76.0-2.5,FALSE,FALSE,TRUE,TRUE,"""event"",""trial"",""time""
""fullscreenenter"",""5"",""15441""
","
","
","""event"",""trial"",""time""
""fullscreenenter"",""5"",""15441""
","
",NA,images/earth.jpg,NA,NA,NA,NA,NA,NA,NA,NA,NA,NA,NA,NA,NA,fixation,NA,NA,NA,NA,NA,NA,sub143
d3-animate-choice,153,678267,0.0-76.0-0.6,FALSE,FALSE,TRUE,TRUE,"""event"",""trial"",""time""
""fullscreenenter"",""5"",""15441""
","
","
","""event"",""trial"",""time""
""fullscreenenter"",""5"",""15441""
","
",331.609999993816,NA,49,NA,NA,3000,1,NA,NA,images/earth.jpg,images/rocket1,images/rocket2,null,images/rocket2,NA,1,real,null,1,NA,NA,NA,sub143
d3-animate-choice,154,681074,0.0-76.0-1.6,FALSE,FALSE,TRUE,TRUE,"""event"",""trial"",""time""
""fullscreenenter"",""5"",""15441""
","
","
","""event"",""trial"",""time""
""fullscreenenter"",""5"",""15441""
","
",800.0100001227111,NA,48,NA,NA,3000,1,NA,NA,images/redplanet1.jpg,images/alien2,images/alien1,images/rocket2,images/alien2,images/t.png,2,real,true,2,common,1,2020-07-02T12:32:13Z,sub143
two-step-fixation,155,682081,0.0-76.0-2.6,FALSE,FALSE,TRUE,TRUE,"""event"",""trial"",""time""
""fullscreenenter"",""5"",""15441""
","
","
","""event"",""trial"",""time""
""fullscreenenter"",""5"",""15441""
","
",NA,images/earth.jpg,NA,NA,NA,NA,NA,NA,NA,NA,NA,NA,NA,NA,NA,fixation,NA,NA,NA,NA,NA,NA,sub143
d3-animate-choice,156,684414,0.0-76.0-0.7,FALSE,FALSE,TRUE,TRUE,"""event"",""trial"",""time""
""fullscreenenter"",""5"",""15441""
","
","
","""event"",""trial"",""time""
""fullscreenenter"",""5"",""15441""
","
",327.7700000908226,NA,49,NA,NA,3000,1,NA,NA,images/earth.jpg,images/rocket1,images/rocket2,null,images/rocket2,NA,1,real,null,1,NA,NA,NA,sub143
d3-animate-choice,157,687432,0.0-76.0-1.7,FALSE,FALSE,TRUE,TRUE,"""event"",""trial"",""time""
""fullscreenenter"",""5"",""15441""
","
","
","""event"",""trial"",""time""
""fullscreenenter"",""5"",""15441""
","
",1010.5250000488013,NA,49,NA,NA,3000,1,NA,NA,images/purpleplanet.jpg,images/alien4,images/alien3,images/rocket2,images/alien3,images/t.png,2,real,false,1,rare,1,2020-07-02T12:32:19Z,sub143
two-step-fixation,158,688440,0.0-76.0-2.7,FALSE,FALSE,TRUE,TRUE,"""event"",""trial"",""time""
""fullscreenenter"",""5"",""15441""
","
","
","""event"",""trial"",""time""
""fullscreenenter"",""5"",""15441""
","
",NA,images/earth.jpg,NA,NA,NA,NA,NA,NA,NA,NA,NA,NA,NA,NA,NA,fixation,NA,NA,NA,NA,NA,NA,sub143
d3-animate-choice,159,690819,0.0-76.0-0.8,FALSE,FALSE,TRUE,TRUE,"""event"",""trial"",""time""
""fullscreenenter"",""5"",""15441""
","
","
","""event"",""trial"",""time""
""fullscreenenter"",""5"",""15441""
","
",370.75000000186265,NA,49,NA,NA,3000,1,NA,NA,images/earth.jpg,images/rocket1,images/rocket2,null,images/rocket2,NA,1,real,null,1,NA,NA,NA,sub143
d3-animate-choice,160,693573,0.0-76.0-1.8,FALSE,FALSE,TRUE,TRUE,"""event"",""trial"",""time""
""fullscreenenter"",""5"",""15441""
","
","
","""event"",""trial"",""time""
""fullscreenenter"",""5"",""15441""
","
",740.8799999393523,NA,49,NA,NA,3000,1,NA,NA,images/purpleplanet.jpg,images/alien4,images/alien3,images/rocket2,images/alien3,images/nothing.png,2,real,false,1,rare,0,2020-07-02T12:32:25Z,sub143
two-step-fixation,161,694581,0.0-76.0-2.8,FALSE,FALSE,TRUE,TRUE,"""event"",""trial"",""time""
""fullscreenenter"",""5"",""15441""
","
","
","""event"",""trial"",""time""
""fullscreenenter"",""5"",""15441""
","
",NA,images/earth.jpg,NA,NA,NA,NA,NA,NA,NA,NA,NA,NA,NA,NA,NA,fixation,NA,NA,NA,NA,NA,NA,sub143
d3-animate-choice,162,696912,0.0-76.0-0.9,FALSE,FALSE,TRUE,TRUE,"""event"",""trial"",""time""
""fullscreenenter"",""5"",""15441""
","
","
","""event"",""trial"",""time""
""fullscreenenter"",""5"",""15441""
","
",322.9750001337379,NA,49,NA,NA,3000,1,NA,NA,images/earth.jpg,images/rocket1,images/rocket2,null,images/rocket2,NA,1,real,null,1,NA,NA,NA,sub143
d3-animate-choice,163,699554,0.0-76.0-1.9,FALSE,FALSE,TRUE,TRUE,"""event"",""trial"",""time""
""fullscreenenter"",""5"",""15441""
","
","
","""event"",""trial"",""time""
""fullscreenenter"",""5"",""15441""
","
",634.0499999932945,NA,48,NA,NA,3000,1,NA,NA,images/redplanet1.jpg,images/alien2,images/alien1,images/rocket2,images/alien2,images/t.png,2,real,true,2,common,1,2020-07-02T12:32:31Z,sub143
two-step-fixation,164,700560,0.0-76.0-2.9,FALSE,FALSE,TRUE,TRUE,"""event"",""trial"",""time""
""fullscreenenter"",""5"",""15441""
","
","
","""event"",""trial"",""time""
""fullscreenenter"",""5"",""15441""
","
",NA,images/earth.jpg,NA,NA,NA,NA,NA,NA,NA,NA,NA,NA,NA,NA,NA,fixation,NA,NA,NA,NA,NA,NA,sub143
d3-animate-choice,165,702922,0.0-76.0-0.10,FALSE,FALSE,TRUE,TRUE,"""event"",""trial"",""time""
""fullscreenenter"",""5"",""15441""
","
","
","""event"",""trial"",""time""
""fullscreenenter"",""5"",""15441""
","
",353.0850000679493,NA,49,NA,NA,3000,1,NA,NA,images/earth.jpg,images/rocket1,images/rocket2,null,images/rocket2,NA,1,real,null,1,NA,NA,NA,sub143
d3-animate-choice,166,705443,0.0-76.0-1.10,FALSE,FALSE,TRUE,TRUE,"""event"",""trial"",""time""
""fullscreenenter"",""5"",""15441""
","
","
","""event"",""trial"",""time""
""fullscreenenter"",""5"",""15441""
","
",513.065000064671,NA,48,NA,NA,3000,1,NA,NA,images/redplanet1.jpg,images/alien2,images/alien1,images/rocket2,images/alien2,images/t.png,2,real,true,2,common,1,2020-07-02T12:32:37Z,sub143
two-step-fixation,167,706451,0.0-76.0-2.10,FALSE,FALSE,TRUE,TRUE,"""event"",""trial"",""time""
""fullscreenenter"",""5"",""15441""
","
","
","""event"",""trial"",""time""
""fullscreenenter"",""5"",""15441""
","
",NA,images/earth.jpg,NA,NA,NA,NA,NA,NA,NA,NA,NA,NA,NA,NA,NA,fixation,NA,NA,NA,NA,NA,NA,sub143
d3-animate-choice,168,708800,0.0-76.0-0.11,FALSE,FALSE,TRUE,TRUE,"""event"",""trial"",""time""
""fullscreenenter"",""5"",""15441""
","
","
","""event"",""trial"",""time""
""fullscreenenter"",""5"",""15441""
","
",341.98000002652407,NA,49,NA,NA,3000,1,NA,NA,images/earth.jpg,images/rocket1,images/rocket2,null,images/rocket2,NA,1,real,null,1,NA,NA,NA,sub143
d3-animate-choice,169,711464,0.0-76.0-1.11,FALSE,FALSE,TRUE,TRUE,"""event"",""trial"",""time""
""fullscreenenter"",""5"",""15441""
","
","
","""event"",""trial"",""time""
""fullscreenenter"",""5"",""15441""
","
",655.3349997848272,NA,48,NA,NA,3000,1,NA,NA,images/redplanet1.jpg,images/alien2,images/alien1,images/rocket2,images/alien2,images/t.png,2,real,true,2,common,1,2020-07-02T12:32:43Z,sub143
two-step-fixation,170,712472,0.0-76.0-2.11,FALSE,FALSE,TRUE,TRUE,"""event"",""trial"",""time""
""fullscreenenter"",""5"",""15441""
","
","
","""event"",""trial"",""time""
""fullscreenenter"",""5"",""15441""
","
",NA,images/earth.jpg,NA,NA,NA,NA,NA,NA,NA,NA,NA,NA,NA,NA,NA,fixation,NA,NA,NA,NA,NA,NA,sub143
d3-animate-choice,171,714524,0.0-76.0-0.12,FALSE,FALSE,TRUE,TRUE,"""event"",""trial"",""time""
""fullscreenenter"",""5"",""15441""
","
","
","""event"",""trial"",""time""
""fullscreenenter"",""5"",""15441""
","
",44.96499989181757,NA,49,NA,NA,3000,1,NA,NA,images/earth.jpg,images/rocket1,images/rocket2,null,images/rocket2,NA,1,real,null,1,NA,NA,NA,sub143
d3-animate-choice,172,717014,0.0-76.0-1.12,FALSE,FALSE,TRUE,TRUE,"""event"",""trial"",""time""
""fullscreenenter"",""5"",""15441""
","
","
","""event"",""trial"",""time""
""fullscreenenter"",""5"",""15441""
","
",480.49500002525747,NA,48,NA,NA,3000,1,NA,NA,images/redplanet1.jpg,images/alien2,images/alien1,images/rocket2,images/alien2,images/t.png,2,real,true,2,common,1,2020-07-02T12:32:49Z,sub143
two-step-fixation,173,718022,0.0-76.0-2.12,FALSE,FALSE,TRUE,TRUE,"""event"",""trial"",""time""
""fullscreenenter"",""5"",""15441""
","
","
","""event"",""trial"",""time""
""fullscreenenter"",""5"",""15441""
","
",NA,images/earth.jpg,NA,NA,NA,NA,NA,NA,NA,NA,NA,NA,NA,NA,NA,fixation,NA,NA,NA,NA,NA,NA,sub143
d3-animate-choice,174,720444,0.0-76.0-0.13,FALSE,FALSE,TRUE,TRUE,"""event"",""trial"",""time""
""fullscreenenter"",""5"",""15441""
","
","
","""event"",""trial"",""time""
""fullscreenenter"",""5"",""15441""
","
",413.8350000139326,NA,49,NA,NA,3000,1,NA,NA,images/earth.jpg,images/rocket1,images/rocket2,null,images/rocket2,NA,1,real,null,1,NA,NA,NA,sub143
d3-animate-choice,175,723177,0.0-76.0-1.13,FALSE,FALSE,TRUE,TRUE,"""event"",""trial"",""time""
""fullscreenenter"",""5"",""15441""
","
","
","""event"",""trial"",""time""
""fullscreenenter"",""5"",""15441""
","
",724.1249999497086,NA,49,NA,NA,3000,1,NA,NA,images/purpleplanet.jpg,images/alien4,images/alien3,images/rocket2,images/alien3,images/t.png,2,real,false,1,rare,1,2020-07-02T12:32:55Z,sub143
two-step-fixation,176,724184,0.0-76.0-2.13,FALSE,FALSE,TRUE,TRUE,"""event"",""trial"",""time""
""fullscreenenter"",""5"",""15441""
","
","
","""event"",""trial"",""time""
""fullscreenenter"",""5"",""15441""
","
",NA,images/earth.jpg,NA,NA,NA,NA,NA,NA,NA,NA,NA,NA,NA,NA,NA,fixation,NA,NA,NA,NA,NA,NA,sub143
d3-animate-choice,177,726547,0.0-76.0-0.14,FALSE,FALSE,TRUE,TRUE,"""event"",""trial"",""time""
""fullscreenenter"",""5"",""15441""
","
","
","""event"",""trial"",""time""
""fullscreenenter"",""5"",""15441""
","
",354.0000000502914,NA,49,NA,NA,3000,1,NA,NA,images/earth.jpg,images/rocket1,images/rocket2,null,images/rocket2,NA,1,real,null,1,NA,NA,NA,sub143
d3-animate-choice,178,729215,0.0-76.0-1.14,FALSE,FALSE,TRUE,TRUE,"""event"",""trial"",""time""
""fullscreenenter"",""5"",""15441""
","
","
","""event"",""trial"",""time""
""fullscreenenter"",""5"",""15441""
","
",660.2450001519173,NA,48,NA,NA,3000,1,NA,NA,images/redplanet1.jpg,images/alien2,images/alien1,images/rocket2,images/alien2,images/t.png,2,real,true,2,common,1,2020-07-02T12:33:01Z,sub143
two-step-fixation,179,730223,0.0-76.0-2.14,FALSE,FALSE,TRUE,TRUE,"""event"",""trial"",""time""
""fullscreenenter"",""5"",""15441""
","
","
","""event"",""trial"",""time""
""fullscreenenter"",""5"",""15441""
","
",NA,images/earth.jpg,NA,NA,NA,NA,NA,NA,NA,NA,NA,NA,NA,NA,NA,fixation,NA,NA,NA,NA,NA,NA,sub143
d3-animate-choice,180,732544,0.0-76.0-0.15,FALSE,FALSE,TRUE,TRUE,"""event"",""trial"",""time""
""fullscreenenter"",""5"",""15441""
","
","
","""event"",""trial"",""time""
""fullscreenenter"",""5"",""15441""
","
",312.60499986819923,NA,49,NA,NA,3000,1,NA,NA,images/earth.jpg,images/rocket1,images/rocket2,null,images/rocket2,NA,1,real,null,1,NA,NA,NA,sub143
d3-animate-choice,181,735179,0.0-76.0-1.15,FALSE,FALSE,TRUE,TRUE,"""event"",""trial"",""time""
""fullscreenenter"",""5"",""15441""
","
","
","""event"",""trial"",""time""
""fullscreenenter"",""5"",""15441""
","
",626.3299998827279,NA,48,NA,NA,3000,1,NA,NA,images/redplanet1.jpg,images/alien2,images/alien1,images/rocket2,images/alien2,images/nothing.png,2,real,true,2,common,0,2020-07-02T12:33:07Z,sub143
two-step-fixation,182,736186,0.0-76.0-2.15,FALSE,FALSE,TRUE,TRUE,"""event"",""trial"",""time""
""fullscreenenter"",""5"",""15441""
","
","
","""event"",""trial"",""time""
""fullscreenenter"",""5"",""15441""
","
",NA,images/earth.jpg,NA,NA,NA,NA,NA,NA,NA,NA,NA,NA,NA,NA,NA,fixation,NA,NA,NA,NA,NA,NA,sub143
d3-animate-choice,183,738621,0.0-76.0-0.16,FALSE,FALSE,TRUE,TRUE,"""event"",""trial"",""time""
""fullscreenenter"",""5"",""15441""
","
","
","""event"",""trial"",""time""
""fullscreenenter"",""5"",""15441""
","
",426.3899999205023,NA,49,NA,NA,3000,1,NA,NA,images/earth.jpg,images/rocket1,images/rocket2,null,images/rocket2,NA,1,real,null,1,NA,NA,NA,sub143
d3-animate-choice,184,741518,0.0-76.0-1.16,FALSE,FALSE,TRUE,TRUE,"""event"",""trial"",""time""
""fullscreenenter"",""5"",""15441""
","
","
","""event"",""trial"",""time""
""fullscreenenter"",""5"",""15441""
","
",889.3649999517947,NA,49,NA,NA,3000,1,NA,NA,images/purpleplanet.jpg,images/alien4,images/alien3,images/rocket2,images/alien3,images/nothing.png,2,real,false,1,rare,0,2020-07-02T12:33:13Z,sub143
two-step-fixation,185,742526,0.0-76.0-2.16,FALSE,FALSE,TRUE,TRUE,"""event"",""trial"",""time""
""fullscreenenter"",""5"",""15441""
","
","
","""event"",""trial"",""time""
""fullscreenenter"",""5"",""15441""
","
",NA,images/earth.jpg,NA,NA,NA,NA,NA,NA,NA,NA,NA,NA,NA,NA,NA,fixation,NA,NA,NA,NA,NA,NA,sub143
d3-animate-choice,186,744892,0.0-76.0-0.17,FALSE,FALSE,TRUE,TRUE,"""event"",""trial"",""time""
""fullscreenenter"",""5"",""15441""
","
","
","""event"",""trial"",""time""
""fullscreenenter"",""5"",""15441""
","
",358.50999993272126,NA,49,NA,NA,3000,1,NA,NA,images/earth.jpg,images/rocket1,images/rocket2,null,images/rocket2,NA,1,real,null,1,NA,NA,NA,sub143
d3-animate-choice,187,747502,0.0-76.0-1.17,FALSE,FALSE,TRUE,TRUE,"""event"",""trial"",""time""
""fullscreenenter"",""5"",""15441""
","
","
","""event"",""trial"",""time""
""fullscreenenter"",""5"",""15441""
","
",602.8199999127537,NA,48,NA,NA,3000,1,NA,NA,images/redplanet1.jpg,images/alien2,images/alien1,images/rocket2,images/alien2,images/t.png,2,real,true,2,common,1,2020-07-02T12:33:19Z,sub143
two-step-fixation,188,748507,0.0-76.0-2.17,FALSE,FALSE,TRUE,TRUE,"""event"",""trial"",""time""
""fullscreenenter"",""5"",""15441""
","
","
","""event"",""trial"",""time""
""fullscreenenter"",""5"",""15441""
","
",NA,images/earth.jpg,NA,NA,NA,NA,NA,NA,NA,NA,NA,NA,NA,NA,NA,fixation,NA,NA,NA,NA,NA,NA,sub143
d3-animate-choice,189,750860,0.0-76.0-0.18,FALSE,FALSE,TRUE,TRUE,"""event"",""trial"",""time""
""fullscreenenter"",""5"",""15441""
","
","
","""event"",""trial"",""time""
""fullscreenenter"",""5"",""15441""
","
",347.4749999586493,NA,49,NA,NA,3000,1,NA,NA,images/earth.jpg,images/rocket1,images/rocket2,null,images/rocket2,NA,1,real,null,1,NA,NA,NA,sub143
d3-animate-choice,190,753562,0.0-76.0-1.18,FALSE,FALSE,TRUE,TRUE,"""event"",""trial"",""time""
""fullscreenenter"",""5"",""15441""
","
","
","""event"",""trial"",""time""
""fullscreenenter"",""5"",""15441""
","
",693.7549998983741,NA,49,NA,NA,3000,1,NA,NA,images/purpleplanet.jpg,images/alien4,images/alien3,images/rocket2,images/alien3,images/nothing.png,2,real,false,1,rare,0,2020-07-02T12:33:25Z,sub143
two-step-fixation,191,754570,0.0-76.0-2.18,FALSE,FALSE,TRUE,TRUE,"""event"",""trial"",""time""
""fullscreenenter"",""5"",""15441""
","
","
","""event"",""trial"",""time""
""fullscreenenter"",""5"",""15441""
","
",NA,images/earth.jpg,NA,NA,NA,NA,NA,NA,NA,NA,NA,NA,NA,NA,NA,fixation,NA,NA,NA,NA,NA,NA,sub143
d3-animate-choice,192,756923,0.0-76.0-0.19,FALSE,FALSE,TRUE,TRUE,"""event"",""trial"",""time""
""fullscreenenter"",""5"",""15441""
","
","
","""event"",""trial"",""time""
""fullscreenenter"",""5"",""15441""
","
",345.53999989293516,NA,49,NA,NA,3000,1,NA,NA,images/earth.jpg,images/rocket1,images/rocket2,null,images/rocket2,NA,1,real,null,1,NA,NA,NA,sub143
d3-animate-choice,193,759375,0.0-76.0-1.19,FALSE,FALSE,TRUE,TRUE,"""event"",""trial"",""time""
""fullscreenenter"",""5"",""15441""
","
","
","""event"",""trial"",""time""
""fullscreenenter"",""5"",""15441""
","
",444.1150000784546,NA,48,NA,NA,3000,1,NA,NA,images/redplanet1.jpg,images/alien2,images/alien1,images/rocket2,images/alien2,images/nothing.png,2,real,true,2,common,0,2020-07-02T12:33:31Z,sub143
two-step-fixation,194,760383,0.0-76.0-2.19,FALSE,FALSE,TRUE,TRUE,"""event"",""trial"",""time""
""fullscreenenter"",""5"",""15441""
","
","
","""event"",""trial"",""time""
""fullscreenenter"",""5"",""15441""
","
",NA,images/earth.jpg,NA,NA,NA,NA,NA,NA,NA,NA,NA,NA,NA,NA,NA,fixation,NA,NA,NA,NA,NA,NA,sub143
d3-animate-choice,195,762705,0.0-76.0-0.20,FALSE,FALSE,TRUE,TRUE,"""event"",""trial"",""time""
""fullscreenenter"",""5"",""15441""
","
","
","""event"",""trial"",""time""
""fullscreenenter"",""5"",""15441""
","
",313.64499987103045,NA,49,NA,NA,3000,1,NA,NA,images/earth.jpg,images/rocket1,images/rocket2,null,images/rocket2,NA,1,real,null,1,NA,NA,NA,sub143
d3-animate-choice,196,765304,0.0-76.0-1.20,FALSE,FALSE,TRUE,TRUE,"""event"",""trial"",""time""
""fullscreenenter"",""5"",""15441""
","
","
","""event"",""trial"",""time""
""fullscreenenter"",""5"",""15441""
","
",591.5349998977035,NA,48,NA,NA,3000,1,NA,NA,images/purpleplanet.jpg,images/alien4,images/alien3,images/rocket2,images/alien4,images/nothing.png,2,real,false,2,rare,0,2020-07-02T12:33:37Z,sub143
two-step-fixation,197,766312,0.0-76.0-2.20,FALSE,FALSE,TRUE,TRUE,"""event"",""trial"",""time""
""fullscreenenter"",""5"",""15441""
","
","
","""event"",""trial"",""time""
""fullscreenenter"",""5"",""15441""
","
",NA,images/earth.jpg,NA,NA,NA,NA,NA,NA,NA,NA,NA,NA,NA,NA,NA,fixation,NA,NA,NA,NA,NA,NA,sub143
d3-animate-choice,198,768584,0.0-76.0-0.21,FALSE,FALSE,TRUE,TRUE,"""event"",""trial"",""time""
""fullscreenenter"",""5"",""15441""
","
","
","""event"",""trial"",""time""
""fullscreenenter"",""5"",""15441""
","
",263.3399998303503,NA,49,NA,NA,3000,1,NA,NA,images/earth.jpg,images/rocket1,images/rocket2,null,images/rocket2,NA,1,real,null,1,NA,NA,NA,sub143
d3-animate-choice,199,771119,0.0-76.0-1.21,FALSE,FALSE,TRUE,TRUE,"""event"",""trial"",""time""
""fullscreenenter"",""5"",""15441""
","
","
","""event"",""trial"",""time""
""fullscreenenter"",""5"",""15441""
","
",527.0099998451769,NA,48,NA,NA,3000,1,NA,NA,images/redplanet1.jpg,images/alien2,images/alien1,images/rocket2,images/alien2,images/nothing.png,2,real,true,2,common,0,2020-07-02T12:33:43Z,sub143
two-step-fixation,200,772126,0.0-76.0-2.21,FALSE,FALSE,TRUE,TRUE,"""event"",""trial"",""time""
""fullscreenenter"",""5"",""15441""
","
","
","""event"",""trial"",""time""
""fullscreenenter"",""5"",""15441""
","
",NA,images/earth.jpg,NA,NA,NA,NA,NA,NA,NA,NA,NA,NA,NA,NA,NA,fixation,NA,NA,NA,NA,NA,NA,sub143
d3-animate-choice,201,774443,0.0-76.0-0.22,FALSE,FALSE,TRUE,TRUE,"""event"",""trial"",""time""
""fullscreenenter"",""5"",""15441""
","
","
","""event"",""trial"",""time""
""fullscreenenter"",""5"",""15441""
","
",309.2100000940263,NA,49,NA,NA,3000,1,NA,NA,images/earth.jpg,images/rocket1,images/rocket2,null,images/rocket2,NA,1,real,null,1,NA,NA,NA,sub143
d3-animate-choice,202,776875,0.0-76.0-1.22,FALSE,FALSE,TRUE,TRUE,"""event"",""trial"",""time""
""fullscreenenter"",""5"",""15441""
","
","
","""event"",""trial"",""time""
""fullscreenenter"",""5"",""15441""
","
",423.8599999807775,NA,49,NA,NA,3000,1,NA,NA,images/redplanet1.jpg,images/alien2,images/alien1,images/rocket2,images/alien1,images/t.png,2,real,true,1,common,1,2020-07-02T12:33:48Z,sub143
two-step-fixation,203,777882,0.0-76.0-2.22,FALSE,FALSE,TRUE,TRUE,"""event"",""trial"",""time""
""fullscreenenter"",""5"",""15441""
","
","
","""event"",""trial"",""time""
""fullscreenenter"",""5"",""15441""
","
",NA,images/earth.jpg,NA,NA,NA,NA,NA,NA,NA,NA,NA,NA,NA,NA,NA,fixation,NA,NA,NA,NA,NA,NA,sub143
d3-animate-choice,204,780216,0.0-76.0-0.23,FALSE,FALSE,TRUE,TRUE,"""event"",""trial"",""time""
""fullscreenenter"",""5"",""15441""
","
","
","""event"",""trial"",""time""
""fullscreenenter"",""5"",""15441""
","
",325.999999884516,NA,49,NA,NA,3000,1,NA,NA,images/earth.jpg,images/rocket1,images/rocket2,null,images/rocket2,NA,1,real,null,1,NA,NA,NA,sub143
d3-animate-choice,205,782921,0.0-76.0-1.23,FALSE,FALSE,TRUE,TRUE,"""event"",""trial"",""time""
""fullscreenenter"",""5"",""15441""
","
","
","""event"",""trial"",""time""
""fullscreenenter"",""5"",""15441""
","
",696.9250000547618,NA,49,NA,NA,3000,1,NA,NA,images/redplanet1.jpg,images/alien2,images/alien1,images/rocket2,images/alien1,images/nothing.png,2,real,true,1,common,0,2020-07-02T12:33:54Z,sub143
two-step-fixation,206,783929,0.0-76.0-2.23,FALSE,FALSE,TRUE,TRUE,"""event"",""trial"",""time""
""fullscreenenter"",""5"",""15441""
","
","
","""event"",""trial"",""time""
""fullscreenenter"",""5"",""15441""
","
",NA,images/earth.jpg,NA,NA,NA,NA,NA,NA,NA,NA,NA,NA,NA,NA,NA,fixation,NA,NA,NA,NA,NA,NA,sub143
d3-animate-choice,207,786329,0.0-76.0-0.24,FALSE,FALSE,TRUE,TRUE,"""event"",""trial"",""time""
""fullscreenenter"",""5"",""15441""
","
","
","""event"",""trial"",""time""
""fullscreenenter"",""5"",""15441""
","
",390.3650001157075,NA,49,NA,NA,3000,1,NA,NA,images/earth.jpg,images/rocket1,images/rocket2,null,images/rocket2,NA,1,real,null,1,NA,NA,NA,sub143
d3-animate-choice,208,789535,0.0-76.0-1.24,FALSE,FALSE,TRUE,TRUE,"""event"",""trial"",""time""
""fullscreenenter"",""5"",""15441""
","
","
","""event"",""trial"",""time""
""fullscreenenter"",""5"",""15441""
","
",1197.7199998218566,NA,48,NA,NA,3000,1,NA,NA,images/purpleplanet.jpg,images/alien4,images/alien3,images/rocket2,images/alien4,images/nothing.png,2,real,false,2,rare,0,2020-07-02T12:34:01Z,sub143
two-step-fixation,209,790542,0.0-76.0-2.24,FALSE,FALSE,TRUE,TRUE,"""event"",""trial"",""time""
""fullscreenenter"",""5"",""15441""
","
","
","""event"",""trial"",""time""
""fullscreenenter"",""5"",""15441""
","
",NA,images/earth.jpg,NA,NA,NA,NA,NA,NA,NA,NA,NA,NA,NA,NA,NA,fixation,NA,NA,NA,NA,NA,NA,sub143
d3-animate-choice,210,792861,0.0-76.0-0.25,FALSE,FALSE,TRUE,TRUE,"""event"",""trial"",""time""
""fullscreenenter"",""5"",""15441""
","
","
","""event"",""trial"",""time""
""fullscreenenter"",""5"",""15441""
","
",309.37499995343387,NA,49,NA,NA,3000,1,NA,NA,images/earth.jpg,images/rocket1,images/rocket2,null,images/rocket2,NA,1,real,null,1,NA,NA,NA,sub143
d3-animate-choice,211,795261,0.0-76.0-1.25,FALSE,FALSE,TRUE,TRUE,"""event"",""trial"",""time""
""fullscreenenter"",""5"",""15441""
","
","
","""event"",""trial"",""time""
""fullscreenenter"",""5"",""15441""
","
",391.8800000101328,NA,49,NA,NA,3000,1,NA,NA,images/redplanet1.jpg,images/alien2,images/alien1,images/rocket2,images/alien1,images/nothing.png,2,real,true,1,common,0,2020-07-02T12:34:07Z,sub143
two-step-fixation,212,796270,0.0-76.0-2.25,FALSE,FALSE,TRUE,TRUE,"""event"",""trial"",""time""
""fullscreenenter"",""5"",""15441""
","
","
","""event"",""trial"",""time""
""fullscreenenter"",""5"",""15441""
","
",NA,images/earth.jpg,NA,NA,NA,NA,NA,NA,NA,NA,NA,NA,NA,NA,NA,fixation,NA,NA,NA,NA,NA,NA,sub143
d3-animate-choice,213,798636,0.0-76.0-0.26,FALSE,FALSE,TRUE,TRUE,"""event"",""trial"",""time""
""fullscreenenter"",""5"",""15441""
","
","
","""event"",""trial"",""time""
""fullscreenenter"",""5"",""15441""
","
",356.69999988749623,NA,49,NA,NA,3000,1,NA,NA,images/earth.jpg,images/rocket1,images/rocket2,null,images/rocket2,NA,1,real,null,1,NA,NA,NA,sub143
d3-animate-choice,214,801666,0.0-76.0-1.26,FALSE,FALSE,TRUE,TRUE,"""event"",""trial"",""time""
""fullscreenenter"",""5"",""15441""
","
","
","""event"",""trial"",""time""
""fullscreenenter"",""5"",""15441""
","
",1022.1849998924881,NA,49,NA,NA,3000,1,NA,NA,images/purpleplanet.jpg,images/alien4,images/alien3,images/rocket2,images/alien3,images/nothing.png,2,real,false,1,rare,0,2020-07-02T12:34:13Z,sub143
two-step-fixation,215,802675,0.0-76.0-2.26,FALSE,FALSE,TRUE,TRUE,"""event"",""trial"",""time""
""fullscreenenter"",""5"",""15441""
","
","
","""event"",""trial"",""time""
""fullscreenenter"",""5"",""15441""
","
",NA,images/earth.jpg,NA,NA,NA,NA,NA,NA,NA,NA,NA,NA,NA,NA,NA,fixation,NA,NA,NA,NA,NA,NA,sub143
d3-animate-choice,216,805010,0.0-76.0-0.27,FALSE,FALSE,TRUE,TRUE,"""event"",""trial"",""time""
""fullscreenenter"",""5"",""15441""
","
","
","""event"",""trial"",""time""
""fullscreenenter"",""5"",""15441""
","
",326.85500010848045,NA,49,NA,NA,3000,1,NA,NA,images/earth.jpg,images/rocket1,images/rocket2,null,images/rocket2,NA,1,real,null,1,NA,NA,NA,sub143
d3-animate-choice,217,807415,0.0-76.0-1.27,FALSE,FALSE,TRUE,TRUE,"""event"",""trial"",""time""
""fullscreenenter"",""5"",""15441""
","
","
","""event"",""trial"",""time""
""fullscreenenter"",""5"",""15441""
","
",396.7949999496341,NA,48,NA,NA,3000,1,NA,NA,images/redplanet1.jpg,images/alien2,images/alien1,images/rocket2,images/alien2,images/t.png,2,real,true,2,common,1,2020-07-02T12:34:19Z,sub143
two-step-fixation,218,808422,0.0-76.0-2.27,FALSE,FALSE,TRUE,TRUE,"""event"",""trial"",""time""
""fullscreenenter"",""5"",""15441""
","
","
","""event"",""trial"",""time""
""fullscreenenter"",""5"",""15441""
","
",NA,images/earth.jpg,NA,NA,NA,NA,NA,NA,NA,NA,NA,NA,NA,NA,NA,fixation,NA,NA,NA,NA,NA,NA,sub143
d3-animate-choice,219,810765,0.0-76.0-0.28,FALSE,FALSE,TRUE,TRUE,"""event"",""trial"",""time""
""fullscreenenter"",""5"",""15441""
","
","
","""event"",""trial"",""time""
""fullscreenenter"",""5"",""15441""
","
",335.63499990850687,NA,49,NA,NA,3000,1,NA,NA,images/earth.jpg,images/rocket1,images/rocket2,null,images/rocket2,NA,1,real,null,1,NA,NA,NA,sub143
d3-animate-choice,220,813433,0.0-76.0-1.28,FALSE,FALSE,TRUE,TRUE,"""event"",""trial"",""time""
""fullscreenenter"",""5"",""15441""
","
","
","""event"",""trial"",""time""
""fullscreenenter"",""5"",""15441""
","
",659.5799999777228,NA,48,NA,NA,3000,1,NA,NA,images/redplanet1.jpg,images/alien2,images/alien1,images/rocket2,images/alien2,images/t.png,2,real,true,2,common,1,2020-07-02T12:34:25Z,sub143
two-step-fixation,221,814441,0.0-76.0-2.28,FALSE,FALSE,TRUE,TRUE,"""event"",""trial"",""time""
""fullscreenenter"",""5"",""15441""
","
","
","""event"",""trial"",""time""
""fullscreenenter"",""5"",""15441""
","
",NA,images/earth.jpg,NA,NA,NA,NA,NA,NA,NA,NA,NA,NA,NA,NA,NA,fixation,NA,NA,NA,NA,NA,NA,sub143
d3-animate-choice,222,816803,0.0-76.0-0.29,FALSE,FALSE,TRUE,TRUE,"""event"",""trial"",""time""
""fullscreenenter"",""5"",""15441""
","
","
","""event"",""trial"",""time""
""fullscreenenter"",""5"",""15441""
","
",353.1299999449402,NA,49,NA,NA,3000,1,NA,NA,images/earth.jpg,images/rocket1,images/rocket2,null,images/rocket2,NA,1,real,null,1,NA,NA,NA,sub143
d3-animate-choice,223,819952,0.0-76.0-1.29,FALSE,FALSE,TRUE,TRUE,"""event"",""trial"",""time""
""fullscreenenter"",""5"",""15441""
","
","
","""event"",""trial"",""time""
""fullscreenenter"",""5"",""15441""
","
",1143.5899999924004,NA,49,NA,NA,3000,1,NA,NA,images/purpleplanet.jpg,images/alien4,images/alien3,images/rocket2,images/alien3,images/nothing.png,2,real,false,1,rare,0,2020-07-02T12:34:31Z,sub143
two-step-fixation,224,820959,0.0-76.0-2.29,FALSE,FALSE,TRUE,TRUE,"""event"",""trial"",""time""
""fullscreenenter"",""5"",""15441""
","
","
","""event"",""trial"",""time""
""fullscreenenter"",""5"",""15441""
","
",NA,images/earth.jpg,NA,NA,NA,NA,NA,NA,NA,NA,NA,NA,NA,NA,NA,fixation,NA,NA,NA,NA,NA,NA,sub143
d3-animate-choice,225,823260,0.0-76.0-0.30,FALSE,FALSE,TRUE,TRUE,"""event"",""trial"",""time""
""fullscreenenter"",""5"",""15441""
","
","
","""event"",""trial"",""time""
""fullscreenenter"",""5"",""15441""
","
",292.6700001116842,NA,49,NA,NA,3000,1,NA,NA,images/earth.jpg,images/rocket1,images/rocket2,null,images/rocket2,NA,1,real,null,1,NA,NA,NA,sub143
d3-animate-choice,226,825844,0.0-76.0-1.30,FALSE,FALSE,TRUE,TRUE,"""event"",""trial"",""time""
""fullscreenenter"",""5"",""15441""
","
","
","""event"",""trial"",""time""
""fullscreenenter"",""5"",""15441""
","
",575.3500000573695,NA,48,NA,NA,3000,1,NA,NA,images/redplanet1.jpg,images/alien2,images/alien1,images/rocket2,images/alien2,images/t.png,2,real,true,2,common,1,2020-07-02T12:34:37Z,sub143
two-step-fixation,227,826851,0.0-76.0-2.30,FALSE,FALSE,TRUE,TRUE,"""event"",""trial"",""time""
""fullscreenenter"",""5"",""15441""
","
","
","""event"",""trial"",""time""
""fullscreenenter"",""5"",""15441""
","
",NA,images/earth.jpg,NA,NA,NA,NA,NA,NA,NA,NA,NA,NA,NA,NA,NA,fixation,NA,NA,NA,NA,NA,NA,sub143
d3-animate-choice,228,829151,0.0-76.0-0.31,FALSE,FALSE,TRUE,TRUE,"""event"",""trial"",""time""
""fullscreenenter"",""5"",""15441""
","
","
","""event"",""trial"",""time""
""fullscreenenter"",""5"",""15441""
","
",291.0749998409301,NA,49,NA,NA,3000,1,NA,NA,images/earth.jpg,images/rocket1,images/rocket2,null,images/rocket2,NA,1,real,null,1,NA,NA,NA,sub143
d3-animate-choice,229,832796,0.0-76.0-1.31,FALSE,FALSE,TRUE,TRUE,"""event"",""trial"",""time""
""fullscreenenter"",""5"",""15441""
","
","
","""event"",""trial"",""time""
""fullscreenenter"",""5"",""15441""
","
",1635.950000025332,NA,48,NA,NA,3000,1,NA,NA,images/purpleplanet.jpg,images/alien4,images/alien3,images/rocket2,images/alien4,images/t.png,2,real,false,2,rare,1,2020-07-02T12:34:44Z,sub143
two-step-fixation,230,833804,0.0-76.0-2.31,FALSE,FALSE,TRUE,TRUE,"""event"",""trial"",""time""
""fullscreenenter"",""5"",""15441""
","
","
","""event"",""trial"",""time""
""fullscreenenter"",""5"",""15441""
","
",NA,images/earth.jpg,NA,NA,NA,NA,NA,NA,NA,NA,NA,NA,NA,NA,NA,fixation,NA,NA,NA,NA,NA,NA,sub143
d3-animate-choice,231,836147,0.0-76.0-0.32,FALSE,FALSE,TRUE,TRUE,"""event"",""trial"",""time""
""fullscreenenter"",""5"",""15441""
","
","
","""event"",""trial"",""time""
""fullscreenenter"",""5"",""15441""
","
",335.21499997004867,NA,49,NA,NA,3000,1,NA,NA,images/earth.jpg,images/rocket1,images/rocket2,null,images/rocket2,NA,1,real,null,1,NA,NA,NA,sub143
d3-animate-choice,232,838560,0.0-76.0-1.32,FALSE,FALSE,TRUE,TRUE,"""event"",""trial"",""time""
""fullscreenenter"",""5"",""15441""
","
","
","""event"",""trial"",""time""
""fullscreenenter"",""5"",""15441""
","
",404.82000005431473,NA,48,NA,NA,3000,1,NA,NA,images/redplanet1.jpg,images/alien2,images/alien1,images/rocket2,images/alien2,images/t.png,2,real,true,2,common,1,2020-07-02T12:34:50Z,sub143
two-step-fixation,233,839569,0.0-76.0-2.32,FALSE,FALSE,TRUE,TRUE,"""event"",""trial"",""time""
""fullscreenenter"",""5"",""15441""
","
","
","""event"",""trial"",""time""
""fullscreenenter"",""5"",""15441""
","
",NA,images/earth.jpg,NA,NA,NA,NA,NA,NA,NA,NA,NA,NA,NA,NA,NA,fixation,NA,NA,NA,NA,NA,NA,sub143
d3-animate-choice,234,841916,0.0-76.0-0.33,FALSE,FALSE,TRUE,TRUE,"""event"",""trial"",""time""
""fullscreenenter"",""5"",""15441""
","
","
","""event"",""trial"",""time""
""fullscreenenter"",""5"",""15441""
","
",339.51999992132187,NA,49,NA,NA,3000,1,NA,NA,images/earth.jpg,images/rocket1,images/rocket2,null,images/rocket2,NA,1,real,null,1,NA,NA,NA,sub143
d3-animate-choice,235,844419,0.0-76.0-1.33,FALSE,FALSE,TRUE,TRUE,"""event"",""trial"",""time""
""fullscreenenter"",""5"",""15441""
","
","
","""event"",""trial"",""time""
""fullscreenenter"",""5"",""15441""
","
",493.7700000591576,NA,48,NA,NA,3000,1,NA,NA,images/redplanet1.jpg,images/alien2,images/alien1,images/rocket2,images/alien2,images/t.png,2,real,true,2,common,1,2020-07-02T12:34:56Z,sub143
two-step-fixation,236,845429,0.0-76.0-2.33,FALSE,FALSE,TRUE,TRUE,"""event"",""trial"",""time""
""fullscreenenter"",""5"",""15441""
","
","
","""event"",""trial"",""time""
""fullscreenenter"",""5"",""15441""
","
",NA,images/earth.jpg,NA,NA,NA,NA,NA,NA,NA,NA,NA,NA,NA,NA,NA,fixation,NA,NA,NA,NA,NA,NA,sub143
d3-animate-choice,237,847793,0.0-76.0-0.34,FALSE,FALSE,TRUE,TRUE,"""event"",""trial"",""time""
""fullscreenenter"",""5"",""15441""
","
","
","""event"",""trial"",""time""
""fullscreenenter"",""5"",""15441""
","
",353.43499993905425,NA,49,NA,NA,3000,1,NA,NA,images/earth.jpg,images/rocket1,images/rocket2,null,images/rocket2,NA,1,real,null,1,NA,NA,NA,sub143
d3-animate-choice,238,850219,0.0-76.0-1.34,FALSE,FALSE,TRUE,TRUE,"""event"",""trial"",""time""
""fullscreenenter"",""5"",""15441""
","
","
","""event"",""trial"",""time""
""fullscreenenter"",""5"",""15441""
","
",419.4700000807643,NA,48,NA,NA,3000,1,NA,NA,images/redplanet1.jpg,images/alien2,images/alien1,images/rocket2,images/alien2,images/nothing.png,2,real,true,2,common,0,2020-07-02T12:35:02Z,sub143
two-step-fixation,239,851227,0.0-76.0-2.34,FALSE,FALSE,TRUE,TRUE,"""event"",""trial"",""time""
""fullscreenenter"",""5"",""15441""
","
","
","""event"",""trial"",""time""
""fullscreenenter"",""5"",""15441""
","
",NA,images/earth.jpg,NA,NA,NA,NA,NA,NA,NA,NA,NA,NA,NA,NA,NA,fixation,NA,NA,NA,NA,NA,NA,sub143
d3-animate-choice,240,853508,0.0-76.0-0.35,FALSE,FALSE,TRUE,TRUE,"""event"",""trial"",""time""
""fullscreenenter"",""5"",""15441""
","
","
","""event"",""trial"",""time""
""fullscreenenter"",""5"",""15441""
","
",272.4150000140071,NA,49,NA,NA,3000,1,NA,NA,images/earth.jpg,images/rocket1,images/rocket2,null,images/rocket2,NA,1,real,null,1,NA,NA,NA,sub143
d3-animate-choice,241,856535,0.0-76.0-1.35,FALSE,FALSE,TRUE,TRUE,"""event"",""trial"",""time""
""fullscreenenter"",""5"",""15441""
","
","
","""event"",""trial"",""time""
""fullscreenenter"",""5"",""15441""
","
",1017.8499999456108,NA,48,NA,NA,3000,1,NA,NA,images/purpleplanet.jpg,images/alien4,images/alien3,images/rocket2,images/alien4,images/nothing.png,2,real,false,2,rare,0,2020-07-02T12:35:08Z,sub143
two-step-fixation,242,857542,0.0-76.0-2.35,FALSE,FALSE,TRUE,TRUE,"""event"",""trial"",""time""
""fullscreenenter"",""5"",""15441""
","
","
","""event"",""trial"",""time""
""fullscreenenter"",""5"",""15441""
","
",NA,images/earth.jpg,NA,NA,NA,NA,NA,NA,NA,NA,NA,NA,NA,NA,NA,fixation,NA,NA,NA,NA,NA,NA,sub143
d3-animate-choice,243,859858,0.0-76.0-0.36,FALSE,FALSE,TRUE,TRUE,"""event"",""trial"",""time""
""fullscreenenter"",""5"",""15441""
","
","
","""event"",""trial"",""time""
""fullscreenenter"",""5"",""15441""
","
",306.74499995075166,NA,49,NA,NA,3000,1,NA,NA,images/earth.jpg,images/rocket1,images/rocket2,null,images/rocket2,NA,1,real,null,1,NA,NA,NA,sub143
d3-animate-choice,244,863262,0.0-76.0-1.36,FALSE,FALSE,TRUE,TRUE,"""event"",""trial"",""time""
""fullscreenenter"",""5"",""15441""
","
","
","""event"",""trial"",""time""
""fullscreenenter"",""5"",""15441""
","
",1396.279999986291,NA,48,NA,NA,3000,1,NA,NA,images/purpleplanet.jpg,images/alien4,images/alien3,images/rocket2,images/alien4,images/nothing.png,2,real,false,2,rare,0,2020-07-02T12:35:15Z,sub143
two-step-fixation,245,864270,0.0-76.0-2.36,FALSE,FALSE,TRUE,TRUE,"""event"",""trial"",""time""
""fullscreenenter"",""5"",""15441""
","
","
","""event"",""trial"",""time""
""fullscreenenter"",""5"",""15441""
","
",NA,images/earth.jpg,NA,NA,NA,NA,NA,NA,NA,NA,NA,NA,NA,NA,NA,fixation,NA,NA,NA,NA,NA,NA,sub143
d3-animate-choice,246,866684,0.0-76.0-0.37,FALSE,FALSE,TRUE,TRUE,"""event"",""trial"",""time""
""fullscreenenter"",""5"",""15441""
","
","
","""event"",""trial"",""time""
""fullscreenenter"",""5"",""15441""
","
",406.4449998550117,NA,49,NA,NA,3000,1,NA,NA,images/earth.jpg,images/rocket1,images/rocket2,null,images/rocket2,NA,1,real,null,1,NA,NA,NA,sub143
d3-animate-choice,247,869257,0.0-76.0-1.37,FALSE,FALSE,TRUE,TRUE,"""event"",""trial"",""time""
""fullscreenenter"",""5"",""15441""
","
","
","""event"",""trial"",""time""
""fullscreenenter"",""5"",""15441""
","
",564.6849998738617,NA,48,NA,NA,3000,1,NA,NA,images/redplanet1.jpg,images/alien2,images/alien1,images/rocket2,images/alien2,images/t.png,2,real,true,2,common,1,2020-07-02T12:35:21Z,sub143
two-step-fixation,248,870264,0.0-76.0-2.37,FALSE,FALSE,TRUE,TRUE,"""event"",""trial"",""time""
""fullscreenenter"",""5"",""15441""
","
","
","""event"",""trial"",""time""
""fullscreenenter"",""5"",""15441""
","
",NA,images/earth.jpg,NA,NA,NA,NA,NA,NA,NA,NA,NA,NA,NA,NA,NA,fixation,NA,NA,NA,NA,NA,NA,sub143
d3-animate-choice,249,872649,0.0-76.0-0.38,FALSE,FALSE,TRUE,TRUE,"""event"",""trial"",""time""
""fullscreenenter"",""5"",""15441""
","
","
","""event"",""trial"",""time""
""fullscreenenter"",""5"",""15441""
","
",374.78499999269843,NA,49,NA,NA,3000,1,NA,NA,images/earth.jpg,images/rocket1,images/rocket2,null,images/rocket2,NA,1,real,null,1,NA,NA,NA,sub143
d3-animate-choice,250,875248,0.0-76.0-1.38,FALSE,FALSE,TRUE,TRUE,"""event"",""trial"",""time""
""fullscreenenter"",""5"",""15441""
","
","
","""event"",""trial"",""time""
""fullscreenenter"",""5"",""15441""
","
",591.7849999386817,NA,48,NA,NA,3000,1,NA,NA,images/redplanet1.jpg,images/alien2,images/alien1,images/rocket2,images/alien2,images/nothing.png,2,real,true,2,common,0,2020-07-02T12:35:27Z,sub143
two-step-fixation,251,876256,0.0-76.0-2.38,FALSE,FALSE,TRUE,TRUE,"""event"",""trial"",""time""
""fullscreenenter"",""5"",""15441""
","
","
","""event"",""trial"",""time""
""fullscreenenter"",""5"",""15441""
","
",NA,images/earth.jpg,NA,NA,NA,NA,NA,NA,NA,NA,NA,NA,NA,NA,NA,fixation,NA,NA,NA,NA,NA,NA,sub143
d3-animate-choice,252,878597,0.0-76.0-0.39,FALSE,FALSE,TRUE,TRUE,"""event"",""trial"",""time""
""fullscreenenter"",""5"",""15441""
","
","
","""event"",""trial"",""time""
""fullscreenenter"",""5"",""15441""
","
",331.96499990299344,NA,49,NA,NA,3000,1,NA,NA,images/earth.jpg,images/rocket1,images/rocket2,null,images/rocket2,NA,1,real,null,1,NA,NA,NA,sub143
d3-animate-choice,253,881451,0.0-76.0-1.39,FALSE,FALSE,TRUE,TRUE,"""event"",""trial"",""time""
""fullscreenenter"",""5"",""15441""
","
","
","""event"",""trial"",""time""
""fullscreenenter"",""5"",""15441""
","
",847.0950000919402,NA,48,NA,NA,3000,1,NA,NA,images/redplanet1.jpg,images/alien2,images/alien1,images/rocket2,images/alien2,images/t.png,2,real,true,2,common,1,2020-07-02T12:35:33Z,sub143
two-step-fixation,254,882459,0.0-76.0-2.39,FALSE,FALSE,TRUE,TRUE,"""event"",""trial"",""time""
""fullscreenenter"",""5"",""15441""
","
","
","""event"",""trial"",""time""
""fullscreenenter"",""5"",""15441""
","
",NA,images/earth.jpg,NA,NA,NA,NA,NA,NA,NA,NA,NA,NA,NA,NA,NA,fixation,NA,NA,NA,NA,NA,NA,sub143
d3-animate-choice,255,884771,0.0-76.0-0.40,FALSE,FALSE,TRUE,TRUE,"""event"",""trial"",""time""
""fullscreenenter"",""5"",""15441""
","
","
","""event"",""trial"",""time""
""fullscreenenter"",""5"",""15441""
","
",306.3550000078976,NA,49,NA,NA,3000,1,NA,NA,images/earth.jpg,images/rocket1,images/rocket2,null,images/rocket2,NA,1,real,null,1,NA,NA,NA,sub143
d3-animate-choice,256,887300,0.0-76.0-1.40,FALSE,FALSE,TRUE,TRUE,"""event"",""trial"",""time""
""fullscreenenter"",""5"",""15441""
","
","
","""event"",""trial"",""time""
""fullscreenenter"",""5"",""15441""
","
",524.2500000167638,NA,48,NA,NA,3000,1,NA,NA,images/redplanet1.jpg,images/alien2,images/alien1,images/rocket2,images/alien2,images/t.png,2,real,true,2,common,1,2020-07-02T12:35:39Z,sub143
two-step-fixation,257,888308,0.0-76.0-2.40,FALSE,FALSE,TRUE,TRUE,"""event"",""trial"",""time""
""fullscreenenter"",""5"",""15441""
","
","
","""event"",""trial"",""time""
""fullscreenenter"",""5"",""15441""
","
",NA,images/earth.jpg,NA,NA,NA,NA,NA,NA,NA,NA,NA,NA,NA,NA,NA,fixation,NA,NA,NA,NA,NA,NA,sub143
d3-animate-choice,258,890728,0.0-76.0-0.41,FALSE,FALSE,TRUE,TRUE,"""event"",""trial"",""time""
""fullscreenenter"",""5"",""15441""
","
","
","""event"",""trial"",""time""
""fullscreenenter"",""5"",""15441""
","
",412.48499997891486,NA,49,NA,NA,3000,1,NA,NA,images/earth.jpg,images/rocket1,images/rocket2,null,images/rocket2,NA,1,real,null,1,NA,NA,NA,sub143
d3-animate-choice,259,893258,0.0-76.0-1.41,FALSE,FALSE,TRUE,TRUE,"""event"",""trial"",""time""
""fullscreenenter"",""5"",""15441""
","
","
","""event"",""trial"",""time""
""fullscreenenter"",""5"",""15441""
","
",521.7699999921024,NA,48,NA,NA,3000,1,NA,NA,images/redplanet1.jpg,images/alien2,images/alien1,images/rocket2,images/alien2,images/nothing.png,2,real,true,2,common,0,2020-07-02T12:35:45Z,sub143
two-step-fixation,260,894266,0.0-76.0-2.41,FALSE,FALSE,TRUE,TRUE,"""event"",""trial"",""time""
""fullscreenenter"",""5"",""15441""
","
","
","""event"",""trial"",""time""
""fullscreenenter"",""5"",""15441""
","
",NA,images/earth.jpg,NA,NA,NA,NA,NA,NA,NA,NA,NA,NA,NA,NA,NA,fixation,NA,NA,NA,NA,NA,NA,sub143
d3-animate-choice,261,896669,0.0-76.0-0.42,FALSE,FALSE,TRUE,TRUE,"""event"",""trial"",""time""
""fullscreenenter"",""5"",""15441""
","
","
","""event"",""trial"",""time""
""fullscreenenter"",""5"",""15441""
","
",394.4549998268485,NA,49,NA,NA,3000,1,NA,NA,images/earth.jpg,images/rocket1,images/rocket2,null,images/rocket2,NA,1,real,null,1,NA,NA,NA,sub143
d3-animate-choice,262,899306,0.0-76.0-1.42,FALSE,FALSE,TRUE,TRUE,"""event"",""trial"",""time""
""fullscreenenter"",""5"",""15441""
","
","
","""event"",""trial"",""time""
""fullscreenenter"",""5"",""15441""
","
",628.8300000596792,NA,48,NA,NA,3000,1,NA,NA,images/redplanet1.jpg,images/alien2,images/alien1,images/rocket2,images/alien2,images/nothing.png,2,real,true,2,common,0,2020-07-02T12:35:51Z,sub143
two-step-fixation,263,900314,0.0-76.0-2.42,FALSE,FALSE,TRUE,TRUE,"""event"",""trial"",""time""
""fullscreenenter"",""5"",""15441""
","
","
","""event"",""trial"",""time""
""fullscreenenter"",""5"",""15441""
","
",NA,images/earth.jpg,NA,NA,NA,NA,NA,NA,NA,NA,NA,NA,NA,NA,NA,fixation,NA,NA,NA,NA,NA,NA,sub143
d3-animate-choice,264,902717,0.0-76.0-0.43,FALSE,FALSE,TRUE,TRUE,"""event"",""trial"",""time""
""fullscreenenter"",""5"",""15441""
","
","
","""event"",""trial"",""time""
""fullscreenenter"",""5"",""15441""
","
",395.0599997770041,NA,49,NA,NA,3000,1,NA,NA,images/earth.jpg,images/rocket1,images/rocket2,null,images/rocket2,NA,1,real,null,1,NA,NA,NA,sub143
d3-animate-choice,265,905259,0.0-76.0-1.43,FALSE,FALSE,TRUE,TRUE,"""event"",""trial"",""time""
""fullscreenenter"",""5"",""15441""
","
","
","""event"",""trial"",""time""
""fullscreenenter"",""5"",""15441""
","
",532.7800000086427,NA,48,NA,NA,3000,1,NA,NA,images/redplanet1.jpg,images/alien2,images/alien1,images/rocket2,images/alien2,images/t.png,2,real,true,2,common,1,2020-07-02T12:35:57Z,sub143
two-step-fixation,266,906266,0.0-76.0-2.43,FALSE,FALSE,TRUE,TRUE,"""event"",""trial"",""time""
""fullscreenenter"",""5"",""15441""
","
","
","""event"",""trial"",""time""
""fullscreenenter"",""5"",""15441""
","
",NA,images/earth.jpg,NA,NA,NA,NA,NA,NA,NA,NA,NA,NA,NA,NA,NA,fixation,NA,NA,NA,NA,NA,NA,sub143
d3-animate-choice,267,908613,0.0-76.0-0.44,FALSE,FALSE,TRUE,TRUE,"""event"",""trial"",""time""
""fullscreenenter"",""5"",""15441""
","
","
","""event"",""trial"",""time""
""fullscreenenter"",""5"",""15441""
","
",338.22000003419816,NA,49,NA,NA,3000,1,NA,NA,images/earth.jpg,images/rocket1,images/rocket2,null,images/rocket2,NA,1,real,null,1,NA,NA,NA,sub143
d3-animate-choice,268,911561,0.0-76.0-1.44,FALSE,FALSE,TRUE,TRUE,"""event"",""trial"",""time""
""fullscreenenter"",""5"",""15441""
","
","
","""event"",""trial"",""time""
""fullscreenenter"",""5"",""15441""
","
",940.3399999719113,NA,49,NA,NA,3000,1,NA,NA,images/purpleplanet.jpg,images/alien4,images/alien3,images/rocket2,images/alien3,images/nothing.png,2,real,false,1,rare,0,2020-07-02T12:36:03Z,sub143
two-step-fixation,269,912568,0.0-76.0-2.44,FALSE,FALSE,TRUE,TRUE,"""event"",""trial"",""time""
""fullscreenenter"",""5"",""15441""
","
","
","""event"",""trial"",""time""
""fullscreenenter"",""5"",""15441""
","
",NA,images/earth.jpg,NA,NA,NA,NA,NA,NA,NA,NA,NA,NA,NA,NA,NA,fixation,NA,NA,NA,NA,NA,NA,sub143
d3-animate-choice,270,914931,0.0-76.0-0.45,FALSE,FALSE,TRUE,TRUE,"""event"",""trial"",""time""
""fullscreenenter"",""5"",""15441""
","
","
","""event"",""trial"",""time""
""fullscreenenter"",""5"",""15441""
","
",353.1149998307228,NA,49,NA,NA,3000,1,NA,NA,images/earth.jpg,images/rocket1,images/rocket2,null,images/rocket2,NA,1,real,null,1,NA,NA,NA,sub143
d3-animate-choice,271,917475,0.0-76.0-1.45,FALSE,FALSE,TRUE,TRUE,"""event"",""trial"",""time""
""fullscreenenter"",""5"",""15441""
","
","
","""event"",""trial"",""time""
""fullscreenenter"",""5"",""15441""
","
",536.324999993667,NA,48,NA,NA,3000,1,NA,NA,images/redplanet1.jpg,images/alien2,images/alien1,images/rocket2,images/alien2,images/nothing.png,2,real,true,2,common,0,2020-07-02T12:36:09Z,sub143
two-step-fixation,272,918483,0.0-76.0-2.45,FALSE,FALSE,TRUE,TRUE,"""event"",""trial"",""time""
""fullscreenenter"",""5"",""15441""
","
","
","""event"",""trial"",""time""
""fullscreenenter"",""5"",""15441""
","
",NA,images/earth.jpg,NA,NA,NA,NA,NA,NA,NA,NA,NA,NA,NA,NA,NA,fixation,NA,NA,NA,NA,NA,NA,sub143
d3-animate-choice,273,920679,0.0-76.0-0.46,FALSE,FALSE,TRUE,TRUE,"""event"",""trial"",""time""
""fullscreenenter"",""5"",""15441""
","
","
","""event"",""trial"",""time""
""fullscreenenter"",""5"",""15441""
","
",187.70499993115664,NA,49,NA,NA,3000,1,NA,NA,images/earth.jpg,images/rocket1,images/rocket2,null,images/rocket2,NA,1,real,null,1,NA,NA,NA,sub143
d3-animate-choice,274,923081,0.0-76.0-1.46,FALSE,FALSE,TRUE,TRUE,"""event"",""trial"",""time""
""fullscreenenter"",""5"",""15441""
","
","
","""event"",""trial"",""time""
""fullscreenenter"",""5"",""15441""
","
",395.62000008299947,NA,49,NA,NA,3000,1,NA,NA,images/redplanet1.jpg,images/alien2,images/alien1,images/rocket2,images/alien1,images/nothing.png,2,real,true,1,common,0,2020-07-02T12:36:15Z,sub143
two-step-fixation,275,924086,0.0-76.0-2.46,FALSE,FALSE,TRUE,TRUE,"""event"",""trial"",""time""
""fullscreenenter"",""5"",""15441""
","
","
","""event"",""trial"",""time""
""fullscreenenter"",""5"",""15441""
","
",NA,images/earth.jpg,NA,NA,NA,NA,NA,NA,NA,NA,NA,NA,NA,NA,NA,fixation,NA,NA,NA,NA,NA,NA,sub143
d3-animate-choice,276,926433,0.0-76.0-0.47,FALSE,FALSE,TRUE,TRUE,"""event"",""trial"",""time""
""fullscreenenter"",""5"",""15441""
","
","
","""event"",""trial"",""time""
""fullscreenenter"",""5"",""15441""
","
",338.16000004298985,NA,49,NA,NA,3000,1,NA,NA,images/earth.jpg,images/rocket1,images/rocket2,null,images/rocket2,NA,1,real,null,1,NA,NA,NA,sub143
d3-animate-choice,277,928931,0.0-76.0-1.47,FALSE,FALSE,TRUE,TRUE,"""event"",""trial"",""time""
""fullscreenenter"",""5"",""15441""
","
","
","""event"",""trial"",""time""
""fullscreenenter"",""5"",""15441""
","
",490.5149999540299,NA,48,NA,NA,3000,1,NA,NA,images/redplanet1.jpg,images/alien2,images/alien1,images/rocket2,images/alien2,images/t.png,2,real,true,2,common,1,2020-07-02T12:36:20Z,sub143
two-step-fixation,278,929939,0.0-76.0-2.47,FALSE,FALSE,TRUE,TRUE,"""event"",""trial"",""time""
""fullscreenenter"",""5"",""15441""
","
","
","""event"",""trial"",""time""
""fullscreenenter"",""5"",""15441""
","
",NA,images/earth.jpg,NA,NA,NA,NA,NA,NA,NA,NA,NA,NA,NA,NA,NA,fixation,NA,NA,NA,NA,NA,NA,sub143
d3-animate-choice,279,932301,0.0-76.0-0.48,FALSE,FALSE,TRUE,TRUE,"""event"",""trial"",""time""
""fullscreenenter"",""5"",""15441""
","
","
","""event"",""trial"",""time""
""fullscreenenter"",""5"",""15441""
","
",354.0149999316782,NA,49,NA,NA,3000,1,NA,NA,images/earth.jpg,images/rocket1,images/rocket2,null,images/rocket2,NA,1,real,null,1,NA,NA,NA,sub143
d3-animate-choice,280,935606,0.0-76.0-1.48,FALSE,FALSE,TRUE,TRUE,"""event"",""trial"",""time""
""fullscreenenter"",""5"",""15441""
","
","
","""event"",""trial"",""time""
""fullscreenenter"",""5"",""15441""
","
",1294.834999833256,NA,49,NA,NA,3000,1,NA,NA,images/purpleplanet.jpg,images/alien4,images/alien3,images/rocket2,images/alien3,images/nothing.png,2,real,false,1,rare,0,2020-07-02T12:36:27Z,sub143
two-step-fixation,281,936614,0.0-76.0-2.48,FALSE,FALSE,TRUE,TRUE,"""event"",""trial"",""time""
""fullscreenenter"",""5"",""15441""
","
","
","""event"",""trial"",""time""
""fullscreenenter"",""5"",""15441""
","
",NA,images/earth.jpg,NA,NA,NA,NA,NA,NA,NA,NA,NA,NA,NA,NA,NA,fixation,NA,NA,NA,NA,NA,NA,sub143
d3-animate-choice,282,938963,0.0-76.0-0.49,FALSE,FALSE,TRUE,TRUE,"""event"",""trial"",""time""
""fullscreenenter"",""5"",""15441""
","
","
","""event"",""trial"",""time""
""fullscreenenter"",""5"",""15441""
","
",341.0450001247227,NA,49,NA,NA,3000,1,NA,NA,images/earth.jpg,images/rocket1,images/rocket2,null,images/rocket2,NA,1,real,null,1,NA,NA,NA,sub143
