trial_type,trial_index,time_elapsed,internal_node_id,rocket_sides,red_planet_first_rocket,red_display_order,purple_display_order,interactions,blur_events,focus_events,fullscreenenter_events,fullscreenexit_events,rt,stimulus,key_press,button_pressed,success,duration,valid_pressed,rts,keys,planet_text,right_text,left_text,center_text,chosen_text,reward_text,trial_stage,practice_trial,transition_type,choice,transition,reward,timestamp,subject_id
pavlovia,0,15,0.0-0.0,FALSE,FALSE,FALSE,TRUE,"
","
","
","
","
",NA,NA,NA,NA,NA,NA,NA,NA,NA,NA,NA,NA,NA,NA,NA,NA,NA,NA,NA,NA,NA,NA,sub128
html-keyboard-response,1,2679,0.0-1.0,FALSE,FALSE,FALSE,TRUE,"
","
","
","
","
",2659.875,Welcome! Press the space bar to begin.,32,NA,NA,NA,NA,NA,NA,NA,NA,NA,NA,NA,NA,NA,NA,NA,NA,NA,NA,NA,sub128
audio-keyboard-response,2,7645,0.0-2.0,FALSE,FALSE,FALSE,TRUE,"
","
","
","
","
",4779,audio/beep_loop.wav,32,NA,NA,NA,NA,NA,NA,NA,NA,NA,NA,NA,NA,NA,NA,NA,NA,NA,NA,NA,sub128
audio-button-response,3,10863,0.0-3.0,FALSE,FALSE,FALSE,TRUE,"
","
","
","
","
",NaN,audio/fish.mp3,NA,1,NA,NA,NA,NA,NA,NA,NA,NA,NA,NA,NA,NA,NA,NA,NA,NA,NA,NA,sub128
audio-button-response,4,13603,0.0-4.0,FALSE,FALSE,FALSE,TRUE,"""event"",""trial"",""time""
""fullscreenenter"",""5"",""17232""
","
","
","""event"",""trial"",""time""
""fullscreenenter"",""5"",""17232""
","
",NaN,audio/tiger.mp3,NA,4,NA,NA,NA,NA,NA,NA,NA,NA,NA,NA,NA,NA,NA,NA,NA,NA,NA,NA,sub128
fullscreen,5,18202,0.0-5.0,FALSE,FALSE,FALSE,TRUE,"""event"",""trial"",""time""
""fullscreenenter"",""5"",""17232""
","
","
","""event"",""trial"",""time""
""fullscreenenter"",""5"",""17232""
","
",NA,NA,NA,NA,TRUE,NA,NA,NA,NA,NA,NA,NA,NA,NA,NA,NA,NA,NA,NA,NA,NA,NA,sub128
d3-instructions,6,32203,0.0-6.0,FALSE,FALSE,FALSE,TRUE,"""event"",""trial"",""time""
""fullscreenenter"",""5"",""17232""
","
","
","""event"",""trial"",""time""
""fullscreenenter"",""5"",""17232""
","
",NA,NA,NA,NA,NA,NA,NA,NA,NA,NA,NA,NA,NA,NA,NA,NA,NA,NA,NA,NA,NA,NA,sub128
d3-instructions,7,41739,0.0-7.0,FALSE,FALSE,FALSE,TRUE,"""event"",""trial"",""time""
""fullscreenenter"",""5"",""17232""
","
","
","""event"",""trial"",""time""
""fullscreenenter"",""5"",""17232""
","
",NA,NA,NA,NA,NA,NA,NA,NA,NA,NA,NA,NA,NA,NA,NA,NA,NA,NA,NA,NA,NA,NA,sub128
d3-instructions,8,49746,0.0-8.0,FALSE,FALSE,FALSE,TRUE,"""event"",""trial"",""time""
""fullscreenenter"",""5"",""17232""
","
","
","""event"",""trial"",""time""
""fullscreenenter"",""5"",""17232""
","
",NA,NA,NA,NA,NA,NA,NA,NA,NA,NA,NA,NA,NA,NA,NA,NA,NA,NA,NA,NA,NA,NA,sub128
d3-instructions,9,62280,0.0-9.0,FALSE,FALSE,FALSE,TRUE,"""event"",""trial"",""time""
""fullscreenenter"",""5"",""17232""
","
","
","""event"",""trial"",""time""
""fullscreenenter"",""5"",""17232""
","
",NA,NA,NA,NA,NA,NA,NA,NA,NA,NA,NA,NA,NA,NA,NA,NA,NA,NA,NA,NA,NA,NA,sub128
d3-instructions,10,82458,0.0-10.0,FALSE,FALSE,FALSE,TRUE,"""event"",""trial"",""time""
""fullscreenenter"",""5"",""17232""
","
","
","""event"",""trial"",""time""
""fullscreenenter"",""5"",""17232""
","
",NA,NA,NA,NA,NA,NA,NA,NA,NA,NA,NA,NA,NA,NA,NA,NA,NA,NA,NA,NA,NA,NA,sub128
d3-animate-choice,11,90067,0.0-11.0,FALSE,FALSE,FALSE,TRUE,"""event"",""trial"",""time""
""fullscreenenter"",""5"",""17232""
","
","
","""event"",""trial"",""time""
""fullscreenenter"",""5"",""17232""
","
",4374.590000000011,NA,32,NA,NA,3000,1,5585.90499999997,49,images/tutgreenplanet.jpg,images/tutalien1,images/tutalien2,null,images/tutalien2,NA,NA,practice,null,NA,NA,NA,NA,sub128
d3-animate-choice,12,98395,0.0-12.0,FALSE,FALSE,FALSE,TRUE,"""event"",""trial"",""time""
""fullscreenenter"",""5"",""17232""
","
","
","""event"",""trial"",""time""
""fullscreenenter"",""5"",""17232""
","
",6312.560000000027,NA,48,NA,NA,3000,1,NA,NA,images/tutgreenplanet.jpg,images/tutalien1,images/tutalien2,null,images/tutalien1,NA,NA,practice,null,NA,NA,NA,NA,sub128
d3-animate-choice,13,102370,0.0-13.0,FALSE,FALSE,FALSE,TRUE,"""event"",""trial"",""time""
""fullscreenenter"",""5"",""17232""
","
","
","""event"",""trial"",""time""
""fullscreenenter"",""5"",""17232""
","
",1959.1650000000518,NA,49,NA,NA,3000,1,NA,NA,images/tutgreenplanet.jpg,images/tutalien1,images/tutalien2,null,images/tutalien2,NA,NA,practice,null,NA,NA,NA,NA,sub128
d3-animate-choice,14,104829,0.0-14.0,FALSE,FALSE,FALSE,TRUE,"""event"",""trial"",""time""
""fullscreenenter"",""5"",""17232""
","
","
","""event"",""trial"",""time""
""fullscreenenter"",""5"",""17232""
","
",448.05000000001746,NA,48,NA,NA,3000,1,NA,NA,images/tutgreenplanet.jpg,images/tutalien1,images/tutalien2,null,images/tutalien1,NA,NA,practice,null,NA,NA,NA,NA,sub128
d3-instructions,15,113513,0.0-15.0,FALSE,FALSE,FALSE,TRUE,"""event"",""trial"",""time""
""fullscreenenter"",""5"",""17232""
","
","
","""event"",""trial"",""time""
""fullscreenenter"",""5"",""17232""
","
",NA,NA,NA,NA,NA,NA,NA,NA,NA,NA,NA,NA,NA,NA,NA,NA,NA,NA,NA,NA,NA,NA,sub128
d3-instructions,16,126082,0.0-16.0,FALSE,FALSE,FALSE,TRUE,"""event"",""trial"",""time""
""fullscreenenter"",""5"",""17232""
","
","
","""event"",""trial"",""time""
""fullscreenenter"",""5"",""17232""
","
",NA,NA,NA,NA,NA,NA,NA,NA,NA,NA,NA,NA,NA,NA,NA,NA,NA,NA,NA,NA,NA,NA,sub128
d3-instructions,17,138317,0.0-17.0,FALSE,FALSE,FALSE,TRUE,"""event"",""trial"",""time""
""fullscreenenter"",""5"",""17232""
","
","
","""event"",""trial"",""time""
""fullscreenenter"",""5"",""17232""
","
",NA,NA,NA,NA,NA,NA,NA,NA,NA,NA,NA,NA,NA,NA,NA,NA,NA,NA,NA,NA,NA,NA,sub128
d3-instructions,18,154439,0.0-18.0,FALSE,FALSE,FALSE,TRUE,"""event"",""trial"",""time""
""fullscreenenter"",""5"",""17232""
","
","
","""event"",""trial"",""time""
""fullscreenenter"",""5"",""17232""
","
",NA,NA,NA,NA,NA,NA,NA,NA,NA,NA,NA,NA,NA,NA,NA,NA,NA,NA,NA,NA,NA,NA,sub128
d3-instructions,19,167970,0.0-19.0,FALSE,FALSE,FALSE,TRUE,"""event"",""trial"",""time""
""fullscreenenter"",""5"",""17232""
","
","
","""event"",""trial"",""time""
""fullscreenenter"",""5"",""17232""
","
",NA,NA,NA,NA,NA,NA,NA,NA,NA,NA,NA,NA,NA,NA,NA,NA,NA,NA,NA,NA,NA,NA,sub128
d3-animate-choice,20,171098,0.0-20.0,FALSE,FALSE,FALSE,TRUE,"""event"",""trial"",""time""
""fullscreenenter"",""5"",""17232""
","
","
","""event"",""trial"",""time""
""fullscreenenter"",""5"",""17232""
","
",1120.1500000000233,NA,49,NA,NA,3000,1,NA,NA,images/tutyellowplanet.jpg,null,images/tutalien3,null,images/tutalien3,images/t.png,NA,practice,null,NA,NA,NA,NA,sub128
d3-animate-choice,21,173421,0.0-21.0,FALSE,FALSE,FALSE,TRUE,"""event"",""trial"",""time""
""fullscreenenter"",""5"",""17232""
","
","
","""event"",""trial"",""time""
""fullscreenenter"",""5"",""17232""
","
",310.5,NA,49,NA,NA,3000,1,NA,NA,images/tutyellowplanet.jpg,null,images/tutalien3,null,images/tutalien3,images/t.png,NA,practice,null,NA,NA,NA,NA,sub128
d3-animate-choice,22,176334,0.0-22.0,FALSE,FALSE,FALSE,TRUE,"""event"",""trial"",""time""
""fullscreenenter"",""5"",""17232""
","
","
","""event"",""trial"",""time""
""fullscreenenter"",""5"",""17232""
","
",901.4950000000244,NA,49,NA,NA,3000,1,NA,NA,images/tutyellowplanet.jpg,null,images/tutalien3,null,images/tutalien3,images/t.png,NA,practice,null,NA,NA,NA,NA,sub128
d3-animate-choice,23,178630,0.0-23.0,FALSE,FALSE,FALSE,TRUE,"""event"",""trial"",""time""
""fullscreenenter"",""5"",""17232""
","
","
","""event"",""trial"",""time""
""fullscreenenter"",""5"",""17232""
","
",284.15499999999884,NA,49,NA,NA,3000,1,NA,NA,images/tutyellowplanet.jpg,null,images/tutalien3,null,images/tutalien3,images/t.png,NA,practice,null,NA,NA,NA,NA,sub128
d3-animate-choice,24,181067,0.0-24.0,FALSE,FALSE,FALSE,TRUE,"""event"",""trial"",""time""
""fullscreenenter"",""5"",""17232""
","
","
","""event"",""trial"",""time""
""fullscreenenter"",""5"",""17232""
","
",427.86999999996624,NA,49,NA,NA,3000,1,NA,NA,images/tutyellowplanet.jpg,null,images/tutalien3,null,images/tutalien3,images/t.png,NA,practice,null,NA,NA,NA,NA,sub128
d3-animate-choice,25,183454,0.0-25.0,FALSE,FALSE,FALSE,TRUE,"""event"",""trial"",""time""
""fullscreenenter"",""5"",""17232""
","
","
","""event"",""trial"",""time""
""fullscreenenter"",""5"",""17232""
","
",376.4750000000349,NA,49,NA,NA,3000,1,NA,NA,images/tutyellowplanet.jpg,null,images/tutalien3,null,images/tutalien3,images/t.png,NA,practice,null,NA,NA,NA,NA,sub128
d3-animate-choice,26,186000,0.0-26.0,FALSE,FALSE,FALSE,TRUE,"""event"",""trial"",""time""
""fullscreenenter"",""5"",""17232""
","
","
","""event"",""trial"",""time""
""fullscreenenter"",""5"",""17232""
","
",533.5500000000466,NA,49,NA,NA,3000,1,NA,NA,images/tutyellowplanet.jpg,null,images/tutalien3,null,images/tutalien3,images/t.png,NA,practice,null,NA,NA,NA,NA,sub128
d3-animate-choice,27,188785,0.0-27.0,FALSE,FALSE,FALSE,TRUE,"""event"",""trial"",""time""
""fullscreenenter"",""5"",""17232""
","
","
","""event"",""trial"",""time""
""fullscreenenter"",""5"",""17232""
","
",768.9499999999534,NA,49,NA,NA,3000,1,NA,NA,images/tutyellowplanet.jpg,null,images/tutalien3,null,images/tutalien3,images/nothing.png,NA,practice,null,NA,NA,NA,NA,sub128
d3-animate-choice,28,191369,0.0-28.0,FALSE,FALSE,FALSE,TRUE,"""event"",""trial"",""time""
""fullscreenenter"",""5"",""17232""
","
","
","""event"",""trial"",""time""
""fullscreenenter"",""5"",""17232""
","
",573.710000000021,NA,49,NA,NA,3000,1,NA,NA,images/tutyellowplanet.jpg,null,images/tutalien3,null,images/tutalien3,images/t.png,NA,practice,null,NA,NA,NA,NA,sub128
d3-animate-choice,29,193963,0.0-29.0,FALSE,FALSE,FALSE,TRUE,"""event"",""trial"",""time""
""fullscreenenter"",""5"",""17232""
","
","
","""event"",""trial"",""time""
""fullscreenenter"",""5"",""17232""
","
",582.3550000000105,NA,49,NA,NA,3000,1,NA,NA,images/tutyellowplanet.jpg,null,images/tutalien3,null,images/tutalien3,images/t.png,NA,practice,null,NA,NA,NA,NA,sub128
d3-instructions,30,204476,0.0-30.0,FALSE,FALSE,FALSE,TRUE,"""event"",""trial"",""time""
""fullscreenenter"",""5"",""17232""
","
","
","""event"",""trial"",""time""
""fullscreenenter"",""5"",""17232""
","
",NA,NA,NA,NA,NA,NA,NA,NA,NA,NA,NA,NA,NA,NA,NA,NA,NA,NA,NA,NA,NA,NA,sub128
d3-instructions,31,217575,0.0-31.0,FALSE,FALSE,FALSE,TRUE,"""event"",""trial"",""time""
""fullscreenenter"",""5"",""17232""
","
","
","""event"",""trial"",""time""
""fullscreenenter"",""5"",""17232""
","
",NA,NA,NA,NA,NA,NA,NA,NA,NA,NA,NA,NA,NA,NA,NA,NA,NA,NA,NA,NA,NA,NA,sub128
d3-instructions,32,228594,0.0-32.0,FALSE,FALSE,FALSE,TRUE,"""event"",""trial"",""time""
""fullscreenenter"",""5"",""17232""
","
","
","""event"",""trial"",""time""
""fullscreenenter"",""5"",""17232""
","
",NA,NA,NA,NA,NA,NA,NA,NA,NA,NA,NA,NA,NA,NA,NA,NA,NA,NA,NA,NA,NA,NA,sub128
d3-instructions,33,243197,0.0-33.0,FALSE,FALSE,FALSE,TRUE,"""event"",""trial"",""time""
""fullscreenenter"",""5"",""17232""
","
","
","""event"",""trial"",""time""
""fullscreenenter"",""5"",""17232""
","
",NA,NA,NA,NA,NA,NA,NA,NA,NA,NA,NA,NA,NA,NA,NA,NA,NA,NA,NA,NA,NA,NA,sub128
d3-animate-choice,34,246670,0.0-34.0,FALSE,FALSE,FALSE,TRUE,"""event"",""trial"",""time""
""fullscreenenter"",""5"",""17232""
","
","
","""event"",""trial"",""time""
""fullscreenenter"",""5"",""17232""
","
",1463.6899999999441,NA,48,NA,NA,3000,1,NA,NA,images/tutgreenplanet.jpg,images/tutalien1,images/tutalien2,null,images/tutalien1,images/t.png,NA,practice,null,NA,NA,NA,NA,sub128
d3-animate-choice,35,249568,0.0-35.0,FALSE,FALSE,FALSE,TRUE,"""event"",""trial"",""time""
""fullscreenenter"",""5"",""17232""
","
","
","""event"",""trial"",""time""
""fullscreenenter"",""5"",""17232""
","
",885.7600000000093,NA,49,NA,NA,3000,1,NA,NA,images/tutgreenplanet.jpg,images/tutalien1,images/tutalien2,null,images/tutalien2,images/t.png,NA,practice,null,NA,NA,NA,NA,sub128
d3-animate-choice,36,252247,0.0-36.0,FALSE,FALSE,FALSE,TRUE,"""event"",""trial"",""time""
""fullscreenenter"",""5"",""17232""
","
","
","""event"",""trial"",""time""
""fullscreenenter"",""5"",""17232""
","
",668.335000000021,NA,49,NA,NA,3000,1,NA,NA,images/tutgreenplanet.jpg,images/tutalien1,images/tutalien2,null,images/tutalien2,images/t.png,NA,practice,null,NA,NA,NA,NA,sub128
d3-animate-choice,37,255136,0.0-37.0,FALSE,FALSE,FALSE,TRUE,"""event"",""trial"",""time""
""fullscreenenter"",""5"",""17232""
","
","
","""event"",""trial"",""time""
""fullscreenenter"",""5"",""17232""
","
",875.2949999999837,NA,48,NA,NA,3000,1,NA,NA,images/tutgreenplanet.jpg,images/tutalien1,images/tutalien2,null,images/tutalien1,images/nothing.png,NA,practice,null,NA,NA,NA,NA,sub128
d3-animate-choice,38,257912,0.0-38.0,FALSE,FALSE,FALSE,TRUE,"""event"",""trial"",""time""
""fullscreenenter"",""5"",""17232""
","
","
","""event"",""trial"",""time""
""fullscreenenter"",""5"",""17232""
","
",765.2300000000396,NA,48,NA,NA,3000,1,NA,NA,images/tutgreenplanet.jpg,images/tutalien1,images/tutalien2,null,images/tutalien1,images/nothing.png,NA,practice,null,NA,NA,NA,NA,sub128
d3-animate-choice,39,265966,0.0-39.0,FALSE,FALSE,FALSE,TRUE,"""event"",""trial"",""time""
""fullscreenenter"",""5"",""17232""
","
","
","""event"",""trial"",""time""
""fullscreenenter"",""5"",""17232""
","
",6041.719999999972,NA,49,NA,NA,3000,1,NA,NA,images/tutgreenplanet.jpg,images/tutalien1,images/tutalien2,null,images/tutalien2,images/nothing.png,NA,practice,null,NA,NA,NA,NA,sub128
d3-animate-choice,40,268731,0.0-40.0,FALSE,FALSE,FALSE,TRUE,"""event"",""trial"",""time""
""fullscreenenter"",""5"",""17232""
","
","
","""event"",""trial"",""time""
""fullscreenenter"",""5"",""17232""
","
",750.9549999999581,NA,48,NA,NA,3000,1,NA,NA,images/tutgreenplanet.jpg,images/tutalien1,images/tutalien2,null,images/tutalien1,images/nothing.png,NA,practice,null,NA,NA,NA,NA,sub128
d3-animate-choice,41,283661,0.0-41.0,FALSE,FALSE,FALSE,TRUE,"""event"",""trial"",""time""
""fullscreenenter"",""5"",""17232""
","
","
","""event"",""trial"",""time""
""fullscreenenter"",""5"",""17232""
","
",12918.17499999993,NA,48,NA,NA,3000,1,NA,NA,images/tutgreenplanet.jpg,images/tutalien1,images/tutalien2,null,images/tutalien1,images/t.png,NA,practice,null,NA,NA,NA,NA,sub128
d3-animate-choice,42,290296,0.0-42.0,FALSE,FALSE,FALSE,TRUE,"""event"",""trial"",""time""
""fullscreenenter"",""5"",""17232""
","
","
","""event"",""trial"",""time""
""fullscreenenter"",""5"",""17232""
","
",4617.194999999891,NA,48,NA,NA,3000,1,NA,NA,images/tutgreenplanet.jpg,images/tutalien1,images/tutalien2,null,images/tutalien1,images/nothing.png,NA,practice,null,NA,NA,NA,NA,sub128
d3-animate-choice,43,293225,0.0-43.0,FALSE,FALSE,FALSE,TRUE,"""event"",""trial"",""time""
""fullscreenenter"",""5"",""17232""
","
","
","""event"",""trial"",""time""
""fullscreenenter"",""5"",""17232""
","
",920.070000000007,NA,49,NA,NA,3000,1,NA,NA,images/tutgreenplanet.jpg,images/tutalien1,images/tutalien2,null,images/tutalien2,images/t.png,NA,practice,null,NA,NA,NA,NA,sub128
d3-instructions,44,307697,0.0-44.0,FALSE,FALSE,FALSE,TRUE,"""event"",""trial"",""time""
""fullscreenenter"",""5"",""17232""
","
","
","""event"",""trial"",""time""
""fullscreenenter"",""5"",""17232""
","
",NA,NA,NA,NA,NA,NA,NA,NA,NA,NA,NA,NA,NA,NA,NA,NA,NA,NA,NA,NA,NA,NA,sub128
d3-instructions,45,314479,0.0-45.0,FALSE,FALSE,FALSE,TRUE,"""event"",""trial"",""time""
""fullscreenenter"",""5"",""17232""
","
","
","""event"",""trial"",""time""
""fullscreenenter"",""5"",""17232""
","
",NA,NA,NA,NA,NA,NA,NA,NA,NA,NA,NA,NA,NA,NA,NA,NA,NA,NA,NA,NA,NA,NA,sub128
d3-instructions,46,322384,0.0-46.0,FALSE,FALSE,FALSE,TRUE,"""event"",""trial"",""time""
""fullscreenenter"",""5"",""17232""
","
","
","""event"",""trial"",""time""
""fullscreenenter"",""5"",""17232""
","
",NA,NA,NA,NA,NA,NA,NA,NA,NA,NA,NA,NA,NA,NA,NA,NA,NA,NA,NA,NA,NA,NA,sub128
d3-instructions,47,358806,0.0-47.0,FALSE,FALSE,FALSE,TRUE,"""event"",""trial"",""time""
""fullscreenenter"",""5"",""17232""
","
","
","""event"",""trial"",""time""
""fullscreenenter"",""5"",""17232""
","
",NA,NA,NA,NA,NA,NA,NA,NA,NA,NA,NA,NA,NA,NA,NA,NA,NA,NA,NA,NA,NA,NA,sub128
d3-instructions,48,365339,0.0-48.0,FALSE,FALSE,FALSE,TRUE,"""event"",""trial"",""time""
""fullscreenenter"",""5"",""17232""
","
","
","""event"",""trial"",""time""
""fullscreenenter"",""5"",""17232""
","
",NA,NA,NA,NA,NA,NA,NA,NA,NA,NA,NA,NA,NA,NA,NA,NA,NA,NA,NA,NA,NA,NA,sub128
d3-instructions,49,377092,0.0-49.0,FALSE,FALSE,FALSE,TRUE,"""event"",""trial"",""time""
""fullscreenenter"",""5"",""17232""
","
","
","""event"",""trial"",""time""
""fullscreenenter"",""5"",""17232""
","
",NA,NA,NA,NA,NA,NA,NA,NA,NA,NA,NA,NA,NA,NA,NA,NA,NA,NA,NA,NA,NA,NA,sub128
d3-instructions,50,386462,0.0-50.0,FALSE,FALSE,FALSE,TRUE,"""event"",""trial"",""time""
""fullscreenenter"",""5"",""17232""
","
","
","""event"",""trial"",""time""
""fullscreenenter"",""5"",""17232""
","
",NA,NA,NA,NA,NA,NA,NA,NA,NA,NA,NA,NA,NA,NA,NA,NA,NA,NA,NA,NA,NA,NA,sub128
d3-instructions,51,389673,0.0-51.0,FALSE,FALSE,FALSE,TRUE,"""event"",""trial"",""time""
""fullscreenenter"",""5"",""17232""
","
","
","""event"",""trial"",""time""
""fullscreenenter"",""5"",""17232""
","
",NA,NA,NA,NA,NA,NA,NA,NA,NA,NA,NA,NA,NA,NA,NA,NA,NA,NA,NA,NA,NA,NA,sub128
d3-instructions,52,393790,0.0-52.0,FALSE,FALSE,FALSE,TRUE,"""event"",""trial"",""time""
""fullscreenenter"",""5"",""17232""
","
","
","""event"",""trial"",""time""
""fullscreenenter"",""5"",""17232""
","
",NA,NA,NA,NA,NA,NA,NA,NA,NA,NA,NA,NA,NA,NA,NA,NA,NA,NA,NA,NA,NA,NA,sub128
d3-instructions,53,406410,0.0-53.0,FALSE,FALSE,FALSE,TRUE,"""event"",""trial"",""time""
""fullscreenenter"",""5"",""17232""
","
","
","""event"",""trial"",""time""
""fullscreenenter"",""5"",""17232""
","
",NA,NA,NA,NA,NA,NA,NA,NA,NA,NA,NA,NA,NA,NA,NA,NA,NA,NA,NA,NA,NA,NA,sub128
d3-instructions,54,419625,0.0-54.0,FALSE,FALSE,FALSE,TRUE,"""event"",""trial"",""time""
""fullscreenenter"",""5"",""17232""
","
","
","""event"",""trial"",""time""
""fullscreenenter"",""5"",""17232""
","
",NA,NA,NA,NA,NA,NA,NA,NA,NA,NA,NA,NA,NA,NA,NA,NA,NA,NA,NA,NA,NA,NA,sub128
d3-instructions,55,430928,0.0-55.0,FALSE,FALSE,FALSE,TRUE,"""event"",""trial"",""time""
""fullscreenenter"",""5"",""17232""
","
","
","""event"",""trial"",""time""
""fullscreenenter"",""5"",""17232""
","
",NA,NA,NA,NA,NA,NA,NA,NA,NA,NA,NA,NA,NA,NA,NA,NA,NA,NA,NA,NA,NA,NA,sub128
d3-instructions,56,439651,0.0-56.0,FALSE,FALSE,FALSE,TRUE,"""event"",""trial"",""time""
""fullscreenenter"",""5"",""17232""
","
","
","""event"",""trial"",""time""
""fullscreenenter"",""5"",""17232""
","
",NA,NA,NA,NA,NA,NA,NA,NA,NA,NA,NA,NA,NA,NA,NA,NA,NA,NA,NA,NA,NA,NA,sub128
d3-instructions,57,450925,0.0-57.0,FALSE,FALSE,FALSE,TRUE,"""event"",""trial"",""time""
""fullscreenenter"",""5"",""17232""
","
","
","""event"",""trial"",""time""
""fullscreenenter"",""5"",""17232""
","
",NA,NA,NA,NA,NA,NA,NA,NA,NA,NA,NA,NA,NA,NA,NA,NA,NA,NA,NA,NA,NA,NA,sub128
d3-instructions,58,462569,0.0-58.0,FALSE,FALSE,FALSE,TRUE,"""event"",""trial"",""time""
""fullscreenenter"",""5"",""17232""
","
","
","""event"",""trial"",""time""
""fullscreenenter"",""5"",""17232""
","
",NA,NA,NA,NA,NA,NA,NA,NA,NA,NA,NA,NA,NA,NA,NA,NA,NA,NA,NA,NA,NA,NA,sub128
d3-instructions,59,467891,0.0-59.0,FALSE,FALSE,FALSE,TRUE,"""event"",""trial"",""time""
""fullscreenenter"",""5"",""17232""
","
","
","""event"",""trial"",""time""
""fullscreenenter"",""5"",""17232""
","
",NA,NA,NA,NA,NA,NA,NA,NA,NA,NA,NA,NA,NA,NA,NA,NA,NA,NA,NA,NA,NA,NA,sub128
d3-instructions,60,474743,0.0-60.0,FALSE,FALSE,FALSE,TRUE,"""event"",""trial"",""time""
""fullscreenenter"",""5"",""17232""
","
","
","""event"",""trial"",""time""
""fullscreenenter"",""5"",""17232""
","
",NA,NA,NA,NA,NA,NA,NA,NA,NA,NA,NA,NA,NA,NA,NA,NA,NA,NA,NA,NA,NA,NA,sub128
d3-animate-choice,61,478517,0.0-61.0-0.0,FALSE,FALSE,FALSE,TRUE,"""event"",""trial"",""time""
""fullscreenenter"",""5"",""17232""
","
","
","""event"",""trial"",""time""
""fullscreenenter"",""5"",""17232""
","
",1765.2699999999604,NA,49,NA,NA,3000,1,NA,NA,images/earth.jpg,images/tutrocket2,images/tutrocket1,null,images/tutrocket1,NA,1,practice,null,1,NA,NA,NA,sub128
d3-animate-choice,62,482169,0.0-61.0-1.0,FALSE,FALSE,FALSE,TRUE,"""event"",""trial"",""time""
""fullscreenenter"",""5"",""17232""
","
","
","""event"",""trial"",""time""
""fullscreenenter"",""5"",""17232""
","
",1632.6350000000675,NA,49,NA,NA,3000,1,NA,NA,images/tutyellowplanet.jpg,images/tutalien4,images/tutalien3,images/tutrocket1,images/tutalien3,images/t.png,2,practice,true,1,common,1,2020-06-20T19:02:08Z,sub128
two-step-fixation,63,483213,0.0-61.0-2.0,FALSE,FALSE,FALSE,TRUE,"""event"",""trial"",""time""
""fullscreenenter"",""5"",""17232""
","
","
","""event"",""trial"",""time""
""fullscreenenter"",""5"",""17232""
","
",NA,images/earth.jpg,NA,NA,NA,NA,NA,NA,NA,NA,NA,NA,NA,NA,NA,fixation,NA,NA,NA,NA,NA,NA,sub128
d3-animate-choice,64,486791,0.0-61.0-0.1,FALSE,FALSE,FALSE,TRUE,"""event"",""trial"",""time""
""fullscreenenter"",""5"",""17232""
","
","
","""event"",""trial"",""time""
""fullscreenenter"",""5"",""17232""
","
",1567.4649999999674,NA,48,NA,NA,3000,1,NA,NA,images/earth.jpg,images/tutrocket2,images/tutrocket1,null,images/tutrocket2,NA,1,practice,null,2,NA,NA,NA,sub128
d3-animate-choice,65,489544,0.0-61.0-1.1,FALSE,FALSE,FALSE,TRUE,"""event"",""trial"",""time""
""fullscreenenter"",""5"",""17232""
","
","
","""event"",""trial"",""time""
""fullscreenenter"",""5"",""17232""
","
",740.0100000000093,NA,49,NA,NA,3000,1,NA,NA,images/tutgreenplanet.jpg,images/tutalien2,images/tutalien1,images/tutrocket2,images/tutalien1,images/nothing.png,2,practice,true,1,common,0,2020-06-20T19:02:15Z,sub128
two-step-fixation,66,490554,0.0-61.0-2.1,FALSE,FALSE,FALSE,TRUE,"""event"",""trial"",""time""
""fullscreenenter"",""5"",""17232""
","
","
","""event"",""trial"",""time""
""fullscreenenter"",""5"",""17232""
","
",NA,images/earth.jpg,NA,NA,NA,NA,NA,NA,NA,NA,NA,NA,NA,NA,NA,fixation,NA,NA,NA,NA,NA,NA,sub128
d3-animate-choice,67,493176,0.0-61.0-0.2,FALSE,FALSE,FALSE,TRUE,"""event"",""trial"",""time""
""fullscreenenter"",""5"",""17232""
","
","
","""event"",""trial"",""time""
""fullscreenenter"",""5"",""17232""
","
",613.1900000000605,NA,49,NA,NA,3000,1,NA,NA,images/earth.jpg,images/tutrocket2,images/tutrocket1,null,images/tutrocket1,NA,1,practice,null,1,NA,NA,NA,sub128
d3-animate-choice,68,495786,0.0-61.0-1.2,FALSE,FALSE,FALSE,TRUE,"""event"",""trial"",""time""
""fullscreenenter"",""5"",""17232""
","
","
","""event"",""trial"",""time""
""fullscreenenter"",""5"",""17232""
","
",598.5800000000745,NA,49,NA,NA,3000,1,NA,NA,images/tutgreenplanet.jpg,images/tutalien2,images/tutalien1,images/tutrocket1,images/tutalien1,images/nothing.png,2,practice,false,1,rare,0,2020-06-20T19:02:22Z,sub128
two-step-fixation,69,496791,0.0-61.0-2.2,FALSE,FALSE,FALSE,TRUE,"""event"",""trial"",""time""
""fullscreenenter"",""5"",""17232""
","
","
","""event"",""trial"",""time""
""fullscreenenter"",""5"",""17232""
","
",NA,images/earth.jpg,NA,NA,NA,NA,NA,NA,NA,NA,NA,NA,NA,NA,NA,fixation,NA,NA,NA,NA,NA,NA,sub128
d3-animate-choice,70,499245,0.0-61.0-0.3,FALSE,FALSE,FALSE,TRUE,"""event"",""trial"",""time""
""fullscreenenter"",""5"",""17232""
","
","
","""event"",""trial"",""time""
""fullscreenenter"",""5"",""17232""
","
",446.40500000002794,NA,48,NA,NA,3000,1,NA,NA,images/earth.jpg,images/tutrocket2,images/tutrocket1,null,images/tutrocket2,NA,1,practice,null,2,NA,NA,NA,sub128
d3-animate-choice,71,501599,0.0-61.0-1.3,FALSE,FALSE,FALSE,TRUE,"""event"",""trial"",""time""
""fullscreenenter"",""5"",""17232""
","
","
","""event"",""trial"",""time""
""fullscreenenter"",""5"",""17232""
","
",338.7750000000233,NA,49,NA,NA,3000,1,NA,NA,images/tutgreenplanet.jpg,images/tutalien2,images/tutalien1,images/tutrocket2,images/tutalien1,images/t.png,2,practice,true,1,common,1,2020-06-20T19:02:27Z,sub128
two-step-fixation,72,502607,0.0-61.0-2.3,FALSE,FALSE,FALSE,TRUE,"""event"",""trial"",""time""
""fullscreenenter"",""5"",""17232""
","
","
","""event"",""trial"",""time""
""fullscreenenter"",""5"",""17232""
","
",NA,images/earth.jpg,NA,NA,NA,NA,NA,NA,NA,NA,NA,NA,NA,NA,NA,fixation,NA,NA,NA,NA,NA,NA,sub128
d3-animate-choice,73,505036,0.0-61.0-0.4,FALSE,FALSE,FALSE,TRUE,"""event"",""trial"",""time""
""fullscreenenter"",""5"",""17232""
","
","
","""event"",""trial"",""time""
""fullscreenenter"",""5"",""17232""
","
",422.21999999997206,NA,48,NA,NA,3000,1,NA,NA,images/earth.jpg,images/tutrocket2,images/tutrocket1,null,images/tutrocket2,NA,1,practice,null,2,NA,NA,NA,sub128
d3-animate-choice,74,507397,0.0-61.0-1.4,FALSE,FALSE,FALSE,TRUE,"""event"",""trial"",""time""
""fullscreenenter"",""5"",""17232""
","
","
","""event"",""trial"",""time""
""fullscreenenter"",""5"",""17232""
","
",353.75500000000466,NA,48,NA,NA,3000,1,NA,NA,images/tutyellowplanet.jpg,images/tutalien4,images/tutalien3,images/tutrocket2,images/tutalien4,images/nothing.png,2,practice,false,2,rare,0,2020-06-20T19:02:33Z,sub128
two-step-fixation,75,508401,0.0-61.0-2.4,FALSE,FALSE,FALSE,TRUE,"""event"",""trial"",""time""
""fullscreenenter"",""5"",""17232""
","
","
","""event"",""trial"",""time""
""fullscreenenter"",""5"",""17232""
","
",NA,images/earth.jpg,NA,NA,NA,NA,NA,NA,NA,NA,NA,NA,NA,NA,NA,fixation,NA,NA,NA,NA,NA,NA,sub128
d3-animate-choice,76,510921,0.0-61.0-0.5,FALSE,FALSE,FALSE,TRUE,"""event"",""trial"",""time""
""fullscreenenter"",""5"",""17232""
","
","
","""event"",""trial"",""time""
""fullscreenenter"",""5"",""17232""
","
",513.7099999999627,NA,48,NA,NA,3000,1,2366.1350000000093,48,images/earth.jpg,images/tutrocket2,images/tutrocket1,null,images/tutrocket2,NA,1,practice,null,2,NA,NA,NA,sub128
d3-animate-choice,77,513447,0.0-61.0-1.5,FALSE,FALSE,FALSE,TRUE,"""event"",""trial"",""time""
""fullscreenenter"",""5"",""17232""
","
","
","""event"",""trial"",""time""
""fullscreenenter"",""5"",""17232""
","
",511.90500000014435,NA,49,NA,NA,3000,1,NA,NA,images/tutyellowplanet.jpg,images/tutalien4,images/tutalien3,images/tutrocket2,images/tutalien3,images/t.png,2,practice,false,1,rare,1,2020-06-20T19:02:39Z,sub128
two-step-fixation,78,514454,0.0-61.0-2.5,FALSE,FALSE,FALSE,TRUE,"""event"",""trial"",""time""
""fullscreenenter"",""5"",""17232""
","
","
","""event"",""trial"",""time""
""fullscreenenter"",""5"",""17232""
","
",NA,images/earth.jpg,NA,NA,NA,NA,NA,NA,NA,NA,NA,NA,NA,NA,NA,fixation,NA,NA,NA,NA,NA,NA,sub128
d3-animate-choice,79,517156,0.0-61.0-0.6,FALSE,FALSE,FALSE,TRUE,"""event"",""trial"",""time""
""fullscreenenter"",""5"",""17232""
","
","
","""event"",""trial"",""time""
""fullscreenenter"",""5"",""17232""
","
",696.3549999999814,NA,49,NA,NA,3000,1,NA,NA,images/earth.jpg,images/tutrocket2,images/tutrocket1,null,images/tutrocket1,NA,1,practice,null,1,NA,NA,NA,sub128
d3-animate-choice,80,519596,0.0-61.0-1.6,FALSE,FALSE,FALSE,TRUE,"""event"",""trial"",""time""
""fullscreenenter"",""5"",""17232""
","
","
","""event"",""trial"",""time""
""fullscreenenter"",""5"",""17232""
","
",434.26499999989755,NA,48,NA,NA,3000,1,NA,NA,images/tutyellowplanet.jpg,images/tutalien4,images/tutalien3,images/tutrocket1,images/tutalien4,images/t.png,2,practice,true,2,common,1,2020-06-20T19:02:45Z,sub128
two-step-fixation,81,520604,0.0-61.0-2.6,FALSE,FALSE,FALSE,TRUE,"""event"",""trial"",""time""
""fullscreenenter"",""5"",""17232""
","
","
","""event"",""trial"",""time""
""fullscreenenter"",""5"",""17232""
","
",NA,images/earth.jpg,NA,NA,NA,NA,NA,NA,NA,NA,NA,NA,NA,NA,NA,fixation,NA,NA,NA,NA,NA,NA,sub128
d3-animate-choice,82,523104,0.0-61.0-0.7,FALSE,FALSE,FALSE,TRUE,"""event"",""trial"",""time""
""fullscreenenter"",""5"",""17232""
","
","
","""event"",""trial"",""time""
""fullscreenenter"",""5"",""17232""
","
",492.96000000007916,NA,49,NA,NA,3000,1,NA,NA,images/earth.jpg,images/tutrocket2,images/tutrocket1,null,images/tutrocket1,NA,1,practice,null,1,NA,NA,NA,sub128
d3-animate-choice,83,525443,0.0-61.0-1.7,FALSE,FALSE,FALSE,TRUE,"""event"",""trial"",""time""
""fullscreenenter"",""5"",""17232""
","
","
","""event"",""trial"",""time""
""fullscreenenter"",""5"",""17232""
","
",331.45999999996275,NA,48,NA,NA,3000,1,NA,NA,images/tutyellowplanet.jpg,images/tutalien4,images/tutalien3,images/tutrocket1,images/tutalien4,images/t.png,2,practice,true,2,common,1,2020-06-20T19:02:51Z,sub128
two-step-fixation,84,526508,0.0-61.0-2.7,FALSE,FALSE,FALSE,TRUE,"""event"",""trial"",""time""
""fullscreenenter"",""5"",""17232""
","
","
","""event"",""trial"",""time""
""fullscreenenter"",""5"",""17232""
","
",NA,images/earth.jpg,NA,NA,NA,NA,NA,NA,NA,NA,NA,NA,NA,NA,NA,fixation,NA,NA,NA,NA,NA,NA,sub128
d3-animate-choice,85,528821,0.0-61.0-0.8,FALSE,FALSE,FALSE,TRUE,"""event"",""trial"",""time""
""fullscreenenter"",""5"",""17232""
","
","
","""event"",""trial"",""time""
""fullscreenenter"",""5"",""17232""
","
",305.8299999999581,NA,49,NA,NA,3000,1,NA,NA,images/earth.jpg,images/tutrocket2,images/tutrocket1,null,images/tutrocket1,NA,1,practice,null,1,NA,NA,NA,sub128
d3-animate-choice,86,531314,0.0-61.0-1.8,FALSE,FALSE,FALSE,TRUE,"""event"",""trial"",""time""
""fullscreenenter"",""5"",""17232""
","
","
","""event"",""trial"",""time""
""fullscreenenter"",""5"",""17232""
","
",477.68499999993946,NA,49,NA,NA,3000,1,NA,NA,images/tutyellowplanet.jpg,images/tutalien4,images/tutalien3,images/tutrocket1,images/tutalien3,images/t.png,2,practice,true,1,common,1,2020-06-20T19:02:57Z,sub128
two-step-fixation,87,532320,0.0-61.0-2.8,FALSE,FALSE,FALSE,TRUE,"""event"",""trial"",""time""
""fullscreenenter"",""5"",""17232""
","
","
","""event"",""trial"",""time""
""fullscreenenter"",""5"",""17232""
","
",NA,images/earth.jpg,NA,NA,NA,NA,NA,NA,NA,NA,NA,NA,NA,NA,NA,fixation,NA,NA,NA,NA,NA,NA,sub128
d3-animate-choice,88,534594,0.0-61.0-0.9,FALSE,FALSE,FALSE,TRUE,"""event"",""trial"",""time""
""fullscreenenter"",""5"",""17232""
","
","
","""event"",""trial"",""time""
""fullscreenenter"",""5"",""17232""
","
",264.29999999993015,NA,49,NA,NA,3000,1,NA,NA,images/earth.jpg,images/tutrocket2,images/tutrocket1,null,images/tutrocket1,NA,1,practice,null,1,NA,NA,NA,sub128
d3-animate-choice,89,537088,0.0-61.0-1.9,FALSE,FALSE,FALSE,TRUE,"""event"",""trial"",""time""
""fullscreenenter"",""5"",""17232""
","
","
","""event"",""trial"",""time""
""fullscreenenter"",""5"",""17232""
","
",482.6600000000326,NA,49,NA,NA,3000,1,NA,NA,images/tutyellowplanet.jpg,images/tutalien4,images/tutalien3,images/tutrocket1,images/tutalien3,images/t.png,2,practice,true,1,common,1,2020-06-20T19:03:03Z,sub128
two-step-fixation,90,538098,0.0-61.0-2.9,FALSE,FALSE,FALSE,TRUE,"""event"",""trial"",""time""
""fullscreenenter"",""5"",""17232""
","
","
","""event"",""trial"",""time""
""fullscreenenter"",""5"",""17232""
","
",NA,images/earth.jpg,NA,NA,NA,NA,NA,NA,NA,NA,NA,NA,NA,NA,NA,fixation,NA,NA,NA,NA,NA,NA,sub128
d3-animate-choice,91,540445,0.0-61.0-0.10,FALSE,FALSE,FALSE,TRUE,"""event"",""trial"",""time""
""fullscreenenter"",""5"",""17232""
","
","
","""event"",""trial"",""time""
""fullscreenenter"",""5"",""17232""
","
",339.01500000001397,NA,48,NA,NA,3000,1,NA,NA,images/earth.jpg,images/tutrocket2,images/tutrocket1,null,images/tutrocket2,NA,1,practice,null,2,NA,NA,NA,sub128
d3-animate-choice,92,542769,0.0-61.0-1.10,FALSE,FALSE,FALSE,TRUE,"""event"",""trial"",""time""
""fullscreenenter"",""5"",""17232""
","
","
","""event"",""trial"",""time""
""fullscreenenter"",""5"",""17232""
","
",311.7149999999674,NA,49,NA,NA,3000,1,NA,NA,images/tutyellowplanet.jpg,images/tutalien4,images/tutalien3,images/tutrocket2,images/tutalien3,images/nothing.png,2,practice,false,1,rare,0,2020-06-20T19:03:09Z,sub128
two-step-fixation,93,543774,0.0-61.0-2.10,FALSE,FALSE,FALSE,TRUE,"""event"",""trial"",""time""
""fullscreenenter"",""5"",""17232""
","
","
","""event"",""trial"",""time""
""fullscreenenter"",""5"",""17232""
","
",NA,images/earth.jpg,NA,NA,NA,NA,NA,NA,NA,NA,NA,NA,NA,NA,NA,fixation,NA,NA,NA,NA,NA,NA,sub128
d3-animate-choice,94,546082,0.0-61.0-0.11,FALSE,FALSE,FALSE,TRUE,"""event"",""trial"",""time""
""fullscreenenter"",""5"",""17232""
","
","
","""event"",""trial"",""time""
""fullscreenenter"",""5"",""17232""
","
",293.26499999989755,NA,49,NA,NA,3000,1,NA,NA,images/earth.jpg,images/tutrocket2,images/tutrocket1,null,images/tutrocket1,NA,1,practice,null,1,NA,NA,NA,sub128
d3-animate-choice,95,548633,0.0-61.0-1.11,FALSE,FALSE,FALSE,TRUE,"""event"",""trial"",""time""
""fullscreenenter"",""5"",""17232""
","
","
","""event"",""trial"",""time""
""fullscreenenter"",""5"",""17232""
","
",541.9200000000419,NA,48,NA,NA,3000,1,NA,NA,images/tutgreenplanet.jpg,images/tutalien2,images/tutalien1,images/tutrocket1,images/tutalien2,images/nothing.png,2,practice,false,2,rare,0,2020-06-20T19:03:14Z,sub128
two-step-fixation,96,549643,0.0-61.0-2.11,FALSE,FALSE,FALSE,TRUE,"""event"",""trial"",""time""
""fullscreenenter"",""5"",""17232""
","
","
","""event"",""trial"",""time""
""fullscreenenter"",""5"",""17232""
","
",NA,images/earth.jpg,NA,NA,NA,NA,NA,NA,NA,NA,NA,NA,NA,NA,NA,fixation,NA,NA,NA,NA,NA,NA,sub128
d3-animate-choice,97,551924,0.0-61.0-0.12,FALSE,FALSE,FALSE,TRUE,"""event"",""trial"",""time""
""fullscreenenter"",""5"",""17232""
","
","
","""event"",""trial"",""time""
""fullscreenenter"",""5"",""17232""
","
",270.05000000004657,NA,48,NA,NA,3000,1,NA,NA,images/earth.jpg,images/tutrocket2,images/tutrocket1,null,images/tutrocket2,NA,1,practice,null,2,NA,NA,NA,sub128
d3-animate-choice,98,554262,0.0-61.0-1.12,FALSE,FALSE,FALSE,TRUE,"""event"",""trial"",""time""
""fullscreenenter"",""5"",""17232""
","
","
","""event"",""trial"",""time""
""fullscreenenter"",""5"",""17232""
","
",326.4749999999767,NA,49,NA,NA,3000,1,NA,NA,images/tutgreenplanet.jpg,images/tutalien2,images/tutalien1,images/tutrocket2,images/tutalien1,images/t.png,2,practice,true,1,common,1,2020-06-20T19:03:20Z,sub128
two-step-fixation,99,555271,0.0-61.0-2.12,FALSE,FALSE,FALSE,TRUE,"""event"",""trial"",""time""
""fullscreenenter"",""5"",""17232""
","
","
","""event"",""trial"",""time""
""fullscreenenter"",""5"",""17232""
","
",NA,images/earth.jpg,NA,NA,NA,NA,NA,NA,NA,NA,NA,NA,NA,NA,NA,fixation,NA,NA,NA,NA,NA,NA,sub128
d3-animate-choice,100,557619,0.0-61.0-0.13,FALSE,FALSE,FALSE,TRUE,"""event"",""trial"",""time""
""fullscreenenter"",""5"",""17232""
","
","
","""event"",""trial"",""time""
""fullscreenenter"",""5"",""17232""
","
",339.54999999993015,NA,48,NA,NA,3000,1,NA,NA,images/earth.jpg,images/tutrocket2,images/tutrocket1,null,images/tutrocket2,NA,1,practice,null,2,NA,NA,NA,sub128
d3-animate-choice,101,559986,0.0-61.0-1.13,FALSE,FALSE,FALSE,TRUE,"""event"",""trial"",""time""
""fullscreenenter"",""5"",""17232""
","
","
","""event"",""trial"",""time""
""fullscreenenter"",""5"",""17232""
","
",356.36000000010245,NA,49,NA,NA,3000,1,NA,NA,images/tutyellowplanet.jpg,images/tutalien4,images/tutalien3,images/tutrocket2,images/tutalien3,images/t.png,2,practice,false,1,rare,1,2020-06-20T19:03:26Z,sub128
two-step-fixation,102,560998,0.0-61.0-2.13,FALSE,FALSE,FALSE,TRUE,"""event"",""trial"",""time""
""fullscreenenter"",""5"",""17232""
","
","
","""event"",""trial"",""time""
""fullscreenenter"",""5"",""17232""
","
",NA,images/earth.jpg,NA,NA,NA,NA,NA,NA,NA,NA,NA,NA,NA,NA,NA,fixation,NA,NA,NA,NA,NA,NA,sub128
d3-animate-choice,103,563278,0.0-61.0-0.14,FALSE,FALSE,FALSE,TRUE,"""event"",""trial"",""time""
""fullscreenenter"",""5"",""17232""
","
","
","""event"",""trial"",""time""
""fullscreenenter"",""5"",""17232""
","
",271.61999999999534,NA,48,NA,NA,3000,1,NA,NA,images/earth.jpg,images/tutrocket2,images/tutrocket1,null,images/tutrocket2,NA,1,practice,null,2,NA,NA,NA,sub128
d3-animate-choice,104,565831,0.0-61.0-1.14,FALSE,FALSE,FALSE,TRUE,"""event"",""trial"",""time""
""fullscreenenter"",""5"",""17232""
","
","
","""event"",""trial"",""time""
""fullscreenenter"",""5"",""17232""
","
",547.5249999999069,NA,49,NA,NA,3000,1,NA,NA,images/tutgreenplanet.jpg,images/tutalien2,images/tutalien1,images/tutrocket2,images/tutalien1,images/t.png,2,practice,true,1,common,1,2020-06-20T19:03:32Z,sub128
two-step-fixation,105,566835,0.0-61.0-2.14,FALSE,FALSE,FALSE,TRUE,"""event"",""trial"",""time""
""fullscreenenter"",""5"",""17232""
","
","
","""event"",""trial"",""time""
""fullscreenenter"",""5"",""17232""
","
",NA,images/earth.jpg,NA,NA,NA,NA,NA,NA,NA,NA,NA,NA,NA,NA,NA,fixation,NA,NA,NA,NA,NA,NA,sub128
d3-animate-choice,106,568879,0.0-61.0-0.15,FALSE,FALSE,FALSE,TRUE,"""event"",""trial"",""time""
""fullscreenenter"",""5"",""17232""
","
","
","""event"",""trial"",""time""
""fullscreenenter"",""5"",""17232""
","
",32.27500000002328,NA,48,NA,NA,3000,1,NA,NA,images/earth.jpg,images/tutrocket2,images/tutrocket1,null,images/tutrocket2,NA,1,practice,null,2,NA,NA,NA,sub128
d3-animate-choice,107,571110,0.0-61.0-1.15,FALSE,FALSE,FALSE,TRUE,"""event"",""trial"",""time""
""fullscreenenter"",""5"",""17232""
","
","
","""event"",""trial"",""time""
""fullscreenenter"",""5"",""17232""
","
",222.75,NA,49,NA,NA,3000,1,NA,NA,images/tutgreenplanet.jpg,images/tutalien2,images/tutalien1,images/tutrocket2,images/tutalien1,images/nothing.png,2,practice,true,1,common,0,2020-06-20T19:03:37Z,sub128
two-step-fixation,108,572120,0.0-61.0-2.15,FALSE,FALSE,FALSE,TRUE,"""event"",""trial"",""time""
""fullscreenenter"",""5"",""17232""
","
","
","""event"",""trial"",""time""
""fullscreenenter"",""5"",""17232""
","
",NA,images/earth.jpg,NA,NA,NA,NA,NA,NA,NA,NA,NA,NA,NA,NA,NA,fixation,NA,NA,NA,NA,NA,NA,sub128
d3-animate-choice,109,574427,0.0-61.0-0.16,FALSE,FALSE,FALSE,TRUE,"""event"",""trial"",""time""
""fullscreenenter"",""5"",""17232""
","
","
","""event"",""trial"",""time""
""fullscreenenter"",""5"",""17232""
","
",300.5700000000652,NA,49,NA,NA,3000,1,NA,NA,images/earth.jpg,images/tutrocket2,images/tutrocket1,null,images/tutrocket1,NA,1,practice,null,1,NA,NA,NA,sub128
d3-animate-choice,110,576825,0.0-61.0-1.16,FALSE,FALSE,FALSE,TRUE,"""event"",""trial"",""time""
""fullscreenenter"",""5"",""17232""
","
","
","""event"",""trial"",""time""
""fullscreenenter"",""5"",""17232""
","
",391.3549999999814,NA,49,NA,NA,3000,1,2249.4000000000233,48,images/tutyellowplanet.jpg,images/tutalien4,images/tutalien3,images/tutrocket1,images/tutalien3,images/t.png,2,practice,true,1,common,1,2020-06-20T19:03:43Z,sub128
two-step-fixation,111,577829,0.0-61.0-2.16,FALSE,FALSE,FALSE,TRUE,"""event"",""trial"",""time""
""fullscreenenter"",""5"",""17232""
","
","
","""event"",""trial"",""time""
""fullscreenenter"",""5"",""17232""
","
",NA,images/earth.jpg,NA,NA,NA,NA,NA,NA,NA,NA,NA,NA,NA,NA,NA,fixation,NA,NA,NA,NA,NA,NA,sub128
d3-animate-choice,112,580080,0.0-61.0-0.17,FALSE,FALSE,FALSE,TRUE,"""event"",""trial"",""time""
""fullscreenenter"",""5"",""17232""
","
","
","""event"",""trial"",""time""
""fullscreenenter"",""5"",""17232""
","
",244.14999999990687,NA,49,NA,NA,3000,1,1219.5949999998556,48,images/earth.jpg,images/tutrocket2,images/tutrocket1,null,images/tutrocket1,NA,1,practice,null,1,NA,NA,NA,sub128
d3-animate-choice,113,582481,0.0-61.0-1.17,FALSE,FALSE,FALSE,TRUE,"""event"",""trial"",""time""
""fullscreenenter"",""5"",""17232""
","
","
","""event"",""trial"",""time""
""fullscreenenter"",""5"",""17232""
","
",388.03000000002794,NA,49,NA,NA,3000,1,NA,NA,images/tutyellowplanet.jpg,images/tutalien4,images/tutalien3,images/tutrocket1,images/tutalien3,images/nothing.png,2,practice,true,1,common,0,2020-06-20T19:03:48Z,sub128
two-step-fixation,114,583488,0.0-61.0-2.17,FALSE,FALSE,FALSE,TRUE,"""event"",""trial"",""time""
""fullscreenenter"",""5"",""17232""
","
","
","""event"",""trial"",""time""
""fullscreenenter"",""5"",""17232""
","
",NA,images/earth.jpg,NA,NA,NA,NA,NA,NA,NA,NA,NA,NA,NA,NA,NA,fixation,NA,NA,NA,NA,NA,NA,sub128
d3-animate-choice,115,585771,0.0-61.0-0.18,FALSE,FALSE,FALSE,TRUE,"""event"",""trial"",""time""
""fullscreenenter"",""5"",""17232""
","
","
","""event"",""trial"",""time""
""fullscreenenter"",""5"",""17232""
","
",261.9700000000885,NA,48,NA,NA,3000,1,NA,NA,images/earth.jpg,images/tutrocket2,images/tutrocket1,null,images/tutrocket2,NA,1,practice,null,2,NA,NA,NA,sub128
d3-animate-choice,116,588194,0.0-61.0-1.18,FALSE,FALSE,FALSE,TRUE,"""event"",""trial"",""time""
""fullscreenenter"",""5"",""17232""
","
","
","""event"",""trial"",""time""
""fullscreenenter"",""5"",""17232""
","
",409.3950000000186,NA,48,NA,NA,3000,1,NA,NA,images/tutgreenplanet.jpg,images/tutalien2,images/tutalien1,images/tutrocket2,images/tutalien2,images/nothing.png,2,practice,true,2,common,0,2020-06-20T19:03:54Z,sub128
two-step-fixation,117,589202,0.0-61.0-2.18,FALSE,FALSE,FALSE,TRUE,"""event"",""trial"",""time""
""fullscreenenter"",""5"",""17232""
","
","
","""event"",""trial"",""time""
""fullscreenenter"",""5"",""17232""
","
",NA,images/earth.jpg,NA,NA,NA,NA,NA,NA,NA,NA,NA,NA,NA,NA,NA,fixation,NA,NA,NA,NA,NA,NA,sub128
d3-animate-choice,118,591481,0.0-61.0-0.19,FALSE,FALSE,FALSE,TRUE,"""event"",""trial"",""time""
""fullscreenenter"",""5"",""17232""
","
","
","""event"",""trial"",""time""
""fullscreenenter"",""5"",""17232""
","
",264.214999999851,NA,49,NA,NA,3000,1,NA,NA,images/earth.jpg,images/tutrocket2,images/tutrocket1,null,images/tutrocket1,NA,1,practice,null,1,NA,NA,NA,sub128
d3-animate-choice,119,594048,0.0-61.0-1.19,FALSE,FALSE,FALSE,TRUE,"""event"",""trial"",""time""
""fullscreenenter"",""5"",""17232""
","
","
","""event"",""trial"",""time""
""fullscreenenter"",""5"",""17232""
","
",560.1700000000419,NA,48,NA,NA,3000,1,NA,NA,images/tutyellowplanet.jpg,images/tutalien4,images/tutalien3,images/tutrocket1,images/tutalien4,images/t.png,2,practice,true,2,common,1,2020-06-20T19:04:00Z,sub128
two-step-fixation,120,595054,0.0-61.0-2.19,FALSE,FALSE,FALSE,TRUE,"""event"",""trial"",""time""
""fullscreenenter"",""5"",""17232""
","
","
","""event"",""trial"",""time""
""fullscreenenter"",""5"",""17232""
","
",NA,images/earth.jpg,NA,NA,NA,NA,NA,NA,NA,NA,NA,NA,NA,NA,NA,fixation,NA,NA,NA,NA,NA,NA,sub128
d3-instructions,121,602442,0.0-62.0,FALSE,FALSE,FALSE,TRUE,"""event"",""trial"",""time""
""fullscreenenter"",""5"",""17232""
","
","
","""event"",""trial"",""time""
""fullscreenenter"",""5"",""17232""
","
",NA,NA,NA,NA,NA,NA,NA,NA,NA,NA,NA,NA,NA,NA,NA,NA,NA,NA,NA,NA,NA,NA,sub128
audio-keyboard-response,122,607633,0.0-63.0,FALSE,FALSE,FALSE,TRUE,"""event"",""trial"",""time""
""fullscreenenter"",""5"",""17232""
","
","
","""event"",""trial"",""time""
""fullscreenenter"",""5"",""17232""
","
",5184,audio/instructions/treasure_feedback.wav,32,NA,NA,NA,NA,NA,NA,NA,NA,NA,NA,NA,NA,NA,NA,NA,NA,NA,NA,NA,sub128
d3-instructions,123,627001,0.0-64.0,FALSE,FALSE,FALSE,TRUE,"""event"",""trial"",""time""
""fullscreenenter"",""5"",""17232""
","
","
","""event"",""trial"",""time""
""fullscreenenter"",""5"",""17232""
","
",NA,NA,NA,NA,NA,NA,NA,NA,NA,NA,NA,NA,NA,NA,NA,NA,NA,NA,NA,NA,NA,NA,sub128
d3-instructions,124,641114,0.0-65.0,FALSE,FALSE,FALSE,TRUE,"""event"",""trial"",""time""
""fullscreenenter"",""5"",""17232""
","
","
","""event"",""trial"",""time""
""fullscreenenter"",""5"",""17232""
","
",NA,NA,NA,NA,NA,NA,NA,NA,NA,NA,NA,NA,NA,NA,NA,NA,NA,NA,NA,NA,NA,NA,sub128
d3-instructions,125,666222,0.0-66.0,FALSE,FALSE,FALSE,TRUE,"""event"",""trial"",""time""
""fullscreenenter"",""5"",""17232""
","
","
","""event"",""trial"",""time""
""fullscreenenter"",""5"",""17232""
","
",NA,NA,NA,NA,NA,NA,NA,NA,NA,NA,NA,NA,NA,NA,NA,NA,NA,NA,NA,NA,NA,NA,sub128
d3-instructions,126,682252,0.0-67.0,FALSE,FALSE,FALSE,TRUE,"""event"",""trial"",""time""
""fullscreenenter"",""5"",""17232""
","
","
","""event"",""trial"",""time""
""fullscreenenter"",""5"",""17232""
","
",NA,NA,NA,NA,NA,NA,NA,NA,NA,NA,NA,NA,NA,NA,NA,NA,NA,NA,NA,NA,NA,NA,sub128
d3-instructions,127,691764,0.0-68.0,FALSE,FALSE,FALSE,TRUE,"""event"",""trial"",""time""
""fullscreenenter"",""5"",""17232""
","
","
","""event"",""trial"",""time""
""fullscreenenter"",""5"",""17232""
","
",NA,NA,NA,NA,NA,NA,NA,NA,NA,NA,NA,NA,NA,NA,NA,NA,NA,NA,NA,NA,NA,NA,sub128
instructions-quiz,128,699898,0.0-69.0,FALSE,FALSE,FALSE,TRUE,"""event"",""trial"",""time""
""fullscreenenter"",""5"",""17232""
","
","
","""event"",""trial"",""time""
""fullscreenenter"",""5"",""17232""
","
",8081.309999999823,audio/quiz/Q1_Prompt.wav,NA,0,NA,NA,NA,NA,NA,NA,NA,NA,NA,NA,NA,NA,NA,NA,NA,NA,NA,NA,sub128
audio-keyboard-response,129,710176,0.0-70.0,FALSE,FALSE,FALSE,TRUE,"""event"",""trial"",""time""
""fullscreenenter"",""5"",""17232""
","
","
","""event"",""trial"",""time""
""fullscreenenter"",""5"",""17232""
","
",null,audio/quiz/Q1_Incorrect.wav,null,NA,NA,NA,NA,NA,NA,NA,NA,NA,NA,NA,NA,NA,NA,NA,NA,NA,NA,NA,sub128
instructions-quiz,130,720339,0.0-71.0,FALSE,FALSE,FALSE,TRUE,"""event"",""trial"",""time""
""fullscreenenter"",""5"",""17232""
","
","
","""event"",""trial"",""time""
""fullscreenenter"",""5"",""17232""
","
",10158.81500000006,audio/quiz/Q2_Prompt.wav,NA,0,NA,NA,NA,NA,NA,NA,NA,NA,NA,NA,NA,NA,NA,NA,NA,NA,NA,NA,sub128
audio-keyboard-response,131,725900,0.0-72.0,FALSE,FALSE,FALSE,TRUE,"""event"",""trial"",""time""
""fullscreenenter"",""5"",""17232""
","
","
","""event"",""trial"",""time""
""fullscreenenter"",""5"",""17232""
","
",5557,audio/quiz/Q2_Correct.wav,32,NA,NA,NA,NA,NA,NA,NA,NA,NA,NA,NA,NA,NA,NA,NA,NA,NA,NA,NA,sub128
instructions-quiz,132,730723,0.0-73.0,FALSE,FALSE,FALSE,TRUE,"""event"",""trial"",""time""
""fullscreenenter"",""5"",""17232""
","
","
","""event"",""trial"",""time""
""fullscreenenter"",""5"",""17232""
","
",4804.464999999967,audio/quiz/Q3_Prompt.wav,NA,1,NA,NA,NA,NA,NA,NA,NA,NA,NA,NA,NA,NA,NA,NA,NA,NA,NA,NA,sub128
audio-keyboard-response,133,736523,0.0-74.0,FALSE,FALSE,FALSE,TRUE,"""event"",""trial"",""time""
""fullscreenenter"",""5"",""17232""
","
","
","""event"",""trial"",""time""
""fullscreenenter"",""5"",""17232""
","
",null,audio/quiz/Q3_Correct.wav,null,NA,NA,NA,NA,NA,NA,NA,NA,NA,NA,NA,NA,NA,NA,NA,NA,NA,NA,NA,sub128
d3-instructions,134,751009,0.0-75.0,FALSE,FALSE,FALSE,TRUE,"""event"",""trial"",""time""
""fullscreenenter"",""5"",""17232""
","
","
","""event"",""trial"",""time""
""fullscreenenter"",""5"",""17232""
","
",NA,NA,NA,NA,NA,NA,NA,NA,NA,NA,NA,NA,NA,NA,NA,NA,NA,NA,NA,NA,NA,NA,sub128
d3-animate-choice,135,754006,0.0-76.0-0.0,FALSE,FALSE,FALSE,TRUE,"""event"",""trial"",""time""
""fullscreenenter"",""5"",""17232""
","
","
","""event"",""trial"",""time""
""fullscreenenter"",""5"",""17232""
","
",968.984999999986,NA,49,NA,NA,3000,1,NA,NA,images/earth.jpg,images/rocket1,images/rocket2,null,images/rocket2,NA,1,real,null,1,NA,NA,NA,sub128
d3-animate-choice,136,756525,0.0-76.0-1.0,FALSE,FALSE,FALSE,TRUE,"""event"",""trial"",""time""
""fullscreenenter"",""5"",""17232""
","
","
","""event"",""trial"",""time""
""fullscreenenter"",""5"",""17232""
","
",504.51500000001397,NA,48,NA,NA,3000,1,NA,NA,images/purpleplanet.jpg,images/alien4,images/alien3,images/rocket2,images/alien4,images/t.png,2,real,false,2,rare,1,2020-06-20T19:06:42Z,sub128
two-step-fixation,137,757553,0.0-76.0-2.0,FALSE,FALSE,FALSE,TRUE,"""event"",""trial"",""time""
""fullscreenenter"",""5"",""17232""
","
","
","""event"",""trial"",""time""
""fullscreenenter"",""5"",""17232""
","
",NA,images/earth.jpg,NA,NA,NA,NA,NA,NA,NA,NA,NA,NA,NA,NA,NA,fixation,NA,NA,NA,NA,NA,NA,sub128
d3-animate-choice,138,760025,0.0-76.0-0.1,FALSE,FALSE,FALSE,TRUE,"""event"",""trial"",""time""
""fullscreenenter"",""5"",""17232""
","
","
","""event"",""trial"",""time""
""fullscreenenter"",""5"",""17232""
","
",462.26500000001397,NA,48,NA,NA,3000,1,NA,NA,images/earth.jpg,images/rocket1,images/rocket2,null,images/rocket1,NA,1,real,null,2,NA,NA,NA,sub128
d3-animate-choice,139,762833,0.0-76.0-1.1,FALSE,FALSE,FALSE,TRUE,"""event"",""trial"",""time""
""fullscreenenter"",""5"",""17232""
","
","
","""event"",""trial"",""time""
""fullscreenenter"",""5"",""17232""
","
",793.1800000000512,NA,48,NA,NA,3000,1,NA,NA,images/redplanet1.jpg,images/alien2,images/alien1,images/rocket1,images/alien2,images/t.png,2,real,false,2,rare,1,2020-06-20T19:06:49Z,sub128
two-step-fixation,140,763839,0.0-76.0-2.1,FALSE,FALSE,FALSE,TRUE,"""event"",""trial"",""time""
""fullscreenenter"",""5"",""17232""
","
","
","""event"",""trial"",""time""
""fullscreenenter"",""5"",""17232""
","
",NA,images/earth.jpg,NA,NA,NA,NA,NA,NA,NA,NA,NA,NA,NA,NA,NA,fixation,NA,NA,NA,NA,NA,NA,sub128
d3-animate-choice,141,766094,0.0-76.0-0.2,FALSE,FALSE,FALSE,TRUE,"""event"",""trial"",""time""
""fullscreenenter"",""5"",""17232""
","
","
","""event"",""trial"",""time""
""fullscreenenter"",""5"",""17232""
","
",244.7050000000745,NA,49,NA,NA,3000,1,NA,NA,images/earth.jpg,images/rocket1,images/rocket2,null,images/rocket2,NA,1,real,null,1,NA,NA,NA,sub128
d3-animate-choice,142,768714,0.0-76.0-1.2,FALSE,FALSE,FALSE,TRUE,"""event"",""trial"",""time""
""fullscreenenter"",""5"",""17232""
","
","
","""event"",""trial"",""time""
""fullscreenenter"",""5"",""17232""
","
",607.8150000000605,NA,49,NA,NA,3000,1,NA,NA,images/purpleplanet.jpg,images/alien4,images/alien3,images/rocket2,images/alien3,images/t.png,2,real,false,1,rare,1,2020-06-20T19:06:55Z,sub128
two-step-fixation,143,769727,0.0-76.0-2.2,FALSE,FALSE,FALSE,TRUE,"""event"",""trial"",""time""
""fullscreenenter"",""5"",""17232""
","
","
","""event"",""trial"",""time""
""fullscreenenter"",""5"",""17232""
","
",NA,images/earth.jpg,NA,NA,NA,NA,NA,NA,NA,NA,NA,NA,NA,NA,NA,fixation,NA,NA,NA,NA,NA,NA,sub128
d3-animate-choice,144,771808,0.0-76.0-0.3,FALSE,FALSE,FALSE,TRUE,"""event"",""trial"",""time""
""fullscreenenter"",""5"",""17232""
","
","
","""event"",""trial"",""time""
""fullscreenenter"",""5"",""17232""
","
",64.73500000010245,NA,49,NA,NA,3000,1,NA,NA,images/earth.jpg,images/rocket1,images/rocket2,null,images/rocket2,NA,1,real,null,1,NA,NA,NA,sub128
d3-animate-choice,145,774680,0.0-76.0-1.3,FALSE,FALSE,FALSE,TRUE,"""event"",""trial"",""time""
""fullscreenenter"",""5"",""17232""
","
","
","""event"",""trial"",""time""
""fullscreenenter"",""5"",""17232""
","
",859.625,NA,48,NA,NA,3000,1,NA,NA,images/redplanet1.jpg,images/alien2,images/alien1,images/rocket2,images/alien2,images/t.png,2,real,true,2,common,1,2020-06-20T19:07:01Z,sub128
two-step-fixation,146,775690,0.0-76.0-2.3,FALSE,FALSE,FALSE,TRUE,"""event"",""trial"",""time""
""fullscreenenter"",""5"",""17232""
","
","
","""event"",""trial"",""time""
""fullscreenenter"",""5"",""17232""
","
",NA,images/earth.jpg,NA,NA,NA,NA,NA,NA,NA,NA,NA,NA,NA,NA,NA,fixation,NA,NA,NA,NA,NA,NA,sub128
d3-animate-choice,147,777941,0.0-76.0-0.4,FALSE,FALSE,FALSE,TRUE,"""event"",""trial"",""time""
""fullscreenenter"",""5"",""17232""
","
","
","""event"",""trial"",""time""
""fullscreenenter"",""5"",""17232""
","
",237.10499999998137,NA,48,NA,NA,3000,1,NA,NA,images/earth.jpg,images/rocket1,images/rocket2,null,images/rocket1,NA,1,real,null,2,NA,NA,NA,sub128
d3-animate-choice,148,780567,0.0-76.0-1.4,FALSE,FALSE,FALSE,TRUE,"""event"",""trial"",""time""
""fullscreenenter"",""5"",""17232""
","
","
","""event"",""trial"",""time""
""fullscreenenter"",""5"",""17232""
","
",614.8249999999534,NA,48,NA,NA,3000,1,NA,NA,images/purpleplanet.jpg,images/alien4,images/alien3,images/rocket1,images/alien4,images/t.png,2,real,true,2,common,1,2020-06-20T19:07:06Z,sub128
two-step-fixation,149,781577,0.0-76.0-2.4,FALSE,FALSE,FALSE,TRUE,"""event"",""trial"",""time""
""fullscreenenter"",""5"",""17232""
","
","
","""event"",""trial"",""time""
""fullscreenenter"",""5"",""17232""
","
",NA,images/earth.jpg,NA,NA,NA,NA,NA,NA,NA,NA,NA,NA,NA,NA,NA,fixation,NA,NA,NA,NA,NA,NA,sub128
d3-animate-choice,150,783869,0.0-76.0-0.5,FALSE,FALSE,FALSE,TRUE,"""event"",""trial"",""time""
""fullscreenenter"",""5"",""17232""
","
","
","""event"",""trial"",""time""
""fullscreenenter"",""5"",""17232""
","
",277.27499999990687,NA,49,NA,NA,3000,1,NA,NA,images/earth.jpg,images/rocket1,images/rocket2,null,images/rocket2,NA,1,real,null,1,NA,NA,NA,sub128
d3-animate-choice,151,786829,0.0-76.0-1.5,FALSE,FALSE,FALSE,TRUE,"""event"",""trial"",""time""
""fullscreenenter"",""5"",""17232""
","
","
","""event"",""trial"",""time""
""fullscreenenter"",""5"",""17232""
","
",947.4200000001583,NA,49,NA,NA,3000,1,NA,NA,images/redplanet1.jpg,images/alien2,images/alien1,images/rocket2,images/alien1,images/t.png,2,real,true,1,common,1,2020-06-20T19:07:13Z,sub128
two-step-fixation,152,787839,0.0-76.0-2.5,FALSE,FALSE,FALSE,TRUE,"""event"",""trial"",""time""
""fullscreenenter"",""5"",""17232""
","
","
","""event"",""trial"",""time""
""fullscreenenter"",""5"",""17232""
","
",NA,images/earth.jpg,NA,NA,NA,NA,NA,NA,NA,NA,NA,NA,NA,NA,NA,fixation,NA,NA,NA,NA,NA,NA,sub128
d3-animate-choice,153,790004,0.0-76.0-0.6,FALSE,FALSE,FALSE,TRUE,"""event"",""trial"",""time""
""fullscreenenter"",""5"",""17232""
","
","
","""event"",""trial"",""time""
""fullscreenenter"",""5"",""17232""
","
",148.45999999984633,NA,49,NA,NA,3000,1,NA,NA,images/earth.jpg,images/rocket1,images/rocket2,null,images/rocket2,NA,1,real,null,1,NA,NA,NA,sub128
d3-animate-choice,154,792570,0.0-76.0-1.6,FALSE,FALSE,FALSE,TRUE,"""event"",""trial"",""time""
""fullscreenenter"",""5"",""17232""
","
","
","""event"",""trial"",""time""
""fullscreenenter"",""5"",""17232""
","
",554.1750000000466,NA,49,NA,NA,3000,1,NA,NA,images/redplanet1.jpg,images/alien2,images/alien1,images/rocket2,images/alien1,images/nothing.png,2,real,true,1,common,0,2020-06-20T19:07:18Z,sub128
two-step-fixation,155,793579,0.0-76.0-2.6,FALSE,FALSE,FALSE,TRUE,"""event"",""trial"",""time""
""fullscreenenter"",""5"",""17232""
","
","
","""event"",""trial"",""time""
""fullscreenenter"",""5"",""17232""
","
",NA,images/earth.jpg,NA,NA,NA,NA,NA,NA,NA,NA,NA,NA,NA,NA,NA,fixation,NA,NA,NA,NA,NA,NA,sub128
d3-animate-choice,156,795929,0.0-76.0-0.7,FALSE,FALSE,FALSE,TRUE,"""event"",""trial"",""time""
""fullscreenenter"",""5"",""17232""
","
","
","""event"",""trial"",""time""
""fullscreenenter"",""5"",""17232""
","
",335.8199999999488,NA,48,NA,NA,3000,1,1139.520000000135,48,images/earth.jpg,images/rocket1,images/rocket2,null,images/rocket1,NA,1,real,null,2,NA,NA,NA,sub128
d3-animate-choice,157,798180,0.0-76.0-1.7,FALSE,FALSE,FALSE,TRUE,"""event"",""trial"",""time""
""fullscreenenter"",""5"",""17232""
","
","
","""event"",""trial"",""time""
""fullscreenenter"",""5"",""17232""
","
",237.8100000001723,NA,48,NA,NA,3000,1,NA,NA,images/purpleplanet.jpg,images/alien4,images/alien3,images/rocket1,images/alien4,images/t.png,2,real,true,2,common,1,2020-06-20T19:07:24Z,sub128
two-step-fixation,158,799188,0.0-76.0-2.7,FALSE,FALSE,FALSE,TRUE,"""event"",""trial"",""time""
""fullscreenenter"",""5"",""17232""
","
","
","""event"",""trial"",""time""
""fullscreenenter"",""5"",""17232""
","
",NA,images/earth.jpg,NA,NA,NA,NA,NA,NA,NA,NA,NA,NA,NA,NA,NA,fixation,NA,NA,NA,NA,NA,NA,sub128
d3-animate-choice,159,801748,0.0-76.0-0.8,FALSE,FALSE,FALSE,TRUE,"""event"",""trial"",""time""
""fullscreenenter"",""5"",""17232""
","
","
","""event"",""trial"",""time""
""fullscreenenter"",""5"",""17232""
","
",540.7150000000838,NA,49,NA,NA,3000,1,2315.8450000000885,49,images/earth.jpg,images/rocket1,images/rocket2,null,images/rocket2,NA,1,real,null,1,NA,NA,NA,sub128
d3-animate-choice,160,804219,0.0-76.0-1.8,FALSE,FALSE,FALSE,TRUE,"""event"",""trial"",""time""
""fullscreenenter"",""5"",""17232""
","
","
","""event"",""trial"",""time""
""fullscreenenter"",""5"",""17232""
","
",453.3050000000512,NA,48,NA,NA,3000,1,NA,NA,images/redplanet1.jpg,images/alien2,images/alien1,images/rocket2,images/alien2,images/t.png,2,real,true,2,common,1,2020-06-20T19:07:30Z,sub128
two-step-fixation,161,805228,0.0-76.0-2.8,FALSE,FALSE,FALSE,TRUE,"""event"",""trial"",""time""
""fullscreenenter"",""5"",""17232""
","
","
","""event"",""trial"",""time""
""fullscreenenter"",""5"",""17232""
","
",NA,images/earth.jpg,NA,NA,NA,NA,NA,NA,NA,NA,NA,NA,NA,NA,NA,fixation,NA,NA,NA,NA,NA,NA,sub128
d3-animate-choice,162,807431,0.0-76.0-0.9,FALSE,FALSE,FALSE,TRUE,"""event"",""trial"",""time""
""fullscreenenter"",""5"",""17232""
","
","
","""event"",""trial"",""time""
""fullscreenenter"",""5"",""17232""
","
",188.11500000022352,NA,48,NA,NA,3000,1,NA,NA,images/earth.jpg,images/rocket1,images/rocket2,null,images/rocket1,NA,1,real,null,2,NA,NA,NA,sub128
d3-animate-choice,163,809762,0.0-76.0-1.9,FALSE,FALSE,FALSE,TRUE,"""event"",""trial"",""time""
""fullscreenenter"",""5"",""17232""
","
","
","""event"",""trial"",""time""
""fullscreenenter"",""5"",""17232""
","
",321.55999999993946,NA,49,NA,NA,3000,1,NA,NA,images/purpleplanet.jpg,images/alien4,images/alien3,images/rocket1,images/alien3,images/nothing.png,2,real,true,1,common,0,2020-06-20T19:07:36Z,sub128
two-step-fixation,164,810771,0.0-76.0-2.9,FALSE,FALSE,FALSE,TRUE,"""event"",""trial"",""time""
""fullscreenenter"",""5"",""17232""
","
","
","""event"",""trial"",""time""
""fullscreenenter"",""5"",""17232""
","
",NA,images/earth.jpg,NA,NA,NA,NA,NA,NA,NA,NA,NA,NA,NA,NA,NA,fixation,NA,NA,NA,NA,NA,NA,sub128
d3-animate-choice,165,813057,0.0-76.0-0.10,FALSE,FALSE,FALSE,TRUE,"""event"",""trial"",""time""
""fullscreenenter"",""5"",""17232""
","
","
","""event"",""trial"",""time""
""fullscreenenter"",""5"",""17232""
","
",279.4999999998836,NA,48,NA,NA,3000,1,NA,NA,images/earth.jpg,images/rocket1,images/rocket2,null,images/rocket1,NA,1,real,null,2,NA,NA,NA,sub128
d3-animate-choice,166,815425,0.0-76.0-1.10,FALSE,FALSE,FALSE,TRUE,"""event"",""trial"",""time""
""fullscreenenter"",""5"",""17232""
","
","
","""event"",""trial"",""time""
""fullscreenenter"",""5"",""17232""
","
",353.0450000000419,NA,48,NA,NA,3000,1,NA,NA,images/purpleplanet.jpg,images/alien4,images/alien3,images/rocket1,images/alien4,images/nothing.png,2,real,true,2,common,0,2020-06-20T19:07:41Z,sub128
two-step-fixation,167,816438,0.0-76.0-2.10,FALSE,FALSE,FALSE,TRUE,"""event"",""trial"",""time""
""fullscreenenter"",""5"",""17232""
","
","
","""event"",""trial"",""time""
""fullscreenenter"",""5"",""17232""
","
",NA,images/earth.jpg,NA,NA,NA,NA,NA,NA,NA,NA,NA,NA,NA,NA,NA,fixation,NA,NA,NA,NA,NA,NA,sub128
d3-animate-choice,168,818980,0.0-76.0-0.11,FALSE,FALSE,FALSE,TRUE,"""event"",""trial"",""time""
""fullscreenenter"",""5"",""17232""
","
","
","""event"",""trial"",""time""
""fullscreenenter"",""5"",""17232""
","
",532.1550000000279,NA,49,NA,NA,3000,1,NA,NA,images/earth.jpg,images/rocket1,images/rocket2,null,images/rocket2,NA,1,real,null,1,NA,NA,NA,sub128
d3-animate-choice,169,821523,0.0-76.0-1.11,FALSE,FALSE,FALSE,TRUE,"""event"",""trial"",""time""
""fullscreenenter"",""5"",""17232""
","
","
","""event"",""trial"",""time""
""fullscreenenter"",""5"",""17232""
","
",527.6850000000559,NA,49,NA,NA,3000,1,NA,NA,images/redplanet1.jpg,images/alien2,images/alien1,images/rocket2,images/alien1,images/t.png,2,real,true,1,common,1,2020-06-20T19:07:47Z,sub128
two-step-fixation,170,822533,0.0-76.0-2.11,FALSE,FALSE,FALSE,TRUE,"""event"",""trial"",""time""
""fullscreenenter"",""5"",""17232""
","
","
","""event"",""trial"",""time""
""fullscreenenter"",""5"",""17232""
","
",NA,images/earth.jpg,NA,NA,NA,NA,NA,NA,NA,NA,NA,NA,NA,NA,NA,fixation,NA,NA,NA,NA,NA,NA,sub128
d3-animate-choice,171,824947,0.0-76.0-0.12,FALSE,FALSE,FALSE,TRUE,"""event"",""trial"",""time""
""fullscreenenter"",""5"",""17232""
","
","
","""event"",""trial"",""time""
""fullscreenenter"",""5"",""17232""
","
",400.32500000006985,NA,48,NA,NA,3000,1,NA,NA,images/earth.jpg,images/rocket1,images/rocket2,null,images/rocket1,NA,1,real,null,2,NA,NA,NA,sub128
d3-animate-choice,172,827486,0.0-76.0-1.12,FALSE,FALSE,FALSE,TRUE,"""event"",""trial"",""time""
""fullscreenenter"",""5"",""17232""
","
","
","""event"",""trial"",""time""
""fullscreenenter"",""5"",""17232""
","
",525.9000000001397,NA,49,NA,NA,3000,1,NA,NA,images/purpleplanet.jpg,images/alien4,images/alien3,images/rocket1,images/alien3,images/nothing.png,2,real,true,1,common,0,2020-06-20T19:07:53Z,sub128
two-step-fixation,173,828497,0.0-76.0-2.12,FALSE,FALSE,FALSE,TRUE,"""event"",""trial"",""time""
""fullscreenenter"",""5"",""17232""
","
","
","""event"",""trial"",""time""
""fullscreenenter"",""5"",""17232""
","
",NA,images/earth.jpg,NA,NA,NA,NA,NA,NA,NA,NA,NA,NA,NA,NA,NA,fixation,NA,NA,NA,NA,NA,NA,sub128
d3-animate-choice,174,830708,0.0-76.0-0.13,FALSE,FALSE,FALSE,TRUE,"""event"",""trial"",""time""
""fullscreenenter"",""5"",""17232""
","
","
","""event"",""trial"",""time""
""fullscreenenter"",""5"",""17232""
","
",198.55000000004657,NA,49,NA,NA,3000,1,NA,NA,images/earth.jpg,images/rocket1,images/rocket2,null,images/rocket2,NA,1,real,null,1,NA,NA,NA,sub128
d3-animate-choice,175,833298,0.0-76.0-1.13,FALSE,FALSE,FALSE,TRUE,"""event"",""trial"",""time""
""fullscreenenter"",""5"",""17232""
","
","
","""event"",""trial"",""time""
""fullscreenenter"",""5"",""17232""
","
",572.7399999998743,NA,48,NA,NA,3000,1,NA,NA,images/purpleplanet.jpg,images/alien4,images/alien3,images/rocket2,images/alien4,images/t.png,2,real,false,2,rare,1,2020-06-20T19:07:59Z,sub128
two-step-fixation,176,834306,0.0-76.0-2.13,FALSE,FALSE,FALSE,TRUE,"""event"",""trial"",""time""
""fullscreenenter"",""5"",""17232""
","
","
","""event"",""trial"",""time""
""fullscreenenter"",""5"",""17232""
","
",NA,images/earth.jpg,NA,NA,NA,NA,NA,NA,NA,NA,NA,NA,NA,NA,NA,fixation,NA,NA,NA,NA,NA,NA,sub128
d3-animate-choice,177,836701,0.0-76.0-0.14,FALSE,FALSE,FALSE,TRUE,"""event"",""trial"",""time""
""fullscreenenter"",""5"",""17232""
","
","
","""event"",""trial"",""time""
""fullscreenenter"",""5"",""17232""
","
",382.65500000014435,NA,49,NA,NA,3000,1,NA,NA,images/earth.jpg,images/rocket1,images/rocket2,null,images/rocket2,NA,1,real,null,1,NA,NA,NA,sub128
d3-animate-choice,178,839040,0.0-76.0-1.14,FALSE,FALSE,FALSE,TRUE,"""event"",""trial"",""time""
""fullscreenenter"",""5"",""17232""
","
","
","""event"",""trial"",""time""
""fullscreenenter"",""5"",""17232""
","
",329.0649999999441,NA,48,NA,NA,3000,1,NA,NA,images/purpleplanet.jpg,images/alien4,images/alien3,images/rocket2,images/alien4,images/nothing.png,2,real,false,2,rare,0,2020-06-20T19:08:05Z,sub128
two-step-fixation,179,840049,0.0-76.0-2.14,FALSE,FALSE,FALSE,TRUE,"""event"",""trial"",""time""
""fullscreenenter"",""5"",""17232""
","
","
","""event"",""trial"",""time""
""fullscreenenter"",""5"",""17232""
","
",NA,images/earth.jpg,NA,NA,NA,NA,NA,NA,NA,NA,NA,NA,NA,NA,NA,fixation,NA,NA,NA,NA,NA,NA,sub128
d3-animate-choice,180,842338,0.0-76.0-0.15,FALSE,FALSE,FALSE,TRUE,"""event"",""trial"",""time""
""fullscreenenter"",""5"",""17232""
","
","
","""event"",""trial"",""time""
""fullscreenenter"",""5"",""17232""
","
",280.14000000001397,NA,48,NA,NA,3000,1,NA,NA,images/earth.jpg,images/rocket1,images/rocket2,null,images/rocket1,NA,1,real,null,2,NA,NA,NA,sub128
d3-animate-choice,181,844695,0.0-76.0-1.15,FALSE,FALSE,FALSE,TRUE,"""event"",""trial"",""time""
""fullscreenenter"",""5"",""17232""
","
","
","""event"",""trial"",""time""
""fullscreenenter"",""5"",""17232""
","
",341.7750000001397,NA,48,NA,NA,3000,1,NA,NA,images/purpleplanet.jpg,images/alien4,images/alien3,images/rocket1,images/alien4,images/t.png,2,real,true,2,common,1,2020-06-20T19:08:11Z,sub128
two-step-fixation,182,845707,0.0-76.0-2.15,FALSE,FALSE,FALSE,TRUE,"""event"",""trial"",""time""
""fullscreenenter"",""5"",""17232""
","
","
","""event"",""trial"",""time""
""fullscreenenter"",""5"",""17232""
","
",NA,images/earth.jpg,NA,NA,NA,NA,NA,NA,NA,NA,NA,NA,NA,NA,NA,fixation,NA,NA,NA,NA,NA,NA,sub128
d3-animate-choice,183,847945,0.0-76.0-0.16,FALSE,FALSE,FALSE,TRUE,"""event"",""trial"",""time""
""fullscreenenter"",""5"",""17232""
","
","
","""event"",""trial"",""time""
""fullscreenenter"",""5"",""17232""
","
",213.3850000000093,NA,49,NA,NA,3000,1,NA,NA,images/earth.jpg,images/rocket1,images/rocket2,null,images/rocket2,NA,1,real,null,1,NA,NA,NA,sub128
d3-animate-choice,184,850585,0.0-76.0-1.16,FALSE,FALSE,FALSE,TRUE,"""event"",""trial"",""time""
""fullscreenenter"",""5"",""17232""
","
","
","""event"",""trial"",""time""
""fullscreenenter"",""5"",""17232""
","
",622.7149999999674,NA,48,NA,NA,3000,1,NA,NA,images/purpleplanet.jpg,images/alien4,images/alien3,images/rocket2,images/alien4,images/nothing.png,2,real,false,2,rare,0,2020-06-20T19:08:16Z,sub128
two-step-fixation,185,851595,0.0-76.0-2.16,FALSE,FALSE,FALSE,TRUE,"""event"",""trial"",""time""
""fullscreenenter"",""5"",""17232""
","
","
","""event"",""trial"",""time""
""fullscreenenter"",""5"",""17232""
","
",NA,images/earth.jpg,NA,NA,NA,NA,NA,NA,NA,NA,NA,NA,NA,NA,NA,fixation,NA,NA,NA,NA,NA,NA,sub128
d3-animate-choice,186,853634,0.0-76.0-0.17,FALSE,FALSE,FALSE,TRUE,"""event"",""trial"",""time""
""fullscreenenter"",""5"",""17232""
","
","
","""event"",""trial"",""time""
""fullscreenenter"",""5"",""17232""
","
",25.070000000065193,NA,49,NA,NA,3000,1,NA,NA,images/earth.jpg,images/rocket1,images/rocket2,null,images/rocket2,NA,1,real,null,1,NA,NA,NA,sub128
d3-animate-choice,187,856046,0.0-76.0-1.17,FALSE,FALSE,FALSE,TRUE,"""event"",""trial"",""time""
""fullscreenenter"",""5"",""17232""
","
","
","""event"",""trial"",""time""
""fullscreenenter"",""5"",""17232""
","
",401.8100000000559,NA,49,NA,NA,3000,1,NA,NA,images/redplanet1.jpg,images/alien2,images/alien1,images/rocket2,images/alien1,images/t.png,2,real,true,1,common,1,2020-06-20T19:08:22Z,sub128
two-step-fixation,188,857057,0.0-76.0-2.17,FALSE,FALSE,FALSE,TRUE,"""event"",""trial"",""time""
""fullscreenenter"",""5"",""17232""
","
","
","""event"",""trial"",""time""
""fullscreenenter"",""5"",""17232""
","
",NA,images/earth.jpg,NA,NA,NA,NA,NA,NA,NA,NA,NA,NA,NA,NA,NA,fixation,NA,NA,NA,NA,NA,NA,sub128
d3-animate-choice,189,859434,0.0-76.0-0.18,FALSE,FALSE,FALSE,TRUE,"""event"",""trial"",""time""
""fullscreenenter"",""5"",""17232""
","
","
","""event"",""trial"",""time""
""fullscreenenter"",""5"",""17232""
","
",364.66500000003725,NA,48,NA,NA,3000,1,NA,NA,images/earth.jpg,images/rocket1,images/rocket2,null,images/rocket1,NA,1,real,null,2,NA,NA,NA,sub128
d3-animate-choice,190,861666,0.0-76.0-1.18,FALSE,FALSE,FALSE,TRUE,"""event"",""trial"",""time""
""fullscreenenter"",""5"",""17232""
","
","
","""event"",""trial"",""time""
""fullscreenenter"",""5"",""17232""
","
",221.05500000005122,NA,49,NA,NA,3000,1,1868.6350000001257,48,images/purpleplanet.jpg,images/alien4,images/alien3,images/rocket1,images/alien3,images/t.png,2,real,true,1,common,1,2020-06-20T19:08:27Z,sub128
two-step-fixation,191,862674,0.0-76.0-2.18,FALSE,FALSE,FALSE,TRUE,"""event"",""trial"",""time""
""fullscreenenter"",""5"",""17232""
","
","
","""event"",""trial"",""time""
""fullscreenenter"",""5"",""17232""
","
",NA,images/earth.jpg,NA,NA,NA,NA,NA,NA,NA,NA,NA,NA,NA,NA,NA,fixation,NA,NA,NA,NA,NA,NA,sub128
d3-animate-choice,192,865001,0.0-76.0-0.19,FALSE,FALSE,FALSE,TRUE,"""event"",""trial"",""time""
""fullscreenenter"",""5"",""17232""
","
","
","""event"",""trial"",""time""
""fullscreenenter"",""5"",""17232""
","
",315.6899999999441,NA,48,NA,NA,3000,1,NA,NA,images/earth.jpg,images/rocket1,images/rocket2,null,images/rocket1,NA,1,real,null,2,NA,NA,NA,sub128
d3-animate-choice,193,867573,0.0-76.0-1.19,FALSE,FALSE,FALSE,TRUE,"""event"",""trial"",""time""
""fullscreenenter"",""5"",""17232""
","
","
","""event"",""trial"",""time""
""fullscreenenter"",""5"",""17232""
","
",562.5649999999441,NA,48,NA,NA,3000,1,NA,NA,images/purpleplanet.jpg,images/alien4,images/alien3,images/rocket1,images/alien4,images/t.png,2,real,true,2,common,1,2020-06-20T19:08:33Z,sub128
two-step-fixation,194,868586,0.0-76.0-2.19,FALSE,FALSE,FALSE,TRUE,"""event"",""trial"",""time""
""fullscreenenter"",""5"",""17232""
","
","
","""event"",""trial"",""time""
""fullscreenenter"",""5"",""17232""
","
",NA,images/earth.jpg,NA,NA,NA,NA,NA,NA,NA,NA,NA,NA,NA,NA,NA,fixation,NA,NA,NA,NA,NA,NA,sub128
d3-animate-choice,195,870840,0.0-76.0-0.20,FALSE,FALSE,FALSE,TRUE,"""event"",""trial"",""time""
""fullscreenenter"",""5"",""17232""
","
","
","""event"",""trial"",""time""
""fullscreenenter"",""5"",""17232""
","
",243.1700000000419,NA,49,NA,NA,3000,1,NA,NA,images/earth.jpg,images/rocket1,images/rocket2,null,images/rocket2,NA,1,real,null,1,NA,NA,NA,sub128
d3-animate-choice,196,873506,0.0-76.0-1.20,FALSE,FALSE,FALSE,TRUE,"""event"",""trial"",""time""
""fullscreenenter"",""5"",""17232""
","
","
","""event"",""trial"",""time""
""fullscreenenter"",""5"",""17232""
","
",651.9099999997998,NA,49,NA,NA,3000,1,NA,NA,images/redplanet1.jpg,images/alien2,images/alien1,images/rocket2,images/alien1,images/t.png,2,real,true,1,common,1,2020-06-20T19:08:39Z,sub128
two-step-fixation,197,874516,0.0-76.0-2.20,FALSE,FALSE,FALSE,TRUE,"""event"",""trial"",""time""
""fullscreenenter"",""5"",""17232""
","
","
","""event"",""trial"",""time""
""fullscreenenter"",""5"",""17232""
","
",NA,images/earth.jpg,NA,NA,NA,NA,NA,NA,NA,NA,NA,NA,NA,NA,NA,fixation,NA,NA,NA,NA,NA,NA,sub128
d3-animate-choice,198,876877,0.0-76.0-0.21,FALSE,FALSE,FALSE,TRUE,"""event"",""trial"",""time""
""fullscreenenter"",""5"",""17232""
","
","
","""event"",""trial"",""time""
""fullscreenenter"",""5"",""17232""
","
",346.19999999995343,NA,48,NA,NA,3000,1,NA,NA,images/earth.jpg,images/rocket1,images/rocket2,null,images/rocket1,NA,1,real,null,2,NA,NA,NA,sub128
d3-animate-choice,199,879215,0.0-76.0-1.21,FALSE,FALSE,FALSE,TRUE,"""event"",""trial"",""time""
""fullscreenenter"",""5"",""17232""
","
","
","""event"",""trial"",""time""
""fullscreenenter"",""5"",""17232""
","
",324.1450000000186,NA,49,NA,NA,3000,1,NA,NA,images/purpleplanet.jpg,images/alien4,images/alien3,images/rocket1,images/alien3,images/t.png,2,real,true,1,common,1,2020-06-20T19:08:45Z,sub128
two-step-fixation,200,880224,0.0-76.0-2.21,FALSE,FALSE,FALSE,TRUE,"""event"",""trial"",""time""
""fullscreenenter"",""5"",""17232""
","
","
","""event"",""trial"",""time""
""fullscreenenter"",""5"",""17232""
","
",NA,images/earth.jpg,NA,NA,NA,NA,NA,NA,NA,NA,NA,NA,NA,NA,NA,fixation,NA,NA,NA,NA,NA,NA,sub128
d3-animate-choice,201,882764,0.0-76.0-0.22,FALSE,FALSE,FALSE,TRUE,"""event"",""trial"",""time""
""fullscreenenter"",""5"",""17232""
","
","
","""event"",""trial"",""time""
""fullscreenenter"",""5"",""17232""
","
",524.4299999999348,NA,49,NA,NA,3000,1,NA,NA,images/earth.jpg,images/rocket1,images/rocket2,null,images/rocket2,NA,1,real,null,1,NA,NA,NA,sub128
d3-animate-choice,202,885151,0.0-76.0-1.22,FALSE,FALSE,FALSE,TRUE,"""event"",""trial"",""time""
""fullscreenenter"",""5"",""17232""
","
","
","""event"",""trial"",""time""
""fullscreenenter"",""5"",""17232""
","
",379.7300000002142,NA,48,NA,NA,3000,1,NA,NA,images/purpleplanet.jpg,images/alien4,images/alien3,images/rocket2,images/alien4,images/t.png,2,real,false,2,rare,1,2020-06-20T19:08:51Z,sub128
two-step-fixation,203,886157,0.0-76.0-2.22,FALSE,FALSE,FALSE,TRUE,"""event"",""trial"",""time""
""fullscreenenter"",""5"",""17232""
","
","
","""event"",""trial"",""time""
""fullscreenenter"",""5"",""17232""
","
",NA,images/earth.jpg,NA,NA,NA,NA,NA,NA,NA,NA,NA,NA,NA,NA,NA,fixation,NA,NA,NA,NA,NA,NA,sub128
d3-animate-choice,204,888475,0.0-76.0-0.23,FALSE,FALSE,FALSE,TRUE,"""event"",""trial"",""time""
""fullscreenenter"",""5"",""17232""
","
","
","""event"",""trial"",""time""
""fullscreenenter"",""5"",""17232""
","
",307.0150000001304,NA,48,NA,NA,3000,1,NA,NA,images/earth.jpg,images/rocket1,images/rocket2,null,images/rocket1,NA,1,real,null,2,NA,NA,NA,sub128
d3-animate-choice,205,890862,0.0-76.0-1.23,FALSE,FALSE,FALSE,TRUE,"""event"",""trial"",""time""
""fullscreenenter"",""5"",""17232""
","
","
","""event"",""trial"",""time""
""fullscreenenter"",""5"",""17232""
","
",377.59499999997206,NA,49,NA,NA,3000,1,NA,NA,images/purpleplanet.jpg,images/alien4,images/alien3,images/rocket1,images/alien3,images/nothing.png,2,real,true,1,common,0,2020-06-20T19:08:57Z,sub128
two-step-fixation,206,891872,0.0-76.0-2.23,FALSE,FALSE,FALSE,TRUE,"""event"",""trial"",""time""
""fullscreenenter"",""5"",""17232""
","
","
","""event"",""trial"",""time""
""fullscreenenter"",""5"",""17232""
","
",NA,images/earth.jpg,NA,NA,NA,NA,NA,NA,NA,NA,NA,NA,NA,NA,NA,fixation,NA,NA,NA,NA,NA,NA,sub128
d3-animate-choice,207,894095,0.0-76.0-0.24,FALSE,FALSE,FALSE,TRUE,"""event"",""trial"",""time""
""fullscreenenter"",""5"",""17232""
","
","
","""event"",""trial"",""time""
""fullscreenenter"",""5"",""17232""
","
",206.76500000013039,NA,48,NA,NA,3000,1,NA,NA,images/earth.jpg,images/rocket1,images/rocket2,null,images/rocket1,NA,1,real,null,2,NA,NA,NA,sub128
d3-animate-choice,208,896483,0.0-76.0-1.24,FALSE,FALSE,FALSE,TRUE,"""event"",""trial"",""time""
""fullscreenenter"",""5"",""17232""
","
","
","""event"",""trial"",""time""
""fullscreenenter"",""5"",""17232""
","
",201.27000000001863,NA,16,NA,NA,3000,1,375.41499999992084,48,images/purpleplanet.jpg,images/alien4,images/alien3,images/rocket1,images/alien4,images/t.png,2,real,true,NA,common,1,2020-06-20T19:09:02Z,sub128
two-step-fixation,209,897493,0.0-76.0-2.24,FALSE,FALSE,FALSE,TRUE,"""event"",""trial"",""time""
""fullscreenenter"",""5"",""17232""
","
","
","""event"",""trial"",""time""
""fullscreenenter"",""5"",""17232""
","
",NA,images/earth.jpg,NA,NA,NA,NA,NA,NA,NA,NA,NA,NA,NA,NA,NA,fixation,NA,NA,NA,NA,NA,NA,sub128
d3-animate-choice,210,899714,0.0-76.0-0.25,FALSE,FALSE,FALSE,TRUE,"""event"",""trial"",""time""
""fullscreenenter"",""5"",""17232""
","
","
","""event"",""trial"",""time""
""fullscreenenter"",""5"",""17232""
","
",205.66499999992084,NA,48,NA,NA,3000,1,NA,NA,images/earth.jpg,images/rocket1,images/rocket2,null,images/rocket1,NA,1,real,null,2,NA,NA,NA,sub128
d3-animate-choice,211,902076,0.0-76.0-1.25,FALSE,FALSE,FALSE,TRUE,"""event"",""trial"",""time""
""fullscreenenter"",""5"",""17232""
","
","
","""event"",""trial"",""time""
""fullscreenenter"",""5"",""17232""
","
",347.3849999997765,NA,48,NA,NA,3000,1,NA,NA,images/redplanet1.jpg,images/alien2,images/alien1,images/rocket1,images/alien2,images/t.png,2,real,false,2,rare,1,2020-06-20T19:09:08Z,sub128
two-step-fixation,212,903083,0.0-76.0-2.25,FALSE,FALSE,FALSE,TRUE,"""event"",""trial"",""time""
""fullscreenenter"",""5"",""17232""
","
","
","""event"",""trial"",""time""
""fullscreenenter"",""5"",""17232""
","
",NA,images/earth.jpg,NA,NA,NA,NA,NA,NA,NA,NA,NA,NA,NA,NA,NA,fixation,NA,NA,NA,NA,NA,NA,sub128
d3-animate-choice,213,905551,0.0-76.0-0.26,FALSE,FALSE,FALSE,TRUE,"""event"",""trial"",""time""
""fullscreenenter"",""5"",""17232""
","
","
","""event"",""trial"",""time""
""fullscreenenter"",""5"",""17232""
","
",453.9450000000652,NA,48,NA,NA,3000,1,2184.405000000028,48,images/earth.jpg,images/rocket1,images/rocket2,null,images/rocket1,NA,1,real,null,2,NA,NA,NA,sub128
d3-animate-choice,214,907930,0.0-76.0-1.26,FALSE,FALSE,FALSE,TRUE,"""event"",""trial"",""time""
""fullscreenenter"",""5"",""17232""
","
","
","""event"",""trial"",""time""
""fullscreenenter"",""5"",""17232""
","
",365.8299999999581,NA,48,NA,NA,3000,1,NA,NA,images/redplanet1.jpg,images/alien2,images/alien1,images/rocket1,images/alien2,images/t.png,2,real,false,2,rare,1,2020-06-20T19:09:14Z,sub128
two-step-fixation,215,908939,0.0-76.0-2.26,FALSE,FALSE,FALSE,TRUE,"""event"",""trial"",""time""
""fullscreenenter"",""5"",""17232""
","
","
","""event"",""trial"",""time""
""fullscreenenter"",""5"",""17232""
","
",NA,images/earth.jpg,NA,NA,NA,NA,NA,NA,NA,NA,NA,NA,NA,NA,NA,fixation,NA,NA,NA,NA,NA,NA,sub128
d3-animate-choice,216,911263,0.0-76.0-0.27,FALSE,FALSE,FALSE,TRUE,"""event"",""trial"",""time""
""fullscreenenter"",""5"",""17232""
","
","
","""event"",""trial"",""time""
""fullscreenenter"",""5"",""17232""
","
",305.6500000000233,NA,49,NA,NA,3000,1,NA,NA,images/earth.jpg,images/rocket1,images/rocket2,null,images/rocket2,NA,1,real,null,1,NA,NA,NA,sub128
d3-animate-choice,217,913350,0.0-76.0-1.27,FALSE,FALSE,FALSE,TRUE,"""event"",""trial"",""time""
""fullscreenenter"",""5"",""17232""
","
","
","""event"",""trial"",""time""
""fullscreenenter"",""5"",""17232""
","
",73.62000000011176,NA,48,NA,NA,3000,1,NA,NA,images/redplanet1.jpg,images/alien2,images/alien1,images/rocket2,images/alien2,images/t.png,2,real,true,2,common,1,2020-06-20T19:09:19Z,sub128
two-step-fixation,218,914359,0.0-76.0-2.27,FALSE,FALSE,FALSE,TRUE,"""event"",""trial"",""time""
""fullscreenenter"",""5"",""17232""
","
","
","""event"",""trial"",""time""
""fullscreenenter"",""5"",""17232""
","
",NA,images/earth.jpg,NA,NA,NA,NA,NA,NA,NA,NA,NA,NA,NA,NA,NA,fixation,NA,NA,NA,NA,NA,NA,sub128
d3-animate-choice,219,916838,0.0-76.0-0.28,FALSE,FALSE,FALSE,TRUE,"""event"",""trial"",""time""
""fullscreenenter"",""5"",""17232""
","
","
","""event"",""trial"",""time""
""fullscreenenter"",""5"",""17232""
","
",464.04000000015367,NA,48,NA,NA,3000,1,NA,NA,images/earth.jpg,images/rocket1,images/rocket2,null,images/rocket1,NA,1,real,null,2,NA,NA,NA,sub128
d3-animate-choice,220,919255,0.0-76.0-1.28,FALSE,FALSE,FALSE,TRUE,"""event"",""trial"",""time""
""fullscreenenter"",""5"",""17232""
","
","
","""event"",""trial"",""time""
""fullscreenenter"",""5"",""17232""
","
",406.25,NA,48,NA,NA,3000,1,NA,NA,images/redplanet1.jpg,images/alien2,images/alien1,images/rocket1,images/alien2,images/t.png,2,real,false,2,rare,1,2020-06-20T19:09:25Z,sub128
two-step-fixation,221,920268,0.0-76.0-2.28,FALSE,FALSE,FALSE,TRUE,"""event"",""trial"",""time""
""fullscreenenter"",""5"",""17232""
","
","
","""event"",""trial"",""time""
""fullscreenenter"",""5"",""17232""
","
",NA,images/earth.jpg,NA,NA,NA,NA,NA,NA,NA,NA,NA,NA,NA,NA,NA,fixation,NA,NA,NA,NA,NA,NA,sub128
d3-animate-choice,222,922717,0.0-76.0-0.29,FALSE,FALSE,FALSE,TRUE,"""event"",""trial"",""time""
""fullscreenenter"",""5"",""17232""
","
","
","""event"",""trial"",""time""
""fullscreenenter"",""5"",""17232""
","
",439.16500000003725,NA,49,NA,NA,3000,1,NA,NA,images/earth.jpg,images/rocket1,images/rocket2,null,images/rocket2,NA,1,real,null,1,NA,NA,NA,sub128
d3-animate-choice,223,924956,0.0-76.0-1.29,FALSE,FALSE,FALSE,TRUE,"""event"",""trial"",""time""
""fullscreenenter"",""5"",""17232""
","
","
","""event"",""trial"",""time""
""fullscreenenter"",""5"",""17232""
","
",226.55999999982305,NA,49,NA,NA,3000,1,NA,NA,images/redplanet1.jpg,images/alien2,images/alien1,images/rocket2,images/alien1,images/t.png,2,real,true,1,common,1,2020-06-20T19:09:31Z,sub128
two-step-fixation,224,925964,0.0-76.0-2.29,FALSE,FALSE,FALSE,TRUE,"""event"",""trial"",""time""
""fullscreenenter"",""5"",""17232""
","
","
","""event"",""trial"",""time""
""fullscreenenter"",""5"",""17232""
","
",NA,images/earth.jpg,NA,NA,NA,NA,NA,NA,NA,NA,NA,NA,NA,NA,NA,fixation,NA,NA,NA,NA,NA,NA,sub128
d3-animate-choice,225,928273,0.0-76.0-0.30,FALSE,FALSE,FALSE,TRUE,"""event"",""trial"",""time""
""fullscreenenter"",""5"",""17232""
","
","
","""event"",""trial"",""time""
""fullscreenenter"",""5"",""17232""
","
",297.69000000006054,NA,49,NA,NA,3000,1,NA,NA,images/earth.jpg,images/rocket1,images/rocket2,null,images/rocket2,NA,1,real,null,1,NA,NA,NA,sub128
d3-animate-choice,226,930647,0.0-76.0-1.30,FALSE,FALSE,FALSE,TRUE,"""event"",""trial"",""time""
""fullscreenenter"",""5"",""17232""
","
","
","""event"",""trial"",""time""
""fullscreenenter"",""5"",""17232""
","
",360.7399999999907,NA,48,NA,NA,3000,1,NA,NA,images/redplanet1.jpg,images/alien2,images/alien1,images/rocket2,images/alien2,images/t.png,2,real,true,2,common,1,2020-06-20T19:09:36Z,sub128
two-step-fixation,227,931657,0.0-76.0-2.30,FALSE,FALSE,FALSE,TRUE,"""event"",""trial"",""time""
""fullscreenenter"",""5"",""17232""
","
","
","""event"",""trial"",""time""
""fullscreenenter"",""5"",""17232""
","
",NA,images/earth.jpg,NA,NA,NA,NA,NA,NA,NA,NA,NA,NA,NA,NA,NA,fixation,NA,NA,NA,NA,NA,NA,sub128
d3-animate-choice,228,934266,0.0-76.0-0.31,FALSE,FALSE,FALSE,TRUE,"""event"",""trial"",""time""
""fullscreenenter"",""5"",""17232""
","
","
","""event"",""trial"",""time""
""fullscreenenter"",""5"",""17232""
","
",593.8299999999581,NA,49,NA,NA,3000,1,NA,NA,images/earth.jpg,images/rocket1,images/rocket2,null,images/rocket2,NA,1,real,null,1,NA,NA,NA,sub128
d3-animate-choice,229,936578,0.0-76.0-1.31,FALSE,FALSE,FALSE,TRUE,"""event"",""trial"",""time""
""fullscreenenter"",""5"",""17232""
","
","
","""event"",""trial"",""time""
""fullscreenenter"",""5"",""17232""
","
",303.0800000001909,NA,48,NA,NA,3000,1,NA,NA,images/redplanet1.jpg,images/alien2,images/alien1,images/rocket2,images/alien2,images/t.png,2,real,true,2,common,1,2020-06-20T19:09:42Z,sub128
two-step-fixation,230,937589,0.0-76.0-2.31,FALSE,FALSE,FALSE,TRUE,"""event"",""trial"",""time""
""fullscreenenter"",""5"",""17232""
","
","
","""event"",""trial"",""time""
""fullscreenenter"",""5"",""17232""
","
",NA,images/earth.jpg,NA,NA,NA,NA,NA,NA,NA,NA,NA,NA,NA,NA,NA,fixation,NA,NA,NA,NA,NA,NA,sub128
d3-animate-choice,231,939863,0.0-76.0-0.32,FALSE,FALSE,FALSE,TRUE,"""event"",""trial"",""time""
""fullscreenenter"",""5"",""17232""
","
","
","""event"",""trial"",""time""
""fullscreenenter"",""5"",""17232""
","
",258.46999999997206,NA,49,NA,NA,3000,1,NA,NA,images/earth.jpg,images/rocket1,images/rocket2,null,images/rocket2,NA,1,real,null,1,NA,NA,NA,sub128
d3-animate-choice,232,942210,0.0-76.0-1.32,FALSE,FALSE,FALSE,TRUE,"""event"",""trial"",""time""
""fullscreenenter"",""5"",""17232""
","
","
","""event"",""trial"",""time""
""fullscreenenter"",""5"",""17232""
","
",334.7750000000233,NA,48,NA,NA,3000,1,NA,NA,images/redplanet1.jpg,images/alien2,images/alien1,images/rocket2,images/alien2,images/t.png,2,real,true,2,common,1,2020-06-20T19:09:48Z,sub128
two-step-fixation,233,943222,0.0-76.0-2.32,FALSE,FALSE,FALSE,TRUE,"""event"",""trial"",""time""
""fullscreenenter"",""5"",""17232""
","
","
","""event"",""trial"",""time""
""fullscreenenter"",""5"",""17232""
","
",NA,images/earth.jpg,NA,NA,NA,NA,NA,NA,NA,NA,NA,NA,NA,NA,NA,fixation,NA,NA,NA,NA,NA,NA,sub128
d3-animate-choice,234,945462,0.0-76.0-0.33,FALSE,FALSE,FALSE,TRUE,"""event"",""trial"",""time""
""fullscreenenter"",""5"",""17232""
","
","
","""event"",""trial"",""time""
""fullscreenenter"",""5"",""17232""
","
",225.69000000029337,NA,49,NA,NA,3000,1,NA,NA,images/earth.jpg,images/rocket1,images/rocket2,null,images/rocket2,NA,1,real,null,1,NA,NA,NA,sub128
d3-animate-choice,235,947806,0.0-76.0-1.33,FALSE,FALSE,FALSE,TRUE,"""event"",""trial"",""time""
""fullscreenenter"",""5"",""17232""
","
","
","""event"",""trial"",""time""
""fullscreenenter"",""5"",""17232""
","
",329.4350000001723,NA,48,NA,NA,3000,1,NA,NA,images/redplanet1.jpg,images/alien2,images/alien1,images/rocket2,images/alien2,images/nothing.png,2,real,true,2,common,0,2020-06-20T19:09:54Z,sub128
two-step-fixation,236,948820,0.0-76.0-2.33,FALSE,FALSE,FALSE,TRUE,"""event"",""trial"",""time""
""fullscreenenter"",""5"",""17232""
","
","
","""event"",""trial"",""time""
""fullscreenenter"",""5"",""17232""
","
",NA,images/earth.jpg,NA,NA,NA,NA,NA,NA,NA,NA,NA,NA,NA,NA,NA,fixation,NA,NA,NA,NA,NA,NA,sub128
d3-animate-choice,237,950861,0.0-76.0-0.34,FALSE,FALSE,FALSE,TRUE,"""event"",""trial"",""time""
""fullscreenenter"",""5"",""17232""
","
","
","""event"",""trial"",""time""
""fullscreenenter"",""5"",""17232""
","
",25.339999999967404,NA,49,NA,NA,3000,1,NA,NA,images/earth.jpg,images/rocket1,images/rocket2,null,images/rocket2,NA,1,real,null,1,NA,NA,NA,sub128
d3-animate-choice,238,953149,0.0-76.0-1.34,FALSE,FALSE,FALSE,TRUE,"""event"",""trial"",""time""
""fullscreenenter"",""5"",""17232""
","
","
","""event"",""trial"",""time""
""fullscreenenter"",""5"",""17232""
","
",275.41500000003725,NA,48,NA,NA,3000,1,NA,NA,images/redplanet1.jpg,images/alien2,images/alien1,images/rocket2,images/alien2,images/nothing.png,2,real,true,2,common,0,2020-06-20T19:09:59Z,sub128
two-step-fixation,239,954157,0.0-76.0-2.34,FALSE,FALSE,FALSE,TRUE,"""event"",""trial"",""time""
""fullscreenenter"",""5"",""17232""
","
","
","""event"",""trial"",""time""
""fullscreenenter"",""5"",""17232""
","
",NA,images/earth.jpg,NA,NA,NA,NA,NA,NA,NA,NA,NA,NA,NA,NA,NA,fixation,NA,NA,NA,NA,NA,NA,sub128
d3-animate-choice,240,956478,0.0-76.0-0.35,FALSE,FALSE,FALSE,TRUE,"""event"",""trial"",""time""
""fullscreenenter"",""5"",""17232""
","
","
","""event"",""trial"",""time""
""fullscreenenter"",""5"",""17232""
","
",307.8450000000885,NA,49,NA,NA,3000,1,NA,NA,images/earth.jpg,images/rocket1,images/rocket2,null,images/rocket2,NA,1,real,null,1,NA,NA,NA,sub128
d3-animate-choice,241,958860,0.0-76.0-1.35,FALSE,FALSE,FALSE,TRUE,"""event"",""trial"",""time""
""fullscreenenter"",""5"",""17232""
","
","
","""event"",""trial"",""time""
""fullscreenenter"",""5"",""17232""
","
",370.96999999997206,NA,49,NA,NA,3000,1,NA,NA,images/purpleplanet.jpg,images/alien4,images/alien3,images/rocket2,images/alien3,images/nothing.png,2,real,false,1,rare,0,2020-06-20T19:10:05Z,sub128
two-step-fixation,242,959871,0.0-76.0-2.35,FALSE,FALSE,FALSE,TRUE,"""event"",""trial"",""time""
""fullscreenenter"",""5"",""17232""
","
","
","""event"",""trial"",""time""
""fullscreenenter"",""5"",""17232""
","
",NA,images/earth.jpg,NA,NA,NA,NA,NA,NA,NA,NA,NA,NA,NA,NA,NA,fixation,NA,NA,NA,NA,NA,NA,sub128
d3-animate-choice,243,962233,0.0-76.0-0.36,FALSE,FALSE,FALSE,TRUE,"""event"",""trial"",""time""
""fullscreenenter"",""5"",""17232""
","
","
","""event"",""trial"",""time""
""fullscreenenter"",""5"",""17232""
","
",346.31999999983236,NA,48,NA,NA,3000,1,NA,NA,images/earth.jpg,images/rocket1,images/rocket2,null,images/rocket1,NA,1,real,null,2,NA,NA,NA,sub128
d3-animate-choice,244,965427,0.0-76.0-1.36,FALSE,FALSE,FALSE,TRUE,"""event"",""trial"",""time""
""fullscreenenter"",""5"",""17232""
","
","
","""event"",""trial"",""time""
""fullscreenenter"",""5"",""17232""
","
",1182.6000000000931,NA,48,NA,NA,3000,1,NA,NA,images/redplanet1.jpg,images/alien2,images/alien1,images/rocket1,images/alien2,images/t.png,2,real,false,2,rare,1,2020-06-20T19:10:11Z,sub128
two-step-fixation,245,966435,0.0-76.0-2.36,FALSE,FALSE,FALSE,TRUE,"""event"",""trial"",""time""
""fullscreenenter"",""5"",""17232""
","
","
","""event"",""trial"",""time""
""fullscreenenter"",""5"",""17232""
","
",NA,images/earth.jpg,NA,NA,NA,NA,NA,NA,NA,NA,NA,NA,NA,NA,NA,fixation,NA,NA,NA,NA,NA,NA,sub128
d3-animate-choice,246,968769,0.0-76.0-0.37,FALSE,FALSE,FALSE,TRUE,"""event"",""trial"",""time""
""fullscreenenter"",""5"",""17232""
","
","
","""event"",""trial"",""time""
""fullscreenenter"",""5"",""17232""
","
",322.17500000004657,NA,48,NA,NA,3000,1,NA,NA,images/earth.jpg,images/rocket1,images/rocket2,null,images/rocket1,NA,1,real,null,2,NA,NA,NA,sub128
d3-animate-choice,247,971176,0.0-76.0-1.37,FALSE,FALSE,FALSE,TRUE,"""event"",""trial"",""time""
""fullscreenenter"",""5"",""17232""
","
","
","""event"",""trial"",""time""
""fullscreenenter"",""5"",""17232""
","
",388.3949999999022,NA,49,NA,NA,3000,1,NA,NA,images/purpleplanet.jpg,images/alien4,images/alien3,images/rocket1,images/alien3,images/nothing.png,2,real,true,1,common,0,2020-06-20T19:10:17Z,sub128
two-step-fixation,248,972186,0.0-76.0-2.37,FALSE,FALSE,FALSE,TRUE,"""event"",""trial"",""time""
""fullscreenenter"",""5"",""17232""
","
","
","""event"",""trial"",""time""
""fullscreenenter"",""5"",""17232""
","
",NA,images/earth.jpg,NA,NA,NA,NA,NA,NA,NA,NA,NA,NA,NA,NA,NA,fixation,NA,NA,NA,NA,NA,NA,sub128
d3-animate-choice,249,974553,0.0-76.0-0.38,FALSE,FALSE,FALSE,TRUE,"""event"",""trial"",""time""
""fullscreenenter"",""5"",""17232""
","
","
","""event"",""trial"",""time""
""fullscreenenter"",""5"",""17232""
","
",357.300000000163,NA,48,NA,NA,3000,1,NA,NA,images/earth.jpg,images/rocket1,images/rocket2,null,images/rocket1,NA,1,real,null,2,NA,NA,NA,sub128
d3-animate-choice,250,977222,0.0-76.0-1.38,FALSE,FALSE,FALSE,TRUE,"""event"",""trial"",""time""
""fullscreenenter"",""5"",""17232""
","
","
","""event"",""trial"",""time""
""fullscreenenter"",""5"",""17232""
","
",652.7800000001444,NA,48,NA,NA,3000,1,NA,NA,images/redplanet1.jpg,images/alien2,images/alien1,images/rocket1,images/alien2,images/t.png,2,real,false,2,rare,1,2020-06-20T19:10:23Z,sub128
two-step-fixation,251,978235,0.0-76.0-2.38,FALSE,FALSE,FALSE,TRUE,"""event"",""trial"",""time""
""fullscreenenter"",""5"",""17232""
","
","
","""event"",""trial"",""time""
""fullscreenenter"",""5"",""17232""
","
",NA,images/earth.jpg,NA,NA,NA,NA,NA,NA,NA,NA,NA,NA,NA,NA,NA,fixation,NA,NA,NA,NA,NA,NA,sub128
d3-animate-choice,252,980557,0.0-76.0-0.39,FALSE,FALSE,FALSE,TRUE,"""event"",""trial"",""time""
""fullscreenenter"",""5"",""17232""
","
","
","""event"",""trial"",""time""
""fullscreenenter"",""5"",""17232""
","
",308.58500000007916,NA,49,NA,NA,3000,1,NA,NA,images/earth.jpg,images/rocket1,images/rocket2,null,images/rocket2,NA,1,real,null,1,NA,NA,NA,sub128
d3-animate-choice,253,983019,0.0-76.0-1.39,FALSE,FALSE,FALSE,TRUE,"""event"",""trial"",""time""
""fullscreenenter"",""5"",""17232""
","
","
","""event"",""trial"",""time""
""fullscreenenter"",""5"",""17232""
","
",446.59499999985565,NA,48,NA,NA,3000,1,NA,NA,images/purpleplanet.jpg,images/alien4,images/alien3,images/rocket2,images/alien4,images/nothing.png,2,real,false,2,rare,0,2020-06-20T19:10:29Z,sub128
two-step-fixation,254,984031,0.0-76.0-2.39,FALSE,FALSE,FALSE,TRUE,"""event"",""trial"",""time""
""fullscreenenter"",""5"",""17232""
","
","
","""event"",""trial"",""time""
""fullscreenenter"",""5"",""17232""
","
",NA,images/earth.jpg,NA,NA,NA,NA,NA,NA,NA,NA,NA,NA,NA,NA,NA,fixation,NA,NA,NA,NA,NA,NA,sub128
d3-animate-choice,255,986313,0.0-76.0-0.40,FALSE,FALSE,FALSE,TRUE,"""event"",""trial"",""time""
""fullscreenenter"",""5"",""17232""
","
","
","""event"",""trial"",""time""
""fullscreenenter"",""5"",""17232""
","
",273.8900000002468,NA,49,NA,NA,3000,1,NA,NA,images/earth.jpg,images/rocket1,images/rocket2,null,images/rocket2,NA,1,real,null,1,NA,NA,NA,sub128
d3-animate-choice,256,988953,0.0-76.0-1.40,FALSE,FALSE,FALSE,TRUE,"""event"",""trial"",""time""
""fullscreenenter"",""5"",""17232""
","
","
","""event"",""trial"",""time""
""fullscreenenter"",""5"",""17232""
","
",627.9099999999162,NA,48,NA,NA,3000,1,NA,NA,images/redplanet1.jpg,images/alien2,images/alien1,images/rocket2,images/alien2,images/t.png,2,real,true,2,common,1,2020-06-20T19:10:35Z,sub128
two-step-fixation,257,989962,0.0-76.0-2.40,FALSE,FALSE,FALSE,TRUE,"""event"",""trial"",""time""
""fullscreenenter"",""5"",""17232""
","
","
","""event"",""trial"",""time""
""fullscreenenter"",""5"",""17232""
","
",NA,images/earth.jpg,NA,NA,NA,NA,NA,NA,NA,NA,NA,NA,NA,NA,NA,fixation,NA,NA,NA,NA,NA,NA,sub128
d3-animate-choice,258,992267,0.0-76.0-0.41,FALSE,FALSE,FALSE,TRUE,"""event"",""trial"",""time""
""fullscreenenter"",""5"",""17232""
","
","
","""event"",""trial"",""time""
""fullscreenenter"",""5"",""17232""
","
",293.88500000012573,NA,49,NA,NA,3000,1,NA,NA,images/earth.jpg,images/rocket1,images/rocket2,null,images/rocket2,NA,1,real,null,1,NA,NA,NA,sub128
d3-animate-choice,259,995246,0.0-76.0-1.41,FALSE,FALSE,FALSE,TRUE,"""event"",""trial"",""time""
""fullscreenenter"",""5"",""17232""
","
","
","""event"",""trial"",""time""
""fullscreenenter"",""5"",""17232""
","
",967.5949999998556,NA,48,NA,NA,3000,1,2574.1199999999953,49,images/redplanet1.jpg,images/alien2,images/alien1,images/rocket2,images/alien2,images/t.png,2,real,true,2,common,1,2020-06-20T19:10:41Z,sub128
two-step-fixation,260,996258,0.0-76.0-2.41,FALSE,FALSE,FALSE,TRUE,"""event"",""trial"",""time""
""fullscreenenter"",""5"",""17232""
","
","
","""event"",""trial"",""time""
""fullscreenenter"",""5"",""17232""
","
",NA,images/earth.jpg,NA,NA,NA,NA,NA,NA,NA,NA,NA,NA,NA,NA,NA,fixation,NA,NA,NA,NA,NA,NA,sub128
d3-animate-choice,261,998546,0.0-76.0-0.42,FALSE,FALSE,FALSE,TRUE,"""event"",""trial"",""time""
""fullscreenenter"",""5"",""17232""
","
","
","""event"",""trial"",""time""
""fullscreenenter"",""5"",""17232""
","
",278.09499999985565,NA,48,NA,NA,3000,1,NA,NA,images/earth.jpg,images/rocket1,images/rocket2,null,images/rocket1,NA,1,real,null,2,NA,NA,NA,sub128
d3-animate-choice,262,1001058,0.0-76.0-1.42,FALSE,FALSE,FALSE,TRUE,"""event"",""trial"",""time""
""fullscreenenter"",""5"",""17232""
","
","
","""event"",""trial"",""time""
""fullscreenenter"",""5"",""17232""
","
",495.25,NA,48,NA,NA,3000,1,NA,NA,images/purpleplanet.jpg,images/alien4,images/alien3,images/rocket1,images/alien4,images/t.png,2,real,true,2,common,1,2020-06-20T19:10:47Z,sub128
two-step-fixation,263,1002068,0.0-76.0-2.42,FALSE,FALSE,FALSE,TRUE,"""event"",""trial"",""time""
""fullscreenenter"",""5"",""17232""
","
","
","""event"",""trial"",""time""
""fullscreenenter"",""5"",""17232""
","
",NA,images/earth.jpg,NA,NA,NA,NA,NA,NA,NA,NA,NA,NA,NA,NA,NA,fixation,NA,NA,NA,NA,NA,NA,sub128
d3-animate-choice,264,1004822,0.0-76.0-0.43,FALSE,FALSE,FALSE,TRUE,"""event"",""trial"",""time""
""fullscreenenter"",""5"",""17232""
","
","
","""event"",""trial"",""time""
""fullscreenenter"",""5"",""17232""
","
",742.8399999999674,NA,49,NA,NA,3000,1,NA,NA,images/earth.jpg,images/rocket1,images/rocket2,null,images/rocket2,NA,1,real,null,1,NA,NA,NA,sub128
d3-animate-choice,265,1007207,0.0-76.0-1.43,FALSE,FALSE,FALSE,TRUE,"""event"",""trial"",""time""
""fullscreenenter"",""5"",""17232""
","
","
","""event"",""trial"",""time""
""fullscreenenter"",""5"",""17232""
","
",369.2799999999115,NA,48,NA,NA,3000,1,NA,NA,images/redplanet1.jpg,images/alien2,images/alien1,images/rocket2,images/alien2,images/nothing.png,2,real,true,2,common,0,2020-06-20T19:10:53Z,sub128
two-step-fixation,266,1008217,0.0-76.0-2.43,FALSE,FALSE,FALSE,TRUE,"""event"",""trial"",""time""
""fullscreenenter"",""5"",""17232""
","
","
","""event"",""trial"",""time""
""fullscreenenter"",""5"",""17232""
","
",NA,images/earth.jpg,NA,NA,NA,NA,NA,NA,NA,NA,NA,NA,NA,NA,NA,fixation,NA,NA,NA,NA,NA,NA,sub128
d3-animate-choice,267,1010412,0.0-76.0-0.44,FALSE,FALSE,FALSE,TRUE,"""event"",""trial"",""time""
""fullscreenenter"",""5"",""17232""
","
","
","""event"",""trial"",""time""
""fullscreenenter"",""5"",""17232""
","
",183.66499999945518,NA,48,NA,NA,3000,1,NA,NA,images/earth.jpg,images/rocket1,images/rocket2,null,images/rocket1,NA,1,real,null,2,NA,NA,NA,sub128
d3-animate-choice,268,1012789,0.0-76.0-1.44,FALSE,FALSE,FALSE,TRUE,"""event"",""trial"",""time""
""fullscreenenter"",""5"",""17232""
","
","
","""event"",""trial"",""time""
""fullscreenenter"",""5"",""17232""
","
",364.8300000000745,NA,49,NA,NA,3000,1,NA,NA,images/redplanet1.jpg,images/alien2,images/alien1,images/rocket1,images/alien1,images/nothing.png,2,real,false,1,rare,0,2020-06-20T19:10:59Z,sub128
two-step-fixation,269,1013799,0.0-76.0-2.44,FALSE,FALSE,FALSE,TRUE,"""event"",""trial"",""time""
""fullscreenenter"",""5"",""17232""
","
","
","""event"",""trial"",""time""
""fullscreenenter"",""5"",""17232""
","
",NA,images/earth.jpg,NA,NA,NA,NA,NA,NA,NA,NA,NA,NA,NA,NA,NA,fixation,NA,NA,NA,NA,NA,NA,sub128
d3-animate-choice,270,1016117,0.0-76.0-0.45,FALSE,FALSE,FALSE,TRUE,"""event"",""trial"",""time""
""fullscreenenter"",""5"",""17232""
","
","
","""event"",""trial"",""time""
""fullscreenenter"",""5"",""17232""
","
",304.6300000001211,NA,49,NA,NA,3000,1,NA,NA,images/earth.jpg,images/rocket1,images/rocket2,null,images/rocket2,NA,1,real,null,1,NA,NA,NA,sub128
d3-animate-choice,271,1018457,0.0-76.0-1.45,FALSE,FALSE,FALSE,TRUE,"""event"",""trial"",""time""
""fullscreenenter"",""5"",""17232""
","
","
","""event"",""trial"",""time""
""fullscreenenter"",""5"",""17232""
","
",324.3200000001816,NA,48,NA,NA,3000,1,NA,NA,images/redplanet1.jpg,images/alien2,images/alien1,images/rocket2,images/alien2,images/nothing.png,2,real,true,2,common,0,2020-06-20T19:11:04Z,sub128
two-step-fixation,272,1019467,0.0-76.0-2.45,FALSE,FALSE,FALSE,TRUE,"""event"",""trial"",""time""
""fullscreenenter"",""5"",""17232""
","
","
","""event"",""trial"",""time""
""fullscreenenter"",""5"",""17232""
","
",NA,images/earth.jpg,NA,NA,NA,NA,NA,NA,NA,NA,NA,NA,NA,NA,NA,fixation,NA,NA,NA,NA,NA,NA,sub128
d3-animate-choice,273,1021649,0.0-76.0-0.46,FALSE,FALSE,FALSE,TRUE,"""event"",""trial"",""time""
""fullscreenenter"",""5"",""17232""
","
","
","""event"",""trial"",""time""
""fullscreenenter"",""5"",""17232""
","
",167.85000000020955,NA,48,NA,NA,3000,1,NA,NA,images/earth.jpg,images/rocket1,images/rocket2,null,images/rocket1,NA,1,real,null,2,NA,NA,NA,sub128
d3-animate-choice,274,1024113,0.0-76.0-1.46,FALSE,FALSE,FALSE,TRUE,"""event"",""trial"",""time""
""fullscreenenter"",""5"",""17232""
","
","
","""event"",""trial"",""time""
""fullscreenenter"",""5"",""17232""
","
",454.5100000000093,NA,49,NA,NA,3000,1,NA,NA,images/redplanet1.jpg,images/alien2,images/alien1,images/rocket1,images/alien1,images/t.png,2,real,false,1,rare,1,2020-06-20T19:11:10Z,sub128
two-step-fixation,275,1025123,0.0-76.0-2.46,FALSE,FALSE,FALSE,TRUE,"""event"",""trial"",""time""
""fullscreenenter"",""5"",""17232""
","
","
","""event"",""trial"",""time""
""fullscreenenter"",""5"",""17232""
","
",NA,images/earth.jpg,NA,NA,NA,NA,NA,NA,NA,NA,NA,NA,NA,NA,NA,fixation,NA,NA,NA,NA,NA,NA,sub128
d3-animate-choice,276,1027535,0.0-76.0-0.47,FALSE,FALSE,FALSE,TRUE,"""event"",""trial"",""time""
""fullscreenenter"",""5"",""17232""
","
","
","""event"",""trial"",""time""
""fullscreenenter"",""5"",""17232""
","
",400.7550000001211,NA,49,NA,NA,3000,1,NA,NA,images/earth.jpg,images/rocket1,images/rocket2,null,images/rocket2,NA,1,real,null,1,NA,NA,NA,sub128
d3-animate-choice,277,1030027,0.0-76.0-1.47,FALSE,FALSE,FALSE,TRUE,"""event"",""trial"",""time""
""fullscreenenter"",""5"",""17232""
","
","
","""event"",""trial"",""time""
""fullscreenenter"",""5"",""17232""
","
",475.8699999996461,NA,48,NA,NA,3000,1,NA,NA,images/redplanet1.jpg,images/alien2,images/alien1,images/rocket2,images/alien2,images/nothing.png,2,real,true,2,common,0,2020-06-20T19:11:16Z,sub128
two-step-fixation,278,1031031,0.0-76.0-2.47,FALSE,FALSE,FALSE,TRUE,"""event"",""trial"",""time""
""fullscreenenter"",""5"",""17232""
","
","
","""event"",""trial"",""time""
""fullscreenenter"",""5"",""17232""
","
",NA,images/earth.jpg,NA,NA,NA,NA,NA,NA,NA,NA,NA,NA,NA,NA,NA,fixation,NA,NA,NA,NA,NA,NA,sub128
d3-animate-choice,279,1033454,0.0-76.0-0.48,FALSE,FALSE,FALSE,TRUE,"""event"",""trial"",""time""
""fullscreenenter"",""5"",""17232""
","
","
","""event"",""trial"",""time""
""fullscreenenter"",""5"",""17232""
","
",408.23999999975786,NA,49,NA,NA,3000,1,NA,NA,images/earth.jpg,images/rocket1,images/rocket2,null,images/rocket2,NA,1,real,null,1,NA,NA,NA,sub128
d3-animate-choice,280,1036196,0.0-76.0-1.48,FALSE,FALSE,FALSE,TRUE,"""event"",""trial"",""time""
""fullscreenenter"",""5"",""17232""
","
","
","""event"",""trial"",""time""
""fullscreenenter"",""5"",""17232""
","
",724.9600000001956,NA,48,NA,NA,3000,1,NA,NA,images/redplanet1.jpg,images/alien2,images/alien1,images/rocket2,images/alien2,images/t.png,2,real,true,2,common,1,2020-06-20T19:11:22Z,sub128
two-step-fixation,281,1037205,0.0-76.0-2.48,FALSE,FALSE,FALSE,TRUE,"""event"",""trial"",""time""
""fullscreenenter"",""5"",""17232""
","
","
","""event"",""trial"",""time""
""fullscreenenter"",""5"",""17232""
","
",NA,images/earth.jpg,NA,NA,NA,NA,NA,NA,NA,NA,NA,NA,NA,NA,NA,fixation,NA,NA,NA,NA,NA,NA,sub128
d3-animate-choice,282,1039666,0.0-76.0-0.49,FALSE,FALSE,FALSE,TRUE,"""event"",""trial"",""time""
""fullscreenenter"",""5"",""17232""
