trial_type,trial_index,time_elapsed,internal_node_id,rocket_sides,red_planet_first_rocket,red_display_order,purple_display_order,interactions,blur_events,focus_events,fullscreenenter_events,fullscreenexit_events,rt,stimulus,key_press,button_pressed,success,duration,valid_pressed,rts,keys,planet_text,right_text,left_text,center_text,chosen_text,reward_text,trial_stage,practice_trial,transition_type,choice,transition,reward,timestamp,subject_id
pavlovia,0,4,0.0-0.0,FALSE,FALSE,TRUE,TRUE,"
","
","
","
","
",NA,NA,NA,NA,NA,NA,NA,NA,NA,NA,NA,NA,NA,NA,NA,NA,NA,NA,NA,NA,NA,NA,sub21
html-keyboard-response,1,1368,0.0-1.0,FALSE,FALSE,TRUE,TRUE,"
","
","
","
","
",1362.0200000004843,Welcome! Press the space bar to begin.,32,NA,NA,NA,NA,NA,NA,NA,NA,NA,NA,NA,NA,NA,NA,NA,NA,NA,NA,NA,sub21
audio-keyboard-response,2,2853,0.0-2.0,FALSE,FALSE,TRUE,TRUE,"
","
","
","
","
",1320,audio/beep_loop.wav,174,NA,NA,NA,NA,NA,NA,NA,NA,NA,NA,NA,NA,NA,NA,NA,NA,NA,NA,NA,sub21
audio-button-response,3,6594,0.0-3.0,FALSE,FALSE,TRUE,TRUE,"
","
","
","
","
",NaN,audio/fish.mp3,NA,1,NA,NA,NA,NA,NA,NA,NA,NA,NA,NA,NA,NA,NA,NA,NA,NA,NA,NA,sub21
audio-button-response,4,9183,0.0-4.0,FALSE,FALSE,TRUE,TRUE,"""event"",""trial"",""time""
""fullscreenenter"",""5"",""11630""
","
","
","""event"",""trial"",""time""
""fullscreenenter"",""5"",""11630""
","
",NaN,audio/tiger.mp3,NA,4,NA,NA,NA,NA,NA,NA,NA,NA,NA,NA,NA,NA,NA,NA,NA,NA,NA,NA,sub21
fullscreen,5,12622,0.0-5.0,FALSE,FALSE,TRUE,TRUE,"""event"",""trial"",""time""
""fullscreenenter"",""5"",""11630""
","
","
","""event"",""trial"",""time""
""fullscreenenter"",""5"",""11630""
","
",NA,NA,NA,NA,TRUE,NA,NA,NA,NA,NA,NA,NA,NA,NA,NA,NA,NA,NA,NA,NA,NA,NA,sub21
d3-instructions,6,27951,0.0-6.0,FALSE,FALSE,TRUE,TRUE,"""event"",""trial"",""time""
""fullscreenenter"",""5"",""11630""
","
","
","""event"",""trial"",""time""
""fullscreenenter"",""5"",""11630""
","
",NA,NA,NA,NA,NA,NA,NA,NA,NA,NA,NA,NA,NA,NA,NA,NA,NA,NA,NA,NA,NA,NA,sub21
d3-instructions,7,35308,0.0-7.0,FALSE,FALSE,TRUE,TRUE,"""event"",""trial"",""time""
""fullscreenenter"",""5"",""11630""
","
","
","""event"",""trial"",""time""
""fullscreenenter"",""5"",""11630""
","
",NA,NA,NA,NA,NA,NA,NA,NA,NA,NA,NA,NA,NA,NA,NA,NA,NA,NA,NA,NA,NA,NA,sub21
d3-instructions,8,42654,0.0-8.0,FALSE,FALSE,TRUE,TRUE,"""event"",""trial"",""time""
""fullscreenenter"",""5"",""11630""
","
","
","""event"",""trial"",""time""
""fullscreenenter"",""5"",""11630""
","
",NA,NA,NA,NA,NA,NA,NA,NA,NA,NA,NA,NA,NA,NA,NA,NA,NA,NA,NA,NA,NA,NA,sub21
d3-instructions,9,55739,0.0-9.0,FALSE,FALSE,TRUE,TRUE,"""event"",""trial"",""time""
""fullscreenenter"",""5"",""11630""
","
","
","""event"",""trial"",""time""
""fullscreenenter"",""5"",""11630""
","
",NA,NA,NA,NA,NA,NA,NA,NA,NA,NA,NA,NA,NA,NA,NA,NA,NA,NA,NA,NA,NA,NA,sub21
d3-instructions,10,74986,0.0-10.0,FALSE,FALSE,TRUE,TRUE,"""event"",""trial"",""time""
""fullscreenenter"",""5"",""11630""
","
","
","""event"",""trial"",""time""
""fullscreenenter"",""5"",""11630""
","
",NA,NA,NA,NA,NA,NA,NA,NA,NA,NA,NA,NA,NA,NA,NA,NA,NA,NA,NA,NA,NA,NA,sub21
d3-animate-choice,11,77844,0.0-11.0,FALSE,FALSE,TRUE,TRUE,"""event"",""trial"",""time""
""fullscreenenter"",""5"",""11630""
","
","
","""event"",""trial"",""time""
""fullscreenenter"",""5"",""11630""
","
",852.2649999940768,NA,49,NA,NA,3000,1,2178.994999965653,48,images/tutgreenplanet.jpg,images/tutalien1,images/tutalien2,null,images/tutalien2,NA,NA,practice,null,NA,NA,NA,NA,sub21
d3-animate-choice,12,81100,0.0-12.0,FALSE,FALSE,TRUE,TRUE,"""event"",""trial"",""time""
""fullscreenenter"",""5"",""11630""
","
","
","""event"",""trial"",""time""
""fullscreenenter"",""5"",""11630""
","
",1251.7700000316836,NA,48,NA,NA,3000,1,NA,NA,images/tutgreenplanet.jpg,images/tutalien1,images/tutalien2,null,images/tutalien1,NA,NA,practice,null,NA,NA,NA,NA,sub21
d3-animate-choice,13,87964,0.0-13.0,FALSE,FALSE,TRUE,TRUE,"""event"",""trial"",""time""
""fullscreenenter"",""5"",""11630""
","
","
","""event"",""trial"",""time""
""fullscreenenter"",""5"",""11630""
","
",1411.6599999833852,NA,35,NA,NA,3000,1,"2903.2899999874644,3275.8799999719486,4859.594999987166,5821.159999992233",144974949,images/tutgreenplanet.jpg,images/tutalien1,images/tutalien2,null,images/tutalien2,NA,NA,practice,null,NA,NA,NA,NA,sub21
d3-animate-choice,14,90493,0.0-14.0,FALSE,FALSE,TRUE,TRUE,"""event"",""trial"",""time""
""fullscreenenter"",""5"",""11630""
","
","
","""event"",""trial"",""time""
""fullscreenenter"",""5"",""11630""
","
",526.0049999924377,NA,48,NA,NA,3000,1,NA,NA,images/tutgreenplanet.jpg,images/tutalien1,images/tutalien2,null,images/tutalien1,NA,NA,practice,null,NA,NA,NA,NA,sub21
d3-instructions,15,97198,0.0-15.0,FALSE,FALSE,TRUE,TRUE,"""event"",""trial"",""time""
""fullscreenenter"",""5"",""11630""
","
","
","""event"",""trial"",""time""
""fullscreenenter"",""5"",""11630""
","
",NA,NA,NA,NA,NA,NA,NA,NA,NA,NA,NA,NA,NA,NA,NA,NA,NA,NA,NA,NA,NA,NA,sub21
d3-instructions,16,109227,0.0-16.0,FALSE,FALSE,TRUE,TRUE,"""event"",""trial"",""time""
""fullscreenenter"",""5"",""11630""
","
","
","""event"",""trial"",""time""
""fullscreenenter"",""5"",""11630""
","
",NA,NA,NA,NA,NA,NA,NA,NA,NA,NA,NA,NA,NA,NA,NA,NA,NA,NA,NA,NA,NA,NA,sub21
d3-instructions,17,120295,0.0-17.0,FALSE,FALSE,TRUE,TRUE,"""event"",""trial"",""time""
""fullscreenenter"",""5"",""11630""
","
","
","""event"",""trial"",""time""
""fullscreenenter"",""5"",""11630""
","
",NA,NA,NA,NA,NA,NA,NA,NA,NA,NA,NA,NA,NA,NA,NA,NA,NA,NA,NA,NA,NA,NA,sub21
d3-instructions,18,137976,0.0-18.0,FALSE,FALSE,TRUE,TRUE,"""event"",""trial"",""time""
""fullscreenenter"",""5"",""11630""
","
","
","""event"",""trial"",""time""
""fullscreenenter"",""5"",""11630""
","
",NA,NA,NA,NA,NA,NA,NA,NA,NA,NA,NA,NA,NA,NA,NA,NA,NA,NA,NA,NA,NA,NA,sub21
d3-instructions,19,147224,0.0-19.0,FALSE,FALSE,TRUE,TRUE,"""event"",""trial"",""time""
""fullscreenenter"",""5"",""11630""
","
","
","""event"",""trial"",""time""
""fullscreenenter"",""5"",""11630""
","
",NA,NA,NA,NA,NA,NA,NA,NA,NA,NA,NA,NA,NA,NA,NA,NA,NA,NA,NA,NA,NA,NA,sub21
d3-animate-choice,20,150119,0.0-20.0,FALSE,FALSE,TRUE,TRUE,"""event"",""trial"",""time""
""fullscreenenter"",""5"",""11630""
","
","
","""event"",""trial"",""time""
""fullscreenenter"",""5"",""11630""
","
",890.8500000252388,NA,49,NA,NA,3000,1,NA,NA,images/tutyellowplanet.jpg,null,images/tutalien3,null,images/tutalien3,images/nothing.png,NA,practice,null,NA,NA,NA,NA,sub21
d3-animate-choice,21,152436,0.0-21.0,FALSE,FALSE,TRUE,TRUE,"""event"",""trial"",""time""
""fullscreenenter"",""5"",""11630""
","
","
","""event"",""trial"",""time""
""fullscreenenter"",""5"",""11630""
","
",312.8499999875203,NA,49,NA,NA,3000,1,NA,NA,images/tutyellowplanet.jpg,null,images/tutalien3,null,images/tutalien3,images/nothing.png,NA,practice,null,NA,NA,NA,NA,sub21
d3-animate-choice,22,154674,0.0-22.0,FALSE,FALSE,TRUE,TRUE,"""event"",""trial"",""time""
""fullscreenenter"",""5"",""11630""
","
","
","""event"",""trial"",""time""
""fullscreenenter"",""5"",""11630""
","
",234.5050000003539,NA,49,NA,NA,3000,1,NA,NA,images/tutyellowplanet.jpg,null,images/tutalien3,null,images/tutalien3,images/t.png,NA,practice,null,NA,NA,NA,NA,sub21
d3-animate-choice,23,156889,0.0-23.0,FALSE,FALSE,TRUE,TRUE,"""event"",""trial"",""time""
""fullscreenenter"",""5"",""11630""
","
","
","""event"",""trial"",""time""
""fullscreenenter"",""5"",""11630""
","
",211.71000000322238,NA,49,NA,NA,3000,1,NA,NA,images/tutyellowplanet.jpg,null,images/tutalien3,null,images/tutalien3,images/t.png,NA,practice,null,NA,NA,NA,NA,sub21
d3-animate-choice,24,159129,0.0-24.0,FALSE,FALSE,TRUE,TRUE,"""event"",""trial"",""time""
""fullscreenenter"",""5"",""11630""
","
","
","""event"",""trial"",""time""
""fullscreenenter"",""5"",""11630""
","
",237.0750000118278,NA,49,NA,NA,3000,1,NA,NA,images/tutyellowplanet.jpg,null,images/tutalien3,null,images/tutalien3,images/t.png,NA,practice,null,NA,NA,NA,NA,sub21
d3-animate-choice,25,161429,0.0-25.0,FALSE,FALSE,TRUE,TRUE,"""event"",""trial"",""time""
""fullscreenenter"",""5"",""11630""
","
","
","""event"",""trial"",""time""
""fullscreenenter"",""5"",""11630""
","
",295.27499998221174,NA,49,NA,NA,3000,1,NA,NA,images/tutyellowplanet.jpg,null,images/tutalien3,null,images/tutalien3,images/t.png,NA,practice,null,NA,NA,NA,NA,sub21
d3-animate-choice,26,163686,0.0-26.0,FALSE,FALSE,TRUE,TRUE,"""event"",""trial"",""time""
""fullscreenenter"",""5"",""11630""
","
","
","""event"",""trial"",""time""
""fullscreenenter"",""5"",""11630""
","
",253.68999998318031,NA,49,NA,NA,3000,1,1795.9549999795854,49,images/tutyellowplanet.jpg,null,images/tutalien3,null,images/tutalien3,images/t.png,NA,practice,null,NA,NA,NA,NA,sub21
d3-animate-choice,27,166026,0.0-27.0,FALSE,FALSE,TRUE,TRUE,"""event"",""trial"",""time""
""fullscreenenter"",""5"",""11630""
","
","
","""event"",""trial"",""time""
""fullscreenenter"",""5"",""11630""
","
",334.5650000264868,NA,49,NA,NA,3000,1,NA,NA,images/tutyellowplanet.jpg,null,images/tutalien3,null,images/tutalien3,images/t.png,NA,practice,null,NA,NA,NA,NA,sub21
d3-animate-choice,28,168349,0.0-28.0,FALSE,FALSE,TRUE,TRUE,"""event"",""trial"",""time""
""fullscreenenter"",""5"",""11630""
","
","
","""event"",""trial"",""time""
""fullscreenenter"",""5"",""11630""
","
",320.30999998096377,NA,49,NA,NA,3000,1,NA,NA,images/tutyellowplanet.jpg,null,images/tutalien3,null,images/tutalien3,images/t.png,NA,practice,null,NA,NA,NA,NA,sub21
d3-animate-choice,29,170699,0.0-29.0,FALSE,FALSE,TRUE,TRUE,"""event"",""trial"",""time""
""fullscreenenter"",""5"",""11630""
","
","
","""event"",""trial"",""time""
""fullscreenenter"",""5"",""11630""
","
",345.3900000313297,NA,49,NA,NA,3000,1,NA,NA,images/tutyellowplanet.jpg,null,images/tutalien3,null,images/tutalien3,images/t.png,NA,practice,null,NA,NA,NA,NA,sub21
d3-instructions,30,175745,0.0-30.0,FALSE,FALSE,TRUE,TRUE,"""event"",""trial"",""time""
""fullscreenenter"",""5"",""11630""
","
","
","""event"",""trial"",""time""
""fullscreenenter"",""5"",""11630""
","
",NA,NA,NA,NA,NA,NA,NA,NA,NA,NA,NA,NA,NA,NA,NA,NA,NA,NA,NA,NA,NA,NA,sub21
d3-instructions,31,184537,0.0-31.0,FALSE,FALSE,TRUE,TRUE,"""event"",""trial"",""time""
""fullscreenenter"",""5"",""11630""
","
","
","""event"",""trial"",""time""
""fullscreenenter"",""5"",""11630""
","
",NA,NA,NA,NA,NA,NA,NA,NA,NA,NA,NA,NA,NA,NA,NA,NA,NA,NA,NA,NA,NA,NA,sub21
d3-instructions,32,191919,0.0-32.0,FALSE,FALSE,TRUE,TRUE,"""event"",""trial"",""time""
""fullscreenenter"",""5"",""11630""
","
","
","""event"",""trial"",""time""
""fullscreenenter"",""5"",""11630""
","
",NA,NA,NA,NA,NA,NA,NA,NA,NA,NA,NA,NA,NA,NA,NA,NA,NA,NA,NA,NA,NA,NA,sub21
d3-instructions,33,196335,0.0-33.0,FALSE,FALSE,TRUE,TRUE,"""event"",""trial"",""time""
""fullscreenenter"",""5"",""11630""
","
","
","""event"",""trial"",""time""
""fullscreenenter"",""5"",""11630""
","
",NA,NA,NA,NA,NA,NA,NA,NA,NA,NA,NA,NA,NA,NA,NA,NA,NA,NA,NA,NA,NA,NA,sub21
d3-animate-choice,34,199546,0.0-34.0,FALSE,FALSE,TRUE,TRUE,"""event"",""trial"",""time""
""fullscreenenter"",""5"",""11630""
","
","
","""event"",""trial"",""time""
""fullscreenenter"",""5"",""11630""
","
",1208.8300000177696,NA,49,NA,NA,3000,1,NA,NA,images/tutgreenplanet.jpg,images/tutalien1,images/tutalien2,null,images/tutalien2,images/t.png,NA,practice,null,NA,NA,NA,NA,sub21
d3-animate-choice,35,201888,0.0-35.0,FALSE,FALSE,TRUE,TRUE,"""event"",""trial"",""time""
""fullscreenenter"",""5"",""11630""
","
","
","""event"",""trial"",""time""
""fullscreenenter"",""5"",""11630""
","
",338.6949999839999,NA,49,NA,NA,3000,1,NA,NA,images/tutgreenplanet.jpg,images/tutalien1,images/tutalien2,null,images/tutalien2,images/t.png,NA,practice,null,NA,NA,NA,NA,sub21
d3-animate-choice,36,204166,0.0-36.0,FALSE,FALSE,TRUE,TRUE,"""event"",""trial"",""time""
""fullscreenenter"",""5"",""11630""
","
","
","""event"",""trial"",""time""
""fullscreenenter"",""5"",""11630""
","
",273.5100000281818,NA,49,NA,NA,3000,1,NA,NA,images/tutgreenplanet.jpg,images/tutalien1,images/tutalien2,null,images/tutalien2,images/t.png,NA,practice,null,NA,NA,NA,NA,sub21
d3-animate-choice,37,206422,0.0-37.0,FALSE,FALSE,TRUE,TRUE,"""event"",""trial"",""time""
""fullscreenenter"",""5"",""11630""
","
","
","""event"",""trial"",""time""
""fullscreenenter"",""5"",""11630""
","
",252.99499998800457,NA,49,NA,NA,3000,1,NA,NA,images/tutgreenplanet.jpg,images/tutalien1,images/tutalien2,null,images/tutalien2,images/t.png,NA,practice,null,NA,NA,NA,NA,sub21
d3-animate-choice,38,208671,0.0-38.0,FALSE,FALSE,TRUE,TRUE,"""event"",""trial"",""time""
""fullscreenenter"",""5"",""11630""
","
","
","""event"",""trial"",""time""
""fullscreenenter"",""5"",""11630""
","
",245.04499998874962,NA,49,NA,NA,3000,1,NA,NA,images/tutgreenplanet.jpg,images/tutalien1,images/tutalien2,null,images/tutalien2,images/t.png,NA,practice,null,NA,NA,NA,NA,sub21
d3-animate-choice,39,210964,0.0-39.0,FALSE,FALSE,TRUE,TRUE,"""event"",""trial"",""time""
""fullscreenenter"",""5"",""11630""
","
","
","""event"",""trial"",""time""
""fullscreenenter"",""5"",""11630""
","
",289.1199999721721,NA,49,NA,NA,3000,1,NA,NA,images/tutgreenplanet.jpg,images/tutalien1,images/tutalien2,null,images/tutalien2,images/t.png,NA,practice,null,NA,NA,NA,NA,sub21
d3-animate-choice,40,213204,0.0-40.0,FALSE,FALSE,TRUE,TRUE,"""event"",""trial"",""time""
""fullscreenenter"",""5"",""11630""
","
","
","""event"",""trial"",""time""
""fullscreenenter"",""5"",""11630""
","
",237.08500002976507,NA,49,NA,NA,3000,1,NA,NA,images/tutgreenplanet.jpg,images/tutalien1,images/tutalien2,null,images/tutalien2,images/t.png,NA,practice,null,NA,NA,NA,NA,sub21
d3-animate-choice,41,215430,0.0-41.0,FALSE,FALSE,TRUE,TRUE,"""event"",""trial"",""time""
""fullscreenenter"",""5"",""11630""
","
","
","""event"",""trial"",""time""
""fullscreenenter"",""5"",""11630""
","
",222.06499997992069,NA,49,NA,NA,3000,1,NA,NA,images/tutgreenplanet.jpg,images/tutalien1,images/tutalien2,null,images/tutalien2,images/t.png,NA,practice,null,NA,NA,NA,NA,sub21
d3-animate-choice,42,217666,0.0-42.0,FALSE,FALSE,TRUE,TRUE,"""event"",""trial"",""time""
""fullscreenenter"",""5"",""11630""
","
","
","""event"",""trial"",""time""
""fullscreenenter"",""5"",""11630""
","
",232.70499997306615,NA,49,NA,NA,3000,1,NA,NA,images/tutgreenplanet.jpg,images/tutalien1,images/tutalien2,null,images/tutalien2,images/t.png,NA,practice,null,NA,NA,NA,NA,sub21
d3-animate-choice,43,219897,0.0-43.0,FALSE,FALSE,TRUE,TRUE,"""event"",""trial"",""time""
""fullscreenenter"",""5"",""11630""
","
","
","""event"",""trial"",""time""
""fullscreenenter"",""5"",""11630""
","
",226.1399999842979,NA,49,NA,NA,3000,1,NA,NA,images/tutgreenplanet.jpg,images/tutalien1,images/tutalien2,null,images/tutalien2,images/nothing.png,NA,practice,null,NA,NA,NA,NA,sub21
d3-instructions,44,229732,0.0-44.0,FALSE,FALSE,TRUE,TRUE,"""event"",""trial"",""time""
""fullscreenenter"",""5"",""11630""
","
","
","""event"",""trial"",""time""
""fullscreenenter"",""5"",""11630""
","
",NA,NA,NA,NA,NA,NA,NA,NA,NA,NA,NA,NA,NA,NA,NA,NA,NA,NA,NA,NA,NA,NA,sub21
d3-instructions,45,233691,0.0-45.0,FALSE,FALSE,TRUE,TRUE,"""event"",""trial"",""time""
""fullscreenenter"",""5"",""11630""
","
","
","""event"",""trial"",""time""
""fullscreenenter"",""5"",""11630""
","
",NA,NA,NA,NA,NA,NA,NA,NA,NA,NA,NA,NA,NA,NA,NA,NA,NA,NA,NA,NA,NA,NA,sub21
d3-instructions,46,238486,0.0-46.0,FALSE,FALSE,TRUE,TRUE,"""event"",""trial"",""time""
""fullscreenenter"",""5"",""11630""
","
","
","""event"",""trial"",""time""
""fullscreenenter"",""5"",""11630""
","
",NA,NA,NA,NA,NA,NA,NA,NA,NA,NA,NA,NA,NA,NA,NA,NA,NA,NA,NA,NA,NA,NA,sub21
d3-instructions,47,248349,0.0-47.0,FALSE,FALSE,TRUE,TRUE,"""event"",""trial"",""time""
""fullscreenenter"",""5"",""11630""
","
","
","""event"",""trial"",""time""
""fullscreenenter"",""5"",""11630""
","
",NA,NA,NA,NA,NA,NA,NA,NA,NA,NA,NA,NA,NA,NA,NA,NA,NA,NA,NA,NA,NA,NA,sub21
d3-instructions,48,253755,0.0-48.0,FALSE,FALSE,TRUE,TRUE,"""event"",""trial"",""time""
""fullscreenenter"",""5"",""11630""
","
","
","""event"",""trial"",""time""
""fullscreenenter"",""5"",""11630""
","
",NA,NA,NA,NA,NA,NA,NA,NA,NA,NA,NA,NA,NA,NA,NA,NA,NA,NA,NA,NA,NA,NA,sub21
d3-instructions,49,261532,0.0-49.0,FALSE,FALSE,TRUE,TRUE,"""event"",""trial"",""time""
""fullscreenenter"",""5"",""11630""
","
","
","""event"",""trial"",""time""
""fullscreenenter"",""5"",""11630""
","
",NA,NA,NA,NA,NA,NA,NA,NA,NA,NA,NA,NA,NA,NA,NA,NA,NA,NA,NA,NA,NA,NA,sub21
d3-instructions,50,270243,0.0-50.0,FALSE,FALSE,TRUE,TRUE,"""event"",""trial"",""time""
""fullscreenenter"",""5"",""11630""
","
","
","""event"",""trial"",""time""
""fullscreenenter"",""5"",""11630""
","
",NA,NA,NA,NA,NA,NA,NA,NA,NA,NA,NA,NA,NA,NA,NA,NA,NA,NA,NA,NA,NA,NA,sub21
d3-instructions,51,272710,0.0-51.0,FALSE,FALSE,TRUE,TRUE,"""event"",""trial"",""time""
""fullscreenenter"",""5"",""11630""
","
","
","""event"",""trial"",""time""
""fullscreenenter"",""5"",""11630""
","
",NA,NA,NA,NA,NA,NA,NA,NA,NA,NA,NA,NA,NA,NA,NA,NA,NA,NA,NA,NA,NA,NA,sub21
d3-instructions,52,274936,0.0-52.0,FALSE,FALSE,TRUE,TRUE,"""event"",""trial"",""time""
""fullscreenenter"",""5"",""11630""
","
","
","""event"",""trial"",""time""
""fullscreenenter"",""5"",""11630""
","
",NA,NA,NA,NA,NA,NA,NA,NA,NA,NA,NA,NA,NA,NA,NA,NA,NA,NA,NA,NA,NA,NA,sub21
d3-instructions,53,284672,0.0-53.0,FALSE,FALSE,TRUE,TRUE,"""event"",""trial"",""time""
""fullscreenenter"",""5"",""11630""
","
","
","""event"",""trial"",""time""
""fullscreenenter"",""5"",""11630""
","
",NA,NA,NA,NA,NA,NA,NA,NA,NA,NA,NA,NA,NA,NA,NA,NA,NA,NA,NA,NA,NA,NA,sub21
d3-instructions,54,291372,0.0-54.0,FALSE,FALSE,TRUE,TRUE,"""event"",""trial"",""time""
""fullscreenenter"",""5"",""11630""
","
","
","""event"",""trial"",""time""
""fullscreenenter"",""5"",""11630""
","
",NA,NA,NA,NA,NA,NA,NA,NA,NA,NA,NA,NA,NA,NA,NA,NA,NA,NA,NA,NA,NA,NA,sub21
d3-instructions,55,295325,0.0-55.0,FALSE,FALSE,TRUE,TRUE,"""event"",""trial"",""time""
""fullscreenenter"",""5"",""11630""
","
","
","""event"",""trial"",""time""
""fullscreenenter"",""5"",""11630""
","
",NA,NA,NA,NA,NA,NA,NA,NA,NA,NA,NA,NA,NA,NA,NA,NA,NA,NA,NA,NA,NA,NA,sub21
d3-instructions,56,299773,0.0-56.0,FALSE,FALSE,TRUE,TRUE,"""event"",""trial"",""time""
""fullscreenenter"",""5"",""11630""
","
","
","""event"",""trial"",""time""
""fullscreenenter"",""5"",""11630""
","
",NA,NA,NA,NA,NA,NA,NA,NA,NA,NA,NA,NA,NA,NA,NA,NA,NA,NA,NA,NA,NA,NA,sub21
d3-instructions,57,308830,0.0-57.0,FALSE,FALSE,TRUE,TRUE,"""event"",""trial"",""time""
""fullscreenenter"",""5"",""11630""
","
","
","""event"",""trial"",""time""
""fullscreenenter"",""5"",""11630""
","
",NA,NA,NA,NA,NA,NA,NA,NA,NA,NA,NA,NA,NA,NA,NA,NA,NA,NA,NA,NA,NA,NA,sub21
d3-instructions,58,319519,0.0-58.0,FALSE,FALSE,TRUE,TRUE,"""event"",""trial"",""time""
""fullscreenenter"",""5"",""11630""
","
","
","""event"",""trial"",""time""
""fullscreenenter"",""5"",""11630""
","
",NA,NA,NA,NA,NA,NA,NA,NA,NA,NA,NA,NA,NA,NA,NA,NA,NA,NA,NA,NA,NA,NA,sub21
d3-instructions,59,323735,0.0-59.0,FALSE,FALSE,TRUE,TRUE,"""event"",""trial"",""time""
""fullscreenenter"",""5"",""11630""
","
","
","""event"",""trial"",""time""
""fullscreenenter"",""5"",""11630""
","
",NA,NA,NA,NA,NA,NA,NA,NA,NA,NA,NA,NA,NA,NA,NA,NA,NA,NA,NA,NA,NA,NA,sub21
d3-instructions,60,328202,0.0-60.0,FALSE,FALSE,TRUE,TRUE,"""event"",""trial"",""time""
""fullscreenenter"",""5"",""11630""
","
","
","""event"",""trial"",""time""
""fullscreenenter"",""5"",""11630""
","
",NA,NA,NA,NA,NA,NA,NA,NA,NA,NA,NA,NA,NA,NA,NA,NA,NA,NA,NA,NA,NA,NA,sub21
d3-animate-choice,61,332206,0.0-61.0-0.0,FALSE,FALSE,TRUE,TRUE,"""event"",""trial"",""time""
""fullscreenenter"",""5"",""11630""
","
","
","""event"",""trial"",""time""
""fullscreenenter"",""5"",""11630""
","
",2120.465000043623,NA,49,NA,NA,3000,1,NA,NA,images/earth.jpg,images/tutrocket1,images/tutrocket2,null,images/tutrocket2,NA,1,practice,null,1,NA,NA,NA,sub21
d3-animate-choice,62,336211,0.0-61.0-1.0,FALSE,FALSE,TRUE,TRUE,"""event"",""trial"",""time""
""fullscreenenter"",""5"",""11630""
","
","
","""event"",""trial"",""time""
""fullscreenenter"",""5"",""11630""
","
",2260.7549999956973,NA,49,NA,NA,3000,1,NA,NA,images/tutyellowplanet.jpg,images/tutalien4,images/tutalien3,images/tutrocket2,images/tutalien3,images/nothing.png,2,practice,false,1,rare,0,2020-06-15T23:58:03Z,sub21
two-step-fixation,63,337218,0.0-61.0-2.0,FALSE,FALSE,TRUE,TRUE,"""event"",""trial"",""time""
""fullscreenenter"",""5"",""11630""
","
","
","""event"",""trial"",""time""
""fullscreenenter"",""5"",""11630""
","
",NA,images/earth.jpg,NA,NA,NA,NA,NA,NA,NA,NA,NA,NA,NA,NA,NA,fixation,NA,NA,NA,NA,NA,NA,sub21
d3-animate-choice,64,340997,0.0-61.0-0.1,FALSE,FALSE,TRUE,TRUE,"""event"",""trial"",""time""
""fullscreenenter"",""5"",""11630""
","
","
","""event"",""trial"",""time""
""fullscreenenter"",""5"",""11630""
","
",1775.2300000283867,NA,48,NA,NA,3000,1,NA,NA,images/earth.jpg,images/tutrocket1,images/tutrocket2,null,images/tutrocket1,NA,1,practice,null,2,NA,NA,NA,sub21
d3-animate-choice,65,344327,0.0-61.0-1.1,FALSE,FALSE,TRUE,TRUE,"""event"",""trial"",""time""
""fullscreenenter"",""5"",""11630""
","
","
","""event"",""trial"",""time""
""fullscreenenter"",""5"",""11630""
","
",1325.5099999951199,NA,48,NA,NA,3000,1,NA,NA,images/tutyellowplanet.jpg,images/tutalien4,images/tutalien3,images/tutrocket1,images/tutalien4,images/nothing.png,2,practice,true,2,common,0,2020-06-15T23:58:11Z,sub21
two-step-fixation,66,345332,0.0-61.0-2.1,FALSE,FALSE,TRUE,TRUE,"""event"",""trial"",""time""
""fullscreenenter"",""5"",""11630""
","
","
","""event"",""trial"",""time""
""fullscreenenter"",""5"",""11630""
","
",NA,images/earth.jpg,NA,NA,NA,NA,NA,NA,NA,NA,NA,NA,NA,NA,NA,fixation,NA,NA,NA,NA,NA,NA,sub21
d3-animate-choice,67,347657,0.0-61.0-0.2,FALSE,FALSE,TRUE,TRUE,"""event"",""trial"",""time""
""fullscreenenter"",""5"",""11630""
","
","
","""event"",""trial"",""time""
""fullscreenenter"",""5"",""11630""
","
",320.2600000076927,NA,49,NA,NA,3000,1,NA,NA,images/earth.jpg,images/tutrocket1,images/tutrocket2,null,images/tutrocket2,NA,1,practice,null,1,NA,NA,NA,sub21
d3-animate-choice,68,351474,0.0-61.0-1.2,FALSE,FALSE,TRUE,TRUE,"""event"",""trial"",""time""
""fullscreenenter"",""5"",""11630""
","
","
","""event"",""trial"",""time""
""fullscreenenter"",""5"",""11630""
","
",1812.210000003688,NA,49,NA,NA,3000,1,NA,NA,images/tutyellowplanet.jpg,images/tutalien4,images/tutalien3,images/tutrocket2,images/tutalien3,images/nothing.png,2,practice,false,1,rare,0,2020-06-15T23:58:19Z,sub21
two-step-fixation,69,352479,0.0-61.0-2.2,FALSE,FALSE,TRUE,TRUE,"""event"",""trial"",""time""
""fullscreenenter"",""5"",""11630""
","
","
","""event"",""trial"",""time""
""fullscreenenter"",""5"",""11630""
","
",NA,images/earth.jpg,NA,NA,NA,NA,NA,NA,NA,NA,NA,NA,NA,NA,NA,fixation,NA,NA,NA,NA,NA,NA,sub21
d3-animate-choice,70,354847,0.0-61.0-0.3,FALSE,FALSE,TRUE,TRUE,"""event"",""trial"",""time""
""fullscreenenter"",""5"",""11630""
","
","
","""event"",""trial"",""time""
""fullscreenenter"",""5"",""11630""
","
",364.2600000021048,NA,48,NA,NA,3000,1,NA,NA,images/earth.jpg,images/tutrocket1,images/tutrocket2,null,images/tutrocket1,NA,1,practice,null,2,NA,NA,NA,sub21
d3-animate-choice,71,357765,0.0-61.0-1.3,FALSE,FALSE,TRUE,TRUE,"""event"",""trial"",""time""
""fullscreenenter"",""5"",""11630""
","
","
","""event"",""trial"",""time""
""fullscreenenter"",""5"",""11630""
","
",913.8800000073388,NA,48,NA,NA,3000,1,NA,NA,images/tutyellowplanet.jpg,images/tutalien4,images/tutalien3,images/tutrocket1,images/tutalien4,images/t.png,2,practice,true,2,common,1,2020-06-15T23:58:25Z,sub21
two-step-fixation,72,358770,0.0-61.0-2.3,FALSE,FALSE,TRUE,TRUE,"""event"",""trial"",""time""
""fullscreenenter"",""5"",""11630""
","
","
","""event"",""trial"",""time""
""fullscreenenter"",""5"",""11630""
","
",NA,images/earth.jpg,NA,NA,NA,NA,NA,NA,NA,NA,NA,NA,NA,NA,NA,fixation,NA,NA,NA,NA,NA,NA,sub21
d3-animate-choice,73,361299,0.0-61.0-0.4,FALSE,FALSE,TRUE,TRUE,"""event"",""trial"",""time""
""fullscreenenter"",""5"",""11630""
","
","
","""event"",""trial"",""time""
""fullscreenenter"",""5"",""11630""
","
",524.4100000127219,NA,48,NA,NA,3000,1,NA,NA,images/earth.jpg,images/tutrocket1,images/tutrocket2,null,images/tutrocket1,NA,1,practice,null,2,NA,NA,NA,sub21
d3-animate-choice,74,363593,0.0-61.0-1.4,FALSE,FALSE,TRUE,TRUE,"""event"",""trial"",""time""
""fullscreenenter"",""5"",""11630""
","
","
","""event"",""trial"",""time""
""fullscreenenter"",""5"",""11630""
","
",287.7849999931641,NA,48,NA,NA,3000,1,NA,NA,images/tutyellowplanet.jpg,images/tutalien4,images/tutalien3,images/tutrocket1,images/tutalien4,images/t.png,2,practice,true,2,common,1,2020-06-15T23:58:31Z,sub21
two-step-fixation,75,364597,0.0-61.0-2.4,FALSE,FALSE,TRUE,TRUE,"""event"",""trial"",""time""
""fullscreenenter"",""5"",""11630""
","
","
","""event"",""trial"",""time""
""fullscreenenter"",""5"",""11630""
","
",NA,images/earth.jpg,NA,NA,NA,NA,NA,NA,NA,NA,NA,NA,NA,NA,NA,fixation,NA,NA,NA,NA,NA,NA,sub21
d3-animate-choice,76,366901,0.0-61.0-0.5,FALSE,FALSE,TRUE,TRUE,"""event"",""trial"",""time""
""fullscreenenter"",""5"",""11630""
","
","
","""event"",""trial"",""time""
""fullscreenenter"",""5"",""11630""
","
",300.4250000230968,NA,48,NA,NA,3000,1,NA,NA,images/earth.jpg,images/tutrocket1,images/tutrocket2,null,images/tutrocket1,NA,1,practice,null,2,NA,NA,NA,sub21
d3-animate-choice,77,369200,0.0-61.0-1.5,FALSE,FALSE,TRUE,TRUE,"""event"",""trial"",""time""
""fullscreenenter"",""5"",""11630""
","
","
","""event"",""trial"",""time""
""fullscreenenter"",""5"",""11630""
","
",294.0350000280887,NA,48,NA,NA,3000,1,NA,NA,images/tutyellowplanet.jpg,images/tutalien4,images/tutalien3,images/tutrocket1,images/tutalien4,images/t.png,2,practice,true,2,common,1,2020-06-15T23:58:36Z,sub21
two-step-fixation,78,370204,0.0-61.0-2.5,FALSE,FALSE,TRUE,TRUE,"""event"",""trial"",""time""
""fullscreenenter"",""5"",""11630""
","
","
","""event"",""trial"",""time""
""fullscreenenter"",""5"",""11630""
","
",NA,images/earth.jpg,NA,NA,NA,NA,NA,NA,NA,NA,NA,NA,NA,NA,NA,fixation,NA,NA,NA,NA,NA,NA,sub21
d3-animate-choice,79,372538,0.0-61.0-0.6,FALSE,FALSE,TRUE,TRUE,"""event"",""trial"",""time""
""fullscreenenter"",""5"",""11630""
","
","
","""event"",""trial"",""time""
""fullscreenenter"",""5"",""11630""
","
",330.4800000041723,NA,48,NA,NA,3000,1,NA,NA,images/earth.jpg,images/tutrocket1,images/tutrocket2,null,images/tutrocket1,NA,1,practice,null,2,NA,NA,NA,sub21
d3-animate-choice,80,374923,0.0-61.0-1.6,FALSE,FALSE,TRUE,TRUE,"""event"",""trial"",""time""
""fullscreenenter"",""5"",""11630""
","
","
","""event"",""trial"",""time""
""fullscreenenter"",""5"",""11630""
","
",381.7200000048615,NA,48,NA,NA,3000,1,NA,NA,images/tutyellowplanet.jpg,images/tutalien4,images/tutalien3,images/tutrocket1,images/tutalien4,images/t.png,2,practice,true,2,common,1,2020-06-15T23:58:42Z,sub21
two-step-fixation,81,375928,0.0-61.0-2.6,FALSE,FALSE,TRUE,TRUE,"""event"",""trial"",""time""
""fullscreenenter"",""5"",""11630""
","
","
","""event"",""trial"",""time""
""fullscreenenter"",""5"",""11630""
","
",NA,images/earth.jpg,NA,NA,NA,NA,NA,NA,NA,NA,NA,NA,NA,NA,NA,fixation,NA,NA,NA,NA,NA,NA,sub21
d3-animate-choice,82,378194,0.0-61.0-0.7,FALSE,FALSE,TRUE,TRUE,"""event"",""trial"",""time""
""fullscreenenter"",""5"",""11630""
","
","
","""event"",""trial"",""time""
""fullscreenenter"",""5"",""11630""
","
",262.61999999405816,NA,48,NA,NA,3000,1,NA,NA,images/earth.jpg,images/tutrocket1,images/tutrocket2,null,images/tutrocket1,NA,1,practice,null,2,NA,NA,NA,sub21
d3-animate-choice,83,380667,0.0-61.0-1.7,FALSE,FALSE,TRUE,TRUE,"""event"",""trial"",""time""
""fullscreenenter"",""5"",""11630""
","
","
","""event"",""trial"",""time""
""fullscreenenter"",""5"",""11630""
","
",468.5300000128336,NA,48,NA,NA,3000,1,NA,NA,images/tutyellowplanet.jpg,images/tutalien4,images/tutalien3,images/tutrocket1,images/tutalien4,images/t.png,2,practice,true,2,common,1,2020-06-15T23:58:48Z,sub21
two-step-fixation,84,381670,0.0-61.0-2.7,FALSE,FALSE,TRUE,TRUE,"""event"",""trial"",""time""
""fullscreenenter"",""5"",""11630""
","
","
","""event"",""trial"",""time""
""fullscreenenter"",""5"",""11630""
","
",NA,images/earth.jpg,NA,NA,NA,NA,NA,NA,NA,NA,NA,NA,NA,NA,NA,fixation,NA,NA,NA,NA,NA,NA,sub21
d3-animate-choice,85,384032,0.0-61.0-0.8,FALSE,FALSE,TRUE,TRUE,"""event"",""trial"",""time""
""fullscreenenter"",""5"",""11630""
","
","
","""event"",""trial"",""time""
""fullscreenenter"",""5"",""11630""
","
",358.86000003665686,NA,48,NA,NA,3000,1,NA,NA,images/earth.jpg,images/tutrocket1,images/tutrocket2,null,images/tutrocket1,NA,1,practice,null,2,NA,NA,NA,sub21
d3-animate-choice,86,386361,0.0-61.0-1.8,FALSE,FALSE,TRUE,TRUE,"""event"",""trial"",""time""
""fullscreenenter"",""5"",""11630""
","
","
","""event"",""trial"",""time""
""fullscreenenter"",""5"",""11630""
","
",324.2500000051223,NA,48,NA,NA,3000,1,NA,NA,images/tutyellowplanet.jpg,images/tutalien4,images/tutalien3,images/tutrocket1,images/tutalien4,images/t.png,2,practice,true,2,common,1,2020-06-15T23:58:53Z,sub21
two-step-fixation,87,387365,0.0-61.0-2.8,FALSE,FALSE,TRUE,TRUE,"""event"",""trial"",""time""
""fullscreenenter"",""5"",""11630""
","
","
","""event"",""trial"",""time""
""fullscreenenter"",""5"",""11630""
","
",NA,images/earth.jpg,NA,NA,NA,NA,NA,NA,NA,NA,NA,NA,NA,NA,NA,fixation,NA,NA,NA,NA,NA,NA,sub21
d3-animate-choice,88,389811,0.0-61.0-0.9,FALSE,FALSE,TRUE,TRUE,"""event"",""trial"",""time""
""fullscreenenter"",""5"",""11630""
","
","
","""event"",""trial"",""time""
""fullscreenenter"",""5"",""11630""
","
",441.34499999927357,NA,48,NA,NA,3000,1,NA,NA,images/earth.jpg,images/tutrocket1,images/tutrocket2,null,images/tutrocket1,NA,1,practice,null,2,NA,NA,NA,sub21
d3-animate-choice,89,392236,0.0-61.0-1.9,FALSE,FALSE,TRUE,TRUE,"""event"",""trial"",""time""
""fullscreenenter"",""5"",""11630""
","
","
","""event"",""trial"",""time""
""fullscreenenter"",""5"",""11630""
","
",421.05999996419996,NA,48,NA,NA,3000,1,NA,NA,images/tutgreenplanet.jpg,images/tutalien2,images/tutalien1,images/tutrocket1,images/tutalien2,images/nothing.png,2,practice,false,2,rare,0,2020-06-15T23:58:59Z,sub21
two-step-fixation,90,393239,0.0-61.0-2.9,FALSE,FALSE,TRUE,TRUE,"""event"",""trial"",""time""
""fullscreenenter"",""5"",""11630""
","
","
","""event"",""trial"",""time""
""fullscreenenter"",""5"",""11630""
","
",NA,images/earth.jpg,NA,NA,NA,NA,NA,NA,NA,NA,NA,NA,NA,NA,NA,fixation,NA,NA,NA,NA,NA,NA,sub21
d3-animate-choice,91,395591,0.0-61.0-0.10,FALSE,FALSE,TRUE,TRUE,"""event"",""trial"",""time""
""fullscreenenter"",""5"",""11630""
","
","
","""event"",""trial"",""time""
""fullscreenenter"",""5"",""11630""
","
",347.8549999999814,NA,48,NA,NA,3000,1,NA,NA,images/earth.jpg,images/tutrocket1,images/tutrocket2,null,images/tutrocket1,NA,1,practice,null,2,NA,NA,NA,sub21
d3-animate-choice,92,398209,0.0-61.0-1.10,FALSE,FALSE,TRUE,TRUE,"""event"",""trial"",""time""
""fullscreenenter"",""5"",""11630""
","
","
","""event"",""trial"",""time""
""fullscreenenter"",""5"",""11630""
","
",614.3999999621883,NA,48,NA,NA,3000,1,NA,NA,images/tutyellowplanet.jpg,images/tutalien4,images/tutalien3,images/tutrocket1,images/tutalien4,images/nothing.png,2,practice,true,2,common,0,2020-06-15T23:59:05Z,sub21
two-step-fixation,93,399213,0.0-61.0-2.10,FALSE,FALSE,TRUE,TRUE,"""event"",""trial"",""time""
""fullscreenenter"",""5"",""11630""
","
","
","""event"",""trial"",""time""
""fullscreenenter"",""5"",""11630""
","
",NA,images/earth.jpg,NA,NA,NA,NA,NA,NA,NA,NA,NA,NA,NA,NA,NA,fixation,NA,NA,NA,NA,NA,NA,sub21
d3-animate-choice,94,401683,0.0-61.0-0.11,FALSE,FALSE,TRUE,TRUE,"""event"",""trial"",""time""
""fullscreenenter"",""5"",""11630""
","
","
","""event"",""trial"",""time""
""fullscreenenter"",""5"",""11630""
","
",465.48499999335036,NA,49,NA,NA,3000,1,NA,NA,images/earth.jpg,images/tutrocket1,images/tutrocket2,null,images/tutrocket2,NA,1,practice,null,1,NA,NA,NA,sub21
d3-animate-choice,95,405230,0.0-61.0-1.11,FALSE,FALSE,TRUE,TRUE,"""event"",""trial"",""time""
""fullscreenenter"",""5"",""11630""
","
","
","""event"",""trial"",""time""
""fullscreenenter"",""5"",""11630""
","
",1544.6050000027753,NA,49,NA,NA,3000,1,NA,NA,images/tutyellowplanet.jpg,images/tutalien4,images/tutalien3,images/tutrocket2,images/tutalien3,images/nothing.png,2,practice,false,1,rare,0,2020-06-15T23:59:12Z,sub21
two-step-fixation,96,406235,0.0-61.0-2.11,FALSE,FALSE,TRUE,TRUE,"""event"",""trial"",""time""
""fullscreenenter"",""5"",""11630""
","
","
","""event"",""trial"",""time""
""fullscreenenter"",""5"",""11630""
","
",NA,images/earth.jpg,NA,NA,NA,NA,NA,NA,NA,NA,NA,NA,NA,NA,NA,fixation,NA,NA,NA,NA,NA,NA,sub21
d3-animate-choice,97,408514,0.0-61.0-0.12,FALSE,FALSE,TRUE,TRUE,"""event"",""trial"",""time""
""fullscreenenter"",""5"",""11630""
","
","
","""event"",""trial"",""time""
""fullscreenenter"",""5"",""11630""
","
",274.02499999152496,NA,49,NA,NA,3000,1,NA,NA,images/earth.jpg,images/tutrocket1,images/tutrocket2,null,images/tutrocket2,NA,1,practice,null,1,NA,NA,NA,sub21
d3-animate-choice,98,411905,0.0-61.0-1.12,FALSE,FALSE,TRUE,TRUE,"""event"",""trial"",""time""
""fullscreenenter"",""5"",""11630""
","
","
","""event"",""trial"",""time""
""fullscreenenter"",""5"",""11630""
","
",1387.3299999977462,NA,49,NA,NA,3000,1,NA,NA,images/tutgreenplanet.jpg,images/tutalien2,images/tutalien1,images/tutrocket2,images/tutalien1,images/nothing.png,2,practice,true,1,common,0,2020-06-15T23:59:19Z,sub21
two-step-fixation,99,412909,0.0-61.0-2.12,FALSE,FALSE,TRUE,TRUE,"""event"",""trial"",""time""
""fullscreenenter"",""5"",""11630""
","
","
","""event"",""trial"",""time""
""fullscreenenter"",""5"",""11630""
","
",NA,images/earth.jpg,NA,NA,NA,NA,NA,NA,NA,NA,NA,NA,NA,NA,NA,fixation,NA,NA,NA,NA,NA,NA,sub21
d3-animate-choice,100,415230,0.0-61.0-0.13,FALSE,FALSE,TRUE,TRUE,"""event"",""trial"",""time""
""fullscreenenter"",""5"",""11630""
","
","
","""event"",""trial"",""time""
""fullscreenenter"",""5"",""11630""
","
",317.1650000149384,NA,49,NA,NA,3000,1,NA,NA,images/earth.jpg,images/tutrocket1,images/tutrocket2,null,images/tutrocket2,NA,1,practice,null,1,NA,NA,NA,sub21
d3-animate-choice,101,418135,0.0-61.0-1.13,FALSE,FALSE,TRUE,TRUE,"""event"",""trial"",""time""
""fullscreenenter"",""5"",""11630""
","
","
","""event"",""trial"",""time""
""fullscreenenter"",""5"",""11630""
","
",900.7450000499375,NA,48,NA,NA,3000,1,NA,NA,images/tutyellowplanet.jpg,images/tutalien4,images/tutalien3,images/tutrocket2,images/tutalien4,images/t.png,2,practice,false,2,rare,1,2020-06-15T23:59:25Z,sub21
two-step-fixation,102,419138,0.0-61.0-2.13,FALSE,FALSE,TRUE,TRUE,"""event"",""trial"",""time""
""fullscreenenter"",""5"",""11630""
","
","
","""event"",""trial"",""time""
""fullscreenenter"",""5"",""11630""
","
",NA,images/earth.jpg,NA,NA,NA,NA,NA,NA,NA,NA,NA,NA,NA,NA,NA,fixation,NA,NA,NA,NA,NA,NA,sub21
d3-animate-choice,103,421418,0.0-61.0-0.14,FALSE,FALSE,TRUE,TRUE,"""event"",""trial"",""time""
""fullscreenenter"",""5"",""11630""
","
","
","""event"",""trial"",""time""
""fullscreenenter"",""5"",""11630""
","
",275.6499999668449,NA,49,NA,NA,3000,1,NA,NA,images/earth.jpg,images/tutrocket1,images/tutrocket2,null,images/tutrocket2,NA,1,practice,null,1,NA,NA,NA,sub21
d3-animate-choice,104,423788,0.0-61.0-1.14,FALSE,FALSE,TRUE,TRUE,"""event"",""trial"",""time""
""fullscreenenter"",""5"",""11630""
","
","
","""event"",""trial"",""time""
""fullscreenenter"",""5"",""11630""
","
",365.8300000242889,NA,48,NA,NA,3000,1,NA,NA,images/tutyellowplanet.jpg,images/tutalien4,images/tutalien3,images/tutrocket2,images/tutalien4,images/t.png,2,practice,false,2,rare,1,2020-06-15T23:59:31Z,sub21
two-step-fixation,105,424791,0.0-61.0-2.14,FALSE,FALSE,TRUE,TRUE,"""event"",""trial"",""time""
""fullscreenenter"",""5"",""11630""
","
","
","""event"",""trial"",""time""
""fullscreenenter"",""5"",""11630""
","
",NA,images/earth.jpg,NA,NA,NA,NA,NA,NA,NA,NA,NA,NA,NA,NA,NA,fixation,NA,NA,NA,NA,NA,NA,sub21
d3-animate-choice,106,427121,0.0-61.0-0.15,FALSE,FALSE,TRUE,TRUE,"""event"",""trial"",""time""
""fullscreenenter"",""5"",""11630""
","
","
","""event"",""trial"",""time""
""fullscreenenter"",""5"",""11630""
","
",325.6999999866821,NA,49,NA,NA,3000,1,NA,NA,images/earth.jpg,images/tutrocket1,images/tutrocket2,null,images/tutrocket2,NA,1,practice,null,1,NA,NA,NA,sub21
d3-animate-choice,107,429499,0.0-61.0-1.15,FALSE,FALSE,TRUE,TRUE,"""event"",""trial"",""time""
""fullscreenenter"",""5"",""11630""
","
","
","""event"",""trial"",""time""
""fullscreenenter"",""5"",""11630""
","
",374.1400000290014,NA,48,NA,NA,3000,1,NA,NA,images/tutyellowplanet.jpg,images/tutalien4,images/tutalien3,images/tutrocket2,images/tutalien4,images/nothing.png,2,practice,false,2,rare,0,2020-06-15T23:59:37Z,sub21
two-step-fixation,108,430502,0.0-61.0-2.15,FALSE,FALSE,TRUE,TRUE,"""event"",""trial"",""time""
""fullscreenenter"",""5"",""11630""
","
","
","""event"",""trial"",""time""
""fullscreenenter"",""5"",""11630""
","
",NA,images/earth.jpg,NA,NA,NA,NA,NA,NA,NA,NA,NA,NA,NA,NA,NA,fixation,NA,NA,NA,NA,NA,NA,sub21
d3-animate-choice,109,432789,0.0-61.0-0.16,FALSE,FALSE,TRUE,TRUE,"""event"",""trial"",""time""
""fullscreenenter"",""5"",""11630""
","
","
","""event"",""trial"",""time""
""fullscreenenter"",""5"",""11630""
","
",283.48499996354803,NA,49,NA,NA,3000,1,NA,NA,images/earth.jpg,images/tutrocket1,images/tutrocket2,null,images/tutrocket2,NA,1,practice,null,1,NA,NA,NA,sub21
d3-animate-choice,110,436794,0.0-61.0-1.16,FALSE,FALSE,TRUE,TRUE,"""event"",""trial"",""time""
""fullscreenenter"",""5"",""11630""
","
","
","""event"",""trial"",""time""
""fullscreenenter"",""5"",""11630""
","
",2864.564999996219,NA,49,NA,NA,3000,1,NA,NA,images/tutgreenplanet.jpg,images/tutalien2,images/tutalien1,images/tutrocket2,images/tutalien1,NA,2,practice,true,1,common,0,2020-06-15T23:59:44Z,sub21
two-step-fixation,111,437798,0.0-61.0-2.16,FALSE,FALSE,TRUE,TRUE,"""event"",""trial"",""time""
""fullscreenenter"",""5"",""11630""
","
","
","""event"",""trial"",""time""
""fullscreenenter"",""5"",""11630""
","
",NA,images/earth.jpg,NA,NA,NA,NA,NA,NA,NA,NA,NA,NA,NA,NA,NA,fixation,NA,NA,NA,NA,NA,NA,sub21
d3-animate-choice,112,441354,0.0-61.0-0.17,FALSE,FALSE,TRUE,TRUE,"""event"",""trial"",""time""
""fullscreenenter"",""5"",""11630""
","
","
","""event"",""trial"",""time""
""fullscreenenter"",""5"",""11630""
","
",1551.0750000248663,NA,49,NA,NA,3000,1,NA,NA,images/earth.jpg,images/tutrocket1,images/tutrocket2,null,images/tutrocket2,NA,1,practice,null,1,NA,NA,NA,sub21
d3-animate-choice,113,444008,0.0-61.0-1.17,FALSE,FALSE,TRUE,TRUE,"""event"",""trial"",""time""
""fullscreenenter"",""5"",""11630""
","
","
","""event"",""trial"",""time""
""fullscreenenter"",""5"",""11630""
","
",650.5699999979697,NA,49,NA,NA,3000,1,NA,NA,images/tutgreenplanet.jpg,images/tutalien2,images/tutalien1,images/tutrocket2,images/tutalien1,images/t.png,2,practice,true,1,common,1,2020-06-15T23:59:51Z,sub21
two-step-fixation,114,445013,0.0-61.0-2.17,FALSE,FALSE,TRUE,TRUE,"""event"",""trial"",""time""
""fullscreenenter"",""5"",""11630""
","
","
","""event"",""trial"",""time""
""fullscreenenter"",""5"",""11630""
","
",NA,images/earth.jpg,NA,NA,NA,NA,NA,NA,NA,NA,NA,NA,NA,NA,NA,fixation,NA,NA,NA,NA,NA,NA,sub21
d3-animate-choice,115,447297,0.0-61.0-0.18,FALSE,FALSE,TRUE,TRUE,"""event"",""trial"",""time""
""fullscreenenter"",""5"",""11630""
","
","
","""event"",""trial"",""time""
""fullscreenenter"",""5"",""11630""
","
",278.65999995265156,NA,49,NA,NA,3000,1,NA,NA,images/earth.jpg,images/tutrocket1,images/tutrocket2,null,images/tutrocket2,NA,1,practice,null,1,NA,NA,NA,sub21
d3-animate-choice,116,449580,0.0-61.0-1.18,FALSE,FALSE,TRUE,TRUE,"""event"",""trial"",""time""
""fullscreenenter"",""5"",""11630""
","
","
","""event"",""trial"",""time""
""fullscreenenter"",""5"",""11630""
","
",280.7150000007823,NA,49,NA,NA,3000,1,NA,NA,images/tutgreenplanet.jpg,images/tutalien2,images/tutalien1,images/tutrocket2,images/tutalien1,images/nothing.png,2,practice,true,1,common,0,2020-06-15T23:59:57Z,sub21
two-step-fixation,117,450582,0.0-61.0-2.18,FALSE,FALSE,TRUE,TRUE,"""event"",""trial"",""time""
""fullscreenenter"",""5"",""11630""
","
","
","""event"",""trial"",""time""
""fullscreenenter"",""5"",""11630""
","
",NA,images/earth.jpg,NA,NA,NA,NA,NA,NA,NA,NA,NA,NA,NA,NA,NA,fixation,NA,NA,NA,NA,NA,NA,sub21
d3-animate-choice,118,452887,0.0-61.0-0.19,FALSE,FALSE,TRUE,TRUE,"""event"",""trial"",""time""
""fullscreenenter"",""5"",""11630""
","
","
","""event"",""trial"",""time""
""fullscreenenter"",""5"",""11630""
","
",300.59500003699213,NA,49,NA,NA,3000,1,NA,NA,images/earth.jpg,images/tutrocket1,images/tutrocket2,null,images/tutrocket2,NA,1,practice,null,1,NA,NA,NA,sub21
d3-animate-choice,119,455706,0.0-61.0-1.19,FALSE,FALSE,TRUE,TRUE,"""event"",""trial"",""time""
""fullscreenenter"",""5"",""11630""
","
","
","""event"",""trial"",""time""
""fullscreenenter"",""5"",""11630""
","
",814.9850000045262,NA,48,NA,NA,3000,1,NA,NA,images/tutgreenplanet.jpg,images/tutalien2,images/tutalien1,images/tutrocket2,images/tutalien2,images/t.png,2,practice,true,2,common,1,2020-06-16T00:00:03Z,sub21
two-step-fixation,120,456711,0.0-61.0-2.19,FALSE,FALSE,TRUE,TRUE,"""event"",""trial"",""time""
""fullscreenenter"",""5"",""11630""
","
","
","""event"",""trial"",""time""
""fullscreenenter"",""5"",""11630""
","
",NA,images/earth.jpg,NA,NA,NA,NA,NA,NA,NA,NA,NA,NA,NA,NA,NA,fixation,NA,NA,NA,NA,NA,NA,sub21
d3-instructions,121,460248,0.0-62.0,FALSE,FALSE,TRUE,TRUE,"""event"",""trial"",""time""
""fullscreenenter"",""5"",""11630""
","
","
","""event"",""trial"",""time""
""fullscreenenter"",""5"",""11630""
","
",NA,NA,NA,NA,NA,NA,NA,NA,NA,NA,NA,NA,NA,NA,NA,NA,NA,NA,NA,NA,NA,NA,sub21
audio-keyboard-response,122,463593,0.0-63.0,FALSE,FALSE,TRUE,TRUE,"""event"",""trial"",""time""
""fullscreenenter"",""5"",""11630""
","
","
","""event"",""trial"",""time""
""fullscreenenter"",""5"",""11630""
","
",3339,audio/instructions/treasure_feedback.wav,32,NA,NA,NA,NA,NA,NA,NA,NA,NA,NA,NA,NA,NA,NA,NA,NA,NA,NA,NA,sub21
d3-instructions,123,482535,0.0-64.0,FALSE,FALSE,TRUE,TRUE,"""event"",""trial"",""time""
""fullscreenenter"",""5"",""11630""
","
","
","""event"",""trial"",""time""
""fullscreenenter"",""5"",""11630""
","
",NA,NA,NA,NA,NA,NA,NA,NA,NA,NA,NA,NA,NA,NA,NA,NA,NA,NA,NA,NA,NA,NA,sub21
d3-instructions,124,496688,0.0-65.0,FALSE,FALSE,TRUE,TRUE,"""event"",""trial"",""time""
""fullscreenenter"",""5"",""11630""
","
","
","""event"",""trial"",""time""
""fullscreenenter"",""5"",""11630""
","
",NA,NA,NA,NA,NA,NA,NA,NA,NA,NA,NA,NA,NA,NA,NA,NA,NA,NA,NA,NA,NA,NA,sub21
d3-instructions,125,521121,0.0-66.0,FALSE,FALSE,TRUE,TRUE,"""event"",""trial"",""time""
""fullscreenenter"",""5"",""11630""
","
","
","""event"",""trial"",""time""
""fullscreenenter"",""5"",""11630""
","
",NA,NA,NA,NA,NA,NA,NA,NA,NA,NA,NA,NA,NA,NA,NA,NA,NA,NA,NA,NA,NA,NA,sub21
d3-instructions,126,537327,0.0-67.0,FALSE,FALSE,TRUE,TRUE,"""event"",""trial"",""time""
""fullscreenenter"",""5"",""11630""
","
","
","""event"",""trial"",""time""
""fullscreenenter"",""5"",""11630""
","
",NA,NA,NA,NA,NA,NA,NA,NA,NA,NA,NA,NA,NA,NA,NA,NA,NA,NA,NA,NA,NA,NA,sub21
d3-instructions,127,541980,0.0-68.0,FALSE,FALSE,TRUE,TRUE,"""event"",""trial"",""time""
""fullscreenenter"",""5"",""11630""
","
","
","""event"",""trial"",""time""
""fullscreenenter"",""5"",""11630""
","
",NA,NA,NA,NA,NA,NA,NA,NA,NA,NA,NA,NA,NA,NA,NA,NA,NA,NA,NA,NA,NA,NA,sub21
instructions-quiz,128,547836,0.0-69.0,FALSE,FALSE,TRUE,TRUE,"""event"",""trial"",""time""
""fullscreenenter"",""5"",""11630""
","
","
","""event"",""trial"",""time""
""fullscreenenter"",""5"",""11630""
","
",5853.179999976419,audio/quiz/Q1_Prompt.wav,NA,1,NA,NA,NA,NA,NA,NA,NA,NA,NA,NA,NA,NA,NA,NA,NA,NA,NA,NA,sub21
audio-keyboard-response,129,549943,0.0-70.0,FALSE,FALSE,TRUE,TRUE,"""event"",""trial"",""time""
""fullscreenenter"",""5"",""11630""
","
","
","""event"",""trial"",""time""
""fullscreenenter"",""5"",""11630""
","
",2099,audio/quiz/Q1_Correct.wav,32,NA,NA,NA,NA,NA,NA,NA,NA,NA,NA,NA,NA,NA,NA,NA,NA,NA,NA,NA,sub21
instructions-quiz,130,554381,0.0-71.0,FALSE,FALSE,TRUE,TRUE,"""event"",""trial"",""time""
""fullscreenenter"",""5"",""11630""
","
","
","""event"",""trial"",""time""
""fullscreenenter"",""5"",""11630""
","
",4436.820000002626,audio/quiz/Q2_Prompt.wav,NA,0,NA,NA,NA,NA,NA,NA,NA,NA,NA,NA,NA,NA,NA,NA,NA,NA,NA,NA,sub21
audio-keyboard-response,131,556583,0.0-72.0,FALSE,FALSE,TRUE,TRUE,"""event"",""trial"",""time""
""fullscreenenter"",""5"",""11630""
","
","
","""event"",""trial"",""time""
""fullscreenenter"",""5"",""11630""
","
",2200,audio/quiz/Q2_Correct.wav,32,NA,NA,NA,NA,NA,NA,NA,NA,NA,NA,NA,NA,NA,NA,NA,NA,NA,NA,NA,sub21
instructions-quiz,132,560608,0.0-73.0,FALSE,FALSE,TRUE,TRUE,"""event"",""trial"",""time""
""fullscreenenter"",""5"",""11630""
","
","
","""event"",""trial"",""time""
""fullscreenenter"",""5"",""11630""
","
",4023.0849999934435,audio/quiz/Q3_Prompt.wav,NA,1,NA,NA,NA,NA,NA,NA,NA,NA,NA,NA,NA,NA,NA,NA,NA,NA,NA,NA,sub21
audio-keyboard-response,133,562221,0.0-74.0,FALSE,FALSE,TRUE,TRUE,"""event"",""trial"",""time""
""fullscreenenter"",""5"",""11630""
","
","
","""event"",""trial"",""time""
""fullscreenenter"",""5"",""11630""
","
",1608,audio/quiz/Q3_Correct.wav,32,NA,NA,NA,NA,NA,NA,NA,NA,NA,NA,NA,NA,NA,NA,NA,NA,NA,NA,NA,sub21
d3-instructions,134,565802,0.0-75.0,FALSE,FALSE,TRUE,TRUE,"""event"",""trial"",""time""
""fullscreenenter"",""5"",""11630""
","
","
","""event"",""trial"",""time""
""fullscreenenter"",""5"",""11630""
","
",NA,NA,NA,NA,NA,NA,NA,NA,NA,NA,NA,NA,NA,NA,NA,NA,NA,NA,NA,NA,NA,NA,sub21
d3-animate-choice,135,569106,0.0-76.0-0.0,FALSE,FALSE,TRUE,TRUE,"""event"",""trial"",""time""
""fullscreenenter"",""5"",""11630""
","
","
","""event"",""trial"",""time""
""fullscreenenter"",""5"",""11630""
","
",1297.6749999797903,NA,48,NA,NA,3000,1,NA,NA,images/earth.jpg,images/rocket1,images/rocket2,null,images/rocket1,NA,1,real,null,2,NA,NA,NA,sub21
d3-animate-choice,136,571771,0.0-76.0-1.0,FALSE,FALSE,TRUE,TRUE,"""event"",""trial"",""time""
""fullscreenenter"",""5"",""11630""
","
","
","""event"",""trial"",""time""
""fullscreenenter"",""5"",""11630""
","
",660.8099999721162,NA,49,NA,NA,3000,1,NA,NA,images/redplanet1.jpg,images/alien2,images/alien1,images/rocket1,images/alien1,images/nothing.png,2,real,false,1,rare,0,2020-06-16T00:01:59Z,sub21
two-step-fixation,137,572776,0.0-76.0-2.0,FALSE,FALSE,TRUE,TRUE,"""event"",""trial"",""time""
""fullscreenenter"",""5"",""11630""
","
","
","""event"",""trial"",""time""
""fullscreenenter"",""5"",""11630""
","
",NA,images/earth.jpg,NA,NA,NA,NA,NA,NA,NA,NA,NA,NA,NA,NA,NA,fixation,NA,NA,NA,NA,NA,NA,sub21
d3-animate-choice,138,575596,0.0-76.0-0.1,FALSE,FALSE,TRUE,TRUE,"""event"",""trial"",""time""
""fullscreenenter"",""5"",""11630""
","
","
","""event"",""trial"",""time""
""fullscreenenter"",""5"",""11630""
","
",815.6899999594316,NA,48,NA,NA,3000,1,NA,NA,images/earth.jpg,images/rocket1,images/rocket2,null,images/rocket1,NA,1,real,null,2,NA,NA,NA,sub21
d3-animate-choice,139,577922,0.0-76.0-1.1,FALSE,FALSE,TRUE,TRUE,"""event"",""trial"",""time""
""fullscreenenter"",""5"",""11630""
","
","
","""event"",""trial"",""time""
""fullscreenenter"",""5"",""11630""
","
",323.1750000268221,NA,48,NA,NA,3000,1,NA,NA,images/redplanet1.jpg,images/alien2,images/alien1,images/rocket1,images/alien2,images/nothing.png,2,real,false,2,rare,0,2020-06-16T00:02:05Z,sub21
two-step-fixation,140,578925,0.0-76.0-2.1,FALSE,FALSE,TRUE,TRUE,"""event"",""trial"",""time""
""fullscreenenter"",""5"",""11630""
","
","
","""event"",""trial"",""time""
""fullscreenenter"",""5"",""11630""
","
",NA,images/earth.jpg,NA,NA,NA,NA,NA,NA,NA,NA,NA,NA,NA,NA,NA,fixation,NA,NA,NA,NA,NA,NA,sub21
d3-animate-choice,141,581193,0.0-76.0-0.2,FALSE,FALSE,TRUE,TRUE,"""event"",""trial"",""time""
""fullscreenenter"",""5"",""11630""
","
","
","""event"",""trial"",""time""
""fullscreenenter"",""5"",""11630""
","
",264.27500002318993,NA,48,NA,NA,3000,1,NA,NA,images/earth.jpg,images/rocket1,images/rocket2,null,images/rocket1,NA,1,real,null,2,NA,NA,NA,sub21
d3-animate-choice,142,583478,0.0-76.0-1.2,FALSE,FALSE,TRUE,TRUE,"""event"",""trial"",""time""
""fullscreenenter"",""5"",""11630""
","
","
","""event"",""trial"",""time""
""fullscreenenter"",""5"",""11630""
","
",280.1350000081584,NA,49,NA,NA,3000,1,NA,NA,images/purpleplanet.jpg,images/alien4,images/alien3,images/rocket1,images/alien3,images/t.png,2,real,true,1,common,1,2020-06-16T00:02:11Z,sub21
two-step-fixation,143,584483,0.0-76.0-2.2,FALSE,FALSE,TRUE,TRUE,"""event"",""trial"",""time""
""fullscreenenter"",""5"",""11630""
","
","
","""event"",""trial"",""time""
""fullscreenenter"",""5"",""11630""
","
",NA,images/earth.jpg,NA,NA,NA,NA,NA,NA,NA,NA,NA,NA,NA,NA,NA,fixation,NA,NA,NA,NA,NA,NA,sub21
d3-animate-choice,144,587287,0.0-76.0-0.3,FALSE,FALSE,TRUE,TRUE,"""event"",""trial"",""time""
""fullscreenenter"",""5"",""11630""
","
","
","""event"",""trial"",""time""
""fullscreenenter"",""5"",""11630""
","
",799.620000005234,NA,49,NA,NA,3000,1,NA,NA,images/earth.jpg,images/rocket1,images/rocket2,null,images/rocket2,NA,1,real,null,1,NA,NA,NA,sub21
d3-animate-choice,145,590628,0.0-76.0-1.3,FALSE,FALSE,TRUE,TRUE,"""event"",""trial"",""time""
""fullscreenenter"",""5"",""11630""
","
","
","""event"",""trial"",""time""
""fullscreenenter"",""5"",""11630""
","
",1337.9399999976158,NA,49,NA,NA,3000,1,NA,NA,images/redplanet1.jpg,images/alien2,images/alien1,images/rocket2,images/alien1,images/nothing.png,2,real,true,1,common,0,2020-06-16T00:02:18Z,sub21
two-step-fixation,146,591633,0.0-76.0-2.3,FALSE,FALSE,TRUE,TRUE,"""event"",""trial"",""time""
""fullscreenenter"",""5"",""11630""
","
","
","""event"",""trial"",""time""
""fullscreenenter"",""5"",""11630""
","
",NA,images/earth.jpg,NA,NA,NA,NA,NA,NA,NA,NA,NA,NA,NA,NA,NA,fixation,NA,NA,NA,NA,NA,NA,sub21
d3-animate-choice,147,594742,0.0-76.0-0.4,FALSE,FALSE,TRUE,TRUE,"""event"",""trial"",""time""
""fullscreenenter"",""5"",""11630""
","
","
","""event"",""trial"",""time""
""fullscreenenter"",""5"",""11630""
","
",1104.9800000037067,NA,48,NA,NA,3000,1,NA,NA,images/earth.jpg,images/rocket1,images/rocket2,null,images/rocket1,NA,1,real,null,2,NA,NA,NA,sub21
d3-animate-choice,148,597901,0.0-76.0-1.4,FALSE,FALSE,TRUE,TRUE,"""event"",""trial"",""time""
""fullscreenenter"",""5"",""11630""
","
","
","""event"",""trial"",""time""
""fullscreenenter"",""5"",""11630""
","
",1154.2699999990873,NA,48,NA,NA,3000,1,NA,NA,images/redplanet1.jpg,images/alien2,images/alien1,images/rocket1,images/alien2,images/nothing.png,2,real,false,2,rare,0,2020-06-16T00:02:25Z,sub21
two-step-fixation,149,598906,0.0-76.0-2.4,FALSE,FALSE,TRUE,TRUE,"""event"",""trial"",""time""
""fullscreenenter"",""5"",""11630""
","
","
","""event"",""trial"",""time""
""fullscreenenter"",""5"",""11630""
","
",NA,images/earth.jpg,NA,NA,NA,NA,NA,NA,NA,NA,NA,NA,NA,NA,NA,fixation,NA,NA,NA,NA,NA,NA,sub21
d3-animate-choice,150,601250,0.0-76.0-0.5,FALSE,FALSE,TRUE,TRUE,"""event"",""trial"",""time""
""fullscreenenter"",""5"",""11630""
","
","
","""event"",""trial"",""time""
""fullscreenenter"",""5"",""11630""
","
",339.5800000289455,NA,49,NA,NA,3000,1,NA,NA,images/earth.jpg,images/rocket1,images/rocket2,null,images/rocket2,NA,1,real,null,1,NA,NA,NA,sub21
d3-animate-choice,151,605257,0.0-76.0-1.5,FALSE,FALSE,TRUE,TRUE,"""event"",""trial"",""time""
""fullscreenenter"",""5"",""11630""
","
","
","""event"",""trial"",""time""
""fullscreenenter"",""5"",""11630""
","
",3701.375000004191,NA,49,NA,NA,3000,0,NA,NA,images/redplanet1.jpg,images/alien2,images/alien1,images/rocket2,NA,NA,2,real,true,1,common,0,2020-06-16T00:02:32Z,sub21
two-step-fixation,152,606260,0.0-76.0-2.5,FALSE,FALSE,TRUE,TRUE,"""event"",""trial"",""time""
""fullscreenenter"",""5"",""11630""
","
","
","""event"",""trial"",""time""
""fullscreenenter"",""5"",""11630""
","
",NA,images/earth.jpg,NA,NA,NA,NA,NA,NA,NA,NA,NA,NA,NA,NA,NA,fixation,NA,NA,NA,NA,NA,NA,sub21
d3-animate-choice,153,608565,0.0-76.0-0.6,FALSE,FALSE,TRUE,TRUE,"""event"",""trial"",""time""
""fullscreenenter"",""5"",""11630""
","
","
","""event"",""trial"",""time""
""fullscreenenter"",""5"",""11630""
","
",302.78999998699874,NA,48,NA,NA,3000,1,NA,NA,images/earth.jpg,images/rocket1,images/rocket2,null,images/rocket1,NA,1,real,null,2,NA,NA,NA,sub21
d3-animate-choice,154,611219,0.0-76.0-1.6,FALSE,FALSE,TRUE,TRUE,"""event"",""trial"",""time""
""fullscreenenter"",""5"",""11630""
","
","
","""event"",""trial"",""time""
""fullscreenenter"",""5"",""11630""
","
",649.0300000295974,NA,49,NA,NA,3000,1,NA,NA,images/purpleplanet.jpg,images/alien4,images/alien3,images/rocket1,images/alien3,images/nothing.png,2,real,true,1,common,0,2020-06-16T00:02:38Z,sub21
two-step-fixation,155,612222,0.0-76.0-2.6,FALSE,FALSE,TRUE,TRUE,"""event"",""trial"",""time""
""fullscreenenter"",""5"",""11630""
","
","
","""event"",""trial"",""time""
""fullscreenenter"",""5"",""11630""
","
",NA,images/earth.jpg,NA,NA,NA,NA,NA,NA,NA,NA,NA,NA,NA,NA,NA,fixation,NA,NA,NA,NA,NA,NA,sub21
d3-animate-choice,156,614981,0.0-76.0-0.7,FALSE,FALSE,TRUE,TRUE,"""event"",""trial"",""time""
""fullscreenenter"",""5"",""11630""
","
","
","""event"",""trial"",""time""
""fullscreenenter"",""5"",""11630""
","
",753.4650000161491,NA,49,NA,NA,3000,1,NA,NA,images/earth.jpg,images/rocket1,images/rocket2,null,images/rocket2,NA,1,real,null,1,NA,NA,NA,sub21
d3-animate-choice,157,618360,0.0-76.0-1.7,FALSE,FALSE,TRUE,TRUE,"""event"",""trial"",""time""
""fullscreenenter"",""5"",""11630""
","
","
","""event"",""trial"",""time""
""fullscreenenter"",""5"",""11630""
","
",1374.565000005532,NA,48,NA,NA,3000,1,NA,NA,images/purpleplanet.jpg,images/alien4,images/alien3,images/rocket2,images/alien4,images/t.png,2,real,false,2,rare,1,2020-06-16T00:02:45Z,sub21
two-step-fixation,158,619365,0.0-76.0-2.7,FALSE,FALSE,TRUE,TRUE,"""event"",""trial"",""time""
""fullscreenenter"",""5"",""11630""
","
","
","""event"",""trial"",""time""
""fullscreenenter"",""5"",""11630""
","
",NA,images/earth.jpg,NA,NA,NA,NA,NA,NA,NA,NA,NA,NA,NA,NA,NA,fixation,NA,NA,NA,NA,NA,NA,sub21
d3-animate-choice,159,621939,0.0-76.0-0.8,FALSE,FALSE,TRUE,TRUE,"""event"",""trial"",""time""
""fullscreenenter"",""5"",""11630""
","
","
","""event"",""trial"",""time""
""fullscreenenter"",""5"",""11630""
","
",570.5900000175461,NA,49,NA,NA,3000,1,NA,NA,images/earth.jpg,images/rocket1,images/rocket2,null,images/rocket2,NA,1,real,null,1,NA,NA,NA,sub21
d3-animate-choice,160,624755,0.0-76.0-1.8,FALSE,FALSE,TRUE,TRUE,"""event"",""trial"",""time""
""fullscreenenter"",""5"",""11630""
","
","
","""event"",""trial"",""time""
""fullscreenenter"",""5"",""11630""
","
",811.7199999978766,NA,49,NA,NA,3000,1,NA,NA,images/redplanet1.jpg,images/alien2,images/alien1,images/rocket2,images/alien1,images/nothing.png,2,real,true,1,common,0,2020-06-16T00:02:52Z,sub21
two-step-fixation,161,625758,0.0-76.0-2.8,FALSE,FALSE,TRUE,TRUE,"""event"",""trial"",""time""
""fullscreenenter"",""5"",""11630""
","
","
","""event"",""trial"",""time""
""fullscreenenter"",""5"",""11630""
","
",NA,images/earth.jpg,NA,NA,NA,NA,NA,NA,NA,NA,NA,NA,NA,NA,NA,fixation,NA,NA,NA,NA,NA,NA,sub21
d3-animate-choice,162,628014,0.0-76.0-0.9,FALSE,FALSE,TRUE,TRUE,"""event"",""trial"",""time""
""fullscreenenter"",""5"",""11630""
","
","
","""event"",""trial"",""time""
""fullscreenenter"",""5"",""11630""
","
",251.47499999729916,NA,49,NA,NA,3000,1,NA,NA,images/earth.jpg,images/rocket1,images/rocket2,null,images/rocket2,NA,1,real,null,1,NA,NA,NA,sub21
d3-animate-choice,163,630420,0.0-76.0-1.9,FALSE,FALSE,TRUE,TRUE,"""event"",""trial"",""time""
""fullscreenenter"",""5"",""11630""
","
","
","""event"",""trial"",""time""
""fullscreenenter"",""5"",""11630""
","
",403.2000000006519,NA,48,NA,NA,3000,1,NA,NA,images/redplanet1.jpg,images/alien2,images/alien1,images/rocket2,images/alien2,images/t.png,2,real,true,2,common,1,2020-06-16T00:02:57Z,sub21
two-step-fixation,164,631425,0.0-76.0-2.9,FALSE,FALSE,TRUE,TRUE,"""event"",""trial"",""time""
""fullscreenenter"",""5"",""11630""
","
","
","""event"",""trial"",""time""
""fullscreenenter"",""5"",""11630""
","
",NA,images/earth.jpg,NA,NA,NA,NA,NA,NA,NA,NA,NA,NA,NA,NA,NA,fixation,NA,NA,NA,NA,NA,NA,sub21
d3-animate-choice,165,633752,0.0-76.0-0.10,FALSE,FALSE,TRUE,TRUE,"""event"",""trial"",""time""
""fullscreenenter"",""5"",""11630""
","
","
","""event"",""trial"",""time""
""fullscreenenter"",""5"",""11630""
","
",322.08000001264736,NA,49,NA,NA,3000,1,NA,NA,images/earth.jpg,images/rocket1,images/rocket2,null,images/rocket2,NA,1,real,null,1,NA,NA,NA,sub21
d3-animate-choice,166,636872,0.0-76.0-1.10,FALSE,FALSE,TRUE,TRUE,"""event"",""trial"",""time""
""fullscreenenter"",""5"",""11630""
","
","
","""event"",""trial"",""time""
""fullscreenenter"",""5"",""11630""
","
",1117.1150000300258,NA,48,NA,NA,3000,1,NA,NA,images/redplanet1.jpg,images/alien2,images/alien1,images/rocket2,images/alien2,images/t.png,2,real,true,2,common,1,2020-06-16T00:03:04Z,sub21
two-step-fixation,167,637877,0.0-76.0-2.10,FALSE,FALSE,TRUE,TRUE,"""event"",""trial"",""time""
""fullscreenenter"",""5"",""11630""
","
","
","""event"",""trial"",""time""
""fullscreenenter"",""5"",""11630""
","
",NA,images/earth.jpg,NA,NA,NA,NA,NA,NA,NA,NA,NA,NA,NA,NA,NA,fixation,NA,NA,NA,NA,NA,NA,sub21
d3-animate-choice,168,640193,0.0-76.0-0.11,FALSE,FALSE,TRUE,TRUE,"""event"",""trial"",""time""
""fullscreenenter"",""5"",""11630""
","
","
","""event"",""trial"",""time""
""fullscreenenter"",""5"",""11630""
","
",311.3850000081584,NA,49,NA,NA,3000,1,NA,NA,images/earth.jpg,images/rocket1,images/rocket2,null,images/rocket2,NA,1,real,null,1,NA,NA,NA,sub21
d3-animate-choice,169,642626,0.0-76.0-1.11,FALSE,FALSE,TRUE,TRUE,"""event"",""trial"",""time""
""fullscreenenter"",""5"",""11630""
","
","
","""event"",""trial"",""time""
""fullscreenenter"",""5"",""11630""
","
",430.06000004243106,NA,48,NA,NA,3000,1,NA,NA,images/redplanet1.jpg,images/alien2,images/alien1,images/rocket2,images/alien2,images/t.png,2,real,true,2,common,1,2020-06-16T00:03:10Z,sub21
two-step-fixation,170,643629,0.0-76.0-2.11,FALSE,FALSE,TRUE,TRUE,"""event"",""trial"",""time""
""fullscreenenter"",""5"",""11630""
","
","
","""event"",""trial"",""time""
""fullscreenenter"",""5"",""11630""
","
",NA,images/earth.jpg,NA,NA,NA,NA,NA,NA,NA,NA,NA,NA,NA,NA,NA,fixation,NA,NA,NA,NA,NA,NA,sub21
d3-animate-choice,171,645903,0.0-76.0-0.12,FALSE,FALSE,TRUE,TRUE,"""event"",""trial"",""time""
""fullscreenenter"",""5"",""11630""
","
","
","""event"",""trial"",""time""
""fullscreenenter"",""5"",""11630""
","
",270.4999999841675,NA,49,NA,NA,3000,1,NA,NA,images/earth.jpg,images/rocket1,images/rocket2,null,images/rocket2,NA,1,real,null,1,NA,NA,NA,sub21
d3-animate-choice,172,649052,0.0-76.0-1.12,FALSE,FALSE,TRUE,TRUE,"""event"",""trial"",""time""
""fullscreenenter"",""5"",""11630""
","
","
","""event"",""trial"",""time""
""fullscreenenter"",""5"",""11630""
","
",1145.4249999951571,NA,49,NA,NA,3000,1,NA,NA,images/purpleplanet.jpg,images/alien4,images/alien3,images/rocket2,images/alien3,images/nothing.png,2,real,false,1,rare,0,2020-06-16T00:03:16Z,sub21
two-step-fixation,173,650056,0.0-76.0-2.12,FALSE,FALSE,TRUE,TRUE,"""event"",""trial"",""time""
""fullscreenenter"",""5"",""11630""
","
","
","""event"",""trial"",""time""
""fullscreenenter"",""5"",""11630""
","
",NA,images/earth.jpg,NA,NA,NA,NA,NA,NA,NA,NA,NA,NA,NA,NA,NA,fixation,NA,NA,NA,NA,NA,NA,sub21
d3-animate-choice,174,652371,0.0-76.0-0.13,FALSE,FALSE,TRUE,TRUE,"""event"",""trial"",""time""
""fullscreenenter"",""5"",""11630""
","
","
","""event"",""trial"",""time""
""fullscreenenter"",""5"",""11630""
","
",309.93000004673377,NA,49,NA,NA,3000,1,NA,NA,images/earth.jpg,images/rocket1,images/rocket2,null,images/rocket2,NA,1,real,null,1,NA,NA,NA,sub21
d3-animate-choice,175,655373,0.0-76.0-1.13,FALSE,FALSE,TRUE,TRUE,"""event"",""trial"",""time""
""fullscreenenter"",""5"",""11630""
","
","
","""event"",""trial"",""time""
""fullscreenenter"",""5"",""11630""
","
",997.399999992922,NA,48,NA,NA,3000,1,NA,NA,images/purpleplanet.jpg,images/alien4,images/alien3,images/rocket2,images/alien4,images/nothing.png,2,real,false,2,rare,0,2020-06-16T00:03:22Z,sub21
two-step-fixation,176,656377,0.0-76.0-2.13,FALSE,FALSE,TRUE,TRUE,"""event"",""trial"",""time""
""fullscreenenter"",""5"",""11630""
","
","
","""event"",""trial"",""time""
""fullscreenenter"",""5"",""11630""
","
",NA,images/earth.jpg,NA,NA,NA,NA,NA,NA,NA,NA,NA,NA,NA,NA,NA,fixation,NA,NA,NA,NA,NA,NA,sub21
d3-animate-choice,177,658650,0.0-76.0-0.14,FALSE,FALSE,TRUE,TRUE,"""event"",""trial"",""time""
""fullscreenenter"",""5"",""11630""
","
","
","""event"",""trial"",""time""
""fullscreenenter"",""5"",""11630""
","
",268.4000000008382,NA,48,NA,NA,3000,1,NA,NA,images/earth.jpg,images/rocket1,images/rocket2,null,images/rocket1,NA,1,real,null,2,NA,NA,NA,sub21
d3-animate-choice,178,661726,0.0-76.0-1.14,FALSE,FALSE,TRUE,TRUE,"""event"",""trial"",""time""
""fullscreenenter"",""5"",""11630""
","
","
","""event"",""trial"",""time""
""fullscreenenter"",""5"",""11630""
","
",1071.7750000185333,NA,49,NA,NA,3000,1,NA,NA,images/purpleplanet.jpg,images/alien4,images/alien3,images/rocket1,images/alien3,images/t.png,2,real,true,1,common,1,2020-06-16T00:03:29Z,sub21
two-step-fixation,179,662729,0.0-76.0-2.14,FALSE,FALSE,TRUE,TRUE,"""event"",""trial"",""time""
""fullscreenenter"",""5"",""11630""
","
","
","""event"",""trial"",""time""
""fullscreenenter"",""5"",""11630""
","
",NA,images/earth.jpg,NA,NA,NA,NA,NA,NA,NA,NA,NA,NA,NA,NA,NA,fixation,NA,NA,NA,NA,NA,NA,sub21
d3-animate-choice,180,665125,0.0-76.0-0.15,FALSE,FALSE,TRUE,TRUE,"""event"",""trial"",""time""
""fullscreenenter"",""5"",""11630""
""blur"",""181"",""666092""
","""event"",""trial"",""time""
""blur"",""181"",""666092""
","
","""event"",""trial"",""time""
""fullscreenenter"",""5"",""11630""
","
",391.64500002516434,NA,49,NA,NA,3000,1,NA,NA,images/earth.jpg,images/rocket1,images/rocket2,null,images/rocket2,NA,1,real,null,1,NA,NA,NA,sub21
d3-animate-choice,181,667941,0.0-76.0-1.15,FALSE,FALSE,TRUE,TRUE,"""event"",""trial"",""time""
""fullscreenenter"",""5"",""11630""
""blur"",""181"",""666092""
","""event"",""trial"",""time""
""blur"",""181"",""666092""
","
","""event"",""trial"",""time""
""fullscreenenter"",""5"",""11630""
","
",810.9549999935552,NA,48,NA,NA,3000,1,NA,NA,images/redplanet1.jpg,images/alien2,images/alien1,images/rocket2,images/alien2,images/t.png,2,real,true,2,common,1,2020-06-16T00:03:35Z,sub21
two-step-fixation,182,668943,0.0-76.0-2.15,FALSE,FALSE,TRUE,TRUE,"""event"",""trial"",""time""
""fullscreenenter"",""5"",""11630""
""blur"",""181"",""666092""
""focus"",""183"",""669902""
","""event"",""trial"",""time""
""blur"",""181"",""666092""
","""event"",""trial"",""time""
""focus"",""183"",""669902""
","""event"",""trial"",""time""
""fullscreenenter"",""5"",""11630""
","
",NA,images/earth.jpg,NA,NA,NA,NA,NA,NA,NA,NA,NA,NA,NA,NA,NA,fixation,NA,NA,NA,NA,NA,NA,sub21
d3-animate-choice,183,672947,0.0-76.0-0.16,FALSE,FALSE,TRUE,TRUE,"""event"",""trial"",""time""
""fullscreenenter"",""5"",""11630""
""blur"",""181"",""666092""
""focus"",""183"",""669902""
","""event"",""trial"",""time""
""blur"",""181"",""666092""
","""event"",""trial"",""time""
""focus"",""183"",""669902""
","""event"",""trial"",""time""
""fullscreenenter"",""5"",""11630""
","
",2257.824999978766,NA,49,NA,NA,3000,1,NA,NA,images/earth.jpg,images/rocket1,images/rocket2,null,images/rocket2,NA,1,real,null,1,NA,NA,NA,sub21
d3-animate-choice,184,676029,0.0-76.0-1.16,FALSE,FALSE,TRUE,TRUE,"""event"",""trial"",""time""
""fullscreenenter"",""5"",""11630""
""blur"",""181"",""666092""
""focus"",""183"",""669902""
","""event"",""trial"",""time""
""blur"",""181"",""666092""
","""event"",""trial"",""time""
""focus"",""183"",""669902""
","""event"",""trial"",""time""
""fullscreenenter"",""5"",""11630""
","
",1078.925000037998,NA,49,NA,NA,3000,1,NA,NA,images/purpleplanet.jpg,images/alien4,images/alien3,images/rocket2,images/alien3,images/nothing.png,2,real,false,1,rare,0,2020-06-16T00:03:43Z,sub21
two-step-fixation,185,677033,0.0-76.0-2.16,FALSE,FALSE,TRUE,TRUE,"""event"",""trial"",""time""
""fullscreenenter"",""5"",""11630""
""blur"",""181"",""666092""
""focus"",""183"",""669902""
","""event"",""trial"",""time""
""blur"",""181"",""666092""
","""event"",""trial"",""time""
""focus"",""183"",""669902""
","""event"",""trial"",""time""
""fullscreenenter"",""5"",""11630""
","
",NA,images/earth.jpg,NA,NA,NA,NA,NA,NA,NA,NA,NA,NA,NA,NA,NA,fixation,NA,NA,NA,NA,NA,NA,sub21
d3-animate-choice,186,679604,0.0-76.0-0.17,FALSE,FALSE,TRUE,TRUE,"""event"",""trial"",""time""
""fullscreenenter"",""5"",""11630""
""blur"",""181"",""666092""
""focus"",""183"",""669902""
","""event"",""trial"",""time""
""blur"",""181"",""666092""
","""event"",""trial"",""time""
""focus"",""183"",""669902""
","""event"",""trial"",""time""
""fullscreenenter"",""5"",""11630""
","
",567.0549999922514,NA,49,NA,NA,3000,1,NA,NA,images/earth.jpg,images/rocket1,images/rocket2,null,images/rocket2,NA,1,real,null,1,NA,NA,NA,sub21
d3-animate-choice,187,682439,0.0-76.0-1.17,FALSE,FALSE,TRUE,TRUE,"""event"",""trial"",""time""
""fullscreenenter"",""5"",""11630""
""blur"",""181"",""666092""
""focus"",""183"",""669902""
","""event"",""trial"",""time""
""blur"",""181"",""666092""
","""event"",""trial"",""time""
""focus"",""183"",""669902""
","""event"",""trial"",""time""
""fullscreenenter"",""5"",""11630""
","
",830.3999999770895,NA,49,NA,NA,3000,1,NA,NA,images/purpleplanet.jpg,images/alien4,images/alien3,images/rocket2,images/alien3,images/nothing.png,2,real,false,1,rare,0,2020-06-16T00:03:50Z,sub21
two-step-fixation,188,683442,0.0-76.0-2.17,FALSE,FALSE,TRUE,TRUE,"""event"",""trial"",""time""
""fullscreenenter"",""5"",""11630""
""blur"",""181"",""666092""
""focus"",""183"",""669902""
","""event"",""trial"",""time""
""blur"",""181"",""666092""
","""event"",""trial"",""time""
""focus"",""183"",""669902""
","""event"",""trial"",""time""
""fullscreenenter"",""5"",""11630""
","
",NA,images/earth.jpg,NA,NA,NA,NA,NA,NA,NA,NA,NA,NA,NA,NA,NA,fixation,NA,NA,NA,NA,NA,NA,sub21
d3-animate-choice,189,685681,0.0-76.0-0.18,FALSE,FALSE,TRUE,TRUE,"""event"",""trial"",""time""
""fullscreenenter"",""5"",""11630""
""blur"",""181"",""666092""
""focus"",""183"",""669902""
","""event"",""trial"",""time""
""blur"",""181"",""666092""
","""event"",""trial"",""time""
""focus"",""183"",""669902""
","""event"",""trial"",""time""
""fullscreenenter"",""5"",""11630""
","
",235.05000001750886,NA,48,NA,NA,3000,1,NA,NA,images/earth.jpg,images/rocket1,images/rocket2,null,images/rocket1,NA,1,real,null,2,NA,NA,NA,sub21
d3-animate-choice,190,688790,0.0-76.0-1.18,FALSE,FALSE,TRUE,TRUE,"""event"",""trial"",""time""
""fullscreenenter"",""5"",""11630""
""blur"",""181"",""666092""
""focus"",""183"",""669902""
","""event"",""trial"",""time""
""blur"",""181"",""666092""
","""event"",""trial"",""time""
""focus"",""183"",""669902""
","""event"",""trial"",""time""
""fullscreenenter"",""5"",""11630""
","
",1103.049999976065,NA,48,NA,NA,3000,1,NA,NA,images/purpleplanet.jpg,images/alien4,images/alien3,images/rocket1,images/alien4,images/t.png,2,real,true,2,common,1,2020-06-16T00:03:56Z,sub21
two-step-fixation,191,689794,0.0-76.0-2.18,FALSE,FALSE,TRUE,TRUE,"""event"",""trial"",""time""
""fullscreenenter"",""5"",""11630""
""blur"",""181"",""666092""
""focus"",""183"",""669902""
","""event"",""trial"",""time""
""blur"",""181"",""666092""
","""event"",""trial"",""time""
""focus"",""183"",""669902""
","""event"",""trial"",""time""
""fullscreenenter"",""5"",""11630""
","
",NA,images/earth.jpg,NA,NA,NA,NA,NA,NA,NA,NA,NA,NA,NA,NA,NA,fixation,NA,NA,NA,NA,NA,NA,sub21
d3-animate-choice,192,692256,0.0-76.0-0.19,FALSE,FALSE,TRUE,TRUE,"""event"",""trial"",""time""
""fullscreenenter"",""5"",""11630""
""blur"",""181"",""666092""
""focus"",""183"",""669902""
","""event"",""trial"",""time""
""blur"",""181"",""666092""
","""event"",""trial"",""time""
""focus"",""183"",""669902""
","""event"",""trial"",""time""
""fullscreenenter"",""5"",""11630""
","
",456.9599999813363,NA,49,NA,NA,3000,1,NA,NA,images/earth.jpg,images/rocket1,images/rocket2,null,images/rocket2,NA,1,real,null,1,NA,NA,NA,sub21
d3-animate-choice,193,695100,0.0-76.0-1.19,FALSE,FALSE,TRUE,TRUE,"""event"",""trial"",""time""
""fullscreenenter"",""5"",""11630""
""blur"",""181"",""666092""
""focus"",""183"",""669902""
","""event"",""trial"",""time""
""blur"",""181"",""666092""
","""event"",""trial"",""time""
""focus"",""183"",""669902""
","""event"",""trial"",""time""
""fullscreenenter"",""5"",""11630""
","
",840.5250000068918,NA,49,NA,NA,3000,1,NA,NA,images/redplanet1.jpg,images/alien2,images/alien1,images/rocket2,images/alien1,images/nothing.png,2,real,true,1,common,0,2020-06-16T00:04:02Z,sub21
two-step-fixation,194,696104,0.0-76.0-2.19,FALSE,FALSE,TRUE,TRUE,"""event"",""trial"",""time""
""fullscreenenter"",""5"",""11630""
""blur"",""181"",""666092""
""focus"",""183"",""669902""
","""event"",""trial"",""time""
""blur"",""181"",""666092""
","""event"",""trial"",""time""
""focus"",""183"",""669902""
","""event"",""trial"",""time""
""fullscreenenter"",""5"",""11630""
","
",NA,images/earth.jpg,NA,NA,NA,NA,NA,NA,NA,NA,NA,NA,NA,NA,NA,fixation,NA,NA,NA,NA,NA,NA,sub21
d3-animate-choice,195,698459,0.0-76.0-0.20,FALSE,FALSE,TRUE,TRUE,"""event"",""trial"",""time""
""fullscreenenter"",""5"",""11630""
""blur"",""181"",""666092""
""focus"",""183"",""669902""
","""event"",""trial"",""time""
""blur"",""181"",""666092""
","""event"",""trial"",""time""
""focus"",""183"",""669902""
","""event"",""trial"",""time""
""fullscreenenter"",""5"",""11630""
","
",350.95000005094334,NA,48,NA,NA,3000,1,NA,NA,images/earth.jpg,images/rocket1,images/rocket2,null,images/rocket1,NA,1,real,null,2,NA,NA,NA,sub21
d3-animate-choice,196,700991,0.0-76.0-1.20,FALSE,FALSE,TRUE,TRUE,"""event"",""trial"",""time""
""fullscreenenter"",""5"",""11630""
""blur"",""181"",""666092""
""focus"",""183"",""669902""
","""event"",""trial"",""time""
""blur"",""181"",""666092""
","""event"",""trial"",""time""
""focus"",""183"",""669902""
","""event"",""trial"",""time""
""fullscreenenter"",""5"",""11630""
","
",528.8299999665469,NA,48,NA,NA,3000,1,NA,NA,images/purpleplanet.jpg,images/alien4,images/alien3,images/rocket1,images/alien4,images/t.png,2,real,true,2,common,1,2020-06-16T00:04:08Z,sub21
two-step-fixation,197,701995,0.0-76.0-2.20,FALSE,FALSE,TRUE,TRUE,"""event"",""trial"",""time""
""fullscreenenter"",""5"",""11630""
""blur"",""181"",""666092""
""focus"",""183"",""669902""
","""event"",""trial"",""time""
""blur"",""181"",""666092""
","""event"",""trial"",""time""
""focus"",""183"",""669902""
","""event"",""trial"",""time""
""fullscreenenter"",""5"",""11630""
","
",NA,images/earth.jpg,NA,NA,NA,NA,NA,NA,NA,NA,NA,NA,NA,NA,NA,fixation,NA,NA,NA,NA,NA,NA,sub21
d3-animate-choice,198,704255,0.0-76.0-0.21,FALSE,FALSE,TRUE,TRUE,"""event"",""trial"",""time""
""fullscreenenter"",""5"",""11630""
""blur"",""181"",""666092""
""focus"",""183"",""669902""
","""event"",""trial"",""time""
""blur"",""181"",""666092""
","""event"",""trial"",""time""
""focus"",""183"",""669902""
","""event"",""trial"",""time""
""fullscreenenter"",""5"",""11630""
","
",255.16000000061467,NA,48,NA,NA,3000,1,NA,NA,images/earth.jpg,images/rocket1,images/rocket2,null,images/rocket1,NA,1,real,null,2,NA,NA,NA,sub21
d3-animate-choice,199,706659,0.0-76.0-1.21,FALSE,FALSE,TRUE,TRUE,"""event"",""trial"",""time""
""fullscreenenter"",""5"",""11630""
""blur"",""181"",""666092""
""focus"",""183"",""669902""
","""event"",""trial"",""time""
""blur"",""181"",""666092""
","""event"",""trial"",""time""
""focus"",""183"",""669902""
","""event"",""trial"",""time""
""fullscreenenter"",""5"",""11630""
","
",399.70000000903383,NA,48,NA,NA,3000,1,NA,NA,images/purpleplanet.jpg,images/alien4,images/alien3,images/rocket1,images/alien4,images/nothing.png,2,real,true,2,common,0,2020-06-16T00:04:14Z,sub21
two-step-fixation,200,707663,0.0-76.0-2.21,FALSE,FALSE,TRUE,TRUE,"""event"",""trial"",""time""
""fullscreenenter"",""5"",""11630""
""blur"",""181"",""666092""
""focus"",""183"",""669902""
","""event"",""trial"",""time""
""blur"",""181"",""666092""
","""event"",""trial"",""time""
""focus"",""183"",""669902""
","""event"",""trial"",""time""
""fullscreenenter"",""5"",""11630""
","
",NA,images/earth.jpg,NA,NA,NA,NA,NA,NA,NA,NA,NA,NA,NA,NA,NA,fixation,NA,NA,NA,NA,NA,NA,sub21
d3-animate-choice,201,709870,0.0-76.0-0.22,FALSE,FALSE,TRUE,TRUE,"""event"",""trial"",""time""
""fullscreenenter"",""5"",""11630""
""blur"",""181"",""666092""
""focus"",""183"",""669902""
","""event"",""trial"",""time""
""blur"",""181"",""666092""
","""event"",""trial"",""time""
""focus"",""183"",""669902""
","""event"",""trial"",""time""
""fullscreenenter"",""5"",""11630""
","
",202.37499999348074,NA,49,NA,NA,3000,1,NA,NA,images/earth.jpg,images/rocket1,images/rocket2,null,images/rocket2,NA,1,real,null,1,NA,NA,NA,sub21
d3-animate-choice,202,712734,0.0-76.0-1.22,FALSE,FALSE,TRUE,TRUE,"""event"",""trial"",""time""
""fullscreenenter"",""5"",""11630""
""blur"",""181"",""666092""
""focus"",""183"",""669902""
","""event"",""trial"",""time""
""blur"",""181"",""666092""
","""event"",""trial"",""time""
""focus"",""183"",""669902""
","""event"",""trial"",""time""
""fullscreenenter"",""5"",""11630""
","
",860.0100000039674,NA,49,NA,NA,3000,1,NA,NA,images/redplanet1.jpg,images/alien2,images/alien1,images/rocket2,images/alien1,images/nothing.png,2,real,true,1,common,0,2020-06-16T00:04:20Z,sub21
two-step-fixation,203,713737,0.0-76.0-2.22,FALSE,FALSE,TRUE,TRUE,"""event"",""trial"",""time""
""fullscreenenter"",""5"",""11630""
""blur"",""181"",""666092""
""focus"",""183"",""669902""
","""event"",""trial"",""time""
""blur"",""181"",""666092""
","""event"",""trial"",""time""
""focus"",""183"",""669902""
","""event"",""trial"",""time""
""fullscreenenter"",""5"",""11630""
","
",NA,images/earth.jpg,NA,NA,NA,NA,NA,NA,NA,NA,NA,NA,NA,NA,NA,fixation,NA,NA,NA,NA,NA,NA,sub21
d3-animate-choice,204,715984,0.0-76.0-0.23,FALSE,FALSE,TRUE,TRUE,"""event"",""trial"",""time""
""fullscreenenter"",""5"",""11630""
""blur"",""181"",""666092""
""focus"",""183"",""669902""
","""event"",""trial"",""time""
""blur"",""181"",""666092""
","""event"",""trial"",""time""
""focus"",""183"",""669902""
","""event"",""trial"",""time""
""fullscreenenter"",""5"",""11630""
","
",242.49500001315027,NA,49,NA,NA,3000,1,NA,NA,images/earth.jpg,images/rocket1,images/rocket2,null,images/rocket2,NA,1,real,null,1,NA,NA,NA,sub21
d3-animate-choice,205,718909,0.0-76.0-1.23,FALSE,FALSE,TRUE,TRUE,"""event"",""trial"",""time""
""fullscreenenter"",""5"",""11630""
""blur"",""181"",""666092""
""focus"",""183"",""669902""
","""event"",""trial"",""time""
""blur"",""181"",""666092""
","""event"",""trial"",""time""
""focus"",""183"",""669902""
","""event"",""trial"",""time""
""fullscreenenter"",""5"",""11630""
","
",921.5299999923445,NA,48,NA,NA,3000,1,NA,NA,images/purpleplanet.jpg,images/alien4,images/alien3,images/rocket2,images/alien4,images/t.png,2,real,false,2,rare,1,2020-06-16T00:04:26Z,sub21
two-step-fixation,206,719913,0.0-76.0-2.23,FALSE,FALSE,TRUE,TRUE,"""event"",""trial"",""time""
""fullscreenenter"",""5"",""11630""
""blur"",""181"",""666092""
""focus"",""183"",""669902""
","""event"",""trial"",""time""
""blur"",""181"",""666092""
","""event"",""trial"",""time""
""focus"",""183"",""669902""
","""event"",""trial"",""time""
""fullscreenenter"",""5"",""11630""
","
",NA,images/earth.jpg,NA,NA,NA,NA,NA,NA,NA,NA,NA,NA,NA,NA,NA,fixation,NA,NA,NA,NA,NA,NA,sub21
d3-animate-choice,207,722290,0.0-76.0-0.24,FALSE,FALSE,TRUE,TRUE,"""event"",""trial"",""time""
""fullscreenenter"",""5"",""11630""
""blur"",""181"",""666092""
""focus"",""183"",""669902""
","""event"",""trial"",""time""
""blur"",""181"",""666092""
","""event"",""trial"",""time""
""focus"",""183"",""669902""
","""event"",""trial"",""time""
""fullscreenenter"",""5"",""11630""
","
",372.4449999863282,NA,49,NA,NA,3000,1,NA,NA,images/earth.jpg,images/rocket1,images/rocket2,null,images/rocket2,NA,1,real,null,1,NA,NA,NA,sub21
d3-animate-choice,208,724945,0.0-76.0-1.24,FALSE,FALSE,TRUE,TRUE,"""event"",""trial"",""time""
""fullscreenenter"",""5"",""11630""
""blur"",""181"",""666092""
""focus"",""183"",""669902""
","""event"",""trial"",""time""
""blur"",""181"",""666092""
","""event"",""trial"",""time""
""focus"",""183"",""669902""
","""event"",""trial"",""time""
""fullscreenenter"",""5"",""11630""
","
",649.8450000071898,NA,48,NA,NA,3000,1,NA,NA,images/purpleplanet.jpg,images/alien4,images/alien3,images/rocket2,images/alien4,images/t.png,2,real,false,2,rare,1,2020-06-16T00:04:32Z,sub21
two-step-fixation,209,725950,0.0-76.0-2.24,FALSE,FALSE,TRUE,TRUE,"""event"",""trial"",""time""
""fullscreenenter"",""5"",""11630""
""blur"",""181"",""666092""
""focus"",""183"",""669902""
","""event"",""trial"",""time""
""blur"",""181"",""666092""
","""event"",""trial"",""time""
""focus"",""183"",""669902""
","""event"",""trial"",""time""
""fullscreenenter"",""5"",""11630""
","
",NA,images/earth.jpg,NA,NA,NA,NA,NA,NA,NA,NA,NA,NA,NA,NA,NA,fixation,NA,NA,NA,NA,NA,NA,sub21
d3-animate-choice,210,728312,0.0-76.0-0.25,FALSE,FALSE,TRUE,TRUE,"""event"",""trial"",""time""
""fullscreenenter"",""5"",""11630""
""blur"",""181"",""666092""
""focus"",""183"",""669902""
","""event"",""trial"",""time""
""blur"",""181"",""666092""
","""event"",""trial"",""time""
""focus"",""183"",""669902""
","""event"",""trial"",""time""
""fullscreenenter"",""5"",""11630""
","
",358.3399999770336,NA,49,NA,NA,3000,1,NA,NA,images/earth.jpg,images/rocket1,images/rocket2,null,images/rocket2,NA,1,real,null,1,NA,NA,NA,sub21
d3-animate-choice,211,731211,0.0-76.0-1.25,FALSE,FALSE,TRUE,TRUE,"""event"",""trial"",""time""
""fullscreenenter"",""5"",""11630""
""blur"",""181"",""666092""
""focus"",""183"",""669902""
","""event"",""trial"",""time""
""blur"",""181"",""666092""
","""event"",""trial"",""time""
""focus"",""183"",""669902""
","""event"",""trial"",""time""
""fullscreenenter"",""5"",""11630""
","
",894.7000000043772,NA,48,NA,NA,3000,1,1088.6000000173226,48,images/redplanet1.jpg,images/alien2,images/alien1,images/rocket2,images/alien2,images/nothing.png,2,real,true,2,common,0,2020-06-16T00:04:38Z,sub21
two-step-fixation,212,732214,0.0-76.0-2.25,FALSE,FALSE,TRUE,TRUE,"""event"",""trial"",""time""
""fullscreenenter"",""5"",""11630""
""blur"",""181"",""666092""
""focus"",""183"",""669902""
","""event"",""trial"",""time""
""blur"",""181"",""666092""
","""event"",""trial"",""time""
""focus"",""183"",""669902""
","""event"",""trial"",""time""
""fullscreenenter"",""5"",""11630""
","
",NA,images/earth.jpg,NA,NA,NA,NA,NA,NA,NA,NA,NA,NA,NA,NA,NA,fixation,NA,NA,NA,NA,NA,NA,sub21
d3-animate-choice,213,734496,0.0-76.0-0.26,FALSE,FALSE,TRUE,TRUE,"""event"",""trial"",""time""
""fullscreenenter"",""5"",""11630""
""blur"",""181"",""666092""
""focus"",""183"",""669902""
","""event"",""trial"",""time""
""blur"",""181"",""666092""
","""event"",""trial"",""time""
""focus"",""183"",""669902""
","""event"",""trial"",""time""
""fullscreenenter"",""5"",""11630""
","
",277.6399999856949,NA,48,NA,NA,3000,1,NA,NA,images/earth.jpg,images/rocket1,images/rocket2,null,images/rocket1,NA,1,real,null,2,NA,NA,NA,sub21
d3-animate-choice,214,736938,0.0-76.0-1.26,FALSE,FALSE,TRUE,TRUE,"""event"",""trial"",""time""
""fullscreenenter"",""5"",""11630""
""blur"",""181"",""666092""
""focus"",""183"",""669902""
","""event"",""trial"",""time""
""blur"",""181"",""666092""
","""event"",""trial"",""time""
""focus"",""183"",""669902""
","""event"",""trial"",""time""
""fullscreenenter"",""5"",""11630""
","
",437.1099999989383,NA,48,NA,NA,3000,1,NA,NA,images/purpleplanet.jpg,images/alien4,images/alien3,images/rocket1,images/alien4,images/t.png,2,real,true,2,common,1,2020-06-16T00:04:44Z,sub21
two-step-fixation,215,737943,0.0-76.0-2.26,FALSE,FALSE,TRUE,TRUE,"""event"",""trial"",""time""
""fullscreenenter"",""5"",""11630""
""blur"",""181"",""666092""
""focus"",""183"",""669902""
","""event"",""trial"",""time""
""blur"",""181"",""666092""
","""event"",""trial"",""time""
""focus"",""183"",""669902""
","""event"",""trial"",""time""
""fullscreenenter"",""5"",""11630""
","
",NA,images/earth.jpg,NA,NA,NA,NA,NA,NA,NA,NA,NA,NA,NA,NA,NA,fixation,NA,NA,NA,NA,NA,NA,sub21
d3-animate-choice,216,740238,0.0-76.0-0.27,FALSE,FALSE,TRUE,TRUE,"""event"",""trial"",""time""
""fullscreenenter"",""5"",""11630""
""blur"",""181"",""666092""
""focus"",""183"",""669902""
","""event"",""trial"",""time""
""blur"",""181"",""666092""
","""event"",""trial"",""time""
""focus"",""183"",""669902""
","""event"",""trial"",""time""
""fullscreenenter"",""5"",""11630""
","
",292.6699999952689,NA,48,NA,NA,3000,1,NA,NA,images/earth.jpg,images/rocket1,images/rocket2,null,images/rocket1,NA,1,real,null,2,NA,NA,NA,sub21
d3-animate-choice,217,742707,0.0-76.0-1.27,FALSE,FALSE,TRUE,TRUE,"""event"",""trial"",""time""
""fullscreenenter"",""5"",""11630""
""blur"",""181"",""666092""
""focus"",""183"",""669902""
","""event"",""trial"",""time""
""blur"",""181"",""666092""
","""event"",""trial"",""time""
""focus"",""183"",""669902""
","""event"",""trial"",""time""
""fullscreenenter"",""5"",""11630""
","
",465.49499995307997,NA,48,NA,NA,3000,1,NA,NA,images/purpleplanet.jpg,images/alien4,images/alien3,images/rocket1,images/alien4,images/t.png,2,real,true,2,common,1,2020-06-16T00:04:50Z,sub21
two-step-fixation,218,743711,0.0-76.0-2.27,FALSE,FALSE,TRUE,TRUE,"""event"",""trial"",""time""
""fullscreenenter"",""5"",""11630""
""blur"",""181"",""666092""
""focus"",""183"",""669902""
","""event"",""trial"",""time""
""blur"",""181"",""666092""
","""event"",""trial"",""time""
""focus"",""183"",""669902""
","""event"",""trial"",""time""
""fullscreenenter"",""5"",""11630""
","
",NA,images/earth.jpg,NA,NA,NA,NA,NA,NA,NA,NA,NA,NA,NA,NA,NA,fixation,NA,NA,NA,NA,NA,NA,sub21
d3-animate-choice,219,746002,0.0-76.0-0.28,FALSE,FALSE,TRUE,TRUE,"""event"",""trial"",""time""
""fullscreenenter"",""5"",""11630""
""blur"",""181"",""666092""
""focus"",""183"",""669902""
","""event"",""trial"",""time""
""blur"",""181"",""666092""
","""event"",""trial"",""time""
""focus"",""183"",""669902""
","""event"",""trial"",""time""
""fullscreenenter"",""5"",""11630""
","
",286.61000001011416,NA,48,NA,NA,3000,1,NA,NA,images/earth.jpg,images/rocket1,images/rocket2,null,images/rocket1,NA,1,real,null,2,NA,NA,NA,sub21
d3-animate-choice,220,748397,0.0-76.0-1.28,FALSE,FALSE,TRUE,TRUE,"""event"",""trial"",""time""
""fullscreenenter"",""5"",""11630""
""blur"",""181"",""666092""
""focus"",""183"",""669902""
","""event"",""trial"",""time""
""blur"",""181"",""666092""
","""event"",""trial"",""time""
""focus"",""183"",""669902""
","""event"",""trial"",""time""
""fullscreenenter"",""5"",""11630""
","
",390.86499996483326,NA,48,NA,NA,3000,1,NA,NA,images/purpleplanet.jpg,images/alien4,images/alien3,images/rocket1,images/alien4,images/nothing.png,2,real,true,2,common,0,2020-06-16T00:04:55Z,sub21
two-step-fixation,221,749401,0.0-76.0-2.28,FALSE,FALSE,TRUE,TRUE,"""event"",""trial"",""time""
""fullscreenenter"",""5"",""11630""
""blur"",""181"",""666092""
""focus"",""183"",""669902""
","""event"",""trial"",""time""
""blur"",""181"",""666092""
","""event"",""trial"",""time""
""focus"",""183"",""669902""
","""event"",""trial"",""time""
""fullscreenenter"",""5"",""11630""
","
",NA,images/earth.jpg,NA,NA,NA,NA,NA,NA,NA,NA,NA,NA,NA,NA,NA,fixation,NA,NA,NA,NA,NA,NA,sub21
d3-animate-choice,222,751620,0.0-76.0-0.29,FALSE,FALSE,TRUE,TRUE,"""event"",""trial"",""time""
""fullscreenenter"",""5"",""11630""
""blur"",""181"",""666092""
""focus"",""183"",""669902""
","""event"",""trial"",""time""
""blur"",""181"",""666092""
","""event"",""trial"",""time""
""focus"",""183"",""669902""
","""event"",""trial"",""time""
""fullscreenenter"",""5"",""11630""
","
",214.89000000292435,NA,49,NA,NA,3000,1,NA,NA,images/earth.jpg,images/rocket1,images/rocket2,null,images/rocket2,NA,1,real,null,1,NA,NA,NA,sub21
d3-animate-choice,223,754499,0.0-76.0-1.29,FALSE,FALSE,TRUE,TRUE,"""event"",""trial"",""time""
""fullscreenenter"",""5"",""11630""
""blur"",""181"",""666092""
""focus"",""183"",""669902""
","""event"",""trial"",""time""
""blur"",""181"",""666092""
","""event"",""trial"",""time""
""focus"",""183"",""669902""
","""event"",""trial"",""time""
""fullscreenenter"",""5"",""11630""
","
",876.7600000137463,NA,48,NA,NA,3000,1,NA,NA,images/redplanet1.jpg,images/alien2,images/alien1,images/rocket2,images/alien2,images/nothing.png,2,real,true,2,common,0,2020-06-16T00:05:02Z,sub21
two-step-fixation,224,755503,0.0-76.0-2.29,FALSE,FALSE,TRUE,TRUE,"""event"",""trial"",""time""
""fullscreenenter"",""5"",""11630""
""blur"",""181"",""666092""
""focus"",""183"",""669902""
","""event"",""trial"",""time""
""blur"",""181"",""666092""
","""event"",""trial"",""time""
""focus"",""183"",""669902""
","""event"",""trial"",""time""
""fullscreenenter"",""5"",""11630""
","
",NA,images/earth.jpg,NA,NA,NA,NA,NA,NA,NA,NA,NA,NA,NA,NA,NA,fixation,NA,NA,NA,NA,NA,NA,sub21
d3-animate-choice,225,757789,0.0-76.0-0.30,FALSE,FALSE,TRUE,TRUE,"""event"",""trial"",""time""
""fullscreenenter"",""5"",""11630""
""blur"",""181"",""666092""
""focus"",""183"",""669902""
","""event"",""trial"",""time""
""blur"",""181"",""666092""
","""event"",""trial"",""time""
""focus"",""183"",""669902""
","""event"",""trial"",""time""
""fullscreenenter"",""5"",""11630""
","
",282.05500001786277,NA,49,NA,NA,3000,1,NA,NA,images/earth.jpg,images/rocket1,images/rocket2,null,images/rocket2,NA,1,real,null,1,NA,NA,NA,sub21
d3-animate-choice,226,760232,0.0-76.0-1.30,FALSE,FALSE,TRUE,TRUE,"""event"",""trial"",""time""
""fullscreenenter"",""5"",""11630""
""blur"",""181"",""666092""
""focus"",""183"",""669902""
","""event"",""trial"",""time""
""blur"",""181"",""666092""
","""event"",""trial"",""time""
""focus"",""183"",""669902""
","""event"",""trial"",""time""
""fullscreenenter"",""5"",""11630""
","
",439.5500000100583,NA,49,NA,NA,3000,1,NA,NA,images/redplanet1.jpg,images/alien2,images/alien1,images/rocket2,images/alien1,images/t.png,2,real,true,1,common,1,2020-06-16T00:05:07Z,sub21
two-step-fixation,227,761236,0.0-76.0-2.30,FALSE,FALSE,TRUE,TRUE,"""event"",""trial"",""time""
""fullscreenenter"",""5"",""11630""
""blur"",""181"",""666092""
""focus"",""183"",""669902""
","""event"",""trial"",""time""
""blur"",""181"",""666092""
","""event"",""trial"",""time""
""focus"",""183"",""669902""
","""event"",""trial"",""time""
""fullscreenenter"",""5"",""11630""
","
",NA,images/earth.jpg,NA,NA,NA,NA,NA,NA,NA,NA,NA,NA,NA,NA,NA,fixation,NA,NA,NA,NA,NA,NA,sub21
d3-animate-choice,228,764165,0.0-76.0-0.31,FALSE,FALSE,TRUE,TRUE,"""event"",""trial"",""time""
""fullscreenenter"",""5"",""11630""
""blur"",""181"",""666092""
""focus"",""183"",""669902""
","""event"",""trial"",""time""
""blur"",""181"",""666092""
","""event"",""trial"",""time""
""focus"",""183"",""669902""
","""event"",""trial"",""time""
""fullscreenenter"",""5"",""11630""
","
",924.860000028275,NA,49,NA,NA,3000,1,NA,NA,images/earth.jpg,images/rocket1,images/rocket2,null,images/rocket2,NA,1,real,null,1,NA,NA,NA,sub21
d3-animate-choice,229,766524,0.0-76.0-1.31,FALSE,FALSE,TRUE,TRUE,"""event"",""trial"",""time""
""fullscreenenter"",""5"",""11630""
""blur"",""181"",""666092""
""focus"",""183"",""669902""
","""event"",""trial"",""time""
""blur"",""181"",""666092""
","""event"",""trial"",""time""
""focus"",""183"",""669902""
","""event"",""trial"",""time""
""fullscreenenter"",""5"",""11630""
","
",354.4199999887496,NA,49,NA,NA,3000,1,NA,NA,images/redplanet1.jpg,images/alien2,images/alien1,images/rocket2,images/alien1,images/t.png,2,real,true,1,common,1,2020-06-16T00:05:14Z,sub21
two-step-fixation,230,767529,0.0-76.0-2.31,FALSE,FALSE,TRUE,TRUE,"""event"",""trial"",""time""
""fullscreenenter"",""5"",""11630""
""blur"",""181"",""666092""
""focus"",""183"",""669902""
","""event"",""trial"",""time""
""blur"",""181"",""666092""
","""event"",""trial"",""time""
""focus"",""183"",""669902""
","""event"",""trial"",""time""
""fullscreenenter"",""5"",""11630""
","
",NA,images/earth.jpg,NA,NA,NA,NA,NA,NA,NA,NA,NA,NA,NA,NA,NA,fixation,NA,NA,NA,NA,NA,NA,sub21
d3-animate-choice,231,769878,0.0-76.0-0.32,FALSE,FALSE,TRUE,TRUE,"""event"",""trial"",""time""
""fullscreenenter"",""5"",""11630""
""blur"",""181"",""666092""
""focus"",""183"",""669902""
","""event"",""trial"",""time""
""blur"",""181"",""666092""
","""event"",""trial"",""time""
""focus"",""183"",""669902""
","""event"",""trial"",""time""
""fullscreenenter"",""5"",""11630""
","
",345.9949999814853,NA,49,NA,NA,3000,1,NA,NA,images/earth.jpg,images/rocket1,images/rocket2,null,images/rocket2,NA,1,real,null,1,NA,NA,NA,sub21
d3-animate-choice,232,772358,0.0-76.0-1.32,FALSE,FALSE,TRUE,TRUE,"""event"",""trial"",""time""
""fullscreenenter"",""5"",""11630""
""blur"",""181"",""666092""
""focus"",""183"",""669902""
","""event"",""trial"",""time""
""blur"",""181"",""666092""
","""event"",""trial"",""time""
""focus"",""183"",""669902""
","""event"",""trial"",""time""
""fullscreenenter"",""5"",""11630""
","
",476.1500000022352,NA,49,NA,NA,3000,1,NA,NA,images/redplanet1.jpg,images/alien2,images/alien1,images/rocket2,images/alien1,images/nothing.png,2,real,true,1,common,0,2020-06-16T00:05:19Z,sub21
two-step-fixation,233,773361,0.0-76.0-2.32,FALSE,FALSE,TRUE,TRUE,"""event"",""trial"",""time""
""fullscreenenter"",""5"",""11630""
""blur"",""181"",""666092""
""focus"",""183"",""669902""
","""event"",""trial"",""time""
""blur"",""181"",""666092""
","""event"",""trial"",""time""
""focus"",""183"",""669902""
","""event"",""trial"",""time""
""fullscreenenter"",""5"",""11630""
","
",NA,images/earth.jpg,NA,NA,NA,NA,NA,NA,NA,NA,NA,NA,NA,NA,NA,fixation,NA,NA,NA,NA,NA,NA,sub21
d3-animate-choice,234,775630,0.0-76.0-0.33,FALSE,FALSE,TRUE,TRUE,"""event"",""trial"",""time""
""fullscreenenter"",""5"",""11630""
""blur"",""181"",""666092""
""focus"",""183"",""669902""
","""event"",""trial"",""time""
""blur"",""181"",""666092""
","""event"",""trial"",""time""
""focus"",""183"",""669902""
","""event"",""trial"",""time""
""fullscreenenter"",""5"",""11630""
","
",265.2200000011362,NA,48,NA,NA,3000,1,NA,NA,images/earth.jpg,images/rocket1,images/rocket2,null,images/rocket1,NA,1,real,null,2,NA,NA,NA,sub21
d3-animate-choice,235,778388,0.0-76.0-1.33,FALSE,FALSE,TRUE,TRUE,"""event"",""trial"",""time""
""fullscreenenter"",""5"",""11630""
""blur"",""181"",""666092""
""focus"",""183"",""669902""
","""event"",""trial"",""time""
""blur"",""181"",""666092""
","""event"",""trial"",""time""
""focus"",""183"",""669902""
","""event"",""trial"",""time""
""fullscreenenter"",""5"",""11630""
","
",753.969999961555,NA,49,NA,NA,3000,1,NA,NA,images/redplanet1.jpg,images/alien2,images/alien1,images/rocket1,images/alien1,images/t.png,2,real,false,1,rare,1,2020-06-16T00:05:25Z,sub21
two-step-fixation,236,779393,0.0-76.0-2.33,FALSE,FALSE,TRUE,TRUE,"""event"",""trial"",""time""
""fullscreenenter"",""5"",""11630""
""blur"",""181"",""666092""
""focus"",""183"",""669902""
","""event"",""trial"",""time""
""blur"",""181"",""666092""
","""event"",""trial"",""time""
""focus"",""183"",""669902""
","""event"",""trial"",""time""
""fullscreenenter"",""5"",""11630""
","
",NA,images/earth.jpg,NA,NA,NA,NA,NA,NA,NA,NA,NA,NA,NA,NA,NA,fixation,NA,NA,NA,NA,NA,NA,sub21
d3-animate-choice,237,782481,0.0-76.0-0.34,FALSE,FALSE,TRUE,TRUE,"""event"",""trial"",""time""
""fullscreenenter"",""5"",""11630""
""blur"",""181"",""666092""
""focus"",""183"",""669902""
","""event"",""trial"",""time""
""blur"",""181"",""666092""
","""event"",""trial"",""time""
""focus"",""183"",""669902""
","""event"",""trial"",""time""
""fullscreenenter"",""5"",""11630""
","
",1084.7649999777786,NA,49,NA,NA,3000,1,NA,NA,images/earth.jpg,images/rocket1,images/rocket2,null,images/rocket2,NA,1,real,null,1,NA,NA,NA,sub21
d3-animate-choice,238,785462,0.0-76.0-1.34,FALSE,FALSE,TRUE,TRUE,"""event"",""trial"",""time""
""fullscreenenter"",""5"",""11630""
""blur"",""181"",""666092""
""focus"",""183"",""669902""
","""event"",""trial"",""time""
""blur"",""181"",""666092""
","""event"",""trial"",""time""
""focus"",""183"",""669902""
","""event"",""trial"",""time""
""fullscreenenter"",""5"",""11630""
","
",976.8049999838695,NA,48,NA,NA,3000,1,NA,NA,images/purpleplanet.jpg,images/alien4,images/alien3,images/rocket2,images/alien4,images/nothing.png,2,real,false,2,rare,0,2020-06-16T00:05:33Z,sub21
two-step-fixation,239,786465,0.0-76.0-2.34,FALSE,FALSE,TRUE,TRUE,"""event"",""trial"",""time""
""fullscreenenter"",""5"",""11630""
""blur"",""181"",""666092""
""focus"",""183"",""669902""
","""event"",""trial"",""time""
""blur"",""181"",""666092""
","""event"",""trial"",""time""
""focus"",""183"",""669902""
","""event"",""trial"",""time""
""fullscreenenter"",""5"",""11630""
","
",NA,images/earth.jpg,NA,NA,NA,NA,NA,NA,NA,NA,NA,NA,NA,NA,NA,fixation,NA,NA,NA,NA,NA,NA,sub21
d3-animate-choice,240,788772,0.0-76.0-0.35,FALSE,FALSE,TRUE,TRUE,"""event"",""trial"",""time""
""fullscreenenter"",""5"",""11630""
""blur"",""181"",""666092""
""focus"",""183"",""669902""
","""event"",""trial"",""time""
""blur"",""181"",""666092""
","""event"",""trial"",""time""
""focus"",""183"",""669902""
","""event"",""trial"",""time""
""fullscreenenter"",""5"",""11630""
","
",302.99499997636303,NA,49,NA,NA,3000,1,NA,NA,images/earth.jpg,images/rocket1,images/rocket2,null,images/rocket2,NA,1,real,null,1,NA,NA,NA,sub21
d3-animate-choice,241,791258,0.0-76.0-1.35,FALSE,FALSE,TRUE,TRUE,"""event"",""trial"",""time""
""fullscreenenter"",""5"",""11630""
""blur"",""181"",""666092""
""focus"",""183"",""669902""
","""event"",""trial"",""time""
""blur"",""181"",""666092""
","""event"",""trial"",""time""
""focus"",""183"",""669902""
","""event"",""trial"",""time""
""fullscreenenter"",""5"",""11630""
","
",482.62999998405576,NA,49,NA,NA,3000,1,NA,NA,images/redplanet1.jpg,images/alien2,images/alien1,images/rocket2,images/alien1,images/nothing.png,2,real,true,1,common,0,2020-06-16T00:05:38Z,sub21
two-step-fixation,242,792262,0.0-76.0-2.35,FALSE,FALSE,TRUE,TRUE,"""event"",""trial"",""time""
""fullscreenenter"",""5"",""11630""
""blur"",""181"",""666092""
""focus"",""183"",""669902""
","""event"",""trial"",""time""
""blur"",""181"",""666092""
","""event"",""trial"",""time""
""focus"",""183"",""669902""
","""event"",""trial"",""time""
""fullscreenenter"",""5"",""11630""
","
",NA,images/earth.jpg,NA,NA,NA,NA,NA,NA,NA,NA,NA,NA,NA,NA,NA,fixation,NA,NA,NA,NA,NA,NA,sub21
d3-animate-choice,243,794511,0.0-76.0-0.36,FALSE,FALSE,TRUE,TRUE,"""event"",""trial"",""time""
""fullscreenenter"",""5"",""11630""
""blur"",""181"",""666092""
""focus"",""183"",""669902""
","""event"",""trial"",""time""
""blur"",""181"",""666092""
","""event"",""trial"",""time""
""focus"",""183"",""669902""
","""event"",""trial"",""time""
""fullscreenenter"",""5"",""11630""
","
",244.40500000491738,NA,49,NA,NA,3000,1,NA,NA,images/earth.jpg,images/rocket1,images/rocket2,null,images/rocket2,NA,1,real,null,1,NA,NA,NA,sub21
d3-animate-choice,244,796973,0.0-76.0-1.36,FALSE,FALSE,TRUE,TRUE,"""event"",""trial"",""time""
""fullscreenenter"",""5"",""11630""
""blur"",""181"",""666092""
""focus"",""183"",""669902""
","""event"",""trial"",""time""
""blur"",""181"",""666092""
","""event"",""trial"",""time""
""focus"",""183"",""669902""
","""event"",""trial"",""time""
""fullscreenenter"",""5"",""11630""
","
",457.30000000912696,NA,49,NA,NA,3000,1,NA,NA,images/redplanet1.jpg,images/alien2,images/alien1,images/rocket2,images/alien1,images/t.png,2,real,true,1,common,1,2020-06-16T00:05:44Z,sub21
two-step-fixation,245,797977,0.0-76.0-2.36,FALSE,FALSE,TRUE,TRUE,"""event"",""trial"",""time""
""fullscreenenter"",""5"",""11630""
""blur"",""181"",""666092""
""focus"",""183"",""669902""
","""event"",""trial"",""time""
""blur"",""181"",""666092""
","""event"",""trial"",""time""
""focus"",""183"",""669902""
","""event"",""trial"",""time""
""fullscreenenter"",""5"",""11630""
","
",NA,images/earth.jpg,NA,NA,NA,NA,NA,NA,NA,NA,NA,NA,NA,NA,NA,fixation,NA,NA,NA,NA,NA,NA,sub21
d3-animate-choice,246,800253,0.0-76.0-0.37,FALSE,FALSE,TRUE,TRUE,"""event"",""trial"",""time""
""fullscreenenter"",""5"",""11630""
""blur"",""181"",""666092""
""focus"",""183"",""669902""
","""event"",""trial"",""time""
""blur"",""181"",""666092""
","""event"",""trial"",""time""
""focus"",""183"",""669902""
","""event"",""trial"",""time""
""fullscreenenter"",""5"",""11630""
","
",271.00000000791624,NA,48,NA,NA,3000,1,NA,NA,images/earth.jpg,images/rocket1,images/rocket2,null,images/rocket1,NA,1,real,null,2,NA,NA,NA,sub21
d3-animate-choice,247,802697,0.0-76.0-1.37,FALSE,FALSE,TRUE,TRUE,"""event"",""trial"",""time""
""fullscreenenter"",""5"",""11630""
""blur"",""181"",""666092""
""focus"",""183"",""669902""
","""event"",""trial"",""time""
""blur"",""181"",""666092""
","""event"",""trial"",""time""
""focus"",""183"",""669902""
","""event"",""trial"",""time""
""fullscreenenter"",""5"",""11630""
","
",440.04999997559935,NA,48,NA,NA,3000,1,NA,NA,images/purpleplanet.jpg,images/alien4,images/alien3,images/rocket1,images/alien4,images/t.png,2,real,true,2,common,1,2020-06-16T00:05:50Z,sub21
two-step-fixation,248,803701,0.0-76.0-2.37,FALSE,FALSE,TRUE,TRUE,"""event"",""trial"",""time""
""fullscreenenter"",""5"",""11630""
""blur"",""181"",""666092""
""focus"",""183"",""669902""
","""event"",""trial"",""time""
""blur"",""181"",""666092""
","""event"",""trial"",""time""
""focus"",""183"",""669902""
","""event"",""trial"",""time""
""fullscreenenter"",""5"",""11630""
","
",NA,images/earth.jpg,NA,NA,NA,NA,NA,NA,NA,NA,NA,NA,NA,NA,NA,fixation,NA,NA,NA,NA,NA,NA,sub21
d3-animate-choice,249,805987,0.0-76.0-0.38,FALSE,FALSE,TRUE,TRUE,"""event"",""trial"",""time""
""fullscreenenter"",""5"",""11630""
""blur"",""181"",""666092""
""focus"",""183"",""669902""
","""event"",""trial"",""time""
""blur"",""181"",""666092""
","""event"",""trial"",""time""
""focus"",""183"",""669902""
","""event"",""trial"",""time""
""fullscreenenter"",""5"",""11630""
","
",281.7149999900721,NA,49,NA,NA,3000,1,NA,NA,images/earth.jpg,images/rocket1,images/rocket2,null,images/rocket2,NA,1,real,null,1,NA,NA,NA,sub21
d3-animate-choice,250,808707,0.0-76.0-1.38,FALSE,FALSE,TRUE,TRUE,"""event"",""trial"",""time""
""fullscreenenter"",""5"",""11630""
""blur"",""181"",""666092""
""focus"",""183"",""669902""
","""event"",""trial"",""time""
