trial_type,trial_index,time_elapsed,internal_node_id,rocket_sides,red_planet_first_rocket,red_display_order,purple_display_order,interactions,blur_events,focus_events,fullscreenenter_events,fullscreenexit_events,rt,stimulus,key_press,button_pressed,success,duration,valid_pressed,rts,keys,planet_text,right_text,left_text,center_text,chosen_text,reward_text,trial_stage,practice_trial,transition_type,choice,transition,reward,timestamp,subject_id
pavlovia,0,18,0.0-0.0,FALSE,FALSE,FALSE,TRUE,"
","
","
","
","
",NA,NA,NA,NA,NA,NA,NA,NA,NA,NA,NA,NA,NA,NA,NA,NA,NA,NA,NA,NA,NA,NA,sub69
html-keyboard-response,1,2918,0.0-1.0,FALSE,FALSE,FALSE,TRUE,"
","
","
","
","
",2887.974999997823,Welcome! Press the space bar to begin.,32,NA,NA,NA,NA,NA,NA,NA,NA,NA,NA,NA,NA,NA,NA,NA,NA,NA,NA,NA,sub69
audio-keyboard-response,2,7954,0.0-2.0,FALSE,FALSE,FALSE,TRUE,"
","
","
","
","
",4736,audio/beep_loop.wav,32,NA,NA,NA,NA,NA,NA,NA,NA,NA,NA,NA,NA,NA,NA,NA,NA,NA,NA,NA,sub69
audio-button-response,3,9938,0.0-3.0,FALSE,FALSE,FALSE,TRUE,"
","
","
","
","
",NaN,audio/fish.mp3,NA,1,NA,NA,NA,NA,NA,NA,NA,NA,NA,NA,NA,NA,NA,NA,NA,NA,NA,NA,sub69
audio-button-response,4,12458,0.0-4.0,FALSE,FALSE,FALSE,TRUE,"""event"",""trial"",""time""
""fullscreenenter"",""5"",""16930""
","
","
","""event"",""trial"",""time""
""fullscreenenter"",""5"",""16930""
","
",NaN,audio/tiger.mp3,NA,4,NA,NA,NA,NA,NA,NA,NA,NA,NA,NA,NA,NA,NA,NA,NA,NA,NA,NA,sub69
fullscreen,5,17885,0.0-5.0,FALSE,FALSE,FALSE,TRUE,"""event"",""trial"",""time""
""fullscreenenter"",""5"",""16930""
","
","
","""event"",""trial"",""time""
""fullscreenenter"",""5"",""16930""
","
",NA,NA,NA,NA,TRUE,NA,NA,NA,NA,NA,NA,NA,NA,NA,NA,NA,NA,NA,NA,NA,NA,NA,sub69
d3-instructions,6,31582,0.0-6.0,FALSE,FALSE,FALSE,TRUE,"""event"",""trial"",""time""
""fullscreenenter"",""5"",""16930""
","
","
","""event"",""trial"",""time""
""fullscreenenter"",""5"",""16930""
","
",NA,NA,NA,NA,NA,NA,NA,NA,NA,NA,NA,NA,NA,NA,NA,NA,NA,NA,NA,NA,NA,NA,sub69
d3-instructions,7,45576,0.0-7.0,FALSE,FALSE,FALSE,TRUE,"""event"",""trial"",""time""
""fullscreenenter"",""5"",""16930""
","
","
","""event"",""trial"",""time""
""fullscreenenter"",""5"",""16930""
","
",NA,NA,NA,NA,NA,NA,NA,NA,NA,NA,NA,NA,NA,NA,NA,NA,NA,NA,NA,NA,NA,NA,sub69
d3-instructions,8,54564,0.0-8.0,FALSE,FALSE,FALSE,TRUE,"""event"",""trial"",""time""
""fullscreenenter"",""5"",""16930""
","
","
","""event"",""trial"",""time""
""fullscreenenter"",""5"",""16930""
","
",NA,NA,NA,NA,NA,NA,NA,NA,NA,NA,NA,NA,NA,NA,NA,NA,NA,NA,NA,NA,NA,NA,sub69
d3-instructions,9,67179,0.0-9.0,FALSE,FALSE,FALSE,TRUE,"""event"",""trial"",""time""
""fullscreenenter"",""5"",""16930""
","
","
","""event"",""trial"",""time""
""fullscreenenter"",""5"",""16930""
","
",NA,NA,NA,NA,NA,NA,NA,NA,NA,NA,NA,NA,NA,NA,NA,NA,NA,NA,NA,NA,NA,NA,sub69
d3-instructions,10,89113,0.0-10.0,FALSE,FALSE,FALSE,TRUE,"""event"",""trial"",""time""
""fullscreenenter"",""5"",""16930""
","
","
","""event"",""trial"",""time""
""fullscreenenter"",""5"",""16930""
","
",NA,NA,NA,NA,NA,NA,NA,NA,NA,NA,NA,NA,NA,NA,NA,NA,NA,NA,NA,NA,NA,NA,sub69
d3-animate-choice,11,92863,0.0-11.0,FALSE,FALSE,FALSE,TRUE,"""event"",""trial"",""time""
""fullscreenenter"",""5"",""16930""
","
","
","""event"",""trial"",""time""
""fullscreenenter"",""5"",""16930""
","
",1727.8349999978673,NA,49,NA,NA,3000,1,"2871.704999997746,3701.004999998986",4848,images/tutgreenplanet.jpg,images/tutalien1,images/tutalien2,null,images/tutalien2,NA,NA,practice,null,NA,NA,NA,NA,sub69
d3-animate-choice,12,96096,0.0-12.0,FALSE,FALSE,FALSE,TRUE,"""event"",""trial"",""time""
""fullscreenenter"",""5"",""16930""
","
","
","""event"",""trial"",""time""
""fullscreenenter"",""5"",""16930""
","
",1216.1550000018906,NA,48,NA,NA,3000,1,NA,NA,images/tutgreenplanet.jpg,images/tutalien1,images/tutalien2,null,images/tutalien1,NA,NA,practice,null,NA,NA,NA,NA,sub69
d3-animate-choice,13,100301,0.0-13.0,FALSE,FALSE,FALSE,TRUE,"""event"",""trial"",""time""
""fullscreenenter"",""5"",""16930""
","
","
","""event"",""trial"",""time""
""fullscreenenter"",""5"",""16930""
","
",2188.140000002022,NA,49,NA,NA,3000,1,NA,NA,images/tutgreenplanet.jpg,images/tutalien1,images/tutalien2,null,images/tutalien2,NA,NA,practice,null,NA,NA,NA,NA,sub69
d3-animate-choice,14,103381,0.0-14.0,FALSE,FALSE,FALSE,TRUE,"""event"",""trial"",""time""
""fullscreenenter"",""5"",""16930""
","
","
","""event"",""trial"",""time""
""fullscreenenter"",""5"",""16930""
","
",1067.7649999997811,NA,49,NA,NA,3000,1,NA,NA,images/tutgreenplanet.jpg,images/tutalien1,images/tutalien2,null,images/tutalien2,NA,NA,practice,null,NA,NA,NA,NA,sub69
d3-instructions,15,110346,0.0-15.0,FALSE,FALSE,FALSE,TRUE,"""event"",""trial"",""time""
""fullscreenenter"",""5"",""16930""
","
","
","""event"",""trial"",""time""
""fullscreenenter"",""5"",""16930""
","
",NA,NA,NA,NA,NA,NA,NA,NA,NA,NA,NA,NA,NA,NA,NA,NA,NA,NA,NA,NA,NA,NA,sub69
d3-instructions,16,117940,0.0-16.0,FALSE,FALSE,FALSE,TRUE,"""event"",""trial"",""time""
""fullscreenenter"",""5"",""16930""
","
","
","""event"",""trial"",""time""
""fullscreenenter"",""5"",""16930""
","
",NA,NA,NA,NA,NA,NA,NA,NA,NA,NA,NA,NA,NA,NA,NA,NA,NA,NA,NA,NA,NA,NA,sub69
d3-instructions,17,127980,0.0-17.0,FALSE,FALSE,FALSE,TRUE,"""event"",""trial"",""time""
""fullscreenenter"",""5"",""16930""
","
","
","""event"",""trial"",""time""
""fullscreenenter"",""5"",""16930""
","
",NA,NA,NA,NA,NA,NA,NA,NA,NA,NA,NA,NA,NA,NA,NA,NA,NA,NA,NA,NA,NA,NA,sub69
d3-instructions,18,141729,0.0-18.0,FALSE,FALSE,FALSE,TRUE,"""event"",""trial"",""time""
""fullscreenenter"",""5"",""16930""
","
","
","""event"",""trial"",""time""
""fullscreenenter"",""5"",""16930""
","
",NA,NA,NA,NA,NA,NA,NA,NA,NA,NA,NA,NA,NA,NA,NA,NA,NA,NA,NA,NA,NA,NA,sub69
d3-instructions,19,161062,0.0-19.0,FALSE,FALSE,FALSE,TRUE,"""event"",""trial"",""time""
""fullscreenenter"",""5"",""16930""
","
","
","""event"",""trial"",""time""
""fullscreenenter"",""5"",""16930""
","
",NA,NA,NA,NA,NA,NA,NA,NA,NA,NA,NA,NA,NA,NA,NA,NA,NA,NA,NA,NA,NA,NA,sub69
d3-animate-choice,20,164810,0.0-20.0,FALSE,FALSE,FALSE,TRUE,"""event"",""trial"",""time""
""fullscreenenter"",""5"",""16930""
","
","
","""event"",""trial"",""time""
""fullscreenenter"",""5"",""16930""
","
",1738.229999999021,NA,49,NA,NA,3000,1,NA,NA,images/tutyellowplanet.jpg,null,images/tutalien3,null,images/tutalien3,images/t.png,NA,practice,null,NA,NA,NA,NA,sub69
d3-animate-choice,21,167930,0.0-21.0,FALSE,FALSE,FALSE,TRUE,"""event"",""trial"",""time""
""fullscreenenter"",""5"",""16930""
","
","
","""event"",""trial"",""time""
""fullscreenenter"",""5"",""16930""
","
",1107.3900000010326,NA,49,NA,NA,3000,1,NA,NA,images/tutyellowplanet.jpg,null,images/tutalien3,null,images/tutalien3,images/t.png,NA,practice,null,NA,NA,NA,NA,sub69
d3-animate-choice,22,170445,0.0-22.0,FALSE,FALSE,FALSE,TRUE,"""event"",""trial"",""time""
""fullscreenenter"",""5"",""16930""
","
","
","""event"",""trial"",""time""
""fullscreenenter"",""5"",""16930""
","
",506.00500000291504,NA,49,NA,NA,3000,1,NA,NA,images/tutyellowplanet.jpg,null,images/tutalien3,null,images/tutalien3,images/t.png,NA,practice,null,NA,NA,NA,NA,sub69
d3-animate-choice,23,172936,0.0-23.0,FALSE,FALSE,FALSE,TRUE,"""event"",""trial"",""time""
""fullscreenenter"",""5"",""16930""
","
","
","""event"",""trial"",""time""
""fullscreenenter"",""5"",""16930""
","
",478.9099999979953,NA,49,NA,NA,3000,1,NA,NA,images/tutyellowplanet.jpg,null,images/tutalien3,null,images/tutalien3,images/t.png,NA,practice,null,NA,NA,NA,NA,sub69
d3-animate-choice,24,175303,0.0-24.0,FALSE,FALSE,FALSE,TRUE,"""event"",""trial"",""time""
""fullscreenenter"",""5"",""16930""
","
","
","""event"",""trial"",""time""
""fullscreenenter"",""5"",""16930""
","
",356.1250000020664,NA,49,NA,NA,3000,1,NA,NA,images/tutyellowplanet.jpg,null,images/tutalien3,null,images/tutalien3,images/nothing.png,NA,practice,null,NA,NA,NA,NA,sub69
d3-animate-choice,25,177936,0.0-25.0,FALSE,FALSE,FALSE,TRUE,"""event"",""trial"",""time""
""fullscreenenter"",""5"",""16930""
","
","
","""event"",""trial"",""time""
""fullscreenenter"",""5"",""16930""
","
",621.3949999983015,NA,49,NA,NA,3000,1,NA,NA,images/tutyellowplanet.jpg,null,images/tutalien3,null,images/tutalien3,images/t.png,NA,practice,null,NA,NA,NA,NA,sub69
d3-animate-choice,26,180346,0.0-26.0,FALSE,FALSE,FALSE,TRUE,"""event"",""trial"",""time""
""fullscreenenter"",""5"",""16930""
","
","
","""event"",""trial"",""time""
""fullscreenenter"",""5"",""16930""
","
",399.7250000029453,NA,49,NA,NA,3000,1,NA,NA,images/tutyellowplanet.jpg,null,images/tutalien3,null,images/tutalien3,images/nothing.png,NA,practice,null,NA,NA,NA,NA,sub69
d3-animate-choice,27,182931,0.0-27.0,FALSE,FALSE,FALSE,TRUE,"""event"",""trial"",""time""
""fullscreenenter"",""5"",""16930""
","
","
","""event"",""trial"",""time""
""fullscreenenter"",""5"",""16930""
","
",565.5950000000303,NA,49,NA,NA,3000,1,NA,NA,images/tutyellowplanet.jpg,null,images/tutalien3,null,images/tutalien3,images/nothing.png,NA,practice,null,NA,NA,NA,NA,sub69
d3-animate-choice,28,185393,0.0-28.0,FALSE,FALSE,FALSE,TRUE,"""event"",""trial"",""time""
""fullscreenenter"",""5"",""16930""
","
","
","""event"",""trial"",""time""
""fullscreenenter"",""5"",""16930""
","
",452.31000000057975,NA,49,NA,NA,3000,1,NA,NA,images/tutyellowplanet.jpg,null,images/tutalien3,null,images/tutalien3,images/t.png,NA,practice,null,NA,NA,NA,NA,sub69
d3-animate-choice,29,187830,0.0-29.0,FALSE,FALSE,FALSE,TRUE,"""event"",""trial"",""time""
""fullscreenenter"",""5"",""16930""
","
","
","""event"",""trial"",""time""
""fullscreenenter"",""5"",""16930""
","
",422.81999999977415,NA,49,NA,NA,3000,1,NA,NA,images/tutyellowplanet.jpg,null,images/tutalien3,null,images/tutalien3,images/t.png,NA,practice,null,NA,NA,NA,NA,sub69
d3-instructions,30,194947,0.0-30.0,FALSE,FALSE,FALSE,TRUE,"""event"",""trial"",""time""
""fullscreenenter"",""5"",""16930""
","
","
","""event"",""trial"",""time""
""fullscreenenter"",""5"",""16930""
","
",NA,NA,NA,NA,NA,NA,NA,NA,NA,NA,NA,NA,NA,NA,NA,NA,NA,NA,NA,NA,NA,NA,sub69
d3-instructions,31,205932,0.0-31.0,FALSE,FALSE,FALSE,TRUE,"""event"",""trial"",""time""
""fullscreenenter"",""5"",""16930""
","
","
","""event"",""trial"",""time""
""fullscreenenter"",""5"",""16930""
","
",NA,NA,NA,NA,NA,NA,NA,NA,NA,NA,NA,NA,NA,NA,NA,NA,NA,NA,NA,NA,NA,NA,sub69
d3-instructions,32,217386,0.0-32.0,FALSE,FALSE,FALSE,TRUE,"""event"",""trial"",""time""
""fullscreenenter"",""5"",""16930""
","
","
","""event"",""trial"",""time""
""fullscreenenter"",""5"",""16930""
","
",NA,NA,NA,NA,NA,NA,NA,NA,NA,NA,NA,NA,NA,NA,NA,NA,NA,NA,NA,NA,NA,NA,sub69
d3-instructions,33,230335,0.0-33.0,FALSE,FALSE,FALSE,TRUE,"""event"",""trial"",""time""
""fullscreenenter"",""5"",""16930""
","
","
","""event"",""trial"",""time""
""fullscreenenter"",""5"",""16930""
","
",NA,NA,NA,NA,NA,NA,NA,NA,NA,NA,NA,NA,NA,NA,NA,NA,NA,NA,NA,NA,NA,NA,sub69
d3-animate-choice,34,234794,0.0-34.0,FALSE,FALSE,FALSE,TRUE,"""event"",""trial"",""time""
""fullscreenenter"",""5"",""16930""
","
","
","""event"",""trial"",""time""
""fullscreenenter"",""5"",""16930""
","
",2449.819999997999,NA,49,NA,NA,3000,1,NA,NA,images/tutgreenplanet.jpg,images/tutalien1,images/tutalien2,null,images/tutalien2,images/t.png,NA,practice,null,NA,NA,NA,NA,sub69
d3-animate-choice,35,237480,0.0-35.0,FALSE,FALSE,FALSE,TRUE,"""event"",""trial"",""time""
""fullscreenenter"",""5"",""16930""
","
","
","""event"",""trial"",""time""
""fullscreenenter"",""5"",""16930""
","
",674.3349999997008,NA,49,NA,NA,3000,1,NA,NA,images/tutgreenplanet.jpg,images/tutalien1,images/tutalien2,null,images/tutalien2,images/nothing.png,NA,practice,null,NA,NA,NA,NA,sub69
d3-animate-choice,36,240367,0.0-36.0,FALSE,FALSE,FALSE,TRUE,"""event"",""trial"",""time""
""fullscreenenter"",""5"",""16930""
","
","
","""event"",""trial"",""time""
""fullscreenenter"",""5"",""16930""
","
",875.9550000031595,NA,48,NA,NA,3000,1,NA,NA,images/tutgreenplanet.jpg,images/tutalien1,images/tutalien2,null,images/tutalien1,images/t.png,NA,practice,null,NA,NA,NA,NA,sub69
d3-animate-choice,37,242711,0.0-37.0,FALSE,FALSE,FALSE,TRUE,"""event"",""trial"",""time""
""fullscreenenter"",""5"",""16930""
","
","
","""event"",""trial"",""time""
""fullscreenenter"",""5"",""16930""
","
",330.5900000013935,NA,48,NA,NA,3000,1,NA,NA,images/tutgreenplanet.jpg,images/tutalien1,images/tutalien2,null,images/tutalien1,images/nothing.png,NA,practice,null,NA,NA,NA,NA,sub69
d3-animate-choice,38,245945,0.0-38.0,FALSE,FALSE,FALSE,TRUE,"""event"",""trial"",""time""
""fullscreenenter"",""5"",""16930""
","
","
","""event"",""trial"",""time""
""fullscreenenter"",""5"",""16930""
","
",1224.9100000008184,NA,48,NA,NA,3000,1,NA,NA,images/tutgreenplanet.jpg,images/tutalien1,images/tutalien2,null,images/tutalien1,images/t.png,NA,practice,null,NA,NA,NA,NA,sub69
d3-animate-choice,39,248283,0.0-39.0,FALSE,FALSE,FALSE,TRUE,"""event"",""trial"",""time""
""fullscreenenter"",""5"",""16930""
","
","
","""event"",""trial"",""time""
""fullscreenenter"",""5"",""16930""
","
",321.45999999920605,NA,48,NA,NA,3000,1,NA,NA,images/tutgreenplanet.jpg,images/tutalien1,images/tutalien2,null,images/tutalien1,images/nothing.png,NA,practice,null,NA,NA,NA,NA,sub69
d3-animate-choice,40,250567,0.0-40.0,FALSE,FALSE,FALSE,TRUE,"""event"",""trial"",""time""
""fullscreenenter"",""5"",""16930""
","
","
","""event"",""trial"",""time""
""fullscreenenter"",""5"",""16930""
","
",269.0550000006624,NA,49,NA,NA,3000,1,NA,NA,images/tutgreenplanet.jpg,images/tutalien1,images/tutalien2,null,images/tutalien2,images/t.png,NA,practice,null,NA,NA,NA,NA,sub69
d3-animate-choice,41,252829,0.0-41.0,FALSE,FALSE,FALSE,TRUE,"""event"",""trial"",""time""
""fullscreenenter"",""5"",""16930""
","
","
","""event"",""trial"",""time""
""fullscreenenter"",""5"",""16930""
","
",246.81000000055064,NA,49,NA,NA,3000,1,NA,NA,images/tutgreenplanet.jpg,images/tutalien1,images/tutalien2,null,images/tutalien2,images/t.png,NA,practice,null,NA,NA,NA,NA,sub69
d3-animate-choice,42,255136,0.0-42.0,FALSE,FALSE,FALSE,TRUE,"""event"",""trial"",""time""
""fullscreenenter"",""5"",""16930""
","
","
","""event"",""trial"",""time""
""fullscreenenter"",""5"",""16930""
","
",291.5500000017346,NA,49,NA,NA,3000,1,NA,NA,images/tutgreenplanet.jpg,images/tutalien1,images/tutalien2,null,images/tutalien2,images/t.png,NA,practice,null,NA,NA,NA,NA,sub69
d3-animate-choice,43,257415,0.0-43.0,FALSE,FALSE,FALSE,TRUE,"""event"",""trial"",""time""
""fullscreenenter"",""5"",""16930""
","
","
","""event"",""trial"",""time""
""fullscreenenter"",""5"",""16930""
","
",268.1349999984377,NA,48,NA,NA,3000,1,NA,NA,images/tutgreenplanet.jpg,images/tutalien1,images/tutalien2,null,images/tutalien1,images/nothing.png,NA,practice,null,NA,NA,NA,NA,sub69
d3-instructions,44,270801,0.0-44.0,FALSE,FALSE,FALSE,TRUE,"""event"",""trial"",""time""
""fullscreenenter"",""5"",""16930""
","
","
","""event"",""trial"",""time""
""fullscreenenter"",""5"",""16930""
","
",NA,NA,NA,NA,NA,NA,NA,NA,NA,NA,NA,NA,NA,NA,NA,NA,NA,NA,NA,NA,NA,NA,sub69
d3-instructions,45,277537,0.0-45.0,FALSE,FALSE,FALSE,TRUE,"""event"",""trial"",""time""
""fullscreenenter"",""5"",""16930""
","
","
","""event"",""trial"",""time""
""fullscreenenter"",""5"",""16930""
","
",NA,NA,NA,NA,NA,NA,NA,NA,NA,NA,NA,NA,NA,NA,NA,NA,NA,NA,NA,NA,NA,NA,sub69
d3-instructions,46,282667,0.0-46.0,FALSE,FALSE,FALSE,TRUE,"""event"",""trial"",""time""
""fullscreenenter"",""5"",""16930""
","
","
","""event"",""trial"",""time""
""fullscreenenter"",""5"",""16930""
","
",NA,NA,NA,NA,NA,NA,NA,NA,NA,NA,NA,NA,NA,NA,NA,NA,NA,NA,NA,NA,NA,NA,sub69
d3-instructions,47,300202,0.0-47.0,FALSE,FALSE,FALSE,TRUE,"""event"",""trial"",""time""
""fullscreenenter"",""5"",""16930""
","
","
","""event"",""trial"",""time""
""fullscreenenter"",""5"",""16930""
","
",NA,NA,NA,NA,NA,NA,NA,NA,NA,NA,NA,NA,NA,NA,NA,NA,NA,NA,NA,NA,NA,NA,sub69
d3-instructions,48,306832,0.0-48.0,FALSE,FALSE,FALSE,TRUE,"""event"",""trial"",""time""
""fullscreenenter"",""5"",""16930""
","
","
","""event"",""trial"",""time""
""fullscreenenter"",""5"",""16930""
","
",NA,NA,NA,NA,NA,NA,NA,NA,NA,NA,NA,NA,NA,NA,NA,NA,NA,NA,NA,NA,NA,NA,sub69
d3-instructions,49,318412,0.0-49.0,FALSE,FALSE,FALSE,TRUE,"""event"",""trial"",""time""
""fullscreenenter"",""5"",""16930""
","
","
","""event"",""trial"",""time""
""fullscreenenter"",""5"",""16930""
","
",NA,NA,NA,NA,NA,NA,NA,NA,NA,NA,NA,NA,NA,NA,NA,NA,NA,NA,NA,NA,NA,NA,sub69
d3-instructions,50,328474,0.0-50.0,FALSE,FALSE,FALSE,TRUE,"""event"",""trial"",""time""
""fullscreenenter"",""5"",""16930""
","
","
","""event"",""trial"",""time""
""fullscreenenter"",""5"",""16930""
","
",NA,NA,NA,NA,NA,NA,NA,NA,NA,NA,NA,NA,NA,NA,NA,NA,NA,NA,NA,NA,NA,NA,sub69
d3-instructions,51,331521,0.0-51.0,FALSE,FALSE,FALSE,TRUE,"""event"",""trial"",""time""
""fullscreenenter"",""5"",""16930""
","
","
","""event"",""trial"",""time""
""fullscreenenter"",""5"",""16930""
","
",NA,NA,NA,NA,NA,NA,NA,NA,NA,NA,NA,NA,NA,NA,NA,NA,NA,NA,NA,NA,NA,NA,sub69
d3-instructions,52,334441,0.0-52.0,FALSE,FALSE,FALSE,TRUE,"""event"",""trial"",""time""
""fullscreenenter"",""5"",""16930""
","
","
","""event"",""trial"",""time""
""fullscreenenter"",""5"",""16930""
","
",NA,NA,NA,NA,NA,NA,NA,NA,NA,NA,NA,NA,NA,NA,NA,NA,NA,NA,NA,NA,NA,NA,sub69
d3-instructions,53,347165,0.0-53.0,FALSE,FALSE,FALSE,TRUE,"""event"",""trial"",""time""
""fullscreenenter"",""5"",""16930""
","
","
","""event"",""trial"",""time""
""fullscreenenter"",""5"",""16930""
","
",NA,NA,NA,NA,NA,NA,NA,NA,NA,NA,NA,NA,NA,NA,NA,NA,NA,NA,NA,NA,NA,NA,sub69
d3-instructions,54,359866,0.0-54.0,FALSE,FALSE,FALSE,TRUE,"""event"",""trial"",""time""
""fullscreenenter"",""5"",""16930""
","
","
","""event"",""trial"",""time""
""fullscreenenter"",""5"",""16930""
","
",NA,NA,NA,NA,NA,NA,NA,NA,NA,NA,NA,NA,NA,NA,NA,NA,NA,NA,NA,NA,NA,NA,sub69
d3-instructions,55,370472,0.0-55.0,FALSE,FALSE,FALSE,TRUE,"""event"",""trial"",""time""
""fullscreenenter"",""5"",""16930""
","
","
","""event"",""trial"",""time""
""fullscreenenter"",""5"",""16930""
","
",NA,NA,NA,NA,NA,NA,NA,NA,NA,NA,NA,NA,NA,NA,NA,NA,NA,NA,NA,NA,NA,NA,sub69
d3-instructions,56,379023,0.0-56.0,FALSE,FALSE,FALSE,TRUE,"""event"",""trial"",""time""
""fullscreenenter"",""5"",""16930""
","
","
","""event"",""trial"",""time""
""fullscreenenter"",""5"",""16930""
","
",NA,NA,NA,NA,NA,NA,NA,NA,NA,NA,NA,NA,NA,NA,NA,NA,NA,NA,NA,NA,NA,NA,sub69
d3-instructions,57,389670,0.0-57.0,FALSE,FALSE,FALSE,TRUE,"""event"",""trial"",""time""
""fullscreenenter"",""5"",""16930""
","
","
","""event"",""trial"",""time""
""fullscreenenter"",""5"",""16930""
","
",NA,NA,NA,NA,NA,NA,NA,NA,NA,NA,NA,NA,NA,NA,NA,NA,NA,NA,NA,NA,NA,NA,sub69
d3-instructions,58,404468,0.0-58.0,FALSE,FALSE,FALSE,TRUE,"""event"",""trial"",""time""
""fullscreenenter"",""5"",""16930""
","
","
","""event"",""trial"",""time""
""fullscreenenter"",""5"",""16930""
","
",NA,NA,NA,NA,NA,NA,NA,NA,NA,NA,NA,NA,NA,NA,NA,NA,NA,NA,NA,NA,NA,NA,sub69
d3-instructions,59,409709,0.0-59.0,FALSE,FALSE,FALSE,TRUE,"""event"",""trial"",""time""
""fullscreenenter"",""5"",""16930""
","
","
","""event"",""trial"",""time""
""fullscreenenter"",""5"",""16930""
","
",NA,NA,NA,NA,NA,NA,NA,NA,NA,NA,NA,NA,NA,NA,NA,NA,NA,NA,NA,NA,NA,NA,sub69
d3-instructions,60,416888,0.0-60.0,FALSE,FALSE,FALSE,TRUE,"""event"",""trial"",""time""
""fullscreenenter"",""5"",""16930""
","
","
","""event"",""trial"",""time""
""fullscreenenter"",""5"",""16930""
","
",NA,NA,NA,NA,NA,NA,NA,NA,NA,NA,NA,NA,NA,NA,NA,NA,NA,NA,NA,NA,NA,NA,sub69
d3-animate-choice,61,420896,0.0-61.0-0.0,FALSE,FALSE,FALSE,TRUE,"""event"",""trial"",""time""
""fullscreenenter"",""5"",""16930""
","
","
","""event"",""trial"",""time""
""fullscreenenter"",""5"",""16930""
","
",2232.8549999984098,NA,49,NA,NA,3000,1,NA,NA,images/earth.jpg,images/tutrocket1,images/tutrocket2,null,images/tutrocket2,NA,1,practice,null,1,NA,NA,NA,sub69
d3-animate-choice,62,424913,0.0-61.0-1.0,FALSE,FALSE,FALSE,TRUE,"""event"",""trial"",""time""
""fullscreenenter"",""5"",""16930""
","
","
","""event"",""trial"",""time""
""fullscreenenter"",""5"",""16930""
","
",null,NA,null,NA,NA,3000,0,NA,NA,images/tutgreenplanet.jpg,images/tutalien2,images/tutalien1,images/tutrocket2,NA,NA,2,practice,true,NA,common,0,2020-06-16T18:36:59Z,sub69
two-step-fixation,63,425925,0.0-61.0-2.0,FALSE,FALSE,FALSE,TRUE,"""event"",""trial"",""time""
""fullscreenenter"",""5"",""16930""
","
","
","""event"",""trial"",""time""
""fullscreenenter"",""5"",""16930""
","
",NA,images/earth.jpg,NA,NA,NA,NA,NA,NA,NA,NA,NA,NA,NA,NA,NA,fixation,NA,NA,NA,NA,NA,NA,sub69
d3-animate-choice,64,428779,0.0-61.0-0.1,FALSE,FALSE,FALSE,TRUE,"""event"",""trial"",""time""
""fullscreenenter"",""5"",""16930""
","
","
","""event"",""trial"",""time""
""fullscreenenter"",""5"",""16930""
","
",840.3349999971688,NA,49,NA,NA,3000,1,NA,NA,images/earth.jpg,images/tutrocket1,images/tutrocket2,null,images/tutrocket2,NA,1,practice,null,1,NA,NA,NA,sub69
d3-animate-choice,65,432792,0.0-61.0-1.1,FALSE,FALSE,FALSE,TRUE,"""event"",""trial"",""time""
""fullscreenenter"",""5"",""16930""
","
","
","""event"",""trial"",""time""
""fullscreenenter"",""5"",""16930""
","
",2937.434999999823,NA,48,NA,NA,3000,1,NA,NA,images/tutgreenplanet.jpg,images/tutalien2,images/tutalien1,images/tutrocket2,images/tutalien2,NA,2,practice,true,2,common,0,2020-06-16T18:37:07Z,sub69
two-step-fixation,66,433799,0.0-61.0-2.1,FALSE,FALSE,FALSE,TRUE,"""event"",""trial"",""time""
""fullscreenenter"",""5"",""16930""
","
","
","""event"",""trial"",""time""
""fullscreenenter"",""5"",""16930""
","
",NA,images/earth.jpg,NA,NA,NA,NA,NA,NA,NA,NA,NA,NA,NA,NA,NA,fixation,NA,NA,NA,NA,NA,NA,sub69
d3-animate-choice,67,437812,0.0-61.0-0.2,FALSE,FALSE,FALSE,TRUE,"""event"",""trial"",""time""
""fullscreenenter"",""5"",""16930""
","
","
","""event"",""trial"",""time""
""fullscreenenter"",""5"",""16930""
","
",3034.5500000002794,NA,49,NA,NA,3000,0,NA,NA,images/earth.jpg,images/tutrocket1,images/tutrocket2,null,NA,NA,1,practice,null,1,NA,NA,NA,sub69
d3-animate-choice,68,438829,0.0-61.0-1.2,FALSE,FALSE,FALSE,TRUE,"""event"",""trial"",""time""
""fullscreenenter"",""5"",""16930""
","
","
","""event"",""trial"",""time""
""fullscreenenter"",""5"",""16930""
","
",null,NA,null,NA,NA,0,0,NA,NA,images/earth.jpg,images/tutrocket1,images/tutrocket2,null,NA,NA,2,practice,null,NA,NA,0,2020-06-16T18:37:13Z,sub69
two-step-fixation,69,439838,0.0-61.0-2.2,FALSE,FALSE,FALSE,TRUE,"""event"",""trial"",""time""
""fullscreenenter"",""5"",""16930""
","
","
","""event"",""trial"",""time""
""fullscreenenter"",""5"",""16930""
","
",NA,images/earth.jpg,NA,NA,NA,NA,NA,NA,NA,NA,NA,NA,NA,NA,NA,fixation,NA,NA,NA,NA,NA,NA,sub69
d3-animate-choice,70,442389,0.0-61.0-0.3,FALSE,FALSE,FALSE,TRUE,"""event"",""trial"",""time""
""fullscreenenter"",""5"",""16930""
","
","
","""event"",""trial"",""time""
""fullscreenenter"",""5"",""16930""
","
",538.5399999977672,NA,49,NA,NA,3000,1,NA,NA,images/earth.jpg,images/tutrocket1,images/tutrocket2,null,images/tutrocket2,NA,1,practice,null,1,NA,NA,NA,sub69
d3-animate-choice,71,445530,0.0-61.0-1.3,FALSE,FALSE,FALSE,TRUE,"""event"",""trial"",""time""
""fullscreenenter"",""5"",""16930""
","
","
","""event"",""trial"",""time""
""fullscreenenter"",""5"",""16930""
","
",1124.4849999966682,NA,48,NA,NA,3000,1,NA,NA,images/tutgreenplanet.jpg,images/tutalien2,images/tutalien1,images/tutrocket2,images/tutalien2,images/nothing.png,2,practice,true,2,common,0,2020-06-16T18:37:19Z,sub69
two-step-fixation,72,446542,0.0-61.0-2.3,FALSE,FALSE,FALSE,TRUE,"""event"",""trial"",""time""
""fullscreenenter"",""5"",""16930""
","
","
","""event"",""trial"",""time""
""fullscreenenter"",""5"",""16930""
","
",NA,images/earth.jpg,NA,NA,NA,NA,NA,NA,NA,NA,NA,NA,NA,NA,NA,fixation,NA,NA,NA,NA,NA,NA,sub69
d3-animate-choice,73,449451,0.0-61.0-0.4,FALSE,FALSE,FALSE,TRUE,"""event"",""trial"",""time""
""fullscreenenter"",""5"",""16930""
","
","
","""event"",""trial"",""time""
""fullscreenenter"",""5"",""16930""
","
",898.960000002291,NA,49,NA,NA,3000,1,NA,NA,images/earth.jpg,images/tutrocket1,images/tutrocket2,null,images/tutrocket2,NA,1,practice,null,1,NA,NA,NA,sub69
d3-animate-choice,74,452247,0.0-61.0-1.4,FALSE,FALSE,FALSE,TRUE,"""event"",""trial"",""time""
""fullscreenenter"",""5"",""16930""
","
","
","""event"",""trial"",""time""
""fullscreenenter"",""5"",""16930""
","
",783.8499999998021,NA,49,NA,NA,3000,1,NA,NA,images/tutgreenplanet.jpg,images/tutalien2,images/tutalien1,images/tutrocket2,images/tutalien1,images/t.png,2,practice,true,1,common,1,2020-06-16T18:37:26Z,sub69
two-step-fixation,75,453257,0.0-61.0-2.4,FALSE,FALSE,FALSE,TRUE,"""event"",""trial"",""time""
""fullscreenenter"",""5"",""16930""
","
","
","""event"",""trial"",""time""
""fullscreenenter"",""5"",""16930""
","
",NA,images/earth.jpg,NA,NA,NA,NA,NA,NA,NA,NA,NA,NA,NA,NA,NA,fixation,NA,NA,NA,NA,NA,NA,sub69
d3-animate-choice,76,455747,0.0-61.0-0.5,FALSE,FALSE,FALSE,TRUE,"""event"",""trial"",""time""
""fullscreenenter"",""5"",""16930""
","
","
","""event"",""trial"",""time""
""fullscreenenter"",""5"",""16930""
","
",472.6250000020955,NA,49,NA,NA,3000,1,NA,NA,images/earth.jpg,images/tutrocket1,images/tutrocket2,null,images/tutrocket2,NA,1,practice,null,1,NA,NA,NA,sub69
d3-animate-choice,77,458369,0.0-61.0-1.5,FALSE,FALSE,FALSE,TRUE,"""event"",""trial"",""time""
""fullscreenenter"",""5"",""16930""
","
","
","""event"",""trial"",""time""
""fullscreenenter"",""5"",""16930""
","
",609.6550000002026,NA,49,NA,NA,3000,1,NA,NA,images/tutgreenplanet.jpg,images/tutalien2,images/tutalien1,images/tutrocket2,images/tutalien1,images/nothing.png,2,practice,true,1,common,0,2020-06-16T18:37:32Z,sub69
two-step-fixation,78,459376,0.0-61.0-2.5,FALSE,FALSE,FALSE,TRUE,"""event"",""trial"",""time""
""fullscreenenter"",""5"",""16930""
","
","
","""event"",""trial"",""time""
""fullscreenenter"",""5"",""16930""
","
",NA,images/earth.jpg,NA,NA,NA,NA,NA,NA,NA,NA,NA,NA,NA,NA,NA,fixation,NA,NA,NA,NA,NA,NA,sub69
d3-animate-choice,79,461973,0.0-61.0-0.6,FALSE,FALSE,FALSE,TRUE,"""event"",""trial"",""time""
""fullscreenenter"",""5"",""16930""
","
","
","""event"",""trial"",""time""
""fullscreenenter"",""5"",""16930""
","
",582.8099999998813,NA,48,NA,NA,3000,1,NA,NA,images/earth.jpg,images/tutrocket1,images/tutrocket2,null,images/tutrocket1,NA,1,practice,null,2,NA,NA,NA,sub69
d3-animate-choice,80,464932,0.0-61.0-1.6,FALSE,FALSE,FALSE,TRUE,"""event"",""trial"",""time""
""fullscreenenter"",""5"",""16930""
","
","
","""event"",""trial"",""time""
""fullscreenenter"",""5"",""16930""
","
",943.4799999981187,NA,49,NA,NA,3000,1,NA,NA,images/tutyellowplanet.jpg,images/tutalien4,images/tutalien3,images/tutrocket1,images/tutalien3,images/nothing.png,2,practice,true,1,common,0,2020-06-16T18:37:39Z,sub69
two-step-fixation,81,465939,0.0-61.0-2.6,FALSE,FALSE,FALSE,TRUE,"""event"",""trial"",""time""
""fullscreenenter"",""5"",""16930""
","
","
","""event"",""trial"",""time""
""fullscreenenter"",""5"",""16930""
","
",NA,images/earth.jpg,NA,NA,NA,NA,NA,NA,NA,NA,NA,NA,NA,NA,NA,fixation,NA,NA,NA,NA,NA,NA,sub69
d3-animate-choice,82,468246,0.0-61.0-0.7,FALSE,FALSE,FALSE,TRUE,"""event"",""trial"",""time""
""fullscreenenter"",""5"",""16930""
","
","
","""event"",""trial"",""time""
""fullscreenenter"",""5"",""16930""
","
",296.7549999994226,NA,48,NA,NA,3000,1,NA,NA,images/earth.jpg,images/tutrocket1,images/tutrocket2,null,images/tutrocket1,NA,1,practice,null,2,NA,NA,NA,sub69
d3-animate-choice,83,471478,0.0-61.0-1.7,FALSE,FALSE,FALSE,TRUE,"""event"",""trial"",""time""
""fullscreenenter"",""5"",""16930""
","
","
","""event"",""trial"",""time""
""fullscreenenter"",""5"",""16930""
","
",1213.2649999985006,NA,49,NA,NA,3000,1,NA,NA,images/tutgreenplanet.jpg,images/tutalien2,images/tutalien1,images/tutrocket1,images/tutalien1,images/t.png,2,practice,false,1,rare,1,2020-06-16T18:37:45Z,sub69
two-step-fixation,84,472488,0.0-61.0-2.7,FALSE,FALSE,FALSE,TRUE,"""event"",""trial"",""time""
""fullscreenenter"",""5"",""16930""
","
","
","""event"",""trial"",""time""
""fullscreenenter"",""5"",""16930""
","
",NA,images/earth.jpg,NA,NA,NA,NA,NA,NA,NA,NA,NA,NA,NA,NA,NA,fixation,NA,NA,NA,NA,NA,NA,sub69
d3-animate-choice,85,474848,0.0-61.0-0.8,FALSE,FALSE,FALSE,TRUE,"""event"",""trial"",""time""
""fullscreenenter"",""5"",""16930""
","
","
","""event"",""trial"",""time""
""fullscreenenter"",""5"",""16930""
","
",346.45000000088476,NA,48,NA,NA,3000,1,NA,NA,images/earth.jpg,images/tutrocket1,images/tutrocket2,null,images/tutrocket1,NA,1,practice,null,2,NA,NA,NA,sub69
d3-animate-choice,86,478149,0.0-61.0-1.8,FALSE,FALSE,FALSE,TRUE,"""event"",""trial"",""time""
""fullscreenenter"",""5"",""16930""
","
","
","""event"",""trial"",""time""
""fullscreenenter"",""5"",""16930""
","
",1286.454999997688,NA,48,NA,NA,3000,1,NA,NA,images/tutyellowplanet.jpg,images/tutalien4,images/tutalien3,images/tutrocket1,images/tutalien4,images/t.png,2,practice,true,2,common,1,2020-06-16T18:37:52Z,sub69
two-step-fixation,87,479162,0.0-61.0-2.8,FALSE,FALSE,FALSE,TRUE,"""event"",""trial"",""time""
""fullscreenenter"",""5"",""16930""
","
","
","""event"",""trial"",""time""
""fullscreenenter"",""5"",""16930""
","
",NA,images/earth.jpg,NA,NA,NA,NA,NA,NA,NA,NA,NA,NA,NA,NA,NA,fixation,NA,NA,NA,NA,NA,NA,sub69
d3-animate-choice,88,481507,0.0-61.0-0.9,FALSE,FALSE,FALSE,TRUE,"""event"",""trial"",""time""
""fullscreenenter"",""5"",""16930""
","
","
","""event"",""trial"",""time""
""fullscreenenter"",""5"",""16930""
","
",334.65499999874737,NA,48,NA,NA,3000,1,NA,NA,images/earth.jpg,images/tutrocket1,images/tutrocket2,null,images/tutrocket1,NA,1,practice,null,2,NA,NA,NA,sub69
d3-animate-choice,89,483876,0.0-61.0-1.9,FALSE,FALSE,FALSE,TRUE,"""event"",""trial"",""time""
""fullscreenenter"",""5"",""16930""
","
","
","""event"",""trial"",""time""
""fullscreenenter"",""5"",""16930""
","
",351.7200000024168,NA,48,NA,NA,3000,1,NA,NA,images/tutyellowplanet.jpg,images/tutalien4,images/tutalien3,images/tutrocket1,images/tutalien4,images/t.png,2,practice,true,2,common,1,2020-06-16T18:37:58Z,sub69
two-step-fixation,90,484886,0.0-61.0-2.9,FALSE,FALSE,FALSE,TRUE,"""event"",""trial"",""time""
""fullscreenenter"",""5"",""16930""
","
","
","""event"",""trial"",""time""
""fullscreenenter"",""5"",""16930""
","
",NA,images/earth.jpg,NA,NA,NA,NA,NA,NA,NA,NA,NA,NA,NA,NA,NA,fixation,NA,NA,NA,NA,NA,NA,sub69
d3-animate-choice,91,487289,0.0-61.0-0.10,FALSE,FALSE,FALSE,TRUE,"""event"",""trial"",""time""
""fullscreenenter"",""5"",""16930""
","
","
","""event"",""trial"",""time""
""fullscreenenter"",""5"",""16930""
","
",392.6699999974808,NA,48,NA,NA,3000,1,NA,NA,images/earth.jpg,images/tutrocket1,images/tutrocket2,null,images/tutrocket1,NA,1,practice,null,2,NA,NA,NA,sub69
d3-animate-choice,92,489681,0.0-61.0-1.10,FALSE,FALSE,FALSE,TRUE,"""event"",""trial"",""time""
""fullscreenenter"",""5"",""16930""
","
","
","""event"",""trial"",""time""
""fullscreenenter"",""5"",""16930""
","
",376.0949999996228,NA,48,NA,NA,3000,1,NA,NA,images/tutyellowplanet.jpg,images/tutalien4,images/tutalien3,images/tutrocket1,images/tutalien4,images/t.png,2,practice,true,2,common,1,2020-06-16T18:38:04Z,sub69
two-step-fixation,93,490693,0.0-61.0-2.10,FALSE,FALSE,FALSE,TRUE,"""event"",""trial"",""time""
""fullscreenenter"",""5"",""16930""
","
","
","""event"",""trial"",""time""
""fullscreenenter"",""5"",""16930""
","
",NA,images/earth.jpg,NA,NA,NA,NA,NA,NA,NA,NA,NA,NA,NA,NA,NA,fixation,NA,NA,NA,NA,NA,NA,sub69
d3-animate-choice,94,492997,0.0-61.0-0.11,FALSE,FALSE,FALSE,TRUE,"""event"",""trial"",""time""
""fullscreenenter"",""5"",""16930""
","
","
","""event"",""trial"",""time""
""fullscreenenter"",""5"",""16930""
","
",285.475000000617,NA,48,NA,NA,3000,1,NA,NA,images/earth.jpg,images/tutrocket1,images/tutrocket2,null,images/tutrocket1,NA,1,practice,null,2,NA,NA,NA,sub69
d3-animate-choice,95,495322,0.0-61.0-1.11,FALSE,FALSE,FALSE,TRUE,"""event"",""trial"",""time""
""fullscreenenter"",""5"",""16930""
","
","
","""event"",""trial"",""time""
""fullscreenenter"",""5"",""16930""
","
",308.0800000025192,NA,48,NA,NA,3000,1,NA,NA,images/tutyellowplanet.jpg,images/tutalien4,images/tutalien3,images/tutrocket1,images/tutalien4,images/nothing.png,2,practice,true,2,common,0,2020-06-16T18:38:09Z,sub69
two-step-fixation,96,496334,0.0-61.0-2.11,FALSE,FALSE,FALSE,TRUE,"""event"",""trial"",""time""
""fullscreenenter"",""5"",""16930""
","
","
","""event"",""trial"",""time""
""fullscreenenter"",""5"",""16930""
","
",NA,images/earth.jpg,NA,NA,NA,NA,NA,NA,NA,NA,NA,NA,NA,NA,NA,fixation,NA,NA,NA,NA,NA,NA,sub69
d3-animate-choice,97,499185,0.0-61.0-0.12,FALSE,FALSE,FALSE,TRUE,"""event"",""trial"",""time""
""fullscreenenter"",""5"",""16930""
","
","
","""event"",""trial"",""time""
""fullscreenenter"",""5"",""16930""
","
",835.9100000016042,NA,48,NA,NA,3000,1,NA,NA,images/earth.jpg,images/tutrocket1,images/tutrocket2,null,images/tutrocket1,NA,1,practice,null,2,NA,NA,NA,sub69
d3-animate-choice,98,501549,0.0-61.0-1.12,FALSE,FALSE,FALSE,TRUE,"""event"",""trial"",""time""
""fullscreenenter"",""5"",""16930""
","
","
","""event"",""trial"",""time""
""fullscreenenter"",""5"",""16930""
","
",347.1349999999511,NA,48,NA,NA,3000,1,NA,NA,images/tutgreenplanet.jpg,images/tutalien2,images/tutalien1,images/tutrocket1,images/tutalien2,images/nothing.png,2,practice,false,2,rare,0,2020-06-16T18:38:15Z,sub69
two-step-fixation,99,502561,0.0-61.0-2.12,FALSE,FALSE,FALSE,TRUE,"""event"",""trial"",""time""
""fullscreenenter"",""5"",""16930""
","
","
","""event"",""trial"",""time""
""fullscreenenter"",""5"",""16930""
","
",NA,images/earth.jpg,NA,NA,NA,NA,NA,NA,NA,NA,NA,NA,NA,NA,NA,fixation,NA,NA,NA,NA,NA,NA,sub69
d3-animate-choice,100,504921,0.0-61.0-0.13,FALSE,FALSE,FALSE,TRUE,"""event"",""trial"",""time""
""fullscreenenter"",""5"",""16930""
","
","
","""event"",""trial"",""time""
""fullscreenenter"",""5"",""16930""
","
",351.8900000017602,NA,48,NA,NA,3000,1,NA,NA,images/earth.jpg,images/tutrocket1,images/tutrocket2,null,images/tutrocket1,NA,1,practice,null,2,NA,NA,NA,sub69
d3-animate-choice,101,507601,0.0-61.0-1.13,FALSE,FALSE,FALSE,TRUE,"""event"",""trial"",""time""
""fullscreenenter"",""5"",""16930""
","
","
","""event"",""trial"",""time""
""fullscreenenter"",""5"",""16930""
","
",663.9700000014273,NA,48,NA,NA,3000,1,NA,NA,images/tutyellowplanet.jpg,images/tutalien4,images/tutalien3,images/tutrocket1,images/tutalien4,images/nothing.png,2,practice,true,2,common,0,2020-06-16T18:38:21Z,sub69
two-step-fixation,102,508614,0.0-61.0-2.13,FALSE,FALSE,FALSE,TRUE,"""event"",""trial"",""time""
""fullscreenenter"",""5"",""16930""
","
","
","""event"",""trial"",""time""
""fullscreenenter"",""5"",""16930""
","
",NA,images/earth.jpg,NA,NA,NA,NA,NA,NA,NA,NA,NA,NA,NA,NA,NA,fixation,NA,NA,NA,NA,NA,NA,sub69
d3-animate-choice,103,511019,0.0-61.0-0.14,FALSE,FALSE,FALSE,TRUE,"""event"",""trial"",""time""
""fullscreenenter"",""5"",""16930""
","
","
","""event"",""trial"",""time""
""fullscreenenter"",""5"",""16930""
","
",390.2299999972456,NA,49,NA,NA,3000,1,NA,NA,images/earth.jpg,images/tutrocket1,images/tutrocket2,null,images/tutrocket2,NA,1,practice,null,1,NA,NA,NA,sub69
d3-animate-choice,104,513721,0.0-61.0-1.14,FALSE,FALSE,FALSE,TRUE,"""event"",""trial"",""time""
""fullscreenenter"",""5"",""16930""
","
","
","""event"",""trial"",""time""
""fullscreenenter"",""5"",""16930""
","
",684.1150000000489,NA,49,NA,NA,3000,1,NA,NA,images/tutgreenplanet.jpg,images/tutalien2,images/tutalien1,images/tutrocket2,images/tutalien1,images/nothing.png,2,practice,true,1,common,0,2020-06-16T18:38:28Z,sub69
two-step-fixation,105,514732,0.0-61.0-2.14,FALSE,FALSE,FALSE,TRUE,"""event"",""trial"",""time""
""fullscreenenter"",""5"",""16930""
","
","
","""event"",""trial"",""time""
""fullscreenenter"",""5"",""16930""
","
",NA,images/earth.jpg,NA,NA,NA,NA,NA,NA,NA,NA,NA,NA,NA,NA,NA,fixation,NA,NA,NA,NA,NA,NA,sub69
d3-animate-choice,106,517126,0.0-61.0-0.15,FALSE,FALSE,FALSE,TRUE,"""event"",""trial"",""time""
""fullscreenenter"",""5"",""16930""
","
","
","""event"",""trial"",""time""
""fullscreenenter"",""5"",""16930""
","
",379.8050000005169,NA,49,NA,NA,3000,1,NA,NA,images/earth.jpg,images/tutrocket1,images/tutrocket2,null,images/tutrocket2,NA,1,practice,null,1,NA,NA,NA,sub69
d3-animate-choice,107,520560,0.0-61.0-1.15,FALSE,FALSE,FALSE,TRUE,"""event"",""trial"",""time""
""fullscreenenter"",""5"",""16930""
","
","
","""event"",""trial"",""time""
""fullscreenenter"",""5"",""16930""
","
",1420.0599999966798,NA,49,NA,NA,3000,1,NA,NA,images/tutyellowplanet.jpg,images/tutalien4,images/tutalien3,images/tutrocket2,images/tutalien3,images/nothing.png,2,practice,false,1,rare,0,2020-06-16T18:38:34Z,sub69
two-step-fixation,108,521568,0.0-61.0-2.15,FALSE,FALSE,FALSE,TRUE,"""event"",""trial"",""time""
""fullscreenenter"",""5"",""16930""
","
","
","""event"",""trial"",""time""
""fullscreenenter"",""5"",""16930""
","
",NA,images/earth.jpg,NA,NA,NA,NA,NA,NA,NA,NA,NA,NA,NA,NA,NA,fixation,NA,NA,NA,NA,NA,NA,sub69
d3-animate-choice,109,523872,0.0-61.0-0.16,FALSE,FALSE,FALSE,TRUE,"""event"",""trial"",""time""
""fullscreenenter"",""5"",""16930""
","
","
","""event"",""trial"",""time""
""fullscreenenter"",""5"",""16930""
","
",290.5799999971641,NA,48,NA,NA,3000,1,NA,NA,images/earth.jpg,images/tutrocket1,images/tutrocket2,null,images/tutrocket1,NA,1,practice,null,2,NA,NA,NA,sub69
d3-animate-choice,110,527025,0.0-61.0-1.16,FALSE,FALSE,FALSE,TRUE,"""event"",""trial"",""time""
""fullscreenenter"",""5"",""16930""
","
","
","""event"",""trial"",""time""
""fullscreenenter"",""5"",""16930""
","
",1134.4349999999395,NA,48,NA,NA,3000,1,NA,NA,images/tutyellowplanet.jpg,images/tutalien4,images/tutalien3,images/tutrocket1,images/tutalien4,images/nothing.png,2,practice,true,2,common,0,2020-06-16T18:38:41Z,sub69
two-step-fixation,111,528035,0.0-61.0-2.16,FALSE,FALSE,FALSE,TRUE,"""event"",""trial"",""time""
""fullscreenenter"",""5"",""16930""
","
","
","""event"",""trial"",""time""
""fullscreenenter"",""5"",""16930""
","
",NA,images/earth.jpg,NA,NA,NA,NA,NA,NA,NA,NA,NA,NA,NA,NA,NA,fixation,NA,NA,NA,NA,NA,NA,sub69
d3-animate-choice,112,530318,0.0-61.0-0.17,FALSE,FALSE,FALSE,TRUE,"""event"",""trial"",""time""
""fullscreenenter"",""5"",""16930""
","
","
","""event"",""trial"",""time""
""fullscreenenter"",""5"",""16930""
","
",269.33500000089407,NA,49,NA,NA,3000,1,NA,NA,images/earth.jpg,images/tutrocket1,images/tutrocket2,null,images/tutrocket2,NA,1,practice,null,1,NA,NA,NA,sub69
d3-animate-choice,113,532979,0.0-61.0-1.17,FALSE,FALSE,FALSE,TRUE,"""event"",""trial"",""time""
""fullscreenenter"",""5"",""16930""
","
","
","""event"",""trial"",""time""
""fullscreenenter"",""5"",""16930""
","
",646.9700000016019,NA,48,NA,NA,3000,1,NA,NA,images/tutgreenplanet.jpg,images/tutalien2,images/tutalien1,images/tutrocket2,images/tutalien2,images/nothing.png,2,practice,true,2,common,0,2020-06-16T18:38:47Z,sub69
two-step-fixation,114,533996,0.0-61.0-2.17,FALSE,FALSE,FALSE,TRUE,"""event"",""trial"",""time""
""fullscreenenter"",""5"",""16930""
","
","
","""event"",""trial"",""time""
""fullscreenenter"",""5"",""16930""
","
",NA,images/earth.jpg,NA,NA,NA,NA,NA,NA,NA,NA,NA,NA,NA,NA,NA,fixation,NA,NA,NA,NA,NA,NA,sub69
d3-animate-choice,115,536379,0.0-61.0-0.18,FALSE,FALSE,FALSE,TRUE,"""event"",""trial"",""time""
""fullscreenenter"",""5"",""16930""
","
","
","""event"",""trial"",""time""
""fullscreenenter"",""5"",""16930""
","
",371.06999999738764,NA,49,NA,NA,3000,1,NA,NA,images/earth.jpg,images/tutrocket1,images/tutrocket2,null,images/tutrocket2,NA,1,practice,null,1,NA,NA,NA,sub69
d3-animate-choice,116,538972,0.0-61.0-1.18,FALSE,FALSE,FALSE,TRUE,"""event"",""trial"",""time""
""fullscreenenter"",""5"",""16930""
","
","
","""event"",""trial"",""time""
""fullscreenenter"",""5"",""16930""
","
",577.4600000004284,NA,49,NA,NA,3000,1,NA,NA,images/tutgreenplanet.jpg,images/tutalien2,images/tutalien1,images/tutrocket2,images/tutalien1,images/nothing.png,2,practice,true,1,common,0,2020-06-16T18:38:53Z,sub69
two-step-fixation,117,539983,0.0-61.0-2.18,FALSE,FALSE,FALSE,TRUE,"""event"",""trial"",""time""
""fullscreenenter"",""5"",""16930""
","
","
","""event"",""trial"",""time""
""fullscreenenter"",""5"",""16930""
","
",NA,images/earth.jpg,NA,NA,NA,NA,NA,NA,NA,NA,NA,NA,NA,NA,NA,fixation,NA,NA,NA,NA,NA,NA,sub69
d3-animate-choice,118,542368,0.0-61.0-0.19,FALSE,FALSE,FALSE,TRUE,"""event"",""trial"",""time""
""fullscreenenter"",""5"",""16930""
","
","
","""event"",""trial"",""time""
""fullscreenenter"",""5"",""16930""
","
",369.4000000031665,NA,48,NA,NA,3000,1,NA,NA,images/earth.jpg,images/tutrocket1,images/tutrocket2,null,images/tutrocket1,NA,1,practice,null,2,NA,NA,NA,sub69
d3-animate-choice,119,545454,0.0-61.0-1.19,FALSE,FALSE,FALSE,TRUE,"""event"",""trial"",""time""
""fullscreenenter"",""5"",""16930""
","
","
","""event"",""trial"",""time""
""fullscreenenter"",""5"",""16930""
","
",1071.5549999985378,NA,48,NA,NA,3000,1,NA,NA,images/tutyellowplanet.jpg,images/tutalien4,images/tutalien3,images/tutrocket1,images/tutalien4,images/nothing.png,2,practice,true,2,common,0,2020-06-16T18:38:59Z,sub69
two-step-fixation,120,546465,0.0-61.0-2.19,FALSE,FALSE,FALSE,TRUE,"""event"",""trial"",""time""
""fullscreenenter"",""5"",""16930""
","
","
","""event"",""trial"",""time""
""fullscreenenter"",""5"",""16930""
","
",NA,images/earth.jpg,NA,NA,NA,NA,NA,NA,NA,NA,NA,NA,NA,NA,NA,fixation,NA,NA,NA,NA,NA,NA,sub69
d3-instructions,121,554696,0.0-62.0,FALSE,FALSE,FALSE,TRUE,"""event"",""trial"",""time""
""fullscreenenter"",""5"",""16930""
","
","
","""event"",""trial"",""time""
""fullscreenenter"",""5"",""16930""
","
",NA,NA,NA,NA,NA,NA,NA,NA,NA,NA,NA,NA,NA,NA,NA,NA,NA,NA,NA,NA,NA,NA,sub69
audio-keyboard-response,122,559622,0.0-63.0,FALSE,FALSE,FALSE,TRUE,"""event"",""trial"",""time""
""fullscreenenter"",""5"",""16930""
","
","
","""event"",""trial"",""time""
""fullscreenenter"",""5"",""16930""
","
",4907,audio/instructions/treasure_feedback.wav,32,NA,NA,NA,NA,NA,NA,NA,NA,NA,NA,NA,NA,NA,NA,NA,NA,NA,NA,NA,sub69
d3-instructions,123,578528,0.0-64.0,FALSE,FALSE,FALSE,TRUE,"""event"",""trial"",""time""
""fullscreenenter"",""5"",""16930""
","
","
","""event"",""trial"",""time""
""fullscreenenter"",""5"",""16930""
","
",NA,NA,NA,NA,NA,NA,NA,NA,NA,NA,NA,NA,NA,NA,NA,NA,NA,NA,NA,NA,NA,NA,sub69
d3-instructions,124,594546,0.0-65.0,FALSE,FALSE,FALSE,TRUE,"""event"",""trial"",""time""
""fullscreenenter"",""5"",""16930""
","
","
","""event"",""trial"",""time""
""fullscreenenter"",""5"",""16930""
","
",NA,NA,NA,NA,NA,NA,NA,NA,NA,NA,NA,NA,NA,NA,NA,NA,NA,NA,NA,NA,NA,NA,sub69
d3-instructions,125,620034,0.0-66.0,FALSE,FALSE,FALSE,TRUE,"""event"",""trial"",""time""
""fullscreenenter"",""5"",""16930""
","
","
","""event"",""trial"",""time""
""fullscreenenter"",""5"",""16930""
","
",NA,NA,NA,NA,NA,NA,NA,NA,NA,NA,NA,NA,NA,NA,NA,NA,NA,NA,NA,NA,NA,NA,sub69
d3-instructions,126,637573,0.0-67.0,FALSE,FALSE,FALSE,TRUE,"""event"",""trial"",""time""
""fullscreenenter"",""5"",""16930""
","
","
","""event"",""trial"",""time""
""fullscreenenter"",""5"",""16930""
","
",NA,NA,NA,NA,NA,NA,NA,NA,NA,NA,NA,NA,NA,NA,NA,NA,NA,NA,NA,NA,NA,NA,sub69
d3-instructions,127,649178,0.0-68.0,FALSE,FALSE,FALSE,TRUE,"""event"",""trial"",""time""
""fullscreenenter"",""5"",""16930""
","
","
","""event"",""trial"",""time""
""fullscreenenter"",""5"",""16930""
","
",NA,NA,NA,NA,NA,NA,NA,NA,NA,NA,NA,NA,NA,NA,NA,NA,NA,NA,NA,NA,NA,NA,sub69
instructions-quiz,128,654272,0.0-69.0,FALSE,FALSE,FALSE,TRUE,"""event"",""trial"",""time""
""fullscreenenter"",""5"",""16930""
","
","
","""event"",""trial"",""time""
""fullscreenenter"",""5"",""16930""
","
",5088.815000002738,audio/quiz/Q1_Prompt.wav,NA,1,NA,NA,NA,NA,NA,NA,NA,NA,NA,NA,NA,NA,NA,NA,NA,NA,NA,NA,sub69
audio-keyboard-response,129,663449,0.0-70.0,FALSE,FALSE,FALSE,TRUE,"""event"",""trial"",""time""
""fullscreenenter"",""5"",""16930""
","
","
","""event"",""trial"",""time""
""fullscreenenter"",""5"",""16930""
","
",null,audio/quiz/Q1_Correct.wav,null,NA,NA,NA,NA,NA,NA,NA,NA,NA,NA,NA,NA,NA,NA,NA,NA,NA,NA,NA,sub69
instructions-quiz,130,672684,0.0-71.0,FALSE,FALSE,FALSE,TRUE,"""event"",""trial"",""time""
""fullscreenenter"",""5"",""16930""
","
","
","""event"",""trial"",""time""
""fullscreenenter"",""5"",""16930""
","
",9230.46500000055,audio/quiz/Q2_Prompt.wav,NA,0,NA,NA,NA,NA,NA,NA,NA,NA,NA,NA,NA,NA,NA,NA,NA,NA,NA,NA,sub69
audio-keyboard-response,131,685561,0.0-72.0,FALSE,FALSE,FALSE,TRUE,"""event"",""trial"",""time""
""fullscreenenter"",""5"",""16930""
","
","
","""event"",""trial"",""time""
""fullscreenenter"",""5"",""16930""
","
",null,audio/quiz/Q2_Correct.wav,null,NA,NA,NA,NA,NA,NA,NA,NA,NA,NA,NA,NA,NA,NA,NA,NA,NA,NA,NA,sub69
instructions-quiz,132,690549,0.0-73.0,FALSE,FALSE,FALSE,TRUE,"""event"",""trial"",""time""
""fullscreenenter"",""5"",""16930""
","
","
","""event"",""trial"",""time""
""fullscreenenter"",""5"",""16930""
","
",4982.7150000019465,audio/quiz/Q3_Prompt.wav,NA,1,NA,NA,NA,NA,NA,NA,NA,NA,NA,NA,NA,NA,NA,NA,NA,NA,NA,NA,sub69
audio-keyboard-response,133,696356,0.0-74.0,FALSE,FALSE,FALSE,TRUE,"""event"",""trial"",""time""
""fullscreenenter"",""5"",""16930""
","
","
","""event"",""trial"",""time""
""fullscreenenter"",""5"",""16930""
","
",null,audio/quiz/Q3_Correct.wav,null,NA,NA,NA,NA,NA,NA,NA,NA,NA,NA,NA,NA,NA,NA,NA,NA,NA,NA,NA,sub69
d3-instructions,134,710977,0.0-75.0,FALSE,FALSE,FALSE,TRUE,"""event"",""trial"",""time""
""fullscreenenter"",""5"",""16930""
","
","
","""event"",""trial"",""time""
""fullscreenenter"",""5"",""16930""
","
",NA,NA,NA,NA,NA,NA,NA,NA,NA,NA,NA,NA,NA,NA,NA,NA,NA,NA,NA,NA,NA,NA,sub69
d3-animate-choice,135,714468,0.0-76.0-0.0,FALSE,FALSE,FALSE,TRUE,"""event"",""trial"",""time""
""fullscreenenter"",""5"",""16930""
","
","
","""event"",""trial"",""time""
""fullscreenenter"",""5"",""16930""
","
",1480.7499999988358,NA,49,NA,NA,3000,1,NA,NA,images/earth.jpg,images/rocket1,images/rocket2,null,images/rocket2,NA,1,real,null,1,NA,NA,NA,sub69
d3-animate-choice,136,717434,0.0-76.0-1.0,FALSE,FALSE,FALSE,TRUE,"""event"",""trial"",""time""
""fullscreenenter"",""5"",""16930""
","
","
","""event"",""trial"",""time""
""fullscreenenter"",""5"",""16930""
","
",952.2950000028359,NA,49,NA,NA,3000,1,NA,NA,images/redplanet1.jpg,images/alien2,images/alien1,images/rocket2,images/alien1,images/nothing.png,2,real,true,1,common,0,2020-06-16T18:41:51Z,sub69
two-step-fixation,137,718451,0.0-76.0-2.0,FALSE,FALSE,FALSE,TRUE,"""event"",""trial"",""time""
""fullscreenenter"",""5"",""16930""
","
","
","""event"",""trial"",""time""
""fullscreenenter"",""5"",""16930""
","
",NA,images/earth.jpg,NA,NA,NA,NA,NA,NA,NA,NA,NA,NA,NA,NA,NA,fixation,NA,NA,NA,NA,NA,NA,sub69
d3-animate-choice,138,720956,0.0-76.0-0.1,FALSE,FALSE,FALSE,TRUE,"""event"",""trial"",""time""
""fullscreenenter"",""5"",""16930""
","
","
","""event"",""trial"",""time""
""fullscreenenter"",""5"",""16930""
","
",495.59499999671243,NA,49,NA,NA,3000,1,NA,NA,images/earth.jpg,images/rocket1,images/rocket2,null,images/rocket2,NA,1,real,null,1,NA,NA,NA,sub69
d3-animate-choice,139,723595,0.0-76.0-1.1,FALSE,FALSE,FALSE,TRUE,"""event"",""trial"",""time""
""fullscreenenter"",""5"",""16930""
","
","
","""event"",""trial"",""time""
""fullscreenenter"",""5"",""16930""
","
",627.260000001057,NA,48,NA,NA,3000,1,NA,NA,images/redplanet1.jpg,images/alien2,images/alien1,images/rocket2,images/alien2,images/nothing.png,2,real,true,2,common,0,2020-06-16T18:41:57Z,sub69
two-step-fixation,140,724602,0.0-76.0-2.1,FALSE,FALSE,FALSE,TRUE,"""event"",""trial"",""time""
""fullscreenenter"",""5"",""16930""
","
","
","""event"",""trial"",""time""
""fullscreenenter"",""5"",""16930""
","
",NA,images/earth.jpg,NA,NA,NA,NA,NA,NA,NA,NA,NA,NA,NA,NA,NA,fixation,NA,NA,NA,NA,NA,NA,sub69
d3-animate-choice,141,727178,0.0-76.0-0.2,FALSE,FALSE,FALSE,TRUE,"""event"",""trial"",""time""
""fullscreenenter"",""5"",""16930""
","
","
","""event"",""trial"",""time""
""fullscreenenter"",""5"",""16930""
","
",565.0500000010943,NA,48,NA,NA,3000,1,NA,NA,images/earth.jpg,images/rocket1,images/rocket2,null,images/rocket1,NA,1,real,null,2,NA,NA,NA,sub69
d3-animate-choice,142,729937,0.0-76.0-1.2,FALSE,FALSE,FALSE,TRUE,"""event"",""trial"",""time""
""fullscreenenter"",""5"",""16930""
","
","
","""event"",""trial"",""time""
""fullscreenenter"",""5"",""16930""
","
",748.1750000006286,NA,49,NA,NA,3000,1,NA,NA,images/purpleplanet.jpg,images/alien4,images/alien3,images/rocket1,images/alien3,images/nothing.png,2,real,true,1,common,0,2020-06-16T18:42:04Z,sub69
two-step-fixation,143,730947,0.0-76.0-2.2,FALSE,FALSE,FALSE,TRUE,"""event"",""trial"",""time""
""fullscreenenter"",""5"",""16930""
","
","
","""event"",""trial"",""time""
""fullscreenenter"",""5"",""16930""
","
",NA,images/earth.jpg,NA,NA,NA,NA,NA,NA,NA,NA,NA,NA,NA,NA,NA,fixation,NA,NA,NA,NA,NA,NA,sub69
d3-animate-choice,144,733287,0.0-76.0-0.3,FALSE,FALSE,FALSE,TRUE,"""event"",""trial"",""time""
""fullscreenenter"",""5"",""16930""
","
","
","""event"",""trial"",""time""
""fullscreenenter"",""5"",""16930""
","
",324.3450000009034,NA,48,NA,NA,3000,1,NA,NA,images/earth.jpg,images/rocket1,images/rocket2,null,images/rocket1,NA,1,real,null,2,NA,NA,NA,sub69
d3-animate-choice,145,737142,0.0-76.0-1.3,FALSE,FALSE,FALSE,TRUE,"""event"",""trial"",""time""
""fullscreenenter"",""5"",""16930""
","
","
","""event"",""trial"",""time""
""fullscreenenter"",""5"",""16930""
","
",1839.3950000026962,NA,49,NA,NA,3000,1,NA,NA,images/redplanet1.jpg,images/alien2,images/alien1,images/rocket1,images/alien1,images/nothing.png,2,real,false,1,rare,0,2020-06-16T18:42:11Z,sub69
two-step-fixation,146,738154,0.0-76.0-2.3,FALSE,FALSE,FALSE,TRUE,"""event"",""trial"",""time""
""fullscreenenter"",""5"",""16930""
","
","
","""event"",""trial"",""time""
""fullscreenenter"",""5"",""16930""
","
",NA,images/earth.jpg,NA,NA,NA,NA,NA,NA,NA,NA,NA,NA,NA,NA,NA,fixation,NA,NA,NA,NA,NA,NA,sub69
d3-animate-choice,147,740672,0.0-76.0-0.4,FALSE,FALSE,FALSE,TRUE,"""event"",""trial"",""time""
""fullscreenenter"",""5"",""16930""
","
","
","""event"",""trial"",""time""
""fullscreenenter"",""5"",""16930""
","
",507.785000001546,NA,48,NA,NA,3000,1,NA,NA,images/earth.jpg,images/rocket1,images/rocket2,null,images/rocket1,NA,1,real,null,2,NA,NA,NA,sub69
d3-animate-choice,148,743186,0.0-76.0-1.4,FALSE,FALSE,FALSE,TRUE,"""event"",""trial"",""time""
""fullscreenenter"",""5"",""16930""
","
","
","""event"",""trial"",""time""
""fullscreenenter"",""5"",""16930""
","
",502.52499999990687,NA,48,NA,NA,3000,1,NA,NA,images/purpleplanet.jpg,images/alien4,images/alien3,images/rocket1,images/alien4,images/t.png,2,real,true,2,common,1,2020-06-16T18:42:17Z,sub69
two-step-fixation,149,744194,0.0-76.0-2.4,FALSE,FALSE,FALSE,TRUE,"""event"",""trial"",""time""
""fullscreenenter"",""5"",""16930""
","
","
","""event"",""trial"",""time""
""fullscreenenter"",""5"",""16930""
","
",NA,images/earth.jpg,NA,NA,NA,NA,NA,NA,NA,NA,NA,NA,NA,NA,NA,fixation,NA,NA,NA,NA,NA,NA,sub69
d3-animate-choice,150,746714,0.0-76.0-0.5,FALSE,FALSE,FALSE,TRUE,"""event"",""trial"",""time""
""fullscreenenter"",""5"",""16930""
","
","
","""event"",""trial"",""time""
""fullscreenenter"",""5"",""16930""
","
",504.82000000192784,NA,48,NA,NA,3000,1,NA,NA,images/earth.jpg,images/rocket1,images/rocket2,null,images/rocket1,NA,1,real,null,2,NA,NA,NA,sub69
d3-animate-choice,151,749332,0.0-76.0-1.5,FALSE,FALSE,FALSE,TRUE,"""event"",""trial"",""time""
""fullscreenenter"",""5"",""16930""
","
","
","""event"",""trial"",""time""
""fullscreenenter"",""5"",""16930""
","
",604.525000002468,NA,48,NA,NA,3000,1,NA,NA,images/purpleplanet.jpg,images/alien4,images/alien3,images/rocket1,images/alien4,images/t.png,2,real,true,2,common,1,2020-06-16T18:42:23Z,sub69
two-step-fixation,152,750341,0.0-76.0-2.5,FALSE,FALSE,FALSE,TRUE,"""event"",""trial"",""time""
""fullscreenenter"",""5"",""16930""
","
","
","""event"",""trial"",""time""
""fullscreenenter"",""5"",""16930""
","
",NA,images/earth.jpg,NA,NA,NA,NA,NA,NA,NA,NA,NA,NA,NA,NA,NA,fixation,NA,NA,NA,NA,NA,NA,sub69
d3-animate-choice,153,752925,0.0-76.0-0.6,FALSE,FALSE,FALSE,TRUE,"""event"",""trial"",""time""
""fullscreenenter"",""5"",""16930""
","
","
","""event"",""trial"",""time""
""fullscreenenter"",""5"",""16930""
","
",572.3900000012945,NA,48,NA,NA,3000,1,NA,NA,images/earth.jpg,images/rocket1,images/rocket2,null,images/rocket1,NA,1,real,null,2,NA,NA,NA,sub69
d3-animate-choice,154,755489,0.0-76.0-1.6,FALSE,FALSE,FALSE,TRUE,"""event"",""trial"",""time""
""fullscreenenter"",""5"",""16930""
","
","
","""event"",""trial"",""time""
""fullscreenenter"",""5"",""16930""
","
",554.8899999994319,NA,48,NA,NA,3000,1,NA,NA,images/purpleplanet.jpg,images/alien4,images/alien3,images/rocket1,images/alien4,images/t.png,2,real,true,2,common,1,2020-06-16T18:42:29Z,sub69
two-step-fixation,155,756500,0.0-76.0-2.6,FALSE,FALSE,FALSE,TRUE,"""event"",""trial"",""time""
""fullscreenenter"",""5"",""16930""
","
","
","""event"",""trial"",""time""
""fullscreenenter"",""5"",""16930""
","
",NA,images/earth.jpg,NA,NA,NA,NA,NA,NA,NA,NA,NA,NA,NA,NA,NA,fixation,NA,NA,NA,NA,NA,NA,sub69
d3-animate-choice,156,758857,0.0-76.0-0.7,FALSE,FALSE,FALSE,TRUE,"""event"",""trial"",""time""
""fullscreenenter"",""5"",""16930""
","
","
","""event"",""trial"",""time""
""fullscreenenter"",""5"",""16930""
","
",346.2550000004703,NA,48,NA,NA,3000,1,NA,NA,images/earth.jpg,images/rocket1,images/rocket2,null,images/rocket1,NA,1,real,null,2,NA,NA,NA,sub69
d3-animate-choice,157,762120,0.0-76.0-1.7,FALSE,FALSE,FALSE,TRUE,"""event"",""trial"",""time""
""fullscreenenter"",""5"",""16930""
","
","
","""event"",""trial"",""time""
""fullscreenenter"",""5"",""16930""
","
",1247.794999999227,NA,48,NA,NA,3000,1,NA,NA,images/redplanet1.jpg,images/alien2,images/alien1,images/rocket1,images/alien2,images/nothing.png,2,real,false,2,rare,0,2020-06-16T18:42:36Z,sub69
two-step-fixation,158,763134,0.0-76.0-2.7,FALSE,FALSE,FALSE,TRUE,"""event"",""trial"",""time""
""fullscreenenter"",""5"",""16930""
","
","
","""event"",""trial"",""time""
""fullscreenenter"",""5"",""16930""
","
",NA,images/earth.jpg,NA,NA,NA,NA,NA,NA,NA,NA,NA,NA,NA,NA,NA,fixation,NA,NA,NA,NA,NA,NA,sub69
d3-animate-choice,159,765509,0.0-76.0-0.8,FALSE,FALSE,FALSE,TRUE,"""event"",""trial"",""time""
""fullscreenenter"",""5"",""16930""
","
","
","""event"",""trial"",""time""
""fullscreenenter"",""5"",""16930""
","
",364.9250000016764,NA,48,NA,NA,3000,1,NA,NA,images/earth.jpg,images/rocket1,images/rocket2,null,images/rocket1,NA,1,real,null,2,NA,NA,NA,sub69
d3-animate-choice,160,767973,0.0-76.0-1.8,FALSE,FALSE,FALSE,TRUE,"""event"",""trial"",""time""
""fullscreenenter"",""5"",""16930""
","
","
","""event"",""trial"",""time""
""fullscreenenter"",""5"",""16930""
","
",449.3849999998929,NA,48,NA,NA,3000,1,NA,NA,images/purpleplanet.jpg,images/alien4,images/alien3,images/rocket1,images/alien4,images/t.png,2,real,true,2,common,1,2020-06-16T18:42:42Z,sub69
two-step-fixation,161,768981,0.0-76.0-2.8,FALSE,FALSE,FALSE,TRUE,"""event"",""trial"",""time""
""fullscreenenter"",""5"",""16930""
","
","
","""event"",""trial"",""time""
""fullscreenenter"",""5"",""16930""
","
",NA,images/earth.jpg,NA,NA,NA,NA,NA,NA,NA,NA,NA,NA,NA,NA,NA,fixation,NA,NA,NA,NA,NA,NA,sub69
d3-animate-choice,162,771573,0.0-76.0-0.9,FALSE,FALSE,FALSE,TRUE,"""event"",""trial"",""time""
""fullscreenenter"",""5"",""16930""
","
","
","""event"",""trial"",""time""
""fullscreenenter"",""5"",""16930""
","
",577.2350000006845,NA,48,NA,NA,3000,1,NA,NA,images/earth.jpg,images/rocket1,images/rocket2,null,images/rocket1,NA,1,real,null,2,NA,NA,NA,sub69
d3-animate-choice,163,775179,0.0-76.0-1.9,FALSE,FALSE,FALSE,TRUE,"""event"",""trial"",""time""
""fullscreenenter"",""5"",""16930""
","
","
","""event"",""trial"",""time""
""fullscreenenter"",""5"",""16930""
","
",1588.7350000011502,NA,49,NA,NA,3000,1,NA,NA,images/redplanet1.jpg,images/alien2,images/alien1,images/rocket1,images/alien1,images/t.png,2,real,false,1,rare,1,2020-06-16T18:42:49Z,sub69
two-step-fixation,164,776186,0.0-76.0-2.9,FALSE,FALSE,FALSE,TRUE,"""event"",""trial"",""time""
""fullscreenenter"",""5"",""16930""
","
","
","""event"",""trial"",""time""
""fullscreenenter"",""5"",""16930""
","
",NA,images/earth.jpg,NA,NA,NA,NA,NA,NA,NA,NA,NA,NA,NA,NA,NA,fixation,NA,NA,NA,NA,NA,NA,sub69
d3-animate-choice,165,778716,0.0-76.0-0.10,FALSE,FALSE,FALSE,TRUE,"""event"",""trial"",""time""
""fullscreenenter"",""5"",""16930""
","
","
","""event"",""trial"",""time""
""fullscreenenter"",""5"",""16930""
","
",520.2949999984121,NA,48,NA,NA,3000,1,NA,NA,images/earth.jpg,images/rocket1,images/rocket2,null,images/rocket1,NA,1,real,null,2,NA,NA,NA,sub69
d3-animate-choice,166,781199,0.0-76.0-1.10,FALSE,FALSE,FALSE,TRUE,"""event"",""trial"",""time""
""fullscreenenter"",""5"",""16930""
","
","
","""event"",""trial"",""time""
""fullscreenenter"",""5"",""16930""
","
",465.1849999972619,NA,48,NA,NA,3000,1,NA,NA,images/purpleplanet.jpg,images/alien4,images/alien3,images/rocket1,images/alien4,images/t.png,2,real,true,2,common,1,2020-06-16T18:42:55Z,sub69
two-step-fixation,167,782211,0.0-76.0-2.10,FALSE,FALSE,FALSE,TRUE,"""event"",""trial"",""time""
""fullscreenenter"",""5"",""16930""
","
","
","""event"",""trial"",""time""
""fullscreenenter"",""5"",""16930""
","
",NA,images/earth.jpg,NA,NA,NA,NA,NA,NA,NA,NA,NA,NA,NA,NA,NA,fixation,NA,NA,NA,NA,NA,NA,sub69
d3-animate-choice,168,784572,0.0-76.0-0.11,FALSE,FALSE,FALSE,TRUE,"""event"",""trial"",""time""
""fullscreenenter"",""5"",""16930""
","
","
","""event"",""trial"",""time""
""fullscreenenter"",""5"",""16930""
","
",353.6149999999907,NA,48,NA,NA,3000,1,NA,NA,images/earth.jpg,images/rocket1,images/rocket2,null,images/rocket1,NA,1,real,null,2,NA,NA,NA,sub69
d3-animate-choice,169,786987,0.0-76.0-1.11,FALSE,FALSE,FALSE,TRUE,"""event"",""trial"",""time""
""fullscreenenter"",""5"",""16930""
","
","
","""event"",""trial"",""time""
""fullscreenenter"",""5"",""16930""
","
",395.3849999997765,NA,48,NA,NA,3000,1,NA,NA,images/purpleplanet.jpg,images/alien4,images/alien3,images/rocket1,images/alien4,images/t.png,2,real,true,2,common,1,2020-06-16T18:43:01Z,sub69
two-step-fixation,170,788003,0.0-76.0-2.11,FALSE,FALSE,FALSE,TRUE,"""event"",""trial"",""time""
""fullscreenenter"",""5"",""16930""
","
","
","""event"",""trial"",""time""
""fullscreenenter"",""5"",""16930""
","
",NA,images/earth.jpg,NA,NA,NA,NA,NA,NA,NA,NA,NA,NA,NA,NA,NA,fixation,NA,NA,NA,NA,NA,NA,sub69
d3-animate-choice,171,790513,0.0-76.0-0.12,FALSE,FALSE,FALSE,TRUE,"""event"",""trial"",""time""
""fullscreenenter"",""5"",""16930""
","
","
","""event"",""trial"",""time""
""fullscreenenter"",""5"",""16930""
","
",495.62000000150874,NA,48,NA,NA,3000,1,NA,NA,images/earth.jpg,images/rocket1,images/rocket2,null,images/rocket1,NA,1,real,null,2,NA,NA,NA,sub69
d3-animate-choice,172,793248,0.0-76.0-1.12,FALSE,FALSE,FALSE,TRUE,"""event"",""trial"",""time""
""fullscreenenter"",""5"",""16930""
","
","
","""event"",""trial"",""time""
""fullscreenenter"",""5"",""16930""
","
",721.6599999992177,NA,48,NA,NA,3000,1,NA,NA,images/purpleplanet.jpg,images/alien4,images/alien3,images/rocket1,images/alien4,images/t.png,2,real,true,2,common,1,2020-06-16T18:43:07Z,sub69
two-step-fixation,173,794257,0.0-76.0-2.12,FALSE,FALSE,FALSE,TRUE,"""event"",""trial"",""time""
""fullscreenenter"",""5"",""16930""
","
","
","""event"",""trial"",""time""
""fullscreenenter"",""5"",""16930""
","
",NA,images/earth.jpg,NA,NA,NA,NA,NA,NA,NA,NA,NA,NA,NA,NA,NA,fixation,NA,NA,NA,NA,NA,NA,sub69
d3-animate-choice,174,796588,0.0-76.0-0.13,FALSE,FALSE,FALSE,TRUE,"""event"",""trial"",""time""
""fullscreenenter"",""5"",""16930""
","
","
","""event"",""trial"",""time""
""fullscreenenter"",""5"",""16930""
","
",317.14999999885913,NA,48,NA,NA,3000,1,NA,NA,images/earth.jpg,images/rocket1,images/rocket2,null,images/rocket1,NA,1,real,null,2,NA,NA,NA,sub69
d3-animate-choice,175,799153,0.0-76.0-1.13,FALSE,FALSE,FALSE,TRUE,"""event"",""trial"",""time""
""fullscreenenter"",""5"",""16930""
","
","
","""event"",""trial"",""time""
""fullscreenenter"",""5"",""16930""
","
",546.8899999978021,NA,49,NA,NA,3000,1,NA,NA,images/redplanet1.jpg,images/alien2,images/alien1,images/rocket1,images/alien1,images/t.png,2,real,false,1,rare,1,2020-06-16T18:43:13Z,sub69
two-step-fixation,176,800166,0.0-76.0-2.13,FALSE,FALSE,FALSE,TRUE,"""event"",""trial"",""time""
""fullscreenenter"",""5"",""16930""
","
","
","""event"",""trial"",""time""
""fullscreenenter"",""5"",""16930""
","
",NA,images/earth.jpg,NA,NA,NA,NA,NA,NA,NA,NA,NA,NA,NA,NA,NA,fixation,NA,NA,NA,NA,NA,NA,sub69
d3-animate-choice,177,802484,0.0-76.0-0.14,FALSE,FALSE,FALSE,TRUE,"""event"",""trial"",""time""
""fullscreenenter"",""5"",""16930""
","
","
","""event"",""trial"",""time""
""fullscreenenter"",""5"",""16930""
","
",302.5950000010198,NA,48,NA,NA,3000,1,NA,NA,images/earth.jpg,images/rocket1,images/rocket2,null,images/rocket1,NA,1,real,null,2,NA,NA,NA,sub69
d3-animate-choice,178,805039,0.0-76.0-1.14,FALSE,FALSE,FALSE,TRUE,"""event"",""trial"",""time""
""fullscreenenter"",""5"",""16930""
","
","
","""event"",""trial"",""time""
""fullscreenenter"",""5"",""16930""
","
",542.6349999980303,NA,49,NA,NA,3000,1,NA,NA,images/redplanet1.jpg,images/alien2,images/alien1,images/rocket1,images/alien1,images/t.png,2,real,false,1,rare,1,2020-06-16T18:43:19Z,sub69
two-step-fixation,179,806046,0.0-76.0-2.14,FALSE,FALSE,FALSE,TRUE,"""event"",""trial"",""time""
""fullscreenenter"",""5"",""16930""
","
","
","""event"",""trial"",""time""
""fullscreenenter"",""5"",""16930""
","
",NA,images/earth.jpg,NA,NA,NA,NA,NA,NA,NA,NA,NA,NA,NA,NA,NA,fixation,NA,NA,NA,NA,NA,NA,sub69
d3-animate-choice,180,808589,0.0-76.0-0.15,FALSE,FALSE,FALSE,TRUE,"""event"",""trial"",""time""
""fullscreenenter"",""5"",""16930""
","
","
","""event"",""trial"",""time""
""fullscreenenter"",""5"",""16930""
","
",530.1749999999302,NA,48,NA,NA,3000,1,NA,NA,images/earth.jpg,images/rocket1,images/rocket2,null,images/rocket1,NA,1,real,null,2,NA,NA,NA,sub69
d3-animate-choice,181,811181,0.0-76.0-1.15,FALSE,FALSE,FALSE,TRUE,"""event"",""trial"",""time""
""fullscreenenter"",""5"",""16930""
","
","
","""event"",""trial"",""time""
""fullscreenenter"",""5"",""16930""
","
",576.55000000156,NA,48,NA,NA,3000,1,NA,NA,images/purpleplanet.jpg,images/alien4,images/alien3,images/rocket1,images/alien4,images/t.png,2,real,true,2,common,1,2020-06-16T18:43:25Z,sub69
two-step-fixation,182,812192,0.0-76.0-2.15,FALSE,FALSE,FALSE,TRUE,"""event"",""trial"",""time""
""fullscreenenter"",""5"",""16930""
","
","
","""event"",""trial"",""time""
""fullscreenenter"",""5"",""16930""
","
",NA,images/earth.jpg,NA,NA,NA,NA,NA,NA,NA,NA,NA,NA,NA,NA,NA,fixation,NA,NA,NA,NA,NA,NA,sub69
d3-animate-choice,183,814706,0.0-76.0-0.16,FALSE,FALSE,FALSE,TRUE,"""event"",""trial"",""time""
""fullscreenenter"",""5"",""16930""
","
","
","""event"",""trial"",""time""
""fullscreenenter"",""5"",""16930""
","
",499.94000000157394,NA,48,NA,NA,3000,1,NA,NA,images/earth.jpg,images/rocket1,images/rocket2,null,images/rocket1,NA,1,real,null,2,NA,NA,NA,sub69
d3-animate-choice,184,817317,0.0-76.0-1.16,FALSE,FALSE,FALSE,TRUE,"""event"",""trial"",""time""
""fullscreenenter"",""5"",""16930""
","
","
","""event"",""trial"",""time""
""fullscreenenter"",""5"",""16930""
","
",598.2050000020536,NA,48,NA,NA,3000,1,NA,NA,images/purpleplanet.jpg,images/alien4,images/alien3,images/rocket1,images/alien4,images/t.png,2,real,true,2,common,1,2020-06-16T18:43:31Z,sub69
two-step-fixation,185,818330,0.0-76.0-2.16,FALSE,FALSE,FALSE,TRUE,"""event"",""trial"",""time""
""fullscreenenter"",""5"",""16930""
","
","
","""event"",""trial"",""time""
""fullscreenenter"",""5"",""16930""
","
",NA,images/earth.jpg,NA,NA,NA,NA,NA,NA,NA,NA,NA,NA,NA,NA,NA,fixation,NA,NA,NA,NA,NA,NA,sub69
d3-animate-choice,186,820840,0.0-76.0-0.17,FALSE,FALSE,FALSE,TRUE,"""event"",""trial"",""time""
""fullscreenenter"",""5"",""16930""
","
","
","""event"",""trial"",""time""
""fullscreenenter"",""5"",""16930""
","
",491.21000000007916,NA,48,NA,NA,3000,1,NA,NA,images/earth.jpg,images/rocket1,images/rocket2,null,images/rocket1,NA,1,real,null,2,NA,NA,NA,sub69
d3-animate-choice,187,823493,0.0-76.0-1.17,FALSE,FALSE,FALSE,TRUE,"""event"",""trial"",""time""
""fullscreenenter"",""5"",""16930""
","
","
","""event"",""trial"",""time""
""fullscreenenter"",""5"",""16930""
","
",640.1600000027101,NA,49,NA,NA,3000,1,NA,NA,images/redplanet1.jpg,images/alien2,images/alien1,images/rocket1,images/alien1,images/t.png,2,real,false,1,rare,1,2020-06-16T18:43:37Z,sub69
two-step-fixation,188,824507,0.0-76.0-2.17,FALSE,FALSE,FALSE,TRUE,"""event"",""trial"",""time""
""fullscreenenter"",""5"",""16930""
","
","
","""event"",""trial"",""time""
""fullscreenenter"",""5"",""16930""
","
",NA,images/earth.jpg,NA,NA,NA,NA,NA,NA,NA,NA,NA,NA,NA,NA,NA,fixation,NA,NA,NA,NA,NA,NA,sub69
d3-animate-choice,189,827008,0.0-76.0-0.18,FALSE,FALSE,FALSE,TRUE,"""event"",""trial"",""time""
""fullscreenenter"",""5"",""16930""
","
","
","""event"",""trial"",""time""
""fullscreenenter"",""5"",""16930""
","
",489.3800000026822,NA,48,NA,NA,3000,1,NA,NA,images/earth.jpg,images/rocket1,images/rocket2,null,images/rocket1,NA,1,real,null,2,NA,NA,NA,sub69
d3-animate-choice,190,829542,0.0-76.0-1.18,FALSE,FALSE,FALSE,TRUE,"""event"",""trial"",""time""
""fullscreenenter"",""5"",""16930""
","
","
","""event"",""trial"",""time""
""fullscreenenter"",""5"",""16930""
","
",518.6250000005821,NA,48,NA,NA,3000,1,NA,NA,images/purpleplanet.jpg,images/alien4,images/alien3,images/rocket1,images/alien4,images/t.png,2,real,true,2,common,1,2020-06-16T18:43:43Z,sub69
two-step-fixation,191,830554,0.0-76.0-2.18,FALSE,FALSE,FALSE,TRUE,"""event"",""trial"",""time""
""fullscreenenter"",""5"",""16930""
","
","
","""event"",""trial"",""time""
""fullscreenenter"",""5"",""16930""
","
",NA,images/earth.jpg,NA,NA,NA,NA,NA,NA,NA,NA,NA,NA,NA,NA,NA,fixation,NA,NA,NA,NA,NA,NA,sub69
d3-animate-choice,192,833099,0.0-76.0-0.19,FALSE,FALSE,FALSE,TRUE,"""event"",""trial"",""time""
""fullscreenenter"",""5"",""16930""
","
","
","""event"",""trial"",""time""
""fullscreenenter"",""5"",""16930""
","
",532.5899999989197,NA,48,NA,NA,3000,1,NA,NA,images/earth.jpg,images/rocket1,images/rocket2,null,images/rocket1,NA,1,real,null,2,NA,NA,NA,sub69
d3-animate-choice,193,835834,0.0-76.0-1.19,FALSE,FALSE,FALSE,TRUE,"""event"",""trial"",""time""
""fullscreenenter"",""5"",""16930""
","
","
","""event"",""trial"",""time""
""fullscreenenter"",""5"",""16930""
","
",720.270000001532,NA,48,NA,NA,3000,1,NA,NA,images/purpleplanet.jpg,images/alien4,images/alien3,images/rocket1,images/alien4,images/t.png,2,real,true,2,common,1,2020-06-16T18:43:50Z,sub69
two-step-fixation,194,836846,0.0-76.0-2.19,FALSE,FALSE,FALSE,TRUE,"""event"",""trial"",""time""
""fullscreenenter"",""5"",""16930""
","
","
","""event"",""trial"",""time""
""fullscreenenter"",""5"",""16930""
","
",NA,images/earth.jpg,NA,NA,NA,NA,NA,NA,NA,NA,NA,NA,NA,NA,NA,fixation,NA,NA,NA,NA,NA,NA,sub69
d3-animate-choice,195,839309,0.0-76.0-0.20,FALSE,FALSE,FALSE,TRUE,"""event"",""trial"",""time""
""fullscreenenter"",""5"",""16930""
","
","
","""event"",""trial"",""time""
""fullscreenenter"",""5"",""16930""
","
",448.2900000002701,NA,48,NA,NA,3000,1,NA,NA,images/earth.jpg,images/rocket1,images/rocket2,null,images/rocket1,NA,1,real,null,2,NA,NA,NA,sub69
d3-animate-choice,196,841850,0.0-76.0-1.20,FALSE,FALSE,FALSE,TRUE,"""event"",""trial"",""time""
""fullscreenenter"",""5"",""16930""
","
","
","""event"",""trial"",""time""
""fullscreenenter"",""5"",""16930""
","
",527.1199999988312,NA,48,NA,NA,3000,1,NA,NA,images/purpleplanet.jpg,images/alien4,images/alien3,images/rocket1,images/alien4,images/t.png,2,real,true,2,common,1,2020-06-16T18:43:56Z,sub69
two-step-fixation,197,842857,0.0-76.0-2.20,FALSE,FALSE,FALSE,TRUE,"""event"",""trial"",""time""
""fullscreenenter"",""5"",""16930""
","
","
","""event"",""trial"",""time""
""fullscreenenter"",""5"",""16930""
","
",NA,images/earth.jpg,NA,NA,NA,NA,NA,NA,NA,NA,NA,NA,NA,NA,NA,fixation,NA,NA,NA,NA,NA,NA,sub69
d3-animate-choice,198,845208,0.0-76.0-0.21,FALSE,FALSE,FALSE,TRUE,"""event"",""trial"",""time""
""fullscreenenter"",""5"",""16930""
","
","
","""event"",""trial"",""time""
""fullscreenenter"",""5"",""16930""
","
",339.3550000000978,NA,48,NA,NA,3000,1,NA,NA,images/earth.jpg,images/rocket1,images/rocket2,null,images/rocket1,NA,1,real,null,2,NA,NA,NA,sub69
d3-animate-choice,199,847861,0.0-76.0-1.21,FALSE,FALSE,FALSE,TRUE,"""event"",""trial"",""time""
""fullscreenenter"",""5"",""16930""
","
","
","""event"",""trial"",""time""
""fullscreenenter"",""5"",""16930""
","
",639.1699999985285,NA,49,NA,NA,3000,1,NA,NA,images/redplanet1.jpg,images/alien2,images/alien1,images/rocket1,images/alien1,images/t.png,2,real,false,1,rare,1,2020-06-16T18:44:02Z,sub69
two-step-fixation,200,848872,0.0-76.0-2.21,FALSE,FALSE,FALSE,TRUE,"""event"",""trial"",""time""
""fullscreenenter"",""5"",""16930""
","
","
","""event"",""trial"",""time""
""fullscreenenter"",""5"",""16930""
","
",NA,images/earth.jpg,NA,NA,NA,NA,NA,NA,NA,NA,NA,NA,NA,NA,NA,fixation,NA,NA,NA,NA,NA,NA,sub69
d3-animate-choice,201,851277,0.0-76.0-0.22,FALSE,FALSE,FALSE,TRUE,"""event"",""trial"",""time""
""fullscreenenter"",""5"",""16930""
","
","
","""event"",""trial"",""time""
""fullscreenenter"",""5"",""16930""
","
",387.684999997844,NA,48,NA,NA,3000,1,NA,NA,images/earth.jpg,images/rocket1,images/rocket2,null,images/rocket1,NA,1,real,null,2,NA,NA,NA,sub69
d3-animate-choice,202,853899,0.0-76.0-1.22,FALSE,FALSE,FALSE,TRUE,"""event"",""trial"",""time""
""fullscreenenter"",""5"",""16930""
","
","
","""event"",""trial"",""time""
""fullscreenenter"",""5"",""16930""
","
",604.704999997979,NA,48,NA,NA,3000,1,NA,NA,images/purpleplanet.jpg,images/alien4,images/alien3,images/rocket1,images/alien4,images/t.png,2,real,true,2,common,1,2020-06-16T18:44:08Z,sub69
two-step-fixation,203,854907,0.0-76.0-2.22,FALSE,FALSE,FALSE,TRUE,"""event"",""trial"",""time""
""fullscreenenter"",""5"",""16930""
","
","
","""event"",""trial"",""time""
""fullscreenenter"",""5"",""16930""
","
",NA,images/earth.jpg,NA,NA,NA,NA,NA,NA,NA,NA,NA,NA,NA,NA,NA,fixation,NA,NA,NA,NA,NA,NA,sub69
d3-animate-choice,204,857258,0.0-76.0-0.23,FALSE,FALSE,FALSE,TRUE,"""event"",""trial"",""time""
""fullscreenenter"",""5"",""16930""
","
","
","""event"",""trial"",""time""
""fullscreenenter"",""5"",""16930""
","
",339.0449999968987,NA,48,NA,NA,3000,1,NA,NA,images/earth.jpg,images/rocket1,images/rocket2,null,images/rocket1,NA,1,real,null,2,NA,NA,NA,sub69
d3-animate-choice,205,859815,0.0-76.0-1.23,FALSE,FALSE,FALSE,TRUE,"""event"",""trial"",""time""
""fullscreenenter"",""5"",""16930""
","
","
","""event"",""trial"",""time""
""fullscreenenter"",""5"",""16930""
","
",539.1200000012759,NA,48,NA,NA,3000,1,NA,NA,images/purpleplanet.jpg,images/alien4,images/alien3,images/rocket1,images/alien4,images/t.png,2,real,true,2,common,1,2020-06-16T18:44:14Z,sub69
two-step-fixation,206,860825,0.0-76.0-2.23,FALSE,FALSE,FALSE,TRUE,"""event"",""trial"",""time""
""fullscreenenter"",""5"",""16930""
","
","
","""event"",""trial"",""time""
""fullscreenenter"",""5"",""16930""
","
",NA,images/earth.jpg,NA,NA,NA,NA,NA,NA,NA,NA,NA,NA,NA,NA,NA,fixation,NA,NA,NA,NA,NA,NA,sub69
d3-animate-choice,207,863325,0.0-76.0-0.24,FALSE,FALSE,FALSE,TRUE,"""event"",""trial"",""time""
""fullscreenenter"",""5"",""16930""
","
","
","""event"",""trial"",""time""
""fullscreenenter"",""5"",""16930""
","
",484.21500000031665,NA,48,NA,NA,3000,1,NA,NA,images/earth.jpg,images/rocket1,images/rocket2,null,images/rocket1,NA,1,real,null,2,NA,NA,NA,sub69
d3-animate-choice,208,865891,0.0-76.0-1.24,FALSE,FALSE,FALSE,TRUE,"""event"",""trial"",""time""
""fullscreenenter"",""5"",""16930""
","
","
","""event"",""trial"",""time""
""fullscreenenter"",""5"",""16930""
","
",552.9800000003306,NA,48,NA,NA,3000,1,NA,NA,images/purpleplanet.jpg,images/alien4,images/alien3,images/rocket1,images/alien4,images/nothing.png,2,real,true,2,common,0,2020-06-16T18:44:20Z,sub69
two-step-fixation,209,866900,0.0-76.0-2.24,FALSE,FALSE,FALSE,TRUE,"""event"",""trial"",""time""
""fullscreenenter"",""5"",""16930""
","
","
","""event"",""trial"",""time""
""fullscreenenter"",""5"",""16930""
","
",NA,images/earth.jpg,NA,NA,NA,NA,NA,NA,NA,NA,NA,NA,NA,NA,NA,fixation,NA,NA,NA,NA,NA,NA,sub69
d3-animate-choice,210,869433,0.0-76.0-0.25,FALSE,FALSE,FALSE,TRUE,"""event"",""trial"",""time""
""fullscreenenter"",""5"",""16930""
","
","
","""event"",""trial"",""time""
""fullscreenenter"",""5"",""16930""
","
",517.7850000000326,NA,48,NA,NA,3000,1,NA,NA,images/earth.jpg,images/rocket1,images/rocket2,null,images/rocket1,NA,1,real,null,2,NA,NA,NA,sub69
d3-animate-choice,211,871859,0.0-76.0-1.25,FALSE,FALSE,FALSE,TRUE,"""event"",""trial"",""time""
""fullscreenenter"",""5"",""16930""
","
","
","""event"",""trial"",""time""
""fullscreenenter"",""5"",""16930""
","
",413.35500000056345,NA,48,NA,NA,3000,1,NA,NA,images/purpleplanet.jpg,images/alien4,images/alien3,images/rocket1,images/alien4,images/t.png,2,real,true,2,common,1,2020-06-16T18:44:26Z,sub69
two-step-fixation,212,872867,0.0-76.0-2.25,FALSE,FALSE,FALSE,TRUE,"""event"",""trial"",""time""
""fullscreenenter"",""5"",""16930""
","
","
","""event"",""trial"",""time""
""fullscreenenter"",""5"",""16930""
","
",NA,images/earth.jpg,NA,NA,NA,NA,NA,NA,NA,NA,NA,NA,NA,NA,NA,fixation,NA,NA,NA,NA,NA,NA,sub69
d3-animate-choice,213,875427,0.0-76.0-0.26,FALSE,FALSE,FALSE,TRUE,"""event"",""trial"",""time""
""fullscreenenter"",""5"",""16930""
","
","
","""event"",""trial"",""time""
""fullscreenenter"",""5"",""16930""
","
",550.1650000005029,NA,48,NA,NA,3000,1,NA,NA,images/earth.jpg,images/rocket1,images/rocket2,null,images/rocket1,NA,1,real,null,2,NA,NA,NA,sub69
d3-animate-choice,214,878020,0.0-76.0-1.26,FALSE,FALSE,FALSE,TRUE,"""event"",""trial"",""time""
""fullscreenenter"",""5"",""16930""
","
","
","""event"",""trial"",""time""
""fullscreenenter"",""5"",""16930""
","
",573.1599999999162,NA,48,NA,NA,3000,1,NA,NA,images/purpleplanet.jpg,images/alien4,images/alien3,images/rocket1,images/alien4,images/nothing.png,2,real,true,2,common,0,2020-06-16T18:44:32Z,sub69
two-step-fixation,215,879035,0.0-76.0-2.26,FALSE,FALSE,FALSE,TRUE,"""event"",""trial"",""time""
""fullscreenenter"",""5"",""16930""
","
","
","""event"",""trial"",""time""
""fullscreenenter"",""5"",""16930""
","
",NA,images/earth.jpg,NA,NA,NA,NA,NA,NA,NA,NA,NA,NA,NA,NA,NA,fixation,NA,NA,NA,NA,NA,NA,sub69
d3-animate-choice,216,881594,0.0-76.0-0.27,FALSE,FALSE,FALSE,TRUE,"""event"",""trial"",""time""
""fullscreenenter"",""5"",""16930""
","
","
","""event"",""trial"",""time""
""fullscreenenter"",""5"",""16930""
","
",548.6049999999814,NA,48,NA,NA,3000,1,NA,NA,images/earth.jpg,images/rocket1,images/rocket2,null,images/rocket1,NA,1,real,null,2,NA,NA,NA,sub69
d3-animate-choice,217,884150,0.0-76.0-1.27,FALSE,FALSE,FALSE,TRUE,"""event"",""trial"",""time""
""fullscreenenter"",""5"",""16930""
","
","
","""event"",""trial"",""time""
""fullscreenenter"",""5"",""16930""
","
",540.6699999984121,NA,48,NA,NA,3000,1,NA,NA,images/purpleplanet.jpg,images/alien4,images/alien3,images/rocket1,images/alien4,images/t.png,2,real,true,2,common,1,2020-06-16T18:44:38Z,sub69
two-step-fixation,218,885161,0.0-76.0-2.27,FALSE,FALSE,FALSE,TRUE,"""event"",""trial"",""time""
""fullscreenenter"",""5"",""16930""
","
","
","""event"",""trial"",""time""
""fullscreenenter"",""5"",""16930""
","
",NA,images/earth.jpg,NA,NA,NA,NA,NA,NA,NA,NA,NA,NA,NA,NA,NA,fixation,NA,NA,NA,NA,NA,NA,sub69
d3-animate-choice,219,887576,0.0-76.0-0.28,FALSE,FALSE,FALSE,TRUE,"""event"",""trial"",""time""
""fullscreenenter"",""5"",""16930""
","
","
","""event"",""trial"",""time""
""fullscreenenter"",""5"",""16930""
","
",400.0700000033248,NA,48,NA,NA,3000,1,NA,NA,images/earth.jpg,images/rocket1,images/rocket2,null,images/rocket1,NA,1,real,null,2,NA,NA,NA,sub69
d3-animate-choice,220,890413,0.0-76.0-1.28,FALSE,FALSE,FALSE,TRUE,"""event"",""trial"",""time""
""fullscreenenter"",""5"",""16930""
","
","
","""event"",""trial"",""time""
""fullscreenenter"",""5"",""16930""
","
",820.1650000009686,NA,49,NA,NA,3000,1,NA,NA,images/redplanet1.jpg,images/alien2,images/alien1,images/rocket1,images/alien1,images/t.png,2,real,false,1,rare,1,2020-06-16T18:44:44Z,sub69
two-step-fixation,221,891425,0.0-76.0-2.28,FALSE,FALSE,FALSE,TRUE,"""event"",""trial"",""time""
""fullscreenenter"",""5"",""16930""
","
","
","""event"",""trial"",""time""
""fullscreenenter"",""5"",""16930""
","
",NA,images/earth.jpg,NA,NA,NA,NA,NA,NA,NA,NA,NA,NA,NA,NA,NA,fixation,NA,NA,NA,NA,NA,NA,sub69
d3-animate-choice,222,893851,0.0-76.0-0.29,FALSE,FALSE,FALSE,TRUE,"""event"",""trial"",""time""
""fullscreenenter"",""5"",""16930""
","
","
","""event"",""trial"",""time""
""fullscreenenter"",""5"",""16930""
","
",408.39000000047963,NA,48,NA,NA,3000,1,NA,NA,images/earth.jpg,images/rocket1,images/rocket2,null,images/rocket1,NA,1,real,null,2,NA,NA,NA,sub69
d3-animate-choice,223,896225,0.0-76.0-1.29,FALSE,FALSE,FALSE,TRUE,"""event"",""trial"",""time""
""fullscreenenter"",""5"",""16930""
","
","
","""event"",""trial"",""time""
""fullscreenenter"",""5"",""16930""
","
",360.2900000005029,NA,48,NA,NA,3000,1,NA,NA,images/purpleplanet.jpg,images/alien4,images/alien3,images/rocket1,images/alien4,images/t.png,2,real,true,2,common,1,2020-06-16T18:44:50Z,sub69
two-step-fixation,224,897237,0.0-76.0-2.29,FALSE,FALSE,FALSE,TRUE,"""event"",""trial"",""time""
""fullscreenenter"",""5"",""16930""
","
","
","""event"",""trial"",""time""
""fullscreenenter"",""5"",""16930""
","
",NA,images/earth.jpg,NA,NA,NA,NA,NA,NA,NA,NA,NA,NA,NA,NA,NA,fixation,NA,NA,NA,NA,NA,NA,sub69
d3-animate-choice,225,899633,0.0-76.0-0.30,FALSE,FALSE,FALSE,TRUE,"""event"",""trial"",""time""
""fullscreenenter"",""5"",""16930""
","
","
","""event"",""trial"",""time""
""fullscreenenter"",""5"",""16930""
","
",381.78999999933876,NA,48,NA,NA,3000,1,NA,NA,images/earth.jpg,images/rocket1,images/rocket2,null,images/rocket1,NA,1,real,null,2,NA,NA,NA,sub69
d3-animate-choice,226,902183,0.0-76.0-1.30,FALSE,FALSE,FALSE,TRUE,"""event"",""trial"",""time""
""fullscreenenter"",""5"",""16930""
","
","
","""event"",""trial"",""time""
""fullscreenenter"",""5"",""16930""
","
",533.6999999999534,NA,48,NA,NA,3000,1,NA,NA,images/purpleplanet.jpg,images/alien4,images/alien3,images/rocket1,images/alien4,images/t.png,2,real,true,2,common,1,2020-06-16T18:44:56Z,sub69
two-step-fixation,227,903189,0.0-76.0-2.30,FALSE,FALSE,FALSE,TRUE,"""event"",""trial"",""time""
""fullscreenenter"",""5"",""16930""
","
","
","""event"",""trial"",""time""
""fullscreenenter"",""5"",""16930""
","
",NA,images/earth.jpg,NA,NA,NA,NA,NA,NA,NA,NA,NA,NA,NA,NA,NA,fixation,NA,NA,NA,NA,NA,NA,sub69
d3-animate-choice,228,905685,0.0-76.0-0.31,FALSE,FALSE,FALSE,TRUE,"""event"",""trial"",""time""
""fullscreenenter"",""5"",""16930""
","
","
","""event"",""trial"",""time""
""fullscreenenter"",""5"",""16930""
","
",480.7550000004703,NA,48,NA,NA,3000,1,NA,NA,images/earth.jpg,images/rocket1,images/rocket2,null,images/rocket1,NA,1,real,null,2,NA,NA,NA,sub69
d3-animate-choice,229,908272,0.0-76.0-1.31,FALSE,FALSE,FALSE,TRUE,"""event"",""trial"",""time""
""fullscreenenter"",""5"",""16930""
","
","
","""event"",""trial"",""time""
""fullscreenenter"",""5"",""16930""
","
",574.8999999995576,NA,48,NA,NA,3000,1,NA,NA,images/purpleplanet.jpg,images/alien4,images/alien3,images/rocket1,images/alien4,images/nothing.png,2,real,true,2,common,0,2020-06-16T18:45:02Z,sub69
two-step-fixation,230,909283,0.0-76.0-2.31,FALSE,FALSE,FALSE,TRUE,"""event"",""trial"",""time""
""fullscreenenter"",""5"",""16930""
","
","
","""event"",""trial"",""time""
""fullscreenenter"",""5"",""16930""
","
",NA,images/earth.jpg,NA,NA,NA,NA,NA,NA,NA,NA,NA,NA,NA,NA,NA,fixation,NA,NA,NA,NA,NA,NA,sub69
d3-animate-choice,231,911676,0.0-76.0-0.32,FALSE,FALSE,FALSE,TRUE,"""event"",""trial"",""time""
""fullscreenenter"",""5"",""16930""
","
","
","""event"",""trial"",""time""
""fullscreenenter"",""5"",""16930""
","
",376.6500000018859,NA,48,NA,NA,3000,1,NA,NA,images/earth.jpg,images/rocket1,images/rocket2,null,images/rocket1,NA,1,real,null,2,NA,NA,NA,sub69
d3-animate-choice,232,914469,0.0-76.0-1.32,FALSE,FALSE,FALSE,TRUE,"""event"",""trial"",""time""
""fullscreenenter"",""5"",""16930""
","
","
","""event"",""trial"",""time""
""fullscreenenter"",""5"",""16930""
","
",777.6200000008103,NA,49,NA,NA,3000,1,NA,NA,images/redplanet1.jpg,images/alien2,images/alien1,images/rocket1,images/alien1,images/t.png,2,real,false,1,rare,1,2020-06-16T18:45:08Z,sub69
two-step-fixation,233,915481,0.0-76.0-2.32,FALSE,FALSE,FALSE,TRUE,"""event"",""trial"",""time""
""fullscreenenter"",""5"",""16930""
","
","
","""event"",""trial"",""time""
""fullscreenenter"",""5"",""16930""
","
",NA,images/earth.jpg,NA,NA,NA,NA,NA,NA,NA,NA,NA,NA,NA,NA,NA,fixation,NA,NA,NA,NA,NA,NA,sub69
d3-animate-choice,234,917877,0.0-76.0-0.33,FALSE,FALSE,FALSE,TRUE,"""event"",""trial"",""time""
""fullscreenenter"",""5"",""16930""
","
","
","""event"",""trial"",""time""
""fullscreenenter"",""5"",""16930""
","
",381.75000000046566,NA,48,NA,NA,3000,1,NA,NA,images/earth.jpg,images/rocket1,images/rocket2,null,images/rocket1,NA,1,real,null,2,NA,NA,NA,sub69
d3-animate-choice,235,920462,0.0-76.0-1.33,FALSE,FALSE,FALSE,TRUE,"""event"",""trial"",""time""
""fullscreenenter"",""5"",""16930""
","
","
","""event"",""trial"",""time""
""fullscreenenter"",""5"",""16930""
","
",570.6549999995623,NA,49,NA,NA,3000,1,NA,NA,images/redplanet1.jpg,images/alien2,images/alien1,images/rocket1,images/alien1,images/nothing.png,2,real,false,1,rare,0,2020-06-16T18:45:14Z,sub69
two-step-fixation,236,921472,0.0-76.0-2.33,FALSE,FALSE,FALSE,TRUE,"""event"",""trial"",""time""
""fullscreenenter"",""5"",""16930""
","
","
","""event"",""trial"",""time""
""fullscreenenter"",""5"",""16930""
","
",NA,images/earth.jpg,NA,NA,NA,NA,NA,NA,NA,NA,NA,NA,NA,NA,NA,fixation,NA,NA,NA,NA,NA,NA,sub69
d3-animate-choice,237,923800,0.0-76.0-0.34,FALSE,FALSE,FALSE,TRUE,"""event"",""trial"",""time""
""fullscreenenter"",""5"",""16930""
","
","
","""event"",""trial"",""time""
""fullscreenenter"",""5"",""16930""
","
",313.0700000001816,NA,48,NA,NA,3000,1,NA,NA,images/earth.jpg,images/rocket1,images/rocket2,null,images/rocket1,NA,1,real,null,2,NA,NA,NA,sub69
d3-animate-choice,238,926295,0.0-76.0-1.34,FALSE,FALSE,FALSE,TRUE,"""event"",""trial"",""time""
""fullscreenenter"",""5"",""16930""
","
","
","""event"",""trial"",""time""
""fullscreenenter"",""5"",""16930""
","
",484.70499999891035,NA,48,NA,NA,3000,1,NA,NA,images/purpleplanet.jpg,images/alien4,images/alien3,images/rocket1,images/alien4,images/nothing.png,2,real,true,2,common,0,2020-06-16T18:45:20Z,sub69
two-step-fixation,239,927309,0.0-76.0-2.34,FALSE,FALSE,FALSE,TRUE,"""event"",""trial"",""time""
""fullscreenenter"",""5"",""16930""
","
","
","""event"",""trial"",""time""
""fullscreenenter"",""5"",""16930""
","
",NA,images/earth.jpg,NA,NA,NA,NA,NA,NA,NA,NA,NA,NA,NA,NA,NA,fixation,NA,NA,NA,NA,NA,NA,sub69
d3-animate-choice,240,929816,0.0-76.0-0.35,FALSE,FALSE,FALSE,TRUE,"""event"",""trial"",""time""
""fullscreenenter"",""5"",""16930""
","
","
","""event"",""trial"",""time""
""fullscreenenter"",""5"",""16930""
","
",493.6999999990221,NA,48,NA,NA,3000,1,NA,NA,images/earth.jpg,images/rocket1,images/rocket2,null,images/rocket1,NA,1,real,null,2,NA,NA,NA,sub69
d3-animate-choice,241,932280,0.0-76.0-1.35,FALSE,FALSE,FALSE,TRUE,"""event"",""trial"",""time""
""fullscreenenter"",""5"",""16930""
","
","
","""event"",""trial"",""time""
""fullscreenenter"",""5"",""16930""
","
",447.02500000130385,NA,49,NA,NA,3000,1,NA,NA,images/purpleplanet.jpg,images/alien4,images/alien3,images/rocket1,images/alien3,images/t.png,2,real,true,1,common,1,2020-06-16T18:45:26Z,sub69
two-step-fixation,242,933291,0.0-76.0-2.35,FALSE,FALSE,FALSE,TRUE,"""event"",""trial"",""time""
""fullscreenenter"",""5"",""16930""
","
","
","""event"",""trial"",""time""
""fullscreenenter"",""5"",""16930""
","
",NA,images/earth.jpg,NA,NA,NA,NA,NA,NA,NA,NA,NA,NA,NA,NA,NA,fixation,NA,NA,NA,NA,NA,NA,sub69
d3-animate-choice,243,935743,0.0-76.0-0.36,FALSE,FALSE,FALSE,TRUE,"""event"",""trial"",""time""
""fullscreenenter"",""5"",""16930""
","
","
","""event"",""trial"",""time""
""fullscreenenter"",""5"",""16930""
","
",437.4699999971781,NA,48,NA,NA,3000,1,NA,NA,images/earth.jpg,images/rocket1,images/rocket2,null,images/rocket1,NA,1,real,null,2,NA,NA,NA,sub69
d3-animate-choice,244,938505,0.0-76.0-1.36,FALSE,FALSE,FALSE,TRUE,"""event"",""trial"",""time""
""fullscreenenter"",""5"",""16930""
","
","
","""event"",""trial"",""time""
""fullscreenenter"",""5"",""16930""
","
",749.7000000003027,NA,49,NA,NA,3000,1,NA,NA,images/purpleplanet.jpg,images/alien4,images/alien3,images/rocket1,images/alien3,images/nothing.png,2,real,true,1,common,0,2020-06-16T18:45:32Z,sub69
two-step-fixation,245,939511,0.0-76.0-2.36,FALSE,FALSE,FALSE,TRUE,"""event"",""trial"",""time""
""fullscreenenter"",""5"",""16930""
","
","
","""event"",""trial"",""time""
""fullscreenenter"",""5"",""16930""
","
",NA,images/earth.jpg,NA,NA,NA,NA,NA,NA,NA,NA,NA,NA,NA,NA,NA,fixation,NA,NA,NA,NA,NA,NA,sub69
d3-animate-choice,246,941880,0.0-76.0-0.37,FALSE,FALSE,FALSE,TRUE,"""event"",""trial"",""time""
""fullscreenenter"",""5"",""16930""
","
","
","""event"",""trial"",""time""
""fullscreenenter"",""5"",""16930""
","
",358.1849999973783,NA,48,NA,NA,3000,1,NA,NA,images/earth.jpg,images/rocket1,images/rocket2,null,images/rocket1,NA,1,real,null,2,NA,NA,NA,sub69
d3-animate-choice,247,944506,0.0-76.0-1.37,FALSE,FALSE,FALSE,TRUE,"""event"",""trial"",""time""
""fullscreenenter"",""5"",""16930""
","
","
","""event"",""trial"",""time""
""fullscreenenter"",""5"",""16930""
","
",610.7400000001071,NA,49,NA,NA,3000,1,NA,NA,images/purpleplanet.jpg,images/alien4,images/alien3,images/rocket1,images/alien3,images/nothing.png,2,real,true,1,common,0,2020-06-16T18:45:38Z,sub69
two-step-fixation,248,945515,0.0-76.0-2.37,FALSE,FALSE,FALSE,TRUE,"""event"",""trial"",""time""
""fullscreenenter"",""5"",""16930""
","
","
","""event"",""trial"",""time""
""fullscreenenter"",""5"",""16930""
","
",NA,images/earth.jpg,NA,NA,NA,NA,NA,NA,NA,NA,NA,NA,NA,NA,NA,fixation,NA,NA,NA,NA,NA,NA,sub69
d3-animate-choice,249,947970,0.0-76.0-0.38,FALSE,FALSE,FALSE,TRUE,"""event"",""trial"",""time""
""fullscreenenter"",""5"",""16930""
","
","
","""event"",""trial"",""time""
""fullscreenenter"",""5"",""16930""
","
",437.92499999830034,NA,48,NA,NA,3000,1,NA,NA,images/earth.jpg,images/rocket1,images/rocket2,null,images/rocket1,NA,1,real,null,2,NA,NA,NA,sub69
d3-animate-choice,250,951404,0.0-76.0-1.38,FALSE,FALSE,FALSE,TRUE,"""event"",""trial"",""time""
""fullscreenenter"",""5"",""16930""
","
","
","""event"",""trial"",""time""
""fullscreenenter"",""5"",""16930""
","
",1424.8599999991711,NA,48,NA,NA,3000,1,NA,NA,images/redplanet1.jpg,images/alien2,images/alien1,images/rocket1,images/alien2,images/nothing.png,2,real,false,2,rare,0,2020-06-16T18:45:45Z,sub69
two-step-fixation,251,952413,0.0-76.0-2.38,FALSE,FALSE,FALSE,TRUE,"""event"",""trial"",""time""
""fullscreenenter"",""5"",""16930""
","
","
","""event"",""trial"",""time""
""fullscreenenter"",""5"",""16930""
","
",NA,images/earth.jpg,NA,NA,NA,NA,NA,NA,NA,NA,NA,NA,NA,NA,NA,fixation,NA,NA,NA,NA,NA,NA,sub69
d3-animate-choice,252,954791,0.0-76.0-0.39,FALSE,FALSE,FALSE,TRUE,"""event"",""trial"",""time""
""fullscreenenter"",""5"",""16930""
","
","
","""event"",""trial"",""time""
""fullscreenenter"",""5"",""16930""
","
",364.46499999868684,NA,48,NA,NA,3000,1,NA,NA,images/earth.jpg,images/rocket1,images/rocket2,null,images/rocket1,NA,1,real,null,2,NA,NA,NA,sub69
d3-animate-choice,253,957454,0.0-76.0-1.39,FALSE,FALSE,FALSE,TRUE,"""event"",""trial"",""time""
""fullscreenenter"",""5"",""16930""
","
","
","""event"",""trial"",""time""
""fullscreenenter"",""5"",""16930""
","
",649.8599999977741,NA,49,NA,NA,3000,1,NA,NA,images/redplanet1.jpg,images/alien2,images/alien1,images/rocket1,images/alien1,images/t.png,2,real,false,1,rare,1,2020-06-16T18:45:51Z,sub69
two-step-fixation,254,958459,0.0-76.0-2.39,FALSE,FALSE,FALSE,TRUE,"""event"",""trial"",""time""
""fullscreenenter"",""5"",""16930""
","
","
","""event"",""trial"",""time""
""fullscreenenter"",""5"",""16930""
","
",NA,images/earth.jpg,NA,NA,NA,NA,NA,NA,NA,NA,NA,NA,NA,NA,NA,fixation,NA,NA,NA,NA,NA,NA,sub69
d3-animate-choice,255,960987,0.0-76.0-0.40,FALSE,FALSE,FALSE,TRUE,"""event"",""trial"",""time""
""fullscreenenter"",""5"",""16930""
","
","
","""event"",""trial"",""time""
""fullscreenenter"",""5"",""16930""
","
",515.0649999995949,NA,49,NA,NA,3000,1,NA,NA,images/earth.jpg,images/rocket1,images/rocket2,null,images/rocket2,NA,1,real,null,1,NA,NA,NA,sub69
d3-animate-choice,256,963577,0.0-76.0-1.40,FALSE,FALSE,FALSE,TRUE,"""event"",""trial"",""time""
""fullscreenenter"",""5"",""16930""
","
","
","""event"",""trial"",""time""
""fullscreenenter"",""5"",""16930""
","
",577.3000000008615,NA,48,NA,NA,3000,1,NA,NA,images/purpleplanet.jpg,images/alien4,images/alien3,images/rocket2,images/alien4,images/t.png,2,real,false,2,rare,1,2020-06-16T18:45:57Z,sub69
two-step-fixation,257,964589,0.0-76.0-2.40,FALSE,FALSE,FALSE,TRUE,"""event"",""trial"",""time""
""fullscreenenter"",""5"",""16930""
","
","
","""event"",""trial"",""time""
""fullscreenenter"",""5"",""16930""
","
",NA,images/earth.jpg,NA,NA,NA,NA,NA,NA,NA,NA,NA,NA,NA,NA,NA,fixation,NA,NA,NA,NA,NA,NA,sub69
d3-animate-choice,258,966926,0.0-76.0-0.41,FALSE,FALSE,FALSE,TRUE,"""event"",""trial"",""time""
""fullscreenenter"",""5"",""16930""
","
","
","""event"",""trial"",""time""
""fullscreenenter"",""5"",""16930""
","
",326.9399999990128,NA,49,NA,NA,3000,1,NA,NA,images/earth.jpg,images/rocket1,images/rocket2,null,images/rocket2,NA,1,real,null,1,NA,NA,NA,sub69
d3-animate-choice,259,969367,0.0-76.0-1.41,FALSE,FALSE,FALSE,TRUE,"""event"",""trial"",""time""
""fullscreenenter"",""5"",""16930""
","
","
","""event"",""trial"",""time""
""fullscreenenter"",""5"",""16930""
","
",428.77000000234693,NA,49,NA,NA,3000,1,NA,NA,images/redplanet1.jpg,images/alien2,images/alien1,images/rocket2,images/alien1,images/t.png,2,real,true,1,common,1,2020-06-16T18:46:03Z,sub69
two-step-fixation,260,970378,0.0-76.0-2.41,FALSE,FALSE,FALSE,TRUE,"""event"",""trial"",""time""
""fullscreenenter"",""5"",""16930""
","
","
","""event"",""trial"",""time""
""fullscreenenter"",""5"",""16930""
","
",NA,images/earth.jpg,NA,NA,NA,NA,NA,NA,NA,NA,NA,NA,NA,NA,NA,fixation,NA,NA,NA,NA,NA,NA,sub69
d3-animate-choice,261,972696,0.0-76.0-0.42,FALSE,FALSE,FALSE,TRUE,"""event"",""trial"",""time""
""fullscreenenter"",""5"",""16930""
","
","
","""event"",""trial"",""time""
""fullscreenenter"",""5"",""16930""
","
",303.27500000200234,NA,49,NA,NA,3000,1,NA,NA,images/earth.jpg,images/rocket1,images/rocket2,null,images/rocket2,NA,1,real,null,1,NA,NA,NA,sub69
d3-animate-choice,262,975361,0.0-76.0-1.42,FALSE,FALSE,FALSE,TRUE,"""event"",""trial"",""time""
""fullscreenenter"",""5"",""16930""
","
","
","""event"",""trial"",""time""
""fullscreenenter"",""5"",""16930""
","
",647.1249999995343,NA,48,NA,NA,3000,1,NA,NA,images/purpleplanet.jpg,images/alien4,images/alien3,images/rocket2,images/alien4,images/t.png,2,real,false,2,rare,1,2020-06-16T18:46:09Z,sub69
two-step-fixation,263,976372,0.0-76.0-2.42,FALSE,FALSE,FALSE,TRUE,"""event"",""trial"",""time""
""fullscreenenter"",""5"",""16930""
","
","
","""event"",""trial"",""time""
""fullscreenenter"",""5"",""16930""
","
",NA,images/earth.jpg,NA,NA,NA,NA,NA,NA,NA,NA,NA,NA,NA,NA,NA,fixation,NA,NA,NA,NA,NA,NA,sub69
d3-animate-choice,264,978711,0.0-76.0-0.43,FALSE,FALSE,FALSE,TRUE,"""event"",""trial"",""time""
""fullscreenenter"",""5"",""16930""
","
","
","""event"",""trial"",""time""
""fullscreenenter"",""5"",""16930""
","
",327.5150000008289,NA,49,NA,NA,3000,1,NA,NA,images/earth.jpg,images/rocket1,images/rocket2,null,images/rocket2,NA,1,real,null,1,NA,NA,NA,sub69
d3-animate-choice,265,981410,0.0-76.0-1.43,FALSE,FALSE,FALSE,TRUE,"""event"",""trial"",""time""
""fullscreenenter"",""5"",""16930""
","
","
","""event"",""trial"",""time""
""fullscreenenter"",""5"",""16930""
","
",686.4700000005541,NA,48,NA,NA,3000,1,NA,NA,images/purpleplanet.jpg,images/alien4,images/alien3,images/rocket2,images/alien4,images/t.png,2,real,false,2,rare,1,2020-06-16T18:46:15Z,sub69
two-step-fixation,266,982421,0.0-76.0-2.43,FALSE,FALSE,FALSE,TRUE,"""event"",""trial"",""time""
""fullscreenenter"",""5"",""16930""
","
","
","""event"",""trial"",""time""
""fullscreenenter"",""5"",""16930""
","
",NA,images/earth.jpg,NA,NA,NA,NA,NA,NA,NA,NA,NA,NA,NA,NA,NA,fixation,NA,NA,NA,NA,NA,NA,sub69
d3-animate-choice,267,984712,0.0-76.0-0.44,FALSE,FALSE,FALSE,TRUE,"""event"",""trial"",""time""
""fullscreenenter"",""5"",""16930""
","
","
","""event"",""trial"",""time""
""fullscreenenter"",""5"",""16930""
","
",279.64500000234693,NA,49,NA,NA,3000,1,NA,NA,images/earth.jpg,images/rocket1,images/rocket2,null,images/rocket2,NA,1,real,null,1,NA,NA,NA,sub69
d3-animate-choice,268,987323,0.0-76.0-1.44,FALSE,FALSE,FALSE,TRUE,"""event"",""trial"",""time""
""fullscreenenter"",""5"",""16930""
","
","
","""event"",""trial"",""time""
""fullscreenenter"",""5"",""16930""
","
",596.140000001411,NA,49,NA,NA,3000,1,NA,NA,images/redplanet1.jpg,images/alien2,images/alien1,images/rocket2,images/alien1,images/t.png,2,real,true,1,common,1,2020-06-16T18:46:21Z,sub69
two-step-fixation,269,988332,0.0-76.0-2.44,FALSE,FALSE,FALSE,TRUE,"""event"",""trial"",""time""
""fullscreenenter"",""5"",""16930""
","
","
","""event"",""trial"",""time""
""fullscreenenter"",""5"",""16930""
","
",NA,images/earth.jpg,NA,NA,NA,NA,NA,NA,NA,NA,NA,NA,NA,NA,NA,fixation,NA,NA,NA,NA,NA,NA,sub69
d3-animate-choice,270,990578,0.0-76.0-0.45,FALSE,FALSE,FALSE,TRUE,"""event"",""trial"",""time""
""fullscreenenter"",""5"",""16930""
","
","
","""event"",""trial"",""time""
""fullscreenenter"",""5"",""16930""
","
",236.2200000025332,NA,49,NA,NA,3000,1,NA,NA,images/earth.jpg,images/rocket1,images/rocket2,null,images/rocket2,NA,1,real,null,1,NA,NA,NA,sub69
d3-animate-choice,271,993018,0.0-76.0-1.45,FALSE,FALSE,FALSE,TRUE,"""event"",""trial"",""time""
""fullscreenenter"",""5"",""16930""
","
","
","""event"",""trial"",""time""
""fullscreenenter"",""5"",""16930""
","
",424.53999999992084,NA,49,NA,NA,3000,1,NA,NA,images/redplanet1.jpg,images/alien2,images/alien1,images/rocket2,images/alien1,images/t.png,2,real,true,1,common,1,2020-06-16T18:46:27Z,sub69
two-step-fixation,272,994036,0.0-76.0-2.45,FALSE,FALSE,FALSE,TRUE,"""event"",""trial"",""time""
""fullscreenenter"",""5"",""16930""
","
","
","""event"",""trial"",""time""
""fullscreenenter"",""5"",""16930""
","
",NA,images/earth.jpg,NA,NA,NA,NA,NA,NA,NA,NA,NA,NA,NA,NA,NA,fixation,NA,NA,NA,NA,NA,NA,sub69
d3-animate-choice,273,996309,0.0-76.0-0.46,FALSE,FALSE,FALSE,TRUE,"""event"",""trial"",""time""
""fullscreenenter"",""5"",""16930""
","
","
","""event"",""trial"",""time""
""fullscreenenter"",""5"",""16930""
","
",262.8149999981979,NA,49,NA,NA,3000,1,NA,NA,images/earth.jpg,images/rocket1,images/rocket2,null,images/rocket2,NA,1,real,null,1,NA,NA,NA,sub69
d3-animate-choice,274,998982,0.0-76.0-1.46,FALSE,FALSE,FALSE,TRUE,"""event"",""trial"",""time""
""fullscreenenter"",""5"",""16930""
","
","
","""event"",""trial"",""time""
""fullscreenenter"",""5"",""16930""
","
",657.6349999996601,NA,48,NA,NA,3000,1,NA,NA,images/purpleplanet.jpg,images/alien4,images/alien3,images/rocket2,images/alien4,images/t.png,2,real,false,2,rare,1,2020-06-16T18:46:33Z,sub69
two-step-fixation,275,999995,0.0-76.0-2.46,FALSE,FALSE,FALSE,TRUE,"""event"",""trial"",""time""
""fullscreenenter"",""5"",""16930""
","
","
","""event"",""trial"",""time""
""fullscreenenter"",""5"",""16930""
","
",NA,images/earth.jpg,NA,NA,NA,NA,NA,NA,NA,NA,NA,NA,NA,NA,NA,fixation,NA,NA,NA,NA,NA,NA,sub69
d3-animate-choice,276,1002316,0.0-76.0-0.47,FALSE,FALSE,FALSE,TRUE,"""event"",""trial"",""time""
""fullscreenenter"",""5"",""16930""
","
","
","""event"",""trial"",""time""
""fullscreenenter"",""5"",""16930""
","
",306.31500000157394,NA,49,NA,NA,3000,1,NA,NA,images/earth.jpg,images/rocket1,images/rocket2,null,images/rocket2,NA,1,real,null,1,NA,NA,NA,sub69
d3-animate-choice,277,1004814,0.0-76.0-1.47,FALSE,FALSE,FALSE,TRUE,"""event"",""trial"",""time""
""fullscreenenter"",""5"",""16930""
","
","
","""event"",""trial"",""time""
""fullscreenenter"",""5"",""16930""
","
",490.5899999976391,NA,49,NA,NA,3000,1,NA,NA,images/redplanet1.jpg,images/alien2,images/alien1,images/rocket2,images/alien1,images/nothing.png,2,real,true,1,common,0,2020-06-16T18:46:39Z,sub69
two-step-fixation,278,1005820,0.0-76.0-2.47,FALSE,FALSE,FALSE,TRUE,"""event"",""trial"",""time""
""fullscreenenter"",""5"",""16930""
","
","
","""event"",""trial"",""time""
""fullscreenenter"",""5"",""16930""
","
",NA,images/earth.jpg,NA,NA,NA,NA,NA,NA,NA,NA,NA,NA,NA,NA,NA,fixation,NA,NA,NA,NA,NA,NA,sub69
d3-animate-choice,279,1008361,0.0-76.0-0.48,FALSE,FALSE,FALSE,TRUE,"""event"",""trial"",""time""
""fullscreenenter"",""5"",""16930""
","
","
","""event"",""trial"",""time""
""fullscreenenter"",""5"",""16930""
","
",529.2499999995343,NA,48,NA,NA,3000,1,NA,NA,images/earth.jpg,images/rocket1,images/rocket2,null,images/rocket1,NA,1,real,null,2,NA,NA,NA,sub69
d3-animate-choice,280,1010832,0.0-76.0-1.48,FALSE,FALSE,FALSE,TRUE,"""event"",""trial"",""time""
""fullscreenenter"",""5"",""16930""
","
","
","""event"",""trial"",""time""
""fullscreenenter"",""5"",""16930""
","
",457.19499999901745,NA,48,NA,NA,3000,1,NA,NA,images/purpleplanet.jpg,images/alien4,images/alien3,images/rocket1,images/alien4,images/nothing.png,2,real,true,2,common,0,2020-06-16T18:46:45Z,sub69
two-step-fixation,281,1011846,0.0-76.0-2.48,FALSE,FALSE,FALSE,TRUE,"""event"",""trial"",""time""
""fullscreenenter"",""5"",""16930""
","
","
","""event"",""trial"",""time""
""fullscreenenter"",""5"",""16930""
","
",NA,images/earth.jpg,NA,NA,NA,NA,NA,NA,NA,NA,NA,NA,NA,NA,NA,fixation,NA,NA,NA,NA,NA,NA,sub69
d3-animate-choice,282,1014133,0.0-76.0-0.49,FALSE,FALSE,FALSE,TRUE,"""event"",""trial"",""time""
""fullscreenenter"",""5"",""16930""
","
","
","""event"",""trial"",""time""
""fullscreenenter"",""5"",""16930""
","
",270.8500000007916,NA,48,NA,NA,3000,1,NA,NA,images/earth.jpg,images/rocket1,images/rocket2,null,images/rocket1,NA,1,real,null,2,NA,NA,NA,sub69
d3-animate-choice,283,1016715,0.0-76.0-1.49,FALSE,FALSE,FALSE,TRUE,"""event"",""trial"",""time""
""fullscreenenter"",""5"",""16930""
","
","
","""event"",""trial"",""time""
""fullscreenenter"",""5"",""16930""
","
