trial_type,trial_index,time_elapsed,internal_node_id,rocket_sides,red_planet_first_rocket,red_display_order,purple_display_order,interactions,blur_events,focus_events,fullscreenenter_events,fullscreenexit_events,rt,stimulus,key_press,button_pressed,success,duration,valid_pressed,rts,keys,planet_text,right_text,left_text,center_text,chosen_text,reward_text,trial_stage,practice_trial,transition_type,choice,transition,reward,timestamp,subject_id
pavlovia,0,6,0.0-0.0,FALSE,FALSE,TRUE,TRUE,"
","
","
","
","
",NA,NA,NA,NA,NA,NA,NA,NA,NA,NA,NA,NA,NA,NA,NA,NA,NA,NA,NA,NA,NA,NA,sub102
html-keyboard-response,1,767,0.0-1.0,FALSE,FALSE,TRUE,TRUE,"
","
","
","
","
",756.6249999217689,Welcome! Press the space bar to begin.,32,NA,NA,NA,NA,NA,NA,NA,NA,NA,NA,NA,NA,NA,NA,NA,NA,NA,NA,NA,sub102
audio-keyboard-response,2,1305,0.0-2.0,FALSE,FALSE,TRUE,TRUE,"
","
","
","
","
",371,audio/beep_loop.wav,32,NA,NA,NA,NA,NA,NA,NA,NA,NA,NA,NA,NA,NA,NA,NA,NA,NA,NA,NA,sub102
audio-button-response,3,3272,0.0-3.0,FALSE,FALSE,TRUE,TRUE,"
","
","
","
","
",NaN,audio/fish.mp3,NA,1,NA,NA,NA,NA,NA,NA,NA,NA,NA,NA,NA,NA,NA,NA,NA,NA,NA,NA,sub102
audio-button-response,4,6643,0.0-4.0,FALSE,FALSE,TRUE,TRUE,"""event"",""trial"",""time""
""fullscreenenter"",""5"",""8871""
","
","
","""event"",""trial"",""time""
""fullscreenenter"",""5"",""8871""
","
",NaN,audio/tiger.mp3,NA,4,NA,NA,NA,NA,NA,NA,NA,NA,NA,NA,NA,NA,NA,NA,NA,NA,NA,NA,sub102
fullscreen,5,9845,0.0-5.0,FALSE,FALSE,TRUE,TRUE,"""event"",""trial"",""time""
""fullscreenenter"",""5"",""8871""
","
","
","""event"",""trial"",""time""
""fullscreenenter"",""5"",""8871""
","
",NA,NA,NA,NA,TRUE,NA,NA,NA,NA,NA,NA,NA,NA,NA,NA,NA,NA,NA,NA,NA,NA,NA,sub102
d3-instructions,6,11576,0.0-6.0,FALSE,FALSE,TRUE,TRUE,"""event"",""trial"",""time""
""fullscreenenter"",""5"",""8871""
","
","
","""event"",""trial"",""time""
""fullscreenenter"",""5"",""8871""
","
",NA,NA,NA,NA,NA,NA,NA,NA,NA,NA,NA,NA,NA,NA,NA,NA,NA,NA,NA,NA,NA,NA,sub102
d3-instructions,7,13135,0.0-7.0,FALSE,FALSE,TRUE,TRUE,"""event"",""trial"",""time""
""fullscreenenter"",""5"",""8871""
","
","
","""event"",""trial"",""time""
""fullscreenenter"",""5"",""8871""
","
",NA,NA,NA,NA,NA,NA,NA,NA,NA,NA,NA,NA,NA,NA,NA,NA,NA,NA,NA,NA,NA,NA,sub102
d3-instructions,8,13905,0.0-8.0,FALSE,FALSE,TRUE,TRUE,"""event"",""trial"",""time""
""fullscreenenter"",""5"",""8871""
","
","
","""event"",""trial"",""time""
""fullscreenenter"",""5"",""8871""
","
",NA,NA,NA,NA,NA,NA,NA,NA,NA,NA,NA,NA,NA,NA,NA,NA,NA,NA,NA,NA,NA,NA,sub102
d3-instructions,9,16165,0.0-9.0,FALSE,FALSE,TRUE,TRUE,"""event"",""trial"",""time""
""fullscreenenter"",""5"",""8871""
","
","
","""event"",""trial"",""time""
""fullscreenenter"",""5"",""8871""
","
",NA,NA,NA,NA,NA,NA,NA,NA,NA,NA,NA,NA,NA,NA,NA,NA,NA,NA,NA,NA,NA,NA,sub102
d3-instructions,10,19585,0.0-10.0,FALSE,FALSE,TRUE,TRUE,"""event"",""trial"",""time""
""fullscreenenter"",""5"",""8871""
","
","
","""event"",""trial"",""time""
""fullscreenenter"",""5"",""8871""
","
",NA,NA,NA,NA,NA,NA,NA,NA,NA,NA,NA,NA,NA,NA,NA,NA,NA,NA,NA,NA,NA,NA,sub102
d3-animate-choice,11,23848,0.0-11.0,FALSE,FALSE,TRUE,TRUE,"""event"",""trial"",""time""
""fullscreenenter"",""5"",""8871""
","
","
","""event"",""trial"",""time""
""fullscreenenter"",""5"",""8871""
","
",1014.9650000967085,NA,32,NA,NA,3000,1,"2245.060000102967,2464.9800000479445,2594.9700000928715,2784.9750000750646,3064.920000033453,3284.9799999967217,3515.060000005178,3754.9850000068545,3934.970000060275,4155.00000002794",4948494848484848e4,images/tutgreenplanet.jpg,images/tutalien1,images/tutalien2,null,images/tutalien2,NA,NA,practice,null,NA,NA,NA,NA,sub102
d3-animate-choice,12,25987,0.0-12.0,FALSE,FALSE,TRUE,TRUE,"""event"",""trial"",""time""
""fullscreenenter"",""5"",""8871""
","
","
","""event"",""trial"",""time""
""fullscreenenter"",""5"",""8871""
","
",133.99999996181577,NA,48,NA,NA,3000,1,"344.14999990258366,543.9100000075996,773.6449999501929,1183.8849999476224,1423.9449999295175,1593.9249999355525,1783.8299999712035,2023.8849999150261",4948484848494848,images/tutgreenplanet.jpg,images/tutalien1,images/tutalien2,null,images/tutalien1,NA,NA,practice,null,NA,NA,NA,NA,sub102
d3-animate-choice,13,28038,0.0-13.0,FALSE,FALSE,TRUE,TRUE,"""event"",""trial"",""time""
""fullscreenenter"",""5"",""8871""
","
","
","""event"",""trial"",""time""
""fullscreenenter"",""5"",""8871""
","
",44.03500002808869,NA,48,NA,NA,3000,1,"274.36499996110797,454.5249999500811,744.4299999624491,954.4649999588728,1254.549999954179,1504.674999974668,1944.6699999971315",49484848494848,images/tutgreenplanet.jpg,images/tutalien1,images/tutalien2,null,images/tutalien1,NA,NA,practice,null,NA,NA,NA,NA,sub102
d3-animate-choice,14,30224,0.0-14.0,FALSE,FALSE,TRUE,TRUE,"""event"",""trial"",""time""
""fullscreenenter"",""5"",""8871""
","
","
","""event"",""trial"",""time""
""fullscreenenter"",""5"",""8871""
","
",173.3399999793619,NA,49,NA,NA,3000,1,"363.32499992568046,563.3600000292063,773.3999999472871,973.3449999475852,1174.0849999478087,1323.369999998249,1533.3600000012666,1763.4499999694526,1973.134999978356",484848484849484800,images/tutgreenplanet.jpg,images/tutalien1,images/tutalien2,null,images/tutalien2,NA,NA,practice,null,NA,NA,NA,NA,sub102
d3-instructions,15,53295,0.0-15.0,FALSE,FALSE,TRUE,TRUE,"""event"",""trial"",""time""
""fullscreenenter"",""5"",""8871""
","
","
","""event"",""trial"",""time""
""fullscreenenter"",""5"",""8871""
","
",NA,NA,NA,NA,NA,NA,NA,NA,NA,NA,NA,NA,NA,NA,NA,NA,NA,NA,NA,NA,NA,NA,sub102
d3-instructions,16,57095,0.0-16.0,FALSE,FALSE,TRUE,TRUE,"""event"",""trial"",""time""
""fullscreenenter"",""5"",""8871""
","
","
","""event"",""trial"",""time""
""fullscreenenter"",""5"",""8871""
","
",NA,NA,NA,NA,NA,NA,NA,NA,NA,NA,NA,NA,NA,NA,NA,NA,NA,NA,NA,NA,NA,NA,sub102
d3-instructions,17,58525,0.0-17.0,FALSE,FALSE,TRUE,TRUE,"""event"",""trial"",""time""
""fullscreenenter"",""5"",""8871""
","
","
","""event"",""trial"",""time""
""fullscreenenter"",""5"",""8871""
","
",NA,NA,NA,NA,NA,NA,NA,NA,NA,NA,NA,NA,NA,NA,NA,NA,NA,NA,NA,NA,NA,NA,sub102
d3-instructions,18,59645,0.0-18.0,FALSE,FALSE,TRUE,TRUE,"""event"",""trial"",""time""
""fullscreenenter"",""5"",""8871""
","
","
","""event"",""trial"",""time""
""fullscreenenter"",""5"",""8871""
","
",NA,NA,NA,NA,NA,NA,NA,NA,NA,NA,NA,NA,NA,NA,NA,NA,NA,NA,NA,NA,NA,NA,sub102
d3-instructions,19,63774,0.0-19.0,FALSE,FALSE,TRUE,TRUE,"""event"",""trial"",""time""
""fullscreenenter"",""5"",""8871""
","
","
","""event"",""trial"",""time""
""fullscreenenter"",""5"",""8871""
","
",NA,NA,NA,NA,NA,NA,NA,NA,NA,NA,NA,NA,NA,NA,NA,NA,NA,NA,NA,NA,NA,NA,sub102
d3-animate-choice,20,70820,0.0-20.0,FALSE,FALSE,TRUE,TRUE,"""event"",""trial"",""time""
""fullscreenenter"",""5"",""8871""
","
","
","""event"",""trial"",""time""
""fullscreenenter"",""5"",""8871""
","
",3755.7200000155717,NA,32,NA,NA,3000,1,"5035.759999998845,5037.394999992102,5285.655000014231,5565.39999996312,5855.725000030361,6175.8750000735745,6395.729999989271,6665.724999969825,6925.805000006221",495049494949494900,images/tutyellowplanet.jpg,null,images/tutalien3,null,images/tutalien3,images/t.png,NA,practice,null,NA,NA,NA,NA,sub102
d3-animate-choice,21,72981,0.0-21.0,FALSE,FALSE,TRUE,TRUE,"""event"",""trial"",""time""
""fullscreenenter"",""5"",""8871""
","
","
","""event"",""trial"",""time""
""fullscreenenter"",""5"",""8871""
","
",150.55499994195998,NA,49,NA,NA,3000,1,"380.5949999950826,590.654999949038,860.2949999039993,1080.5699999909848,1300.6749999476597,1530.380000011064,1790.5249999603257,2020.5699999351054",4949494949494949,images/tutyellowplanet.jpg,null,images/tutalien3,null,images/tutalien3,images/t.png,NA,practice,null,NA,NA,NA,NA,sub102
d3-animate-choice,22,75092,0.0-22.0,FALSE,FALSE,TRUE,TRUE,"""event"",""trial"",""time""
""fullscreenenter"",""5"",""8871""
","
","
","""event"",""trial"",""time""
""fullscreenenter"",""5"",""8871""
","
",99.55499996431172,NA,49,NA,NA,3000,1,"320.02499990630895,530.1549999276176,760.0499999243766,990.734999999404,1219.8249999200925,1440.059999935329,1650.0399999786168,1869.7349999565631,2079.884999897331",494949494949494900,images/tutyellowplanet.jpg,null,images/tutalien3,null,images/tutalien3,images/t.png,NA,practice,null,NA,NA,NA,NA,sub102
d3-animate-choice,23,77292,0.0-23.0,FALSE,FALSE,TRUE,TRUE,"""event"",""trial"",""time""
""fullscreenenter"",""5"",""8871""
","
","
","""event"",""trial"",""time""
""fullscreenenter"",""5"",""8871""
","
",188.82000003941357,NA,49,NA,NA,3000,1,"388.61999998334795,608.8849999941885,838.4050000458956,1068.775000050664,1278.8350000046194,1508.7700000731274,1739.2750000581145,1968.5199999948964",4949494949494949,images/tutyellowplanet.jpg,null,images/tutalien3,null,images/tutalien3,images/nothing.png,NA,practice,null,NA,NA,NA,NA,sub102
d3-animate-choice,24,79297,0.0-24.0,FALSE,FALSE,TRUE,TRUE,"""event"",""trial"",""time""
""fullscreenenter"",""5"",""8871""
","
","
","""event"",""trial"",""time""
""fullscreenenter"",""5"",""8871""
","
",0.7100000511854887,NA,49,NA,NA,3000,1,"238.7200000230223,458.67000008001924,718.7250000424683,938.1399999838322,1188.3099999977276,1408.5000000195578,1628.7400000728667,1848.6800000537187",4949494949494949,images/tutyellowplanet.jpg,null,images/tutalien3,null,images/tutalien3,images/t.png,NA,practice,null,NA,NA,NA,NA,sub102
d3-animate-choice,25,81390,0.0-25.0,FALSE,FALSE,TRUE,TRUE,"""event"",""trial"",""time""
""fullscreenenter"",""5"",""8871""
","
","
","""event"",""trial"",""time""
""fullscreenenter"",""5"",""8871""
","
",83.65499996580184,NA,49,NA,NA,3000,1,"283.18999998737127,493.6349999625236,703.2849999377504,923.7399999983609,1133.724999963306,1363.6649999534711,1823.6249999608845,2073.9700000267476",4949494949494949,images/tutyellowplanet.jpg,null,images/tutalien3,null,images/tutalien3,images/t.png,NA,practice,null,NA,NA,NA,NA,sub102
d3-animate-choice,26,83651,0.0-26.0,FALSE,FALSE,TRUE,TRUE,"""event"",""trial"",""time""
""fullscreenenter"",""5"",""8871""
","
","
","""event"",""trial"",""time""
""fullscreenenter"",""5"",""8871""
","
",251.06999999843538,NA,49,NA,NA,3000,1,"451.1749999364838,671.0099999327213,891.0249999025837,1120.9699999308214,1351.9499999238178,1571.419999934733,1811.0399999422953,2050.93999998644",4949494949494949,images/tutyellowplanet.jpg,null,images/tutalien3,null,images/tutalien3,images/t.png,NA,practice,null,NA,NA,NA,NA,sub102
d3-animate-choice,27,85703,0.0-27.0,FALSE,FALSE,TRUE,TRUE,"""event"",""trial"",""time""
""fullscreenenter"",""5"",""8871""
","
","
","""event"",""trial"",""time""
""fullscreenenter"",""5"",""8871""
","
",38.954999996349216,NA,49,NA,NA,3000,1,"279.1150000412017,530.0050000660121,779.0749999694526,1119.120000046678,1479.3449999997392,1768.9600000157952,2039.10499997437",49494949494949,images/tutyellowplanet.jpg,null,images/tutalien3,null,images/tutalien3,images/t.png,NA,practice,null,NA,NA,NA,NA,sub102
d3-animate-choice,28,87972,0.0-28.0,FALSE,FALSE,TRUE,TRUE,"""event"",""trial"",""time""
""fullscreenenter"",""5"",""8871""
","
","
","""event"",""trial"",""time""
""fullscreenenter"",""5"",""8871""
","
",256.8300000857562,NA,49,NA,NA,3000,1,"517.3950000898913,768.6000000685453,998.0850000865757,1227.3600000189617,1487.2250000480562,1758.2600000314415,1997.3750000353903",49494949494949,images/tutyellowplanet.jpg,null,images/tutalien3,null,images/tutalien3,images/nothing.png,NA,practice,null,NA,NA,NA,NA,sub102
d3-animate-choice,29,89992,0.0-29.0,FALSE,FALSE,TRUE,TRUE,"""event"",""trial"",""time""
""fullscreenenter"",""5"",""8871""
","
","
","""event"",""trial"",""time""
""fullscreenenter"",""5"",""8871""
","
",8.890000055544078,NA,49,NA,NA,3000,1,"258.7000000057742,498.76500002574176,758.9150000130758,1018.735000048764,1248.74000006821,1518.500000005588,1768.6550000216812",49494949494949,images/tutyellowplanet.jpg,null,images/tutalien3,null,images/tutalien3,images/t.png,NA,practice,null,NA,NA,NA,NA,sub102
d3-instructions,30,103364,0.0-30.0,FALSE,FALSE,TRUE,TRUE,"""event"",""trial"",""time""
""fullscreenenter"",""5"",""8871""
","
","
","""event"",""trial"",""time""
""fullscreenenter"",""5"",""8871""
","
",NA,NA,NA,NA,NA,NA,NA,NA,NA,NA,NA,NA,NA,NA,NA,NA,NA,NA,NA,NA,NA,NA,sub102
d3-instructions,31,106244,0.0-31.0,FALSE,FALSE,TRUE,TRUE,"""event"",""trial"",""time""
""fullscreenenter"",""5"",""8871""
","
","
","""event"",""trial"",""time""
""fullscreenenter"",""5"",""8871""
","
",NA,NA,NA,NA,NA,NA,NA,NA,NA,NA,NA,NA,NA,NA,NA,NA,NA,NA,NA,NA,NA,NA,sub102
d3-instructions,32,110694,0.0-32.0,FALSE,FALSE,TRUE,TRUE,"""event"",""trial"",""time""
""fullscreenenter"",""5"",""8871""
","
","
","""event"",""trial"",""time""
""fullscreenenter"",""5"",""8871""
","
",NA,NA,NA,NA,NA,NA,NA,NA,NA,NA,NA,NA,NA,NA,NA,NA,NA,NA,NA,NA,NA,NA,sub102
d3-instructions,33,114064,0.0-33.0,FALSE,FALSE,TRUE,TRUE,"""event"",""trial"",""time""
""fullscreenenter"",""5"",""8871""
","
","
","""event"",""trial"",""time""
""fullscreenenter"",""5"",""8871""
","
",NA,NA,NA,NA,NA,NA,NA,NA,NA,NA,NA,NA,NA,NA,NA,NA,NA,NA,NA,NA,NA,NA,sub102
d3-animate-choice,34,117016,0.0-34.0,FALSE,FALSE,TRUE,TRUE,"""event"",""trial"",""time""
""fullscreenenter"",""5"",""8871""
","
","
","""event"",""trial"",""time""
""fullscreenenter"",""5"",""8871""
","
",947.1749999793246,NA,49,NA,NA,3000,1,"1237.169999978505,2087.139999959618,2397.194999968633,2777.490000007674",48484848,images/tutgreenplanet.jpg,images/tutalien1,images/tutalien2,null,images/tutalien2,images/t.png,NA,practice,null,NA,NA,NA,NA,sub102
d3-animate-choice,35,119356,0.0-35.0,FALSE,FALSE,TRUE,TRUE,"""event"",""trial"",""time""
""fullscreenenter"",""5"",""8871""
","
","
","""event"",""trial"",""time""
""fullscreenenter"",""5"",""8871""
","
",325.6200000178069,NA,49,NA,NA,3000,1,"1744.8200000217184,2294.0050000324845",4949,images/tutgreenplanet.jpg,images/tutalien1,images/tutalien2,null,images/tutalien2,images/t.png,NA,practice,null,NA,NA,NA,NA,sub102
d3-animate-choice,36,121686,0.0-36.0,FALSE,FALSE,TRUE,TRUE,"""event"",""trial"",""time""
""fullscreenenter"",""5"",""8871""
","
","
","""event"",""trial"",""time""
""fullscreenenter"",""5"",""8871""
","
",324.5650000171736,NA,49,NA,NA,3000,1,NA,NA,images/tutgreenplanet.jpg,images/tutalien1,images/tutalien2,null,images/tutalien2,images/t.png,NA,practice,null,NA,NA,NA,NA,sub102
d3-animate-choice,37,126242,0.0-37.0,FALSE,FALSE,TRUE,TRUE,"""event"",""trial"",""time""
""fullscreenenter"",""5"",""8871""
","
","
","""event"",""trial"",""time""
""fullscreenenter"",""5"",""8871""
","
",2545.049999956973,NA,49,NA,NA,3000,1,4024.129999917932,49,images/tutgreenplanet.jpg,images/tutalien1,images/tutalien2,null,images/tutalien2,images/t.png,NA,practice,null,NA,NA,NA,NA,sub102
d3-animate-choice,38,128287,0.0-38.0,FALSE,FALSE,TRUE,TRUE,"""event"",""trial"",""time""
""fullscreenenter"",""5"",""8871""
","
","
","""event"",""trial"",""time""
""fullscreenenter"",""5"",""8871""
","
",39.90999993402511,NA,49,NA,NA,3000,1,"1560.094999964349,1968.9999999245629",4949,images/tutgreenplanet.jpg,images/tutalien1,images/tutalien2,null,images/tutalien2,images/t.png,NA,practice,null,NA,NA,NA,NA,sub102
d3-animate-choice,39,130516,0.0-39.0,FALSE,FALSE,TRUE,TRUE,"""event"",""trial"",""time""
""fullscreenenter"",""5"",""8871""
","
","
","""event"",""trial"",""time""
""fullscreenenter"",""5"",""8871""
","
",214.7300000069663,NA,49,NA,NA,3000,1,1595.0100000482053,49,images/tutgreenplanet.jpg,images/tutalien1,images/tutalien2,null,images/tutalien2,images/t.png,NA,practice,null,NA,NA,NA,NA,sub102
d3-animate-choice,40,132647,0.0-40.0,FALSE,FALSE,TRUE,TRUE,"""event"",""trial"",""time""
""fullscreenenter"",""5"",""8871""
","
","
","""event"",""trial"",""time""
""fullscreenenter"",""5"",""8871""
","
",114.83999993652105,NA,49,NA,NA,3000,1,"1395.0349999358878,1714.864999987185,2104.884999920614",494949,images/tutgreenplanet.jpg,images/tutalien1,images/tutalien2,null,images/tutalien2,images/t.png,NA,practice,null,NA,NA,NA,NA,sub102
d3-animate-choice,41,134976,0.0-41.0,FALSE,FALSE,TRUE,TRUE,"""event"",""trial"",""time""
""fullscreenenter"",""5"",""8871""
","
","
","""event"",""trial"",""time""
""fullscreenenter"",""5"",""8871""
","
",325.02999994903803,NA,49,NA,NA,3000,1,"694.9950000271201,1805.9949999442324",4949,images/tutgreenplanet.jpg,images/tutalien1,images/tutalien2,null,images/tutalien2,images/t.png,NA,practice,null,NA,NA,NA,NA,sub102
d3-animate-choice,42,137017,0.0-42.0,FALSE,FALSE,TRUE,TRUE,"""event"",""trial"",""time""
""fullscreenenter"",""5"",""8871""
","
","
","""event"",""trial"",""time""
""fullscreenenter"",""5"",""8871""
","
",35.60999990440905,NA,48,NA,NA,3000,1,NA,NA,images/tutgreenplanet.jpg,images/tutalien1,images/tutalien2,null,images/tutalien1,images/nothing.png,NA,practice,null,NA,NA,NA,NA,sub102
d3-animate-choice,43,139272,0.0-43.0,FALSE,FALSE,TRUE,TRUE,"""event"",""trial"",""time""
""fullscreenenter"",""5"",""8871""
","
","
","""event"",""trial"",""time""
""fullscreenenter"",""5"",""8871""
","
",245.37500005681068,NA,49,NA,NA,3000,1,NA,NA,images/tutgreenplanet.jpg,images/tutalien1,images/tutalien2,null,images/tutalien2,images/t.png,NA,practice,null,NA,NA,NA,NA,sub102
d3-instructions,44,141405,0.0-44.0,FALSE,FALSE,TRUE,TRUE,"""event"",""trial"",""time""
""fullscreenenter"",""5"",""8871""
","
","
","""event"",""trial"",""time""
""fullscreenenter"",""5"",""8871""
","
",NA,NA,NA,NA,NA,NA,NA,NA,NA,NA,NA,NA,NA,NA,NA,NA,NA,NA,NA,NA,NA,NA,sub102
d3-instructions,45,143834,0.0-45.0,FALSE,FALSE,TRUE,TRUE,"""event"",""trial"",""time""
""fullscreenenter"",""5"",""8871""
","
","
","""event"",""trial"",""time""
""fullscreenenter"",""5"",""8871""
","
",NA,NA,NA,NA,NA,NA,NA,NA,NA,NA,NA,NA,NA,NA,NA,NA,NA,NA,NA,NA,NA,NA,sub102
d3-instructions,46,145795,0.0-46.0,FALSE,FALSE,TRUE,TRUE,"""event"",""trial"",""time""
""fullscreenenter"",""5"",""8871""
","
","
","""event"",""trial"",""time""
""fullscreenenter"",""5"",""8871""
","
",NA,NA,NA,NA,NA,NA,NA,NA,NA,NA,NA,NA,NA,NA,NA,NA,NA,NA,NA,NA,NA,NA,sub102
d3-instructions,47,147385,0.0-47.0,FALSE,FALSE,TRUE,TRUE,"""event"",""trial"",""time""
""fullscreenenter"",""5"",""8871""
","
","
","""event"",""trial"",""time""
""fullscreenenter"",""5"",""8871""
","
",NA,NA,NA,NA,NA,NA,NA,NA,NA,NA,NA,NA,NA,NA,NA,NA,NA,NA,NA,NA,NA,NA,sub102
d3-instructions,48,148695,0.0-48.0,FALSE,FALSE,TRUE,TRUE,"""event"",""trial"",""time""
""fullscreenenter"",""5"",""8871""
","
","
","""event"",""trial"",""time""
""fullscreenenter"",""5"",""8871""
","
",NA,NA,NA,NA,NA,NA,NA,NA,NA,NA,NA,NA,NA,NA,NA,NA,NA,NA,NA,NA,NA,NA,sub102
d3-instructions,49,149585,0.0-49.0,FALSE,FALSE,TRUE,TRUE,"""event"",""trial"",""time""
""fullscreenenter"",""5"",""8871""
","
","
","""event"",""trial"",""time""
""fullscreenenter"",""5"",""8871""
","
",NA,NA,NA,NA,NA,NA,NA,NA,NA,NA,NA,NA,NA,NA,NA,NA,NA,NA,NA,NA,NA,NA,sub102
d3-instructions,50,150386,0.0-50.0,FALSE,FALSE,TRUE,TRUE,"""event"",""trial"",""time""
""fullscreenenter"",""5"",""8871""
","
","
","""event"",""trial"",""time""
""fullscreenenter"",""5"",""8871""
","
",NA,NA,NA,NA,NA,NA,NA,NA,NA,NA,NA,NA,NA,NA,NA,NA,NA,NA,NA,NA,NA,NA,sub102
d3-instructions,51,151086,0.0-51.0,FALSE,FALSE,TRUE,TRUE,"""event"",""trial"",""time""
""fullscreenenter"",""5"",""8871""
","
","
","""event"",""trial"",""time""
""fullscreenenter"",""5"",""8871""
","
",NA,NA,NA,NA,NA,NA,NA,NA,NA,NA,NA,NA,NA,NA,NA,NA,NA,NA,NA,NA,NA,NA,sub102
d3-instructions,52,152955,0.0-52.0,FALSE,FALSE,TRUE,TRUE,"""event"",""trial"",""time""
""fullscreenenter"",""5"",""8871""
","
","
","""event"",""trial"",""time""
""fullscreenenter"",""5"",""8871""
","
",NA,NA,NA,NA,NA,NA,NA,NA,NA,NA,NA,NA,NA,NA,NA,NA,NA,NA,NA,NA,NA,NA,sub102
d3-instructions,53,153805,0.0-53.0,FALSE,FALSE,TRUE,TRUE,"""event"",""trial"",""time""
""fullscreenenter"",""5"",""8871""
","
","
","""event"",""trial"",""time""
""fullscreenenter"",""5"",""8871""
","
",NA,NA,NA,NA,NA,NA,NA,NA,NA,NA,NA,NA,NA,NA,NA,NA,NA,NA,NA,NA,NA,NA,sub102
d3-instructions,54,156805,0.0-54.0,FALSE,FALSE,TRUE,TRUE,"""event"",""trial"",""time""
""fullscreenenter"",""5"",""8871""
","
","
","""event"",""trial"",""time""
""fullscreenenter"",""5"",""8871""
","
",NA,NA,NA,NA,NA,NA,NA,NA,NA,NA,NA,NA,NA,NA,NA,NA,NA,NA,NA,NA,NA,NA,sub102
d3-instructions,55,157825,0.0-55.0,FALSE,FALSE,TRUE,TRUE,"""event"",""trial"",""time""
""fullscreenenter"",""5"",""8871""
","
","
","""event"",""trial"",""time""
""fullscreenenter"",""5"",""8871""
","
",NA,NA,NA,NA,NA,NA,NA,NA,NA,NA,NA,NA,NA,NA,NA,NA,NA,NA,NA,NA,NA,NA,sub102
d3-instructions,56,160145,0.0-56.0,FALSE,FALSE,TRUE,TRUE,"""event"",""trial"",""time""
""fullscreenenter"",""5"",""8871""
","
","
","""event"",""trial"",""time""
""fullscreenenter"",""5"",""8871""
","
",NA,NA,NA,NA,NA,NA,NA,NA,NA,NA,NA,NA,NA,NA,NA,NA,NA,NA,NA,NA,NA,NA,sub102
d3-instructions,57,161905,0.0-57.0,FALSE,FALSE,TRUE,TRUE,"""event"",""trial"",""time""
""fullscreenenter"",""5"",""8871""
","
","
","""event"",""trial"",""time""
""fullscreenenter"",""5"",""8871""
","
",NA,NA,NA,NA,NA,NA,NA,NA,NA,NA,NA,NA,NA,NA,NA,NA,NA,NA,NA,NA,NA,NA,sub102
d3-instructions,58,162905,0.0-58.0,FALSE,FALSE,TRUE,TRUE,"""event"",""trial"",""time""
""fullscreenenter"",""5"",""8871""
","
","
","""event"",""trial"",""time""
""fullscreenenter"",""5"",""8871""
","
",NA,NA,NA,NA,NA,NA,NA,NA,NA,NA,NA,NA,NA,NA,NA,NA,NA,NA,NA,NA,NA,NA,sub102
d3-instructions,59,168715,0.0-59.0,FALSE,FALSE,TRUE,TRUE,"""event"",""trial"",""time""
""fullscreenenter"",""5"",""8871""
","
","
","""event"",""trial"",""time""
""fullscreenenter"",""5"",""8871""
","
",NA,NA,NA,NA,NA,NA,NA,NA,NA,NA,NA,NA,NA,NA,NA,NA,NA,NA,NA,NA,NA,NA,sub102
d3-instructions,60,170726,0.0-60.0,FALSE,FALSE,TRUE,TRUE,"""event"",""trial"",""time""
""fullscreenenter"",""5"",""8871""
","
","
","""event"",""trial"",""time""
""fullscreenenter"",""5"",""8871""
","
",NA,NA,NA,NA,NA,NA,NA,NA,NA,NA,NA,NA,NA,NA,NA,NA,NA,NA,NA,NA,NA,NA,sub102
d3-animate-choice,61,173800,0.0-61.0-0.0,FALSE,FALSE,TRUE,TRUE,"""event"",""trial"",""time""
""fullscreenenter"",""5"",""8871""
","
","
","""event"",""trial"",""time""
""fullscreenenter"",""5"",""8871""
","
",1064.585000043735,NA,48,NA,NA,3000,1,NA,NA,images/earth.jpg,images/tutrocket2,images/tutrocket1,null,images/tutrocket2,NA,1,practice,null,2,NA,NA,NA,sub102
d3-animate-choice,62,176560,0.0-61.0-1.0,FALSE,FALSE,TRUE,TRUE,"""event"",""trial"",""time""
""fullscreenenter"",""5"",""8871""
","
","
","""event"",""trial"",""time""
""fullscreenenter"",""5"",""8871""
","
",749.2499999934807,NA,49,NA,NA,3000,1,NA,NA,images/tutgreenplanet.jpg,images/tutalien2,images/tutalien1,images/tutrocket2,images/tutalien1,images/t.png,2,practice,true,1,common,1,2020-06-23T17:22:57Z,sub102
two-step-fixation,63,177573,0.0-61.0-2.0,FALSE,FALSE,TRUE,TRUE,"""event"",""trial"",""time""
""fullscreenenter"",""5"",""8871""
","
","
","""event"",""trial"",""time""
""fullscreenenter"",""5"",""8871""
","
",NA,images/earth.jpg,NA,NA,NA,NA,NA,NA,NA,NA,NA,NA,NA,NA,NA,fixation,NA,NA,NA,NA,NA,NA,sub102
d3-animate-choice,64,180484,0.0-61.0-0.1,FALSE,FALSE,TRUE,TRUE,"""event"",""trial"",""time""
""fullscreenenter"",""5"",""8871""
","
","
","""event"",""trial"",""time""
""fullscreenenter"",""5"",""8871""
","
",899.3049999698997,NA,49,NA,NA,3000,1,NA,NA,images/earth.jpg,images/tutrocket2,images/tutrocket1,null,images/tutrocket1,NA,1,practice,null,1,NA,NA,NA,sub102
d3-animate-choice,65,184128,0.0-61.0-1.1,FALSE,FALSE,TRUE,TRUE,"""event"",""trial"",""time""
""fullscreenenter"",""5"",""8871""
","
","
","""event"",""trial"",""time""
""fullscreenenter"",""5"",""8871""
","
",1635.855000000447,NA,48,NA,NA,3000,1,NA,NA,images/tutgreenplanet.jpg,images/tutalien2,images/tutalien1,images/tutrocket1,images/tutalien2,images/nothing.png,2,practice,false,2,rare,0,2020-06-23T17:23:04Z,sub102
two-step-fixation,66,185137,0.0-61.0-2.1,FALSE,FALSE,TRUE,TRUE,"""event"",""trial"",""time""
""fullscreenenter"",""5"",""8871""
","
","
","""event"",""trial"",""time""
""fullscreenenter"",""5"",""8871""
","
",NA,images/earth.jpg,NA,NA,NA,NA,NA,NA,NA,NA,NA,NA,NA,NA,NA,fixation,NA,NA,NA,NA,NA,NA,sub102
d3-animate-choice,67,187457,0.0-61.0-0.2,FALSE,FALSE,TRUE,TRUE,"""event"",""trial"",""time""
""fullscreenenter"",""5"",""8871""
","
","
","""event"",""trial"",""time""
""fullscreenenter"",""5"",""8871""
","
",304.8699999926612,NA,48,NA,NA,3000,1,NA,NA,images/earth.jpg,images/tutrocket2,images/tutrocket1,null,images/tutrocket2,NA,1,practice,null,2,NA,NA,NA,sub102
d3-animate-choice,68,189888,0.0-61.0-1.2,FALSE,FALSE,TRUE,TRUE,"""event"",""trial"",""time""
""fullscreenenter"",""5"",""8871""
","
","
","""event"",""trial"",""time""
""fullscreenenter"",""5"",""8871""
","
",414.67000008560717,NA,49,NA,NA,3000,1,NA,NA,images/tutgreenplanet.jpg,images/tutalien2,images/tutalien1,images/tutrocket2,images/tutalien1,images/nothing.png,2,practice,true,1,common,0,2020-06-23T17:23:10Z,sub102
two-step-fixation,69,190898,0.0-61.0-2.2,FALSE,FALSE,TRUE,TRUE,"""event"",""trial"",""time""
""fullscreenenter"",""5"",""8871""
","
","
","""event"",""trial"",""time""
""fullscreenenter"",""5"",""8871""
","
",NA,images/earth.jpg,NA,NA,NA,NA,NA,NA,NA,NA,NA,NA,NA,NA,NA,fixation,NA,NA,NA,NA,NA,NA,sub102
d3-animate-choice,70,193336,0.0-61.0-0.3,FALSE,FALSE,TRUE,TRUE,"""event"",""trial"",""time""
""fullscreenenter"",""5"",""8871""
","
","
","""event"",""trial"",""time""
""fullscreenenter"",""5"",""8871""
","
",424.3100000312552,NA,48,NA,NA,3000,1,NA,NA,images/earth.jpg,images/tutrocket2,images/tutrocket1,null,images/tutrocket2,NA,1,practice,null,2,NA,NA,NA,sub102
d3-animate-choice,71,195709,0.0-61.0-1.3,FALSE,FALSE,TRUE,TRUE,"""event"",""trial"",""time""
""fullscreenenter"",""5"",""8871""
","
","
","""event"",""trial"",""time""
""fullscreenenter"",""5"",""8871""
","
",356.7200000397861,NA,49,NA,NA,3000,1,NA,NA,images/tutyellowplanet.jpg,images/tutalien4,images/tutalien3,images/tutrocket2,images/tutalien3,images/nothing.png,2,practice,false,1,rare,0,2020-06-23T17:23:16Z,sub102
two-step-fixation,72,196716,0.0-61.0-2.3,FALSE,FALSE,TRUE,TRUE,"""event"",""trial"",""time""
""fullscreenenter"",""5"",""8871""
","
","
","""event"",""trial"",""time""
""fullscreenenter"",""5"",""8871""
","
",NA,images/earth.jpg,NA,NA,NA,NA,NA,NA,NA,NA,NA,NA,NA,NA,NA,fixation,NA,NA,NA,NA,NA,NA,sub102
d3-animate-choice,73,198984,0.0-61.0-0.4,FALSE,FALSE,TRUE,TRUE,"""event"",""trial"",""time""
""fullscreenenter"",""5"",""8871""
","
","
","""event"",""trial"",""time""
""fullscreenenter"",""5"",""8871""
","
",256.00000005215406,NA,49,NA,NA,3000,1,2185.924999997951,48,images/earth.jpg,images/tutrocket2,images/tutrocket1,null,images/tutrocket1,NA,1,practice,null,1,NA,NA,NA,sub102
d3-animate-choice,74,201644,0.0-61.0-1.4,FALSE,FALSE,TRUE,TRUE,"""event"",""trial"",""time""
""fullscreenenter"",""5"",""8871""
","
","
","""event"",""trial"",""time""
""fullscreenenter"",""5"",""8871""
","
",648.4749999362975,NA,48,NA,NA,3000,1,NA,NA,images/tutgreenplanet.jpg,images/tutalien2,images/tutalien1,images/tutrocket1,images/tutalien2,images/nothing.png,2,practice,false,2,rare,0,2020-06-23T17:23:22Z,sub102
two-step-fixation,75,202656,0.0-61.0-2.4,FALSE,FALSE,TRUE,TRUE,"""event"",""trial"",""time""
""fullscreenenter"",""5"",""8871""
","
","
","""event"",""trial"",""time""
""fullscreenenter"",""5"",""8871""
","
",NA,images/earth.jpg,NA,NA,NA,NA,NA,NA,NA,NA,NA,NA,NA,NA,NA,fixation,NA,NA,NA,NA,NA,NA,sub102
d3-animate-choice,76,204968,0.0-61.0-0.5,FALSE,FALSE,TRUE,TRUE,"""event"",""trial"",""time""
""fullscreenenter"",""5"",""8871""
","
","
","""event"",""trial"",""time""
""fullscreenenter"",""5"",""8871""
","
",305.8949999976903,NA,48,NA,NA,3000,1,"805.9399999910966,1025.789999985136,1546.3899999158457,1985.744999954477",48484849,images/earth.jpg,images/tutrocket2,images/tutrocket1,null,images/tutrocket2,NA,1,practice,null,2,NA,NA,NA,sub102
d3-animate-choice,77,207521,0.0-61.0-1.5,FALSE,FALSE,TRUE,TRUE,"""event"",""trial"",""time""
""fullscreenenter"",""5"",""8871""
","
","
","""event"",""trial"",""time""
""fullscreenenter"",""5"",""8871""
","
",544.3250000244007,NA,48,NA,NA,3000,1,2364.3750000046566,49,images/tutgreenplanet.jpg,images/tutalien2,images/tutalien1,images/tutrocket2,images/tutalien2,images/nothing.png,2,practice,true,2,common,0,2020-06-23T17:23:28Z,sub102
two-step-fixation,78,208533,0.0-61.0-2.5,FALSE,FALSE,TRUE,TRUE,"""event"",""trial"",""time""
""fullscreenenter"",""5"",""8871""
","
","
","""event"",""trial"",""time""
""fullscreenenter"",""5"",""8871""
","
",NA,images/earth.jpg,NA,NA,NA,NA,NA,NA,NA,NA,NA,NA,NA,NA,NA,fixation,NA,NA,NA,NA,NA,NA,sub102
d3-animate-choice,79,210866,0.0-61.0-0.6,FALSE,FALSE,TRUE,TRUE,"""event"",""trial"",""time""
""fullscreenenter"",""5"",""8871""
","
","
","""event"",""trial"",""time""
""fullscreenenter"",""5"",""8871""
","
",318.39000002946705,NA,49,NA,NA,3000,1,"1628.4049999667332,2228.2699999632314",4848,images/earth.jpg,images/tutrocket2,images/tutrocket1,null,images/tutrocket1,NA,1,practice,null,1,NA,NA,NA,sub102
d3-animate-choice,80,213902,0.0-61.0-1.6,FALSE,FALSE,TRUE,TRUE,"""event"",""trial"",""time""
""fullscreenenter"",""5"",""8871""
","
","
","""event"",""trial"",""time""
""fullscreenenter"",""5"",""8871""
","
",1026.8250000663102,NA,48,NA,NA,3000,1,NA,NA,images/tutgreenplanet.jpg,images/tutalien2,images/tutalien1,images/tutrocket1,images/tutalien2,images/nothing.png,2,practice,false,2,rare,0,2020-06-23T17:23:34Z,sub102
two-step-fixation,81,214913,0.0-61.0-2.6,FALSE,FALSE,TRUE,TRUE,"""event"",""trial"",""time""
""fullscreenenter"",""5"",""8871""
","
","
","""event"",""trial"",""time""
""fullscreenenter"",""5"",""8871""
","
",NA,images/earth.jpg,NA,NA,NA,NA,NA,NA,NA,NA,NA,NA,NA,NA,NA,fixation,NA,NA,NA,NA,NA,NA,sub102
d3-animate-choice,82,217001,0.0-61.0-0.7,FALSE,FALSE,TRUE,TRUE,"""event"",""trial"",""time""
""fullscreenenter"",""5"",""8871""
","
","
","""event"",""trial"",""time""
""fullscreenenter"",""5"",""8871""
","
",79.59500001743436,NA,48,NA,NA,3000,1,NA,NA,images/earth.jpg,images/tutrocket2,images/tutrocket1,null,images/tutrocket2,NA,1,practice,null,2,NA,NA,NA,sub102
d3-animate-choice,83,219179,0.0-61.0-1.7,FALSE,FALSE,TRUE,TRUE,"""event"",""trial"",""time""
""fullscreenenter"",""5"",""8871""
","
","
","""event"",""trial"",""time""
""fullscreenenter"",""5"",""8871""
","
",171.55500000808388,NA,49,NA,NA,3000,1,NA,NA,images/tutgreenplanet.jpg,images/tutalien2,images/tutalien1,images/tutrocket2,images/tutalien1,images/nothing.png,2,practice,true,1,common,0,2020-06-23T17:23:40Z,sub102
two-step-fixation,84,220189,0.0-61.0-2.7,FALSE,FALSE,TRUE,TRUE,"""event"",""trial"",""time""
""fullscreenenter"",""5"",""8871""
","
","
","""event"",""trial"",""time""
""fullscreenenter"",""5"",""8871""
","
",NA,images/earth.jpg,NA,NA,NA,NA,NA,NA,NA,NA,NA,NA,NA,NA,NA,fixation,NA,NA,NA,NA,NA,NA,sub102
d3-animate-choice,85,222543,0.0-61.0-0.8,FALSE,FALSE,TRUE,TRUE,"""event"",""trial"",""time""
""fullscreenenter"",""5"",""8871""
","
","
","""event"",""trial"",""time""
""fullscreenenter"",""5"",""8871""
","
",343.46000000368804,NA,49,NA,NA,3000,1,NA,NA,images/earth.jpg,images/tutrocket2,images/tutrocket1,null,images/tutrocket1,NA,1,practice,null,1,NA,NA,NA,sub102
d3-animate-choice,86,224869,0.0-61.0-1.8,FALSE,FALSE,TRUE,TRUE,"""event"",""trial"",""time""
""fullscreenenter"",""5"",""8871""
","
","
","""event"",""trial"",""time""
""fullscreenenter"",""5"",""8871""
","
",320.06499997805804,NA,49,NA,NA,3000,1,NA,NA,images/tutyellowplanet.jpg,images/tutalien4,images/tutalien3,images/tutrocket1,images/tutalien3,images/nothing.png,2,practice,true,1,common,0,2020-06-23T17:23:45Z,sub102
two-step-fixation,87,225880,0.0-61.0-2.8,FALSE,FALSE,TRUE,TRUE,"""event"",""trial"",""time""
""fullscreenenter"",""5"",""8871""
","
","
","""event"",""trial"",""time""
""fullscreenenter"",""5"",""8871""
","
",NA,images/earth.jpg,NA,NA,NA,NA,NA,NA,NA,NA,NA,NA,NA,NA,NA,fixation,NA,NA,NA,NA,NA,NA,sub102
d3-animate-choice,88,229893,0.0-61.0-0.9,FALSE,FALSE,TRUE,TRUE,"""event"",""trial"",""time""
""fullscreenenter"",""5"",""8871""
","
","
","""event"",""trial"",""time""
""fullscreenenter"",""5"",""8871""
","
",3282.7500000130385,NA,49,NA,NA,3000,0,3992.9149999516085,189,images/earth.jpg,images/tutrocket2,images/tutrocket1,null,NA,NA,1,practice,null,1,NA,NA,NA,sub102
d3-animate-choice,89,230907,0.0-61.0-1.9,FALSE,FALSE,TRUE,TRUE,"""event"",""trial"",""time""
""fullscreenenter"",""5"",""8871""
","
","
","""event"",""trial"",""time""
""fullscreenenter"",""5"",""8871""
","
",null,NA,null,NA,NA,0,0,NA,NA,images/earth.jpg,images/tutrocket2,images/tutrocket1,null,NA,NA,2,practice,null,NA,NA,0,2020-06-23T17:23:51Z,sub102
two-step-fixation,90,231913,0.0-61.0-2.9,FALSE,FALSE,TRUE,TRUE,"""event"",""trial"",""time""
""fullscreenenter"",""5"",""8871""
","
","
","""event"",""trial"",""time""
""fullscreenenter"",""5"",""8871""
","
",NA,images/earth.jpg,NA,NA,NA,NA,NA,NA,NA,NA,NA,NA,NA,NA,NA,fixation,NA,NA,NA,NA,NA,NA,sub102
d3-animate-choice,91,235091,0.0-61.0-0.10,FALSE,FALSE,TRUE,TRUE,"""event"",""trial"",""time""
""fullscreenenter"",""5"",""8871""
","
","
","""event"",""trial"",""time""
""fullscreenenter"",""5"",""8871""
","
",1170.2650000806898,NA,48,NA,NA,3000,1,"2289.585000020452,2899.76000005845",5049,images/earth.jpg,images/tutrocket2,images/tutrocket1,null,images/tutrocket2,NA,1,practice,null,2,NA,NA,NA,sub102
d3-animate-choice,92,237481,0.0-61.0-1.10,FALSE,FALSE,TRUE,TRUE,"""event"",""trial"",""time""
""fullscreenenter"",""5"",""8871""
","
","
","""event"",""trial"",""time""
""fullscreenenter"",""5"",""8871""
","
",381.7400000989437,NA,49,NA,NA,3000,1,NA,NA,images/tutyellowplanet.jpg,images/tutalien4,images/tutalien3,images/tutrocket2,images/tutalien3,images/t.png,2,practice,false,1,rare,1,2020-06-23T17:23:58Z,sub102
two-step-fixation,93,238493,0.0-61.0-2.10,FALSE,FALSE,TRUE,TRUE,"""event"",""trial"",""time""
""fullscreenenter"",""5"",""8871""
","
","
","""event"",""trial"",""time""
""fullscreenenter"",""5"",""8871""
","
",NA,images/earth.jpg,NA,NA,NA,NA,NA,NA,NA,NA,NA,NA,NA,NA,NA,fixation,NA,NA,NA,NA,NA,NA,sub102
d3-animate-choice,94,240678,0.0-61.0-0.11,FALSE,FALSE,TRUE,TRUE,"""event"",""trial"",""time""
""fullscreenenter"",""5"",""8871""
","
","
","""event"",""trial"",""time""
""fullscreenenter"",""5"",""8871""
","
",179.3600000673905,NA,48,NA,NA,3000,1,NA,NA,images/earth.jpg,images/tutrocket2,images/tutrocket1,null,images/tutrocket2,NA,1,practice,null,2,NA,NA,NA,sub102
d3-animate-choice,95,243133,0.0-61.0-1.11,FALSE,FALSE,TRUE,TRUE,"""event"",""trial"",""time""
""fullscreenenter"",""5"",""8871""
","
","
","""event"",""trial"",""time""
""fullscreenenter"",""5"",""8871""
","
",453.77499994356185,NA,49,NA,NA,3000,1,NA,NA,images/tutgreenplanet.jpg,images/tutalien2,images/tutalien1,images/tutrocket2,images/tutalien1,images/nothing.png,2,practice,true,1,common,0,2020-06-23T17:24:03Z,sub102
two-step-fixation,96,244143,0.0-61.0-2.11,FALSE,FALSE,TRUE,TRUE,"""event"",""trial"",""time""
""fullscreenenter"",""5"",""8871""
","
","
","""event"",""trial"",""time""
""fullscreenenter"",""5"",""8871""
","
",NA,images/earth.jpg,NA,NA,NA,NA,NA,NA,NA,NA,NA,NA,NA,NA,NA,fixation,NA,NA,NA,NA,NA,NA,sub102
d3-animate-choice,97,246822,0.0-61.0-0.12,FALSE,FALSE,TRUE,TRUE,"""event"",""trial"",""time""
""fullscreenenter"",""5"",""8871""
","
","
","""event"",""trial"",""time""
""fullscreenenter"",""5"",""8871""
","
",672.7149999933317,NA,48,NA,NA,3000,1,NA,NA,images/earth.jpg,images/tutrocket2,images/tutrocket1,null,images/tutrocket2,NA,1,practice,null,2,NA,NA,NA,sub102
d3-animate-choice,98,249454,0.0-61.0-1.12,FALSE,FALSE,TRUE,TRUE,"""event"",""trial"",""time""
""fullscreenenter"",""5"",""8871""
","
","
","""event"",""trial"",""time""
""fullscreenenter"",""5"",""8871""
","
",623.9750001113862,NA,49,NA,NA,3000,1,2513.8750000623986,49,images/tutgreenplanet.jpg,images/tutalien2,images/tutalien1,images/tutrocket2,images/tutalien1,images/nothing.png,2,practice,true,1,common,0,2020-06-23T17:24:10Z,sub102
two-step-fixation,99,250463,0.0-61.0-2.12,FALSE,FALSE,TRUE,TRUE,"""event"",""trial"",""time""
""fullscreenenter"",""5"",""8871""
","
","
","""event"",""trial"",""time""
""fullscreenenter"",""5"",""8871""
","
",NA,images/earth.jpg,NA,NA,NA,NA,NA,NA,NA,NA,NA,NA,NA,NA,NA,fixation,NA,NA,NA,NA,NA,NA,sub102
d3-animate-choice,100,252669,0.0-61.0-0.13,FALSE,FALSE,TRUE,TRUE,"""event"",""trial"",""time""
""fullscreenenter"",""5"",""8871""
","
","
","""event"",""trial"",""time""
""fullscreenenter"",""5"",""8871""
","
",192.19000008888543,NA,48,NA,NA,3000,1,NA,NA,images/earth.jpg,images/tutrocket2,images/tutrocket1,null,images/tutrocket2,NA,1,practice,null,2,NA,NA,NA,sub102
d3-animate-choice,101,255015,0.0-61.0-1.13,FALSE,FALSE,TRUE,TRUE,"""event"",""trial"",""time""
""fullscreenenter"",""5"",""8871""
","
","
","""event"",""trial"",""time""
""fullscreenenter"",""5"",""8871""
","
",337.08999992813915,NA,48,NA,NA,3000,1,NA,NA,images/tutgreenplanet.jpg,images/tutalien2,images/tutalien1,images/tutrocket2,images/tutalien2,images/t.png,2,practice,true,2,common,1,2020-06-23T17:24:15Z,sub102
two-step-fixation,102,256028,0.0-61.0-2.13,FALSE,FALSE,TRUE,TRUE,"""event"",""trial"",""time""
""fullscreenenter"",""5"",""8871""
","
","
","""event"",""trial"",""time""
""fullscreenenter"",""5"",""8871""
","
",NA,images/earth.jpg,NA,NA,NA,NA,NA,NA,NA,NA,NA,NA,NA,NA,NA,fixation,NA,NA,NA,NA,NA,NA,sub102
d3-animate-choice,103,258305,0.0-61.0-0.14,FALSE,FALSE,TRUE,TRUE,"""event"",""trial"",""time""
""fullscreenenter"",""5"",""8871""
","
","
","""event"",""trial"",""time""
""fullscreenenter"",""5"",""8871""
","
",268.4749999316409,NA,48,NA,NA,3000,1,"1148.354999953881,1498.3449999708682,1689.3149999668822,1928.429999970831,1978.3649999881163,2178.429999970831",484948484948,images/earth.jpg,images/tutrocket2,images/tutrocket1,null,images/tutrocket2,NA,1,practice,null,2,NA,NA,NA,sub102
d3-animate-choice,104,260371,0.0-61.0-1.14,FALSE,FALSE,TRUE,TRUE,"""event"",""trial"",""time""
""fullscreenenter"",""5"",""8871""
","
","
","""event"",""trial"",""time""
""fullscreenenter"",""5"",""8871""
","
",60.69499999284744,NA,49,NA,NA,3000,1,"290.99999996833503,600.9949999861419,830.4500000085682,1111.144999973476,1321.1400000145659,1592.0100000221282,1711.0150000080466,1891.8050000211224",4848484948484948,images/tutgreenplanet.jpg,images/tutalien2,images/tutalien1,images/tutrocket2,images/tutalien1,images/nothing.png,2,practice,true,1,common,0,2020-06-23T17:24:21Z,sub102
two-step-fixation,105,261378,0.0-61.0-2.14,FALSE,FALSE,TRUE,TRUE,"""event"",""trial"",""time""
""fullscreenenter"",""5"",""8871""
","
","
","""event"",""trial"",""time""
""fullscreenenter"",""5"",""8871""
","
",NA,images/earth.jpg,NA,NA,NA,NA,NA,NA,NA,NA,NA,NA,NA,NA,NA,fixation,NA,NA,NA,NA,NA,NA,sub102
d3-animate-choice,106,263699,0.0-61.0-0.15,FALSE,FALSE,TRUE,TRUE,"""event"",""trial"",""time""
""fullscreenenter"",""5"",""8871""
","
","
","""event"",""trial"",""time""
""fullscreenenter"",""5"",""8871""
","
",308.1600000150502,NA,49,NA,NA,3000,1,"309.7600000910461,1848.1850000098348",4848,images/earth.jpg,images/tutrocket2,images/tutrocket1,null,images/tutrocket1,NA,1,practice,null,1,NA,NA,NA,sub102
d3-animate-choice,107,265745,0.0-61.0-1.15,FALSE,FALSE,TRUE,TRUE,"""event"",""trial"",""time""
""fullscreenenter"",""5"",""8871""
","
","
","""event"",""trial"",""time""
""fullscreenenter"",""5"",""8871""
","
",38.115000003017485,NA,48,NA,NA,3000,1,"346.2450000224635,2026.5450000297278",4848,images/tutyellowplanet.jpg,images/tutalien4,images/tutalien3,images/tutrocket1,images/tutalien4,images/t.png,2,practice,true,2,common,1,2020-06-23T17:24:26Z,sub102
two-step-fixation,108,266756,0.0-61.0-2.15,FALSE,FALSE,TRUE,TRUE,"""event"",""trial"",""time""
""fullscreenenter"",""5"",""8871""
","
","
","""event"",""trial"",""time""
""fullscreenenter"",""5"",""8871""
","
",NA,images/earth.jpg,NA,NA,NA,NA,NA,NA,NA,NA,NA,NA,NA,NA,NA,fixation,NA,NA,NA,NA,NA,NA,sub102
d3-animate-choice,109,268844,0.0-61.0-0.16,FALSE,FALSE,TRUE,TRUE,"""event"",""trial"",""time""
""fullscreenenter"",""5"",""8871""
","
","
","""event"",""trial"",""time""
""fullscreenenter"",""5"",""8871""
","
",80.14500001445413,NA,49,NA,NA,3000,1,NA,NA,images/earth.jpg,images/tutrocket2,images/tutrocket1,null,images/tutrocket1,NA,1,practice,null,1,NA,NA,NA,sub102
d3-animate-choice,110,271602,0.0-61.0-1.16,FALSE,FALSE,TRUE,TRUE,"""event"",""trial"",""time""
""fullscreenenter"",""5"",""8871""
","
","
","""event"",""trial"",""time""
""fullscreenenter"",""5"",""8871""
","
",751.6299999551848,NA,48,NA,NA,3000,1,NA,NA,images/tutyellowplanet.jpg,images/tutalien4,images/tutalien3,images/tutrocket1,images/tutalien4,images/t.png,2,practice,true,2,common,1,2020-06-23T17:24:32Z,sub102
two-step-fixation,111,272612,0.0-61.0-2.16,FALSE,FALSE,TRUE,TRUE,"""event"",""trial"",""time""
""fullscreenenter"",""5"",""8871""
","
","
","""event"",""trial"",""time""
""fullscreenenter"",""5"",""8871""
","
",NA,images/earth.jpg,NA,NA,NA,NA,NA,NA,NA,NA,NA,NA,NA,NA,NA,fixation,NA,NA,NA,NA,NA,NA,sub102
d3-animate-choice,112,275512,0.0-61.0-0.17,FALSE,FALSE,TRUE,TRUE,"""event"",""trial"",""time""
""fullscreenenter"",""5"",""8871""
","
","
","""event"",""trial"",""time""
""fullscreenenter"",""5"",""8871""
","
",894.0599999623373,NA,49,NA,NA,3000,1,NA,NA,images/earth.jpg,images/tutrocket2,images/tutrocket1,null,images/tutrocket1,NA,1,practice,null,1,NA,NA,NA,sub102
d3-animate-choice,113,277857,0.0-61.0-1.17,FALSE,FALSE,TRUE,TRUE,"""event"",""trial"",""time""
""fullscreenenter"",""5"",""8871""
","
","
","""event"",""trial"",""time""
""fullscreenenter"",""5"",""8871""
","
",333.5900000529364,NA,48,NA,NA,3000,1,2243.6150000430644,48,images/tutyellowplanet.jpg,images/tutalien4,images/tutalien3,images/tutrocket1,images/tutalien4,images/t.png,2,practice,true,2,common,1,2020-06-23T17:24:38Z,sub102
two-step-fixation,114,278866,0.0-61.0-2.17,FALSE,FALSE,TRUE,TRUE,"""event"",""trial"",""time""
""fullscreenenter"",""5"",""8871""
","
","
","""event"",""trial"",""time""
""fullscreenenter"",""5"",""8871""
","
",NA,images/earth.jpg,NA,NA,NA,NA,NA,NA,NA,NA,NA,NA,NA,NA,NA,fixation,NA,NA,NA,NA,NA,NA,sub102
d3-animate-choice,115,281212,0.0-61.0-0.18,FALSE,FALSE,TRUE,TRUE,"""event"",""trial"",""time""
""fullscreenenter"",""5"",""8871""
","
","
","""event"",""trial"",""time""
""fullscreenenter"",""5"",""8871""
","
",340.059999958612,NA,49,NA,NA,3000,1,NA,NA,images/earth.jpg,images/tutrocket2,images/tutrocket1,null,images/tutrocket1,NA,1,practice,null,1,NA,NA,NA,sub102
d3-animate-choice,116,283633,0.0-61.0-1.18,FALSE,FALSE,TRUE,TRUE,"""event"",""trial"",""time""
""fullscreenenter"",""5"",""8871""
","
","
","""event"",""trial"",""time""
""fullscreenenter"",""5"",""8871""
","
",414.1400000080466,NA,48,NA,NA,3000,1,NA,NA,images/tutyellowplanet.jpg,images/tutalien4,images/tutalien3,images/tutrocket1,images/tutalien4,images/nothing.png,2,practice,true,2,common,0,2020-06-23T17:24:44Z,sub102
two-step-fixation,117,284646,0.0-61.0-2.18,FALSE,FALSE,TRUE,TRUE,"""event"",""trial"",""time""
""fullscreenenter"",""5"",""8871""
","
","
","""event"",""trial"",""time""
""fullscreenenter"",""5"",""8871""
","
",NA,images/earth.jpg,NA,NA,NA,NA,NA,NA,NA,NA,NA,NA,NA,NA,NA,fixation,NA,NA,NA,NA,NA,NA,sub102
d3-animate-choice,118,288657,0.0-61.0-0.19,FALSE,FALSE,TRUE,TRUE,"""event"",""trial"",""time""
""fullscreenenter"",""5"",""8871""
","
","
","""event"",""trial"",""time""
""fullscreenenter"",""5"",""8871""
","
",3470.7799999741837,NA,49,NA,NA,3000,0,NA,NA,images/earth.jpg,images/tutrocket2,images/tutrocket1,null,NA,NA,1,practice,null,1,NA,NA,NA,sub102
d3-animate-choice,119,289665,0.0-61.0-1.19,FALSE,FALSE,TRUE,TRUE,"""event"",""trial"",""time""
""fullscreenenter"",""5"",""8871""
","
","
","""event"",""trial"",""time""
""fullscreenenter"",""5"",""8871""
","
",349.77500000968575,NA,49,NA,NA,0,0,NA,NA,images/earth.jpg,images/tutrocket2,images/tutrocket1,null,NA,NA,2,practice,null,1,NA,0,2020-06-23T17:24:50Z,sub102
two-step-fixation,120,290674,0.0-61.0-2.19,FALSE,FALSE,TRUE,TRUE,"""event"",""trial"",""time""
""fullscreenenter"",""5"",""8871""
","
","
","""event"",""trial"",""time""
""fullscreenenter"",""5"",""8871""
","
",NA,images/earth.jpg,NA,NA,NA,NA,NA,NA,NA,NA,NA,NA,NA,NA,NA,fixation,NA,NA,NA,NA,NA,NA,sub102
d3-instructions,121,292251,0.0-62.0,FALSE,FALSE,TRUE,TRUE,"""event"",""trial"",""time""
""fullscreenenter"",""5"",""8871""
","
","
","""event"",""trial"",""time""
""fullscreenenter"",""5"",""8871""
","
",NA,NA,NA,NA,NA,NA,NA,NA,NA,NA,NA,NA,NA,NA,NA,NA,NA,NA,NA,NA,NA,NA,sub102
audio-keyboard-response,122,293592,0.0-63.0,FALSE,FALSE,TRUE,TRUE,"""event"",""trial"",""time""
""fullscreenenter"",""5"",""8871""
","
","
","""event"",""trial"",""time""
""fullscreenenter"",""5"",""8871""
","
",1328,audio/instructions/treasure_feedback.wav,32,NA,NA,NA,NA,NA,NA,NA,NA,NA,NA,NA,NA,NA,NA,NA,NA,NA,NA,NA,sub102
d3-instructions,123,295560,0.0-64.0,FALSE,FALSE,TRUE,TRUE,"""event"",""trial"",""time""
""fullscreenenter"",""5"",""8871""
","
","
","""event"",""trial"",""time""
""fullscreenenter"",""5"",""8871""
","
",NA,NA,NA,NA,NA,NA,NA,NA,NA,NA,NA,NA,NA,NA,NA,NA,NA,NA,NA,NA,NA,NA,sub102
d3-instructions,124,308999,0.0-65.0,FALSE,FALSE,TRUE,TRUE,"""event"",""trial"",""time""
""fullscreenenter"",""5"",""8871""
","
","
","""event"",""trial"",""time""
""fullscreenenter"",""5"",""8871""
","
",NA,NA,NA,NA,NA,NA,NA,NA,NA,NA,NA,NA,NA,NA,NA,NA,NA,NA,NA,NA,NA,NA,sub102
d3-instructions,125,326768,0.0-66.0,FALSE,FALSE,TRUE,TRUE,"""event"",""trial"",""time""
""fullscreenenter"",""5"",""8871""
","
","
","""event"",""trial"",""time""
""fullscreenenter"",""5"",""8871""
","
",NA,NA,NA,NA,NA,NA,NA,NA,NA,NA,NA,NA,NA,NA,NA,NA,NA,NA,NA,NA,NA,NA,sub102
d3-instructions,126,337848,0.0-67.0,FALSE,FALSE,TRUE,TRUE,"""event"",""trial"",""time""
""fullscreenenter"",""5"",""8871""
","
","
","""event"",""trial"",""time""
""fullscreenenter"",""5"",""8871""
","
",NA,NA,NA,NA,NA,NA,NA,NA,NA,NA,NA,NA,NA,NA,NA,NA,NA,NA,NA,NA,NA,NA,sub102
d3-instructions,127,340759,0.0-68.0,FALSE,FALSE,TRUE,TRUE,"""event"",""trial"",""time""
""fullscreenenter"",""5"",""8871""
","
","
","""event"",""trial"",""time""
""fullscreenenter"",""5"",""8871""
","
",NA,NA,NA,NA,NA,NA,NA,NA,NA,NA,NA,NA,NA,NA,NA,NA,NA,NA,NA,NA,NA,NA,sub102
instructions-quiz,128,343553,0.0-69.0,FALSE,FALSE,TRUE,TRUE,"""event"",""trial"",""time""
""fullscreenenter"",""5"",""8871""
","
","
","""event"",""trial"",""time""
""fullscreenenter"",""5"",""8871""
","
",2791.2900000810623,audio/quiz/Q1_Prompt.wav,NA,1,NA,NA,NA,NA,NA,NA,NA,NA,NA,NA,NA,NA,NA,NA,NA,NA,NA,NA,sub102
audio-keyboard-response,129,345018,0.0-70.0,FALSE,FALSE,TRUE,TRUE,"""event"",""trial"",""time""
""fullscreenenter"",""5"",""8871""
","
","
","""event"",""trial"",""time""
""fullscreenenter"",""5"",""8871""
","
",1461,audio/quiz/Q1_Correct.wav,32,NA,NA,NA,NA,NA,NA,NA,NA,NA,NA,NA,NA,NA,NA,NA,NA,NA,NA,NA,sub102
instructions-quiz,130,347789,0.0-71.0,FALSE,FALSE,TRUE,TRUE,"""event"",""trial"",""time""
""fullscreenenter"",""5"",""8871""
","
","
","""event"",""trial"",""time""
""fullscreenenter"",""5"",""8871""
","
",2768.694999977015,audio/quiz/Q2_Prompt.wav,NA,0,NA,NA,NA,NA,NA,NA,NA,NA,NA,NA,NA,NA,NA,NA,NA,NA,NA,NA,sub102
audio-keyboard-response,131,348028,0.0-72.0,FALSE,FALSE,TRUE,TRUE,"""event"",""trial"",""time""
""fullscreenenter"",""5"",""8871""
","
","
","""event"",""trial"",""time""
""fullscreenenter"",""5"",""8871""
","
",232,audio/quiz/Q2_Correct.wav,32,NA,NA,NA,NA,NA,NA,NA,NA,NA,NA,NA,NA,NA,NA,NA,NA,NA,NA,NA,sub102
instructions-quiz,132,350277,0.0-73.0,FALSE,FALSE,TRUE,TRUE,"""event"",""trial"",""time""
""fullscreenenter"",""5"",""8871""
","
","
","""event"",""trial"",""time""
""fullscreenenter"",""5"",""8871""
","
",2247.0850000390783,audio/quiz/Q3_Prompt.wav,NA,1,NA,NA,NA,NA,NA,NA,NA,NA,NA,NA,NA,NA,NA,NA,NA,NA,NA,NA,sub102
audio-keyboard-response,133,350628,0.0-74.0,FALSE,FALSE,TRUE,TRUE,"""event"",""trial"",""time""
""fullscreenenter"",""5"",""8871""
","
","
","""event"",""trial"",""time""
""fullscreenenter"",""5"",""8871""
","
",352,audio/quiz/Q3_Correct.wav,32,NA,NA,NA,NA,NA,NA,NA,NA,NA,NA,NA,NA,NA,NA,NA,NA,NA,NA,NA,sub102
d3-instructions,134,352609,0.0-75.0,FALSE,FALSE,TRUE,TRUE,"""event"",""trial"",""time""
""fullscreenenter"",""5"",""8871""
","
","
","""event"",""trial"",""time""
""fullscreenenter"",""5"",""8871""
","
",NA,NA,NA,NA,NA,NA,NA,NA,NA,NA,NA,NA,NA,NA,NA,NA,NA,NA,NA,NA,NA,NA,sub102
d3-animate-choice,135,356057,0.0-76.0-0.0,FALSE,FALSE,TRUE,TRUE,"""event"",""trial"",""time""
""fullscreenenter"",""5"",""8871""
","
","
","""event"",""trial"",""time""
""fullscreenenter"",""5"",""8871""
","
",1435.7500000623986,NA,49,NA,NA,3000,1,NA,NA,images/earth.jpg,images/rocket1,images/rocket2,null,images/rocket2,NA,1,real,null,1,NA,NA,NA,sub102
d3-animate-choice,136,359704,0.0-76.0-1.0,FALSE,FALSE,TRUE,TRUE,"""event"",""trial"",""time""
""fullscreenenter"",""5"",""8871""
","
","
","""event"",""trial"",""time""
""fullscreenenter"",""5"",""8871""
","
",1636.6250000428408,NA,48,NA,NA,3000,1,NA,NA,images/redplanet1.jpg,images/alien2,images/alien1,images/rocket2,images/alien2,images/nothing.png,2,real,true,2,common,0,2020-06-23T17:26:00Z,sub102
two-step-fixation,137,360711,0.0-76.0-2.0,FALSE,FALSE,TRUE,TRUE,"""event"",""trial"",""time""
""fullscreenenter"",""5"",""8871""
","
","
","""event"",""trial"",""time""
""fullscreenenter"",""5"",""8871""
","
",NA,images/earth.jpg,NA,NA,NA,NA,NA,NA,NA,NA,NA,NA,NA,NA,NA,fixation,NA,NA,NA,NA,NA,NA,sub102
d3-animate-choice,138,363352,0.0-76.0-0.1,FALSE,FALSE,TRUE,TRUE,"""event"",""trial"",""time""
""fullscreenenter"",""5"",""8871""
","
","
","""event"",""trial"",""time""
""fullscreenenter"",""5"",""8871""
","
",634.0199999976903,NA,48,NA,NA,3000,1,NA,NA,images/earth.jpg,images/rocket1,images/rocket2,null,images/rocket1,NA,1,real,null,2,NA,NA,NA,sub102
d3-animate-choice,139,366885,0.0-76.0-1.1,FALSE,FALSE,TRUE,TRUE,"""event"",""trial"",""time""
""fullscreenenter"",""5"",""8871""
","
","
","""event"",""trial"",""time""
""fullscreenenter"",""5"",""8871""
","
",1520.8850000053644,NA,49,NA,NA,3000,1,NA,NA,images/purpleplanet.jpg,images/alien4,images/alien3,images/rocket1,images/alien3,images/t.png,2,real,true,1,common,1,2020-06-23T17:26:07Z,sub102
two-step-fixation,140,367899,0.0-76.0-2.1,FALSE,FALSE,TRUE,TRUE,"""event"",""trial"",""time""
""fullscreenenter"",""5"",""8871""
","
","
","""event"",""trial"",""time""
""fullscreenenter"",""5"",""8871""
","
",NA,images/earth.jpg,NA,NA,NA,NA,NA,NA,NA,NA,NA,NA,NA,NA,NA,fixation,NA,NA,NA,NA,NA,NA,sub102
d3-animate-choice,141,371656,0.0-76.0-0.2,FALSE,FALSE,TRUE,TRUE,"""event"",""trial"",""time""
""fullscreenenter"",""5"",""8871""
","
","
","""event"",""trial"",""time""
""fullscreenenter"",""5"",""8871""
","
",1745.3850000165403,NA,49,NA,NA,3000,1,NA,NA,images/earth.jpg,images/rocket1,images/rocket2,null,images/rocket2,NA,1,real,null,1,NA,NA,NA,sub102
d3-animate-choice,142,375587,0.0-76.0-1.2,FALSE,FALSE,TRUE,TRUE,"""event"",""trial"",""time""
""fullscreenenter"",""5"",""8871""
","
","
","""event"",""trial"",""time""
""fullscreenenter"",""5"",""8871""
","
",1917.3850000370294,NA,48,NA,NA,3000,1,NA,NA,images/purpleplanet.jpg,images/alien4,images/alien3,images/rocket2,images/alien4,images/t.png,2,real,false,2,rare,1,2020-06-23T17:26:16Z,sub102
two-step-fixation,143,376596,0.0-76.0-2.2,FALSE,FALSE,TRUE,TRUE,"""event"",""trial"",""time""
""fullscreenenter"",""5"",""8871""
","
","
","""event"",""trial"",""time""
""fullscreenenter"",""5"",""8871""
","
",NA,images/earth.jpg,NA,NA,NA,NA,NA,NA,NA,NA,NA,NA,NA,NA,NA,fixation,NA,NA,NA,NA,NA,NA,sub102
d3-animate-choice,144,378928,0.0-76.0-0.3,FALSE,FALSE,TRUE,TRUE,"""event"",""trial"",""time""
""fullscreenenter"",""5"",""8871""
","
","
","""event"",""trial"",""time""
""fullscreenenter"",""5"",""8871""
","
",317.21000000834465,NA,48,NA,NA,3000,1,NA,NA,images/earth.jpg,images/rocket1,images/rocket2,null,images/rocket1,NA,1,real,null,2,NA,NA,NA,sub102
d3-animate-choice,145,382949,0.0-76.0-1.3,FALSE,FALSE,TRUE,TRUE,"""event"",""trial"",""time""
""fullscreenenter"",""5"",""8871""
","
","
","""event"",""trial"",""time""
""fullscreenenter"",""5"",""8871""
","
",2295.935000060126,NA,48,NA,NA,3000,1,NA,NA,images/redplanet1.jpg,images/alien2,images/alien1,images/rocket1,images/alien2,images/t.png,2,real,false,2,rare,1,2020-06-23T17:26:23Z,sub102
two-step-fixation,146,383957,0.0-76.0-2.3,FALSE,FALSE,TRUE,TRUE,"""event"",""trial"",""time""
""fullscreenenter"",""5"",""8871""
","
","
","""event"",""trial"",""time""
""fullscreenenter"",""5"",""8871""
","
",NA,images/earth.jpg,NA,NA,NA,NA,NA,NA,NA,NA,NA,NA,NA,NA,NA,fixation,NA,NA,NA,NA,NA,NA,sub102
d3-animate-choice,147,386282,0.0-76.0-0.4,FALSE,FALSE,TRUE,TRUE,"""event"",""trial"",""time""
""fullscreenenter"",""5"",""8871""
","
","
","""event"",""trial"",""time""
""fullscreenenter"",""5"",""8871""
","
",317.090000025928,NA,49,NA,NA,3000,1,NA,NA,images/earth.jpg,images/rocket1,images/rocket2,null,images/rocket2,NA,1,real,null,1,NA,NA,NA,sub102
d3-animate-choice,148,390065,0.0-76.0-1.4,FALSE,FALSE,TRUE,TRUE,"""event"",""trial"",""time""
""fullscreenenter"",""5"",""8871""
","
","
","""event"",""trial"",""time""
""fullscreenenter"",""5"",""8871""
","
",1772.1550000132993,NA,49,NA,NA,3000,1,NA,NA,images/redplanet1.jpg,images/alien2,images/alien1,images/rocket2,images/alien1,images/t.png,2,real,true,1,common,1,2020-06-23T17:26:30Z,sub102
two-step-fixation,149,391074,0.0-76.0-2.4,FALSE,FALSE,TRUE,TRUE,"""event"",""trial"",""time""
""fullscreenenter"",""5"",""8871""
","
","
","""event"",""trial"",""time""
""fullscreenenter"",""5"",""8871""
","
",NA,images/earth.jpg,NA,NA,NA,NA,NA,NA,NA,NA,NA,NA,NA,NA,NA,fixation,NA,NA,NA,NA,NA,NA,sub102
d3-animate-choice,150,393395,0.0-76.0-0.5,FALSE,FALSE,TRUE,TRUE,"""event"",""trial"",""time""
""fullscreenenter"",""5"",""8871""
","
","
","""event"",""trial"",""time""
""fullscreenenter"",""5"",""8871""
","
",309.77499997243285,NA,48,NA,NA,3000,1,NA,NA,images/earth.jpg,images/rocket1,images/rocket2,null,images/rocket1,NA,1,real,null,2,NA,NA,NA,sub102
d3-animate-choice,151,397403,0.0-76.0-1.5,FALSE,FALSE,TRUE,TRUE,"""event"",""trial"",""time""
""fullscreenenter"",""5"",""8871""
","
","
","""event"",""trial"",""time""
""fullscreenenter"",""5"",""8871""
","
",3519.304999965243,NA,49,NA,NA,3000,0,3958.9849999174476,49,images/purpleplanet.jpg,images/alien4,images/alien3,images/rocket1,NA,NA,2,real,true,1,common,0,2020-06-23T17:26:38Z,sub102
two-step-fixation,152,398411,0.0-76.0-2.5,FALSE,FALSE,TRUE,TRUE,"""event"",""trial"",""time""
""fullscreenenter"",""5"",""8871""
","
","
","""event"",""trial"",""time""
""fullscreenenter"",""5"",""8871""
","
",NA,images/earth.jpg,NA,NA,NA,NA,NA,NA,NA,NA,NA,NA,NA,NA,NA,fixation,NA,NA,NA,NA,NA,NA,sub102
d3-animate-choice,153,401017,0.0-76.0-0.6,FALSE,FALSE,TRUE,TRUE,"""event"",""trial"",""time""
""fullscreenenter"",""5"",""8871""
","
","
","""event"",""trial"",""time""
""fullscreenenter"",""5"",""8871""
","
",592.9000000469387,NA,49,NA,NA,3000,1,NA,NA,images/earth.jpg,images/rocket1,images/rocket2,null,images/rocket2,NA,1,real,null,1,NA,NA,NA,sub102
d3-animate-choice,154,404411,0.0-76.0-1.6,FALSE,FALSE,TRUE,TRUE,"""event"",""trial"",""time""
""fullscreenenter"",""5"",""8871""
","
","
","""event"",""trial"",""time""
""fullscreenenter"",""5"",""8871""
","
",1386.7150000296533,NA,48,NA,NA,3000,1,NA,NA,images/purpleplanet.jpg,images/alien4,images/alien3,images/rocket2,images/alien4,images/nothing.png,2,real,false,2,rare,0,2020-06-23T17:26:45Z,sub102
two-step-fixation,155,405417,0.0-76.0-2.6,FALSE,FALSE,TRUE,TRUE,"""event"",""trial"",""time""
""fullscreenenter"",""5"",""8871""
","
","
","""event"",""trial"",""time""
""fullscreenenter"",""5"",""8871""
","
",NA,images/earth.jpg,NA,NA,NA,NA,NA,NA,NA,NA,NA,NA,NA,NA,NA,fixation,NA,NA,NA,NA,NA,NA,sub102
d3-animate-choice,156,407936,0.0-76.0-0.7,FALSE,FALSE,TRUE,TRUE,"""event"",""trial"",""time""
""fullscreenenter"",""5"",""8871""
","
","
","""event"",""trial"",""time""
""fullscreenenter"",""5"",""8871""
","
",507.29999993927777,NA,48,NA,NA,3000,1,NA,NA,images/earth.jpg,images/rocket1,images/rocket2,null,images/rocket1,NA,1,real,null,2,NA,NA,NA,sub102
d3-animate-choice,157,411120,0.0-76.0-1.7,FALSE,FALSE,TRUE,TRUE,"""event"",""trial"",""time""
""fullscreenenter"",""5"",""8871""
","
","
","""event"",""trial"",""time""
""fullscreenenter"",""5"",""8871""
","
",1178.4150000894442,NA,49,NA,NA,3000,1,NA,NA,images/purpleplanet.jpg,images/alien4,images/alien3,images/rocket1,images/alien3,images/t.png,2,real,true,1,common,1,2020-06-23T17:26:51Z,sub102
two-step-fixation,158,412129,0.0-76.0-2.7,FALSE,FALSE,TRUE,TRUE,"""event"",""trial"",""time""
""fullscreenenter"",""5"",""8871""
","
","
","""event"",""trial"",""time""
""fullscreenenter"",""5"",""8871""
","
",NA,images/earth.jpg,NA,NA,NA,NA,NA,NA,NA,NA,NA,NA,NA,NA,NA,fixation,NA,NA,NA,NA,NA,NA,sub102
d3-animate-choice,159,415369,0.0-76.0-0.8,FALSE,FALSE,TRUE,TRUE,"""event"",""trial"",""time""
""fullscreenenter"",""5"",""8871""
","
","
","""event"",""trial"",""time""
""fullscreenenter"",""5"",""8871""
","
",1234.2949999729171,NA,49,NA,NA,3000,1,NA,NA,images/earth.jpg,images/rocket1,images/rocket2,null,images/rocket2,NA,1,real,null,1,NA,NA,NA,sub102
d3-animate-choice,160,418975,0.0-76.0-1.8,FALSE,FALSE,TRUE,TRUE,"""event"",""trial"",""time""
""fullscreenenter"",""5"",""8871""
","
","
","""event"",""trial"",""time""
""fullscreenenter"",""5"",""8871""
","
",1594.8599999537691,NA,49,NA,NA,3000,1,NA,NA,images/redplanet1.jpg,images/alien2,images/alien1,images/rocket2,images/alien1,images/t.png,2,real,true,1,common,1,2020-06-23T17:26:59Z,sub102
two-step-fixation,161,419985,0.0-76.0-2.8,FALSE,FALSE,TRUE,TRUE,"""event"",""trial"",""time""
""fullscreenenter"",""5"",""8871""
","
","
","""event"",""trial"",""time""
""fullscreenenter"",""5"",""8871""
","
",NA,images/earth.jpg,NA,NA,NA,NA,NA,NA,NA,NA,NA,NA,NA,NA,NA,fixation,NA,NA,NA,NA,NA,NA,sub102
d3-animate-choice,162,422353,0.0-76.0-0.9,FALSE,FALSE,TRUE,TRUE,"""event"",""trial"",""time""
""fullscreenenter"",""5"",""8871""
","
","
","""event"",""trial"",""time""
""fullscreenenter"",""5"",""8871""
","
",359.59000000730157,NA,48,NA,NA,3000,1,NA,NA,images/earth.jpg,images/rocket1,images/rocket2,null,images/rocket1,NA,1,real,null,2,NA,NA,NA,sub102
d3-animate-choice,163,425823,0.0-76.0-1.9,FALSE,FALSE,TRUE,TRUE,"""event"",""trial"",""time""
""fullscreenenter"",""5"",""8871""
","
","
","""event"",""trial"",""time""
""fullscreenenter"",""5"",""8871""
","
",1458.2500000251457,NA,49,NA,NA,3000,1,NA,NA,images/purpleplanet.jpg,images/alien4,images/alien3,images/rocket1,images/alien3,images/nothing.png,2,real,true,1,common,0,2020-06-23T17:27:06Z,sub102
two-step-fixation,164,426829,0.0-76.0-2.9,FALSE,FALSE,TRUE,TRUE,"""event"",""trial"",""time""
""fullscreenenter"",""5"",""8871""
","
","
","""event"",""trial"",""time""
""fullscreenenter"",""5"",""8871""
","
",NA,images/earth.jpg,NA,NA,NA,NA,NA,NA,NA,NA,NA,NA,NA,NA,NA,fixation,NA,NA,NA,NA,NA,NA,sub102
d3-animate-choice,165,429282,0.0-76.0-0.10,FALSE,FALSE,TRUE,TRUE,"""event"",""trial"",""time""
""fullscreenenter"",""5"",""8871""
","
","
","""event"",""trial"",""time""
""fullscreenenter"",""5"",""8871""
","
",442.6749999402091,NA,49,NA,NA,3000,1,NA,NA,images/earth.jpg,images/rocket1,images/rocket2,null,images/rocket2,NA,1,real,null,1,NA,NA,NA,sub102
d3-animate-choice,166,432835,0.0-76.0-1.10,FALSE,FALSE,TRUE,TRUE,"""event"",""trial"",""time""
""fullscreenenter"",""5"",""8871""
","
","
","""event"",""trial"",""time""
""fullscreenenter"",""5"",""8871""
","
",1539.9349998915568,NA,48,NA,NA,3000,1,NA,NA,images/purpleplanet.jpg,images/alien4,images/alien3,images/rocket2,images/alien4,images/t.png,2,real,false,2,rare,1,2020-06-23T17:27:13Z,sub102
two-step-fixation,167,433844,0.0-76.0-2.10,FALSE,FALSE,TRUE,TRUE,"""event"",""trial"",""time""
""fullscreenenter"",""5"",""8871""
","
","
","""event"",""trial"",""time""
""fullscreenenter"",""5"",""8871""
","
",NA,images/earth.jpg,NA,NA,NA,NA,NA,NA,NA,NA,NA,NA,NA,NA,NA,fixation,NA,NA,NA,NA,NA,NA,sub102
d3-animate-choice,168,437380,0.0-76.0-0.11,FALSE,FALSE,TRUE,TRUE,"""event"",""trial"",""time""
""fullscreenenter"",""5"",""8871""
","
","
","""event"",""trial"",""time""
""fullscreenenter"",""5"",""8871""
","
",1527.8000000398606,NA,48,NA,NA,3000,1,NA,NA,images/earth.jpg,images/rocket1,images/rocket2,null,images/rocket1,NA,1,real,null,2,NA,NA,NA,sub102
d3-animate-choice,169,440659,0.0-76.0-1.11,FALSE,FALSE,TRUE,TRUE,"""event"",""trial"",""time""
""fullscreenenter"",""5"",""8871""
","
","
","""event"",""trial"",""time""
""fullscreenenter"",""5"",""8871""
","
",1271.8249999452382,NA,49,NA,NA,3000,1,NA,NA,images/redplanet1.jpg,images/alien2,images/alien1,images/rocket1,images/alien1,images/t.png,2,real,false,1,rare,1,2020-06-23T17:27:21Z,sub102
two-step-fixation,170,441666,0.0-76.0-2.11,FALSE,FALSE,TRUE,TRUE,"""event"",""trial"",""time""
""fullscreenenter"",""5"",""8871""
","
","
","""event"",""trial"",""time""
""fullscreenenter"",""5"",""8871""
","
",NA,images/earth.jpg,NA,NA,NA,NA,NA,NA,NA,NA,NA,NA,NA,NA,NA,fixation,NA,NA,NA,NA,NA,NA,sub102
d3-animate-choice,171,444061,0.0-76.0-0.12,FALSE,FALSE,TRUE,TRUE,"""event"",""trial"",""time""
""fullscreenenter"",""5"",""8871""
","
","
","""event"",""trial"",""time""
""fullscreenenter"",""5"",""8871""
","
",386.39999995939434,NA,48,NA,NA,3000,1,NA,NA,images/earth.jpg,images/rocket1,images/rocket2,null,images/rocket1,NA,1,real,null,2,NA,NA,NA,sub102
d3-animate-choice,172,447895,0.0-76.0-1.12,FALSE,FALSE,TRUE,TRUE,"""event"",""trial"",""time""
""fullscreenenter"",""5"",""8871""
","
","
","""event"",""trial"",""time""
""fullscreenenter"",""5"",""8871""
","
",1820.934999966994,NA,49,NA,NA,3000,1,NA,NA,images/purpleplanet.jpg,images/alien4,images/alien3,images/rocket1,images/alien3,images/t.png,2,real,true,1,common,1,2020-06-23T17:27:28Z,sub102
two-step-fixation,173,448907,0.0-76.0-2.12,FALSE,FALSE,TRUE,TRUE,"""event"",""trial"",""time""
""fullscreenenter"",""5"",""8871""
","
","
","""event"",""trial"",""time""
""fullscreenenter"",""5"",""8871""
","
",NA,images/earth.jpg,NA,NA,NA,NA,NA,NA,NA,NA,NA,NA,NA,NA,NA,fixation,NA,NA,NA,NA,NA,NA,sub102
d3-animate-choice,174,451745,0.0-76.0-0.13,FALSE,FALSE,TRUE,TRUE,"""event"",""trial"",""time""
""fullscreenenter"",""5"",""8871""
","
","
","""event"",""trial"",""time""
""fullscreenenter"",""5"",""8871""
","
",824.6250000083819,NA,49,NA,NA,3000,1,NA,NA,images/earth.jpg,images/rocket1,images/rocket2,null,images/rocket2,NA,1,real,null,1,NA,NA,NA,sub102
d3-animate-choice,175,455757,0.0-76.0-1.13,FALSE,FALSE,TRUE,TRUE,"""event"",""trial"",""time""
""fullscreenenter"",""5"",""8871""
","
","
","""event"",""trial"",""time""
""fullscreenenter"",""5"",""8871""
","
",2727.8199999127537,NA,49,NA,NA,3000,1,NA,NA,images/redplanet1.jpg,images/alien2,images/alien1,images/rocket2,images/alien1,NA,2,real,true,1,common,0,2020-06-23T17:27:36Z,sub102
two-step-fixation,176,456769,0.0-76.0-2.13,FALSE,FALSE,TRUE,TRUE,"""event"",""trial"",""time""
""fullscreenenter"",""5"",""8871""
","
","
","""event"",""trial"",""time""
""fullscreenenter"",""5"",""8871""
","
",NA,images/earth.jpg,NA,NA,NA,NA,NA,NA,NA,NA,NA,NA,NA,NA,NA,fixation,NA,NA,NA,NA,NA,NA,sub102
d3-animate-choice,177,459711,0.0-76.0-0.14,FALSE,FALSE,TRUE,TRUE,"""event"",""trial"",""time""
""fullscreenenter"",""5"",""8871""
","
","
","""event"",""trial"",""time""
""fullscreenenter"",""5"",""8871""
","
",932.5699999462813,NA,48,NA,NA,3000,1,NA,NA,images/earth.jpg,images/rocket1,images/rocket2,null,images/rocket1,NA,1,real,null,2,NA,NA,NA,sub102
d3-animate-choice,178,463599,0.0-76.0-1.14,FALSE,FALSE,TRUE,TRUE,"""event"",""trial"",""time""
""fullscreenenter"",""5"",""8871""
","
","
","""event"",""trial"",""time""
""fullscreenenter"",""5"",""8871""
","
",1882.2099999524653,NA,48,NA,NA,3000,1,NA,NA,images/purpleplanet.jpg,images/alien4,images/alien3,images/rocket1,images/alien4,images/t.png,2,real,true,2,common,1,2020-06-23T17:27:44Z,sub102
two-step-fixation,179,464607,0.0-76.0-2.14,FALSE,FALSE,TRUE,TRUE,"""event"",""trial"",""time""
""fullscreenenter"",""5"",""8871""
","
","
","""event"",""trial"",""time""
""fullscreenenter"",""5"",""8871""
","
",NA,images/earth.jpg,NA,NA,NA,NA,NA,NA,NA,NA,NA,NA,NA,NA,NA,fixation,NA,NA,NA,NA,NA,NA,sub102
d3-animate-choice,180,466916,0.0-76.0-0.15,FALSE,FALSE,TRUE,TRUE,"""event"",""trial"",""time""
""fullscreenenter"",""5"",""8871""
","
","
","""event"",""trial"",""time""
""fullscreenenter"",""5"",""8871""
","
",296.3299999246374,NA,49,NA,NA,3000,1,NA,NA,images/earth.jpg,images/rocket1,images/rocket2,null,images/rocket2,NA,1,real,null,1,NA,NA,NA,sub102
d3-animate-choice,181,470151,0.0-76.0-1.15,FALSE,FALSE,TRUE,TRUE,"""event"",""trial"",""time""
""fullscreenenter"",""5"",""8871""
","
","
","""event"",""trial"",""time""
""fullscreenenter"",""5"",""8871""
","
",1226.535000023432,NA,49,NA,NA,3000,1,NA,NA,images/redplanet1.jpg,images/alien2,images/alien1,images/rocket2,images/alien1,images/t.png,2,real,true,1,common,1,2020-06-23T17:27:50Z,sub102
two-step-fixation,182,471160,0.0-76.0-2.15,FALSE,FALSE,TRUE,TRUE,"""event"",""trial"",""time""
""fullscreenenter"",""5"",""8871""
","
","
","""event"",""trial"",""time""
""fullscreenenter"",""5"",""8871""
","
",NA,images/earth.jpg,NA,NA,NA,NA,NA,NA,NA,NA,NA,NA,NA,NA,NA,fixation,NA,NA,NA,NA,NA,NA,sub102
d3-animate-choice,183,473473,0.0-76.0-0.16,FALSE,FALSE,TRUE,TRUE,"""event"",""trial"",""time""
""fullscreenenter"",""5"",""8871""
","
","
","""event"",""trial"",""time""
""fullscreenenter"",""5"",""8871""
","
",303.0049999943003,NA,48,NA,NA,3000,1,NA,NA,images/earth.jpg,images/rocket1,images/rocket2,null,images/rocket1,NA,1,real,null,2,NA,NA,NA,sub102
d3-animate-choice,184,476989,0.0-76.0-1.16,FALSE,FALSE,TRUE,TRUE,"""event"",""trial"",""time""
""fullscreenenter"",""5"",""8871""
","
","
","""event"",""trial"",""time""
""fullscreenenter"",""5"",""8871""
","
",1510.6200000736862,NA,49,NA,NA,3000,1,NA,NA,images/redplanet1.jpg,images/alien2,images/alien1,images/rocket1,images/alien1,images/t.png,2,real,false,1,rare,1,2020-06-23T17:27:57Z,sub102
two-step-fixation,185,477997,0.0-76.0-2.16,FALSE,FALSE,TRUE,TRUE,"""event"",""trial"",""time""
""fullscreenenter"",""5"",""8871""
","
","
","""event"",""trial"",""time""
""fullscreenenter"",""5"",""8871""
","
",NA,images/earth.jpg,NA,NA,NA,NA,NA,NA,NA,NA,NA,NA,NA,NA,NA,fixation,NA,NA,NA,NA,NA,NA,sub102
d3-animate-choice,186,480310,0.0-76.0-0.17,FALSE,FALSE,TRUE,TRUE,"""event"",""trial"",""time""
""fullscreenenter"",""5"",""8871""
","
","
","""event"",""trial"",""time""
""fullscreenenter"",""5"",""8871""
","
",304.5200000051409,NA,49,NA,NA,3000,1,NA,NA,images/earth.jpg,images/rocket1,images/rocket2,null,images/rocket2,NA,1,real,null,1,NA,NA,NA,sub102
d3-animate-choice,187,483352,0.0-76.0-1.17,FALSE,FALSE,TRUE,TRUE,"""event"",""trial"",""time""
""fullscreenenter"",""5"",""8871""
","
","
","""event"",""trial"",""time""
""fullscreenenter"",""5"",""8871""
","
",1032.6549999881536,NA,48,NA,NA,3000,1,NA,NA,images/purpleplanet.jpg,images/alien4,images/alien3,images/rocket2,images/alien4,images/nothing.png,2,real,false,2,rare,0,2020-06-23T17:28:04Z,sub102
two-step-fixation,188,484362,0.0-76.0-2.17,FALSE,FALSE,TRUE,TRUE,"""event"",""trial"",""time""
""fullscreenenter"",""5"",""8871""
","
","
","""event"",""trial"",""time""
""fullscreenenter"",""5"",""8871""
","
",NA,images/earth.jpg,NA,NA,NA,NA,NA,NA,NA,NA,NA,NA,NA,NA,NA,fixation,NA,NA,NA,NA,NA,NA,sub102
d3-animate-choice,189,487031,0.0-76.0-0.18,FALSE,FALSE,TRUE,TRUE,"""event"",""trial"",""time""
""fullscreenenter"",""5"",""8871""
","
","
","""event"",""trial"",""time""
""fullscreenenter"",""5"",""8871""
","
",662.03000000678,NA,48,NA,NA,3000,1,NA,NA,images/earth.jpg,images/rocket1,images/rocket2,null,images/rocket1,NA,1,real,null,2,NA,NA,NA,sub102
d3-animate-choice,190,490465,0.0-76.0-1.18,FALSE,FALSE,TRUE,TRUE,"""event"",""trial"",""time""
""fullscreenenter"",""5"",""8871""
","
","
","""event"",""trial"",""time""
""fullscreenenter"",""5"",""8871""
","
",1421.9899999443442,NA,48,NA,NA,3000,1,NA,NA,images/purpleplanet.jpg,images/alien4,images/alien3,images/rocket1,images/alien4,images/t.png,2,real,true,2,common,1,2020-06-23T17:28:11Z,sub102
two-step-fixation,191,491478,0.0-76.0-2.18,FALSE,FALSE,TRUE,TRUE,"""event"",""trial"",""time""
""fullscreenenter"",""5"",""8871""
","
","
","""event"",""trial"",""time""
""fullscreenenter"",""5"",""8871""
","
",NA,images/earth.jpg,NA,NA,NA,NA,NA,NA,NA,NA,NA,NA,NA,NA,NA,fixation,NA,NA,NA,NA,NA,NA,sub102
d3-animate-choice,192,493920,0.0-76.0-0.19,FALSE,FALSE,TRUE,TRUE,"""event"",""trial"",""time""
""fullscreenenter"",""5"",""8871""
","
","
","""event"",""trial"",""time""
""fullscreenenter"",""5"",""8871""
","
",435.6499999994412,NA,49,NA,NA,3000,1,NA,NA,images/earth.jpg,images/rocket1,images/rocket2,null,images/rocket2,NA,1,real,null,1,NA,NA,NA,sub102
d3-animate-choice,193,497013,0.0-76.0-1.19,FALSE,FALSE,TRUE,TRUE,"""event"",""trial"",""time""
""fullscreenenter"",""5"",""8871""
","
","
","""event"",""trial"",""time""
""fullscreenenter"",""5"",""8871""
","
",1082.7950000530109,NA,49,NA,NA,3000,1,NA,NA,images/purpleplanet.jpg,images/alien4,images/alien3,images/rocket2,images/alien3,images/nothing.png,2,real,false,1,rare,0,2020-06-23T17:28:17Z,sub102
two-step-fixation,194,498023,0.0-76.0-2.19,FALSE,FALSE,TRUE,TRUE,"""event"",""trial"",""time""
""fullscreenenter"",""5"",""8871""
","
","
","""event"",""trial"",""time""
""fullscreenenter"",""5"",""8871""
","
",NA,images/earth.jpg,NA,NA,NA,NA,NA,NA,NA,NA,NA,NA,NA,NA,NA,fixation,NA,NA,NA,NA,NA,NA,sub102
d3-animate-choice,195,500350,0.0-76.0-0.20,FALSE,FALSE,TRUE,TRUE,"""event"",""trial"",""time""
""fullscreenenter"",""5"",""8871""
","
","
","""event"",""trial"",""time""
""fullscreenenter"",""5"",""8871""
","
",321.52499991934747,NA,48,NA,NA,3000,1,NA,NA,images/earth.jpg,images/rocket1,images/rocket2,null,images/rocket1,NA,1,real,null,2,NA,NA,NA,sub102
d3-animate-choice,196,503451,0.0-76.0-1.20,FALSE,FALSE,TRUE,TRUE,"""event"",""trial"",""time""
""fullscreenenter"",""5"",""8871""
","
","
","""event"",""trial"",""time""
""fullscreenenter"",""5"",""8871""
","
",1092.2349999891594,NA,48,NA,NA,3000,1,NA,NA,images/purpleplanet.jpg,images/alien4,images/alien3,images/rocket1,images/alien4,images/nothing.png,2,real,true,2,common,0,2020-06-23T17:28:24Z,sub102
two-step-fixation,197,504460,0.0-76.0-2.20,FALSE,FALSE,TRUE,TRUE,"""event"",""trial"",""time""
""fullscreenenter"",""5"",""8871""
","
","
","""event"",""trial"",""time""
""fullscreenenter"",""5"",""8871""
","
",NA,images/earth.jpg,NA,NA,NA,NA,NA,NA,NA,NA,NA,NA,NA,NA,NA,fixation,NA,NA,NA,NA,NA,NA,sub102
d3-animate-choice,198,506957,0.0-76.0-0.21,FALSE,FALSE,TRUE,TRUE,"""event"",""trial"",""time""
""fullscreenenter"",""5"",""8871""
","
","
","""event"",""trial"",""time""
""fullscreenenter"",""5"",""8871""
","
",483.2199999364093,NA,49,NA,NA,3000,1,NA,NA,images/earth.jpg,images/rocket1,images/rocket2,null,images/rocket2,NA,1,real,null,1,NA,NA,NA,sub102
d3-animate-choice,199,510966,0.0-76.0-1.21,FALSE,FALSE,TRUE,TRUE,"""event"",""trial"",""time""
""fullscreenenter"",""5"",""8871""
","
","
","""event"",""trial"",""time""
""fullscreenenter"",""5"",""8871""
","
",2527.5350000010803,NA,49,NA,NA,3000,1,NA,NA,images/redplanet1.jpg,images/alien2,images/alien1,images/rocket2,images/alien1,images/t.png,2,real,true,1,common,1,2020-06-23T17:28:31Z,sub102
two-step-fixation,200,511973,0.0-76.0-2.21,FALSE,FALSE,TRUE,TRUE,"""event"",""trial"",""time""
""fullscreenenter"",""5"",""8871""
","
","
","""event"",""trial"",""time""
""fullscreenenter"",""5"",""8871""
","
",NA,images/earth.jpg,NA,NA,NA,NA,NA,NA,NA,NA,NA,NA,NA,NA,NA,fixation,NA,NA,NA,NA,NA,NA,sub102
d3-animate-choice,201,514380,0.0-76.0-0.22,FALSE,FALSE,TRUE,TRUE,"""event"",""trial"",""time""
""fullscreenenter"",""5"",""8871""
","
","
","""event"",""trial"",""time""
""fullscreenenter"",""5"",""8871""
","
",398.28000008128583,NA,48,NA,NA,3000,1,NA,NA,images/earth.jpg,images/rocket1,images/rocket2,null,images/rocket1,NA,1,real,null,2,NA,NA,NA,sub102
d3-animate-choice,202,517976,0.0-76.0-1.22,FALSE,FALSE,TRUE,TRUE,"""event"",""trial"",""time""
""fullscreenenter"",""5"",""8871""
","
","
","""event"",""trial"",""time""
""fullscreenenter"",""5"",""8871""
","
",1582.509999978356,NA,48,NA,NA,3000,1,NA,NA,images/redplanet1.jpg,images/alien2,images/alien1,images/rocket1,images/alien2,images/nothing.png,2,real,false,2,rare,0,2020-06-23T17:28:38Z,sub102
two-step-fixation,203,518983,0.0-76.0-2.22,FALSE,FALSE,TRUE,TRUE,"""event"",""trial"",""time""
""fullscreenenter"",""5"",""8871""
","
","
","""event"",""trial"",""time""
""fullscreenenter"",""5"",""8871""
","
",NA,images/earth.jpg,NA,NA,NA,NA,NA,NA,NA,NA,NA,NA,NA,NA,NA,fixation,NA,NA,NA,NA,NA,NA,sub102
d3-animate-choice,204,521315,0.0-76.0-0.23,FALSE,FALSE,TRUE,TRUE,"""event"",""trial"",""time""
""fullscreenenter"",""5"",""8871""
","
","
","""event"",""trial"",""time""
""fullscreenenter"",""5"",""8871""
","
",320.81999990623444,NA,48,NA,NA,3000,1,NA,NA,images/earth.jpg,images/rocket1,images/rocket2,null,images/rocket1,NA,1,real,null,2,NA,NA,NA,sub102
d3-animate-choice,205,525297,0.0-76.0-1.23,FALSE,FALSE,TRUE,TRUE,"""event"",""trial"",""time""
""fullscreenenter"",""5"",""8871""
","
","
","""event"",""trial"",""time""
""fullscreenenter"",""5"",""8871""
","
",1968.75,NA,49,NA,NA,3000,1,NA,NA,images/purpleplanet.jpg,images/alien4,images/alien3,images/rocket1,images/alien3,images/nothing.png,2,real,true,1,common,0,2020-06-23T17:28:46Z,sub102
two-step-fixation,206,526304,0.0-76.0-2.23,FALSE,FALSE,TRUE,TRUE,"""event"",""trial"",""time""
""fullscreenenter"",""5"",""8871""
","
","
","""event"",""trial"",""time""
""fullscreenenter"",""5"",""8871""
","
",NA,images/earth.jpg,NA,NA,NA,NA,NA,NA,NA,NA,NA,NA,NA,NA,NA,fixation,NA,NA,NA,NA,NA,NA,sub102
d3-animate-choice,207,528677,0.0-76.0-0.24,FALSE,FALSE,TRUE,TRUE,"""event"",""trial"",""time""
""fullscreenenter"",""5"",""8871""
","
","
","""event"",""trial"",""time""
""fullscreenenter"",""5"",""8871""
","
",359.43000006955117,NA,49,NA,NA,3000,1,NA,NA,images/earth.jpg,images/rocket1,images/rocket2,null,images/rocket2,NA,1,real,null,1,NA,NA,NA,sub102
d3-animate-choice,208,532470,0.0-76.0-1.24,FALSE,FALSE,TRUE,TRUE,"""event"",""trial"",""time""
""fullscreenenter"",""5"",""8871""
","
","
","""event"",""trial"",""time""
""fullscreenenter"",""5"",""8871""
","
",1786.7050000932068,NA,49,NA,NA,3000,1,NA,NA,images/redplanet1.jpg,images/alien2,images/alien1,images/rocket2,images/alien1,images/nothing.png,2,real,true,1,common,0,2020-06-23T17:28:53Z,sub102
two-step-fixation,209,533485,0.0-76.0-2.24,FALSE,FALSE,TRUE,TRUE,"""event"",""trial"",""time""
""fullscreenenter"",""5"",""8871""
","
","
","""event"",""trial"",""time""
""fullscreenenter"",""5"",""8871""
","
",NA,images/earth.jpg,NA,NA,NA,NA,NA,NA,NA,NA,NA,NA,NA,NA,NA,fixation,NA,NA,NA,NA,NA,NA,sub102
d3-animate-choice,210,537058,0.0-76.0-0.25,FALSE,FALSE,TRUE,TRUE,"""event"",""trial"",""time""
""fullscreenenter"",""5"",""8871""
","
","
","""event"",""trial"",""time""
""fullscreenenter"",""5"",""8871""
","
",1559.4900000141934,NA,49,NA,NA,3000,1,NA,NA,images/earth.jpg,images/rocket1,images/rocket2,null,images/rocket2,NA,1,real,null,1,NA,NA,NA,sub102
d3-animate-choice,211,541070,0.0-76.0-1.25,FALSE,FALSE,TRUE,TRUE,"""event"",""trial"",""time""
""fullscreenenter"",""5"",""8871""
","
","
","""event"",""trial"",""time""
""fullscreenenter"",""5"",""8871""
","
",2074.644999927841,NA,48,NA,NA,3000,1,NA,NA,images/redplanet1.jpg,images/alien2,images/alien1,images/rocket2,images/alien2,images/t.png,2,real,true,2,common,1,2020-06-23T17:29:01Z,sub102
two-step-fixation,212,542077,0.0-76.0-2.25,FALSE,FALSE,TRUE,TRUE,"""event"",""trial"",""time""
""fullscreenenter"",""5"",""8871""
","
","
","""event"",""trial"",""time""
""fullscreenenter"",""5"",""8871""
","
",NA,images/earth.jpg,NA,NA,NA,NA,NA,NA,NA,NA,NA,NA,NA,NA,NA,fixation,NA,NA,NA,NA,NA,NA,sub102
d3-animate-choice,213,545731,0.0-76.0-0.26,FALSE,FALSE,TRUE,TRUE,"""event"",""trial"",""time""
""fullscreenenter"",""5"",""8871""
","
","
","""event"",""trial"",""time""
""fullscreenenter"",""5"",""8871""
","
",1646.3150000199676,NA,48,NA,NA,3000,1,NA,NA,images/earth.jpg,images/rocket1,images/rocket2,null,images/rocket1,NA,1,real,null,2,NA,NA,NA,sub102
d3-animate-choice,214,549749,0.0-76.0-1.26,FALSE,FALSE,TRUE,TRUE,"""event"",""trial"",""time""
""fullscreenenter"",""5"",""8871""
","
","
","""event"",""trial"",""time""
""fullscreenenter"",""5"",""8871""
","
",2025.0050000613555,NA,48,NA,NA,3000,1,NA,NA,images/purpleplanet.jpg,images/alien4,images/alien3,images/rocket1,images/alien4,images/t.png,2,real,true,2,common,1,2020-06-23T17:29:10Z,sub102
two-step-fixation,215,550756,0.0-76.0-2.26,FALSE,FALSE,TRUE,TRUE,"""event"",""trial"",""time""
""fullscreenenter"",""5"",""8871""
","
","
","""event"",""trial"",""time""
""fullscreenenter"",""5"",""8871""
","
",NA,images/earth.jpg,NA,NA,NA,NA,NA,NA,NA,NA,NA,NA,NA,NA,NA,fixation,NA,NA,NA,NA,NA,NA,sub102
d3-animate-choice,216,553527,0.0-76.0-0.27,FALSE,FALSE,TRUE,TRUE,"""event"",""trial"",""time""
""fullscreenenter"",""5"",""8871""
","
","
","""event"",""trial"",""time""
""fullscreenenter"",""5"",""8871""
","
",758.75499995891,NA,49,NA,NA,3000,1,NA,NA,images/earth.jpg,images/rocket1,images/rocket2,null,images/rocket2,NA,1,real,null,1,NA,NA,NA,sub102
d3-animate-choice,217,557541,0.0-76.0-1.27,FALSE,FALSE,TRUE,TRUE,"""event"",""trial"",""time""
""fullscreenenter"",""5"",""8871""
","
","
","""event"",""trial"",""time""
""fullscreenenter"",""5"",""8871""
","
",2258.3299999823794,NA,49,NA,NA,3000,1,NA,NA,images/redplanet1.jpg,images/alien2,images/alien1,images/rocket2,images/alien1,images/t.png,2,real,true,1,common,1,2020-06-23T17:29:18Z,sub102
two-step-fixation,218,558549,0.0-76.0-2.27,FALSE,FALSE,TRUE,TRUE,"""event"",""trial"",""time""
""fullscreenenter"",""5"",""8871""
","
","
","""event"",""trial"",""time""
""fullscreenenter"",""5"",""8871""
","
",NA,images/earth.jpg,NA,NA,NA,NA,NA,NA,NA,NA,NA,NA,NA,NA,NA,fixation,NA,NA,NA,NA,NA,NA,sub102
d3-animate-choice,219,560934,0.0-76.0-0.28,FALSE,FALSE,TRUE,TRUE,"""event"",""trial"",""time""
""fullscreenenter"",""5"",""8871""
","
","
","""event"",""trial"",""time""
""fullscreenenter"",""5"",""8871""
","
",375.8300000336021,NA,48,NA,NA,3000,1,NA,NA,images/earth.jpg,images/rocket1,images/rocket2,null,images/rocket1,NA,1,real,null,2,NA,NA,NA,sub102
d3-animate-choice,220,564946,0.0-76.0-1.28,FALSE,FALSE,TRUE,TRUE,"""event"",""trial"",""time""
""fullscreenenter"",""5"",""8871""
","
","
","""event"",""trial"",""time""
""fullscreenenter"",""5"",""8871""
","
",2071.125000016764,NA,48,NA,NA,3000,1,NA,NA,images/purpleplanet.jpg,images/alien4,images/alien3,images/rocket1,images/alien4,images/t.png,2,real,true,2,common,1,2020-06-23T17:29:25Z,sub102
two-step-fixation,221,565959,0.0-76.0-2.28,FALSE,FALSE,TRUE,TRUE,"""event"",""trial"",""time""
""fullscreenenter"",""5"",""8871""
","
","
","""event"",""trial"",""time""
""fullscreenenter"",""5"",""8871""
","
",NA,images/earth.jpg,NA,NA,NA,NA,NA,NA,NA,NA,NA,NA,NA,NA,NA,fixation,NA,NA,NA,NA,NA,NA,sub102
d3-animate-choice,222,568500,0.0-76.0-0.29,FALSE,FALSE,TRUE,TRUE,"""event"",""trial"",""time""
""fullscreenenter"",""5"",""8871""
","
","
","""event"",""trial"",""time""
""fullscreenenter"",""5"",""8871""
","
",536.1200000625104,NA,49,NA,NA,3000,1,NA,NA,images/earth.jpg,images/rocket1,images/rocket2,null,images/rocket2,NA,1,real,null,1,NA,NA,NA,sub102
d3-animate-choice,223,572510,0.0-76.0-1.29,FALSE,FALSE,TRUE,TRUE,"""event"",""trial"",""time""
""fullscreenenter"",""5"",""8871""
","
","
","""event"",""trial"",""time""
""fullscreenenter"",""5"",""8871""
","
",2275.950000039302,NA,49,NA,NA,3000,1,NA,NA,images/redplanet1.jpg,images/alien2,images/alien1,images/rocket2,images/alien1,images/t.png,2,real,true,1,common,1,2020-06-23T17:29:33Z,sub102
two-step-fixation,224,573517,0.0-76.0-2.29,FALSE,FALSE,TRUE,TRUE,"""event"",""trial"",""time""
""fullscreenenter"",""5"",""8871""
","
","
","""event"",""trial"",""time""
""fullscreenenter"",""5"",""8871""
","
",NA,images/earth.jpg,NA,NA,NA,NA,NA,NA,NA,NA,NA,NA,NA,NA,NA,fixation,NA,NA,NA,NA,NA,NA,sub102
d3-animate-choice,225,576044,0.0-76.0-0.30,FALSE,FALSE,TRUE,TRUE,"""event"",""trial"",""time""
""fullscreenenter"",""5"",""8871""
","
","
","""event"",""trial"",""time""
""fullscreenenter"",""5"",""8871""
","
",518.1800000136718,NA,48,NA,NA,3000,1,NA,NA,images/earth.jpg,images/rocket1,images/rocket2,null,images/rocket1,NA,1,real,null,2,NA,NA,NA,sub102
d3-animate-choice,226,579845,0.0-76.0-1.30,FALSE,FALSE,TRUE,TRUE,"""event"",""trial"",""time""
""fullscreenenter"",""5"",""8871""
","
","
","""event"",""trial"",""time""
""fullscreenenter"",""5"",""8871""
","
",1790.7750000013039,NA,48,NA,NA,3000,1,NA,NA,images/purpleplanet.jpg,images/alien4,images/alien3,images/rocket1,images/alien4,images/nothing.png,2,real,true,2,common,0,2020-06-23T17:29:40Z,sub102
two-step-fixation,227,580856,0.0-76.0-2.30,FALSE,FALSE,TRUE,TRUE,"""event"",""trial"",""time""
""fullscreenenter"",""5"",""8871""
","
","
","""event"",""trial"",""time""
""fullscreenenter"",""5"",""8871""
","
",NA,images/earth.jpg,NA,NA,NA,NA,NA,NA,NA,NA,NA,NA,NA,NA,NA,fixation,NA,NA,NA,NA,NA,NA,sub102
d3-animate-choice,228,583551,0.0-76.0-0.31,FALSE,FALSE,TRUE,TRUE,"""event"",""trial"",""time""
""fullscreenenter"",""5"",""8871""
","
","
","""event"",""trial"",""time""
""fullscreenenter"",""5"",""8871""
","
",689.6249999990687,NA,49,NA,NA,3000,1,NA,NA,images/earth.jpg,images/rocket1,images/rocket2,null,images/rocket2,NA,1,real,null,1,NA,NA,NA,sub102
d3-animate-choice,229,586750,0.0-76.0-1.31,FALSE,FALSE,TRUE,TRUE,"""event"",""trial"",""time""
""fullscreenenter"",""5"",""8871""
","
","
","""event"",""trial"",""time""
""fullscreenenter"",""5"",""8871""
","
",1193.7349999789149,NA,49,NA,NA,3000,1,NA,NA,images/redplanet1.jpg,images/alien2,images/alien1,images/rocket2,images/alien1,images/t.png,2,real,true,1,common,1,2020-06-23T17:29:47Z,sub102
two-step-fixation,230,587759,0.0-76.0-2.31,FALSE,FALSE,TRUE,TRUE,"""event"",""trial"",""time""
""fullscreenenter"",""5"",""8871""
","
","
","""event"",""trial"",""time""
""fullscreenenter"",""5"",""8871""
","
",NA,images/earth.jpg,NA,NA,NA,NA,NA,NA,NA,NA,NA,NA,NA,NA,NA,fixation,NA,NA,NA,NA,NA,NA,sub102
d3-animate-choice,231,590511,0.0-76.0-0.32,FALSE,FALSE,TRUE,TRUE,"""event"",""trial"",""time""
""fullscreenenter"",""5"",""8871""
","
","
","""event"",""trial"",""time""
""fullscreenenter"",""5"",""8871""
","
",746.1249999469146,NA,49,NA,NA,3000,1,NA,NA,images/earth.jpg,images/rocket1,images/rocket2,null,images/rocket2,NA,1,real,null,1,NA,NA,NA,sub102
d3-animate-choice,232,593091,0.0-76.0-1.32,FALSE,FALSE,TRUE,TRUE,"""event"",""trial"",""time""
""fullscreenenter"",""5"",""8871""
","
","
","""event"",""trial"",""time""
""fullscreenenter"",""5"",""8871""
","
",573.4550000634044,NA,49,NA,NA,3000,1,NA,NA,images/redplanet1.jpg,images/alien2,images/alien1,images/rocket2,images/alien1,images/nothing.png,2,real,true,1,common,0,2020-06-23T17:29:53Z,sub102
two-step-fixation,233,594098,0.0-76.0-2.32,FALSE,FALSE,TRUE,TRUE,"""event"",""trial"",""time""
""fullscreenenter"",""5"",""8871""
","
","
","""event"",""trial"",""time""
""fullscreenenter"",""5"",""8871""
","
",NA,images/earth.jpg,NA,NA,NA,NA,NA,NA,NA,NA,NA,NA,NA,NA,NA,fixation,NA,NA,NA,NA,NA,NA,sub102
d3-animate-choice,234,596605,0.0-76.0-0.33,FALSE,FALSE,TRUE,TRUE,"""event"",""trial"",""time""
""fullscreenenter"",""5"",""8871""
","
","
","""event"",""trial"",""time""
""fullscreenenter"",""5"",""8871""
","
",497.4200000287965,NA,48,NA,NA,3000,1,NA,NA,images/earth.jpg,images/rocket1,images/rocket2,null,images/rocket1,NA,1,real,null,2,NA,NA,NA,sub102
d3-animate-choice,235,599543,0.0-76.0-1.33,FALSE,FALSE,TRUE,TRUE,"""event"",""trial"",""time""
""fullscreenenter"",""5"",""8871""
","
","
","""event"",""trial"",""time""
""fullscreenenter"",""5"",""8871""
","
",929.8249999992549,NA,48,NA,NA,3000,1,NA,NA,images/purpleplanet.jpg,images/alien4,images/alien3,images/rocket1,images/alien4,images/t.png,2,real,true,2,common,1,2020-06-23T17:30:00Z,sub102
two-step-fixation,236,600550,0.0-76.0-2.33,FALSE,FALSE,TRUE,TRUE,"""event"",""trial"",""time""
""fullscreenenter"",""5"",""8871""
","
","
","""event"",""trial"",""time""
""fullscreenenter"",""5"",""8871""
","
",NA,images/earth.jpg,NA,NA,NA,NA,NA,NA,NA,NA,NA,NA,NA,NA,NA,fixation,NA,NA,NA,NA,NA,NA,sub102
d3-animate-choice,237,602922,0.0-76.0-0.34,FALSE,FALSE,TRUE,TRUE,"""event"",""trial"",""time""
""fullscreenenter"",""5"",""8871""
","
","
","""event"",""trial"",""time""
""fullscreenenter"",""5"",""8871""
","
",361.4600000437349,NA,49,NA,NA,3000,1,NA,NA,images/earth.jpg,images/rocket1,images/rocket2,null,images/rocket2,NA,1,real,null,1,NA,NA,NA,sub102
d3-animate-choice,238,606932,0.0-76.0-1.34,FALSE,FALSE,TRUE,TRUE,"""event"",""trial"",""time""
""fullscreenenter"",""5"",""8871""
","
","
","""event"",""trial"",""time""
""fullscreenenter"",""5"",""8871""
","
",2284.535000100732,NA,49,NA,NA,3000,1,NA,NA,images/purpleplanet.jpg,images/alien4,images/alien3,images/rocket2,images/alien3,images/nothing.png,2,real,false,1,rare,0,2020-06-23T17:30:07Z,sub102
two-step-fixation,239,607938,0.0-76.0-2.34,FALSE,FALSE,TRUE,TRUE,"""event"",""trial"",""time""
""fullscreenenter"",""5"",""8871""
","
","
","""event"",""trial"",""time""
""fullscreenenter"",""5"",""8871""
","
",NA,images/earth.jpg,NA,NA,NA,NA,NA,NA,NA,NA,NA,NA,NA,NA,NA,fixation,NA,NA,NA,NA,NA,NA,sub102
d3-animate-choice,240,610301,0.0-76.0-0.35,FALSE,FALSE,TRUE,TRUE,"""event"",""trial"",""time""
""fullscreenenter"",""5"",""8871""
","
","
","""event"",""trial"",""time""
""fullscreenenter"",""5"",""8871""
","
",357.7400000067428,NA,48,NA,NA,3000,1,NA,NA,images/earth.jpg,images/rocket1,images/rocket2,null,images/rocket1,NA,1,real,null,2,NA,NA,NA,sub102
d3-animate-choice,241,612996,0.0-76.0-1.35,FALSE,FALSE,TRUE,TRUE,"""event"",""trial"",""time""
""fullscreenenter"",""5"",""8871""
","
","
","""event"",""trial"",""time""
""fullscreenenter"",""5"",""8871""
","
",684.3149999622256,NA,48,NA,NA,3000,1,NA,NA,images/purpleplanet.jpg,images/alien4,images/alien3,images/rocket1,images/alien4,images/t.png,2,real,true,2,common,1,2020-06-23T17:30:13Z,sub102
two-step-fixation,242,614005,0.0-76.0-2.35,FALSE,FALSE,TRUE,TRUE,"""event"",""trial"",""time""
""fullscreenenter"",""5"",""8871""
","
","
","""event"",""trial"",""time""
""fullscreenenter"",""5"",""8871""
","
",NA,images/earth.jpg,NA,NA,NA,NA,NA,NA,NA,NA,NA,NA,NA,NA,NA,fixation,NA,NA,NA,NA,NA,NA,sub102
d3-animate-choice,243,616763,0.0-76.0-0.36,FALSE,FALSE,TRUE,TRUE,"""event"",""trial"",""time""
""fullscreenenter"",""5"",""8871""
","
","
","""event"",""trial"",""time""
""fullscreenenter"",""5"",""8871""
","
",751.3299999991432,NA,48,NA,NA,3000,1,NA,NA,images/earth.jpg,images/rocket1,images/rocket2,null,images/rocket1,NA,1,real,null,2,NA,NA,NA,sub102
d3-animate-choice,244,619456,0.0-76.0-1.36,FALSE,FALSE,TRUE,TRUE,"""event"",""trial"",""time""
""fullscreenenter"",""5"",""8871""
","
","
","""event"",""trial"",""time""
""fullscreenenter"",""5"",""8871""
","
",683.9749999344349,NA,48,NA,NA,3000,1,NA,NA,images/purpleplanet.jpg,images/alien4,images/alien3,images/rocket1,images/alien4,images/nothing.png,2,real,true,2,common,0,2020-06-23T17:30:20Z,sub102
two-step-fixation,245,620466,0.0-76.0-2.36,FALSE,FALSE,TRUE,TRUE,"""event"",""trial"",""time""
""fullscreenenter"",""5"",""8871""
","
","
","""event"",""trial"",""time""
""fullscreenenter"",""5"",""8871""
","
",NA,images/earth.jpg,NA,NA,NA,NA,NA,NA,NA,NA,NA,NA,NA,NA,NA,fixation,NA,NA,NA,NA,NA,NA,sub102
d3-animate-choice,246,622512,0.0-76.0-0.37,FALSE,FALSE,TRUE,TRUE,"""event"",""trial"",""time""
""fullscreenenter"",""5"",""8871""
","
","
","""event"",""trial"",""time""
""fullscreenenter"",""5"",""8871""
","
",40.30999995302409,NA,49,NA,NA,3000,1,NA,NA,images/earth.jpg,images/rocket1,images/rocket2,null,images/rocket2,NA,1,real,null,1,NA,NA,NA,sub102
d3-animate-choice,247,625412,0.0-76.0-1.37,FALSE,FALSE,TRUE,TRUE,"""event"",""trial"",""time""
""fullscreenenter"",""5"",""8871""
","
","
","""event"",""trial"",""time""
""fullscreenenter"",""5"",""8871""
","
",894.1549999872223,NA,49,NA,NA,3000,1,NA,NA,images/redplanet1.jpg,images/alien2,images/alien1,images/rocket2,images/alien1,images/t.png,2,real,true,1,common,1,2020-06-23T17:30:26Z,sub102
two-step-fixation,248,626420,0.0-76.0-2.37,FALSE,FALSE,TRUE,TRUE,"""event"",""trial"",""time""
""fullscreenenter"",""5"",""8871""
","
","
","""event"",""trial"",""time""
""fullscreenenter"",""5"",""8871""
","
",NA,images/earth.jpg,NA,NA,NA,NA,NA,NA,NA,NA,NA,NA,NA,NA,NA,fixation,NA,NA,NA,NA,NA,NA,sub102
d3-animate-choice,249,628474,0.0-76.0-0.38,FALSE,FALSE,TRUE,TRUE,"""event"",""trial"",""time""
""fullscreenenter"",""5"",""8871""
","
","
","""event"",""trial"",""time""
""fullscreenenter"",""5"",""8871""
","
",45.559999998658895,NA,48,NA,NA,3000,1,NA,NA,images/earth.jpg,images/rocket1,images/rocket2,null,images/rocket1,NA,1,real,null,2,NA,NA,NA,sub102
d3-animate-choice,250,631833,0.0-76.0-1.38,FALSE,FALSE,TRUE,TRUE,"""event"",""trial"",""time""
""fullscreenenter"",""5"",""8871""
","
","
","""event"",""trial"",""time""
""fullscreenenter"",""5"",""8871""
","
",1351.6100000124425,NA,49,NA,NA,3000,1,NA,NA,images/redplanet1.jpg,images/alien2,images/alien1,images/rocket1,images/alien1,images/t.png,2,real,false,1,rare,1,2020-06-23T17:30:32Z,sub102
two-step-fixation,251,632842,0.0-76.0-2.38,FALSE,FALSE,TRUE,TRUE,"""event"",""trial"",""time""
""fullscreenenter"",""5"",""8871""
","
","
","""event"",""trial"",""time""
""fullscreenenter"",""5"",""8871""
","
",NA,images/earth.jpg,NA,NA,NA,NA,NA,NA,NA,NA,NA,NA,NA,NA,NA,fixation,NA,NA,NA,NA,NA,NA,sub102
d3-animate-choice,252,636751,0.0-76.0-0.39,FALSE,FALSE,TRUE,TRUE,"""event"",""trial"",""time""
""fullscreenenter"",""5"",""8871""
","
","
","""event"",""trial"",""time""
""fullscreenenter"",""5"",""8871""
","
",1895.490000024438,NA,49,NA,NA,3000,1,NA,NA,images/earth.jpg,images/rocket1,images/rocket2,null,images/rocket2,NA,1,real,null,1,NA,NA,NA,sub102
d3-animate-choice,253,640758,0.0-76.0-1.39,FALSE,FALSE,TRUE,TRUE,"""event"",""trial"",""time""
""fullscreenenter"",""5"",""8871""
","
","
","""event"",""trial"",""time""
""fullscreenenter"",""5"",""8871""
","
",2436.005000025034,NA,49,NA,NA,3000,1,NA,NA,images/purpleplanet.jpg,images/alien4,images/alien3,images/rocket2,images/alien3,images/nothing.png,2,real,false,1,rare,0,2020-06-23T17:30:41Z,sub102
two-step-fixation,254,641769,0.0-76.0-2.39,FALSE,FALSE,TRUE,TRUE,"""event"",""trial"",""time""
""fullscreenenter"",""5"",""8871""
","
","
","""event"",""trial"",""time""
""fullscreenenter"",""5"",""8871""
","
",NA,images/earth.jpg,NA,NA,NA,NA,NA,NA,NA,NA,NA,NA,NA,NA,NA,fixation,NA,NA,NA,NA,NA,NA,sub102
d3-animate-choice,255,645778,0.0-76.0-0.40,FALSE,FALSE,TRUE,TRUE,"""event"",""trial"",""time""
""fullscreenenter"",""5"",""8871""
","
","
","""event"",""trial"",""time""
""fullscreenenter"",""5"",""8871""
","
",2519.1549999872223,NA,48,NA,NA,3000,1,NA,NA,images/earth.jpg,images/rocket1,images/rocket2,null,images/rocket1,NA,1,real,null,2,NA,NA,NA,sub102
d3-animate-choice,256,649158,0.0-76.0-1.40,FALSE,FALSE,TRUE,TRUE,"""event"",""trial"",""time""
""fullscreenenter"",""5"",""8871""
","
","
","""event"",""trial"",""time""
""fullscreenenter"",""5"",""8871""
","
",1369.204999995418,NA,48,NA,NA,3000,1,NA,NA,images/purpleplanet.jpg,images/alien4,images/alien3,images/rocket1,images/alien4,images/t.png,2,real,true,2,common,1,2020-06-23T17:30:49Z,sub102
two-step-fixation,257,650163,0.0-76.0-2.40,FALSE,FALSE,TRUE,TRUE,"""event"",""trial"",""time""
""fullscreenenter"",""5"",""8871""
","
","
","""event"",""trial"",""time""
""fullscreenenter"",""5"",""8871""
","
",NA,images/earth.jpg,NA,NA,NA,NA,NA,NA,NA,NA,NA,NA,NA,NA,NA,fixation,NA,NA,NA,NA,NA,NA,sub102
d3-animate-choice,258,653397,0.0-76.0-0.41,FALSE,FALSE,TRUE,TRUE,"""event"",""trial"",""time""
""fullscreenenter"",""5"",""8871""
","
","
","""event"",""trial"",""time""
""fullscreenenter"",""5"",""8871""
","
",1224.2499999701977,NA,49,NA,NA,3000,1,NA,NA,images/earth.jpg,images/rocket1,images/rocket2,null,images/rocket2,NA,1,real,null,1,NA,NA,NA,sub102
d3-animate-choice,259,656457,0.0-76.0-1.41,FALSE,FALSE,TRUE,TRUE,"""event"",""trial"",""time""
""fullscreenenter"",""5"",""8871""
","
","
","""event"",""trial"",""time""
""fullscreenenter"",""5"",""8871""
","
",1050.66499998793,NA,49,NA,NA,3000,1,NA,NA,images/purpleplanet.jpg,images/alien4,images/alien3,images/rocket2,images/alien3,images/t.png,2,real,false,1,rare,1,2020-06-23T17:30:57Z,sub102
two-step-fixation,260,657466,0.0-76.0-2.41,FALSE,FALSE,TRUE,TRUE,"""event"",""trial"",""time""
""fullscreenenter"",""5"",""8871""
","
","
","""event"",""trial"",""time""
""fullscreenenter"",""5"",""8871""
","
",NA,images/earth.jpg,NA,NA,NA,NA,NA,NA,NA,NA,NA,NA,NA,NA,NA,fixation,NA,NA,NA,NA,NA,NA,sub102
d3-animate-choice,261,661471,0.0-76.0-0.42,FALSE,FALSE,TRUE,TRUE,"""event"",""trial"",""time""
""fullscreenenter"",""5"",""8871""
","
","
","""event"",""trial"",""time""
""fullscreenenter"",""5"",""8871""
","
",2601.0700000915676,NA,48,NA,NA,3000,1,NA,NA,images/earth.jpg,images/rocket1,images/rocket2,null,images/rocket1,NA,1,real,null,2,NA,NA,NA,sub102
d3-animate-choice,262,664639,0.0-76.0-1.42,FALSE,FALSE,TRUE,TRUE,"""event"",""trial"",""time""
""fullscreenenter"",""5"",""8871""
","
","
","""event"",""trial"",""time""
""fullscreenenter"",""5"",""8871""
","
",1155.2000000374392,NA,49,NA,NA,3000,1,NA,NA,images/redplanet1.jpg,images/alien2,images/alien1,images/rocket1,images/alien1,images/nothing.png,2,real,false,1,rare,0,2020-06-23T17:31:05Z,sub102
two-step-fixation,263,665646,0.0-76.0-2.42,FALSE,FALSE,TRUE,TRUE,"""event"",""trial"",""time""
""fullscreenenter"",""5"",""8871""
","
","
","""event"",""trial"",""time""
""fullscreenenter"",""5"",""8871""
","
",NA,images/earth.jpg,NA,NA,NA,NA,NA,NA,NA,NA,NA,NA,NA,NA,NA,fixation,NA,NA,NA,NA,NA,NA,sub102
d3-animate-choice,264,667937,0.0-76.0-0.43,FALSE,FALSE,TRUE,TRUE,"""event"",""trial"",""time""
""fullscreenenter"",""5"",""8871""
","
","
","""event"",""trial"",""time""
""fullscreenenter"",""5"",""8871""
","
",280.8799999766052,NA,49,NA,NA,3000,1,NA,NA,images/earth.jpg,images/rocket1,images/rocket2,null,images/rocket2,NA,1,real,null,1,NA,NA,NA,sub102
d3-animate-choice,265,671946,0.0-76.0-1.43,FALSE,FALSE,TRUE,TRUE,"""event"",""trial"",""time""
""fullscreenenter"",""5"",""8871""
","
","
","""event"",""trial"",""time""
""fullscreenenter"",""5"",""8871""
","
",2039.83500006143,NA,48,NA,NA,3000,1,NA,NA,images/redplanet1.jpg,images/alien2,images/alien1,images/rocket2,images/alien2,images/t.png,2,real,true,2,common,1,2020-06-23T17:31:12Z,sub102
two-step-fixation,266,672952,0.0-76.0-2.43,FALSE,FALSE,TRUE,TRUE,"""event"",""trial"",""time""
""fullscreenenter"",""5"",""8871""
","
","
","""event"",""trial"",""time""
""fullscreenenter"",""5"",""8871""
","
",NA,images/earth.jpg,NA,NA,NA,NA,NA,NA,NA,NA,NA,NA,NA,NA,NA,fixation,NA,NA,NA,NA,NA,NA,sub102
d3-animate-choice,267,675592,0.0-76.0-0.44,FALSE,FALSE,TRUE,TRUE,"""event"",""trial"",""time""
""fullscreenenter"",""5"",""8871""
","
","
","""event"",""trial"",""time""
""fullscreenenter"",""5"",""8871""
","
",634.4100000569597,NA,49,NA,NA,3000,1,NA,NA,images/earth.jpg,images/rocket1,images/rocket2,null,images/rocket2,NA,1,real,null,1,NA,NA,NA,sub102
d3-animate-choice,268,679289,0.0-76.0-1.44,FALSE,FALSE,TRUE,TRUE,"""event"",""trial"",""time""
""fullscreenenter"",""5"",""8871""
","
","
","""event"",""trial"",""time""
""fullscreenenter"",""5"",""8871""
","
",1684.7800000105053,NA,49,NA,NA,3000,1,NA,NA,images/purpleplanet.jpg,images/alien4,images/alien3,images/rocket2,images/alien3,images/t.png,2,real,false,1,rare,1,2020-06-23T17:31:20Z,sub102
two-step-fixation,269,680298,0.0-76.0-2.44,FALSE,FALSE,TRUE,TRUE,"""event"",""trial"",""time""
""fullscreenenter"",""5"",""8871""
","
","
","""event"",""trial"",""time""
""fullscreenenter"",""5"",""8871""
","
",NA,images/earth.jpg,NA,NA,NA,NA,NA,NA,NA,NA,NA,NA,NA,NA,NA,fixation,NA,NA,NA,NA,NA,NA,sub102
d3-animate-choice,270,682803,0.0-76.0-0.45,FALSE,FALSE,TRUE,TRUE,"""event"",""trial"",""time""
""fullscreenenter"",""5"",""8871""
","
","
","""event"",""trial"",""time""
""fullscreenenter"",""5"",""8871""
","
",498.81499994080514,NA,48,NA,NA,3000,1,NA,NA,images/earth.jpg,images/rocket1,images/rocket2,null,images/rocket1,NA,1,real,null,2,NA,NA,NA,sub102
d3-animate-choice,271,685962,0.0-76.0-1.45,FALSE,FALSE,TRUE,TRUE,"""event"",""trial"",""time""
""fullscreenenter"",""5"",""8871""
","
","
","""event"",""trial"",""time""
""fullscreenenter"",""5"",""8871""
","
",1153.5750000039116,NA,48,NA,NA,3000,1,NA,NA,images/purpleplanet.jpg,images/alien4,images/alien3,images/rocket1,images/alien4,images/nothing.png,2,real,true,2,common,0,2020-06-23T17:31:26Z,sub102
two-step-fixation,272,686970,0.0-76.0-2.45,FALSE,FALSE,TRUE,TRUE,"""event"",""trial"",""time""
""fullscreenenter"",""5"",""8871""
","
","
","""event"",""trial"",""time""
""fullscreenenter"",""5"",""8871""
","
",NA,images/earth.jpg,NA,NA,NA,NA,NA,NA,NA,NA,NA,NA,NA,NA,NA,fixation,NA,NA,NA,NA,NA,NA,sub102
d3-animate-choice,273,689188,0.0-76.0-0.46,FALSE,FALSE,TRUE,TRUE,"""event"",""trial"",""time""
""fullscreenenter"",""5"",""8871""
","
","
","""event"",""trial"",""time""
""fullscreenenter"",""5"",""8871""
","
",205.78499999828637,NA,49,NA,NA,3000,1,NA,NA,images/earth.jpg,images/rocket1,images/rocket2,null,images/rocket2,NA,1,real,null,1,NA,NA,NA,sub102
d3-animate-choice,274,692258,0.0-76.0-1.46,FALSE,FALSE,TRUE,TRUE,"""event"",""trial"",""time""
""fullscreenenter"",""5"",""8871""
","
","
","""event"",""trial"",""time""
""fullscreenenter"",""5"",""8871""
","
",1059.1049999929965,NA,49,NA,NA,3000,1,NA,NA,images/redplanet1.jpg,images/alien2,images/alien1,images/rocket2,images/alien1,images/t.png,2,real,true,1,common,1,2020-06-23T17:31:33Z,sub102
two-step-fixation,275,693268,0.0-76.0-2.46,FALSE,FALSE,TRUE,TRUE,"""event"",""trial"",""time""
""fullscreenenter"",""5"",""8871""
","
","
","""event"",""trial"",""time""
""fullscreenenter"",""5"",""8871""
","
",NA,images/earth.jpg,NA,NA,NA,NA,NA,NA,NA,NA,NA,NA,NA,NA,NA,fixation,NA,NA,NA,NA,NA,NA,sub102
d3-animate-choice,276,697270,0.0-76.0-0.47,FALSE,FALSE,TRUE,TRUE,"""event"",""trial"",""time""
""fullscreenenter"",""5"",""8871""
","
","
","""event"",""trial"",""time""
""fullscreenenter"",""5"",""8871""
","
