trial_type,trial_index,time_elapsed,internal_node_id,rocket_sides,red_planet_first_rocket,red_display_order,purple_display_order,interactions,blur_events,focus_events,fullscreenenter_events,fullscreenexit_events,rt,stimulus,key_press,button_pressed,success,duration,valid_pressed,rts,keys,planet_text,right_text,left_text,center_text,chosen_text,reward_text,trial_stage,practice_trial,transition_type,choice,transition,reward,timestamp,subject_id
pavlovia,0,3,0.0-0.0,FALSE,TRUE,TRUE,TRUE,"
","
","
","
","
",NA,NA,NA,NA,NA,NA,NA,NA,NA,NA,NA,NA,NA,NA,NA,NA,NA,NA,NA,NA,NA,NA,sub54
html-keyboard-response,1,1862,0.0-1.0,FALSE,TRUE,TRUE,TRUE,"
","
","
","
","
",1857.205000007525,Welcome! Press the space bar to begin.,32,NA,NA,NA,NA,NA,NA,NA,NA,NA,NA,NA,NA,NA,NA,NA,NA,NA,NA,NA,sub54
audio-keyboard-response,2,3580,0.0-2.0,FALSE,TRUE,TRUE,TRUE,"
","
","
","
","
",1371,audio/beep_loop.wav,32,NA,NA,NA,NA,NA,NA,NA,NA,NA,NA,NA,NA,NA,NA,NA,NA,NA,NA,NA,sub54
audio-button-response,3,6113,0.0-3.0,FALSE,TRUE,TRUE,TRUE,"
","
","
","
","
",NaN,audio/fish.mp3,NA,1,NA,NA,NA,NA,NA,NA,NA,NA,NA,NA,NA,NA,NA,NA,NA,NA,NA,NA,sub54
audio-button-response,4,9013,0.0-4.0,FALSE,TRUE,TRUE,TRUE,"""event"",""trial"",""time""
""fullscreenenter"",""5"",""16440""
","
","
","""event"",""trial"",""time""
""fullscreenenter"",""5"",""16440""
","
",NaN,audio/tiger.mp3,NA,4,NA,NA,NA,NA,NA,NA,NA,NA,NA,NA,NA,NA,NA,NA,NA,NA,NA,NA,sub54
fullscreen,5,17427,0.0-5.0,FALSE,TRUE,TRUE,TRUE,"""event"",""trial"",""time""
""fullscreenenter"",""5"",""16440""
","
","
","""event"",""trial"",""time""
""fullscreenenter"",""5"",""16440""
","
",NA,NA,NA,NA,TRUE,NA,NA,NA,NA,NA,NA,NA,NA,NA,NA,NA,NA,NA,NA,NA,NA,NA,sub54
d3-instructions,6,31229,0.0-6.0,FALSE,TRUE,TRUE,TRUE,"""event"",""trial"",""time""
""fullscreenenter"",""5"",""16440""
","
","
","""event"",""trial"",""time""
""fullscreenenter"",""5"",""16440""
","
",NA,NA,NA,NA,NA,NA,NA,NA,NA,NA,NA,NA,NA,NA,NA,NA,NA,NA,NA,NA,NA,NA,sub54
d3-instructions,7,39269,0.0-7.0,FALSE,TRUE,TRUE,TRUE,"""event"",""trial"",""time""
""fullscreenenter"",""5"",""16440""
","
","
","""event"",""trial"",""time""
""fullscreenenter"",""5"",""16440""
","
",NA,NA,NA,NA,NA,NA,NA,NA,NA,NA,NA,NA,NA,NA,NA,NA,NA,NA,NA,NA,NA,NA,sub54
d3-instructions,8,46492,0.0-8.0,FALSE,TRUE,TRUE,TRUE,"""event"",""trial"",""time""
""fullscreenenter"",""5"",""16440""
","
","
","""event"",""trial"",""time""
""fullscreenenter"",""5"",""16440""
","
",NA,NA,NA,NA,NA,NA,NA,NA,NA,NA,NA,NA,NA,NA,NA,NA,NA,NA,NA,NA,NA,NA,sub54
d3-instructions,9,57397,0.0-9.0,FALSE,TRUE,TRUE,TRUE,"""event"",""trial"",""time""
""fullscreenenter"",""5"",""16440""
","
","
","""event"",""trial"",""time""
""fullscreenenter"",""5"",""16440""
","
",NA,NA,NA,NA,NA,NA,NA,NA,NA,NA,NA,NA,NA,NA,NA,NA,NA,NA,NA,NA,NA,NA,sub54
d3-instructions,10,76725,0.0-10.0,FALSE,TRUE,TRUE,TRUE,"""event"",""trial"",""time""
""fullscreenenter"",""5"",""16440""
","
","
","""event"",""trial"",""time""
""fullscreenenter"",""5"",""16440""
","
",NA,NA,NA,NA,NA,NA,NA,NA,NA,NA,NA,NA,NA,NA,NA,NA,NA,NA,NA,NA,NA,NA,sub54
d3-animate-choice,11,79618,0.0-11.0,FALSE,TRUE,TRUE,TRUE,"""event"",""trial"",""time""
""fullscreenenter"",""5"",""16440""
","
","
","""event"",""trial"",""time""
""fullscreenenter"",""5"",""16440""
","
",880.4100000415929,NA,49,NA,NA,3000,1,NA,NA,images/tutgreenplanet.jpg,images/tutalien1,images/tutalien2,null,images/tutalien2,NA,NA,practice,null,NA,NA,NA,NA,sub54
d3-animate-choice,12,82653,0.0-12.0,FALSE,TRUE,TRUE,TRUE,"""event"",""trial"",""time""
""fullscreenenter"",""5"",""16440""
","
","
","""event"",""trial"",""time""
""fullscreenenter"",""5"",""16440""
","
",1030.6799999671057,NA,48,NA,NA,3000,1,NA,NA,images/tutgreenplanet.jpg,images/tutalien1,images/tutalien2,null,images/tutalien1,NA,NA,practice,null,NA,NA,NA,NA,sub54
d3-animate-choice,13,85245,0.0-13.0,FALSE,TRUE,TRUE,TRUE,"""event"",""trial"",""time""
""fullscreenenter"",""5"",""16440""
","
","
","""event"",""trial"",""time""
""fullscreenenter"",""5"",""16440""
","
",585.8749999897555,NA,49,NA,NA,3000,1,NA,NA,images/tutgreenplanet.jpg,images/tutalien1,images/tutalien2,null,images/tutalien2,NA,NA,practice,null,NA,NA,NA,NA,sub54
d3-animate-choice,14,91358,0.0-14.0,FALSE,TRUE,TRUE,TRUE,"""event"",""trial"",""time""
""fullscreenenter"",""5"",""16440""
","
","
","""event"",""trial"",""time""
""fullscreenenter"",""5"",""16440""
","
",4108.799999987241,NA,49,NA,NA,3000,1,NA,NA,images/tutgreenplanet.jpg,images/tutalien1,images/tutalien2,null,images/tutalien2,NA,NA,practice,null,NA,NA,NA,NA,sub54
d3-instructions,15,99566,0.0-15.0,FALSE,TRUE,TRUE,TRUE,"""event"",""trial"",""time""
""fullscreenenter"",""5"",""16440""
","
","
","""event"",""trial"",""time""
""fullscreenenter"",""5"",""16440""
","
",NA,NA,NA,NA,NA,NA,NA,NA,NA,NA,NA,NA,NA,NA,NA,NA,NA,NA,NA,NA,NA,NA,sub54
d3-instructions,16,108389,0.0-16.0,FALSE,TRUE,TRUE,TRUE,"""event"",""trial"",""time""
""fullscreenenter"",""5"",""16440""
","
","
","""event"",""trial"",""time""
""fullscreenenter"",""5"",""16440""
","
",NA,NA,NA,NA,NA,NA,NA,NA,NA,NA,NA,NA,NA,NA,NA,NA,NA,NA,NA,NA,NA,NA,sub54
d3-instructions,17,117766,0.0-17.0,FALSE,TRUE,TRUE,TRUE,"""event"",""trial"",""time""
""fullscreenenter"",""5"",""16440""
","
","
","""event"",""trial"",""time""
""fullscreenenter"",""5"",""16440""
","
",NA,NA,NA,NA,NA,NA,NA,NA,NA,NA,NA,NA,NA,NA,NA,NA,NA,NA,NA,NA,NA,NA,sub54
d3-instructions,18,131125,0.0-18.0,FALSE,TRUE,TRUE,TRUE,"""event"",""trial"",""time""
""fullscreenenter"",""5"",""16440""
","
","
","""event"",""trial"",""time""
""fullscreenenter"",""5"",""16440""
","
",NA,NA,NA,NA,NA,NA,NA,NA,NA,NA,NA,NA,NA,NA,NA,NA,NA,NA,NA,NA,NA,NA,sub54
d3-instructions,19,144837,0.0-19.0,FALSE,TRUE,TRUE,TRUE,"""event"",""trial"",""time""
""fullscreenenter"",""5"",""16440""
","
","
","""event"",""trial"",""time""
""fullscreenenter"",""5"",""16440""
","
",NA,NA,NA,NA,NA,NA,NA,NA,NA,NA,NA,NA,NA,NA,NA,NA,NA,NA,NA,NA,NA,NA,sub54
d3-animate-choice,20,147557,0.0-20.0,FALSE,TRUE,TRUE,TRUE,"""event"",""trial"",""time""
""fullscreenenter"",""5"",""16440""
","
","
","""event"",""trial"",""time""
""fullscreenenter"",""5"",""16440""
","
",715.0200000032783,NA,49,NA,NA,3000,1,NA,NA,images/tutyellowplanet.jpg,null,images/tutalien3,null,images/tutalien3,images/t.png,NA,practice,null,NA,NA,NA,NA,sub54
d3-animate-choice,21,150027,0.0-21.0,FALSE,TRUE,TRUE,TRUE,"""event"",""trial"",""time""
""fullscreenenter"",""5"",""16440""
","
","
","""event"",""trial"",""time""
""fullscreenenter"",""5"",""16440""
","
",466.8850000016391,NA,49,NA,NA,3000,1,NA,NA,images/tutyellowplanet.jpg,null,images/tutalien3,null,images/tutalien3,images/nothing.png,NA,practice,null,NA,NA,NA,NA,sub54
d3-animate-choice,22,152364,0.0-22.0,FALSE,TRUE,TRUE,TRUE,"""event"",""trial"",""time""
""fullscreenenter"",""5"",""16440""
","
","
","""event"",""trial"",""time""
""fullscreenenter"",""5"",""16440""
","
",334.28000001003966,NA,49,NA,NA,3000,1,NA,NA,images/tutyellowplanet.jpg,null,images/tutalien3,null,images/tutalien3,images/nothing.png,NA,practice,null,NA,NA,NA,NA,sub54
d3-animate-choice,23,154708,0.0-23.0,FALSE,TRUE,TRUE,TRUE,"""event"",""trial"",""time""
""fullscreenenter"",""5"",""16440""
","
","
","""event"",""trial"",""time""
""fullscreenenter"",""5"",""16440""
","
",340.48000001348555,NA,49,NA,NA,3000,1,NA,NA,images/tutyellowplanet.jpg,null,images/tutalien3,null,images/tutalien3,images/t.png,NA,practice,null,NA,NA,NA,NA,sub54
d3-animate-choice,24,157470,0.0-24.0,FALSE,TRUE,TRUE,TRUE,"""event"",""trial"",""time""
""fullscreenenter"",""5"",""16440""
","
","
","""event"",""trial"",""time""
""fullscreenenter"",""5"",""16440""
","
",757.0150000392459,NA,49,NA,NA,3000,1,NA,NA,images/tutyellowplanet.jpg,null,images/tutalien3,null,images/tutalien3,images/nothing.png,NA,practice,null,NA,NA,NA,NA,sub54
d3-animate-choice,25,160093,0.0-25.0,FALSE,TRUE,TRUE,TRUE,"""event"",""trial"",""time""
""fullscreenenter"",""5"",""16440""
","
","
","""event"",""trial"",""time""
""fullscreenenter"",""5"",""16440""
","
",619.1299999481998,NA,49,NA,NA,3000,1,NA,NA,images/tutyellowplanet.jpg,null,images/tutalien3,null,images/tutalien3,images/t.png,NA,practice,null,NA,NA,NA,NA,sub54
d3-animate-choice,26,162628,0.0-26.0,FALSE,TRUE,TRUE,TRUE,"""event"",""trial"",""time""
""fullscreenenter"",""5"",""16440""
","
","
","""event"",""trial"",""time""
""fullscreenenter"",""5"",""16440""
","
",531.3350000069477,NA,49,NA,NA,3000,1,NA,NA,images/tutyellowplanet.jpg,null,images/tutalien3,null,images/tutalien3,images/t.png,NA,practice,null,NA,NA,NA,NA,sub54
d3-animate-choice,27,165022,0.0-27.0,FALSE,TRUE,TRUE,TRUE,"""event"",""trial"",""time""
""fullscreenenter"",""5"",""16440""
","
","
","""event"",""trial"",""time""
""fullscreenenter"",""5"",""16440""
","
",389.2200000118464,NA,49,NA,NA,3000,1,NA,NA,images/tutyellowplanet.jpg,null,images/tutalien3,null,images/tutalien3,images/t.png,NA,practice,null,NA,NA,NA,NA,sub54
d3-animate-choice,28,167566,0.0-28.0,FALSE,TRUE,TRUE,TRUE,"""event"",""trial"",""time""
""fullscreenenter"",""5"",""16440""
","
","
","""event"",""trial"",""time""
""fullscreenenter"",""5"",""16440""
","
",539.7999999695458,NA,49,NA,NA,3000,1,NA,NA,images/tutyellowplanet.jpg,null,images/tutalien3,null,images/tutalien3,images/t.png,NA,practice,null,NA,NA,NA,NA,sub54
d3-animate-choice,29,169973,0.0-29.0,FALSE,TRUE,TRUE,TRUE,"""event"",""trial"",""time""
""fullscreenenter"",""5"",""16440""
","
","
","""event"",""trial"",""time""
""fullscreenenter"",""5"",""16440""
","
",402.0750000490807,NA,49,NA,NA,3000,1,NA,NA,images/tutyellowplanet.jpg,null,images/tutalien3,null,images/tutalien3,images/t.png,NA,practice,null,NA,NA,NA,NA,sub54
d3-instructions,30,176708,0.0-30.0,FALSE,TRUE,TRUE,TRUE,"""event"",""trial"",""time""
""fullscreenenter"",""5"",""16440""
","
","
","""event"",""trial"",""time""
""fullscreenenter"",""5"",""16440""
","
",NA,NA,NA,NA,NA,NA,NA,NA,NA,NA,NA,NA,NA,NA,NA,NA,NA,NA,NA,NA,NA,NA,sub54
d3-instructions,31,186980,0.0-31.0,FALSE,TRUE,TRUE,TRUE,"""event"",""trial"",""time""
""fullscreenenter"",""5"",""16440""
","
","
","""event"",""trial"",""time""
""fullscreenenter"",""5"",""16440""
","
",NA,NA,NA,NA,NA,NA,NA,NA,NA,NA,NA,NA,NA,NA,NA,NA,NA,NA,NA,NA,NA,NA,sub54
d3-instructions,32,194115,0.0-32.0,FALSE,TRUE,TRUE,TRUE,"""event"",""trial"",""time""
""fullscreenenter"",""5"",""16440""
","
","
","""event"",""trial"",""time""
""fullscreenenter"",""5"",""16440""
","
",NA,NA,NA,NA,NA,NA,NA,NA,NA,NA,NA,NA,NA,NA,NA,NA,NA,NA,NA,NA,NA,NA,sub54
d3-instructions,33,205518,0.0-33.0,FALSE,TRUE,TRUE,TRUE,"""event"",""trial"",""time""
""fullscreenenter"",""5"",""16440""
","
","
","""event"",""trial"",""time""
""fullscreenenter"",""5"",""16440""
","
",NA,NA,NA,NA,NA,NA,NA,NA,NA,NA,NA,NA,NA,NA,NA,NA,NA,NA,NA,NA,NA,NA,sub54
d3-animate-choice,34,208549,0.0-34.0,FALSE,TRUE,TRUE,TRUE,"""event"",""trial"",""time""
""fullscreenenter"",""5"",""16440""
","
","
","""event"",""trial"",""time""
""fullscreenenter"",""5"",""16440""
","
",1026.5349999535829,NA,49,NA,NA,3000,1,NA,NA,images/tutgreenplanet.jpg,images/tutalien1,images/tutalien2,null,images/tutalien2,images/t.png,NA,practice,null,NA,NA,NA,NA,sub54
d3-animate-choice,35,210909,0.0-35.0,FALSE,TRUE,TRUE,TRUE,"""event"",""trial"",""time""
""fullscreenenter"",""5"",""16440""
","
","
","""event"",""trial"",""time""
""fullscreenenter"",""5"",""16440""
","
",354.8300000256859,NA,49,NA,NA,3000,1,NA,NA,images/tutgreenplanet.jpg,images/tutalien1,images/tutalien2,null,images/tutalien2,images/t.png,NA,practice,null,NA,NA,NA,NA,sub54
d3-animate-choice,36,213262,0.0-36.0,FALSE,TRUE,TRUE,TRUE,"""event"",""trial"",""time""
""fullscreenenter"",""5"",""16440""
","
","
","""event"",""trial"",""time""
""fullscreenenter"",""5"",""16440""
","
",347.33499999856576,NA,49,NA,NA,3000,1,NA,NA,images/tutgreenplanet.jpg,images/tutalien1,images/tutalien2,null,images/tutalien2,images/t.png,NA,practice,null,NA,NA,NA,NA,sub54
d3-animate-choice,37,215598,0.0-37.0,FALSE,TRUE,TRUE,TRUE,"""event"",""trial"",""time""
""fullscreenenter"",""5"",""16440""
","
","
","""event"",""trial"",""time""
""fullscreenenter"",""5"",""16440""
","
",330.2800000528805,NA,49,NA,NA,3000,1,NA,NA,images/tutgreenplanet.jpg,images/tutalien1,images/tutalien2,null,images/tutalien2,images/t.png,NA,practice,null,NA,NA,NA,NA,sub54
d3-animate-choice,38,217966,0.0-38.0,FALSE,TRUE,TRUE,TRUE,"""event"",""trial"",""time""
""fullscreenenter"",""5"",""16440""
","
","
","""event"",""trial"",""time""
""fullscreenenter"",""5"",""16440""
","
",361.9649999891408,NA,49,NA,NA,3000,1,NA,NA,images/tutgreenplanet.jpg,images/tutalien1,images/tutalien2,null,images/tutalien2,images/nothing.png,NA,practice,null,NA,NA,NA,NA,sub54
d3-animate-choice,39,220342,0.0-39.0,FALSE,TRUE,TRUE,TRUE,"""event"",""trial"",""time""
""fullscreenenter"",""5"",""16440""
","
","
","""event"",""trial"",""time""
""fullscreenenter"",""5"",""16440""
","
",370.2000000048429,NA,49,NA,NA,3000,1,NA,NA,images/tutgreenplanet.jpg,images/tutalien1,images/tutalien2,null,images/tutalien2,images/t.png,NA,practice,null,NA,NA,NA,NA,sub54
d3-animate-choice,40,223004,0.0-40.0,FALSE,TRUE,TRUE,TRUE,"""event"",""trial"",""time""
""fullscreenenter"",""5"",""16440""
","
","
","""event"",""trial"",""time""
""fullscreenenter"",""5"",""16440""
","
",658.3150000078604,NA,49,NA,NA,3000,1,NA,NA,images/tutgreenplanet.jpg,images/tutalien1,images/tutalien2,null,images/tutalien2,images/t.png,NA,practice,null,NA,NA,NA,NA,sub54
d3-animate-choice,41,225405,0.0-41.0,FALSE,TRUE,TRUE,TRUE,"""event"",""trial"",""time""
""fullscreenenter"",""5"",""16440""
","
","
","""event"",""trial"",""time""
""fullscreenenter"",""5"",""16440""
","
",396.39499998884276,NA,49,NA,NA,3000,1,NA,NA,images/tutgreenplanet.jpg,images/tutalien1,images/tutalien2,null,images/tutalien2,images/t.png,NA,practice,null,NA,NA,NA,NA,sub54
d3-animate-choice,42,227742,0.0-42.0,FALSE,TRUE,TRUE,TRUE,"""event"",""trial"",""time""
""fullscreenenter"",""5"",""16440""
","
","
","""event"",""trial"",""time""
""fullscreenenter"",""5"",""16440""
","
",332.8650000039488,NA,49,NA,NA,3000,1,NA,NA,images/tutgreenplanet.jpg,images/tutalien1,images/tutalien2,null,images/tutalien2,images/t.png,NA,practice,null,NA,NA,NA,NA,sub54
d3-animate-choice,43,230047,0.0-43.0,FALSE,TRUE,TRUE,TRUE,"""event"",""trial"",""time""
""fullscreenenter"",""5"",""16440""
","
","
","""event"",""trial"",""time""
""fullscreenenter"",""5"",""16440""
","
",299.1199999814853,NA,49,NA,NA,3000,1,NA,NA,images/tutgreenplanet.jpg,images/tutalien1,images/tutalien2,null,images/tutalien2,images/t.png,NA,practice,null,NA,NA,NA,NA,sub54
d3-instructions,44,244843,0.0-44.0,FALSE,TRUE,TRUE,TRUE,"""event"",""trial"",""time""
""fullscreenenter"",""5"",""16440""
","
","
","""event"",""trial"",""time""
""fullscreenenter"",""5"",""16440""
","
",NA,NA,NA,NA,NA,NA,NA,NA,NA,NA,NA,NA,NA,NA,NA,NA,NA,NA,NA,NA,NA,NA,sub54
d3-instructions,45,251005,0.0-45.0,FALSE,TRUE,TRUE,TRUE,"""event"",""trial"",""time""
""fullscreenenter"",""5"",""16440""
","
","
","""event"",""trial"",""time""
""fullscreenenter"",""5"",""16440""
","
",NA,NA,NA,NA,NA,NA,NA,NA,NA,NA,NA,NA,NA,NA,NA,NA,NA,NA,NA,NA,NA,NA,sub54
d3-instructions,46,255333,0.0-46.0,FALSE,TRUE,TRUE,TRUE,"""event"",""trial"",""time""
""fullscreenenter"",""5"",""16440""
","
","
","""event"",""trial"",""time""
""fullscreenenter"",""5"",""16440""
","
",NA,NA,NA,NA,NA,NA,NA,NA,NA,NA,NA,NA,NA,NA,NA,NA,NA,NA,NA,NA,NA,NA,sub54
d3-instructions,47,272373,0.0-47.0,FALSE,TRUE,TRUE,TRUE,"""event"",""trial"",""time""
""fullscreenenter"",""5"",""16440""
","
","
","""event"",""trial"",""time""
""fullscreenenter"",""5"",""16440""
","
",NA,NA,NA,NA,NA,NA,NA,NA,NA,NA,NA,NA,NA,NA,NA,NA,NA,NA,NA,NA,NA,NA,sub54
d3-instructions,48,281389,0.0-48.0,FALSE,TRUE,TRUE,TRUE,"""event"",""trial"",""time""
""fullscreenenter"",""5"",""16440""
","
","
","""event"",""trial"",""time""
""fullscreenenter"",""5"",""16440""
","
",NA,NA,NA,NA,NA,NA,NA,NA,NA,NA,NA,NA,NA,NA,NA,NA,NA,NA,NA,NA,NA,NA,sub54
d3-instructions,49,292205,0.0-49.0,FALSE,TRUE,TRUE,TRUE,"""event"",""trial"",""time""
""fullscreenenter"",""5"",""16440""
","
","
","""event"",""trial"",""time""
""fullscreenenter"",""5"",""16440""
","
",NA,NA,NA,NA,NA,NA,NA,NA,NA,NA,NA,NA,NA,NA,NA,NA,NA,NA,NA,NA,NA,NA,sub54
d3-instructions,50,300644,0.0-50.0,FALSE,TRUE,TRUE,TRUE,"""event"",""trial"",""time""
""fullscreenenter"",""5"",""16440""
","
","
","""event"",""trial"",""time""
""fullscreenenter"",""5"",""16440""
","
",NA,NA,NA,NA,NA,NA,NA,NA,NA,NA,NA,NA,NA,NA,NA,NA,NA,NA,NA,NA,NA,NA,sub54
d3-instructions,51,303221,0.0-51.0,FALSE,TRUE,TRUE,TRUE,"""event"",""trial"",""time""
""fullscreenenter"",""5"",""16440""
","
","
","""event"",""trial"",""time""
""fullscreenenter"",""5"",""16440""
","
",NA,NA,NA,NA,NA,NA,NA,NA,NA,NA,NA,NA,NA,NA,NA,NA,NA,NA,NA,NA,NA,NA,sub54
d3-instructions,52,305620,0.0-52.0,FALSE,TRUE,TRUE,TRUE,"""event"",""trial"",""time""
""fullscreenenter"",""5"",""16440""
","
","
","""event"",""trial"",""time""
""fullscreenenter"",""5"",""16440""
","
",NA,NA,NA,NA,NA,NA,NA,NA,NA,NA,NA,NA,NA,NA,NA,NA,NA,NA,NA,NA,NA,NA,sub54
d3-instructions,53,317588,0.0-53.0,FALSE,TRUE,TRUE,TRUE,"""event"",""trial"",""time""
""fullscreenenter"",""5"",""16440""
","
","
","""event"",""trial"",""time""
""fullscreenenter"",""5"",""16440""
","
",NA,NA,NA,NA,NA,NA,NA,NA,NA,NA,NA,NA,NA,NA,NA,NA,NA,NA,NA,NA,NA,NA,sub54
d3-instructions,54,330429,0.0-54.0,FALSE,TRUE,TRUE,TRUE,"""event"",""trial"",""time""
""fullscreenenter"",""5"",""16440""
","
","
","""event"",""trial"",""time""
""fullscreenenter"",""5"",""16440""
","
",NA,NA,NA,NA,NA,NA,NA,NA,NA,NA,NA,NA,NA,NA,NA,NA,NA,NA,NA,NA,NA,NA,sub54
d3-instructions,55,340581,0.0-55.0,FALSE,TRUE,TRUE,TRUE,"""event"",""trial"",""time""
""fullscreenenter"",""5"",""16440""
","
","
","""event"",""trial"",""time""
""fullscreenenter"",""5"",""16440""
","
",NA,NA,NA,NA,NA,NA,NA,NA,NA,NA,NA,NA,NA,NA,NA,NA,NA,NA,NA,NA,NA,NA,sub54
d3-instructions,56,348603,0.0-56.0,FALSE,TRUE,TRUE,TRUE,"""event"",""trial"",""time""
""fullscreenenter"",""5"",""16440""
","
","
","""event"",""trial"",""time""
""fullscreenenter"",""5"",""16440""
","
",NA,NA,NA,NA,NA,NA,NA,NA,NA,NA,NA,NA,NA,NA,NA,NA,NA,NA,NA,NA,NA,NA,sub54
d3-instructions,57,358348,0.0-57.0,FALSE,TRUE,TRUE,TRUE,"""event"",""trial"",""time""
""fullscreenenter"",""5"",""16440""
","
","
","""event"",""trial"",""time""
""fullscreenenter"",""5"",""16440""
","
",NA,NA,NA,NA,NA,NA,NA,NA,NA,NA,NA,NA,NA,NA,NA,NA,NA,NA,NA,NA,NA,NA,sub54
d3-instructions,58,371493,0.0-58.0,FALSE,TRUE,TRUE,TRUE,"""event"",""trial"",""time""
""fullscreenenter"",""5"",""16440""
","
","
","""event"",""trial"",""time""
""fullscreenenter"",""5"",""16440""
","
",NA,NA,NA,NA,NA,NA,NA,NA,NA,NA,NA,NA,NA,NA,NA,NA,NA,NA,NA,NA,NA,NA,sub54
d3-instructions,59,375996,0.0-59.0,FALSE,TRUE,TRUE,TRUE,"""event"",""trial"",""time""
""fullscreenenter"",""5"",""16440""
","
","
","""event"",""trial"",""time""
""fullscreenenter"",""5"",""16440""
","
",NA,NA,NA,NA,NA,NA,NA,NA,NA,NA,NA,NA,NA,NA,NA,NA,NA,NA,NA,NA,NA,NA,sub54
d3-instructions,60,383645,0.0-60.0,FALSE,TRUE,TRUE,TRUE,"""event"",""trial"",""time""
""fullscreenenter"",""5"",""16440""
","
","
","""event"",""trial"",""time""
""fullscreenenter"",""5"",""16440""
","
",NA,NA,NA,NA,NA,NA,NA,NA,NA,NA,NA,NA,NA,NA,NA,NA,NA,NA,NA,NA,NA,NA,sub54
d3-animate-choice,61,387214,0.0-61.0-0.0,FALSE,TRUE,TRUE,TRUE,"""event"",""trial"",""time""
""fullscreenenter"",""5"",""16440""
","
","
","""event"",""trial"",""time""
""fullscreenenter"",""5"",""16440""
","
",1561.5849999594502,NA,49,NA,NA,3000,1,NA,NA,images/earth.jpg,images/tutrocket2,images/tutrocket1,null,images/tutrocket1,NA,1,practice,null,1,NA,NA,NA,sub54
d3-animate-choice,62,390233,0.0-61.0-1.0,FALSE,TRUE,TRUE,TRUE,"""event"",""trial"",""time""
""fullscreenenter"",""5"",""16440""
","
","
","""event"",""trial"",""time""
""fullscreenenter"",""5"",""16440""
","
",1006.3999999547377,NA,49,NA,NA,3000,1,NA,NA,images/tutgreenplanet.jpg,images/tutalien2,images/tutalien1,images/tutrocket1,images/tutalien1,images/nothing.png,2,practice,true,1,common,0,2020-06-15T21:48:54Z,sub54
two-step-fixation,63,391243,0.0-61.0-2.0,FALSE,TRUE,TRUE,TRUE,"""event"",""trial"",""time""
""fullscreenenter"",""5"",""16440""
","
","
","""event"",""trial"",""time""
""fullscreenenter"",""5"",""16440""
","
",NA,images/earth.jpg,NA,NA,NA,NA,NA,NA,NA,NA,NA,NA,NA,NA,NA,fixation,NA,NA,NA,NA,NA,NA,sub54
d3-animate-choice,64,393774,0.0-61.0-0.1,FALSE,TRUE,TRUE,TRUE,"""event"",""trial"",""time""
""fullscreenenter"",""5"",""16440""
","
","
","""event"",""trial"",""time""
""fullscreenenter"",""5"",""16440""
","
",526.0450000059791,NA,48,NA,NA,3000,1,NA,NA,images/earth.jpg,images/tutrocket2,images/tutrocket1,null,images/tutrocket2,NA,1,practice,null,2,NA,NA,NA,sub54
d3-animate-choice,65,396774,0.0-61.0-1.1,FALSE,TRUE,TRUE,TRUE,"""event"",""trial"",""time""
""fullscreenenter"",""5"",""16440""
","
","
","""event"",""trial"",""time""
""fullscreenenter"",""5"",""16440""
","
",994.5449999650009,NA,48,NA,NA,3000,1,NA,NA,images/tutyellowplanet.jpg,images/tutalien4,images/tutalien3,images/tutrocket2,images/tutalien4,images/nothing.png,2,practice,true,2,common,0,2020-06-15T21:49:01Z,sub54
two-step-fixation,66,397779,0.0-61.0-2.1,FALSE,TRUE,TRUE,TRUE,"""event"",""trial"",""time""
""fullscreenenter"",""5"",""16440""
","
","
","""event"",""trial"",""time""
""fullscreenenter"",""5"",""16440""
","
",NA,images/earth.jpg,NA,NA,NA,NA,NA,NA,NA,NA,NA,NA,NA,NA,NA,fixation,NA,NA,NA,NA,NA,NA,sub54
d3-animate-choice,67,400213,0.0-61.0-0.2,FALSE,TRUE,TRUE,TRUE,"""event"",""trial"",""time""
""fullscreenenter"",""5"",""16440""
","
","
","""event"",""trial"",""time""
""fullscreenenter"",""5"",""16440""
","
",428.0699999653734,NA,49,NA,NA,3000,1,NA,NA,images/earth.jpg,images/tutrocket2,images/tutrocket1,null,images/tutrocket1,NA,1,practice,null,1,NA,NA,NA,sub54
d3-animate-choice,68,402814,0.0-61.0-1.2,FALSE,TRUE,TRUE,TRUE,"""event"",""trial"",""time""
""fullscreenenter"",""5"",""16440""
","
","
","""event"",""trial"",""time""
""fullscreenenter"",""5"",""16440""
","
",595.4599999822676,NA,48,NA,NA,3000,1,NA,NA,images/tutgreenplanet.jpg,images/tutalien2,images/tutalien1,images/tutrocket1,images/tutalien2,images/t.png,2,practice,true,2,common,1,2020-06-15T21:49:07Z,sub54
two-step-fixation,69,403821,0.0-61.0-2.2,FALSE,TRUE,TRUE,TRUE,"""event"",""trial"",""time""
""fullscreenenter"",""5"",""16440""
","
","
","""event"",""trial"",""time""
""fullscreenenter"",""5"",""16440""
","
",NA,images/earth.jpg,NA,NA,NA,NA,NA,NA,NA,NA,NA,NA,NA,NA,NA,fixation,NA,NA,NA,NA,NA,NA,sub54
d3-animate-choice,70,406373,0.0-61.0-0.3,FALSE,TRUE,TRUE,TRUE,"""event"",""trial"",""time""
""fullscreenenter"",""5"",""16440""
","
","
","""event"",""trial"",""time""
""fullscreenenter"",""5"",""16440""
","
",547.1399999805726,NA,49,NA,NA,3000,1,NA,NA,images/earth.jpg,images/tutrocket2,images/tutrocket1,null,images/tutrocket1,NA,1,practice,null,1,NA,NA,NA,sub54
d3-animate-choice,71,409230,0.0-61.0-1.3,FALSE,TRUE,TRUE,TRUE,"""event"",""trial"",""time""
""fullscreenenter"",""5"",""16440""
","
","
","""event"",""trial"",""time""
""fullscreenenter"",""5"",""16440""
","
",850.8600000059232,NA,48,NA,NA,3000,1,NA,NA,images/tutgreenplanet.jpg,images/tutalien2,images/tutalien1,images/tutrocket1,images/tutalien2,images/nothing.png,2,practice,true,2,common,0,2020-06-15T21:49:13Z,sub54
two-step-fixation,72,410237,0.0-61.0-2.3,FALSE,TRUE,TRUE,TRUE,"""event"",""trial"",""time""
""fullscreenenter"",""5"",""16440""
","
","
","""event"",""trial"",""time""
""fullscreenenter"",""5"",""16440""
","
",NA,images/earth.jpg,NA,NA,NA,NA,NA,NA,NA,NA,NA,NA,NA,NA,NA,fixation,NA,NA,NA,NA,NA,NA,sub54
d3-animate-choice,73,412605,0.0-61.0-0.4,FALSE,TRUE,TRUE,TRUE,"""event"",""trial"",""time""
""fullscreenenter"",""5"",""16440""
","
","
","""event"",""trial"",""time""
""fullscreenenter"",""5"",""16440""
","
",362.41500003961846,NA,49,NA,NA,3000,1,NA,NA,images/earth.jpg,images/tutrocket2,images/tutrocket1,null,images/tutrocket1,NA,1,practice,null,1,NA,NA,NA,sub54
d3-animate-choice,74,415116,0.0-61.0-1.4,FALSE,TRUE,TRUE,TRUE,"""event"",""trial"",""time""
""fullscreenenter"",""5"",""16440""
","
","
","""event"",""trial"",""time""
""fullscreenenter"",""5"",""16440""
","
",508.32500000251457,NA,49,NA,NA,3000,1,NA,NA,images/tutgreenplanet.jpg,images/tutalien2,images/tutalien1,images/tutrocket1,images/tutalien1,images/nothing.png,2,practice,true,1,common,0,2020-06-15T21:49:19Z,sub54
two-step-fixation,75,416122,0.0-61.0-2.4,FALSE,TRUE,TRUE,TRUE,"""event"",""trial"",""time""
""fullscreenenter"",""5"",""16440""
","
","
","""event"",""trial"",""time""
""fullscreenenter"",""5"",""16440""
","
",NA,images/earth.jpg,NA,NA,NA,NA,NA,NA,NA,NA,NA,NA,NA,NA,NA,fixation,NA,NA,NA,NA,NA,NA,sub54
d3-animate-choice,76,418557,0.0-61.0-0.5,FALSE,TRUE,TRUE,TRUE,"""event"",""trial"",""time""
""fullscreenenter"",""5"",""16440""
","
","
","""event"",""trial"",""time""
""fullscreenenter"",""5"",""16440""
","
",428.32999996608123,NA,48,NA,NA,3000,1,NA,NA,images/earth.jpg,images/tutrocket2,images/tutrocket1,null,images/tutrocket2,NA,1,practice,null,2,NA,NA,NA,sub54
d3-animate-choice,77,421054,0.0-61.0-1.5,FALSE,TRUE,TRUE,TRUE,"""event"",""trial"",""time""
""fullscreenenter"",""5"",""16440""
","
","
","""event"",""trial"",""time""
""fullscreenenter"",""5"",""16440""
","
",491.0800000070594,NA,48,NA,NA,3000,1,NA,NA,images/tutgreenplanet.jpg,images/tutalien2,images/tutalien1,images/tutrocket2,images/tutalien2,images/t.png,2,practice,false,2,rare,1,2020-06-15T21:49:25Z,sub54
two-step-fixation,78,422060,0.0-61.0-2.5,FALSE,TRUE,TRUE,TRUE,"""event"",""trial"",""time""
""fullscreenenter"",""5"",""16440""
","
","
","""event"",""trial"",""time""
""fullscreenenter"",""5"",""16440""
","
",NA,images/earth.jpg,NA,NA,NA,NA,NA,NA,NA,NA,NA,NA,NA,NA,NA,fixation,NA,NA,NA,NA,NA,NA,sub54
d3-animate-choice,79,424484,0.0-61.0-0.6,FALSE,TRUE,TRUE,TRUE,"""event"",""trial"",""time""
""fullscreenenter"",""5"",""16440""
","
","
","""event"",""trial"",""time""
""fullscreenenter"",""5"",""16440""
","
",417.6399999996647,NA,48,NA,NA,3000,1,NA,NA,images/earth.jpg,images/tutrocket2,images/tutrocket1,null,images/tutrocket2,NA,1,practice,null,2,NA,NA,NA,sub54
d3-animate-choice,80,426965,0.0-61.0-1.6,FALSE,TRUE,TRUE,TRUE,"""event"",""trial"",""time""
""fullscreenenter"",""5"",""16440""
","
","
","""event"",""trial"",""time""
""fullscreenenter"",""5"",""16440""
","
",475.2100000041537,NA,48,NA,NA,3000,1,NA,NA,images/tutgreenplanet.jpg,images/tutalien2,images/tutalien1,images/tutrocket2,images/tutalien2,images/nothing.png,2,practice,false,2,rare,0,2020-06-15T21:49:31Z,sub54
two-step-fixation,81,427972,0.0-61.0-2.6,FALSE,TRUE,TRUE,TRUE,"""event"",""trial"",""time""
""fullscreenenter"",""5"",""16440""
","
","
","""event"",""trial"",""time""
""fullscreenenter"",""5"",""16440""
","
",NA,images/earth.jpg,NA,NA,NA,NA,NA,NA,NA,NA,NA,NA,NA,NA,NA,fixation,NA,NA,NA,NA,NA,NA,sub54
d3-animate-choice,82,430341,0.0-61.0-0.7,FALSE,TRUE,TRUE,TRUE,"""event"",""trial"",""time""
""fullscreenenter"",""5"",""16440""
","
","
","""event"",""trial"",""time""
""fullscreenenter"",""5"",""16440""
","
",363.2050000014715,NA,48,NA,NA,3000,1,NA,NA,images/earth.jpg,images/tutrocket2,images/tutrocket1,null,images/tutrocket2,NA,1,practice,null,2,NA,NA,NA,sub54
d3-animate-choice,83,433054,0.0-61.0-1.7,FALSE,TRUE,TRUE,TRUE,"""event"",""trial"",""time""
""fullscreenenter"",""5"",""16440""
","
","
","""event"",""trial"",""time""
""fullscreenenter"",""5"",""16440""
","
",706.6300000296906,NA,48,NA,NA,3000,1,NA,NA,images/tutyellowplanet.jpg,images/tutalien4,images/tutalien3,images/tutrocket2,images/tutalien4,images/nothing.png,2,practice,true,2,common,0,2020-06-15T21:49:37Z,sub54
two-step-fixation,84,434060,0.0-61.0-2.7,FALSE,TRUE,TRUE,TRUE,"""event"",""trial"",""time""
""fullscreenenter"",""5"",""16440""
","
","
","""event"",""trial"",""time""
""fullscreenenter"",""5"",""16440""
","
",NA,images/earth.jpg,NA,NA,NA,NA,NA,NA,NA,NA,NA,NA,NA,NA,NA,fixation,NA,NA,NA,NA,NA,NA,sub54
d3-animate-choice,85,436358,0.0-61.0-0.8,FALSE,TRUE,TRUE,TRUE,"""event"",""trial"",""time""
""fullscreenenter"",""5"",""16440""
","
","
","""event"",""trial"",""time""
""fullscreenenter"",""5"",""16440""
","
",290.320000029169,NA,48,NA,NA,3000,1,NA,NA,images/earth.jpg,images/tutrocket2,images/tutrocket1,null,images/tutrocket2,NA,1,practice,null,2,NA,NA,NA,sub54
d3-animate-choice,86,438788,0.0-61.0-1.8,FALSE,TRUE,TRUE,TRUE,"""event"",""trial"",""time""
""fullscreenenter"",""5"",""16440""
","
","
","""event"",""trial"",""time""
""fullscreenenter"",""5"",""16440""
","
",424.41500001586974,NA,48,NA,NA,3000,1,NA,NA,images/tutyellowplanet.jpg,images/tutalien4,images/tutalien3,images/tutrocket2,images/tutalien4,images/t.png,2,practice,true,2,common,1,2020-06-15T21:49:43Z,sub54
two-step-fixation,87,439795,0.0-61.0-2.8,FALSE,TRUE,TRUE,TRUE,"""event"",""trial"",""time""
""fullscreenenter"",""5"",""16440""
","
","
","""event"",""trial"",""time""
""fullscreenenter"",""5"",""16440""
","
",NA,images/earth.jpg,NA,NA,NA,NA,NA,NA,NA,NA,NA,NA,NA,NA,NA,fixation,NA,NA,NA,NA,NA,NA,sub54
d3-animate-choice,88,442115,0.0-61.0-0.9,FALSE,TRUE,TRUE,TRUE,"""event"",""trial"",""time""
""fullscreenenter"",""5"",""16440""
","
","
","""event"",""trial"",""time""
""fullscreenenter"",""5"",""16440""
","
",314.36000001849607,NA,48,NA,NA,3000,1,NA,NA,images/earth.jpg,images/tutrocket2,images/tutrocket1,null,images/tutrocket2,NA,1,practice,null,2,NA,NA,NA,sub54
d3-animate-choice,89,444532,0.0-61.0-1.9,FALSE,TRUE,TRUE,TRUE,"""event"",""trial"",""time""
""fullscreenenter"",""5"",""16440""
","
","
","""event"",""trial"",""time""
""fullscreenenter"",""5"",""16440""
","
",414.38999999081716,NA,48,NA,NA,3000,1,NA,NA,images/tutyellowplanet.jpg,images/tutalien4,images/tutalien3,images/tutrocket2,images/tutalien4,images/nothing.png,2,practice,true,2,common,0,2020-06-15T21:49:49Z,sub54
two-step-fixation,90,445538,0.0-61.0-2.9,FALSE,TRUE,TRUE,TRUE,"""event"",""trial"",""time""
""fullscreenenter"",""5"",""16440""
","
","
","""event"",""trial"",""time""
""fullscreenenter"",""5"",""16440""
","
",NA,images/earth.jpg,NA,NA,NA,NA,NA,NA,NA,NA,NA,NA,NA,NA,NA,fixation,NA,NA,NA,NA,NA,NA,sub54
d3-animate-choice,91,447853,0.0-61.0-0.10,FALSE,TRUE,TRUE,TRUE,"""event"",""trial"",""time""
""fullscreenenter"",""5"",""16440""
","
","
","""event"",""trial"",""time""
""fullscreenenter"",""5"",""16440""
","
",309.43000002298504,NA,48,NA,NA,3000,1,NA,NA,images/earth.jpg,images/tutrocket2,images/tutrocket1,null,images/tutrocket2,NA,1,practice,null,2,NA,NA,NA,sub54
d3-animate-choice,92,450317,0.0-61.0-1.10,FALSE,TRUE,TRUE,TRUE,"""event"",""trial"",""time""
""fullscreenenter"",""5"",""16440""
","
","
","""event"",""trial"",""time""
""fullscreenenter"",""5"",""16440""
","
",458.63999996799976,NA,49,NA,NA,3000,1,NA,NA,images/tutyellowplanet.jpg,images/tutalien4,images/tutalien3,images/tutrocket2,images/tutalien3,images/t.png,2,practice,true,1,common,1,2020-06-15T21:49:54Z,sub54
two-step-fixation,93,451324,0.0-61.0-2.10,FALSE,TRUE,TRUE,TRUE,"""event"",""trial"",""time""
""fullscreenenter"",""5"",""16440""
","
","
","""event"",""trial"",""time""
""fullscreenenter"",""5"",""16440""
","
",NA,images/earth.jpg,NA,NA,NA,NA,NA,NA,NA,NA,NA,NA,NA,NA,NA,fixation,NA,NA,NA,NA,NA,NA,sub54
d3-animate-choice,94,453653,0.0-61.0-0.11,FALSE,TRUE,TRUE,TRUE,"""event"",""trial"",""time""
""fullscreenenter"",""5"",""16440""
","
","
","""event"",""trial"",""time""
""fullscreenenter"",""5"",""16440""
","
",322.76499998988584,NA,48,NA,NA,3000,1,NA,NA,images/earth.jpg,images/tutrocket2,images/tutrocket1,null,images/tutrocket2,NA,1,practice,null,2,NA,NA,NA,sub54
d3-animate-choice,95,456141,0.0-61.0-1.11,FALSE,TRUE,TRUE,TRUE,"""event"",""trial"",""time""
""fullscreenenter"",""5"",""16440""
","
","
","""event"",""trial"",""time""
""fullscreenenter"",""5"",""16440""
","
",483.0799999763258,NA,49,NA,NA,3000,1,NA,NA,images/tutyellowplanet.jpg,images/tutalien4,images/tutalien3,images/tutrocket2,images/tutalien3,images/t.png,2,practice,true,1,common,1,2020-06-15T21:50:00Z,sub54
two-step-fixation,96,457148,0.0-61.0-2.11,FALSE,TRUE,TRUE,TRUE,"""event"",""trial"",""time""
""fullscreenenter"",""5"",""16440""
","
","
","""event"",""trial"",""time""
""fullscreenenter"",""5"",""16440""
","
",NA,images/earth.jpg,NA,NA,NA,NA,NA,NA,NA,NA,NA,NA,NA,NA,NA,fixation,NA,NA,NA,NA,NA,NA,sub54
d3-animate-choice,97,460750,0.0-61.0-0.12,FALSE,TRUE,TRUE,TRUE,"""event"",""trial"",""time""
""fullscreenenter"",""5"",""16440""
","
","
","""event"",""trial"",""time""
""fullscreenenter"",""5"",""16440""
","
",307.99999996088445,NA,189,NA,NA,3000,1,1595.1699999859557,48,images/earth.jpg,images/tutrocket2,images/tutrocket1,null,images/tutrocket2,NA,1,practice,null,NA,NA,NA,NA,sub54
d3-animate-choice,98,463614,0.0-61.0-1.12,FALSE,TRUE,TRUE,TRUE,"""event"",""trial"",""time""
""fullscreenenter"",""5"",""16440""
","
","
","""event"",""trial"",""time""
""fullscreenenter"",""5"",""16440""
","
",857.1750000119209,NA,48,NA,NA,3000,1,NA,NA,images/tutgreenplanet.jpg,images/tutalien2,images/tutalien1,images/tutrocket2,images/tutalien2,images/t.png,2,practice,false,2,rare,1,2020-06-15T21:50:08Z,sub54
two-step-fixation,99,464621,0.0-61.0-2.12,FALSE,TRUE,TRUE,TRUE,"""event"",""trial"",""time""
""fullscreenenter"",""5"",""16440""
","
","
","""event"",""trial"",""time""
""fullscreenenter"",""5"",""16440""
","
",NA,images/earth.jpg,NA,NA,NA,NA,NA,NA,NA,NA,NA,NA,NA,NA,NA,fixation,NA,NA,NA,NA,NA,NA,sub54
d3-animate-choice,100,466998,0.0-61.0-0.13,FALSE,TRUE,TRUE,TRUE,"""event"",""trial"",""time""
""fullscreenenter"",""5"",""16440""
","
","
","""event"",""trial"",""time""
""fullscreenenter"",""5"",""16440""
","
",370.5099999788217,NA,48,NA,NA,3000,1,NA,NA,images/earth.jpg,images/tutrocket2,images/tutrocket1,null,images/tutrocket2,NA,1,practice,null,2,NA,NA,NA,sub54
d3-animate-choice,101,469406,0.0-61.0-1.13,FALSE,TRUE,TRUE,TRUE,"""event"",""trial"",""time""
""fullscreenenter"",""5"",""16440""
","
","
","""event"",""trial"",""time""
""fullscreenenter"",""5"",""16440""
","
",400.73500003200024,NA,49,NA,NA,3000,1,NA,NA,images/tutyellowplanet.jpg,images/tutalien4,images/tutalien3,images/tutrocket2,images/tutalien3,images/nothing.png,2,practice,true,1,common,0,2020-06-15T21:50:13Z,sub54
two-step-fixation,102,470412,0.0-61.0-2.13,FALSE,TRUE,TRUE,TRUE,"""event"",""trial"",""time""
""fullscreenenter"",""5"",""16440""
","
","
","""event"",""trial"",""time""
""fullscreenenter"",""5"",""16440""
","
",NA,images/earth.jpg,NA,NA,NA,NA,NA,NA,NA,NA,NA,NA,NA,NA,NA,fixation,NA,NA,NA,NA,NA,NA,sub54
d3-animate-choice,103,472741,0.0-61.0-0.14,FALSE,TRUE,TRUE,TRUE,"""event"",""trial"",""time""
""fullscreenenter"",""5"",""16440""
","
","
","""event"",""trial"",""time""
""fullscreenenter"",""5"",""16440""
","
",322.61500001186505,NA,48,NA,NA,3000,1,NA,NA,images/earth.jpg,images/tutrocket2,images/tutrocket1,null,images/tutrocket2,NA,1,practice,null,2,NA,NA,NA,sub54
d3-animate-choice,104,476518,0.0-61.0-1.14,FALSE,TRUE,TRUE,TRUE,"""event"",""trial"",""time""
""fullscreenenter"",""5"",""16440""
","
","
","""event"",""trial"",""time""
""fullscreenenter"",""5"",""16440""
","
",1770.1750000123866,NA,49,NA,NA,3000,1,NA,NA,images/tutyellowplanet.jpg,images/tutalien4,images/tutalien3,images/tutrocket2,images/tutalien3,images/t.png,2,practice,true,1,common,1,2020-06-15T21:50:21Z,sub54
two-step-fixation,105,477524,0.0-61.0-2.14,FALSE,TRUE,TRUE,TRUE,"""event"",""trial"",""time""
""fullscreenenter"",""5"",""16440""
","
","
","""event"",""trial"",""time""
""fullscreenenter"",""5"",""16440""
","
",NA,images/earth.jpg,NA,NA,NA,NA,NA,NA,NA,NA,NA,NA,NA,NA,NA,fixation,NA,NA,NA,NA,NA,NA,sub54
d3-animate-choice,106,480301,0.0-61.0-0.15,FALSE,TRUE,TRUE,TRUE,"""event"",""trial"",""time""
""fullscreenenter"",""5"",""16440""
","
","
","""event"",""trial"",""time""
""fullscreenenter"",""5"",""16440""
","
",771.5600000228733,NA,48,NA,NA,3000,1,NA,NA,images/earth.jpg,images/tutrocket2,images/tutrocket1,null,images/tutrocket2,NA,1,practice,null,2,NA,NA,NA,sub54
d3-animate-choice,107,482733,0.0-61.0-1.15,FALSE,TRUE,TRUE,TRUE,"""event"",""trial"",""time""
""fullscreenenter"",""5"",""16440""
","
","
","""event"",""trial"",""time""
""fullscreenenter"",""5"",""16440""
","
",426.2050000252202,NA,48,NA,NA,3000,1,NA,NA,images/tutyellowplanet.jpg,images/tutalien4,images/tutalien3,images/tutrocket2,images/tutalien4,images/t.png,2,practice,true,2,common,1,2020-06-15T21:50:27Z,sub54
two-step-fixation,108,483740,0.0-61.0-2.15,FALSE,TRUE,TRUE,TRUE,"""event"",""trial"",""time""
""fullscreenenter"",""5"",""16440""
","
","
","""event"",""trial"",""time""
""fullscreenenter"",""5"",""16440""
","
",NA,images/earth.jpg,NA,NA,NA,NA,NA,NA,NA,NA,NA,NA,NA,NA,NA,fixation,NA,NA,NA,NA,NA,NA,sub54
d3-animate-choice,109,486067,0.0-61.0-0.16,FALSE,TRUE,TRUE,TRUE,"""event"",""trial"",""time""
""fullscreenenter"",""5"",""16440""
","
","
","""event"",""trial"",""time""
""fullscreenenter"",""5"",""16440""
","
",321.17999996989965,NA,48,NA,NA,3000,1,NA,NA,images/earth.jpg,images/tutrocket2,images/tutrocket1,null,images/tutrocket2,NA,1,practice,null,2,NA,NA,NA,sub54
d3-animate-choice,110,488492,0.0-61.0-1.16,FALSE,TRUE,TRUE,TRUE,"""event"",""trial"",""time""
""fullscreenenter"",""5"",""16440""
","
","
","""event"",""trial"",""time""
""fullscreenenter"",""5"",""16440""
","
",419.01000001234934,NA,48,NA,NA,3000,1,NA,NA,images/tutyellowplanet.jpg,images/tutalien4,images/tutalien3,images/tutrocket2,images/tutalien4,images/nothing.png,2,practice,true,2,common,0,2020-06-15T21:50:32Z,sub54
two-step-fixation,111,489495,0.0-61.0-2.16,FALSE,TRUE,TRUE,TRUE,"""event"",""trial"",""time""
""fullscreenenter"",""5"",""16440""
","
","
","""event"",""trial"",""time""
""fullscreenenter"",""5"",""16440""
","
",NA,images/earth.jpg,NA,NA,NA,NA,NA,NA,NA,NA,NA,NA,NA,NA,NA,fixation,NA,NA,NA,NA,NA,NA,sub54
d3-animate-choice,112,491815,0.0-61.0-0.17,FALSE,TRUE,TRUE,TRUE,"""event"",""trial"",""time""
""fullscreenenter"",""5"",""16440""
","
","
","""event"",""trial"",""time""
""fullscreenenter"",""5"",""16440""
","
",314.1099999775179,NA,48,NA,NA,3000,1,NA,NA,images/earth.jpg,images/tutrocket2,images/tutrocket1,null,images/tutrocket2,NA,1,practice,null,2,NA,NA,NA,sub54
d3-animate-choice,113,494908,0.0-61.0-1.17,FALSE,TRUE,TRUE,TRUE,"""event"",""trial"",""time""
""fullscreenenter"",""5"",""16440""
","
","
","""event"",""trial"",""time""
""fullscreenenter"",""5"",""16440""
","
",1087.180000031367,NA,48,NA,NA,3000,1,NA,NA,images/tutgreenplanet.jpg,images/tutalien2,images/tutalien1,images/tutrocket2,images/tutalien2,images/t.png,2,practice,false,2,rare,1,2020-06-15T21:50:39Z,sub54
two-step-fixation,114,495914,0.0-61.0-2.17,FALSE,TRUE,TRUE,TRUE,"""event"",""trial"",""time""
""fullscreenenter"",""5"",""16440""
","
","
","""event"",""trial"",""time""
""fullscreenenter"",""5"",""16440""
","
",NA,images/earth.jpg,NA,NA,NA,NA,NA,NA,NA,NA,NA,NA,NA,NA,NA,fixation,NA,NA,NA,NA,NA,NA,sub54
d3-animate-choice,115,498261,0.0-61.0-0.18,FALSE,TRUE,TRUE,TRUE,"""event"",""trial"",""time""
""fullscreenenter"",""5"",""16440""
","
","
","""event"",""trial"",""time""
""fullscreenenter"",""5"",""16440""
","
",341.2100000423379,NA,48,NA,NA,3000,1,NA,NA,images/earth.jpg,images/tutrocket2,images/tutrocket1,null,images/tutrocket2,NA,1,practice,null,2,NA,NA,NA,sub54
d3-animate-choice,116,500646,0.0-61.0-1.18,FALSE,TRUE,TRUE,TRUE,"""event"",""trial"",""time""
""fullscreenenter"",""5"",""16440""
","
","
","""event"",""trial"",""time""
""fullscreenenter"",""5"",""16440""
","
",378.5500000230968,NA,49,NA,NA,3000,1,NA,NA,images/tutyellowplanet.jpg,images/tutalien4,images/tutalien3,images/tutrocket2,images/tutalien3,images/nothing.png,2,practice,true,1,common,0,2020-06-15T21:50:45Z,sub54
two-step-fixation,117,501653,0.0-61.0-2.18,FALSE,TRUE,TRUE,TRUE,"""event"",""trial"",""time""
""fullscreenenter"",""5"",""16440""
","
","
","""event"",""trial"",""time""
""fullscreenenter"",""5"",""16440""
","
",NA,images/earth.jpg,NA,NA,NA,NA,NA,NA,NA,NA,NA,NA,NA,NA,NA,fixation,NA,NA,NA,NA,NA,NA,sub54
d3-animate-choice,118,503925,0.0-61.0-0.19,FALSE,TRUE,TRUE,TRUE,"""event"",""trial"",""time""
""fullscreenenter"",""5"",""16440""
","
","
","""event"",""trial"",""time""
""fullscreenenter"",""5"",""16440""
","
",267.5499999895692,NA,48,NA,NA,3000,1,NA,NA,images/earth.jpg,images/tutrocket2,images/tutrocket1,null,images/tutrocket2,NA,1,practice,null,2,NA,NA,NA,sub54
d3-animate-choice,119,506325,0.0-61.0-1.19,FALSE,TRUE,TRUE,TRUE,"""event"",""trial"",""time""
""fullscreenenter"",""5"",""16440""
","
","
","""event"",""trial"",""time""
""fullscreenenter"",""5"",""16440""
","
",394.1750000230968,NA,49,NA,NA,3000,1,NA,NA,images/tutyellowplanet.jpg,images/tutalien4,images/tutalien3,images/tutrocket2,images/tutalien3,images/nothing.png,2,practice,true,1,common,0,2020-06-15T21:50:50Z,sub54
two-step-fixation,120,507331,0.0-61.0-2.19,FALSE,TRUE,TRUE,TRUE,"""event"",""trial"",""time""
""fullscreenenter"",""5"",""16440""
","
","
","""event"",""trial"",""time""
""fullscreenenter"",""5"",""16440""
","
",NA,images/earth.jpg,NA,NA,NA,NA,NA,NA,NA,NA,NA,NA,NA,NA,NA,fixation,NA,NA,NA,NA,NA,NA,sub54
d3-instructions,121,514661,0.0-62.0,FALSE,TRUE,TRUE,TRUE,"""event"",""trial"",""time""
""fullscreenenter"",""5"",""16440""
","
","
","""event"",""trial"",""time""
""fullscreenenter"",""5"",""16440""
","
",NA,NA,NA,NA,NA,NA,NA,NA,NA,NA,NA,NA,NA,NA,NA,NA,NA,NA,NA,NA,NA,NA,sub54
audio-keyboard-response,122,517853,0.0-63.0,FALSE,TRUE,TRUE,TRUE,"""event"",""trial"",""time""
""fullscreenenter"",""5"",""16440""
","
","
","""event"",""trial"",""time""
""fullscreenenter"",""5"",""16440""
","
",3189,audio/instructions/treasure_feedback.wav,32,NA,NA,NA,NA,NA,NA,NA,NA,NA,NA,NA,NA,NA,NA,NA,NA,NA,NA,NA,sub54
d3-instructions,123,537109,0.0-64.0,FALSE,TRUE,TRUE,TRUE,"""event"",""trial"",""time""
""fullscreenenter"",""5"",""16440""
","
","
","""event"",""trial"",""time""
""fullscreenenter"",""5"",""16440""
","
",NA,NA,NA,NA,NA,NA,NA,NA,NA,NA,NA,NA,NA,NA,NA,NA,NA,NA,NA,NA,NA,NA,sub54
d3-instructions,124,550852,0.0-65.0,FALSE,TRUE,TRUE,TRUE,"""event"",""trial"",""time""
""fullscreenenter"",""5"",""16440""
","
","
","""event"",""trial"",""time""
""fullscreenenter"",""5"",""16440""
","
",NA,NA,NA,NA,NA,NA,NA,NA,NA,NA,NA,NA,NA,NA,NA,NA,NA,NA,NA,NA,NA,NA,sub54
d3-instructions,125,577931,0.0-66.0,FALSE,TRUE,TRUE,TRUE,"""event"",""trial"",""time""
""fullscreenenter"",""5"",""16440""
","
","
","""event"",""trial"",""time""
""fullscreenenter"",""5"",""16440""
","
",NA,NA,NA,NA,NA,NA,NA,NA,NA,NA,NA,NA,NA,NA,NA,NA,NA,NA,NA,NA,NA,NA,sub54
d3-instructions,126,594870,0.0-67.0,FALSE,TRUE,TRUE,TRUE,"""event"",""trial"",""time""
""fullscreenenter"",""5"",""16440""
","
","
","""event"",""trial"",""time""
""fullscreenenter"",""5"",""16440""
","
",NA,NA,NA,NA,NA,NA,NA,NA,NA,NA,NA,NA,NA,NA,NA,NA,NA,NA,NA,NA,NA,NA,sub54
d3-instructions,127,603923,0.0-68.0,FALSE,TRUE,TRUE,TRUE,"""event"",""trial"",""time""
""fullscreenenter"",""5"",""16440""
","
","
","""event"",""trial"",""time""
""fullscreenenter"",""5"",""16440""
","
",NA,NA,NA,NA,NA,NA,NA,NA,NA,NA,NA,NA,NA,NA,NA,NA,NA,NA,NA,NA,NA,NA,sub54
instructions-quiz,128,608946,0.0-69.0,FALSE,TRUE,TRUE,TRUE,"""event"",""trial"",""time""
""fullscreenenter"",""5"",""16440""
","
","
","""event"",""trial"",""time""
""fullscreenenter"",""5"",""16440""
","
",5021.745000034571,audio/quiz/Q1_Prompt.wav,NA,1,NA,NA,NA,NA,NA,NA,NA,NA,NA,NA,NA,NA,NA,NA,NA,NA,NA,NA,sub54
audio-keyboard-response,129,618113,0.0-70.0,FALSE,TRUE,TRUE,TRUE,"""event"",""trial"",""time""
""fullscreenenter"",""5"",""16440""
","
","
","""event"",""trial"",""time""
""fullscreenenter"",""5"",""16440""
","
",null,audio/quiz/Q1_Correct.wav,null,NA,NA,NA,NA,NA,NA,NA,NA,NA,NA,NA,NA,NA,NA,NA,NA,NA,NA,NA,sub54
instructions-quiz,130,622533,0.0-71.0,FALSE,TRUE,TRUE,TRUE,"""event"",""trial"",""time""
""fullscreenenter"",""5"",""16440""
","
","
","""event"",""trial"",""time""
""fullscreenenter"",""5"",""16440""
","
",4418.370000028517,audio/quiz/Q2_Prompt.wav,NA,0,NA,NA,NA,NA,NA,NA,NA,NA,NA,NA,NA,NA,NA,NA,NA,NA,NA,NA,sub54
audio-keyboard-response,131,635403,0.0-72.0,FALSE,TRUE,TRUE,TRUE,"""event"",""trial"",""time""
""fullscreenenter"",""5"",""16440""
","
","
","""event"",""trial"",""time""
""fullscreenenter"",""5"",""16440""
","
",null,audio/quiz/Q2_Correct.wav,null,NA,NA,NA,NA,NA,NA,NA,NA,NA,NA,NA,NA,NA,NA,NA,NA,NA,NA,NA,sub54
instructions-quiz,132,639001,0.0-73.0,FALSE,TRUE,TRUE,TRUE,"""event"",""trial"",""time""
""fullscreenenter"",""5"",""16440""
","
","
","""event"",""trial"",""time""
""fullscreenenter"",""5"",""16440""
","
",3596.2299999664538,audio/quiz/Q3_Prompt.wav,NA,1,NA,NA,NA,NA,NA,NA,NA,NA,NA,NA,NA,NA,NA,NA,NA,NA,NA,NA,sub54
audio-keyboard-response,133,644804,0.0-74.0,FALSE,TRUE,TRUE,TRUE,"""event"",""trial"",""time""
""fullscreenenter"",""5"",""16440""
","
","
","""event"",""trial"",""time""
""fullscreenenter"",""5"",""16440""
","
",null,audio/quiz/Q3_Correct.wav,null,NA,NA,NA,NA,NA,NA,NA,NA,NA,NA,NA,NA,NA,NA,NA,NA,NA,NA,NA,sub54
d3-instructions,134,658772,0.0-75.0,FALSE,TRUE,TRUE,TRUE,"""event"",""trial"",""time""
""fullscreenenter"",""5"",""16440""
","
","
","""event"",""trial"",""time""
""fullscreenenter"",""5"",""16440""
","
",NA,NA,NA,NA,NA,NA,NA,NA,NA,NA,NA,NA,NA,NA,NA,NA,NA,NA,NA,NA,NA,NA,sub54
d3-animate-choice,135,661764,0.0-76.0-0.0,FALSE,TRUE,TRUE,TRUE,"""event"",""trial"",""time""
""fullscreenenter"",""5"",""16440""
","
","
","""event"",""trial"",""time""
""fullscreenenter"",""5"",""16440""
","
",985.5200000456534,NA,49,NA,NA,3000,1,NA,NA,images/earth.jpg,images/rocket1,images/rocket2,null,images/rocket2,NA,1,real,null,1,NA,NA,NA,sub54
d3-animate-choice,136,664364,0.0-76.0-1.0,FALSE,TRUE,TRUE,TRUE,"""event"",""trial"",""time""
""fullscreenenter"",""5"",""16440""
","
","
","""event"",""trial"",""time""
""fullscreenenter"",""5"",""16440""
","
",595.195000001695,NA,49,NA,NA,3000,1,NA,NA,images/redplanet1.jpg,images/alien2,images/alien1,images/rocket2,images/alien1,images/nothing.png,2,real,false,1,rare,0,2020-06-15T21:53:28Z,sub54
two-step-fixation,137,665370,0.0-76.0-2.0,FALSE,TRUE,TRUE,TRUE,"""event"",""trial"",""time""
""fullscreenenter"",""5"",""16440""
","
","
","""event"",""trial"",""time""
""fullscreenenter"",""5"",""16440""
","
",NA,images/earth.jpg,NA,NA,NA,NA,NA,NA,NA,NA,NA,NA,NA,NA,NA,fixation,NA,NA,NA,NA,NA,NA,sub54
d3-animate-choice,138,667837,0.0-76.0-0.1,FALSE,TRUE,TRUE,TRUE,"""event"",""trial"",""time""
""fullscreenenter"",""5"",""16440""
","
","
","""event"",""trial"",""time""
""fullscreenenter"",""5"",""16440""
","
",461.4150000270456,NA,49,NA,NA,3000,1,NA,NA,images/earth.jpg,images/rocket1,images/rocket2,null,images/rocket2,NA,1,real,null,1,NA,NA,NA,sub54
d3-animate-choice,139,670613,0.0-76.0-1.1,FALSE,TRUE,TRUE,TRUE,"""event"",""trial"",""time""
""fullscreenenter"",""5"",""16440""
","
","
","""event"",""trial"",""time""
""fullscreenenter"",""5"",""16440""
","
",771.9200000283308,NA,48,NA,NA,3000,1,NA,NA,images/purpleplanet.jpg,images/alien4,images/alien3,images/rocket2,images/alien4,images/t.png,2,real,true,2,common,1,2020-06-15T21:53:35Z,sub54
two-step-fixation,140,671616,0.0-76.0-2.1,FALSE,TRUE,TRUE,TRUE,"""event"",""trial"",""time""
""fullscreenenter"",""5"",""16440""
","
","
","""event"",""trial"",""time""
""fullscreenenter"",""5"",""16440""
","
",NA,images/earth.jpg,NA,NA,NA,NA,NA,NA,NA,NA,NA,NA,NA,NA,NA,fixation,NA,NA,NA,NA,NA,NA,sub54
d3-animate-choice,141,674700,0.0-76.0-0.2,FALSE,TRUE,TRUE,TRUE,"""event"",""trial"",""time""
""fullscreenenter"",""5"",""16440""
","
","
","""event"",""trial"",""time""
""fullscreenenter"",""5"",""16440""
","
",1079.845000000205,NA,48,NA,NA,3000,1,NA,NA,images/earth.jpg,images/rocket1,images/rocket2,null,images/rocket1,NA,1,real,null,2,NA,NA,NA,sub54
d3-animate-choice,142,677595,0.0-76.0-1.2,FALSE,TRUE,TRUE,TRUE,"""event"",""trial"",""time""
""fullscreenenter"",""5"",""16440""
","
","
","""event"",""trial"",""time""
""fullscreenenter"",""5"",""16440""
","
",889.5300000440329,NA,48,NA,NA,3000,1,NA,NA,images/redplanet1.jpg,images/alien2,images/alien1,images/rocket1,images/alien2,images/t.png,2,real,true,2,common,1,2020-06-15T21:53:42Z,sub54
two-step-fixation,143,678598,0.0-76.0-2.2,FALSE,TRUE,TRUE,TRUE,"""event"",""trial"",""time""
""fullscreenenter"",""5"",""16440""
","
","
","""event"",""trial"",""time""
""fullscreenenter"",""5"",""16440""
","
",NA,images/earth.jpg,NA,NA,NA,NA,NA,NA,NA,NA,NA,NA,NA,NA,NA,fixation,NA,NA,NA,NA,NA,NA,sub54
d3-animate-choice,144,681134,0.0-76.0-0.3,FALSE,TRUE,TRUE,TRUE,"""event"",""trial"",""time""
""fullscreenenter"",""5"",""16440""
","
","
","""event"",""trial"",""time""
""fullscreenenter"",""5"",""16440""
","
",530.0799999968149,NA,48,NA,NA,3000,1,NA,NA,images/earth.jpg,images/rocket1,images/rocket2,null,images/rocket1,NA,1,real,null,2,NA,NA,NA,sub54
d3-animate-choice,145,683557,0.0-76.0-1.3,FALSE,TRUE,TRUE,TRUE,"""event"",""trial"",""time""
""fullscreenenter"",""5"",""16440""
","
","
","""event"",""trial"",""time""
""fullscreenenter"",""5"",""16440""
","
",417.23500000080094,NA,48,NA,NA,3000,1,NA,NA,images/redplanet1.jpg,images/alien2,images/alien1,images/rocket1,images/alien2,images/t.png,2,real,true,2,common,1,2020-06-15T21:53:48Z,sub54
two-step-fixation,146,684562,0.0-76.0-2.3,FALSE,TRUE,TRUE,TRUE,"""event"",""trial"",""time""
""fullscreenenter"",""5"",""16440""
","
","
","""event"",""trial"",""time""
""fullscreenenter"",""5"",""16440""
","
",NA,images/earth.jpg,NA,NA,NA,NA,NA,NA,NA,NA,NA,NA,NA,NA,NA,fixation,NA,NA,NA,NA,NA,NA,sub54
d3-animate-choice,147,686924,0.0-76.0-0.4,FALSE,TRUE,TRUE,TRUE,"""event"",""trial"",""time""
""fullscreenenter"",""5"",""16440""
","
","
","""event"",""trial"",""time""
""fullscreenenter"",""5"",""16440""
","
",357.99000004772097,NA,48,NA,NA,3000,1,NA,NA,images/earth.jpg,images/rocket1,images/rocket2,null,images/rocket1,NA,1,real,null,2,NA,NA,NA,sub54
d3-animate-choice,148,689405,0.0-76.0-1.4,FALSE,TRUE,TRUE,TRUE,"""event"",""trial"",""time""
""fullscreenenter"",""5"",""16440""
","
","
","""event"",""trial"",""time""
""fullscreenenter"",""5"",""16440""
","
",475.84999998798594,NA,48,NA,NA,3000,1,NA,NA,images/redplanet1.jpg,images/alien2,images/alien1,images/rocket1,images/alien2,images/t.png,2,real,true,2,common,1,2020-06-15T21:53:53Z,sub54
two-step-fixation,149,690412,0.0-76.0-2.4,FALSE,TRUE,TRUE,TRUE,"""event"",""trial"",""time""
""fullscreenenter"",""5"",""16440""
","
","
","""event"",""trial"",""time""
""fullscreenenter"",""5"",""16440""
","
",NA,images/earth.jpg,NA,NA,NA,NA,NA,NA,NA,NA,NA,NA,NA,NA,NA,fixation,NA,NA,NA,NA,NA,NA,sub54
d3-animate-choice,150,692734,0.0-76.0-0.5,FALSE,TRUE,TRUE,TRUE,"""event"",""trial"",""time""
""fullscreenenter"",""5"",""16440""
","
","
","""event"",""trial"",""time""
""fullscreenenter"",""5"",""16440""
","
",315.50999998580664,NA,48,NA,NA,3000,1,NA,NA,images/earth.jpg,images/rocket1,images/rocket2,null,images/rocket1,NA,1,real,null,2,NA,NA,NA,sub54
d3-animate-choice,151,695229,0.0-76.0-1.5,FALSE,TRUE,TRUE,TRUE,"""event"",""trial"",""time""
""fullscreenenter"",""5"",""16440""
","
","
","""event"",""trial"",""time""
""fullscreenenter"",""5"",""16440""
","
",488.6500000138767,NA,48,NA,NA,3000,1,NA,NA,images/redplanet1.jpg,images/alien2,images/alien1,images/rocket1,images/alien2,images/nothing.png,2,real,true,2,common,0,2020-06-15T21:53:59Z,sub54
two-step-fixation,152,696236,0.0-76.0-2.5,FALSE,TRUE,TRUE,TRUE,"""event"",""trial"",""time""
""fullscreenenter"",""5"",""16440""
","
","
","""event"",""trial"",""time""
""fullscreenenter"",""5"",""16440""
","
",NA,images/earth.jpg,NA,NA,NA,NA,NA,NA,NA,NA,NA,NA,NA,NA,NA,fixation,NA,NA,NA,NA,NA,NA,sub54
d3-animate-choice,153,698734,0.0-76.0-0.6,FALSE,TRUE,TRUE,TRUE,"""event"",""trial"",""time""
""fullscreenenter"",""5"",""16440""
","
","
","""event"",""trial"",""time""
""fullscreenenter"",""5"",""16440""
","
",490.60499999905005,NA,48,NA,NA,3000,1,NA,NA,images/earth.jpg,images/rocket1,images/rocket2,null,images/rocket1,NA,1,real,null,2,NA,NA,NA,sub54
d3-animate-choice,154,701126,0.0-76.0-1.6,FALSE,TRUE,TRUE,TRUE,"""event"",""trial"",""time""
""fullscreenenter"",""5"",""16440""
","
","
","""event"",""trial"",""time""
""fullscreenenter"",""5"",""16440""
","
",385.0150000071153,NA,48,NA,NA,3000,1,NA,NA,images/redplanet1.jpg,images/alien2,images/alien1,images/rocket1,images/alien2,images/nothing.png,2,real,true,2,common,0,2020-06-15T21:54:05Z,sub54
two-step-fixation,155,702132,0.0-76.0-2.6,FALSE,TRUE,TRUE,TRUE,"""event"",""trial"",""time""
""fullscreenenter"",""5"",""16440""
","
","
","""event"",""trial"",""time""
""fullscreenenter"",""5"",""16440""
","
",NA,images/earth.jpg,NA,NA,NA,NA,NA,NA,NA,NA,NA,NA,NA,NA,NA,fixation,NA,NA,NA,NA,NA,NA,sub54
d3-animate-choice,156,704517,0.0-76.0-0.7,FALSE,TRUE,TRUE,TRUE,"""event"",""trial"",""time""
""fullscreenenter"",""5"",""16440""
","
","
","""event"",""trial"",""time""
""fullscreenenter"",""5"",""16440""
","
",379.5950000057928,NA,48,NA,NA,3000,1,NA,NA,images/earth.jpg,images/rocket1,images/rocket2,null,images/rocket1,NA,1,real,null,2,NA,NA,NA,sub54
d3-animate-choice,157,706941,0.0-76.0-1.7,FALSE,TRUE,TRUE,TRUE,"""event"",""trial"",""time""
""fullscreenenter"",""5"",""16440""
","
","
","""event"",""trial"",""time""
""fullscreenenter"",""5"",""16440""
","
",418.86999999405816,NA,48,NA,NA,3000,1,NA,NA,images/redplanet1.jpg,images/alien2,images/alien1,images/rocket1,images/alien2,images/t.png,2,real,true,2,common,1,2020-06-15T21:54:11Z,sub54
two-step-fixation,158,707947,0.0-76.0-2.7,FALSE,TRUE,TRUE,TRUE,"""event"",""trial"",""time""
""fullscreenenter"",""5"",""16440""
","
","
","""event"",""trial"",""time""
""fullscreenenter"",""5"",""16440""
","
",NA,images/earth.jpg,NA,NA,NA,NA,NA,NA,NA,NA,NA,NA,NA,NA,NA,fixation,NA,NA,NA,NA,NA,NA,sub54
d3-animate-choice,159,710366,0.0-76.0-0.8,FALSE,TRUE,TRUE,TRUE,"""event"",""trial"",""time""
""fullscreenenter"",""5"",""16440""
","
","
","""event"",""trial"",""time""
""fullscreenenter"",""5"",""16440""
","
",411.29499999806285,NA,48,NA,NA,3000,1,NA,NA,images/earth.jpg,images/rocket1,images/rocket2,null,images/rocket1,NA,1,real,null,2,NA,NA,NA,sub54
d3-animate-choice,160,712837,0.0-76.0-1.8,FALSE,TRUE,TRUE,TRUE,"""event"",""trial"",""time""
""fullscreenenter"",""5"",""16440""
","
","
","""event"",""trial"",""time""
""fullscreenenter"",""5"",""16440""
","
",465.72000003652647,NA,48,NA,NA,3000,1,NA,NA,images/redplanet1.jpg,images/alien2,images/alien1,images/rocket1,images/alien2,images/nothing.png,2,real,true,2,common,0,2020-06-15T21:54:17Z,sub54
two-step-fixation,161,713844,0.0-76.0-2.8,FALSE,TRUE,TRUE,TRUE,"""event"",""trial"",""time""
""fullscreenenter"",""5"",""16440""
","
","
","""event"",""trial"",""time""
""fullscreenenter"",""5"",""16440""
","
",NA,images/earth.jpg,NA,NA,NA,NA,NA,NA,NA,NA,NA,NA,NA,NA,NA,fixation,NA,NA,NA,NA,NA,NA,sub54
d3-animate-choice,162,716191,0.0-76.0-0.9,FALSE,TRUE,TRUE,TRUE,"""event"",""trial"",""time""
""fullscreenenter"",""5"",""16440""
","
","
","""event"",""trial"",""time""
""fullscreenenter"",""5"",""16440""
","
",339.5650000311434,NA,48,NA,NA,3000,1,NA,NA,images/earth.jpg,images/rocket1,images/rocket2,null,images/rocket1,NA,1,real,null,2,NA,NA,NA,sub54
d3-animate-choice,163,718692,0.0-76.0-1.9,FALSE,TRUE,TRUE,TRUE,"""event"",""trial"",""time""
""fullscreenenter"",""5"",""16440""
","
","
","""event"",""trial"",""time""
""fullscreenenter"",""5"",""16440""
","
",495.22500002058223,NA,49,NA,NA,3000,1,NA,NA,images/redplanet1.jpg,images/alien2,images/alien1,images/rocket1,images/alien1,images/t.png,2,real,true,1,common,1,2020-06-15T21:54:23Z,sub54
two-step-fixation,164,719698,0.0-76.0-2.9,FALSE,TRUE,TRUE,TRUE,"""event"",""trial"",""time""
""fullscreenenter"",""5"",""16440""
","
","
","""event"",""trial"",""time""
""fullscreenenter"",""5"",""16440""
","
",NA,images/earth.jpg,NA,NA,NA,NA,NA,NA,NA,NA,NA,NA,NA,NA,NA,fixation,NA,NA,NA,NA,NA,NA,sub54
d3-animate-choice,165,722005,0.0-76.0-0.10,FALSE,TRUE,TRUE,TRUE,"""event"",""trial"",""time""
""fullscreenenter"",""5"",""16440""
","
","
","""event"",""trial"",""time""
""fullscreenenter"",""5"",""16440""
","
",300.21499999566004,NA,49,NA,NA,3000,1,NA,NA,images/earth.jpg,images/rocket1,images/rocket2,null,images/rocket2,NA,1,real,null,1,NA,NA,NA,sub54
d3-animate-choice,166,725021,0.0-76.0-1.10,FALSE,TRUE,TRUE,TRUE,"""event"",""trial"",""time""
""fullscreenenter"",""5"",""16440""
","
","
","""event"",""trial"",""time""
""fullscreenenter"",""5"",""16440""
","
",1010.74499997776,NA,48,NA,NA,3000,1,NA,NA,images/purpleplanet.jpg,images/alien4,images/alien3,images/rocket2,images/alien4,images/nothing.png,2,real,true,2,common,0,2020-06-15T21:54:29Z,sub54
two-step-fixation,167,726028,0.0-76.0-2.10,FALSE,TRUE,TRUE,TRUE,"""event"",""trial"",""time""
""fullscreenenter"",""5"",""16440""
","
","
","""event"",""trial"",""time""
""fullscreenenter"",""5"",""16440""
","
",NA,images/earth.jpg,NA,NA,NA,NA,NA,NA,NA,NA,NA,NA,NA,NA,NA,fixation,NA,NA,NA,NA,NA,NA,sub54
d3-animate-choice,168,728430,0.0-76.0-0.11,FALSE,TRUE,TRUE,TRUE,"""event"",""trial"",""time""
""fullscreenenter"",""5"",""16440""
","
","
","""event"",""trial"",""time""
""fullscreenenter"",""5"",""16440""
","
",395.4649999504909,NA,49,NA,NA,3000,1,NA,NA,images/earth.jpg,images/rocket1,images/rocket2,null,images/rocket2,NA,1,real,null,1,NA,NA,NA,sub54
d3-animate-choice,169,730982,0.0-76.0-1.11,FALSE,TRUE,TRUE,TRUE,"""event"",""trial"",""time""
""fullscreenenter"",""5"",""16440""
","
","
","""event"",""trial"",""time""
""fullscreenenter"",""5"",""16440""
","
",545.0100000016391,NA,49,NA,NA,3000,1,NA,NA,images/purpleplanet.jpg,images/alien4,images/alien3,images/rocket2,images/alien3,images/t.png,2,real,true,1,common,1,2020-06-15T21:54:35Z,sub54
two-step-fixation,170,731988,0.0-76.0-2.11,FALSE,TRUE,TRUE,TRUE,"""event"",""trial"",""time""
""fullscreenenter"",""5"",""16440""
","
","
","""event"",""trial"",""time""
""fullscreenenter"",""5"",""16440""
","
",NA,images/earth.jpg,NA,NA,NA,NA,NA,NA,NA,NA,NA,NA,NA,NA,NA,fixation,NA,NA,NA,NA,NA,NA,sub54
d3-animate-choice,171,734469,0.0-76.0-0.12,FALSE,TRUE,TRUE,TRUE,"""event"",""trial"",""time""
""fullscreenenter"",""5"",""16440""
","
","
","""event"",""trial"",""time""
""fullscreenenter"",""5"",""16440""
","
",474.8600000166334,NA,49,NA,NA,3000,1,NA,NA,images/earth.jpg,images/rocket1,images/rocket2,null,images/rocket2,NA,1,real,null,1,NA,NA,NA,sub54
d3-animate-choice,172,736845,0.0-76.0-1.12,FALSE,TRUE,TRUE,TRUE,"""event"",""trial"",""time""
""fullscreenenter"",""5"",""16440""
","
","
","""event"",""trial"",""time""
""fullscreenenter"",""5"",""16440""
","
",370.8699999842793,NA,49,NA,NA,3000,1,NA,NA,images/purpleplanet.jpg,images/alien4,images/alien3,images/rocket2,images/alien3,images/nothing.png,2,real,true,1,common,0,2020-06-15T21:54:41Z,sub54
two-step-fixation,173,737851,0.0-76.0-2.12,FALSE,TRUE,TRUE,TRUE,"""event"",""trial"",""time""
""fullscreenenter"",""5"",""16440""
","
","
","""event"",""trial"",""time""
""fullscreenenter"",""5"",""16440""
","
",NA,images/earth.jpg,NA,NA,NA,NA,NA,NA,NA,NA,NA,NA,NA,NA,NA,fixation,NA,NA,NA,NA,NA,NA,sub54
d3-animate-choice,174,740245,0.0-76.0-0.13,FALSE,TRUE,TRUE,TRUE,"""event"",""trial"",""time""
""fullscreenenter"",""5"",""16440""
","
","
","""event"",""trial"",""time""
""fullscreenenter"",""5"",""16440""
","
",388.00000003539026,NA,48,NA,NA,3000,1,NA,NA,images/earth.jpg,images/rocket1,images/rocket2,null,images/rocket1,NA,1,real,null,2,NA,NA,NA,sub54
d3-animate-choice,175,742741,0.0-76.0-1.13,FALSE,TRUE,TRUE,TRUE,"""event"",""trial"",""time""
""fullscreenenter"",""5"",""16440""
","
","
","""event"",""trial"",""time""
""fullscreenenter"",""5"",""16440""
","
",489.88499998813495,NA,48,NA,NA,3000,1,NA,NA,images/redplanet1.jpg,images/alien2,images/alien1,images/rocket1,images/alien2,images/t.png,2,real,true,2,common,1,2020-06-15T21:54:47Z,sub54
two-step-fixation,176,743747,0.0-76.0-2.13,FALSE,TRUE,TRUE,TRUE,"""event"",""trial"",""time""
""fullscreenenter"",""5"",""16440""
","
","
","""event"",""trial"",""time""
""fullscreenenter"",""5"",""16440""
","
",NA,images/earth.jpg,NA,NA,NA,NA,NA,NA,NA,NA,NA,NA,NA,NA,NA,fixation,NA,NA,NA,NA,NA,NA,sub54
d3-animate-choice,177,746213,0.0-76.0-0.14,FALSE,TRUE,TRUE,TRUE,"""event"",""trial"",""time""
""fullscreenenter"",""5"",""16440""
","
","
","""event"",""trial"",""time""
""fullscreenenter"",""5"",""16440""
","
",460.55499999783933,NA,48,NA,NA,3000,1,NA,NA,images/earth.jpg,images/rocket1,images/rocket2,null,images/rocket1,NA,1,real,null,2,NA,NA,NA,sub54
d3-animate-choice,178,748653,0.0-76.0-1.14,FALSE,TRUE,TRUE,TRUE,"""event"",""trial"",""time""
""fullscreenenter"",""5"",""16440""
","
","
","""event"",""trial"",""time""
""fullscreenenter"",""5"",""16440""
","
",434.3349999981001,NA,48,NA,NA,3000,1,NA,NA,images/redplanet1.jpg,images/alien2,images/alien1,images/rocket1,images/alien2,images/t.png,2,real,true,2,common,1,2020-06-15T21:54:53Z,sub54
two-step-fixation,179,749655,0.0-76.0-2.14,FALSE,TRUE,TRUE,TRUE,"""event"",""trial"",""time""
""fullscreenenter"",""5"",""16440""
","
","
","""event"",""trial"",""time""
""fullscreenenter"",""5"",""16440""
","
",NA,images/earth.jpg,NA,NA,NA,NA,NA,NA,NA,NA,NA,NA,NA,NA,NA,fixation,NA,NA,NA,NA,NA,NA,sub54
d3-animate-choice,180,752022,0.0-76.0-0.15,FALSE,TRUE,TRUE,TRUE,"""event"",""trial"",""time""
""fullscreenenter"",""5"",""16440""
","
","
","""event"",""trial"",""time""
""fullscreenenter"",""5"",""16440""
","
",362.2550000436604,NA,48,NA,NA,3000,1,NA,NA,images/earth.jpg,images/rocket1,images/rocket2,null,images/rocket1,NA,1,real,null,2,NA,NA,NA,sub54
d3-animate-choice,181,754454,0.0-76.0-1.15,FALSE,TRUE,TRUE,TRUE,"""event"",""trial"",""time""
""fullscreenenter"",""5"",""16440""
","
","
","""event"",""trial"",""time""
""fullscreenenter"",""5"",""16440""
","
",425.42499996488914,NA,48,NA,NA,3000,1,NA,NA,images/redplanet1.jpg,images/alien2,images/alien1,images/rocket1,images/alien2,images/nothing.png,2,real,true,2,common,0,2020-06-15T21:54:58Z,sub54
two-step-fixation,182,755460,0.0-76.0-2.15,FALSE,TRUE,TRUE,TRUE,"""event"",""trial"",""time""
""fullscreenenter"",""5"",""16440""
","
","
","""event"",""trial"",""time""
""fullscreenenter"",""5"",""16440""
","
",NA,images/earth.jpg,NA,NA,NA,NA,NA,NA,NA,NA,NA,NA,NA,NA,NA,fixation,NA,NA,NA,NA,NA,NA,sub54
d3-animate-choice,183,757774,0.0-76.0-0.16,FALSE,TRUE,TRUE,TRUE,"""event"",""trial"",""time""
""fullscreenenter"",""5"",""16440""
","
","
","""event"",""trial"",""time""
""fullscreenenter"",""5"",""16440""
","
",306.6199999884702,NA,48,NA,NA,3000,1,NA,NA,images/earth.jpg,images/rocket1,images/rocket2,null,images/rocket1,NA,1,real,null,2,NA,NA,NA,sub54
d3-animate-choice,184,760229,0.0-76.0-1.16,FALSE,TRUE,TRUE,TRUE,"""event"",""trial"",""time""
""fullscreenenter"",""5"",""16440""
","
","
","""event"",""trial"",""time""
""fullscreenenter"",""5"",""16440""
","
",449.79500002227724,NA,48,NA,NA,3000,1,NA,NA,images/redplanet1.jpg,images/alien2,images/alien1,images/rocket1,images/alien2,images/nothing.png,2,real,true,2,common,0,2020-06-15T21:55:04Z,sub54
two-step-fixation,185,761235,0.0-76.0-2.16,FALSE,TRUE,TRUE,TRUE,"""event"",""trial"",""time""
""fullscreenenter"",""5"",""16440""
","
","
","""event"",""trial"",""time""
""fullscreenenter"",""5"",""16440""
","
",NA,images/earth.jpg,NA,NA,NA,NA,NA,NA,NA,NA,NA,NA,NA,NA,NA,fixation,NA,NA,NA,NA,NA,NA,sub54
d3-animate-choice,186,763542,0.0-76.0-0.17,FALSE,TRUE,TRUE,TRUE,"""event"",""trial"",""time""
""fullscreenenter"",""5"",""16440""
","
","
","""event"",""trial"",""time""
""fullscreenenter"",""5"",""16440""
","
",300.4300000029616,NA,49,NA,NA,3000,1,NA,NA,images/earth.jpg,images/rocket1,images/rocket2,null,images/rocket2,NA,1,real,null,1,NA,NA,NA,sub54
d3-animate-choice,187,766478,0.0-76.0-1.17,FALSE,TRUE,TRUE,TRUE,"""event"",""trial"",""time""
""fullscreenenter"",""5"",""16440""
","
","
","""event"",""trial"",""time""
""fullscreenenter"",""5"",""16440""
","
",929.4099999824539,NA,49,NA,NA,3000,1,NA,NA,images/redplanet1.jpg,images/alien2,images/alien1,images/rocket2,images/alien1,images/nothing.png,2,real,false,1,rare,0,2020-06-15T21:55:10Z,sub54
two-step-fixation,188,767484,0.0-76.0-2.17,FALSE,TRUE,TRUE,TRUE,"""event"",""trial"",""time""
""fullscreenenter"",""5"",""16440""
","
","
","""event"",""trial"",""time""
""fullscreenenter"",""5"",""16440""
","
",NA,images/earth.jpg,NA,NA,NA,NA,NA,NA,NA,NA,NA,NA,NA,NA,NA,fixation,NA,NA,NA,NA,NA,NA,sub54
d3-animate-choice,189,770068,0.0-76.0-0.18,FALSE,TRUE,TRUE,TRUE,"""event"",""trial"",""time""
""fullscreenenter"",""5"",""16440""
","
","
","""event"",""trial"",""time""
""fullscreenenter"",""5"",""16440""
","
",578.380000020843,NA,49,NA,NA,3000,1,NA,NA,images/earth.jpg,images/rocket1,images/rocket2,null,images/rocket2,NA,1,real,null,1,NA,NA,NA,sub54
d3-animate-choice,190,772469,0.0-76.0-1.18,FALSE,TRUE,TRUE,TRUE,"""event"",""trial"",""time""
""fullscreenenter"",""5"",""16440""
","
","
","""event"",""trial"",""time""
""fullscreenenter"",""5"",""16440""
","
",394.7800000314601,NA,48,NA,NA,3000,1,NA,NA,images/purpleplanet.jpg,images/alien4,images/alien3,images/rocket2,images/alien4,images/t.png,2,real,true,2,common,1,2020-06-15T21:55:16Z,sub54
two-step-fixation,191,773476,0.0-76.0-2.18,FALSE,TRUE,TRUE,TRUE,"""event"",""trial"",""time""
""fullscreenenter"",""5"",""16440""
","
","
","""event"",""trial"",""time""
""fullscreenenter"",""5"",""16440""
","
",NA,images/earth.jpg,NA,NA,NA,NA,NA,NA,NA,NA,NA,NA,NA,NA,NA,fixation,NA,NA,NA,NA,NA,NA,sub54
d3-animate-choice,192,775927,0.0-76.0-0.19,FALSE,TRUE,TRUE,TRUE,"""event"",""trial"",""time""
""fullscreenenter"",""5"",""16440""
","
","
","""event"",""trial"",""time""
""fullscreenenter"",""5"",""16440""
","
",443.46999999834225,NA,49,NA,NA,3000,1,NA,NA,images/earth.jpg,images/rocket1,images/rocket2,null,images/rocket2,NA,1,real,null,1,NA,NA,NA,sub54
d3-animate-choice,193,778499,0.0-76.0-1.19,FALSE,TRUE,TRUE,TRUE,"""event"",""trial"",""time""
""fullscreenenter"",""5"",""16440""
","
","
","""event"",""trial"",""time""
""fullscreenenter"",""5"",""16440""
","
",567.1699999948032,NA,48,NA,NA,3000,1,NA,NA,images/purpleplanet.jpg,images/alien4,images/alien3,images/rocket2,images/alien4,images/t.png,2,real,true,2,common,1,2020-06-15T21:55:23Z,sub54
two-step-fixation,194,779508,0.0-76.0-2.19,FALSE,TRUE,TRUE,TRUE,"""event"",""trial"",""time""
""fullscreenenter"",""5"",""16440""
","
","
","""event"",""trial"",""time""
""fullscreenenter"",""5"",""16440""
","
",NA,images/earth.jpg,NA,NA,NA,NA,NA,NA,NA,NA,NA,NA,NA,NA,NA,fixation,NA,NA,NA,NA,NA,NA,sub54
d3-animate-choice,195,781814,0.0-76.0-0.20,FALSE,TRUE,TRUE,TRUE,"""event"",""trial"",""time""
""fullscreenenter"",""5"",""16440""
","
","
","""event"",""trial"",""time""
""fullscreenenter"",""5"",""16440""
","
",301.07499996665865,NA,49,NA,NA,3000,1,NA,NA,images/earth.jpg,images/rocket1,images/rocket2,null,images/rocket2,NA,1,real,null,1,NA,NA,NA,sub54
d3-animate-choice,196,784247,0.0-76.0-1.20,FALSE,TRUE,TRUE,TRUE,"""event"",""trial"",""time""
""fullscreenenter"",""5"",""16440""
","
","
","""event"",""trial"",""time""
""fullscreenenter"",""5"",""16440""
","
",426.63500003982335,NA,48,NA,NA,3000,1,NA,NA,images/purpleplanet.jpg,images/alien4,images/alien3,images/rocket2,images/alien4,images/nothing.png,2,real,true,2,common,0,2020-06-15T21:55:28Z,sub54
two-step-fixation,197,785254,0.0-76.0-2.20,FALSE,TRUE,TRUE,TRUE,"""event"",""trial"",""time""
""fullscreenenter"",""5"",""16440""
","
","
","""event"",""trial"",""time""
""fullscreenenter"",""5"",""16440""
","
",NA,images/earth.jpg,NA,NA,NA,NA,NA,NA,NA,NA,NA,NA,NA,NA,NA,fixation,NA,NA,NA,NA,NA,NA,sub54
d3-animate-choice,198,787637,0.0-76.0-0.21,FALSE,TRUE,TRUE,TRUE,"""event"",""trial"",""time""
""fullscreenenter"",""5"",""16440""
","
","
","""event"",""trial"",""time""
""fullscreenenter"",""5"",""16440""
","
",375.10000000474975,NA,49,NA,NA,3000,1,NA,NA,images/earth.jpg,images/rocket1,images/rocket2,null,images/rocket2,NA,1,real,null,1,NA,NA,NA,sub54
d3-animate-choice,199,790029,0.0-76.0-1.21,FALSE,TRUE,TRUE,TRUE,"""event"",""trial"",""time""
""fullscreenenter"",""5"",""16440""
","
","
","""event"",""trial"",""time""
""fullscreenenter"",""5"",""16440""
","
",385.84000000264496,NA,48,NA,NA,3000,1,NA,NA,images/purpleplanet.jpg,images/alien4,images/alien3,images/rocket2,images/alien4,images/t.png,2,real,true,2,common,1,2020-06-15T21:55:34Z,sub54
two-step-fixation,200,791034,0.0-76.0-2.21,FALSE,TRUE,TRUE,TRUE,"""event"",""trial"",""time""
""fullscreenenter"",""5"",""16440""
","
","
","""event"",""trial"",""time""
""fullscreenenter"",""5"",""16440""
","
",NA,images/earth.jpg,NA,NA,NA,NA,NA,NA,NA,NA,NA,NA,NA,NA,NA,fixation,NA,NA,NA,NA,NA,NA,sub54
d3-animate-choice,201,793405,0.0-76.0-0.22,FALSE,TRUE,TRUE,TRUE,"""event"",""trial"",""time""
""fullscreenenter"",""5"",""16440""
","
","
","""event"",""trial"",""time""
""fullscreenenter"",""5"",""16440""
","
",365.5650000437163,NA,49,NA,NA,3000,1,NA,NA,images/earth.jpg,images/rocket1,images/rocket2,null,images/rocket2,NA,1,real,null,1,NA,NA,NA,sub54
d3-animate-choice,202,795902,0.0-76.0-1.22,FALSE,TRUE,TRUE,TRUE,"""event"",""trial"",""time""
""fullscreenenter"",""5"",""16440""
","
","
","""event"",""trial"",""time""
""fullscreenenter"",""5"",""16440""
","
",490.66000001039356,NA,48,NA,NA,3000,1,NA,NA,images/purpleplanet.jpg,images/alien4,images/alien3,images/rocket2,images/alien4,images/nothing.png,2,real,true,2,common,0,2020-06-15T21:55:40Z,sub54
two-step-fixation,203,796908,0.0-76.0-2.22,FALSE,TRUE,TRUE,TRUE,"""event"",""trial"",""time""
""fullscreenenter"",""5"",""16440""
","
","
","""event"",""trial"",""time""
""fullscreenenter"",""5"",""16440""
","
",NA,images/earth.jpg,NA,NA,NA,NA,NA,NA,NA,NA,NA,NA,NA,NA,NA,fixation,NA,NA,NA,NA,NA,NA,sub54
d3-animate-choice,204,799325,0.0-76.0-0.23,FALSE,TRUE,TRUE,TRUE,"""event"",""trial"",""time""
""fullscreenenter"",""5"",""16440""
","
","
","""event"",""trial"",""time""
""fullscreenenter"",""5"",""16440""
","
",411.3899999647401,NA,49,NA,NA,3000,1,NA,NA,images/earth.jpg,images/rocket1,images/rocket2,null,images/rocket2,NA,1,real,null,1,NA,NA,NA,sub54
d3-animate-choice,205,801886,0.0-76.0-1.23,FALSE,TRUE,TRUE,TRUE,"""event"",""trial"",""time""
""fullscreenenter"",""5"",""16440""
","
","
","""event"",""trial"",""time""
""fullscreenenter"",""5"",""16440""
","
",554.874999972526,NA,48,NA,NA,3000,1,NA,NA,images/redplanet1.jpg,images/alien2,images/alien1,images/rocket2,images/alien2,images/t.png,2,real,false,2,rare,1,2020-06-15T21:55:46Z,sub54
two-step-fixation,206,802891,0.0-76.0-2.23,FALSE,TRUE,TRUE,TRUE,"""event"",""trial"",""time""
""fullscreenenter"",""5"",""16440""
","
","
","""event"",""trial"",""time""
""fullscreenenter"",""5"",""16440""
","
",NA,images/earth.jpg,NA,NA,NA,NA,NA,NA,NA,NA,NA,NA,NA,NA,NA,fixation,NA,NA,NA,NA,NA,NA,sub54
d3-animate-choice,207,805429,0.0-76.0-0.24,FALSE,TRUE,TRUE,TRUE,"""event"",""trial"",""time""
""fullscreenenter"",""5"",""16440""
","
","
","""event"",""trial"",""time""
""fullscreenenter"",""5"",""16440""
","
",532.279999984894,NA,48,NA,NA,3000,1,NA,NA,images/earth.jpg,images/rocket1,images/rocket2,null,images/rocket1,NA,1,real,null,2,NA,NA,NA,sub54
d3-animate-choice,208,808013,0.0-76.0-1.24,FALSE,TRUE,TRUE,TRUE,"""event"",""trial"",""time""
""fullscreenenter"",""5"",""16440""
","
","
","""event"",""trial"",""time""
""fullscreenenter"",""5"",""16440""
","
",578.9550000336021,NA,48,NA,NA,3000,1,NA,NA,images/redplanet1.jpg,images/alien2,images/alien1,images/rocket1,images/alien2,images/nothing.png,2,real,true,2,common,0,2020-06-15T21:55:52Z,sub54
two-step-fixation,209,809019,0.0-76.0-2.24,FALSE,TRUE,TRUE,TRUE,"""event"",""trial"",""time""
""fullscreenenter"",""5"",""16440""
","
","
","""event"",""trial"",""time""
""fullscreenenter"",""5"",""16440""
","
",NA,images/earth.jpg,NA,NA,NA,NA,NA,NA,NA,NA,NA,NA,NA,NA,NA,fixation,NA,NA,NA,NA,NA,NA,sub54
d3-animate-choice,210,811494,0.0-76.0-0.25,FALSE,TRUE,TRUE,TRUE,"""event"",""trial"",""time""
""fullscreenenter"",""5"",""16440""
","
","
","""event"",""trial"",""time""
""fullscreenenter"",""5"",""16440""
","
",468.86999998241663,NA,49,NA,NA,3000,1,NA,NA,images/earth.jpg,images/rocket1,images/rocket2,null,images/rocket2,NA,1,real,null,1,NA,NA,NA,sub54
d3-animate-choice,211,814036,0.0-76.0-1.25,FALSE,TRUE,TRUE,TRUE,"""event"",""trial"",""time""
""fullscreenenter"",""5"",""16440""
","
","
","""event"",""trial"",""time""
""fullscreenenter"",""5"",""16440""
","
",537.465000001248,NA,48,NA,NA,3000,1,NA,NA,images/purpleplanet.jpg,images/alien4,images/alien3,images/rocket2,images/alien4,images/t.png,2,real,true,2,common,1,2020-06-15T21:55:58Z,sub54
two-step-fixation,212,815043,0.0-76.0-2.25,FALSE,TRUE,TRUE,TRUE,"""event"",""trial"",""time""
""fullscreenenter"",""5"",""16440""
","
","
","""event"",""trial"",""time""
""fullscreenenter"",""5"",""16440""
","
",NA,images/earth.jpg,NA,NA,NA,NA,NA,NA,NA,NA,NA,NA,NA,NA,NA,fixation,NA,NA,NA,NA,NA,NA,sub54
d3-animate-choice,213,817446,0.0-76.0-0.26,FALSE,TRUE,TRUE,TRUE,"""event"",""trial"",""time""
""fullscreenenter"",""5"",""16440""
","
","
","""event"",""trial"",""time""
""fullscreenenter"",""5"",""16440""
","
",397.2150000045076,NA,49,NA,NA,3000,1,NA,NA,images/earth.jpg,images/rocket1,images/rocket2,null,images/rocket2,NA,1,real,null,1,NA,NA,NA,sub54
d3-animate-choice,214,820037,0.0-76.0-1.26,FALSE,TRUE,TRUE,TRUE,"""event"",""trial"",""time""
""fullscreenenter"",""5"",""16440""
","
","
","""event"",""trial"",""time""
""fullscreenenter"",""5"",""16440""
","
",585.4649999528192,NA,48,NA,NA,3000,1,NA,NA,images/purpleplanet.jpg,images/alien4,images/alien3,images/rocket2,images/alien4,images/t.png,2,real,true,2,common,1,2020-06-15T21:56:04Z,sub54
two-step-fixation,215,821044,0.0-76.0-2.26,FALSE,TRUE,TRUE,TRUE,"""event"",""trial"",""time""
""fullscreenenter"",""5"",""16440""
","
","
","""event"",""trial"",""time""
""fullscreenenter"",""5"",""16440""
","
",NA,images/earth.jpg,NA,NA,NA,NA,NA,NA,NA,NA,NA,NA,NA,NA,NA,fixation,NA,NA,NA,NA,NA,NA,sub54
d3-animate-choice,216,823438,0.0-76.0-0.27,FALSE,TRUE,TRUE,TRUE,"""event"",""trial"",""time""
""fullscreenenter"",""5"",""16440""
","
","
","""event"",""trial"",""time""
""fullscreenenter"",""5"",""16440""
","
",388.0350000108592,NA,49,NA,NA,3000,1,NA,NA,images/earth.jpg,images/rocket1,images/rocket2,null,images/rocket2,NA,1,real,null,1,NA,NA,NA,sub54
d3-animate-choice,217,825973,0.0-76.0-1.27,FALSE,TRUE,TRUE,TRUE,"""event"",""trial"",""time""
""fullscreenenter"",""5"",""16440""
","
","
","""event"",""trial"",""time""
""fullscreenenter"",""5"",""16440""
","
",529.5250000199303,NA,48,NA,NA,3000,1,NA,NA,images/purpleplanet.jpg,images/alien4,images/alien3,images/rocket2,images/alien4,images/nothing.png,2,real,true,2,common,0,2020-06-15T21:56:10Z,sub54
two-step-fixation,218,826980,0.0-76.0-2.27,FALSE,TRUE,TRUE,TRUE,"""event"",""trial"",""time""
""fullscreenenter"",""5"",""16440""
","
","
","""event"",""trial"",""time""
""fullscreenenter"",""5"",""16440""
","
",NA,images/earth.jpg,NA,NA,NA,NA,NA,NA,NA,NA,NA,NA,NA,NA,NA,fixation,NA,NA,NA,NA,NA,NA,sub54
d3-animate-choice,219,829405,0.0-76.0-0.28,FALSE,TRUE,TRUE,TRUE,"""event"",""trial"",""time""
""fullscreenenter"",""5"",""16440""
","
","
","""event"",""trial"",""time""
""fullscreenenter"",""5"",""16440""
","
",419.58500002510846,NA,49,NA,NA,3000,1,NA,NA,images/earth.jpg,images/rocket1,images/rocket2,null,images/rocket2,NA,1,real,null,1,NA,NA,NA,sub54
d3-animate-choice,220,831894,0.0-76.0-1.28,FALSE,TRUE,TRUE,TRUE,"""event"",""trial"",""time""
""fullscreenenter"",""5"",""16440""
","
","
","""event"",""trial"",""time""
""fullscreenenter"",""5"",""16440""
","
",482.90999996243045,NA,48,NA,NA,3000,1,NA,NA,images/purpleplanet.jpg,images/alien4,images/alien3,images/rocket2,images/alien4,images/t.png,2,real,true,2,common,1,2020-06-15T21:56:16Z,sub54
two-step-fixation,221,832900,0.0-76.0-2.28,FALSE,TRUE,TRUE,TRUE,"""event"",""trial"",""time""
""fullscreenenter"",""5"",""16440""
","
","
","""event"",""trial"",""time""
""fullscreenenter"",""5"",""16440""
","
",NA,images/earth.jpg,NA,NA,NA,NA,NA,NA,NA,NA,NA,NA,NA,NA,NA,fixation,NA,NA,NA,NA,NA,NA,sub54
d3-animate-choice,222,835334,0.0-76.0-0.29,FALSE,TRUE,TRUE,TRUE,"""event"",""trial"",""time""
""fullscreenenter"",""5"",""16440""
","
","
","""event"",""trial"",""time""
""fullscreenenter"",""5"",""16440""
","
",427.0099999848753,NA,49,NA,NA,3000,1,NA,NA,images/earth.jpg,images/rocket1,images/rocket2,null,images/rocket2,NA,1,real,null,1,NA,NA,NA,sub54
d3-animate-choice,223,837910,0.0-76.0-1.29,FALSE,TRUE,TRUE,TRUE,"""event"",""trial"",""time""
""fullscreenenter"",""5"",""16440""
","
","
","""event"",""trial"",""time""
""fullscreenenter"",""5"",""16440""
","
",569.5500000147149,NA,49,NA,NA,3000,1,NA,NA,images/purpleplanet.jpg,images/alien4,images/alien3,images/rocket2,images/alien3,images/nothing.png,2,real,true,1,common,0,2020-06-15T21:56:22Z,sub54
two-step-fixation,224,838917,0.0-76.0-2.29,FALSE,TRUE,TRUE,TRUE,"""event"",""trial"",""time""
""fullscreenenter"",""5"",""16440""
","
","
","""event"",""trial"",""time""
""fullscreenenter"",""5"",""16440""
","
",NA,images/earth.jpg,NA,NA,NA,NA,NA,NA,NA,NA,NA,NA,NA,NA,NA,fixation,NA,NA,NA,NA,NA,NA,sub54
d3-animate-choice,225,841262,0.0-76.0-0.30,FALSE,TRUE,TRUE,TRUE,"""event"",""trial"",""time""
""fullscreenenter"",""5"",""16440""
","
","
","""event"",""trial"",""time""
""fullscreenenter"",""5"",""16440""
","
",338.7900000088848,NA,49,NA,NA,3000,1,NA,NA,images/earth.jpg,images/rocket1,images/rocket2,null,images/rocket2,NA,1,real,null,1,NA,NA,NA,sub54
d3-animate-choice,226,843733,0.0-76.0-1.30,FALSE,TRUE,TRUE,TRUE,"""event"",""trial"",""time""
""fullscreenenter"",""5"",""16440""
","
","
","""event"",""trial"",""time""
""fullscreenenter"",""5"",""16440""
","
",465.61000001383945,NA,48,NA,NA,3000,1,577.7549999766052,48,images/redplanet1.jpg,images/alien2,images/alien1,images/rocket2,images/alien2,images/t.png,2,real,false,2,rare,1,2020-06-15T21:56:28Z,sub54
two-step-fixation,227,844739,0.0-76.0-2.30,FALSE,TRUE,TRUE,TRUE,"""event"",""trial"",""time""
""fullscreenenter"",""5"",""16440""
","
","
","""event"",""trial"",""time""
""fullscreenenter"",""5"",""16440""
","
",NA,images/earth.jpg,NA,NA,NA,NA,NA,NA,NA,NA,NA,NA,NA,NA,NA,fixation,NA,NA,NA,NA,NA,NA,sub54
d3-animate-choice,228,847390,0.0-76.0-0.31,FALSE,TRUE,TRUE,TRUE,"""event"",""trial"",""time""
""fullscreenenter"",""5"",""16440""
","
","
","""event"",""trial"",""time""
""fullscreenenter"",""5"",""16440""
","
",645.1300000189804,NA,48,NA,NA,3000,1,NA,NA,images/earth.jpg,images/rocket1,images/rocket2,null,images/rocket1,NA,1,real,null,2,NA,NA,NA,sub54
d3-animate-choice,229,849884,0.0-76.0-1.31,FALSE,TRUE,TRUE,TRUE,"""event"",""trial"",""time""
""fullscreenenter"",""5"",""16440""
","
","
","""event"",""trial"",""time""
""fullscreenenter"",""5"",""16440""
","
",488.55499998899177,NA,48,NA,NA,3000,1,NA,NA,images/redplanet1.jpg,images/alien2,images/alien1,images/rocket1,images/alien2,images/nothing.png,2,real,true,2,common,0,2020-06-15T21:56:34Z,sub54
two-step-fixation,230,850891,0.0-76.0-2.31,FALSE,TRUE,TRUE,TRUE,"""event"",""trial"",""time""
""fullscreenenter"",""5"",""16440""
","
","
","""event"",""trial"",""time""
""fullscreenenter"",""5"",""16440""
","
",NA,images/earth.jpg,NA,NA,NA,NA,NA,NA,NA,NA,NA,NA,NA,NA,NA,fixation,NA,NA,NA,NA,NA,NA,sub54
d3-animate-choice,231,853198,0.0-76.0-0.32,FALSE,TRUE,TRUE,TRUE,"""event"",""trial"",""time""
""fullscreenenter"",""5"",""16440""
","
","
","""event"",""trial"",""time""
""fullscreenenter"",""5"",""16440""
","
",300.6349999923259,NA,48,NA,NA,3000,1,NA,NA,images/earth.jpg,images/rocket1,images/rocket2,null,images/rocket1,NA,1,real,null,2,NA,NA,NA,sub54
d3-animate-choice,232,855589,0.0-76.0-1.32,FALSE,TRUE,TRUE,TRUE,"""event"",""trial"",""time""
""fullscreenenter"",""5"",""16440""
","
","
","""event"",""trial"",""time""
""fullscreenenter"",""5"",""16440""
","
",385.3349999990314,NA,48,NA,NA,3000,1,NA,NA,images/redplanet1.jpg,images/alien2,images/alien1,images/rocket1,images/alien2,images/nothing.png,2,real,true,2,common,0,2020-06-15T21:56:40Z,sub54
two-step-fixation,233,856594,0.0-76.0-2.32,FALSE,TRUE,TRUE,TRUE,"""event"",""trial"",""time""
""fullscreenenter"",""5"",""16440""
","
","
","""event"",""trial"",""time""
""fullscreenenter"",""5"",""16440""
","
",NA,images/earth.jpg,NA,NA,NA,NA,NA,NA,NA,NA,NA,NA,NA,NA,NA,fixation,NA,NA,NA,NA,NA,NA,sub54
d3-animate-choice,234,859063,0.0-76.0-0.33,FALSE,TRUE,TRUE,TRUE,"""event"",""trial"",""time""
""fullscreenenter"",""5"",""16440""
","
","
","""event"",""trial"",""time""
""fullscreenenter"",""5"",""16440""
","
",463.0100000067614,NA,48,NA,NA,3000,1,NA,NA,images/earth.jpg,images/rocket1,images/rocket2,null,images/rocket1,NA,1,real,null,2,NA,NA,NA,sub54
d3-animate-choice,235,861413,0.0-76.0-1.33,FALSE,TRUE,TRUE,TRUE,"""event"",""trial"",""time""
""fullscreenenter"",""5"",""16440""
","
","
","""event"",""trial"",""time""
""fullscreenenter"",""5"",""16440""
","
",344.0749999717809,NA,48,NA,NA,3000,1,NA,NA,images/redplanet1.jpg,images/alien2,images/alien1,images/rocket1,images/alien2,images/t.png,2,real,true,2,common,1,2020-06-15T21:56:45Z,sub54
two-step-fixation,236,862420,0.0-76.0-2.33,FALSE,TRUE,TRUE,TRUE,"""event"",""trial"",""time""
""fullscreenenter"",""5"",""16440""
","
","
","""event"",""trial"",""time""
""fullscreenenter"",""5"",""16440""
","
",NA,images/earth.jpg,NA,NA,NA,NA,NA,NA,NA,NA,NA,NA,NA,NA,NA,fixation,NA,NA,NA,NA,NA,NA,sub54
d3-animate-choice,237,864999,0.0-76.0-0.34,FALSE,TRUE,TRUE,TRUE,"""event"",""trial"",""time""
""fullscreenenter"",""5"",""16440""
","
","
","""event"",""trial"",""time""
""fullscreenenter"",""5"",""16440""
","
",569.870000006631,NA,49,NA,NA,3000,1,NA,NA,images/earth.jpg,images/rocket1,images/rocket2,null,images/rocket2,NA,1,real,null,1,NA,NA,NA,sub54
d3-animate-choice,238,867508,0.0-76.0-1.34,FALSE,TRUE,TRUE,TRUE,"""event"",""trial"",""time""
""fullscreenenter"",""5"",""16440""
","
","
","""event"",""trial"",""time""
""fullscreenenter"",""5"",""16440""
","
",504.06000000657514,NA,48,NA,NA,3000,1,NA,NA,images/purpleplanet.jpg,images/alien4,images/alien3,images/rocket2,images/alien4,images/t.png,2,real,true,2,common,1,2020-06-15T21:56:52Z,sub54
two-step-fixation,239,868514,0.0-76.0-2.34,FALSE,TRUE,TRUE,TRUE,"""event"",""trial"",""time""
""fullscreenenter"",""5"",""16440""
","
","
","""event"",""trial"",""time""
""fullscreenenter"",""5"",""16440""
","
",NA,images/earth.jpg,NA,NA,NA,NA,NA,NA,NA,NA,NA,NA,NA,NA,NA,fixation,NA,NA,NA,NA,NA,NA,sub54
d3-animate-choice,240,870878,0.0-76.0-0.35,FALSE,TRUE,TRUE,TRUE,"""event"",""trial"",""time""
""fullscreenenter"",""5"",""16440""
","
","
","""event"",""trial"",""time""
""fullscreenenter"",""5"",""16440""
","
",358.5399999865331,NA,49,NA,NA,3000,1,NA,NA,images/earth.jpg,images/rocket1,images/rocket2,null,images/rocket2,NA,1,real,null,1,NA,NA,NA,sub54
d3-animate-choice,241,874197,0.0-76.0-1.35,FALSE,TRUE,TRUE,TRUE,"""event"",""trial"",""time""
""fullscreenenter"",""5"",""16440""
","
","
","""event"",""trial"",""time""
""fullscreenenter"",""5"",""16440""
","
",1313.0549999768846,NA,48,NA,NA,3000,1,NA,NA,images/redplanet1.jpg,images/alien2,images/alien1,images/rocket2,images/alien2,images/nothing.png,2,real,false,2,rare,0,2020-06-15T21:56:58Z,sub54
two-step-fixation,242,875204,0.0-76.0-2.35,FALSE,TRUE,TRUE,TRUE,"""event"",""trial"",""time""
""fullscreenenter"",""5"",""16440""
","
","
","""event"",""trial"",""time""
""fullscreenenter"",""5"",""16440""
","
",NA,images/earth.jpg,NA,NA,NA,NA,NA,NA,NA,NA,NA,NA,NA,NA,NA,fixation,NA,NA,NA,NA,NA,NA,sub54
d3-animate-choice,243,877540,0.0-76.0-0.36,FALSE,TRUE,TRUE,TRUE,"""event"",""trial"",""time""
""fullscreenenter"",""5"",""16440""
","
","
","""event"",""trial"",""time""
""fullscreenenter"",""5"",""16440""
","
",330.4449999704957,NA,49,NA,NA,3000,1,NA,NA,images/earth.jpg,images/rocket1,images/rocket2,null,images/rocket2,NA,1,real,null,1,NA,NA,NA,sub54
d3-animate-choice,244,880054,0.0-76.0-1.36,FALSE,TRUE,TRUE,TRUE,"""event"",""trial"",""time""
""fullscreenenter"",""5"",""16440""
","
","
","""event"",""trial"",""time""
""fullscreenenter"",""5"",""16440""
","
",508.3549999981187,NA,48,NA,NA,3000,1,NA,NA,images/redplanet1.jpg,images/alien2,images/alien1,images/rocket2,images/alien2,images/t.png,2,real,false,2,rare,1,2020-06-15T21:57:04Z,sub54
two-step-fixation,245,881060,0.0-76.0-2.36,FALSE,TRUE,TRUE,TRUE,"""event"",""trial"",""time""
""fullscreenenter"",""5"",""16440""
","
","
","""event"",""trial"",""time""
""fullscreenenter"",""5"",""16440""
","
",NA,images/earth.jpg,NA,NA,NA,NA,NA,NA,NA,NA,NA,NA,NA,NA,NA,fixation,NA,NA,NA,NA,NA,NA,sub54
d3-animate-choice,246,883414,0.0-76.0-0.37,FALSE,TRUE,TRUE,TRUE,"""event"",""trial"",""time""
""fullscreenenter"",""5"",""16440""
","
","
","""event"",""trial"",""time""
""fullscreenenter"",""5"",""16440""
","
",347.5700000417419,NA,49,NA,NA,3000,1,NA,NA,images/earth.jpg,images/rocket1,images/rocket2,null,images/rocket2,NA,1,real,null,1,NA,NA,NA,sub54
d3-animate-choice,247,886095,0.0-76.0-1.37,FALSE,TRUE,TRUE,TRUE,"""event"",""trial"",""time""
""fullscreenenter"",""5"",""16440""
","
","
","""event"",""trial"",""time""
""fullscreenenter"",""5"",""16440""
","
",674.5799999916926,NA,48,NA,NA,3000,1,NA,NA,images/purpleplanet.jpg,images/alien4,images/alien3,images/rocket2,images/alien4,images/t.png,2,real,true,2,common,1,2020-06-15T21:57:10Z,sub54
two-step-fixation,248,887101,0.0-76.0-2.37,FALSE,TRUE,TRUE,TRUE,"""event"",""trial"",""time""
""fullscreenenter"",""5"",""16440""
","
","
","""event"",""trial"",""time""
""fullscreenenter"",""5"",""16440""
","
",NA,images/earth.jpg,NA,NA,NA,NA,NA,NA,NA,NA,NA,NA,NA,NA,NA,fixation,NA,NA,NA,NA,NA,NA,sub54
d3-animate-choice,249,889456,0.0-76.0-0.38,FALSE,TRUE,TRUE,TRUE,"""event"",""trial"",""time""
""fullscreenenter"",""5"",""16440""
","
","
","""event"",""trial"",""time""
""fullscreenenter"",""5"",""16440""
","
",347.28999994695187,NA,49,NA,NA,3000,1,NA,NA,images/earth.jpg,images/rocket1,images/rocket2,null,images/rocket2,NA,1,real,null,1,NA,NA,NA,sub54
d3-animate-choice,250,891924,0.0-76.0-1.38,FALSE,TRUE,TRUE,TRUE,"""event"",""trial"",""time""
""fullscreenenter"",""5"",""16440""
","
","
","""event"",""trial"",""time""
""fullscreenenter"",""5"",""16440""
","
",463.4749999968335,NA,48,NA,NA,3000,1,NA,NA,images/purpleplanet.jpg,images/alien4,images/alien3,images/rocket2,images/alien4,images/t.png,2,real,true,2,common,1,2020-06-15T21:57:16Z,sub54
two-step-fixation,251,892930,0.0-76.0-2.38,FALSE,TRUE,TRUE,TRUE,"""event"",""trial"",""time""
""fullscreenenter"",""5"",""16440""
","
","
","""event"",""trial"",""time""
""fullscreenenter"",""5"",""16440""
","
",NA,images/earth.jpg,NA,NA,NA,NA,NA,NA,NA,NA,NA,NA,NA,NA,NA,fixation,NA,NA,NA,NA,NA,NA,sub54
d3-animate-choice,252,895518,0.0-76.0-0.39,FALSE,TRUE,TRUE,TRUE,"""event"",""trial"",""time""
""fullscreenenter"",""5"",""16440""
","
","
","""event"",""trial"",""time""
""fullscreenenter"",""5"",""16440""
","
",580.3299999679439,NA,49,NA,NA,3000,1,NA,NA,images/earth.jpg,images/rocket1,images/rocket2,null,images/rocket2,NA,1,real,null,1,NA,NA,NA,sub54
d3-animate-choice,253,898030,0.0-76.0-1.39,FALSE,TRUE,TRUE,TRUE,"""event"",""trial"",""time""
""fullscreenenter"",""5"",""16440""
","
","
","""event"",""trial"",""time""
""fullscreenenter"",""5"",""16440""
","
",506.35999999940395,NA,48,NA,NA,3000,1,NA,NA,images/purpleplanet.jpg,images/alien4,images/alien3,images/rocket2,images/alien4,images/t.png,2,real,true,2,common,1,2020-06-15T21:57:22Z,sub54
two-step-fixation,254,899036,0.0-76.0-2.39,FALSE,TRUE,TRUE,TRUE,"""event"",""trial"",""time""
""fullscreenenter"",""5"",""16440""
","
","
","""event"",""trial"",""time""
""fullscreenenter"",""5"",""16440""
","
",NA,images/earth.jpg,NA,NA,NA,NA,NA,NA,NA,NA,NA,NA,NA,NA,NA,fixation,NA,NA,NA,NA,NA,NA,sub54
d3-animate-choice,255,901439,0.0-76.0-0.40,FALSE,TRUE,TRUE,TRUE,"""event"",""trial"",""time""
""fullscreenenter"",""5"",""16440""
","
","
","""event"",""trial"",""time""
""fullscreenenter"",""5"",""16440""
","
",395.6599999801256,NA,49,NA,NA,3000,1,NA,NA,images/earth.jpg,images/rocket1,images/rocket2,null,images/rocket2,NA,1,real,null,1,NA,NA,NA,sub54
d3-animate-choice,256,903973,0.0-76.0-1.40,FALSE,TRUE,TRUE,TRUE,"""event"",""trial"",""time""
""fullscreenenter"",""5"",""16440""
","
","
","""event"",""trial"",""time""
""fullscreenenter"",""5"",""16440""
","
",529.7450000070967,NA,48,NA,NA,3000,1,1776.9250000128523,49,images/redplanet1.jpg,images/alien2,images/alien1,images/rocket2,images/alien2,images/t.png,2,real,false,2,rare,1,2020-06-15T21:57:28Z,sub54
two-step-fixation,257,904976,0.0-76.0-2.40,FALSE,TRUE,TRUE,TRUE,"""event"",""trial"",""time""
""fullscreenenter"",""5"",""16440""
","
","
","""event"",""trial"",""time""
""fullscreenenter"",""5"",""16440""
","
",NA,images/earth.jpg,NA,NA,NA,NA,NA,NA,NA,NA,NA,NA,NA,NA,NA,fixation,NA,NA,NA,NA,NA,NA,sub54
d3-animate-choice,258,906983,0.0-76.0-0.41,FALSE,TRUE,TRUE,TRUE,"""event"",""trial"",""time""
""fullscreenenter"",""5"",""16440""
","
","
","""event"",""trial"",""time""
""fullscreenenter"",""5"",""16440""
","
",0.34500000765547156,NA,49,NA,NA,3000,1,NA,NA,images/earth.jpg,images/rocket1,images/rocket2,null,images/rocket2,NA,1,real,null,1,NA,NA,NA,sub54
d3-animate-choice,259,909718,0.0-76.0-1.41,FALSE,TRUE,TRUE,TRUE,"""event"",""trial"",""time""
""fullscreenenter"",""5"",""16440""
","
","
","""event"",""trial"",""time""
""fullscreenenter"",""5"",""16440""
","
",729.0049999719486,NA,48,NA,NA,3000,1,NA,NA,images/redplanet1.jpg,images/alien2,images/alien1,images/rocket2,images/alien2,images/t.png,2,real,false,2,rare,1,2020-06-15T21:57:34Z,sub54
two-step-fixation,260,910724,0.0-76.0-2.41,FALSE,TRUE,TRUE,TRUE,"""event"",""trial"",""time""
""fullscreenenter"",""5"",""16440""
","
","
","""event"",""trial"",""time""
""fullscreenenter"",""5"",""16440""
","
",NA,images/earth.jpg,NA,NA,NA,NA,NA,NA,NA,NA,NA,NA,NA,NA,NA,fixation,NA,NA,NA,NA,NA,NA,sub54
d3-animate-choice,261,913062,0.0-76.0-0.42,FALSE,TRUE,TRUE,TRUE,"""event"",""trial"",""time""
""fullscreenenter"",""5"",""16440""
","
","
","""event"",""trial"",""time""
""fullscreenenter"",""5"",""16440""
","
",331.8299999809824,NA,49,NA,NA,3000,1,NA,NA,images/earth.jpg,images/rocket1,images/rocket2,null,images/rocket2,NA,1,real,null,1,NA,NA,NA,sub54
d3-animate-choice,262,915588,0.0-76.0-1.42,FALSE,TRUE,TRUE,TRUE,"""event"",""trial"",""time""
""fullscreenenter"",""5"",""16440""
","
","
","""event"",""trial"",""time""
""fullscreenenter"",""5"",""16440""
","
",521.0699999588542,NA,48,NA,NA,3000,1,NA,NA,images/redplanet1.jpg,images/alien2,images/alien1,images/rocket2,images/alien2,images/nothing.png,2,real,false,2,rare,0,2020-06-15T21:57:40Z,sub54
two-step-fixation,263,916592,0.0-76.0-2.42,FALSE,TRUE,TRUE,TRUE,"""event"",""trial"",""time""
""fullscreenenter"",""5"",""16440""
","
","
","""event"",""trial"",""time""
""fullscreenenter"",""5"",""16440""
","
",NA,images/earth.jpg,NA,NA,NA,NA,NA,NA,NA,NA,NA,NA,NA,NA,NA,fixation,NA,NA,NA,NA,NA,NA,sub54
d3-animate-choice,264,918949,0.0-76.0-0.43,FALSE,TRUE,TRUE,TRUE,"""event"",""trial"",""time""
""fullscreenenter"",""5"",""16440""
","
","
","""event"",""trial"",""time""
""fullscreenenter"",""5"",""16440""
","
",351.1900000157766,NA,49,NA,NA,3000,1,NA,NA,images/earth.jpg,images/rocket1,images/rocket2,null,images/rocket2,NA,1,real,null,1,NA,NA,NA,sub54
d3-animate-choice,265,921389,0.0-76.0-1.43,FALSE,TRUE,TRUE,TRUE,"""event"",""trial"",""time""
""fullscreenenter"",""5"",""16440""
","
","
","""event"",""trial"",""time""
""fullscreenenter"",""5"",""16440""
","
",434.80500002624467,NA,48,NA,NA,3000,1,NA,NA,images/purpleplanet.jpg,images/alien4,images/alien3,images/rocket2,images/alien4,images/t.png,2,real,true,2,common,1,2020-06-15T21:57:45Z,sub54
two-step-fixation,266,922396,0.0-76.0-2.43,FALSE,TRUE,TRUE,TRUE,"""event"",""trial"",""time""
""fullscreenenter"",""5"",""16440""
","
","
","""event"",""trial"",""time""
""fullscreenenter"",""5"",""16440""
","
",NA,images/earth.jpg,NA,NA,NA,NA,NA,NA,NA,NA,NA,NA,NA,NA,NA,fixation,NA,NA,NA,NA,NA,NA,sub54
d3-animate-choice,267,924749,0.0-76.0-0.44,FALSE,TRUE,TRUE,TRUE,"""event"",""trial"",""time""
""fullscreenenter"",""5"",""16440""
","
","
","""event"",""trial"",""time""
""fullscreenenter"",""5"",""16440""
","
",347.99500001827255,NA,49,NA,NA,3000,1,NA,NA,images/earth.jpg,images/rocket1,images/rocket2,null,images/rocket2,NA,1,real,null,1,NA,NA,NA,sub54
d3-animate-choice,268,927165,0.0-76.0-1.44,FALSE,TRUE,TRUE,TRUE,"""event"",""trial"",""time""
""fullscreenenter"",""5"",""16440""
","
","
","""event"",""trial"",""time""
""fullscreenenter"",""5"",""16440""
","
",410.10999999707565,NA,48,NA,NA,3000,1,NA,NA,images/redplanet1.jpg,images/alien2,images/alien1,images/rocket2,images/alien2,images/nothing.png,2,real,false,2,rare,0,2020-06-15T21:57:51Z,sub54
two-step-fixation,269,928172,0.0-76.0-2.44,FALSE,TRUE,TRUE,TRUE,"""event"",""trial"",""time""
""fullscreenenter"",""5"",""16440""
","
","
","""event"",""trial"",""time""
""fullscreenenter"",""5"",""16440""
","
",NA,images/earth.jpg,NA,NA,NA,NA,NA,NA,NA,NA,NA,NA,NA,NA,NA,fixation,NA,NA,NA,NA,NA,NA,sub54
d3-animate-choice,270,930598,0.0-76.0-0.45,FALSE,TRUE,TRUE,TRUE,"""event"",""trial"",""time""
""fullscreenenter"",""5"",""16440""
","
","
","""event"",""trial"",""time""
""fullscreenenter"",""5"",""16440""
","
",418.7349999556318,NA,49,NA,NA,3000,1,NA,NA,images/earth.jpg,images/rocket1,images/rocket2,null,images/rocket2,NA,1,real,null,1,NA,NA,NA,sub54
d3-animate-choice,271,933093,0.0-76.0-1.45,FALSE,TRUE,TRUE,TRUE,"""event"",""trial"",""time""
""fullscreenenter"",""5"",""16440""
","
","
","""event"",""trial"",""time""
""fullscreenenter"",""5"",""16440""
","
",489.1150000039488,NA,48,NA,NA,3000,1,NA,NA,images/purpleplanet.jpg,images/alien4,images/alien3,images/rocket2,images/alien4,images/t.png,2,real,true,2,common,1,2020-06-15T21:57:57Z,sub54
two-step-fixation,272,934094,0.0-76.0-2.45,FALSE,TRUE,TRUE,TRUE,"""event"",""trial"",""time""
""fullscreenenter"",""5"",""16440""
","
","
","""event"",""trial"",""time""
""fullscreenenter"",""5"",""16440""
","
",NA,images/earth.jpg,NA,NA,NA,NA,NA,NA,NA,NA,NA,NA,NA,NA,NA,fixation,NA,NA,NA,NA,NA,NA,sub54
d3-animate-choice,273,936839,0.0-76.0-0.46,FALSE,TRUE,TRUE,TRUE,"""event"",""trial"",""time""
""fullscreenenter"",""5"",""16440""
","
","
","""event"",""trial"",""time""
""fullscreenenter"",""5"",""16440""
","
",737.3200000147335,NA,48,NA,NA,3000,1,NA,NA,images/earth.jpg,images/rocket1,images/rocket2,null,images/rocket1,NA,1,real,null,2,NA,NA,NA,sub54
d3-animate-choice,274,939254,0.0-76.0-1.46,FALSE,TRUE,TRUE,TRUE,"""event"",""trial"",""time""
""fullscreenenter"",""5"",""16440""
","
","
","""event"",""trial"",""time""
""fullscreenenter"",""5"",""16440""
","
",409.7450000117533,NA,48,NA,NA,3000,1,NA,NA,images/purpleplanet.jpg,images/alien4,images/alien3,images/rocket1,images/alien4,images/nothing.png,2,real,false,2,rare,0,2020-06-15T21:58:03Z,sub54
two-step-fixation,275,940260,0.0-76.0-2.46,FALSE,TRUE,TRUE,TRUE,"""event"",""trial"",""time""
""fullscreenenter"",""5"",""16440""
","
","
","""event"",""trial"",""time""
""fullscreenenter"",""5"",""16440""
","
",NA,images/earth.jpg,NA,NA,NA,NA,NA,NA,NA,NA,NA,NA,NA,NA,NA,fixation,NA,NA,NA,NA,NA,NA,sub54
d3-animate-choice,276,942605,0.0-76.0-0.47,FALSE,TRUE,TRUE,TRUE,"""event"",""trial"",""time""
""fullscreenenter"",""5"",""16440""
","
","
","""event"",""trial"",""time""
""fullscreenenter"",""5"",""16440""
","
",338.9999999781139,NA,48,NA,NA,3000,1,NA,NA,images/earth.jpg,images/rocket1,images/rocket2,null,images/rocket1,NA,1,real,null,2,NA,NA,NA,sub54
d3-animate-choice,277,945293,0.0-76.0-1.47,FALSE,TRUE,TRUE,TRUE,"""event"",""trial"",""time""
""fullscreenenter"",""5"",""16440""
","
","
","""event"",""trial"",""time""
""fullscreenenter"",""5"",""16440""
","
",683.4500000113621,NA,48,NA,NA,3000,1,NA,NA,images/redplanet1.jpg,images/alien2,images/alien1,images/rocket1,images/alien2,images/nothing.png,2,real,true,2,common,0,2020-06-15T21:58:09Z,sub54
two-step-fixation,278,946300,0.0-76.0-2.47,FALSE,TRUE,TRUE,TRUE,"""event"",""trial"",""time""
""fullscreenenter"",""5"",""16440""
","
","
","""event"",""trial"",""time""
""fullscreenenter"",""5"",""16440""
","
",NA,images/earth.jpg,NA,NA,NA,NA,NA,NA,NA,NA,NA,NA,NA,NA,NA,fixation,NA,NA,NA,NA,NA,NA,sub54
d3-animate-choice,279,948622,0.0-76.0-0.48,FALSE,TRUE,TRUE,TRUE,"""event"",""trial"",""time""
""fullscreenenter"",""5"",""16440""
","
","
","""event"",""trial"",""time""
""fullscreenenter"",""5"",""16440""
","
",315.48500002827495,NA,49,NA,NA,3000,1,NA,NA,images/earth.jpg,images/rocket1,images/rocket2,null,images/rocket2,NA,1,real,null,1,NA,NA,NA,sub54
d3-animate-choice,280,951118,0.0-76.0-1.48,FALSE,TRUE,TRUE,TRUE,"""event"",""trial"",""time""
""fullscreenenter"",""5"",""16440""
","
","
","""event"",""trial"",""time""
""fullscreenenter"",""5"",""16440""
","
",489.88000000827014,NA,49,NA,NA,3000,1,NA,NA,images/purpleplanet.jpg,images/alien4,images/alien3,images/rocket2,images/alien3,images/nothing.png,2,real,true,1,common,0,2020-06-15T21:58:15Z,sub54
two-step-fixation,281,952123,0.0-76.0-2.48,FALSE,TRUE,TRUE,TRUE,"""event"",""trial"",""time""
""fullscreenenter"",""5"",""16440""
","
","
","""event"",""trial"",""time""
""fullscreenenter"",""5"",""16440""
","
",NA,images/earth.jpg,NA,NA,NA,NA,NA,NA,NA,NA,NA,NA,NA,NA,NA,fixation,NA,NA,NA,NA,NA,NA,sub54
d3-animate-choice,282,954967,0.0-76.0-0.49,FALSE,TRUE,TRUE,TRUE,"""event"",""trial"",""time""
""fullscreenenter"",""5"",""16440""
","
","
","""event"",""trial"",""time""
""fullscreenenter"",""5"",""16440""
","
",837.5249999808148,NA,48,NA,NA,3000,1,NA,NA,images/earth.jpg,images/rocket1,images/rocket2,null,images/rocket1,NA,1,real,null,2,NA,NA,NA,sub54
d3-animate-choice,283,957493,0.0-76.0-1.49,FALSE,TRUE,TRUE,TRUE,"""event"",""trial"",""time""
""fullscreenenter"",""5"",""16440""
","
","
","""event"",""trial"",""time""
""fullscreenenter"",""5"",""16440""
","
",520.4500000108965,NA,49,NA,NA,3000,1,NA,NA,images/redplanet1.jpg,images/alien2,images/alien1,images/rocket1,images/alien1,images/t.png,2,real,true,1,common,1,2020-06-15T21:58:22Z,sub54
two-step-fixation,284,958499,0.0-76.0-2.49,FALSE,TRUE,TRUE,TRUE,"""event"",""trial"",""time""
""fullscreenenter"",""5"",""16440""
","
","
","""event"",""trial"",""time""
""fullscreenenter"",""5"",""16440""
","
