trial_type,trial_index,time_elapsed,internal_node_id,rocket_sides,red_planet_first_rocket,red_display_order,purple_display_order,interactions,blur_events,focus_events,fullscreenenter_events,fullscreenexit_events,rt,stimulus,key_press,button_pressed,success,duration,valid_pressed,rts,keys,planet_text,right_text,left_text,center_text,chosen_text,reward_text,trial_stage,practice_trial,transition_type,choice,transition,reward,timestamp,subject_id
pavlovia,0,14,0.0-0.0,TRUE,TRUE,FALSE,TRUE,"""event"",""trial"",""time""
""focus"",""0"",""0""
""blur"",""0"",""0""
""focus"",""1"",""635""
","""event"",""trial"",""time""
""blur"",""0"",""0""
","""event"",""trial"",""time""
""focus"",""0"",""0""
""focus"",""1"",""635""
","
","
",NA,NA,NA,NA,NA,NA,NA,NA,NA,NA,NA,NA,NA,NA,NA,NA,NA,NA,NA,NA,NA,NA,sub88
html-keyboard-response,1,2147,0.0-1.0,TRUE,TRUE,FALSE,TRUE,"""event"",""trial"",""time""
""focus"",""0"",""0""
""blur"",""0"",""0""
""focus"",""1"",""635""
","""event"",""trial"",""time""
""blur"",""0"",""0""
","""event"",""trial"",""time""
""focus"",""0"",""0""
""focus"",""1"",""635""
","
","
",2126.764999993611,Welcome! Press the space bar to begin.,32,NA,NA,NA,NA,NA,NA,NA,NA,NA,NA,NA,NA,NA,NA,NA,NA,NA,NA,NA,sub88
audio-keyboard-response,2,4992,0.0-2.0,TRUE,TRUE,FALSE,TRUE,"""event"",""trial"",""time""
""focus"",""0"",""0""
""blur"",""0"",""0""
""focus"",""1"",""635""
","""event"",""trial"",""time""
""blur"",""0"",""0""
","""event"",""trial"",""time""
""focus"",""0"",""0""
""focus"",""1"",""635""
","
","
",2816,audio/beep_loop.wav,32,NA,NA,NA,NA,NA,NA,NA,NA,NA,NA,NA,NA,NA,NA,NA,NA,NA,NA,NA,sub88
audio-button-response,3,25149,0.0-3.0,TRUE,TRUE,FALSE,TRUE,"""event"",""trial"",""time""
""focus"",""0"",""0""
""blur"",""0"",""0""
""focus"",""1"",""635""
","""event"",""trial"",""time""
""blur"",""0"",""0""
","""event"",""trial"",""time""
""focus"",""0"",""0""
""focus"",""1"",""635""
","
","
",NaN,audio/fish.mp3,NA,1,NA,NA,NA,NA,NA,NA,NA,NA,NA,NA,NA,NA,NA,NA,NA,NA,NA,NA,sub88
audio-button-response,4,38511,0.0-4.0,TRUE,TRUE,FALSE,TRUE,"""event"",""trial"",""time""
""focus"",""0"",""0""
""blur"",""0"",""0""
""focus"",""1"",""635""
""fullscreenenter"",""5"",""53477""
","""event"",""trial"",""time""
""blur"",""0"",""0""
","""event"",""trial"",""time""
""focus"",""0"",""0""
""focus"",""1"",""635""
","""event"",""trial"",""time""
""fullscreenenter"",""5"",""53477""
","
",NaN,audio/tiger.mp3,NA,4,NA,NA,NA,NA,NA,NA,NA,NA,NA,NA,NA,NA,NA,NA,NA,NA,NA,NA,sub88
fullscreen,5,54465,0.0-5.0,TRUE,TRUE,FALSE,TRUE,"""event"",""trial"",""time""
""focus"",""0"",""0""
""blur"",""0"",""0""
""focus"",""1"",""635""
""fullscreenenter"",""5"",""53477""
","""event"",""trial"",""time""
""blur"",""0"",""0""
","""event"",""trial"",""time""
""focus"",""0"",""0""
""focus"",""1"",""635""
","""event"",""trial"",""time""
""fullscreenenter"",""5"",""53477""
","
",NA,NA,NA,NA,TRUE,NA,NA,NA,NA,NA,NA,NA,NA,NA,NA,NA,NA,NA,NA,NA,NA,NA,sub88
d3-instructions,6,75237,0.0-6.0,TRUE,TRUE,FALSE,TRUE,"""event"",""trial"",""time""
""focus"",""0"",""0""
""blur"",""0"",""0""
""focus"",""1"",""635""
""fullscreenenter"",""5"",""53477""
","""event"",""trial"",""time""
""blur"",""0"",""0""
","""event"",""trial"",""time""
""focus"",""0"",""0""
""focus"",""1"",""635""
","""event"",""trial"",""time""
""fullscreenenter"",""5"",""53477""
","
",NA,NA,NA,NA,NA,NA,NA,NA,NA,NA,NA,NA,NA,NA,NA,NA,NA,NA,NA,NA,NA,NA,sub88
d3-instructions,7,94504,0.0-7.0,TRUE,TRUE,FALSE,TRUE,"""event"",""trial"",""time""
""focus"",""0"",""0""
""blur"",""0"",""0""
""focus"",""1"",""635""
""fullscreenenter"",""5"",""53477""
","""event"",""trial"",""time""
""blur"",""0"",""0""
","""event"",""trial"",""time""
""focus"",""0"",""0""
""focus"",""1"",""635""
","""event"",""trial"",""time""
""fullscreenenter"",""5"",""53477""
","
",NA,NA,NA,NA,NA,NA,NA,NA,NA,NA,NA,NA,NA,NA,NA,NA,NA,NA,NA,NA,NA,NA,sub88
d3-instructions,8,101943,0.0-8.0,TRUE,TRUE,FALSE,TRUE,"""event"",""trial"",""time""
""focus"",""0"",""0""
""blur"",""0"",""0""
""focus"",""1"",""635""
""fullscreenenter"",""5"",""53477""
","""event"",""trial"",""time""
""blur"",""0"",""0""
","""event"",""trial"",""time""
""focus"",""0"",""0""
""focus"",""1"",""635""
","""event"",""trial"",""time""
""fullscreenenter"",""5"",""53477""
","
",NA,NA,NA,NA,NA,NA,NA,NA,NA,NA,NA,NA,NA,NA,NA,NA,NA,NA,NA,NA,NA,NA,sub88
d3-instructions,9,114390,0.0-9.0,TRUE,TRUE,FALSE,TRUE,"""event"",""trial"",""time""
""focus"",""0"",""0""
""blur"",""0"",""0""
""focus"",""1"",""635""
""fullscreenenter"",""5"",""53477""
","""event"",""trial"",""time""
""blur"",""0"",""0""
","""event"",""trial"",""time""
""focus"",""0"",""0""
""focus"",""1"",""635""
","""event"",""trial"",""time""
""fullscreenenter"",""5"",""53477""
","
",NA,NA,NA,NA,NA,NA,NA,NA,NA,NA,NA,NA,NA,NA,NA,NA,NA,NA,NA,NA,NA,NA,sub88
d3-instructions,10,159835,0.0-10.0,TRUE,TRUE,FALSE,TRUE,"""event"",""trial"",""time""
""focus"",""0"",""0""
""blur"",""0"",""0""
""focus"",""1"",""635""
""fullscreenenter"",""5"",""53477""
","""event"",""trial"",""time""
""blur"",""0"",""0""
","""event"",""trial"",""time""
""focus"",""0"",""0""
""focus"",""1"",""635""
","""event"",""trial"",""time""
""fullscreenenter"",""5"",""53477""
","
",NA,NA,NA,NA,NA,NA,NA,NA,NA,NA,NA,NA,NA,NA,NA,NA,NA,NA,NA,NA,NA,NA,sub88
d3-animate-choice,11,164643,0.0-11.0,TRUE,TRUE,FALSE,TRUE,"""event"",""trial"",""time""
""focus"",""0"",""0""
""blur"",""0"",""0""
""focus"",""1"",""635""
""fullscreenenter"",""5"",""53477""
","""event"",""trial"",""time""
""blur"",""0"",""0""
","""event"",""trial"",""time""
""focus"",""0"",""0""
""focus"",""1"",""635""
","""event"",""trial"",""time""
""fullscreenenter"",""5"",""53477""
","
",2785.940000001574,NA,49,NA,NA,3000,1,4658.26999998535,48,images/tutgreenplanet.jpg,images/tutalien1,images/tutalien2,null,images/tutalien2,NA,NA,practice,null,NA,NA,NA,NA,sub88
d3-animate-choice,12,167647,0.0-12.0,TRUE,TRUE,FALSE,TRUE,"""event"",""trial"",""time""
""focus"",""0"",""0""
""blur"",""0"",""0""
""focus"",""1"",""635""
""fullscreenenter"",""5"",""53477""
","""event"",""trial"",""time""
""blur"",""0"",""0""
","""event"",""trial"",""time""
""focus"",""0"",""0""
""focus"",""1"",""635""
","""event"",""trial"",""time""
""fullscreenenter"",""5"",""53477""
","
",987.6950000179932,NA,48,NA,NA,3000,1,2275.450000015553,48,images/tutgreenplanet.jpg,images/tutalien1,images/tutalien2,null,images/tutalien1,NA,NA,practice,null,NA,NA,NA,NA,sub88
d3-animate-choice,13,171220,0.0-13.0,TRUE,TRUE,FALSE,TRUE,"""event"",""trial"",""time""
""focus"",""0"",""0""
""blur"",""0"",""0""
""focus"",""1"",""635""
""fullscreenenter"",""5"",""53477""
","""event"",""trial"",""time""
""blur"",""0"",""0""
","""event"",""trial"",""time""
""focus"",""0"",""0""
""focus"",""1"",""635""
","""event"",""trial"",""time""
""fullscreenenter"",""5"",""53477""
","
",1555.4050000209827,NA,49,NA,NA,3000,1,NA,NA,images/tutgreenplanet.jpg,images/tutalien1,images/tutalien2,null,images/tutalien2,NA,NA,practice,null,NA,NA,NA,NA,sub88
d3-animate-choice,14,173842,0.0-14.0,TRUE,TRUE,FALSE,TRUE,"""event"",""trial"",""time""
""focus"",""0"",""0""
""blur"",""0"",""0""
""focus"",""1"",""635""
""fullscreenenter"",""5"",""53477""
","""event"",""trial"",""time""
""blur"",""0"",""0""
","""event"",""trial"",""time""
""focus"",""0"",""0""
""focus"",""1"",""635""
","""event"",""trial"",""time""
""fullscreenenter"",""5"",""53477""
","
",607.8749999869615,NA,48,NA,NA,3000,1,NA,NA,images/tutgreenplanet.jpg,images/tutalien1,images/tutalien2,null,images/tutalien1,NA,NA,practice,null,NA,NA,NA,NA,sub88
d3-instructions,15,185295,0.0-15.0,TRUE,TRUE,FALSE,TRUE,"""event"",""trial"",""time""
""focus"",""0"",""0""
""blur"",""0"",""0""
""focus"",""1"",""635""
""fullscreenenter"",""5"",""53477""
","""event"",""trial"",""time""
""blur"",""0"",""0""
","""event"",""trial"",""time""
""focus"",""0"",""0""
""focus"",""1"",""635""
","""event"",""trial"",""time""
""fullscreenenter"",""5"",""53477""
","
",NA,NA,NA,NA,NA,NA,NA,NA,NA,NA,NA,NA,NA,NA,NA,NA,NA,NA,NA,NA,NA,NA,sub88
d3-instructions,16,191456,0.0-16.0,TRUE,TRUE,FALSE,TRUE,"""event"",""trial"",""time""
""focus"",""0"",""0""
""blur"",""0"",""0""
""focus"",""1"",""635""
""fullscreenenter"",""5"",""53477""
","""event"",""trial"",""time""
""blur"",""0"",""0""
","""event"",""trial"",""time""
""focus"",""0"",""0""
""focus"",""1"",""635""
","""event"",""trial"",""time""
""fullscreenenter"",""5"",""53477""
","
",NA,NA,NA,NA,NA,NA,NA,NA,NA,NA,NA,NA,NA,NA,NA,NA,NA,NA,NA,NA,NA,NA,sub88
d3-instructions,17,199472,0.0-17.0,TRUE,TRUE,FALSE,TRUE,"""event"",""trial"",""time""
""focus"",""0"",""0""
""blur"",""0"",""0""
""focus"",""1"",""635""
""fullscreenenter"",""5"",""53477""
","""event"",""trial"",""time""
""blur"",""0"",""0""
","""event"",""trial"",""time""
""focus"",""0"",""0""
""focus"",""1"",""635""
","""event"",""trial"",""time""
""fullscreenenter"",""5"",""53477""
","
",NA,NA,NA,NA,NA,NA,NA,NA,NA,NA,NA,NA,NA,NA,NA,NA,NA,NA,NA,NA,NA,NA,sub88
d3-instructions,18,214018,0.0-18.0,TRUE,TRUE,FALSE,TRUE,"""event"",""trial"",""time""
""focus"",""0"",""0""
""blur"",""0"",""0""
""focus"",""1"",""635""
""fullscreenenter"",""5"",""53477""
","""event"",""trial"",""time""
""blur"",""0"",""0""
","""event"",""trial"",""time""
""focus"",""0"",""0""
""focus"",""1"",""635""
","""event"",""trial"",""time""
""fullscreenenter"",""5"",""53477""
","
",NA,NA,NA,NA,NA,NA,NA,NA,NA,NA,NA,NA,NA,NA,NA,NA,NA,NA,NA,NA,NA,NA,sub88
d3-instructions,19,228585,0.0-19.0,TRUE,TRUE,FALSE,TRUE,"""event"",""trial"",""time""
""focus"",""0"",""0""
""blur"",""0"",""0""
""focus"",""1"",""635""
""fullscreenenter"",""5"",""53477""
","""event"",""trial"",""time""
""blur"",""0"",""0""
","""event"",""trial"",""time""
""focus"",""0"",""0""
""focus"",""1"",""635""
","""event"",""trial"",""time""
""fullscreenenter"",""5"",""53477""
","
",NA,NA,NA,NA,NA,NA,NA,NA,NA,NA,NA,NA,NA,NA,NA,NA,NA,NA,NA,NA,NA,NA,sub88
d3-animate-choice,20,231777,0.0-20.0,TRUE,TRUE,FALSE,TRUE,"""event"",""trial"",""time""
""focus"",""0"",""0""
""blur"",""0"",""0""
""focus"",""1"",""635""
""fullscreenenter"",""5"",""53477""
","""event"",""trial"",""time""
""blur"",""0"",""0""
","""event"",""trial"",""time""
""focus"",""0"",""0""
""focus"",""1"",""635""
","""event"",""trial"",""time""
""fullscreenenter"",""5"",""53477""
","
",1181.9649999961257,NA,49,NA,NA,3000,1,"1843.3749999967404,2386.8899999943096,3148.1349999958184",494949,images/tutyellowplanet.jpg,null,images/tutalien3,null,images/tutalien3,images/nothing.png,NA,practice,null,NA,NA,NA,NA,sub88
d3-animate-choice,21,234421,0.0-21.0,TRUE,TRUE,FALSE,TRUE,"""event"",""trial"",""time""
""focus"",""0"",""0""
""blur"",""0"",""0""
""focus"",""1"",""635""
""fullscreenenter"",""5"",""53477""
","""event"",""trial"",""time""
""blur"",""0"",""0""
","""event"",""trial"",""time""
""focus"",""0"",""0""
""focus"",""1"",""635""
","""event"",""trial"",""time""
""fullscreenenter"",""5"",""53477""
","
",629.8750000132713,NA,49,NA,NA,3000,1,"1238.260000012815,2121.4550000149757",4949,images/tutyellowplanet.jpg,null,images/tutalien3,null,images/tutalien3,images/t.png,NA,practice,null,NA,NA,NA,NA,sub88
d3-animate-choice,22,236867,0.0-22.0,TRUE,TRUE,FALSE,TRUE,"""event"",""trial"",""time""
""focus"",""0"",""0""
""blur"",""0"",""0""
""focus"",""1"",""635""
""fullscreenenter"",""5"",""53477""
","""event"",""trial"",""time""
""blur"",""0"",""0""
","""event"",""trial"",""time""
""focus"",""0"",""0""
""focus"",""1"",""635""
","""event"",""trial"",""time""
""fullscreenenter"",""5"",""53477""
","
",433.27499998849817,NA,49,NA,NA,3000,1,"1094.5449999999255,1649.7249999956694",4949,images/tutyellowplanet.jpg,null,images/tutalien3,null,images/tutalien3,images/t.png,NA,practice,null,NA,NA,NA,NA,sub88
d3-animate-choice,23,239583,0.0-23.0,TRUE,TRUE,FALSE,TRUE,"""event"",""trial"",""time""
""focus"",""0"",""0""
""blur"",""0"",""0""
""focus"",""1"",""635""
""fullscreenenter"",""5"",""53477""
","""event"",""trial"",""time""
""blur"",""0"",""0""
","""event"",""trial"",""time""
""focus"",""0"",""0""
""focus"",""1"",""635""
","""event"",""trial"",""time""
""fullscreenenter"",""5"",""53477""
","
",704.7400000155903,NA,49,NA,NA,3000,1,"998.6849999986589,1313.8850000104867,1712.7600000239909,2138.1150000088383,2689.4850000098813",4949494949,images/tutyellowplanet.jpg,null,images/tutalien3,null,images/tutalien3,images/t.png,NA,practice,null,NA,NA,NA,NA,sub88
d3-animate-choice,24,241925,0.0-24.0,TRUE,TRUE,FALSE,TRUE,"""event"",""trial"",""time""
""focus"",""0"",""0""
""blur"",""0"",""0""
""focus"",""1"",""635""
""fullscreenenter"",""5"",""53477""
","""event"",""trial"",""time""
""blur"",""0"",""0""
","""event"",""trial"",""time""
""focus"",""0"",""0""
""focus"",""1"",""635""
","""event"",""trial"",""time""
""fullscreenenter"",""5"",""53477""
","
",328.32000000053085,NA,49,NA,NA,3000,1,NA,NA,images/tutyellowplanet.jpg,null,images/tutalien3,null,images/tutalien3,images/t.png,NA,practice,null,NA,NA,NA,NA,sub88
d3-animate-choice,25,244772,0.0-25.0,TRUE,TRUE,FALSE,TRUE,"""event"",""trial"",""time""
""focus"",""0"",""0""
""blur"",""0"",""0""
""focus"",""1"",""635""
""fullscreenenter"",""5"",""53477""
","""event"",""trial"",""time""
""blur"",""0"",""0""
","""event"",""trial"",""time""
""focus"",""0"",""0""
""focus"",""1"",""635""
","""event"",""trial"",""time""
""fullscreenenter"",""5"",""53477""
","
",838.01500001573,NA,49,NA,NA,3000,1,2388.0000000062864,49,images/tutyellowplanet.jpg,null,images/tutalien3,null,images/tutalien3,images/t.png,NA,practice,null,NA,NA,NA,NA,sub88
d3-animate-choice,26,247279,0.0-26.0,TRUE,TRUE,FALSE,TRUE,"""event"",""trial"",""time""
""focus"",""0"",""0""
""blur"",""0"",""0""
""focus"",""1"",""635""
""fullscreenenter"",""5"",""53477""
","""event"",""trial"",""time""
""blur"",""0"",""0""
","""event"",""trial"",""time""
""focus"",""0"",""0""
""focus"",""1"",""635""
","""event"",""trial"",""time""
""fullscreenenter"",""5"",""53477""
","
",497.7450000005774,NA,49,NA,NA,3000,1,2116.024999995716,49,images/tutyellowplanet.jpg,null,images/tutalien3,null,images/tutalien3,images/t.png,NA,practice,null,NA,NA,NA,NA,sub88
d3-animate-choice,27,249901,0.0-27.0,TRUE,TRUE,FALSE,TRUE,"""event"",""trial"",""time""
""focus"",""0"",""0""
""blur"",""0"",""0""
""focus"",""1"",""635""
""fullscreenenter"",""5"",""53477""
","""event"",""trial"",""time""
""blur"",""0"",""0""
","""event"",""trial"",""time""
""focus"",""0"",""0""
""focus"",""1"",""635""
","""event"",""trial"",""time""
""fullscreenenter"",""5"",""53477""
","
",612.1049999783281,NA,49,NA,NA,3000,1,NA,NA,images/tutyellowplanet.jpg,null,images/tutalien3,null,images/tutalien3,images/nothing.png,NA,practice,null,NA,NA,NA,NA,sub88
d3-animate-choice,28,252472,0.0-28.0,TRUE,TRUE,FALSE,TRUE,"""event"",""trial"",""time""
""focus"",""0"",""0""
""blur"",""0"",""0""
""focus"",""1"",""635""
""fullscreenenter"",""5"",""53477""
","""event"",""trial"",""time""
""blur"",""0"",""0""
","""event"",""trial"",""time""
""focus"",""0"",""0""
""focus"",""1"",""635""
","""event"",""trial"",""time""
""fullscreenenter"",""5"",""53477""
","
",560.7949999975972,NA,49,NA,NA,3000,1,NA,NA,images/tutyellowplanet.jpg,null,images/tutalien3,null,images/tutalien3,images/t.png,NA,practice,null,NA,NA,NA,NA,sub88
d3-animate-choice,29,254862,0.0-29.0,TRUE,TRUE,FALSE,TRUE,"""event"",""trial"",""time""
""focus"",""0"",""0""
""blur"",""0"",""0""
""focus"",""1"",""635""
""fullscreenenter"",""5"",""53477""
","""event"",""trial"",""time""
""blur"",""0"",""0""
","""event"",""trial"",""time""
""focus"",""0"",""0""
""focus"",""1"",""635""
","""event"",""trial"",""time""
""fullscreenenter"",""5"",""53477""
","
",378.72500001685694,NA,49,NA,NA,3000,1,2281.0300000128336,49,images/tutyellowplanet.jpg,null,images/tutalien3,null,images/tutalien3,images/t.png,NA,practice,null,NA,NA,NA,NA,sub88
d3-instructions,30,262361,0.0-30.0,TRUE,TRUE,FALSE,TRUE,"""event"",""trial"",""time""
""focus"",""0"",""0""
""blur"",""0"",""0""
""focus"",""1"",""635""
""fullscreenenter"",""5"",""53477""
","""event"",""trial"",""time""
""blur"",""0"",""0""
","""event"",""trial"",""time""
""focus"",""0"",""0""
""focus"",""1"",""635""
","""event"",""trial"",""time""
""fullscreenenter"",""5"",""53477""
","
",NA,NA,NA,NA,NA,NA,NA,NA,NA,NA,NA,NA,NA,NA,NA,NA,NA,NA,NA,NA,NA,NA,sub88
d3-instructions,31,273160,0.0-31.0,TRUE,TRUE,FALSE,TRUE,"""event"",""trial"",""time""
""focus"",""0"",""0""
""blur"",""0"",""0""
""focus"",""1"",""635""
""fullscreenenter"",""5"",""53477""
","""event"",""trial"",""time""
""blur"",""0"",""0""
","""event"",""trial"",""time""
""focus"",""0"",""0""
""focus"",""1"",""635""
","""event"",""trial"",""time""
""fullscreenenter"",""5"",""53477""
","
",NA,NA,NA,NA,NA,NA,NA,NA,NA,NA,NA,NA,NA,NA,NA,NA,NA,NA,NA,NA,NA,NA,sub88
d3-instructions,32,283176,0.0-32.0,TRUE,TRUE,FALSE,TRUE,"""event"",""trial"",""time""
""focus"",""0"",""0""
""blur"",""0"",""0""
""focus"",""1"",""635""
""fullscreenenter"",""5"",""53477""
","""event"",""trial"",""time""
""blur"",""0"",""0""
","""event"",""trial"",""time""
""focus"",""0"",""0""
""focus"",""1"",""635""
","""event"",""trial"",""time""
""fullscreenenter"",""5"",""53477""
","
",NA,NA,NA,NA,NA,NA,NA,NA,NA,NA,NA,NA,NA,NA,NA,NA,NA,NA,NA,NA,NA,NA,sub88
d3-instructions,33,289773,0.0-33.0,TRUE,TRUE,FALSE,TRUE,"""event"",""trial"",""time""
""focus"",""0"",""0""
""blur"",""0"",""0""
""focus"",""1"",""635""
""fullscreenenter"",""5"",""53477""
","""event"",""trial"",""time""
""blur"",""0"",""0""
","""event"",""trial"",""time""
""focus"",""0"",""0""
""focus"",""1"",""635""
","""event"",""trial"",""time""
""fullscreenenter"",""5"",""53477""
","
",NA,NA,NA,NA,NA,NA,NA,NA,NA,NA,NA,NA,NA,NA,NA,NA,NA,NA,NA,NA,NA,NA,sub88
d3-animate-choice,34,293792,0.0-34.0,TRUE,TRUE,FALSE,TRUE,"""event"",""trial"",""time""
""focus"",""0"",""0""
""blur"",""0"",""0""
""focus"",""1"",""635""
""fullscreenenter"",""5"",""53477""
","""event"",""trial"",""time""
""blur"",""0"",""0""
","""event"",""trial"",""time""
""focus"",""0"",""0""
""focus"",""1"",""635""
","""event"",""trial"",""time""
""fullscreenenter"",""5"",""53477""
","
",2006.2399999878835,NA,49,NA,NA,3000,1,NA,NA,images/tutgreenplanet.jpg,images/tutalien1,images/tutalien2,null,images/tutalien2,images/t.png,NA,practice,null,NA,NA,NA,NA,sub88
d3-animate-choice,35,297877,0.0-35.0,TRUE,TRUE,FALSE,TRUE,"""event"",""trial"",""time""
""focus"",""0"",""0""
""blur"",""0"",""0""
""focus"",""1"",""635""
""fullscreenenter"",""5"",""53477""
","""event"",""trial"",""time""
""blur"",""0"",""0""
","""event"",""trial"",""time""
""focus"",""0"",""0""
""focus"",""1"",""635""
","""event"",""trial"",""time""
""fullscreenenter"",""5"",""53477""
","
",2077.740000007907,NA,48,NA,NA,3000,1,NA,NA,images/tutgreenplanet.jpg,images/tutalien1,images/tutalien2,null,images/tutalien1,images/nothing.png,NA,practice,null,NA,NA,NA,NA,sub88
d3-animate-choice,36,300783,0.0-36.0,TRUE,TRUE,FALSE,TRUE,"""event"",""trial"",""time""
""focus"",""0"",""0""
""blur"",""0"",""0""
""focus"",""1"",""635""
""fullscreenenter"",""5"",""53477""
","""event"",""trial"",""time""
""blur"",""0"",""0""
","""event"",""trial"",""time""
""focus"",""0"",""0""
""focus"",""1"",""635""
","""event"",""trial"",""time""
""fullscreenenter"",""5"",""53477""
","
",897.7449999947567,NA,49,NA,NA,3000,1,NA,NA,images/tutgreenplanet.jpg,images/tutalien1,images/tutalien2,null,images/tutalien2,images/t.png,NA,practice,null,NA,NA,NA,NA,sub88
d3-animate-choice,37,303390,0.0-37.0,TRUE,TRUE,FALSE,TRUE,"""event"",""trial"",""time""
""focus"",""0"",""0""
""blur"",""0"",""0""
""focus"",""1"",""635""
""fullscreenenter"",""5"",""53477""
","""event"",""trial"",""time""
""blur"",""0"",""0""
","""event"",""trial"",""time""
""focus"",""0"",""0""
""focus"",""1"",""635""
","""event"",""trial"",""time""
""fullscreenenter"",""5"",""53477""
","
",596.4249999960884,NA,48,NA,NA,3000,1,NA,NA,images/tutgreenplanet.jpg,images/tutalien1,images/tutalien2,null,images/tutalien1,images/nothing.png,NA,practice,null,NA,NA,NA,NA,sub88
d3-animate-choice,38,305940,0.0-38.0,TRUE,TRUE,FALSE,TRUE,"""event"",""trial"",""time""
""focus"",""0"",""0""
""blur"",""0"",""0""
""focus"",""1"",""635""
""fullscreenenter"",""5"",""53477""
","""event"",""trial"",""time""
""blur"",""0"",""0""
","""event"",""trial"",""time""
""focus"",""0"",""0""
""focus"",""1"",""635""
","""event"",""trial"",""time""
""fullscreenenter"",""5"",""53477""
","
",538.8749999983702,NA,49,NA,NA,3000,1,NA,NA,images/tutgreenplanet.jpg,images/tutalien1,images/tutalien2,null,images/tutalien2,images/t.png,NA,practice,null,NA,NA,NA,NA,sub88
d3-animate-choice,39,308381,0.0-39.0,TRUE,TRUE,FALSE,TRUE,"""event"",""trial"",""time""
""focus"",""0"",""0""
""blur"",""0"",""0""
""focus"",""1"",""635""
""fullscreenenter"",""5"",""53477""
","""event"",""trial"",""time""
""blur"",""0"",""0""
","""event"",""trial"",""time""
""focus"",""0"",""0""
""focus"",""1"",""635""
","""event"",""trial"",""time""
""fullscreenenter"",""5"",""53477""
","
",426.1549999937415,NA,49,NA,NA,3000,1,NA,NA,images/tutgreenplanet.jpg,images/tutalien1,images/tutalien2,null,images/tutalien2,images/nothing.png,NA,practice,null,NA,NA,NA,NA,sub88
d3-animate-choice,40,310769,0.0-40.0,TRUE,TRUE,FALSE,TRUE,"""event"",""trial"",""time""
""focus"",""0"",""0""
""blur"",""0"",""0""
""focus"",""1"",""635""
""fullscreenenter"",""5"",""53477""
","""event"",""trial"",""time""
""blur"",""0"",""0""
","""event"",""trial"",""time""
""focus"",""0"",""0""
""focus"",""1"",""635""
","""event"",""trial"",""time""
""fullscreenenter"",""5"",""53477""
","
",378.3349999866914,NA,48,NA,NA,3000,1,NA,NA,images/tutgreenplanet.jpg,images/tutalien1,images/tutalien2,null,images/tutalien1,images/nothing.png,NA,practice,null,NA,NA,NA,NA,sub88
d3-animate-choice,41,313180,0.0-41.0,TRUE,TRUE,FALSE,TRUE,"""event"",""trial"",""time""
""focus"",""0"",""0""
""blur"",""0"",""0""
""focus"",""1"",""635""
""fullscreenenter"",""5"",""53477""
","""event"",""trial"",""time""
""blur"",""0"",""0""
","""event"",""trial"",""time""
""focus"",""0"",""0""
""focus"",""1"",""635""
","""event"",""trial"",""time""
""fullscreenenter"",""5"",""53477""
","
",395.81499999621883,NA,49,NA,NA,3000,1,NA,NA,images/tutgreenplanet.jpg,images/tutalien1,images/tutalien2,null,images/tutalien2,images/t.png,NA,practice,null,NA,NA,NA,NA,sub88
d3-animate-choice,42,315518,0.0-42.0,TRUE,TRUE,FALSE,TRUE,"""event"",""trial"",""time""
""focus"",""0"",""0""
""blur"",""0"",""0""
""focus"",""1"",""635""
""fullscreenenter"",""5"",""53477""
","""event"",""trial"",""time""
""blur"",""0"",""0""
","""event"",""trial"",""time""
""focus"",""0"",""0""
""focus"",""1"",""635""
","""event"",""trial"",""time""
""fullscreenenter"",""5"",""53477""
","
",324.5199999946635,NA,49,NA,NA,3000,1,NA,NA,images/tutgreenplanet.jpg,images/tutalien1,images/tutalien2,null,images/tutalien2,images/t.png,NA,practice,null,NA,NA,NA,NA,sub88
d3-animate-choice,43,317751,0.0-43.0,TRUE,TRUE,FALSE,TRUE,"""event"",""trial"",""time""
""focus"",""0"",""0""
""blur"",""0"",""0""
""focus"",""1"",""635""
""fullscreenenter"",""5"",""53477""
","""event"",""trial"",""time""
""blur"",""0"",""0""
","""event"",""trial"",""time""
""focus"",""0"",""0""
""focus"",""1"",""635""
","""event"",""trial"",""time""
""fullscreenenter"",""5"",""53477""
","
",219.1150000144262,NA,49,NA,NA,3000,1,NA,NA,images/tutgreenplanet.jpg,images/tutalien1,images/tutalien2,null,images/tutalien2,images/t.png,NA,practice,null,NA,NA,NA,NA,sub88
d3-instructions,44,332615,0.0-44.0,TRUE,TRUE,FALSE,TRUE,"""event"",""trial"",""time""
""focus"",""0"",""0""
""blur"",""0"",""0""
""focus"",""1"",""635""
""fullscreenenter"",""5"",""53477""
","""event"",""trial"",""time""
""blur"",""0"",""0""
","""event"",""trial"",""time""
""focus"",""0"",""0""
""focus"",""1"",""635""
","""event"",""trial"",""time""
""fullscreenenter"",""5"",""53477""
","
",NA,NA,NA,NA,NA,NA,NA,NA,NA,NA,NA,NA,NA,NA,NA,NA,NA,NA,NA,NA,NA,NA,sub88
d3-instructions,45,339794,0.0-45.0,TRUE,TRUE,FALSE,TRUE,"""event"",""trial"",""time""
""focus"",""0"",""0""
""blur"",""0"",""0""
""focus"",""1"",""635""
""fullscreenenter"",""5"",""53477""
","""event"",""trial"",""time""
""blur"",""0"",""0""
","""event"",""trial"",""time""
""focus"",""0"",""0""
""focus"",""1"",""635""
","""event"",""trial"",""time""
""fullscreenenter"",""5"",""53477""
","
",NA,NA,NA,NA,NA,NA,NA,NA,NA,NA,NA,NA,NA,NA,NA,NA,NA,NA,NA,NA,NA,NA,sub88
d3-instructions,46,352769,0.0-46.0,TRUE,TRUE,FALSE,TRUE,"""event"",""trial"",""time""
""focus"",""0"",""0""
""blur"",""0"",""0""
""focus"",""1"",""635""
""fullscreenenter"",""5"",""53477""
","""event"",""trial"",""time""
""blur"",""0"",""0""
","""event"",""trial"",""time""
""focus"",""0"",""0""
""focus"",""1"",""635""
","""event"",""trial"",""time""
""fullscreenenter"",""5"",""53477""
","
",NA,NA,NA,NA,NA,NA,NA,NA,NA,NA,NA,NA,NA,NA,NA,NA,NA,NA,NA,NA,NA,NA,sub88
d3-instructions,47,367795,0.0-47.0,TRUE,TRUE,FALSE,TRUE,"""event"",""trial"",""time""
""focus"",""0"",""0""
""blur"",""0"",""0""
""focus"",""1"",""635""
""fullscreenenter"",""5"",""53477""
","""event"",""trial"",""time""
""blur"",""0"",""0""
","""event"",""trial"",""time""
""focus"",""0"",""0""
""focus"",""1"",""635""
","""event"",""trial"",""time""
""fullscreenenter"",""5"",""53477""
","
",NA,NA,NA,NA,NA,NA,NA,NA,NA,NA,NA,NA,NA,NA,NA,NA,NA,NA,NA,NA,NA,NA,sub88
d3-instructions,48,374209,0.0-48.0,TRUE,TRUE,FALSE,TRUE,"""event"",""trial"",""time""
""focus"",""0"",""0""
""blur"",""0"",""0""
""focus"",""1"",""635""
""fullscreenenter"",""5"",""53477""
","""event"",""trial"",""time""
""blur"",""0"",""0""
","""event"",""trial"",""time""
""focus"",""0"",""0""
""focus"",""1"",""635""
","""event"",""trial"",""time""
""fullscreenenter"",""5"",""53477""
","
",NA,NA,NA,NA,NA,NA,NA,NA,NA,NA,NA,NA,NA,NA,NA,NA,NA,NA,NA,NA,NA,NA,sub88
d3-instructions,49,383334,0.0-49.0,TRUE,TRUE,FALSE,TRUE,"""event"",""trial"",""time""
""focus"",""0"",""0""
""blur"",""0"",""0""
""focus"",""1"",""635""
""fullscreenenter"",""5"",""53477""
","""event"",""trial"",""time""
""blur"",""0"",""0""
","""event"",""trial"",""time""
""focus"",""0"",""0""
""focus"",""1"",""635""
","""event"",""trial"",""time""
""fullscreenenter"",""5"",""53477""
","
",NA,NA,NA,NA,NA,NA,NA,NA,NA,NA,NA,NA,NA,NA,NA,NA,NA,NA,NA,NA,NA,NA,sub88
d3-instructions,50,391842,0.0-50.0,TRUE,TRUE,FALSE,TRUE,"""event"",""trial"",""time""
""focus"",""0"",""0""
""blur"",""0"",""0""
""focus"",""1"",""635""
""fullscreenenter"",""5"",""53477""
","""event"",""trial"",""time""
""blur"",""0"",""0""
","""event"",""trial"",""time""
""focus"",""0"",""0""
""focus"",""1"",""635""
","""event"",""trial"",""time""
""fullscreenenter"",""5"",""53477""
","
",NA,NA,NA,NA,NA,NA,NA,NA,NA,NA,NA,NA,NA,NA,NA,NA,NA,NA,NA,NA,NA,NA,sub88
d3-instructions,51,395091,0.0-51.0,TRUE,TRUE,FALSE,TRUE,"""event"",""trial"",""time""
""focus"",""0"",""0""
""blur"",""0"",""0""
""focus"",""1"",""635""
""fullscreenenter"",""5"",""53477""
","""event"",""trial"",""time""
""blur"",""0"",""0""
","""event"",""trial"",""time""
""focus"",""0"",""0""
""focus"",""1"",""635""
","""event"",""trial"",""time""
""fullscreenenter"",""5"",""53477""
","
",NA,NA,NA,NA,NA,NA,NA,NA,NA,NA,NA,NA,NA,NA,NA,NA,NA,NA,NA,NA,NA,NA,sub88
d3-instructions,52,398274,0.0-52.0,TRUE,TRUE,FALSE,TRUE,"""event"",""trial"",""time""
""focus"",""0"",""0""
""blur"",""0"",""0""
""focus"",""1"",""635""
""fullscreenenter"",""5"",""53477""
","""event"",""trial"",""time""
""blur"",""0"",""0""
","""event"",""trial"",""time""
""focus"",""0"",""0""
""focus"",""1"",""635""
","""event"",""trial"",""time""
""fullscreenenter"",""5"",""53477""
","
",NA,NA,NA,NA,NA,NA,NA,NA,NA,NA,NA,NA,NA,NA,NA,NA,NA,NA,NA,NA,NA,NA,sub88
d3-instructions,53,409990,0.0-53.0,TRUE,TRUE,FALSE,TRUE,"""event"",""trial"",""time""
""focus"",""0"",""0""
""blur"",""0"",""0""
""focus"",""1"",""635""
""fullscreenenter"",""5"",""53477""
","""event"",""trial"",""time""
""blur"",""0"",""0""
","""event"",""trial"",""time""
""focus"",""0"",""0""
""focus"",""1"",""635""
","""event"",""trial"",""time""
""fullscreenenter"",""5"",""53477""
","
",NA,NA,NA,NA,NA,NA,NA,NA,NA,NA,NA,NA,NA,NA,NA,NA,NA,NA,NA,NA,NA,NA,sub88
d3-instructions,54,421922,0.0-54.0,TRUE,TRUE,FALSE,TRUE,"""event"",""trial"",""time""
""focus"",""0"",""0""
""blur"",""0"",""0""
""focus"",""1"",""635""
""fullscreenenter"",""5"",""53477""
","""event"",""trial"",""time""
""blur"",""0"",""0""
","""event"",""trial"",""time""
""focus"",""0"",""0""
""focus"",""1"",""635""
","""event"",""trial"",""time""
""fullscreenenter"",""5"",""53477""
","
",NA,NA,NA,NA,NA,NA,NA,NA,NA,NA,NA,NA,NA,NA,NA,NA,NA,NA,NA,NA,NA,NA,sub88
d3-instructions,55,432254,0.0-55.0,TRUE,TRUE,FALSE,TRUE,"""event"",""trial"",""time""
""focus"",""0"",""0""
""blur"",""0"",""0""
""focus"",""1"",""635""
""fullscreenenter"",""5"",""53477""
","""event"",""trial"",""time""
""blur"",""0"",""0""
","""event"",""trial"",""time""
""focus"",""0"",""0""
""focus"",""1"",""635""
","""event"",""trial"",""time""
""fullscreenenter"",""5"",""53477""
","
",NA,NA,NA,NA,NA,NA,NA,NA,NA,NA,NA,NA,NA,NA,NA,NA,NA,NA,NA,NA,NA,NA,sub88
d3-instructions,56,440420,0.0-56.0,TRUE,TRUE,FALSE,TRUE,"""event"",""trial"",""time""
""focus"",""0"",""0""
""blur"",""0"",""0""
""focus"",""1"",""635""
""fullscreenenter"",""5"",""53477""
","""event"",""trial"",""time""
""blur"",""0"",""0""
","""event"",""trial"",""time""
""focus"",""0"",""0""
""focus"",""1"",""635""
","""event"",""trial"",""time""
""fullscreenenter"",""5"",""53477""
","
",NA,NA,NA,NA,NA,NA,NA,NA,NA,NA,NA,NA,NA,NA,NA,NA,NA,NA,NA,NA,NA,NA,sub88
d3-instructions,57,456133,0.0-57.0,TRUE,TRUE,FALSE,TRUE,"""event"",""trial"",""time""
""focus"",""0"",""0""
""blur"",""0"",""0""
""focus"",""1"",""635""
""fullscreenenter"",""5"",""53477""
","""event"",""trial"",""time""
""blur"",""0"",""0""
","""event"",""trial"",""time""
""focus"",""0"",""0""
""focus"",""1"",""635""
","""event"",""trial"",""time""
""fullscreenenter"",""5"",""53477""
","
",NA,NA,NA,NA,NA,NA,NA,NA,NA,NA,NA,NA,NA,NA,NA,NA,NA,NA,NA,NA,NA,NA,sub88
d3-instructions,58,466784,0.0-58.0,TRUE,TRUE,FALSE,TRUE,"""event"",""trial"",""time""
""focus"",""0"",""0""
""blur"",""0"",""0""
""focus"",""1"",""635""
""fullscreenenter"",""5"",""53477""
","""event"",""trial"",""time""
""blur"",""0"",""0""
","""event"",""trial"",""time""
""focus"",""0"",""0""
""focus"",""1"",""635""
","""event"",""trial"",""time""
""fullscreenenter"",""5"",""53477""
","
",NA,NA,NA,NA,NA,NA,NA,NA,NA,NA,NA,NA,NA,NA,NA,NA,NA,NA,NA,NA,NA,NA,sub88
d3-instructions,59,474006,0.0-59.0,TRUE,TRUE,FALSE,TRUE,"""event"",""trial"",""time""
""focus"",""0"",""0""
""blur"",""0"",""0""
""focus"",""1"",""635""
""fullscreenenter"",""5"",""53477""
","""event"",""trial"",""time""
""blur"",""0"",""0""
","""event"",""trial"",""time""
""focus"",""0"",""0""
""focus"",""1"",""635""
","""event"",""trial"",""time""
""fullscreenenter"",""5"",""53477""
","
",NA,NA,NA,NA,NA,NA,NA,NA,NA,NA,NA,NA,NA,NA,NA,NA,NA,NA,NA,NA,NA,NA,sub88
d3-instructions,60,481829,0.0-60.0,TRUE,TRUE,FALSE,TRUE,"""event"",""trial"",""time""
""focus"",""0"",""0""
""blur"",""0"",""0""
""focus"",""1"",""635""
""fullscreenenter"",""5"",""53477""
","""event"",""trial"",""time""
""blur"",""0"",""0""
","""event"",""trial"",""time""
""focus"",""0"",""0""
""focus"",""1"",""635""
","""event"",""trial"",""time""
""fullscreenenter"",""5"",""53477""
","
",NA,NA,NA,NA,NA,NA,NA,NA,NA,NA,NA,NA,NA,NA,NA,NA,NA,NA,NA,NA,NA,NA,sub88
d3-animate-choice,61,485322,0.0-61.0-0.0,TRUE,TRUE,FALSE,TRUE,"""event"",""trial"",""time""
""focus"",""0"",""0""
""blur"",""0"",""0""
""focus"",""1"",""635""
""fullscreenenter"",""5"",""53477""
","""event"",""trial"",""time""
""blur"",""0"",""0""
","""event"",""trial"",""time""
""focus"",""0"",""0""
""focus"",""1"",""635""
","""event"",""trial"",""time""
""fullscreenenter"",""5"",""53477""
","
",1477.7199999953154,NA,49,NA,NA,3000,1,NA,NA,images/earth.jpg,images/tutrocket1,images/tutrocket2,null,images/tutrocket2,NA,1,practice,null,1,NA,NA,NA,sub88
d3-animate-choice,62,489190,0.0-61.0-1.0,TRUE,TRUE,FALSE,TRUE,"""event"",""trial"",""time""
""focus"",""0"",""0""
""blur"",""0"",""0""
""focus"",""1"",""635""
""fullscreenenter"",""5"",""53477""
","""event"",""trial"",""time""
""blur"",""0"",""0""
","""event"",""trial"",""time""
""focus"",""0"",""0""
""focus"",""1"",""635""
","""event"",""trial"",""time""
""fullscreenenter"",""5"",""53477""
","
",1849.9899999878835,NA,49,NA,NA,3000,1,NA,NA,images/tutyellowplanet.jpg,images/tutalien4,images/tutalien3,images/tutrocket2,images/tutalien3,images/t.png,2,practice,true,1,common,1,2020-06-30T02:26:56Z,sub88
two-step-fixation,63,490201,0.0-61.0-2.0,TRUE,TRUE,FALSE,TRUE,"""event"",""trial"",""time""
""focus"",""0"",""0""
""blur"",""0"",""0""
""focus"",""1"",""635""
""fullscreenenter"",""5"",""53477""
","""event"",""trial"",""time""
""blur"",""0"",""0""
","""event"",""trial"",""time""
""focus"",""0"",""0""
""focus"",""1"",""635""
","""event"",""trial"",""time""
""fullscreenenter"",""5"",""53477""
","
",NA,images/earth.jpg,NA,NA,NA,NA,NA,NA,NA,NA,NA,NA,NA,NA,NA,fixation,NA,NA,NA,NA,NA,NA,sub88
d3-animate-choice,64,494149,0.0-61.0-0.1,TRUE,TRUE,FALSE,TRUE,"""event"",""trial"",""time""
""focus"",""0"",""0""
""blur"",""0"",""0""
""focus"",""1"",""635""
""fullscreenenter"",""5"",""53477""
","""event"",""trial"",""time""
""blur"",""0"",""0""
","""event"",""trial"",""time""
""focus"",""0"",""0""
""focus"",""1"",""635""
","""event"",""trial"",""time""
""fullscreenenter"",""5"",""53477""
","
",1934.0650000085589,NA,48,NA,NA,3000,1,NA,NA,images/earth.jpg,images/tutrocket1,images/tutrocket2,null,images/tutrocket1,NA,1,practice,null,2,NA,NA,NA,sub88
d3-animate-choice,65,498168,0.0-61.0-1.1,TRUE,TRUE,FALSE,TRUE,"""event"",""trial"",""time""
""focus"",""0"",""0""
""blur"",""0"",""0""
""focus"",""1"",""635""
""fullscreenenter"",""5"",""53477""
","""event"",""trial"",""time""
""blur"",""0"",""0""
","""event"",""trial"",""time""
""focus"",""0"",""0""
""focus"",""1"",""635""
","""event"",""trial"",""time""
""fullscreenenter"",""5"",""53477""
","
",null,NA,null,NA,NA,3000,0,NA,NA,images/tutyellowplanet.jpg,images/tutalien4,images/tutalien3,images/tutrocket1,NA,NA,2,practice,false,NA,rare,0,2020-06-30T02:27:05Z,sub88
two-step-fixation,66,499172,0.0-61.0-2.1,TRUE,TRUE,FALSE,TRUE,"""event"",""trial"",""time""
""focus"",""0"",""0""
""blur"",""0"",""0""
""focus"",""1"",""635""
""fullscreenenter"",""5"",""53477""
","""event"",""trial"",""time""
""blur"",""0"",""0""
","""event"",""trial"",""time""
""focus"",""0"",""0""
""focus"",""1"",""635""
","""event"",""trial"",""time""
""fullscreenenter"",""5"",""53477""
","
",NA,images/earth.jpg,NA,NA,NA,NA,NA,NA,NA,NA,NA,NA,NA,NA,NA,fixation,NA,NA,NA,NA,NA,NA,sub88
d3-animate-choice,67,503126,0.0-61.0-0.2,TRUE,TRUE,FALSE,TRUE,"""event"",""trial"",""time""
""focus"",""0"",""0""
""blur"",""0"",""0""
""focus"",""1"",""635""
""fullscreenenter"",""5"",""53477""
","""event"",""trial"",""time""
""blur"",""0"",""0""
","""event"",""trial"",""time""
""focus"",""0"",""0""
""focus"",""1"",""635""
","""event"",""trial"",""time""
""fullscreenenter"",""5"",""53477""
","
",1941.1200000031386,NA,48,NA,NA,3000,1,NA,NA,images/earth.jpg,images/tutrocket1,images/tutrocket2,null,images/tutrocket1,NA,1,practice,null,2,NA,NA,NA,sub88
d3-animate-choice,68,506156,0.0-61.0-1.2,TRUE,TRUE,FALSE,TRUE,"""event"",""trial"",""time""
""focus"",""0"",""0""
""blur"",""0"",""0""
""focus"",""1"",""635""
""fullscreenenter"",""5"",""53477""
","""event"",""trial"",""time""
""blur"",""0"",""0""
","""event"",""trial"",""time""
""focus"",""0"",""0""
""focus"",""1"",""635""
","""event"",""trial"",""time""
""fullscreenenter"",""5"",""53477""
","
",1016.9649999879766,NA,49,NA,NA,3000,1,NA,NA,images/tutgreenplanet.jpg,images/tutalien2,images/tutalien1,images/tutrocket1,images/tutalien1,images/nothing.png,2,practice,true,1,common,0,2020-06-30T02:27:13Z,sub88
two-step-fixation,69,507163,0.0-61.0-2.2,TRUE,TRUE,FALSE,TRUE,"""event"",""trial"",""time""
""focus"",""0"",""0""
""blur"",""0"",""0""
""focus"",""1"",""635""
""fullscreenenter"",""5"",""53477""
","""event"",""trial"",""time""
""blur"",""0"",""0""
","""event"",""trial"",""time""
""focus"",""0"",""0""
""focus"",""1"",""635""
","""event"",""trial"",""time""
""fullscreenenter"",""5"",""53477""
","
",NA,images/earth.jpg,NA,NA,NA,NA,NA,NA,NA,NA,NA,NA,NA,NA,NA,fixation,NA,NA,NA,NA,NA,NA,sub88
d3-animate-choice,70,510864,0.0-61.0-0.3,TRUE,TRUE,FALSE,TRUE,"""event"",""trial"",""time""
""focus"",""0"",""0""
""blur"",""0"",""0""
""focus"",""1"",""635""
""fullscreenenter"",""5"",""53477""
","""event"",""trial"",""time""
""blur"",""0"",""0""
","""event"",""trial"",""time""
""focus"",""0"",""0""
""focus"",""1"",""635""
","""event"",""trial"",""time""
""fullscreenenter"",""5"",""53477""
","
",1693.5900000098627,NA,49,NA,NA,3000,1,NA,NA,images/earth.jpg,images/tutrocket1,images/tutrocket2,null,images/tutrocket2,NA,1,practice,null,1,NA,NA,NA,sub88
d3-animate-choice,71,513854,0.0-61.0-1.3,TRUE,TRUE,FALSE,TRUE,"""event"",""trial"",""time""
""focus"",""0"",""0""
""blur"",""0"",""0""
""focus"",""1"",""635""
""fullscreenenter"",""5"",""53477""
","""event"",""trial"",""time""
""blur"",""0"",""0""
","""event"",""trial"",""time""
""focus"",""0"",""0""
""focus"",""1"",""635""
","""event"",""trial"",""time""
""fullscreenenter"",""5"",""53477""
","
",977.050000015879,NA,48,NA,NA,3000,1,NA,NA,images/tutyellowplanet.jpg,images/tutalien4,images/tutalien3,images/tutrocket2,images/tutalien4,images/t.png,2,practice,true,2,common,1,2020-06-30T02:27:20Z,sub88
two-step-fixation,72,514865,0.0-61.0-2.3,TRUE,TRUE,FALSE,TRUE,"""event"",""trial"",""time""
""focus"",""0"",""0""
""blur"",""0"",""0""
""focus"",""1"",""635""
""fullscreenenter"",""5"",""53477""
","""event"",""trial"",""time""
""blur"",""0"",""0""
","""event"",""trial"",""time""
""focus"",""0"",""0""
""focus"",""1"",""635""
","""event"",""trial"",""time""
""fullscreenenter"",""5"",""53477""
","
",NA,images/earth.jpg,NA,NA,NA,NA,NA,NA,NA,NA,NA,NA,NA,NA,NA,fixation,NA,NA,NA,NA,NA,NA,sub88
d3-animate-choice,73,518039,0.0-61.0-0.4,TRUE,TRUE,FALSE,TRUE,"""event"",""trial"",""time""
""focus"",""0"",""0""
""blur"",""0"",""0""
""focus"",""1"",""635""
""fullscreenenter"",""5"",""53477""
","""event"",""trial"",""time""
""blur"",""0"",""0""
","""event"",""trial"",""time""
""focus"",""0"",""0""
""focus"",""1"",""635""
","""event"",""trial"",""time""
""fullscreenenter"",""5"",""53477""
","
",1159.1999999945983,NA,49,NA,NA,3000,1,NA,NA,images/earth.jpg,images/tutrocket1,images/tutrocket2,null,images/tutrocket2,NA,1,practice,null,1,NA,NA,NA,sub88
d3-animate-choice,74,520787,0.0-61.0-1.4,TRUE,TRUE,FALSE,TRUE,"""event"",""trial"",""time""
""focus"",""0"",""0""
""blur"",""0"",""0""
""focus"",""1"",""635""
""fullscreenenter"",""5"",""53477""
","""event"",""trial"",""time""
""blur"",""0"",""0""
","""event"",""trial"",""time""
""focus"",""0"",""0""
""focus"",""1"",""635""
","""event"",""trial"",""time""
""fullscreenenter"",""5"",""53477""
","
",735.0799999840092,NA,48,NA,NA,3000,1,NA,NA,images/tutyellowplanet.jpg,images/tutalien4,images/tutalien3,images/tutrocket2,images/tutalien4,images/nothing.png,2,practice,true,2,common,0,2020-06-30T02:27:27Z,sub88
two-step-fixation,75,521799,0.0-61.0-2.4,TRUE,TRUE,FALSE,TRUE,"""event"",""trial"",""time""
""focus"",""0"",""0""
""blur"",""0"",""0""
""focus"",""1"",""635""
""fullscreenenter"",""5"",""53477""
","""event"",""trial"",""time""
""blur"",""0"",""0""
","""event"",""trial"",""time""
""focus"",""0"",""0""
""focus"",""1"",""635""
","""event"",""trial"",""time""
""fullscreenenter"",""5"",""53477""
","
",NA,images/earth.jpg,NA,NA,NA,NA,NA,NA,NA,NA,NA,NA,NA,NA,NA,fixation,NA,NA,NA,NA,NA,NA,sub88
d3-animate-choice,76,524210,0.0-61.0-0.5,TRUE,TRUE,FALSE,TRUE,"""event"",""trial"",""time""
""focus"",""0"",""0""
""blur"",""0"",""0""
""focus"",""1"",""635""
""fullscreenenter"",""5"",""53477""
","""event"",""trial"",""time""
""blur"",""0"",""0""
","""event"",""trial"",""time""
""focus"",""0"",""0""
""focus"",""1"",""635""
","""event"",""trial"",""time""
""fullscreenenter"",""5"",""53477""
","
",397.9199999885168,NA,49,NA,NA,3000,1,NA,NA,images/earth.jpg,images/tutrocket1,images/tutrocket2,null,images/tutrocket2,NA,1,practice,null,1,NA,NA,NA,sub88
d3-animate-choice,77,526819,0.0-61.0-1.5,TRUE,TRUE,FALSE,TRUE,"""event"",""trial"",""time""
""focus"",""0"",""0""
""blur"",""0"",""0""
""focus"",""1"",""635""
""fullscreenenter"",""5"",""53477""
","""event"",""trial"",""time""
""blur"",""0"",""0""
","""event"",""trial"",""time""
""focus"",""0"",""0""
""focus"",""1"",""635""
","""event"",""trial"",""time""
""fullscreenenter"",""5"",""53477""
","
",593.4200000192504,NA,49,NA,NA,3000,1,NA,NA,images/tutyellowplanet.jpg,images/tutalien4,images/tutalien3,images/tutrocket2,images/tutalien3,images/nothing.png,2,practice,true,1,common,0,2020-06-30T02:27:33Z,sub88
two-step-fixation,78,527832,0.0-61.0-2.5,TRUE,TRUE,FALSE,TRUE,"""event"",""trial"",""time""
""focus"",""0"",""0""
""blur"",""0"",""0""
""focus"",""1"",""635""
""fullscreenenter"",""5"",""53477""
","""event"",""trial"",""time""
""blur"",""0"",""0""
","""event"",""trial"",""time""
""focus"",""0"",""0""
""focus"",""1"",""635""
","""event"",""trial"",""time""
""fullscreenenter"",""5"",""53477""
","
",NA,images/earth.jpg,NA,NA,NA,NA,NA,NA,NA,NA,NA,NA,NA,NA,NA,fixation,NA,NA,NA,NA,NA,NA,sub88
d3-animate-choice,79,530149,0.0-61.0-0.6,TRUE,TRUE,FALSE,TRUE,"""event"",""trial"",""time""
""focus"",""0"",""0""
""blur"",""0"",""0""
""focus"",""1"",""635""
""fullscreenenter"",""5"",""53477""
","""event"",""trial"",""time""
""blur"",""0"",""0""
","""event"",""trial"",""time""
""focus"",""0"",""0""
""focus"",""1"",""635""
","""event"",""trial"",""time""
""fullscreenenter"",""5"",""53477""
","
",300.9500000043772,NA,48,NA,NA,3000,1,NA,NA,images/earth.jpg,images/tutrocket1,images/tutrocket2,null,images/tutrocket1,NA,1,practice,null,2,NA,NA,NA,sub88
d3-animate-choice,80,532527,0.0-61.0-1.6,TRUE,TRUE,FALSE,TRUE,"""event"",""trial"",""time""
""focus"",""0"",""0""
""blur"",""0"",""0""
""focus"",""1"",""635""
""fullscreenenter"",""5"",""53477""
","""event"",""trial"",""time""
""blur"",""0"",""0""
","""event"",""trial"",""time""
""focus"",""0"",""0""
""focus"",""1"",""635""
","""event"",""trial"",""time""
""fullscreenenter"",""5"",""53477""
","
",365.77499998384155,NA,49,NA,NA,3000,1,NA,NA,images/tutyellowplanet.jpg,images/tutalien4,images/tutalien3,images/tutrocket1,images/tutalien3,images/t.png,2,practice,false,1,rare,1,2020-06-30T02:27:39Z,sub88
two-step-fixation,81,533538,0.0-61.0-2.6,TRUE,TRUE,FALSE,TRUE,"""event"",""trial"",""time""
""focus"",""0"",""0""
""blur"",""0"",""0""
""focus"",""1"",""635""
""fullscreenenter"",""5"",""53477""
","""event"",""trial"",""time""
""blur"",""0"",""0""
","""event"",""trial"",""time""
""focus"",""0"",""0""
""focus"",""1"",""635""
","""event"",""trial"",""time""
""fullscreenenter"",""5"",""53477""
","
",NA,images/earth.jpg,NA,NA,NA,NA,NA,NA,NA,NA,NA,NA,NA,NA,NA,fixation,NA,NA,NA,NA,NA,NA,sub88
d3-animate-choice,82,535797,0.0-61.0-0.7,TRUE,TRUE,FALSE,TRUE,"""event"",""trial"",""time""
""focus"",""0"",""0""
""blur"",""0"",""0""
""focus"",""1"",""635""
""fullscreenenter"",""5"",""53477""
","""event"",""trial"",""time""
""blur"",""0"",""0""
","""event"",""trial"",""time""
""focus"",""0"",""0""
""focus"",""1"",""635""
","""event"",""trial"",""time""
""fullscreenenter"",""5"",""53477""
","
",244.83000001055188,NA,48,NA,NA,3000,1,NA,NA,images/earth.jpg,images/tutrocket1,images/tutrocket2,null,images/tutrocket1,NA,1,practice,null,2,NA,NA,NA,sub88
d3-animate-choice,83,538314,0.0-61.0-1.7,TRUE,TRUE,FALSE,TRUE,"""event"",""trial"",""time""
""focus"",""0"",""0""
""blur"",""0"",""0""
""focus"",""1"",""635""
""fullscreenenter"",""5"",""53477""
","""event"",""trial"",""time""
""blur"",""0"",""0""
","""event"",""trial"",""time""
""focus"",""0"",""0""
""focus"",""1"",""635""
","""event"",""trial"",""time""
""fullscreenenter"",""5"",""53477""
","
",497.9250000033062,NA,49,NA,NA,3000,1,NA,NA,images/tutgreenplanet.jpg,images/tutalien2,images/tutalien1,images/tutrocket1,images/tutalien1,images/t.png,2,practice,true,1,common,1,2020-06-30T02:27:45Z,sub88
two-step-fixation,84,539327,0.0-61.0-2.7,TRUE,TRUE,FALSE,TRUE,"""event"",""trial"",""time""
""focus"",""0"",""0""
""blur"",""0"",""0""
""focus"",""1"",""635""
""fullscreenenter"",""5"",""53477""
","""event"",""trial"",""time""
""blur"",""0"",""0""
","""event"",""trial"",""time""
""focus"",""0"",""0""
""focus"",""1"",""635""
","""event"",""trial"",""time""
""fullscreenenter"",""5"",""53477""
","
",NA,images/earth.jpg,NA,NA,NA,NA,NA,NA,NA,NA,NA,NA,NA,NA,NA,fixation,NA,NA,NA,NA,NA,NA,sub88
d3-animate-choice,85,541621,0.0-61.0-0.8,TRUE,TRUE,FALSE,TRUE,"""event"",""trial"",""time""
""focus"",""0"",""0""
""blur"",""0"",""0""
""focus"",""1"",""635""
""fullscreenenter"",""5"",""53477""
","""event"",""trial"",""time""
""blur"",""0"",""0""
","""event"",""trial"",""time""
""focus"",""0"",""0""
""focus"",""1"",""635""
","""event"",""trial"",""time""
""fullscreenenter"",""5"",""53477""
","
",278.55999997700565,NA,48,NA,NA,3000,1,NA,NA,images/earth.jpg,images/tutrocket1,images/tutrocket2,null,images/tutrocket1,NA,1,practice,null,2,NA,NA,NA,sub88
d3-animate-choice,86,544252,0.0-61.0-1.8,TRUE,TRUE,FALSE,TRUE,"""event"",""trial"",""time""
""focus"",""0"",""0""
""blur"",""0"",""0""
""focus"",""1"",""635""
""fullscreenenter"",""5"",""53477""
","""event"",""trial"",""time""
""blur"",""0"",""0""
","""event"",""trial"",""time""
""focus"",""0"",""0""
""focus"",""1"",""635""
","""event"",""trial"",""time""
""fullscreenenter"",""5"",""53477""
","
",619.9100000085309,NA,49,NA,NA,3000,1,NA,NA,images/tutgreenplanet.jpg,images/tutalien2,images/tutalien1,images/tutrocket1,images/tutalien1,images/nothing.png,2,practice,true,1,common,0,2020-06-30T02:27:51Z,sub88
two-step-fixation,87,545265,0.0-61.0-2.8,TRUE,TRUE,FALSE,TRUE,"""event"",""trial"",""time""
""focus"",""0"",""0""
""blur"",""0"",""0""
""focus"",""1"",""635""
""fullscreenenter"",""5"",""53477""
","""event"",""trial"",""time""
""blur"",""0"",""0""
","""event"",""trial"",""time""
""focus"",""0"",""0""
""focus"",""1"",""635""
","""event"",""trial"",""time""
""fullscreenenter"",""5"",""53477""
","
",NA,images/earth.jpg,NA,NA,NA,NA,NA,NA,NA,NA,NA,NA,NA,NA,NA,fixation,NA,NA,NA,NA,NA,NA,sub88
d3-animate-choice,88,547511,0.0-61.0-0.9,TRUE,TRUE,FALSE,TRUE,"""event"",""trial"",""time""
""focus"",""0"",""0""
""blur"",""0"",""0""
""focus"",""1"",""635""
""fullscreenenter"",""5"",""53477""
","""event"",""trial"",""time""
""blur"",""0"",""0""
","""event"",""trial"",""time""
""focus"",""0"",""0""
""focus"",""1"",""635""
","""event"",""trial"",""time""
""fullscreenenter"",""5"",""53477""
","
",229.6349999960512,NA,48,NA,NA,3000,1,NA,NA,images/earth.jpg,images/tutrocket1,images/tutrocket2,null,images/tutrocket1,NA,1,practice,null,2,NA,NA,NA,sub88
d3-animate-choice,89,550058,0.0-61.0-1.9,TRUE,TRUE,FALSE,TRUE,"""event"",""trial"",""time""
""focus"",""0"",""0""
""blur"",""0"",""0""
""focus"",""1"",""635""
""fullscreenenter"",""5"",""53477""
","""event"",""trial"",""time""
""blur"",""0"",""0""
","""event"",""trial"",""time""
""focus"",""0"",""0""
""focus"",""1"",""635""
","""event"",""trial"",""time""
""fullscreenenter"",""5"",""53477""
","
",533.2350000098813,NA,49,NA,NA,3000,1,NA,NA,images/tutgreenplanet.jpg,images/tutalien2,images/tutalien1,images/tutrocket1,images/tutalien1,images/nothing.png,2,practice,true,1,common,0,2020-06-30T02:27:56Z,sub88
two-step-fixation,90,551070,0.0-61.0-2.9,TRUE,TRUE,FALSE,TRUE,"""event"",""trial"",""time""
""focus"",""0"",""0""
""blur"",""0"",""0""
""focus"",""1"",""635""
""fullscreenenter"",""5"",""53477""
","""event"",""trial"",""time""
""blur"",""0"",""0""
","""event"",""trial"",""time""
""focus"",""0"",""0""
""focus"",""1"",""635""
","""event"",""trial"",""time""
""fullscreenenter"",""5"",""53477""
","
",NA,images/earth.jpg,NA,NA,NA,NA,NA,NA,NA,NA,NA,NA,NA,NA,NA,fixation,NA,NA,NA,NA,NA,NA,sub88
d3-animate-choice,91,553589,0.0-61.0-0.10,TRUE,TRUE,FALSE,TRUE,"""event"",""trial"",""time""
""focus"",""0"",""0""
""blur"",""0"",""0""
""focus"",""1"",""635""
""fullscreenenter"",""5"",""53477""
","""event"",""trial"",""time""
""blur"",""0"",""0""
","""event"",""trial"",""time""
""focus"",""0"",""0""
""focus"",""1"",""635""
","""event"",""trial"",""time""
""fullscreenenter"",""5"",""53477""
","
",504.9800000269897,NA,48,NA,NA,3000,1,NA,NA,images/earth.jpg,images/tutrocket1,images/tutrocket2,null,images/tutrocket1,NA,1,practice,null,2,NA,NA,NA,sub88
d3-animate-choice,92,556023,0.0-61.0-1.10,TRUE,TRUE,FALSE,TRUE,"""event"",""trial"",""time""
""focus"",""0"",""0""
""blur"",""0"",""0""
""focus"",""1"",""635""
""fullscreenenter"",""5"",""53477""
","""event"",""trial"",""time""
""blur"",""0"",""0""
","""event"",""trial"",""time""
""focus"",""0"",""0""
""focus"",""1"",""635""
","""event"",""trial"",""time""
""fullscreenenter"",""5"",""53477""
","
",421.5049999766052,NA,48,NA,NA,3000,1,NA,NA,images/tutyellowplanet.jpg,images/tutalien4,images/tutalien3,images/tutrocket1,images/tutalien4,images/nothing.png,2,practice,false,2,rare,0,2020-06-30T02:28:02Z,sub88
two-step-fixation,93,557033,0.0-61.0-2.10,TRUE,TRUE,FALSE,TRUE,"""event"",""trial"",""time""
""focus"",""0"",""0""
""blur"",""0"",""0""
""focus"",""1"",""635""
""fullscreenenter"",""5"",""53477""
","""event"",""trial"",""time""
""blur"",""0"",""0""
","""event"",""trial"",""time""
""focus"",""0"",""0""
""focus"",""1"",""635""
","""event"",""trial"",""time""
""fullscreenenter"",""5"",""53477""
","
",NA,images/earth.jpg,NA,NA,NA,NA,NA,NA,NA,NA,NA,NA,NA,NA,NA,fixation,NA,NA,NA,NA,NA,NA,sub88
d3-animate-choice,94,559509,0.0-61.0-0.11,TRUE,TRUE,FALSE,TRUE,"""event"",""trial"",""time""
""focus"",""0"",""0""
""blur"",""0"",""0""
""focus"",""1"",""635""
""fullscreenenter"",""5"",""53477""
","""event"",""trial"",""time""
""blur"",""0"",""0""
","""event"",""trial"",""time""
""focus"",""0"",""0""
""focus"",""1"",""635""
","""event"",""trial"",""time""
""fullscreenenter"",""5"",""53477""
","
",459.1450000007171,NA,49,NA,NA,3000,1,NA,NA,images/earth.jpg,images/tutrocket1,images/tutrocket2,null,images/tutrocket2,NA,1,practice,null,1,NA,NA,NA,sub88
d3-animate-choice,95,561809,0.0-61.0-1.11,TRUE,TRUE,FALSE,TRUE,"""event"",""trial"",""time""
""focus"",""0"",""0""
""blur"",""0"",""0""
""focus"",""1"",""635""
""fullscreenenter"",""5"",""53477""
","""event"",""trial"",""time""
""blur"",""0"",""0""
","""event"",""trial"",""time""
""focus"",""0"",""0""
""focus"",""1"",""635""
","""event"",""trial"",""time""
""fullscreenenter"",""5"",""53477""
","
",286.31500000483356,NA,49,NA,NA,3000,1,NA,NA,images/tutyellowplanet.jpg,images/tutalien4,images/tutalien3,images/tutrocket2,images/tutalien3,images/t.png,2,practice,true,1,common,1,2020-06-30T02:28:08Z,sub88
two-step-fixation,96,562823,0.0-61.0-2.11,TRUE,TRUE,FALSE,TRUE,"""event"",""trial"",""time""
""focus"",""0"",""0""
""blur"",""0"",""0""
""focus"",""1"",""635""
""fullscreenenter"",""5"",""53477""
","""event"",""trial"",""time""
""blur"",""0"",""0""
","""event"",""trial"",""time""
""focus"",""0"",""0""
""focus"",""1"",""635""
","""event"",""trial"",""time""
""fullscreenenter"",""5"",""53477""
","
",NA,images/earth.jpg,NA,NA,NA,NA,NA,NA,NA,NA,NA,NA,NA,NA,NA,fixation,NA,NA,NA,NA,NA,NA,sub88
d3-animate-choice,97,565097,0.0-61.0-0.12,TRUE,TRUE,FALSE,TRUE,"""event"",""trial"",""time""
""focus"",""0"",""0""
""blur"",""0"",""0""
""focus"",""1"",""635""
""fullscreenenter"",""5"",""53477""
","""event"",""trial"",""time""
""blur"",""0"",""0""
","""event"",""trial"",""time""
""focus"",""0"",""0""
""focus"",""1"",""635""
","""event"",""trial"",""time""
""fullscreenenter"",""5"",""53477""
","
",257.06499998341314,NA,49,NA,NA,3000,1,NA,NA,images/earth.jpg,images/tutrocket1,images/tutrocket2,null,images/tutrocket2,NA,1,practice,null,1,NA,NA,NA,sub88
d3-animate-choice,98,567438,0.0-61.0-1.12,TRUE,TRUE,FALSE,TRUE,"""event"",""trial"",""time""
""focus"",""0"",""0""
""blur"",""0"",""0""
""focus"",""1"",""635""
""fullscreenenter"",""5"",""53477""
","""event"",""trial"",""time""
""blur"",""0"",""0""
","""event"",""trial"",""time""
""focus"",""0"",""0""
""focus"",""1"",""635""
","""event"",""trial"",""time""
""fullscreenenter"",""5"",""53477""
","
",326.4449999842327,NA,49,NA,NA,3000,1,NA,NA,images/tutyellowplanet.jpg,images/tutalien4,images/tutalien3,images/tutrocket2,images/tutalien3,images/nothing.png,2,practice,true,1,common,0,2020-06-30T02:28:14Z,sub88
two-step-fixation,99,568448,0.0-61.0-2.12,TRUE,TRUE,FALSE,TRUE,"""event"",""trial"",""time""
""focus"",""0"",""0""
""blur"",""0"",""0""
""focus"",""1"",""635""
""fullscreenenter"",""5"",""53477""
","""event"",""trial"",""time""
""blur"",""0"",""0""
","""event"",""trial"",""time""
""focus"",""0"",""0""
""focus"",""1"",""635""
","""event"",""trial"",""time""
""fullscreenenter"",""5"",""53477""
","
",NA,images/earth.jpg,NA,NA,NA,NA,NA,NA,NA,NA,NA,NA,NA,NA,NA,fixation,NA,NA,NA,NA,NA,NA,sub88
d3-animate-choice,100,571227,0.0-61.0-0.13,TRUE,TRUE,FALSE,TRUE,"""event"",""trial"",""time""
""focus"",""0"",""0""
""blur"",""0"",""0""
""focus"",""1"",""635""
""fullscreenenter"",""5"",""53477""
","""event"",""trial"",""time""
""blur"",""0"",""0""
","""event"",""trial"",""time""
""focus"",""0"",""0""
""focus"",""1"",""635""
","""event"",""trial"",""time""
""fullscreenenter"",""5"",""53477""
","
",763.8549999974202,NA,49,NA,NA,3000,1,NA,NA,images/earth.jpg,images/tutrocket1,images/tutrocket2,null,images/tutrocket2,NA,1,practice,null,1,NA,NA,NA,sub88
d3-animate-choice,101,573617,0.0-61.0-1.13,TRUE,TRUE,FALSE,TRUE,"""event"",""trial"",""time""
""focus"",""0"",""0""
""blur"",""0"",""0""
""focus"",""1"",""635""
""fullscreenenter"",""5"",""53477""
","""event"",""trial"",""time""
""blur"",""0"",""0""
","""event"",""trial"",""time""
""focus"",""0"",""0""
""focus"",""1"",""635""
","""event"",""trial"",""time""
""fullscreenenter"",""5"",""53477""
","
",379.2399999802001,NA,49,NA,NA,3000,1,NA,NA,images/tutgreenplanet.jpg,images/tutalien2,images/tutalien1,images/tutrocket2,images/tutalien1,images/t.png,2,practice,false,1,rare,1,2020-06-30T02:28:20Z,sub88
two-step-fixation,102,574628,0.0-61.0-2.13,TRUE,TRUE,FALSE,TRUE,"""event"",""trial"",""time""
""focus"",""0"",""0""
""blur"",""0"",""0""
""focus"",""1"",""635""
""fullscreenenter"",""5"",""53477""
","""event"",""trial"",""time""
""blur"",""0"",""0""
","""event"",""trial"",""time""
""focus"",""0"",""0""
""focus"",""1"",""635""
","""event"",""trial"",""time""
""fullscreenenter"",""5"",""53477""
","
",NA,images/earth.jpg,NA,NA,NA,NA,NA,NA,NA,NA,NA,NA,NA,NA,NA,fixation,NA,NA,NA,NA,NA,NA,sub88
d3-animate-choice,103,576938,0.0-61.0-0.14,TRUE,TRUE,FALSE,TRUE,"""event"",""trial"",""time""
""focus"",""0"",""0""
""blur"",""0"",""0""
""focus"",""1"",""635""
""fullscreenenter"",""5"",""53477""
","""event"",""trial"",""time""
""blur"",""0"",""0""
","""event"",""trial"",""time""
""focus"",""0"",""0""
""focus"",""1"",""635""
","""event"",""trial"",""time""
""fullscreenenter"",""5"",""53477""
","
",298.30999998375773,NA,48,NA,NA,3000,1,NA,NA,images/earth.jpg,images/tutrocket1,images/tutrocket2,null,images/tutrocket1,NA,1,practice,null,2,NA,NA,NA,sub88
d3-animate-choice,104,579379,0.0-61.0-1.14,TRUE,TRUE,FALSE,TRUE,"""event"",""trial"",""time""
""focus"",""0"",""0""
""blur"",""0"",""0""
""focus"",""1"",""635""
""fullscreenenter"",""5"",""53477""
","""event"",""trial"",""time""
""blur"",""0"",""0""
","""event"",""trial"",""time""
""focus"",""0"",""0""
""focus"",""1"",""635""
","""event"",""trial"",""time""
""fullscreenenter"",""5"",""53477""
","
",426.275000005262,NA,49,NA,NA,3000,1,NA,NA,images/tutgreenplanet.jpg,images/tutalien2,images/tutalien1,images/tutrocket1,images/tutalien1,images/nothing.png,2,practice,true,1,common,0,2020-06-30T02:28:26Z,sub88
two-step-fixation,105,580391,0.0-61.0-2.14,TRUE,TRUE,FALSE,TRUE,"""event"",""trial"",""time""
""focus"",""0"",""0""
""blur"",""0"",""0""
""focus"",""1"",""635""
""fullscreenenter"",""5"",""53477""
","""event"",""trial"",""time""
""blur"",""0"",""0""
","""event"",""trial"",""time""
""focus"",""0"",""0""
""focus"",""1"",""635""
","""event"",""trial"",""time""
""fullscreenenter"",""5"",""53477""
","
",NA,images/earth.jpg,NA,NA,NA,NA,NA,NA,NA,NA,NA,NA,NA,NA,NA,fixation,NA,NA,NA,NA,NA,NA,sub88
d3-animate-choice,106,582677,0.0-61.0-0.15,TRUE,TRUE,FALSE,TRUE,"""event"",""trial"",""time""
""focus"",""0"",""0""
""blur"",""0"",""0""
""focus"",""1"",""635""
""fullscreenenter"",""5"",""53477""
","""event"",""trial"",""time""
""blur"",""0"",""0""
","""event"",""trial"",""time""
""focus"",""0"",""0""
""focus"",""1"",""635""
","""event"",""trial"",""time""
""fullscreenenter"",""5"",""53477""
","
",275.435000017751,NA,49,NA,NA,3000,1,NA,NA,images/earth.jpg,images/tutrocket1,images/tutrocket2,null,images/tutrocket2,NA,1,practice,null,1,NA,NA,NA,sub88
d3-animate-choice,107,585158,0.0-61.0-1.15,TRUE,TRUE,FALSE,TRUE,"""event"",""trial"",""time""
""focus"",""0"",""0""
""blur"",""0"",""0""
""focus"",""1"",""635""
""fullscreenenter"",""5"",""53477""
","""event"",""trial"",""time""
""blur"",""0"",""0""
","""event"",""trial"",""time""
""focus"",""0"",""0""
""focus"",""1"",""635""
","""event"",""trial"",""time""
""fullscreenenter"",""5"",""53477""
","
",469.4350000063423,NA,48,NA,NA,3000,1,NA,NA,images/tutyellowplanet.jpg,images/tutalien4,images/tutalien3,images/tutrocket2,images/tutalien4,images/t.png,2,practice,true,2,common,1,2020-06-30T02:28:32Z,sub88
two-step-fixation,108,586171,0.0-61.0-2.15,TRUE,TRUE,FALSE,TRUE,"""event"",""trial"",""time""
""focus"",""0"",""0""
""blur"",""0"",""0""
""focus"",""1"",""635""
""fullscreenenter"",""5"",""53477""
","""event"",""trial"",""time""
""blur"",""0"",""0""
","""event"",""trial"",""time""
""focus"",""0"",""0""
""focus"",""1"",""635""
","""event"",""trial"",""time""
""fullscreenenter"",""5"",""53477""
","
",NA,images/earth.jpg,NA,NA,NA,NA,NA,NA,NA,NA,NA,NA,NA,NA,NA,fixation,NA,NA,NA,NA,NA,NA,sub88
d3-animate-choice,109,588442,0.0-61.0-0.16,TRUE,TRUE,FALSE,TRUE,"""event"",""trial"",""time""
""focus"",""0"",""0""
""blur"",""0"",""0""
""focus"",""1"",""635""
""fullscreenenter"",""5"",""53477""
","""event"",""trial"",""time""
""blur"",""0"",""0""
","""event"",""trial"",""time""
""focus"",""0"",""0""
""focus"",""1"",""635""
","""event"",""trial"",""time""
""fullscreenenter"",""5"",""53477""
","
",260.8849999960512,NA,49,NA,NA,3000,1,NA,NA,images/earth.jpg,images/tutrocket1,images/tutrocket2,null,images/tutrocket2,NA,1,practice,null,1,NA,NA,NA,sub88
d3-animate-choice,110,590797,0.0-61.0-1.16,TRUE,TRUE,FALSE,TRUE,"""event"",""trial"",""time""
""focus"",""0"",""0""
""blur"",""0"",""0""
""focus"",""1"",""635""
""fullscreenenter"",""5"",""53477""
","""event"",""trial"",""time""
""blur"",""0"",""0""
","""event"",""trial"",""time""
""focus"",""0"",""0""
""focus"",""1"",""635""
","""event"",""trial"",""time""
""fullscreenenter"",""5"",""53477""
","
",341.44499999820255,NA,48,NA,NA,3000,1,NA,NA,images/tutyellowplanet.jpg,images/tutalien4,images/tutalien3,images/tutrocket2,images/tutalien4,images/nothing.png,2,practice,true,2,common,0,2020-06-30T02:28:37Z,sub88
two-step-fixation,111,591807,0.0-61.0-2.16,TRUE,TRUE,FALSE,TRUE,"""event"",""trial"",""time""
""focus"",""0"",""0""
""blur"",""0"",""0""
""focus"",""1"",""635""
""fullscreenenter"",""5"",""53477""
","""event"",""trial"",""time""
""blur"",""0"",""0""
","""event"",""trial"",""time""
""focus"",""0"",""0""
""focus"",""1"",""635""
","""event"",""trial"",""time""
""fullscreenenter"",""5"",""53477""
","
",NA,images/earth.jpg,NA,NA,NA,NA,NA,NA,NA,NA,NA,NA,NA,NA,NA,fixation,NA,NA,NA,NA,NA,NA,sub88
d3-animate-choice,112,594061,0.0-61.0-0.17,TRUE,TRUE,FALSE,TRUE,"""event"",""trial"",""time""
""focus"",""0"",""0""
""blur"",""0"",""0""
""focus"",""1"",""635""
""fullscreenenter"",""5"",""53477""
","""event"",""trial"",""time""
""blur"",""0"",""0""
","""event"",""trial"",""time""
""focus"",""0"",""0""
""focus"",""1"",""635""
","""event"",""trial"",""time""
""fullscreenenter"",""5"",""53477""
","
",236.96000000927597,NA,49,NA,NA,3000,1,NA,NA,images/earth.jpg,images/tutrocket1,images/tutrocket2,null,images/tutrocket2,NA,1,practice,null,1,NA,NA,NA,sub88
d3-animate-choice,113,596391,0.0-61.0-1.17,TRUE,TRUE,FALSE,TRUE,"""event"",""trial"",""time""
""focus"",""0"",""0""
""blur"",""0"",""0""
""focus"",""1"",""635""
""fullscreenenter"",""5"",""53477""
","""event"",""trial"",""time""
""blur"",""0"",""0""
","""event"",""trial"",""time""
""focus"",""0"",""0""
""focus"",""1"",""635""
","""event"",""trial"",""time""
""fullscreenenter"",""5"",""53477""
","
",320.30000002123415,NA,49,NA,NA,3000,1,NA,NA,images/tutgreenplanet.jpg,images/tutalien2,images/tutalien1,images/tutrocket2,images/tutalien1,images/nothing.png,2,practice,false,1,rare,0,2020-06-30T02:28:43Z,sub88
two-step-fixation,114,597397,0.0-61.0-2.17,TRUE,TRUE,FALSE,TRUE,"""event"",""trial"",""time""
""focus"",""0"",""0""
""blur"",""0"",""0""
""focus"",""1"",""635""
""fullscreenenter"",""5"",""53477""
","""event"",""trial"",""time""
""blur"",""0"",""0""
","""event"",""trial"",""time""
""focus"",""0"",""0""
""focus"",""1"",""635""
","""event"",""trial"",""time""
""fullscreenenter"",""5"",""53477""
","
",NA,images/earth.jpg,NA,NA,NA,NA,NA,NA,NA,NA,NA,NA,NA,NA,NA,fixation,NA,NA,NA,NA,NA,NA,sub88
d3-animate-choice,115,599666,0.0-61.0-0.18,TRUE,TRUE,FALSE,TRUE,"""event"",""trial"",""time""
""focus"",""0"",""0""
""blur"",""0"",""0""
""focus"",""1"",""635""
""fullscreenenter"",""5"",""53477""
","""event"",""trial"",""time""
""blur"",""0"",""0""
","""event"",""trial"",""time""
""focus"",""0"",""0""
""focus"",""1"",""635""
","""event"",""trial"",""time""
""fullscreenenter"",""5"",""53477""
","
",254.52499999664724,NA,48,NA,NA,3000,1,NA,NA,images/earth.jpg,images/tutrocket1,images/tutrocket2,null,images/tutrocket1,NA,1,practice,null,2,NA,NA,NA,sub88
d3-animate-choice,116,601911,0.0-61.0-1.18,TRUE,TRUE,FALSE,TRUE,"""event"",""trial"",""time""
""focus"",""0"",""0""
""blur"",""0"",""0""
""focus"",""1"",""635""
""fullscreenenter"",""5"",""53477""
","""event"",""trial"",""time""
""blur"",""0"",""0""
","""event"",""trial"",""time""
""focus"",""0"",""0""
""focus"",""1"",""635""
","""event"",""trial"",""time""
""fullscreenenter"",""5"",""53477""
","
",229.11000001477078,NA,49,NA,NA,3000,1,NA,NA,images/tutgreenplanet.jpg,images/tutalien2,images/tutalien1,images/tutrocket1,images/tutalien1,images/t.png,2,practice,true,1,common,1,2020-06-30T02:28:48Z,sub88
two-step-fixation,117,602921,0.0-61.0-2.18,TRUE,TRUE,FALSE,TRUE,"""event"",""trial"",""time""
""focus"",""0"",""0""
""blur"",""0"",""0""
""focus"",""1"",""635""
""fullscreenenter"",""5"",""53477""
","""event"",""trial"",""time""
""blur"",""0"",""0""
","""event"",""trial"",""time""
""focus"",""0"",""0""
""focus"",""1"",""635""
","""event"",""trial"",""time""
""fullscreenenter"",""5"",""53477""
","
",NA,images/earth.jpg,NA,NA,NA,NA,NA,NA,NA,NA,NA,NA,NA,NA,NA,fixation,NA,NA,NA,NA,NA,NA,sub88
d3-animate-choice,118,605470,0.0-61.0-0.19,TRUE,TRUE,FALSE,TRUE,"""event"",""trial"",""time""
""focus"",""0"",""0""
""blur"",""0"",""0""
""focus"",""1"",""635""
""fullscreenenter"",""5"",""53477""
","""event"",""trial"",""time""
""blur"",""0"",""0""
","""event"",""trial"",""time""
""focus"",""0"",""0""
""focus"",""1"",""635""
","""event"",""trial"",""time""
""fullscreenenter"",""5"",""53477""
","
",532.7000000106636,NA,48,NA,NA,3000,1,NA,NA,images/earth.jpg,images/tutrocket1,images/tutrocket2,null,images/tutrocket1,NA,1,practice,null,2,NA,NA,NA,sub88
d3-animate-choice,119,607851,0.0-61.0-1.19,TRUE,TRUE,FALSE,TRUE,"""event"",""trial"",""time""
""focus"",""0"",""0""
""blur"",""0"",""0""
""focus"",""1"",""635""
""fullscreenenter"",""5"",""53477""
","""event"",""trial"",""time""
""blur"",""0"",""0""
","""event"",""trial"",""time""
""focus"",""0"",""0""
""focus"",""1"",""635""
","""event"",""trial"",""time""
""fullscreenenter"",""5"",""53477""
","
",367.629999993369,NA,49,NA,NA,3000,1,NA,NA,images/tutyellowplanet.jpg,images/tutalien4,images/tutalien3,images/tutrocket1,images/tutalien3,images/nothing.png,2,practice,false,1,rare,0,2020-06-30T02:28:54Z,sub88
two-step-fixation,120,608862,0.0-61.0-2.19,TRUE,TRUE,FALSE,TRUE,"""event"",""trial"",""time""
""focus"",""0"",""0""
""blur"",""0"",""0""
""focus"",""1"",""635""
""fullscreenenter"",""5"",""53477""
","""event"",""trial"",""time""
""blur"",""0"",""0""
","""event"",""trial"",""time""
""focus"",""0"",""0""
""focus"",""1"",""635""
","""event"",""trial"",""time""
""fullscreenenter"",""5"",""53477""
","
",NA,images/earth.jpg,NA,NA,NA,NA,NA,NA,NA,NA,NA,NA,NA,NA,NA,fixation,NA,NA,NA,NA,NA,NA,sub88
d3-instructions,121,616516,0.0-62.0,TRUE,TRUE,FALSE,TRUE,"""event"",""trial"",""time""
""focus"",""0"",""0""
""blur"",""0"",""0""
""focus"",""1"",""635""
""fullscreenenter"",""5"",""53477""
","""event"",""trial"",""time""
""blur"",""0"",""0""
","""event"",""trial"",""time""
""focus"",""0"",""0""
""focus"",""1"",""635""
","""event"",""trial"",""time""
""fullscreenenter"",""5"",""53477""
","
",NA,NA,NA,NA,NA,NA,NA,NA,NA,NA,NA,NA,NA,NA,NA,NA,NA,NA,NA,NA,NA,NA,sub88
audio-keyboard-response,122,621538,0.0-63.0,TRUE,TRUE,FALSE,TRUE,"""event"",""trial"",""time""
""focus"",""0"",""0""
""blur"",""0"",""0""
""focus"",""1"",""635""
""fullscreenenter"",""5"",""53477""
","""event"",""trial"",""time""
""blur"",""0"",""0""
","""event"",""trial"",""time""
""focus"",""0"",""0""
""focus"",""1"",""635""
","""event"",""trial"",""time""
""fullscreenenter"",""5"",""53477""
","
",5013,audio/instructions/treasure_feedback.wav,32,NA,NA,NA,NA,NA,NA,NA,NA,NA,NA,NA,NA,NA,NA,NA,NA,NA,NA,NA,sub88
d3-instructions,123,636105,0.0-64.0,TRUE,TRUE,FALSE,TRUE,"""event"",""trial"",""time""
""focus"",""0"",""0""
""blur"",""0"",""0""
""focus"",""1"",""635""
""fullscreenenter"",""5"",""53477""
","""event"",""trial"",""time""
""blur"",""0"",""0""
","""event"",""trial"",""time""
""focus"",""0"",""0""
""focus"",""1"",""635""
","""event"",""trial"",""time""
""fullscreenenter"",""5"",""53477""
","
",NA,NA,NA,NA,NA,NA,NA,NA,NA,NA,NA,NA,NA,NA,NA,NA,NA,NA,NA,NA,NA,NA,sub88
d3-instructions,124,646921,0.0-65.0,TRUE,TRUE,FALSE,TRUE,"""event"",""trial"",""time""
""focus"",""0"",""0""
""blur"",""0"",""0""
""focus"",""1"",""635""
""fullscreenenter"",""5"",""53477""
","""event"",""trial"",""time""
""blur"",""0"",""0""
","""event"",""trial"",""time""
""focus"",""0"",""0""
""focus"",""1"",""635""
","""event"",""trial"",""time""
""fullscreenenter"",""5"",""53477""
","
",NA,NA,NA,NA,NA,NA,NA,NA,NA,NA,NA,NA,NA,NA,NA,NA,NA,NA,NA,NA,NA,NA,sub88
d3-instructions,125,662286,0.0-66.0,TRUE,TRUE,FALSE,TRUE,"""event"",""trial"",""time""
""focus"",""0"",""0""
""blur"",""0"",""0""
""focus"",""1"",""635""
""fullscreenenter"",""5"",""53477""
","""event"",""trial"",""time""
""blur"",""0"",""0""
","""event"",""trial"",""time""
""focus"",""0"",""0""
""focus"",""1"",""635""
","""event"",""trial"",""time""
""fullscreenenter"",""5"",""53477""
","
",NA,NA,NA,NA,NA,NA,NA,NA,NA,NA,NA,NA,NA,NA,NA,NA,NA,NA,NA,NA,NA,NA,sub88
d3-instructions,126,679086,0.0-67.0,TRUE,TRUE,FALSE,TRUE,"""event"",""trial"",""time""
""focus"",""0"",""0""
""blur"",""0"",""0""
""focus"",""1"",""635""
""fullscreenenter"",""5"",""53477""
","""event"",""trial"",""time""
""blur"",""0"",""0""
","""event"",""trial"",""time""
""focus"",""0"",""0""
""focus"",""1"",""635""
","""event"",""trial"",""time""
""fullscreenenter"",""5"",""53477""
","
",NA,NA,NA,NA,NA,NA,NA,NA,NA,NA,NA,NA,NA,NA,NA,NA,NA,NA,NA,NA,NA,NA,sub88
d3-instructions,127,690501,0.0-68.0,TRUE,TRUE,FALSE,TRUE,"""event"",""trial"",""time""
""focus"",""0"",""0""
""blur"",""0"",""0""
""focus"",""1"",""635""
""fullscreenenter"",""5"",""53477""
","""event"",""trial"",""time""
""blur"",""0"",""0""
","""event"",""trial"",""time""
""focus"",""0"",""0""
""focus"",""1"",""635""
","""event"",""trial"",""time""
""fullscreenenter"",""5"",""53477""
","
",NA,NA,NA,NA,NA,NA,NA,NA,NA,NA,NA,NA,NA,NA,NA,NA,NA,NA,NA,NA,NA,NA,sub88
instructions-quiz,128,698690,0.0-69.0,TRUE,TRUE,FALSE,TRUE,"""event"",""trial"",""time""
""focus"",""0"",""0""
""blur"",""0"",""0""
""focus"",""1"",""635""
""fullscreenenter"",""5"",""53477""
","""event"",""trial"",""time""
""blur"",""0"",""0""
","""event"",""trial"",""time""
""focus"",""0"",""0""
""focus"",""1"",""635""
","""event"",""trial"",""time""
""fullscreenenter"",""5"",""53477""
","
",8181.684999988647,audio/quiz/Q1_Prompt.wav,NA,1,NA,NA,NA,NA,NA,NA,NA,NA,NA,NA,NA,NA,NA,NA,NA,NA,NA,NA,sub88
audio-keyboard-response,129,707866,0.0-70.0,TRUE,TRUE,FALSE,TRUE,"""event"",""trial"",""time""
""focus"",""0"",""0""
""blur"",""0"",""0""
""focus"",""1"",""635""
""fullscreenenter"",""5"",""53477""
","""event"",""trial"",""time""
""blur"",""0"",""0""
","""event"",""trial"",""time""
""focus"",""0"",""0""
""focus"",""1"",""635""
","""event"",""trial"",""time""
""fullscreenenter"",""5"",""53477""
","
",null,audio/quiz/Q1_Correct.wav,null,NA,NA,NA,NA,NA,NA,NA,NA,NA,NA,NA,NA,NA,NA,NA,NA,NA,NA,NA,sub88
instructions-quiz,130,712228,0.0-71.0,TRUE,TRUE,FALSE,TRUE,"""event"",""trial"",""time""
""focus"",""0"",""0""
""blur"",""0"",""0""
""focus"",""1"",""635""
""fullscreenenter"",""5"",""53477""
","""event"",""trial"",""time""
""blur"",""0"",""0""
","""event"",""trial"",""time""
""focus"",""0"",""0""
""focus"",""1"",""635""
","""event"",""trial"",""time""
""fullscreenenter"",""5"",""53477""
","
",4356.144999997923,audio/quiz/Q2_Prompt.wav,NA,0,NA,NA,NA,NA,NA,NA,NA,NA,NA,NA,NA,NA,NA,NA,NA,NA,NA,NA,sub88
audio-keyboard-response,131,724413,0.0-72.0,TRUE,TRUE,FALSE,TRUE,"""event"",""trial"",""time""
""focus"",""0"",""0""
""blur"",""0"",""0""
""focus"",""1"",""635""
""fullscreenenter"",""5"",""53477""
","""event"",""trial"",""time""
""blur"",""0"",""0""
","""event"",""trial"",""time""
""focus"",""0"",""0""
""focus"",""1"",""635""
","""event"",""trial"",""time""
""fullscreenenter"",""5"",""53477""
","
",12181,audio/quiz/Q2_Correct.wav,32,NA,NA,NA,NA,NA,NA,NA,NA,NA,NA,NA,NA,NA,NA,NA,NA,NA,NA,NA,sub88
instructions-quiz,132,727953,0.0-73.0,TRUE,TRUE,FALSE,TRUE,"""event"",""trial"",""time""
""focus"",""0"",""0""
""blur"",""0"",""0""
""focus"",""1"",""635""
""fullscreenenter"",""5"",""53477""
","""event"",""trial"",""time""
""blur"",""0"",""0""
","""event"",""trial"",""time""
""focus"",""0"",""0""
""focus"",""1"",""635""
","""event"",""trial"",""time""
""fullscreenenter"",""5"",""53477""
","
",3533.41500001261,audio/quiz/Q3_Prompt.wav,NA,1,NA,NA,NA,NA,NA,NA,NA,NA,NA,NA,NA,NA,NA,NA,NA,NA,NA,NA,sub88
audio-keyboard-response,133,729106,0.0-74.0,TRUE,TRUE,FALSE,TRUE,"""event"",""trial"",""time""
""focus"",""0"",""0""
""blur"",""0"",""0""
""focus"",""1"",""635""
""fullscreenenter"",""5"",""53477""
","""event"",""trial"",""time""
""blur"",""0"",""0""
","""event"",""trial"",""time""
""focus"",""0"",""0""
""focus"",""1"",""635""
","""event"",""trial"",""time""
""fullscreenenter"",""5"",""53477""
","
",1152,audio/quiz/Q3_Correct.wav,32,NA,NA,NA,NA,NA,NA,NA,NA,NA,NA,NA,NA,NA,NA,NA,NA,NA,NA,NA,sub88
d3-instructions,134,745854,0.0-75.0,TRUE,TRUE,FALSE,TRUE,"""event"",""trial"",""time""
""focus"",""0"",""0""
""blur"",""0"",""0""
""focus"",""1"",""635""
""fullscreenenter"",""5"",""53477""
","""event"",""trial"",""time""
""blur"",""0"",""0""
","""event"",""trial"",""time""
""focus"",""0"",""0""
""focus"",""1"",""635""
","""event"",""trial"",""time""
""fullscreenenter"",""5"",""53477""
","
",NA,NA,NA,NA,NA,NA,NA,NA,NA,NA,NA,NA,NA,NA,NA,NA,NA,NA,NA,NA,NA,NA,sub88
d3-animate-choice,135,749863,0.0-76.0-0.0,TRUE,TRUE,FALSE,TRUE,"""event"",""trial"",""time""
""focus"",""0"",""0""
""blur"",""0"",""0""
""focus"",""1"",""635""
""fullscreenenter"",""5"",""53477""
","""event"",""trial"",""time""
""blur"",""0"",""0""
","""event"",""trial"",""time""
""focus"",""0"",""0""
""focus"",""1"",""635""
","""event"",""trial"",""time""
""fullscreenenter"",""5"",""53477""
","
",2411.0900000086986,NA,49,NA,NA,3000,1,NA,NA,images/earth.jpg,images/rocket2,images/rocket1,null,images/rocket1,NA,1,real,null,1,NA,NA,NA,sub88
d3-animate-choice,136,752964,0.0-76.0-1.0,TRUE,TRUE,FALSE,TRUE,"""event"",""trial"",""time""
""focus"",""0"",""0""
""blur"",""0"",""0""
""focus"",""1"",""635""
""fullscreenenter"",""5"",""53477""
","""event"",""trial"",""time""
""blur"",""0"",""0""
","""event"",""trial"",""time""
""focus"",""0"",""0""
""focus"",""1"",""635""
","""event"",""trial"",""time""
""fullscreenenter"",""5"",""53477""
","
",1087.7999999793246,NA,49,NA,NA,3000,1,NA,NA,images/redplanet1.jpg,images/alien2,images/alien1,images/rocket1,images/alien1,images/nothing.png,2,real,true,1,common,0,2020-06-30T02:31:19Z,sub88
two-step-fixation,137,753973,0.0-76.0-2.0,TRUE,TRUE,FALSE,TRUE,"""event"",""trial"",""time""
""focus"",""0"",""0""
""blur"",""0"",""0""
""focus"",""1"",""635""
""fullscreenenter"",""5"",""53477""
","""event"",""trial"",""time""
""blur"",""0"",""0""
","""event"",""trial"",""time""
""focus"",""0"",""0""
""focus"",""1"",""635""
","""event"",""trial"",""time""
""fullscreenenter"",""5"",""53477""
","
",NA,images/earth.jpg,NA,NA,NA,NA,NA,NA,NA,NA,NA,NA,NA,NA,NA,fixation,NA,NA,NA,NA,NA,NA,sub88
d3-animate-choice,138,756669,0.0-76.0-0.1,TRUE,TRUE,FALSE,TRUE,"""event"",""trial"",""time""
""focus"",""0"",""0""
""blur"",""0"",""0""
""focus"",""1"",""635""
""fullscreenenter"",""5"",""53477""
","""event"",""trial"",""time""
""blur"",""0"",""0""
","""event"",""trial"",""time""
""focus"",""0"",""0""
""focus"",""1"",""635""
","""event"",""trial"",""time""
""fullscreenenter"",""5"",""53477""
","
",683.565000013914,NA,49,NA,NA,3000,1,NA,NA,images/earth.jpg,images/rocket2,images/rocket1,null,images/rocket1,NA,1,real,null,1,NA,NA,NA,sub88
d3-animate-choice,139,759123,0.0-76.0-1.1,TRUE,TRUE,FALSE,TRUE,"""event"",""trial"",""time""
""focus"",""0"",""0""
""blur"",""0"",""0""
""focus"",""1"",""635""
""fullscreenenter"",""5"",""53477""
","""event"",""trial"",""time""
""blur"",""0"",""0""
","""event"",""trial"",""time""
""focus"",""0"",""0""
""focus"",""1"",""635""
","""event"",""trial"",""time""
""fullscreenenter"",""5"",""53477""
","
",438.98999999510124,NA,48,NA,NA,3000,1,NA,NA,images/redplanet1.jpg,images/alien2,images/alien1,images/rocket1,images/alien2,images/nothing.png,2,real,true,2,common,0,2020-06-30T02:31:26Z,sub88
two-step-fixation,140,760133,0.0-76.0-2.1,TRUE,TRUE,FALSE,TRUE,"""event"",""trial"",""time""
""focus"",""0"",""0""
""blur"",""0"",""0""
""focus"",""1"",""635""
""fullscreenenter"",""5"",""53477""
","""event"",""trial"",""time""
""blur"",""0"",""0""
","""event"",""trial"",""time""
""focus"",""0"",""0""
""focus"",""1"",""635""
","""event"",""trial"",""time""
""fullscreenenter"",""5"",""53477""
","
",NA,images/earth.jpg,NA,NA,NA,NA,NA,NA,NA,NA,NA,NA,NA,NA,NA,fixation,NA,NA,NA,NA,NA,NA,sub88
d3-animate-choice,141,762868,0.0-76.0-0.2,TRUE,TRUE,FALSE,TRUE,"""event"",""trial"",""time""
""focus"",""0"",""0""
""blur"",""0"",""0""
""focus"",""1"",""635""
""fullscreenenter"",""5"",""53477""
","""event"",""trial"",""time""
""blur"",""0"",""0""
","""event"",""trial"",""time""
""focus"",""0"",""0""
""focus"",""1"",""635""
","""event"",""trial"",""time""
""fullscreenenter"",""5"",""53477""
","
",721.0049999994226,NA,48,NA,NA,3000,1,NA,NA,images/earth.jpg,images/rocket2,images/rocket1,null,images/rocket2,NA,1,real,null,2,NA,NA,NA,sub88
d3-animate-choice,142,765501,0.0-76.0-1.2,TRUE,TRUE,FALSE,TRUE,"""event"",""trial"",""time""
""focus"",""0"",""0""
""blur"",""0"",""0""
""focus"",""1"",""635""
""fullscreenenter"",""5"",""53477""
","""event"",""trial"",""time""
""blur"",""0"",""0""
","""event"",""trial"",""time""
""focus"",""0"",""0""
""focus"",""1"",""635""
","""event"",""trial"",""time""
""fullscreenenter"",""5"",""53477""
","
",619.7700000193436,NA,49,NA,NA,3000,1,NA,NA,images/purpleplanet.jpg,images/alien4,images/alien3,images/rocket2,images/alien3,images/t.png,2,real,true,1,common,1,2020-06-30T02:31:32Z,sub88
two-step-fixation,143,766511,0.0-76.0-2.2,TRUE,TRUE,FALSE,TRUE,"""event"",""trial"",""time""
""focus"",""0"",""0""
""blur"",""0"",""0""
""focus"",""1"",""635""
""fullscreenenter"",""5"",""53477""
","""event"",""trial"",""time""
""blur"",""0"",""0""
","""event"",""trial"",""time""
""focus"",""0"",""0""
""focus"",""1"",""635""
","""event"",""trial"",""time""
""fullscreenenter"",""5"",""53477""
","
",NA,images/earth.jpg,NA,NA,NA,NA,NA,NA,NA,NA,NA,NA,NA,NA,NA,fixation,NA,NA,NA,NA,NA,NA,sub88
d3-animate-choice,144,768857,0.0-76.0-0.3,TRUE,TRUE,FALSE,TRUE,"""event"",""trial"",""time""
""focus"",""0"",""0""
""blur"",""0"",""0""
""focus"",""1"",""635""
""fullscreenenter"",""5"",""53477""
","""event"",""trial"",""time""
""blur"",""0"",""0""
","""event"",""trial"",""time""
""focus"",""0"",""0""
""focus"",""1"",""635""
","""event"",""trial"",""time""
""fullscreenenter"",""5"",""53477""
","
",331.5149999980349,NA,48,NA,NA,3000,1,NA,NA,images/earth.jpg,images/rocket2,images/rocket1,null,images/rocket2,NA,1,real,null,2,NA,NA,NA,sub88
d3-animate-choice,145,771462,0.0-76.0-1.3,TRUE,TRUE,FALSE,TRUE,"""event"",""trial"",""time""
""focus"",""0"",""0""
""blur"",""0"",""0""
""focus"",""1"",""635""
""fullscreenenter"",""5"",""53477""
","""event"",""trial"",""time""
""blur"",""0"",""0""
","""event"",""trial"",""time""
""focus"",""0"",""0""
""focus"",""1"",""635""
","""event"",""trial"",""time""
""fullscreenenter"",""5"",""53477""
","
",594.52000001329,NA,48,NA,NA,3000,1,NA,NA,images/purpleplanet.jpg,images/alien4,images/alien3,images/rocket2,images/alien4,images/t.png,2,real,true,2,common,1,2020-06-30T02:31:38Z,sub88
two-step-fixation,146,772472,0.0-76.0-2.3,TRUE,TRUE,FALSE,TRUE,"""event"",""trial"",""time""
""focus"",""0"",""0""
""blur"",""0"",""0""
""focus"",""1"",""635""
""fullscreenenter"",""5"",""53477""
","""event"",""trial"",""time""
""blur"",""0"",""0""
","""event"",""trial"",""time""
""focus"",""0"",""0""
""focus"",""1"",""635""
","""event"",""trial"",""time""
""fullscreenenter"",""5"",""53477""
","
",NA,images/earth.jpg,NA,NA,NA,NA,NA,NA,NA,NA,NA,NA,NA,NA,NA,fixation,NA,NA,NA,NA,NA,NA,sub88
d3-animate-choice,147,774893,0.0-76.0-0.4,TRUE,TRUE,FALSE,TRUE,"""event"",""trial"",""time""
""focus"",""0"",""0""
""blur"",""0"",""0""
""focus"",""1"",""635""
""fullscreenenter"",""5"",""53477""
","""event"",""trial"",""time""
""blur"",""0"",""0""
","""event"",""trial"",""time""
""focus"",""0"",""0""
""focus"",""1"",""635""
","""event"",""trial"",""time""
""fullscreenenter"",""5"",""53477""
","
",404.6549999911804,NA,48,NA,NA,3000,1,NA,NA,images/earth.jpg,images/rocket2,images/rocket1,null,images/rocket2,NA,1,real,null,2,NA,NA,NA,sub88
d3-animate-choice,148,777933,0.0-76.0-1.4,TRUE,TRUE,FALSE,TRUE,"""event"",""trial"",""time""
""focus"",""0"",""0""
""blur"",""0"",""0""
""focus"",""1"",""635""
""fullscreenenter"",""5"",""53477""
","""event"",""trial"",""time""
""blur"",""0"",""0""
","""event"",""trial"",""time""
""focus"",""0"",""0""
""focus"",""1"",""635""
","""event"",""trial"",""time""
""fullscreenenter"",""5"",""53477""
","
",1025.4950000089593,NA,49,NA,NA,3000,1,NA,NA,images/purpleplanet.jpg,images/alien4,images/alien3,images/rocket2,images/alien3,images/nothing.png,2,real,true,1,common,0,2020-06-30T02:31:44Z,sub88
two-step-fixation,149,778942,0.0-76.0-2.4,TRUE,TRUE,FALSE,TRUE,"""event"",""trial"",""time""
""focus"",""0"",""0""
""blur"",""0"",""0""
""focus"",""1"",""635""
""fullscreenenter"",""5"",""53477""
","""event"",""trial"",""time""
""blur"",""0"",""0""
","""event"",""trial"",""time""
""focus"",""0"",""0""
""focus"",""1"",""635""
","""event"",""trial"",""time""
""fullscreenenter"",""5"",""53477""
","
",NA,images/earth.jpg,NA,NA,NA,NA,NA,NA,NA,NA,NA,NA,NA,NA,NA,fixation,NA,NA,NA,NA,NA,NA,sub88
d3-animate-choice,150,781202,0.0-76.0-0.5,TRUE,TRUE,FALSE,TRUE,"""event"",""trial"",""time""
""focus"",""0"",""0""
""blur"",""0"",""0""
""focus"",""1"",""635""
""fullscreenenter"",""5"",""53477""
","""event"",""trial"",""time""
""blur"",""0"",""0""
","""event"",""trial"",""time""
""focus"",""0"",""0""
""focus"",""1"",""635""
","""event"",""trial"",""time""
""fullscreenenter"",""5"",""53477""
","
",244.48999998276122,NA,48,NA,NA,3000,1,NA,NA,images/earth.jpg,images/rocket2,images/rocket1,null,images/rocket2,NA,1,real,null,2,NA,NA,NA,sub88
d3-animate-choice,151,783503,0.0-76.0-1.5,TRUE,TRUE,FALSE,TRUE,"""event"",""trial"",""time""
""focus"",""0"",""0""
""blur"",""0"",""0""
""focus"",""1"",""635""
""fullscreenenter"",""5"",""53477""
","""event"",""trial"",""time""
""blur"",""0"",""0""
","""event"",""trial"",""time""
""focus"",""0"",""0""
""focus"",""1"",""635""
","""event"",""trial"",""time""
""fullscreenenter"",""5"",""53477""
","
",289.279999997234,NA,48,NA,NA,3000,1,NA,NA,images/redplanet1.jpg,images/alien2,images/alien1,images/rocket2,images/alien2,images/t.png,2,real,false,2,rare,1,2020-06-30T02:31:50Z,sub88
two-step-fixation,152,784513,0.0-76.0-2.5,TRUE,TRUE,FALSE,TRUE,"""event"",""trial"",""time""
""focus"",""0"",""0""
""blur"",""0"",""0""
""focus"",""1"",""635""
""fullscreenenter"",""5"",""53477""
","""event"",""trial"",""time""
""blur"",""0"",""0""
","""event"",""trial"",""time""
""focus"",""0"",""0""
""focus"",""1"",""635""
","""event"",""trial"",""time""
""fullscreenenter"",""5"",""53477""
","
",NA,images/earth.jpg,NA,NA,NA,NA,NA,NA,NA,NA,NA,NA,NA,NA,NA,fixation,NA,NA,NA,NA,NA,NA,sub88
d3-animate-choice,153,786782,0.0-76.0-0.6,TRUE,TRUE,FALSE,TRUE,"""event"",""trial"",""time""
""focus"",""0"",""0""
""blur"",""0"",""0""
""focus"",""1"",""635""
""fullscreenenter"",""5"",""53477""
","""event"",""trial"",""time""
""blur"",""0"",""0""
","""event"",""trial"",""time""
""focus"",""0"",""0""
""focus"",""1"",""635""
","""event"",""trial"",""time""
""fullscreenenter"",""5"",""53477""
","
",254.4050000142306,NA,48,NA,NA,3000,1,NA,NA,images/earth.jpg,images/rocket2,images/rocket1,null,images/rocket2,NA,1,real,null,2,NA,NA,NA,sub88
d3-animate-choice,154,789100,0.0-76.0-1.6,TRUE,TRUE,FALSE,TRUE,"""event"",""trial"",""time""
""focus"",""0"",""0""
""blur"",""0"",""0""
""focus"",""1"",""635""
""fullscreenenter"",""5"",""53477""
","""event"",""trial"",""time""
""blur"",""0"",""0""
","""event"",""trial"",""time""
""focus"",""0"",""0""
""focus"",""1"",""635""
","""event"",""trial"",""time""
""fullscreenenter"",""5"",""53477""
","
",305.3300000028685,NA,48,NA,NA,3000,1,NA,NA,images/purpleplanet.jpg,images/alien4,images/alien3,images/rocket2,images/alien4,images/t.png,2,real,true,2,common,1,2020-06-30T02:31:56Z,sub88
two-step-fixation,155,790109,0.0-76.0-2.6,TRUE,TRUE,FALSE,TRUE,"""event"",""trial"",""time""
""focus"",""0"",""0""
""blur"",""0"",""0""
""focus"",""1"",""635""
""fullscreenenter"",""5"",""53477""
","""event"",""trial"",""time""
""blur"",""0"",""0""
","""event"",""trial"",""time""
""focus"",""0"",""0""
""focus"",""1"",""635""
","""event"",""trial"",""time""
""fullscreenenter"",""5"",""53477""
","
",NA,images/earth.jpg,NA,NA,NA,NA,NA,NA,NA,NA,NA,NA,NA,NA,NA,fixation,NA,NA,NA,NA,NA,NA,sub88
d3-animate-choice,156,792428,0.0-76.0-0.7,TRUE,TRUE,FALSE,TRUE,"""event"",""trial"",""time""
""focus"",""0"",""0""
""blur"",""0"",""0""
""focus"",""1"",""635""
""fullscreenenter"",""5"",""53477""
","""event"",""trial"",""time""
""blur"",""0"",""0""
","""event"",""trial"",""time""
""focus"",""0"",""0""
""focus"",""1"",""635""
","""event"",""trial"",""time""
""fullscreenenter"",""5"",""53477""
","
",303.2799999928102,NA,48,NA,NA,3000,1,NA,NA,images/earth.jpg,images/rocket2,images/rocket1,null,images/rocket2,NA,1,real,null,2,NA,NA,NA,sub88
d3-animate-choice,157,794948,0.0-76.0-1.7,TRUE,TRUE,FALSE,TRUE,"""event"",""trial"",""time""
""focus"",""0"",""0""
""blur"",""0"",""0""
""focus"",""1"",""635""
""fullscreenenter"",""5"",""53477""
","""event"",""trial"",""time""
""blur"",""0"",""0""
","""event"",""trial"",""time""
""focus"",""0"",""0""
""focus"",""1"",""635""
","""event"",""trial"",""time""
""fullscreenenter"",""5"",""53477""
","
",506.7200000048615,NA,48,NA,NA,3000,1,NA,NA,images/purpleplanet.jpg,images/alien4,images/alien3,images/rocket2,images/alien4,images/t.png,2,real,true,2,common,1,2020-06-30T02:32:01Z,sub88
two-step-fixation,158,795959,0.0-76.0-2.7,TRUE,TRUE,FALSE,TRUE,"""event"",""trial"",""time""
""focus"",""0"",""0""
""blur"",""0"",""0""
""focus"",""1"",""635""
""fullscreenenter"",""5"",""53477""
","""event"",""trial"",""time""
""blur"",""0"",""0""
","""event"",""trial"",""time""
""focus"",""0"",""0""
""focus"",""1"",""635""
","""event"",""trial"",""time""
""fullscreenenter"",""5"",""53477""
","
",NA,images/earth.jpg,NA,NA,NA,NA,NA,NA,NA,NA,NA,NA,NA,NA,NA,fixation,NA,NA,NA,NA,NA,NA,sub88
d3-animate-choice,159,798268,0.0-76.0-0.8,TRUE,TRUE,FALSE,TRUE,"""event"",""trial"",""time""
""focus"",""0"",""0""
""blur"",""0"",""0""
""focus"",""1"",""635""
""fullscreenenter"",""5"",""53477""
","""event"",""trial"",""time""
""blur"",""0"",""0""
","""event"",""trial"",""time""
""focus"",""0"",""0""
""focus"",""1"",""635""
","""event"",""trial"",""time""
""fullscreenenter"",""5"",""53477""
","
",293.390000006184,NA,48,NA,NA,3000,1,NA,NA,images/earth.jpg,images/rocket2,images/rocket1,null,images/rocket2,NA,1,real,null,2,NA,NA,NA,sub88
d3-animate-choice,160,801769,0.0-76.0-1.8,TRUE,TRUE,FALSE,TRUE,"""event"",""trial"",""time""
""focus"",""0"",""0""
""blur"",""0"",""0""
""focus"",""1"",""635""
""fullscreenenter"",""5"",""53477""
","""event"",""trial"",""time""
""blur"",""0"",""0""
","""event"",""trial"",""time""
""focus"",""0"",""0""
""focus"",""1"",""635""
","""event"",""trial"",""time""
""fullscreenenter"",""5"",""53477""
","
",1487.8299999982119,NA,48,NA,NA,3000,1,NA,NA,images/redplanet1.jpg,images/alien2,images/alien1,images/rocket2,images/alien2,images/nothing.png,2,real,false,2,rare,0,2020-06-30T02:32:08Z,sub88
two-step-fixation,161,802781,0.0-76.0-2.8,TRUE,TRUE,FALSE,TRUE,"""event"",""trial"",""time""
""focus"",""0"",""0""
""blur"",""0"",""0""
""focus"",""1"",""635""
""fullscreenenter"",""5"",""53477""
","""event"",""trial"",""time""
""blur"",""0"",""0""
","""event"",""trial"",""time""
""focus"",""0"",""0""
""focus"",""1"",""635""
","""event"",""trial"",""time""
""fullscreenenter"",""5"",""53477""
","
",NA,images/earth.jpg,NA,NA,NA,NA,NA,NA,NA,NA,NA,NA,NA,NA,NA,fixation,NA,NA,NA,NA,NA,NA,sub88
d3-animate-choice,162,805082,0.0-76.0-0.9,TRUE,TRUE,FALSE,TRUE,"""event"",""trial"",""time""
""focus"",""0"",""0""
""blur"",""0"",""0""
""focus"",""1"",""635""
""fullscreenenter"",""5"",""53477""
","""event"",""trial"",""time""
""blur"",""0"",""0""
","""event"",""trial"",""time""
""focus"",""0"",""0""
""focus"",""1"",""635""
","""event"",""trial"",""time""
""fullscreenenter"",""5"",""53477""
","
",288.6500000022352,NA,48,NA,NA,3000,1,NA,NA,images/earth.jpg,images/rocket2,images/rocket1,null,images/rocket2,NA,1,real,null,2,NA,NA,NA,sub88
d3-animate-choice,163,808156,0.0-76.0-1.9,TRUE,TRUE,FALSE,TRUE,"""event"",""trial"",""time""
""focus"",""0"",""0""
""blur"",""0"",""0""
""focus"",""1"",""635""
""fullscreenenter"",""5"",""53477""
","""event"",""trial"",""time""
""blur"",""0"",""0""
","""event"",""trial"",""time""
""focus"",""0"",""0""
""focus"",""1"",""635""
","""event"",""trial"",""time""
""fullscreenenter"",""5"",""53477""
","
",1062.0700000145007,NA,49,NA,NA,3000,1,NA,NA,images/redplanet1.jpg,images/alien2,images/alien1,images/rocket2,images/alien1,images/nothing.png,2,real,false,1,rare,0,2020-06-30T02:32:15Z,sub88
two-step-fixation,164,809164,0.0-76.0-2.9,TRUE,TRUE,FALSE,TRUE,"""event"",""trial"",""time""
""focus"",""0"",""0""
""blur"",""0"",""0""
""focus"",""1"",""635""
""fullscreenenter"",""5"",""53477""
","""event"",""trial"",""time""
""blur"",""0"",""0""
","""event"",""trial"",""time""
""focus"",""0"",""0""
""focus"",""1"",""635""
","""event"",""trial"",""time""
""fullscreenenter"",""5"",""53477""
","
",NA,images/earth.jpg,NA,NA,NA,NA,NA,NA,NA,NA,NA,NA,NA,NA,NA,fixation,NA,NA,NA,NA,NA,NA,sub88
d3-animate-choice,165,811570,0.0-76.0-0.10,TRUE,TRUE,FALSE,TRUE,"""event"",""trial"",""time""
""focus"",""0"",""0""
""blur"",""0"",""0""
""focus"",""1"",""635""
""fullscreenenter"",""5"",""53477""
","""event"",""trial"",""time""
""blur"",""0"",""0""
","""event"",""trial"",""time""
""focus"",""0"",""0""
""focus"",""1"",""635""
","""event"",""trial"",""time""
""fullscreenenter"",""5"",""53477""
","
",390.9799999964889,NA,48,NA,NA,3000,1,NA,NA,images/earth.jpg,images/rocket2,images/rocket1,null,images/rocket2,NA,1,real,null,2,NA,NA,NA,sub88
d3-animate-choice,166,814005,0.0-76.0-1.10,TRUE,TRUE,FALSE,TRUE,"""event"",""trial"",""time""
""focus"",""0"",""0""
""blur"",""0"",""0""
""focus"",""1"",""635""
""fullscreenenter"",""5"",""53477""
","""event"",""trial"",""time""
""blur"",""0"",""0""
","""event"",""trial"",""time""
""focus"",""0"",""0""
""focus"",""1"",""635""
","""event"",""trial"",""time""
""fullscreenenter"",""5"",""53477""
","
",423.1199999921955,NA,48,NA,NA,3000,1,NA,NA,images/purpleplanet.jpg,images/alien4,images/alien3,images/rocket2,images/alien4,images/t.png,2,real,true,2,common,1,2020-06-30T02:32:20Z,sub88
two-step-fixation,167,815018,0.0-76.0-2.10,TRUE,TRUE,FALSE,TRUE,"""event"",""trial"",""time""
""focus"",""0"",""0""
""blur"",""0"",""0""
""focus"",""1"",""635""
""fullscreenenter"",""5"",""53477""
","""event"",""trial"",""time""
""blur"",""0"",""0""
","""event"",""trial"",""time""
""focus"",""0"",""0""
""focus"",""1"",""635""
","""event"",""trial"",""time""
""fullscreenenter"",""5"",""53477""
","
",NA,images/earth.jpg,NA,NA,NA,NA,NA,NA,NA,NA,NA,NA,NA,NA,NA,fixation,NA,NA,NA,NA,NA,NA,sub88
d3-animate-choice,168,817326,0.0-76.0-0.11,TRUE,TRUE,FALSE,TRUE,"""event"",""trial"",""time""
""focus"",""0"",""0""
""blur"",""0"",""0""
""focus"",""1"",""635""
""fullscreenenter"",""5"",""53477""
","""event"",""trial"",""time""
""blur"",""0"",""0""
","""event"",""trial"",""time""
""focus"",""0"",""0""
""focus"",""1"",""635""
","""event"",""trial"",""time""
""fullscreenenter"",""5"",""53477""
","
",298.2000000192784,NA,48,NA,NA,3000,1,NA,NA,images/earth.jpg,images/rocket2,images/rocket1,null,images/rocket2,NA,1,real,null,2,NA,NA,NA,sub88
d3-animate-choice,169,819940,0.0-76.0-1.11,TRUE,TRUE,FALSE,TRUE,"""event"",""trial"",""time""
""focus"",""0"",""0""
""blur"",""0"",""0""
""focus"",""1"",""635""
""fullscreenenter"",""5"",""53477""
","""event"",""trial"",""time""
""blur"",""0"",""0""
","""event"",""trial"",""time""
""focus"",""0"",""0""
""focus"",""1"",""635""
","""event"",""trial"",""time""
""fullscreenenter"",""5"",""53477""
","
",599.194999987958,NA,48,NA,NA,3000,1,NA,NA,images/redplanet1.jpg,images/alien2,images/alien1,images/rocket2,images/alien2,images/t.png,2,real,false,2,rare,1,2020-06-30T02:32:26Z,sub88
two-step-fixation,170,820953,0.0-76.0-2.11,TRUE,TRUE,FALSE,TRUE,"""event"",""trial"",""time""
""focus"",""0"",""0""
""blur"",""0"",""0""
""focus"",""1"",""635""
""fullscreenenter"",""5"",""53477""
","""event"",""trial"",""time""
""blur"",""0"",""0""
","""event"",""trial"",""time""
""focus"",""0"",""0""
""focus"",""1"",""635""
","""event"",""trial"",""time""
""fullscreenenter"",""5"",""53477""
","
",NA,images/earth.jpg,NA,NA,NA,NA,NA,NA,NA,NA,NA,NA,NA,NA,NA,fixation,NA,NA,NA,NA,NA,NA,sub88
d3-animate-choice,171,823253,0.0-76.0-0.12,TRUE,TRUE,FALSE,TRUE,"""event"",""trial"",""time""
""focus"",""0"",""0""
""blur"",""0"",""0""
""focus"",""1"",""635""
""fullscreenenter"",""5"",""53477""
","""event"",""trial"",""time""
""blur"",""0"",""0""
","""event"",""trial"",""time""
""focus"",""0"",""0""
""focus"",""1"",""635""
","""event"",""trial"",""time""
""fullscreenenter"",""5"",""53477""
","
",282.9750000091735,NA,48,NA,NA,3000,1,NA,NA,images/earth.jpg,images/rocket2,images/rocket1,null,images/rocket2,NA,1,real,null,2,NA,NA,NA,sub88
d3-animate-choice,172,825808,0.0-76.0-1.12,TRUE,TRUE,FALSE,TRUE,"""event"",""trial"",""time""
""focus"",""0"",""0""
""blur"",""0"",""0""
""focus"",""1"",""635""
""fullscreenenter"",""5"",""53477""
","""event"",""trial"",""time""
""blur"",""0"",""0""
","""event"",""trial"",""time""
""focus"",""0"",""0""
""focus"",""1"",""635""
","""event"",""trial"",""time""
""fullscreenenter"",""5"",""53477""
","
",543.0649999761954,NA,48,NA,NA,3000,1,NA,NA,images/purpleplanet.jpg,images/alien4,images/alien3,images/rocket2,images/alien4,images/nothing.png,2,real,true,2,common,0,2020-06-30T02:32:32Z,sub88
two-step-fixation,173,826817,0.0-76.0-2.12,TRUE,TRUE,FALSE,TRUE,"""event"",""trial"",""time""
""focus"",""0"",""0""
""blur"",""0"",""0""
""focus"",""1"",""635""
""fullscreenenter"",""5"",""53477""
","""event"",""trial"",""time""
""blur"",""0"",""0""
","""event"",""trial"",""time""
""focus"",""0"",""0""
""focus"",""1"",""635""
","""event"",""trial"",""time""
""fullscreenenter"",""5"",""53477""
","
",NA,images/earth.jpg,NA,NA,NA,NA,NA,NA,NA,NA,NA,NA,NA,NA,NA,fixation,NA,NA,NA,NA,NA,NA,sub88
d3-animate-choice,174,829109,0.0-76.0-0.13,TRUE,TRUE,FALSE,TRUE,"""event"",""trial"",""time""
""focus"",""0"",""0""
""blur"",""0"",""0""
""focus"",""1"",""635""
""fullscreenenter"",""5"",""53477""
","""event"",""trial"",""time""
""blur"",""0"",""0""
","""event"",""trial"",""time""
""focus"",""0"",""0""
""focus"",""1"",""635""
","""event"",""trial"",""time""
""fullscreenenter"",""5"",""53477""
","
",279.6399999933783,NA,48,NA,NA,3000,1,NA,NA,images/earth.jpg,images/rocket2,images/rocket1,null,images/rocket2,NA,1,real,null,2,NA,NA,NA,sub88
d3-animate-choice,175,831987,0.0-76.0-1.13,TRUE,TRUE,FALSE,TRUE,"""event"",""trial"",""time""
""focus"",""0"",""0""
""blur"",""0"",""0""
""focus"",""1"",""635""
""fullscreenenter"",""5"",""53477""
","""event"",""trial"",""time""
""blur"",""0"",""0""
","""event"",""trial"",""time""
""focus"",""0"",""0""
""focus"",""1"",""635""
","""event"",""trial"",""time""
""fullscreenenter"",""5"",""53477""
","
",863.4650000021793,NA,48,NA,NA,3000,1,NA,NA,images/redplanet1.jpg,images/alien2,images/alien1,images/rocket2,images/alien2,images/nothing.png,2,real,false,2,rare,0,2020-06-30T02:32:38Z,sub88
two-step-fixation,176,832996,0.0-76.0-2.13,TRUE,TRUE,FALSE,TRUE,"""event"",""trial"",""time""
""focus"",""0"",""0""
""blur"",""0"",""0""
""focus"",""1"",""635""
""fullscreenenter"",""5"",""53477""
","""event"",""trial"",""time""
""blur"",""0"",""0""
","""event"",""trial"",""time""
""focus"",""0"",""0""
""focus"",""1"",""635""
","""event"",""trial"",""time""
""fullscreenenter"",""5"",""53477""
","
",NA,images/earth.jpg,NA,NA,NA,NA,NA,NA,NA,NA,NA,NA,NA,NA,NA,fixation,NA,NA,NA,NA,NA,NA,sub88
d3-animate-choice,177,835305,0.0-76.0-0.14,TRUE,TRUE,FALSE,TRUE,"""event"",""trial"",""time""
""focus"",""0"",""0""
""blur"",""0"",""0""
""focus"",""1"",""635""
""fullscreenenter"",""5"",""53477""
","""event"",""trial"",""time""
""blur"",""0"",""0""
","""event"",""trial"",""time""
""focus"",""0"",""0""
""focus"",""1"",""635""
","""event"",""trial"",""time""
""fullscreenenter"",""5"",""53477""
","
",293.5400000133086,NA,48,NA,NA,3000,1,NA,NA,images/earth.jpg,images/rocket2,images/rocket1,null,images/rocket2,NA,1,real,null,2,NA,NA,NA,sub88
d3-animate-choice,178,838232,0.0-76.0-1.14,TRUE,TRUE,FALSE,TRUE,"""event"",""trial"",""time""
""focus"",""0"",""0""
""blur"",""0"",""0""
""focus"",""1"",""635""
""fullscreenenter"",""5"",""53477""
","""event"",""trial"",""time""
""blur"",""0"",""0""
","""event"",""trial"",""time""
""focus"",""0"",""0""
""focus"",""1"",""635""
","""event"",""trial"",""time""
""fullscreenenter"",""5"",""53477""
","
",913.2999999856111,NA,49,NA,NA,3000,1,NA,NA,images/redplanet1.jpg,images/alien2,images/alien1,images/rocket2,images/alien1,images/nothing.png,2,real,false,1,rare,0,2020-06-30T02:32:45Z,sub88
two-step-fixation,179,839241,0.0-76.0-2.14,TRUE,TRUE,FALSE,TRUE,"""event"",""trial"",""time""
""focus"",""0"",""0""
""blur"",""0"",""0""
""focus"",""1"",""635""
""fullscreenenter"",""5"",""53477""
","""event"",""trial"",""time""
""blur"",""0"",""0""
","""event"",""trial"",""time""
""focus"",""0"",""0""
""focus"",""1"",""635""
","""event"",""trial"",""time""
""fullscreenenter"",""5"",""53477""
","
",NA,images/earth.jpg,NA,NA,NA,NA,NA,NA,NA,NA,NA,NA,NA,NA,NA,fixation,NA,NA,NA,NA,NA,NA,sub88
d3-animate-choice,180,841531,0.0-76.0-0.15,TRUE,TRUE,FALSE,TRUE,"""event"",""trial"",""time""
""focus"",""0"",""0""
""blur"",""0"",""0""
""focus"",""1"",""635""
""fullscreenenter"",""5"",""53477""
","""event"",""trial"",""time""
""blur"",""0"",""0""
","""event"",""trial"",""time""
""focus"",""0"",""0""
""focus"",""1"",""635""
","""event"",""trial"",""time""
""fullscreenenter"",""5"",""53477""
","
",274.1000000096392,NA,48,NA,NA,3000,1,NA,NA,images/earth.jpg,images/rocket2,images/rocket1,null,images/rocket2,NA,1,real,null,2,NA,NA,NA,sub88
d3-animate-choice,181,843897,0.0-76.0-1.15,TRUE,TRUE,FALSE,TRUE,"""event"",""trial"",""time""
""focus"",""0"",""0""
""blur"",""0"",""0""
""focus"",""1"",""635""
""fullscreenenter"",""5"",""53477""
","""event"",""trial"",""time""
""blur"",""0"",""0""
","""event"",""trial"",""time""
""focus"",""0"",""0""
""focus"",""1"",""635""
","""event"",""trial"",""time""
""fullscreenenter"",""5"",""53477""
","
",351.73999998369254,NA,48,NA,NA,3000,1,NA,NA,images/purpleplanet.jpg,images/alien4,images/alien3,images/rocket2,images/alien4,images/nothing.png,2,real,true,2,common,0,2020-06-30T02:32:50Z,sub88
two-step-fixation,182,844908,0.0-76.0-2.15,TRUE,TRUE,FALSE,TRUE,"""event"",""trial"",""time""
""focus"",""0"",""0""
""blur"",""0"",""0""
""focus"",""1"",""635""
""fullscreenenter"",""5"",""53477""
","""event"",""trial"",""time""
""blur"",""0"",""0""
","""event"",""trial"",""time""
""focus"",""0"",""0""
""focus"",""1"",""635""
","""event"",""trial"",""time""
""fullscreenenter"",""5"",""53477""
","
",NA,images/earth.jpg,NA,NA,NA,NA,NA,NA,NA,NA,NA,NA,NA,NA,NA,fixation,NA,NA,NA,NA,NA,NA,sub88
d3-animate-choice,183,847258,0.0-76.0-0.16,TRUE,TRUE,FALSE,TRUE,"""event"",""trial"",""time""
""focus"",""0"",""0""
""blur"",""0"",""0""
""focus"",""1"",""635""
""fullscreenenter"",""5"",""53477""
","""event"",""trial"",""time""
""blur"",""0"",""0""
","""event"",""trial"",""time""
""focus"",""0"",""0""
""focus"",""1"",""635""
","""event"",""trial"",""time""
""fullscreenenter"",""5"",""53477""
","
