trial_type,trial_index,time_elapsed,internal_node_id,rocket_sides,red_planet_first_rocket,red_display_order,purple_display_order,interactions,blur_events,focus_events,fullscreenenter_events,fullscreenexit_events,rt,stimulus,key_press,button_pressed,success,duration,valid_pressed,rts,keys,planet_text,right_text,left_text,center_text,chosen_text,reward_text,trial_stage,practice_trial,transition_type,choice,transition,reward,timestamp,subject_id
pavlovia,0,5,0.0-0.0,TRUE,TRUE,FALSE,FALSE,"
","
","
","
","
",NA,NA,NA,NA,NA,NA,NA,NA,NA,NA,NA,NA,NA,NA,NA,NA,NA,NA,NA,NA,NA,NA,sub7
html-keyboard-response,1,1577,0.0-1.0,TRUE,TRUE,FALSE,FALSE,"
","
","
","
","
",1571.205000000191,Welcome! Press the space bar to begin.,32,NA,NA,NA,NA,NA,NA,NA,NA,NA,NA,NA,NA,NA,NA,NA,NA,NA,NA,NA,sub7
audio-keyboard-response,2,4312,0.0-2.0,TRUE,TRUE,FALSE,FALSE,"
","
","
","
","
",2618,audio/beep_loop.wav,32,NA,NA,NA,NA,NA,NA,NA,NA,NA,NA,NA,NA,NA,NA,NA,NA,NA,NA,NA,sub7
audio-button-response,3,6874,0.0-3.0,TRUE,TRUE,FALSE,FALSE,"
","
","
","
","
",NaN,audio/fish.mp3,NA,1,NA,NA,NA,NA,NA,NA,NA,NA,NA,NA,NA,NA,NA,NA,NA,NA,NA,NA,sub7
audio-button-response,4,9528,0.0-4.0,TRUE,TRUE,FALSE,FALSE,"""event"",""trial"",""time""
""fullscreenenter"",""5"",""13243""
","
","
","""event"",""trial"",""time""
""fullscreenenter"",""5"",""13243""
","
",NaN,audio/tiger.mp3,NA,4,NA,NA,NA,NA,NA,NA,NA,NA,NA,NA,NA,NA,NA,NA,NA,NA,NA,NA,sub7
fullscreen,5,14234,0.0-5.0,TRUE,TRUE,FALSE,FALSE,"""event"",""trial"",""time""
""fullscreenenter"",""5"",""13243""
","
","
","""event"",""trial"",""time""
""fullscreenenter"",""5"",""13243""
","
",NA,NA,NA,NA,TRUE,NA,NA,NA,NA,NA,NA,NA,NA,NA,NA,NA,NA,NA,NA,NA,NA,NA,sub7
d3-instructions,6,28574,0.0-6.0,TRUE,TRUE,FALSE,FALSE,"""event"",""trial"",""time""
""fullscreenenter"",""5"",""13243""
","
","
","""event"",""trial"",""time""
""fullscreenenter"",""5"",""13243""
","
",NA,NA,NA,NA,NA,NA,NA,NA,NA,NA,NA,NA,NA,NA,NA,NA,NA,NA,NA,NA,NA,NA,sub7
d3-instructions,7,38222,0.0-7.0,TRUE,TRUE,FALSE,FALSE,"""event"",""trial"",""time""
""fullscreenenter"",""5"",""13243""
","
","
","""event"",""trial"",""time""
""fullscreenenter"",""5"",""13243""
","
",NA,NA,NA,NA,NA,NA,NA,NA,NA,NA,NA,NA,NA,NA,NA,NA,NA,NA,NA,NA,NA,NA,sub7
d3-instructions,8,49916,0.0-8.0,TRUE,TRUE,FALSE,FALSE,"""event"",""trial"",""time""
""fullscreenenter"",""5"",""13243""
","
","
","""event"",""trial"",""time""
""fullscreenenter"",""5"",""13243""
","
",NA,NA,NA,NA,NA,NA,NA,NA,NA,NA,NA,NA,NA,NA,NA,NA,NA,NA,NA,NA,NA,NA,sub7
d3-instructions,9,60899,0.0-9.0,TRUE,TRUE,FALSE,FALSE,"""event"",""trial"",""time""
""fullscreenenter"",""5"",""13243""
","
","
","""event"",""trial"",""time""
""fullscreenenter"",""5"",""13243""
","
",NA,NA,NA,NA,NA,NA,NA,NA,NA,NA,NA,NA,NA,NA,NA,NA,NA,NA,NA,NA,NA,NA,sub7
d3-instructions,10,76702,0.0-10.0,TRUE,TRUE,FALSE,FALSE,"""event"",""trial"",""time""
""fullscreenenter"",""5"",""13243""
","
","
","""event"",""trial"",""time""
""fullscreenenter"",""5"",""13243""
","
",NA,NA,NA,NA,NA,NA,NA,NA,NA,NA,NA,NA,NA,NA,NA,NA,NA,NA,NA,NA,NA,NA,sub7
d3-animate-choice,11,79688,0.0-11.0,TRUE,TRUE,FALSE,FALSE,"""event"",""trial"",""time""
""fullscreenenter"",""5"",""13243""
","
","
","""event"",""trial"",""time""
""fullscreenenter"",""5"",""13243""
","
",976.3550000061514,NA,49,NA,NA,3000,1,"2060.0200000044424,2882.469999996829",4848,images/tutgreenplanet.jpg,images/tutalien1,images/tutalien2,null,images/tutalien2,NA,NA,practice,null,NA,NA,NA,NA,sub7
d3-animate-choice,12,82439,0.0-12.0,TRUE,TRUE,FALSE,FALSE,"""event"",""trial"",""time""
""fullscreenenter"",""5"",""13243""
","
","
","""event"",""trial"",""time""
""fullscreenenter"",""5"",""13243""
","
",743.8399999955436,NA,48,NA,NA,3000,1,"1628.324999997858,2386.610000001383",4848,images/tutgreenplanet.jpg,images/tutalien1,images/tutalien2,null,images/tutalien1,NA,NA,practice,null,NA,NA,NA,NA,sub7
d3-animate-choice,13,86662,0.0-13.0,TRUE,TRUE,FALSE,FALSE,"""event"",""trial"",""time""
""fullscreenenter"",""5"",""13243""
","
","
","""event"",""trial"",""time""
""fullscreenenter"",""5"",""13243""
","
",2216.439999989234,NA,48,NA,NA,3000,1,NA,NA,images/tutgreenplanet.jpg,images/tutalien1,images/tutalien2,null,images/tutalien1,NA,NA,practice,null,NA,NA,NA,NA,sub7
d3-animate-choice,14,90524,0.0-14.0,TRUE,TRUE,FALSE,FALSE,"""event"",""trial"",""time""
""fullscreenenter"",""5"",""13243""
","
","
","""event"",""trial"",""time""
""fullscreenenter"",""5"",""13243""
","
",1857.5699999928474,NA,49,NA,NA,3000,1,NA,NA,images/tutgreenplanet.jpg,images/tutalien1,images/tutalien2,null,images/tutalien2,NA,NA,practice,null,NA,NA,NA,NA,sub7
d3-instructions,15,97328,0.0-15.0,TRUE,TRUE,FALSE,FALSE,"""event"",""trial"",""time""
""fullscreenenter"",""5"",""13243""
","
","
","""event"",""trial"",""time""
""fullscreenenter"",""5"",""13243""
","
",NA,NA,NA,NA,NA,NA,NA,NA,NA,NA,NA,NA,NA,NA,NA,NA,NA,NA,NA,NA,NA,NA,sub7
d3-instructions,16,104253,0.0-16.0,TRUE,TRUE,FALSE,FALSE,"""event"",""trial"",""time""
""fullscreenenter"",""5"",""13243""
","
","
","""event"",""trial"",""time""
""fullscreenenter"",""5"",""13243""
","
",NA,NA,NA,NA,NA,NA,NA,NA,NA,NA,NA,NA,NA,NA,NA,NA,NA,NA,NA,NA,NA,NA,sub7
d3-instructions,17,113035,0.0-17.0,TRUE,TRUE,FALSE,FALSE,"""event"",""trial"",""time""
""fullscreenenter"",""5"",""13243""
","
","
","""event"",""trial"",""time""
""fullscreenenter"",""5"",""13243""
","
",NA,NA,NA,NA,NA,NA,NA,NA,NA,NA,NA,NA,NA,NA,NA,NA,NA,NA,NA,NA,NA,NA,sub7
d3-instructions,18,127517,0.0-18.0,TRUE,TRUE,FALSE,FALSE,"""event"",""trial"",""time""
""fullscreenenter"",""5"",""13243""
","
","
","""event"",""trial"",""time""
""fullscreenenter"",""5"",""13243""
","
",NA,NA,NA,NA,NA,NA,NA,NA,NA,NA,NA,NA,NA,NA,NA,NA,NA,NA,NA,NA,NA,NA,sub7
d3-instructions,19,142373,0.0-19.0,TRUE,TRUE,FALSE,FALSE,"""event"",""trial"",""time""
""fullscreenenter"",""5"",""13243""
","
","
","""event"",""trial"",""time""
""fullscreenenter"",""5"",""13243""
","
",NA,NA,NA,NA,NA,NA,NA,NA,NA,NA,NA,NA,NA,NA,NA,NA,NA,NA,NA,NA,NA,NA,sub7
d3-animate-choice,20,145112,0.0-20.0,TRUE,TRUE,FALSE,FALSE,"""event"",""trial"",""time""
""fullscreenenter"",""5"",""13243""
","
","
","""event"",""trial"",""time""
""fullscreenenter"",""5"",""13243""
","
",732.9150000005029,NA,49,NA,NA,3000,1,NA,NA,images/tutyellowplanet.jpg,null,images/tutalien3,null,images/tutalien3,images/t.png,NA,practice,null,NA,NA,NA,NA,sub7
d3-animate-choice,21,147997,0.0-21.0,TRUE,TRUE,FALSE,FALSE,"""event"",""trial"",""time""
""fullscreenenter"",""5"",""13243""
","
","
","""event"",""trial"",""time""
""fullscreenenter"",""5"",""13243""
","
",877.8199999942444,NA,49,NA,NA,3000,1,NA,NA,images/tutyellowplanet.jpg,null,images/tutalien3,null,images/tutalien3,images/t.png,NA,practice,null,NA,NA,NA,NA,sub7
d3-animate-choice,22,150429,0.0-22.0,TRUE,TRUE,FALSE,FALSE,"""event"",""trial"",""time""
""fullscreenenter"",""5"",""13243""
","
","
","""event"",""trial"",""time""
""fullscreenenter"",""5"",""13243""
","
",429.90000000281725,NA,49,NA,NA,3000,1,NA,NA,images/tutyellowplanet.jpg,null,images/tutalien3,null,images/tutalien3,images/t.png,NA,practice,null,NA,NA,NA,NA,sub7
d3-animate-choice,23,152972,0.0-23.0,TRUE,TRUE,FALSE,FALSE,"""event"",""trial"",""time""
""fullscreenenter"",""5"",""13243""
","
","
","""event"",""trial"",""time""
""fullscreenenter"",""5"",""13243""
","
",540.949999995064,NA,49,NA,NA,3000,1,NA,NA,images/tutyellowplanet.jpg,null,images/tutalien3,null,images/tutalien3,images/nothing.png,NA,practice,null,NA,NA,NA,NA,sub7
d3-animate-choice,24,155845,0.0-24.0,TRUE,TRUE,FALSE,FALSE,"""event"",""trial"",""time""
""fullscreenenter"",""5"",""13243""
","
","
","""event"",""trial"",""time""
""fullscreenenter"",""5"",""13243""
","
",866.199999989476,NA,49,NA,NA,3000,1,NA,NA,images/tutyellowplanet.jpg,null,images/tutalien3,null,images/tutalien3,images/t.png,NA,practice,null,NA,NA,NA,NA,sub7
d3-animate-choice,25,158427,0.0-25.0,TRUE,TRUE,FALSE,FALSE,"""event"",""trial"",""time""
""fullscreenenter"",""5"",""13243""
","
","
","""event"",""trial"",""time""
""fullscreenenter"",""5"",""13243""
","
",580.4799999896204,NA,49,NA,NA,3000,1,NA,NA,images/tutyellowplanet.jpg,null,images/tutalien3,null,images/tutalien3,images/t.png,NA,practice,null,NA,NA,NA,NA,sub7
d3-animate-choice,26,161955,0.0-26.0,TRUE,TRUE,FALSE,FALSE,"""event"",""trial"",""time""
""fullscreenenter"",""5"",""13243""
","
","
","""event"",""trial"",""time""
""fullscreenenter"",""5"",""13243""
","
",1524.1799999930663,NA,49,NA,NA,3000,1,NA,NA,images/tutyellowplanet.jpg,null,images/tutalien3,null,images/tutalien3,images/nothing.png,NA,practice,null,NA,NA,NA,NA,sub7
d3-animate-choice,27,165118,0.0-27.0,TRUE,TRUE,FALSE,FALSE,"""event"",""trial"",""time""
""fullscreenenter"",""5"",""13243""
","
","
","""event"",""trial"",""time""
""fullscreenenter"",""5"",""13243""
","
",1158.8400000036927,NA,49,NA,NA,3000,1,NA,NA,images/tutyellowplanet.jpg,null,images/tutalien3,null,images/tutalien3,images/nothing.png,NA,practice,null,NA,NA,NA,NA,sub7
d3-animate-choice,28,167788,0.0-28.0,TRUE,TRUE,FALSE,FALSE,"""event"",""trial"",""time""
""fullscreenenter"",""5"",""13243""
","
","
","""event"",""trial"",""time""
""fullscreenenter"",""5"",""13243""
","
",666.2150000047404,NA,49,NA,NA,3000,1,NA,NA,images/tutyellowplanet.jpg,null,images/tutalien3,null,images/tutalien3,images/nothing.png,NA,practice,null,NA,NA,NA,NA,sub7
d3-animate-choice,29,170370,0.0-29.0,TRUE,TRUE,FALSE,FALSE,"""event"",""trial"",""time""
""fullscreenenter"",""5"",""13243""
","
","
","""event"",""trial"",""time""
""fullscreenenter"",""5"",""13243""
","
",580.4949999874225,NA,49,NA,NA,3000,1,NA,NA,images/tutyellowplanet.jpg,null,images/tutalien3,null,images/tutalien3,images/nothing.png,NA,practice,null,NA,NA,NA,NA,sub7
d3-instructions,30,179913,0.0-30.0,TRUE,TRUE,FALSE,FALSE,"""event"",""trial"",""time""
""fullscreenenter"",""5"",""13243""
","
","
","""event"",""trial"",""time""
""fullscreenenter"",""5"",""13243""
","
",NA,NA,NA,NA,NA,NA,NA,NA,NA,NA,NA,NA,NA,NA,NA,NA,NA,NA,NA,NA,NA,NA,sub7
d3-instructions,31,190684,0.0-31.0,TRUE,TRUE,FALSE,FALSE,"""event"",""trial"",""time""
""fullscreenenter"",""5"",""13243""
","
","
","""event"",""trial"",""time""
""fullscreenenter"",""5"",""13243""
","
",NA,NA,NA,NA,NA,NA,NA,NA,NA,NA,NA,NA,NA,NA,NA,NA,NA,NA,NA,NA,NA,NA,sub7
d3-instructions,32,201047,0.0-32.0,TRUE,TRUE,FALSE,FALSE,"""event"",""trial"",""time""
""fullscreenenter"",""5"",""13243""
","
","
","""event"",""trial"",""time""
""fullscreenenter"",""5"",""13243""
","
",NA,NA,NA,NA,NA,NA,NA,NA,NA,NA,NA,NA,NA,NA,NA,NA,NA,NA,NA,NA,NA,NA,sub7
d3-instructions,33,211166,0.0-33.0,TRUE,TRUE,FALSE,FALSE,"""event"",""trial"",""time""
""fullscreenenter"",""5"",""13243""
","
","
","""event"",""trial"",""time""
""fullscreenenter"",""5"",""13243""
","
",NA,NA,NA,NA,NA,NA,NA,NA,NA,NA,NA,NA,NA,NA,NA,NA,NA,NA,NA,NA,NA,NA,sub7
d3-animate-choice,34,214886,0.0-34.0,TRUE,TRUE,FALSE,FALSE,"""event"",""trial"",""time""
""fullscreenenter"",""5"",""13243""
","
","
","""event"",""trial"",""time""
""fullscreenenter"",""5"",""13243""
","
",1717.6049999980023,NA,49,NA,NA,3000,1,NA,NA,images/tutgreenplanet.jpg,images/tutalien1,images/tutalien2,null,images/tutalien2,images/t.png,NA,practice,null,NA,NA,NA,NA,sub7
d3-animate-choice,35,217683,0.0-35.0,TRUE,TRUE,FALSE,FALSE,"""event"",""trial"",""time""
""fullscreenenter"",""5"",""13243""
","
","
","""event"",""trial"",""time""
""fullscreenenter"",""5"",""13243""
","
",793.1050000042887,NA,49,NA,NA,3000,1,NA,NA,images/tutgreenplanet.jpg,images/tutalien1,images/tutalien2,null,images/tutalien2,images/t.png,NA,practice,null,NA,NA,NA,NA,sub7
d3-animate-choice,36,220394,0.0-36.0,TRUE,TRUE,FALSE,FALSE,"""event"",""trial"",""time""
""fullscreenenter"",""5"",""13243""
","
","
","""event"",""trial"",""time""
""fullscreenenter"",""5"",""13243""
","
",704.79499999783,NA,49,NA,NA,3000,1,NA,NA,images/tutgreenplanet.jpg,images/tutalien1,images/tutalien2,null,images/tutalien2,images/t.png,NA,practice,null,NA,NA,NA,NA,sub7
d3-animate-choice,37,223018,0.0-37.0,TRUE,TRUE,FALSE,FALSE,"""event"",""trial"",""time""
""fullscreenenter"",""5"",""13243""
","
","
","""event"",""trial"",""time""
""fullscreenenter"",""5"",""13243""
","
",618.5649999970337,NA,49,NA,NA,3000,1,NA,NA,images/tutgreenplanet.jpg,images/tutalien1,images/tutalien2,null,images/tutalien2,images/t.png,NA,practice,null,NA,NA,NA,NA,sub7
d3-animate-choice,38,225619,0.0-38.0,TRUE,TRUE,FALSE,FALSE,"""event"",""trial"",""time""
""fullscreenenter"",""5"",""13243""
","
","
","""event"",""trial"",""time""
""fullscreenenter"",""5"",""13243""
","
",594.4149999995716,NA,49,NA,NA,3000,1,NA,NA,images/tutgreenplanet.jpg,images/tutalien1,images/tutalien2,null,images/tutalien2,images/t.png,NA,practice,null,NA,NA,NA,NA,sub7
d3-animate-choice,39,228242,0.0-39.0,TRUE,TRUE,FALSE,FALSE,"""event"",""trial"",""time""
""fullscreenenter"",""5"",""13243""
","
","
","""event"",""trial"",""time""
""fullscreenenter"",""5"",""13243""
","
",617.3649999982445,NA,49,NA,NA,3000,1,NA,NA,images/tutgreenplanet.jpg,images/tutalien1,images/tutalien2,null,images/tutalien2,images/t.png,NA,practice,null,NA,NA,NA,NA,sub7
d3-animate-choice,40,230715,0.0-40.0,TRUE,TRUE,FALSE,FALSE,"""event"",""trial"",""time""
""fullscreenenter"",""5"",""13243""
","
","
","""event"",""trial"",""time""
""fullscreenenter"",""5"",""13243""
","
",467.92500000447035,NA,49,NA,NA,3000,1,NA,NA,images/tutgreenplanet.jpg,images/tutalien1,images/tutalien2,null,images/tutalien2,images/t.png,NA,practice,null,NA,NA,NA,NA,sub7
d3-animate-choice,41,233252,0.0-41.0,TRUE,TRUE,FALSE,FALSE,"""event"",""trial"",""time""
""fullscreenenter"",""5"",""13243""
","
","
","""event"",""trial"",""time""
""fullscreenenter"",""5"",""13243""
","
",534.364999999525,NA,49,NA,NA,3000,1,NA,NA,images/tutgreenplanet.jpg,images/tutalien1,images/tutalien2,null,images/tutalien2,images/t.png,NA,practice,null,NA,NA,NA,NA,sub7
d3-animate-choice,42,235807,0.0-42.0,TRUE,TRUE,FALSE,FALSE,"""event"",""trial"",""time""
""fullscreenenter"",""5"",""13243""
","
","
","""event"",""trial"",""time""
""fullscreenenter"",""5"",""13243""
","
",548.2049999991432,NA,48,NA,NA,3000,1,NA,NA,images/tutgreenplanet.jpg,images/tutalien1,images/tutalien2,null,images/tutalien1,images/nothing.png,NA,practice,null,NA,NA,NA,NA,sub7
d3-animate-choice,43,238245,0.0-43.0,TRUE,TRUE,FALSE,FALSE,"""event"",""trial"",""time""
""fullscreenenter"",""5"",""13243""
","
","
","""event"",""trial"",""time""
""fullscreenenter"",""5"",""13243""
","
",432.73000000044703,NA,48,NA,NA,3000,1,NA,NA,images/tutgreenplanet.jpg,images/tutalien1,images/tutalien2,null,images/tutalien1,images/nothing.png,NA,practice,null,NA,NA,NA,NA,sub7
d3-instructions,44,252450,0.0-44.0,TRUE,TRUE,FALSE,FALSE,"""event"",""trial"",""time""
""fullscreenenter"",""5"",""13243""
","
","
","""event"",""trial"",""time""
""fullscreenenter"",""5"",""13243""
","
",NA,NA,NA,NA,NA,NA,NA,NA,NA,NA,NA,NA,NA,NA,NA,NA,NA,NA,NA,NA,NA,NA,sub7
d3-instructions,45,258987,0.0-45.0,TRUE,TRUE,FALSE,FALSE,"""event"",""trial"",""time""
""fullscreenenter"",""5"",""13243""
","
","
","""event"",""trial"",""time""
""fullscreenenter"",""5"",""13243""
","
",NA,NA,NA,NA,NA,NA,NA,NA,NA,NA,NA,NA,NA,NA,NA,NA,NA,NA,NA,NA,NA,NA,sub7
d3-instructions,46,265129,0.0-46.0,TRUE,TRUE,FALSE,FALSE,"""event"",""trial"",""time""
""fullscreenenter"",""5"",""13243""
","
","
","""event"",""trial"",""time""
""fullscreenenter"",""5"",""13243""
","
",NA,NA,NA,NA,NA,NA,NA,NA,NA,NA,NA,NA,NA,NA,NA,NA,NA,NA,NA,NA,NA,NA,sub7
d3-instructions,47,281993,0.0-47.0,TRUE,TRUE,FALSE,FALSE,"""event"",""trial"",""time""
""fullscreenenter"",""5"",""13243""
","
","
","""event"",""trial"",""time""
""fullscreenenter"",""5"",""13243""
","
",NA,NA,NA,NA,NA,NA,NA,NA,NA,NA,NA,NA,NA,NA,NA,NA,NA,NA,NA,NA,NA,NA,sub7
d3-instructions,48,288226,0.0-48.0,TRUE,TRUE,FALSE,FALSE,"""event"",""trial"",""time""
""fullscreenenter"",""5"",""13243""
","
","
","""event"",""trial"",""time""
""fullscreenenter"",""5"",""13243""
","
",NA,NA,NA,NA,NA,NA,NA,NA,NA,NA,NA,NA,NA,NA,NA,NA,NA,NA,NA,NA,NA,NA,sub7
d3-instructions,49,295567,0.0-49.0,TRUE,TRUE,FALSE,FALSE,"""event"",""trial"",""time""
""fullscreenenter"",""5"",""13243""
","
","
","""event"",""trial"",""time""
""fullscreenenter"",""5"",""13243""
","
",NA,NA,NA,NA,NA,NA,NA,NA,NA,NA,NA,NA,NA,NA,NA,NA,NA,NA,NA,NA,NA,NA,sub7
d3-instructions,50,305208,0.0-50.0,TRUE,TRUE,FALSE,FALSE,"""event"",""trial"",""time""
""fullscreenenter"",""5"",""13243""
","
","
","""event"",""trial"",""time""
""fullscreenenter"",""5"",""13243""
","
",NA,NA,NA,NA,NA,NA,NA,NA,NA,NA,NA,NA,NA,NA,NA,NA,NA,NA,NA,NA,NA,NA,sub7
d3-instructions,51,308105,0.0-51.0,TRUE,TRUE,FALSE,FALSE,"""event"",""trial"",""time""
""fullscreenenter"",""5"",""13243""
","
","
","""event"",""trial"",""time""
""fullscreenenter"",""5"",""13243""
","
",NA,NA,NA,NA,NA,NA,NA,NA,NA,NA,NA,NA,NA,NA,NA,NA,NA,NA,NA,NA,NA,NA,sub7
d3-instructions,52,310641,0.0-52.0,TRUE,TRUE,FALSE,FALSE,"""event"",""trial"",""time""
""fullscreenenter"",""5"",""13243""
","
","
","""event"",""trial"",""time""
""fullscreenenter"",""5"",""13243""
","
",NA,NA,NA,NA,NA,NA,NA,NA,NA,NA,NA,NA,NA,NA,NA,NA,NA,NA,NA,NA,NA,NA,sub7
d3-instructions,53,317275,0.0-53.0,TRUE,TRUE,FALSE,FALSE,"""event"",""trial"",""time""
""fullscreenenter"",""5"",""13243""
","
","
","""event"",""trial"",""time""
""fullscreenenter"",""5"",""13243""
","
",NA,NA,NA,NA,NA,NA,NA,NA,NA,NA,NA,NA,NA,NA,NA,NA,NA,NA,NA,NA,NA,NA,sub7
d3-instructions,54,329392,0.0-54.0,TRUE,TRUE,FALSE,FALSE,"""event"",""trial"",""time""
""fullscreenenter"",""5"",""13243""
","
","
","""event"",""trial"",""time""
""fullscreenenter"",""5"",""13243""
","
",NA,NA,NA,NA,NA,NA,NA,NA,NA,NA,NA,NA,NA,NA,NA,NA,NA,NA,NA,NA,NA,NA,sub7
d3-instructions,55,339451,0.0-55.0,TRUE,TRUE,FALSE,FALSE,"""event"",""trial"",""time""
""fullscreenenter"",""5"",""13243""
","
","
","""event"",""trial"",""time""
""fullscreenenter"",""5"",""13243""
","
",NA,NA,NA,NA,NA,NA,NA,NA,NA,NA,NA,NA,NA,NA,NA,NA,NA,NA,NA,NA,NA,NA,sub7
d3-instructions,56,347990,0.0-56.0,TRUE,TRUE,FALSE,FALSE,"""event"",""trial"",""time""
""fullscreenenter"",""5"",""13243""
","
","
","""event"",""trial"",""time""
""fullscreenenter"",""5"",""13243""
","
",NA,NA,NA,NA,NA,NA,NA,NA,NA,NA,NA,NA,NA,NA,NA,NA,NA,NA,NA,NA,NA,NA,sub7
d3-instructions,57,357845,0.0-57.0,TRUE,TRUE,FALSE,FALSE,"""event"",""trial"",""time""
""fullscreenenter"",""5"",""13243""
","
","
","""event"",""trial"",""time""
""fullscreenenter"",""5"",""13243""
","
",NA,NA,NA,NA,NA,NA,NA,NA,NA,NA,NA,NA,NA,NA,NA,NA,NA,NA,NA,NA,NA,NA,sub7
d3-instructions,58,367949,0.0-58.0,TRUE,TRUE,FALSE,FALSE,"""event"",""trial"",""time""
""fullscreenenter"",""5"",""13243""
","
","
","""event"",""trial"",""time""
""fullscreenenter"",""5"",""13243""
","
",NA,NA,NA,NA,NA,NA,NA,NA,NA,NA,NA,NA,NA,NA,NA,NA,NA,NA,NA,NA,NA,NA,sub7
d3-instructions,59,372424,0.0-59.0,TRUE,TRUE,FALSE,FALSE,"""event"",""trial"",""time""
""fullscreenenter"",""5"",""13243""
","
","
","""event"",""trial"",""time""
""fullscreenenter"",""5"",""13243""
","
",NA,NA,NA,NA,NA,NA,NA,NA,NA,NA,NA,NA,NA,NA,NA,NA,NA,NA,NA,NA,NA,NA,sub7
d3-instructions,60,376833,0.0-60.0,TRUE,TRUE,FALSE,FALSE,"""event"",""trial"",""time""
""fullscreenenter"",""5"",""13243""
","
","
","""event"",""trial"",""time""
""fullscreenenter"",""5"",""13243""
","
",NA,NA,NA,NA,NA,NA,NA,NA,NA,NA,NA,NA,NA,NA,NA,NA,NA,NA,NA,NA,NA,NA,sub7
d3-animate-choice,61,379684,0.0-61.0-0.0,TRUE,TRUE,FALSE,FALSE,"""event"",""trial"",""time""
""fullscreenenter"",""5"",""13243""
","
","
","""event"",""trial"",""time""
""fullscreenenter"",""5"",""13243""
","
",848.5949999885634,NA,49,NA,NA,3000,1,NA,NA,images/earth.jpg,images/tutrocket1,images/tutrocket2,null,images/tutrocket2,NA,1,practice,null,1,NA,NA,NA,sub7
d3-animate-choice,62,383103,0.0-61.0-1.0,TRUE,TRUE,FALSE,FALSE,"""event"",""trial"",""time""
""fullscreenenter"",""5"",""13243""
","
","
","""event"",""trial"",""time""
""fullscreenenter"",""5"",""13243""
","
",1413.5150000074646,NA,48,NA,NA,3000,1,NA,NA,images/tutyellowplanet.jpg,images/tutalien4,images/tutalien3,images/tutrocket2,images/tutalien4,images/nothing.png,2,practice,true,2,common,0,2020-06-12T19:34:43Z,sub7
two-step-fixation,63,384110,0.0-61.0-2.0,TRUE,TRUE,FALSE,FALSE,"""event"",""trial"",""time""
""fullscreenenter"",""5"",""13243""
","
","
","""event"",""trial"",""time""
""fullscreenenter"",""5"",""13243""
","
",NA,images/earth.jpg,NA,NA,NA,NA,NA,NA,NA,NA,NA,NA,NA,NA,NA,fixation,NA,NA,NA,NA,NA,NA,sub7
d3-animate-choice,64,387281,0.0-61.0-0.1,TRUE,TRUE,FALSE,FALSE,"""event"",""trial"",""time""
""fullscreenenter"",""5"",""13243""
","
","
","""event"",""trial"",""time""
""fullscreenenter"",""5"",""13243""
","
",1164.14999999688,NA,48,NA,NA,3000,1,NA,NA,images/earth.jpg,images/tutrocket1,images/tutrocket2,null,images/tutrocket1,NA,1,practice,null,2,NA,NA,NA,sub7
d3-animate-choice,65,390221,0.0-61.0-1.1,TRUE,TRUE,FALSE,FALSE,"""event"",""trial"",""time""
""fullscreenenter"",""5"",""13243""
","
","
","""event"",""trial"",""time""
""fullscreenenter"",""5"",""13243""
","
",937.5999999901978,NA,49,NA,NA,3000,1,NA,NA,images/tutgreenplanet.jpg,images/tutalien2,images/tutalien1,images/tutrocket1,images/tutalien1,images/nothing.png,2,practice,true,1,common,0,2020-06-12T19:34:50Z,sub7
two-step-fixation,66,391225,0.0-61.0-2.1,TRUE,TRUE,FALSE,FALSE,"""event"",""trial"",""time""
""fullscreenenter"",""5"",""13243""
","
","
","""event"",""trial"",""time""
""fullscreenenter"",""5"",""13243""
","
",NA,images/earth.jpg,NA,NA,NA,NA,NA,NA,NA,NA,NA,NA,NA,NA,NA,fixation,NA,NA,NA,NA,NA,NA,sub7
d3-animate-choice,67,393634,0.0-61.0-0.2,TRUE,TRUE,FALSE,FALSE,"""event"",""trial"",""time""
""fullscreenenter"",""5"",""13243""
","
","
","""event"",""trial"",""time""
""fullscreenenter"",""5"",""13243""
","
",405.7699999975739,NA,48,NA,NA,3000,1,NA,NA,images/earth.jpg,images/tutrocket1,images/tutrocket2,null,images/tutrocket1,NA,1,practice,null,2,NA,NA,NA,sub7
d3-animate-choice,68,396026,0.0-61.0-1.2,TRUE,TRUE,FALSE,FALSE,"""event"",""trial"",""time""
""fullscreenenter"",""5"",""13243""
","
","
","""event"",""trial"",""time""
""fullscreenenter"",""5"",""13243""
","
",386.8649999931222,NA,48,NA,NA,3000,1,NA,NA,images/tutgreenplanet.jpg,images/tutalien2,images/tutalien1,images/tutrocket1,images/tutalien2,images/t.png,2,practice,true,2,common,1,2020-06-12T19:34:56Z,sub7
two-step-fixation,69,397031,0.0-61.0-2.2,TRUE,TRUE,FALSE,FALSE,"""event"",""trial"",""time""
""fullscreenenter"",""5"",""13243""
","
","
","""event"",""trial"",""time""
""fullscreenenter"",""5"",""13243""
","
",NA,images/earth.jpg,NA,NA,NA,NA,NA,NA,NA,NA,NA,NA,NA,NA,NA,fixation,NA,NA,NA,NA,NA,NA,sub7
d3-animate-choice,70,399364,0.0-61.0-0.3,TRUE,TRUE,FALSE,FALSE,"""event"",""trial"",""time""
""fullscreenenter"",""5"",""13243""
","
","
","""event"",""trial"",""time""
""fullscreenenter"",""5"",""13243""
","
",329.16999999724794,NA,48,NA,NA,3000,1,NA,NA,images/earth.jpg,images/tutrocket1,images/tutrocket2,null,images/tutrocket1,NA,1,practice,null,2,NA,NA,NA,sub7
d3-animate-choice,71,401987,0.0-61.0-1.3,TRUE,TRUE,FALSE,FALSE,"""event"",""trial"",""time""
""fullscreenenter"",""5"",""13243""
","
","
","""event"",""trial"",""time""
""fullscreenenter"",""5"",""13243""
","
",617.7850000094622,NA,48,NA,NA,3000,1,NA,NA,images/tutyellowplanet.jpg,images/tutalien4,images/tutalien3,images/tutrocket1,images/tutalien4,images/nothing.png,2,practice,false,2,rare,0,2020-06-12T19:35:02Z,sub7
two-step-fixation,72,402991,0.0-61.0-2.3,TRUE,TRUE,FALSE,FALSE,"""event"",""trial"",""time""
""fullscreenenter"",""5"",""13243""
","
","
","""event"",""trial"",""time""
""fullscreenenter"",""5"",""13243""
","
",NA,images/earth.jpg,NA,NA,NA,NA,NA,NA,NA,NA,NA,NA,NA,NA,NA,fixation,NA,NA,NA,NA,NA,NA,sub7
d3-animate-choice,73,405814,0.0-61.0-0.4,TRUE,TRUE,FALSE,FALSE,"""event"",""trial"",""time""
""fullscreenenter"",""5"",""13243""
","
","
","""event"",""trial"",""time""
""fullscreenenter"",""5"",""13243""
","
",819.7450000006938,NA,48,NA,NA,3000,1,NA,NA,images/earth.jpg,images/tutrocket1,images/tutrocket2,null,images/tutrocket1,NA,1,practice,null,2,NA,NA,NA,sub7
d3-animate-choice,74,408600,0.0-61.0-1.4,TRUE,TRUE,FALSE,FALSE,"""event"",""trial"",""time""
""fullscreenenter"",""5"",""13243""
","
","
","""event"",""trial"",""time""
""fullscreenenter"",""5"",""13243""
","
",781.0699999972712,NA,48,NA,NA,3000,1,NA,NA,images/tutgreenplanet.jpg,images/tutalien2,images/tutalien1,images/tutrocket1,images/tutalien2,images/nothing.png,2,practice,true,2,common,0,2020-06-12T19:35:08Z,sub7
two-step-fixation,75,409606,0.0-61.0-2.4,TRUE,TRUE,FALSE,FALSE,"""event"",""trial"",""time""
""fullscreenenter"",""5"",""13243""
","
","
","""event"",""trial"",""time""
""fullscreenenter"",""5"",""13243""
","
",NA,images/earth.jpg,NA,NA,NA,NA,NA,NA,NA,NA,NA,NA,NA,NA,NA,fixation,NA,NA,NA,NA,NA,NA,sub7
d3-animate-choice,76,411924,0.0-61.0-0.5,TRUE,TRUE,FALSE,FALSE,"""event"",""trial"",""time""
""fullscreenenter"",""5"",""13243""
","
","
","""event"",""trial"",""time""
""fullscreenenter"",""5"",""13243""
","
",312.25000000267755,NA,49,NA,NA,3000,1,NA,NA,images/earth.jpg,images/tutrocket1,images/tutrocket2,null,images/tutrocket2,NA,1,practice,null,1,NA,NA,NA,sub7
d3-animate-choice,77,414304,0.0-61.0-1.5,TRUE,TRUE,FALSE,FALSE,"""event"",""trial"",""time""
""fullscreenenter"",""5"",""13243""
","
","
","""event"",""trial"",""time""
""fullscreenenter"",""5"",""13243""
","
",371.9950000086101,NA,49,NA,NA,3000,1,NA,NA,images/tutgreenplanet.jpg,images/tutalien2,images/tutalien1,images/tutrocket2,images/tutalien1,images/nothing.png,2,practice,false,1,rare,0,2020-06-12T19:35:14Z,sub7
two-step-fixation,78,415312,0.0-61.0-2.5,TRUE,TRUE,FALSE,FALSE,"""event"",""trial"",""time""
""fullscreenenter"",""5"",""13243""
","
","
","""event"",""trial"",""time""
""fullscreenenter"",""5"",""13243""
","
",NA,images/earth.jpg,NA,NA,NA,NA,NA,NA,NA,NA,NA,NA,NA,NA,NA,fixation,NA,NA,NA,NA,NA,NA,sub7
d3-animate-choice,79,418295,0.0-61.0-0.6,TRUE,TRUE,FALSE,FALSE,"""event"",""trial"",""time""
""fullscreenenter"",""5"",""13243""
","
","
","""event"",""trial"",""time""
""fullscreenenter"",""5"",""13243""
","
",973.2999999978347,NA,48,NA,NA,3000,1,NA,NA,images/earth.jpg,images/tutrocket1,images/tutrocket2,null,images/tutrocket1,NA,1,practice,null,2,NA,NA,NA,sub7
d3-animate-choice,80,421198,0.0-61.0-1.6,TRUE,TRUE,FALSE,FALSE,"""event"",""trial"",""time""
""fullscreenenter"",""5"",""13243""
","
","
","""event"",""trial"",""time""
""fullscreenenter"",""5"",""13243""
","
",894.8049999889918,NA,48,NA,NA,3000,1,NA,NA,images/tutgreenplanet.jpg,images/tutalien2,images/tutalien1,images/tutrocket1,images/tutalien2,images/nothing.png,2,practice,true,2,common,0,2020-06-12T19:35:21Z,sub7
two-step-fixation,81,422207,0.0-61.0-2.6,TRUE,TRUE,FALSE,FALSE,"""event"",""trial"",""time""
""fullscreenenter"",""5"",""13243""
","
","
","""event"",""trial"",""time""
""fullscreenenter"",""5"",""13243""
","
",NA,images/earth.jpg,NA,NA,NA,NA,NA,NA,NA,NA,NA,NA,NA,NA,NA,fixation,NA,NA,NA,NA,NA,NA,sub7
d3-animate-choice,82,424761,0.0-61.0-0.7,TRUE,TRUE,FALSE,FALSE,"""event"",""trial"",""time""
""fullscreenenter"",""5"",""13243""
","
","
","""event"",""trial"",""time""
""fullscreenenter"",""5"",""13243""
","
",545.1199999952223,NA,49,NA,NA,3000,1,NA,NA,images/earth.jpg,images/tutrocket1,images/tutrocket2,null,images/tutrocket2,NA,1,practice,null,1,NA,NA,NA,sub7
d3-animate-choice,83,427934,0.0-61.0-1.7,TRUE,TRUE,FALSE,FALSE,"""event"",""trial"",""time""
""fullscreenenter"",""5"",""13243""
","
","
","""event"",""trial"",""time""
""fullscreenenter"",""5"",""13243""
","
",1168.1300000054762,NA,49,NA,NA,3000,1,NA,NA,images/tutyellowplanet.jpg,images/tutalien4,images/tutalien3,images/tutrocket2,images/tutalien3,images/nothing.png,2,practice,true,1,common,0,2020-06-12T19:35:28Z,sub7
two-step-fixation,84,428939,0.0-61.0-2.7,TRUE,TRUE,FALSE,FALSE,"""event"",""trial"",""time""
""fullscreenenter"",""5"",""13243""
","
","
","""event"",""trial"",""time""
""fullscreenenter"",""5"",""13243""
","
",NA,images/earth.jpg,NA,NA,NA,NA,NA,NA,NA,NA,NA,NA,NA,NA,NA,fixation,NA,NA,NA,NA,NA,NA,sub7
d3-animate-choice,85,431418,0.0-61.0-0.8,TRUE,TRUE,FALSE,FALSE,"""event"",""trial"",""time""
""fullscreenenter"",""5"",""13243""
","
","
","""event"",""trial"",""time""
""fullscreenenter"",""5"",""13243""
","
",470.0899999879766,NA,49,NA,NA,3000,1,NA,NA,images/earth.jpg,images/tutrocket1,images/tutrocket2,null,images/tutrocket2,NA,1,practice,null,1,NA,NA,NA,sub7
d3-animate-choice,86,434126,0.0-61.0-1.8,TRUE,TRUE,FALSE,FALSE,"""event"",""trial"",""time""
""fullscreenenter"",""5"",""13243""
","
","
","""event"",""trial"",""time""
""fullscreenenter"",""5"",""13243""
","
",703.1349999888334,NA,49,NA,NA,3000,1,NA,NA,images/tutyellowplanet.jpg,images/tutalien4,images/tutalien3,images/tutrocket2,images/tutalien3,images/nothing.png,2,practice,true,1,common,0,2020-06-12T19:35:34Z,sub7
two-step-fixation,87,435132,0.0-61.0-2.8,TRUE,TRUE,FALSE,FALSE,"""event"",""trial"",""time""
""fullscreenenter"",""5"",""13243""
","
","
","""event"",""trial"",""time""
""fullscreenenter"",""5"",""13243""
","
",NA,images/earth.jpg,NA,NA,NA,NA,NA,NA,NA,NA,NA,NA,NA,NA,NA,fixation,NA,NA,NA,NA,NA,NA,sub7
d3-animate-choice,88,437939,0.0-61.0-0.9,TRUE,TRUE,FALSE,FALSE,"""event"",""trial"",""time""
""fullscreenenter"",""5"",""13243""
","
","
","""event"",""trial"",""time""
""fullscreenenter"",""5"",""13243""
","
",801.9550000026356,NA,48,NA,NA,3000,1,NA,NA,images/earth.jpg,images/tutrocket1,images/tutrocket2,null,images/tutrocket1,NA,1,practice,null,2,NA,NA,NA,sub7
d3-animate-choice,89,441061,0.0-61.0-1.9,TRUE,TRUE,FALSE,FALSE,"""event"",""trial"",""time""
""fullscreenenter"",""5"",""13243""
","
","
","""event"",""trial"",""time""
""fullscreenenter"",""5"",""13243""
","
",1113.6750000005122,NA,48,NA,NA,3000,1,NA,NA,images/tutgreenplanet.jpg,images/tutalien2,images/tutalien1,images/tutrocket1,images/tutalien2,images/nothing.png,2,practice,true,2,common,0,2020-06-12T19:35:41Z,sub7
two-step-fixation,90,442070,0.0-61.0-2.9,TRUE,TRUE,FALSE,FALSE,"""event"",""trial"",""time""
""fullscreenenter"",""5"",""13243""
","
","
","""event"",""trial"",""time""
""fullscreenenter"",""5"",""13243""
","
",NA,images/earth.jpg,NA,NA,NA,NA,NA,NA,NA,NA,NA,NA,NA,NA,NA,fixation,NA,NA,NA,NA,NA,NA,sub7
d3-animate-choice,91,445155,0.0-61.0-0.10,TRUE,TRUE,FALSE,FALSE,"""event"",""trial"",""time""
""fullscreenenter"",""5"",""13243""
","
","
","""event"",""trial"",""time""
""fullscreenenter"",""5"",""13243""
","
",1080.050000004121,NA,48,NA,NA,3000,1,NA,NA,images/earth.jpg,images/tutrocket1,images/tutrocket2,null,images/tutrocket1,NA,1,practice,null,2,NA,NA,NA,sub7
d3-animate-choice,92,448071,0.0-61.0-1.10,TRUE,TRUE,FALSE,FALSE,"""event"",""trial"",""time""
""fullscreenenter"",""5"",""13243""
","
","
","""event"",""trial"",""time""
""fullscreenenter"",""5"",""13243""
","
",911.6800000047078,NA,49,NA,NA,3000,1,NA,NA,images/tutgreenplanet.jpg,images/tutalien2,images/tutalien1,images/tutrocket1,images/tutalien1,images/nothing.png,2,practice,true,1,common,0,2020-06-12T19:35:48Z,sub7
two-step-fixation,93,449075,0.0-61.0-2.10,TRUE,TRUE,FALSE,FALSE,"""event"",""trial"",""time""
""fullscreenenter"",""5"",""13243""
","
","
","""event"",""trial"",""time""
""fullscreenenter"",""5"",""13243""
","
",NA,images/earth.jpg,NA,NA,NA,NA,NA,NA,NA,NA,NA,NA,NA,NA,NA,fixation,NA,NA,NA,NA,NA,NA,sub7
d3-animate-choice,94,451575,0.0-61.0-0.11,TRUE,TRUE,FALSE,FALSE,"""event"",""trial"",""time""
""fullscreenenter"",""5"",""13243""
","
","
","""event"",""trial"",""time""
""fullscreenenter"",""5"",""13243""
","
",495.16000000585336,NA,48,NA,NA,3000,1,NA,NA,images/earth.jpg,images/tutrocket1,images/tutrocket2,null,images/tutrocket1,NA,1,practice,null,2,NA,NA,NA,sub7
d3-animate-choice,95,454072,0.0-61.0-1.11,TRUE,TRUE,FALSE,FALSE,"""event"",""trial"",""time""
""fullscreenenter"",""5"",""13243""
","
","
","""event"",""trial"",""time""
""fullscreenenter"",""5"",""13243""
","
",494.2599999922095,NA,49,NA,NA,3000,1,NA,NA,images/tutgreenplanet.jpg,images/tutalien2,images/tutalien1,images/tutrocket1,images/tutalien1,images/nothing.png,2,practice,true,1,common,0,2020-06-12T19:35:54Z,sub7
two-step-fixation,96,455076,0.0-61.0-2.11,TRUE,TRUE,FALSE,FALSE,"""event"",""trial"",""time""
""fullscreenenter"",""5"",""13243""
","
","
","""event"",""trial"",""time""
""fullscreenenter"",""5"",""13243""
","
",NA,images/earth.jpg,NA,NA,NA,NA,NA,NA,NA,NA,NA,NA,NA,NA,NA,fixation,NA,NA,NA,NA,NA,NA,sub7
d3-animate-choice,97,457619,0.0-61.0-0.12,TRUE,TRUE,FALSE,FALSE,"""event"",""trial"",""time""
""fullscreenenter"",""5"",""13243""
","
","
","""event"",""trial"",""time""
""fullscreenenter"",""5"",""13243""
","
",537.624999997206,NA,49,NA,NA,3000,1,NA,NA,images/earth.jpg,images/tutrocket1,images/tutrocket2,null,images/tutrocket2,NA,1,practice,null,1,NA,NA,NA,sub7
d3-animate-choice,98,459986,0.0-61.0-1.12,TRUE,TRUE,FALSE,FALSE,"""event"",""trial"",""time""
""fullscreenenter"",""5"",""13243""
","
","
","""event"",""trial"",""time""
""fullscreenenter"",""5"",""13243""
","
",356.7699999985052,NA,49,NA,NA,3000,1,NA,NA,images/tutyellowplanet.jpg,images/tutalien4,images/tutalien3,images/tutrocket2,images/tutalien3,images/t.png,2,practice,true,1,common,1,2020-06-12T19:36:00Z,sub7
two-step-fixation,99,460991,0.0-61.0-2.12,TRUE,TRUE,FALSE,FALSE,"""event"",""trial"",""time""
""fullscreenenter"",""5"",""13243""
","
","
","""event"",""trial"",""time""
""fullscreenenter"",""5"",""13243""
","
",NA,images/earth.jpg,NA,NA,NA,NA,NA,NA,NA,NA,NA,NA,NA,NA,NA,fixation,NA,NA,NA,NA,NA,NA,sub7
d3-animate-choice,100,463541,0.0-61.0-0.13,TRUE,TRUE,FALSE,FALSE,"""event"",""trial"",""time""
""fullscreenenter"",""5"",""13243""
","
","
","""event"",""trial"",""time""
""fullscreenenter"",""5"",""13243""
","
",545.6300000078045,NA,48,NA,NA,3000,1,NA,NA,images/earth.jpg,images/tutrocket1,images/tutrocket2,null,images/tutrocket1,NA,1,practice,null,2,NA,NA,NA,sub7
d3-animate-choice,101,466716,0.0-61.0-1.13,TRUE,TRUE,FALSE,FALSE,"""event"",""trial"",""time""
""fullscreenenter"",""5"",""13243""
","
","
","""event"",""trial"",""time""
""fullscreenenter"",""5"",""13243""
","
",1164.810000002035,NA,49,NA,NA,3000,1,NA,NA,images/tutyellowplanet.jpg,images/tutalien4,images/tutalien3,images/tutrocket1,images/tutalien3,images/t.png,2,practice,false,1,rare,1,2020-06-12T19:36:06Z,sub7
two-step-fixation,102,467720,0.0-61.0-2.13,TRUE,TRUE,FALSE,FALSE,"""event"",""trial"",""time""
""fullscreenenter"",""5"",""13243""
","
","
","""event"",""trial"",""time""
""fullscreenenter"",""5"",""13243""
","
",NA,images/earth.jpg,NA,NA,NA,NA,NA,NA,NA,NA,NA,NA,NA,NA,NA,fixation,NA,NA,NA,NA,NA,NA,sub7
d3-animate-choice,103,470307,0.0-61.0-0.14,TRUE,TRUE,FALSE,FALSE,"""event"",""trial"",""time""
""fullscreenenter"",""5"",""13243""
","
","
","""event"",""trial"",""time""
""fullscreenenter"",""5"",""13243""
","
",579.7849999944447,NA,48,NA,NA,3000,1,NA,NA,images/earth.jpg,images/tutrocket1,images/tutrocket2,null,images/tutrocket1,NA,1,practice,null,2,NA,NA,NA,sub7
d3-animate-choice,104,472986,0.0-61.0-1.14,TRUE,TRUE,FALSE,FALSE,"""event"",""trial"",""time""
""fullscreenenter"",""5"",""13243""
","
","
","""event"",""trial"",""time""
""fullscreenenter"",""5"",""13243""
","
",669.739999997546,NA,49,NA,NA,3000,1,NA,NA,images/tutgreenplanet.jpg,images/tutalien2,images/tutalien1,images/tutrocket1,images/tutalien1,images/nothing.png,2,practice,true,1,common,0,2020-06-12T19:36:13Z,sub7
two-step-fixation,105,473989,0.0-61.0-2.14,TRUE,TRUE,FALSE,FALSE,"""event"",""trial"",""time""
""fullscreenenter"",""5"",""13243""
","
","
","""event"",""trial"",""time""
""fullscreenenter"",""5"",""13243""
","
",NA,images/earth.jpg,NA,NA,NA,NA,NA,NA,NA,NA,NA,NA,NA,NA,NA,fixation,NA,NA,NA,NA,NA,NA,sub7
d3-animate-choice,106,476288,0.0-61.0-0.15,TRUE,TRUE,FALSE,FALSE,"""event"",""trial"",""time""
""fullscreenenter"",""5"",""13243""
","
","
","""event"",""trial"",""time""
""fullscreenenter"",""5"",""13243""
","
",289.23500000382774,NA,49,NA,NA,3000,1,NA,NA,images/earth.jpg,images/tutrocket1,images/tutrocket2,null,images/tutrocket2,NA,1,practice,null,1,NA,NA,NA,sub7
d3-animate-choice,107,478791,0.0-61.0-1.15,TRUE,TRUE,FALSE,FALSE,"""event"",""trial"",""time""
""fullscreenenter"",""5"",""13243""
","
","
","""event"",""trial"",""time""
""fullscreenenter"",""5"",""13243""
","
",494.684999997844,NA,48,NA,NA,3000,1,NA,NA,images/tutyellowplanet.jpg,images/tutalien4,images/tutalien3,images/tutrocket2,images/tutalien4,images/t.png,2,practice,true,2,common,1,2020-06-12T19:36:19Z,sub7
two-step-fixation,108,479795,0.0-61.0-2.15,TRUE,TRUE,FALSE,FALSE,"""event"",""trial"",""time""
""fullscreenenter"",""5"",""13243""
","
","
","""event"",""trial"",""time""
""fullscreenenter"",""5"",""13243""
","
",NA,images/earth.jpg,NA,NA,NA,NA,NA,NA,NA,NA,NA,NA,NA,NA,NA,fixation,NA,NA,NA,NA,NA,NA,sub7
d3-animate-choice,109,482299,0.0-61.0-0.16,TRUE,TRUE,FALSE,FALSE,"""event"",""trial"",""time""
""fullscreenenter"",""5"",""13243""
","
","
","""event"",""trial"",""time""
""fullscreenenter"",""5"",""13243""
","
",499.28499999805354,NA,49,NA,NA,3000,1,NA,NA,images/earth.jpg,images/tutrocket1,images/tutrocket2,null,images/tutrocket2,NA,1,practice,null,1,NA,NA,NA,sub7
d3-animate-choice,110,485623,0.0-61.0-1.16,TRUE,TRUE,FALSE,FALSE,"""event"",""trial"",""time""
""fullscreenenter"",""5"",""13243""
","
","
","""event"",""trial"",""time""
""fullscreenenter"",""5"",""13243""
","
",1315.7400000054622,NA,48,NA,NA,3000,1,NA,NA,images/tutgreenplanet.jpg,images/tutalien2,images/tutalien1,images/tutrocket2,images/tutalien2,images/t.png,2,practice,false,2,rare,1,2020-06-12T19:36:25Z,sub7
two-step-fixation,111,486632,0.0-61.0-2.16,TRUE,TRUE,FALSE,FALSE,"""event"",""trial"",""time""
""fullscreenenter"",""5"",""13243""
","
","
","""event"",""trial"",""time""
""fullscreenenter"",""5"",""13243""
","
",NA,images/earth.jpg,NA,NA,NA,NA,NA,NA,NA,NA,NA,NA,NA,NA,NA,fixation,NA,NA,NA,NA,NA,NA,sub7
d3-animate-choice,112,489123,0.0-61.0-0.17,TRUE,TRUE,FALSE,FALSE,"""event"",""trial"",""time""
""fullscreenenter"",""5"",""13243""
","
","
","""event"",""trial"",""time""
""fullscreenenter"",""5"",""13243""
","
",484.5750000094995,NA,48,NA,NA,3000,1,NA,NA,images/earth.jpg,images/tutrocket1,images/tutrocket2,null,images/tutrocket1,NA,1,practice,null,2,NA,NA,NA,sub7
d3-animate-choice,113,491573,0.0-61.0-1.17,TRUE,TRUE,FALSE,FALSE,"""event"",""trial"",""time""
""fullscreenenter"",""5"",""13243""
","
","
","""event"",""trial"",""time""
""fullscreenenter"",""5"",""13243""
","
",440.8850000036182,NA,49,NA,NA,3000,1,NA,NA,images/tutgreenplanet.jpg,images/tutalien2,images/tutalien1,images/tutrocket1,images/tutalien1,images/t.png,2,practice,true,1,common,1,2020-06-12T19:36:31Z,sub7
two-step-fixation,114,492577,0.0-61.0-2.17,TRUE,TRUE,FALSE,FALSE,"""event"",""trial"",""time""
""fullscreenenter"",""5"",""13243""
","
","
","""event"",""trial"",""time""
""fullscreenenter"",""5"",""13243""
","
",NA,images/earth.jpg,NA,NA,NA,NA,NA,NA,NA,NA,NA,NA,NA,NA,NA,fixation,NA,NA,NA,NA,NA,NA,sub7
d3-animate-choice,115,495066,0.0-61.0-0.18,TRUE,TRUE,FALSE,FALSE,"""event"",""trial"",""time""
""fullscreenenter"",""5"",""13243""
","
","
","""event"",""trial"",""time""
""fullscreenenter"",""5"",""13243""
","
",482.03499999362975,NA,49,NA,NA,3000,1,NA,NA,images/earth.jpg,images/tutrocket1,images/tutrocket2,null,images/tutrocket2,NA,1,practice,null,1,NA,NA,NA,sub7
d3-animate-choice,116,497924,0.0-61.0-1.18,TRUE,TRUE,FALSE,FALSE,"""event"",""trial"",""time""
""fullscreenenter"",""5"",""13243""
","
","
","""event"",""trial"",""time""
""fullscreenenter"",""5"",""13243""
","
",853.7199999991572,NA,48,NA,NA,3000,1,NA,NA,images/tutgreenplanet.jpg,images/tutalien2,images/tutalien1,images/tutrocket2,images/tutalien2,images/nothing.png,2,practice,false,2,rare,0,2020-06-12T19:36:38Z,sub7
two-step-fixation,117,498929,0.0-61.0-2.18,TRUE,TRUE,FALSE,FALSE,"""event"",""trial"",""time""
""fullscreenenter"",""5"",""13243""
","
","
","""event"",""trial"",""time""
""fullscreenenter"",""5"",""13243""
","
",NA,images/earth.jpg,NA,NA,NA,NA,NA,NA,NA,NA,NA,NA,NA,NA,NA,fixation,NA,NA,NA,NA,NA,NA,sub7
d3-animate-choice,118,501260,0.0-61.0-0.19,TRUE,TRUE,FALSE,FALSE,"""event"",""trial"",""time""
""fullscreenenter"",""5"",""13243""
","
","
","""event"",""trial"",""time""
""fullscreenenter"",""5"",""13243""
","
",326.6650000005029,NA,48,NA,NA,3000,1,NA,NA,images/earth.jpg,images/tutrocket1,images/tutrocket2,null,images/tutrocket1,NA,1,practice,null,2,NA,NA,NA,sub7
d3-animate-choice,119,503970,0.0-61.0-1.19,TRUE,TRUE,FALSE,FALSE,"""event"",""trial"",""time""
""fullscreenenter"",""5"",""13243""
","
","
","""event"",""trial"",""time""
""fullscreenenter"",""5"",""13243""
","
",703.9249999943422,NA,49,NA,NA,3000,1,NA,NA,images/tutgreenplanet.jpg,images/tutalien2,images/tutalien1,images/tutrocket1,images/tutalien1,images/t.png,2,practice,true,1,common,1,2020-06-12T19:36:44Z,sub7
two-step-fixation,120,504976,0.0-61.0-2.19,TRUE,TRUE,FALSE,FALSE,"""event"",""trial"",""time""
""fullscreenenter"",""5"",""13243""
","
","
","""event"",""trial"",""time""
""fullscreenenter"",""5"",""13243""
","
",NA,images/earth.jpg,NA,NA,NA,NA,NA,NA,NA,NA,NA,NA,NA,NA,NA,fixation,NA,NA,NA,NA,NA,NA,sub7
d3-instructions,121,508661,0.0-62.0,TRUE,TRUE,FALSE,FALSE,"""event"",""trial"",""time""
""fullscreenenter"",""5"",""13243""
","
","
","""event"",""trial"",""time""
""fullscreenenter"",""5"",""13243""
","
",NA,NA,NA,NA,NA,NA,NA,NA,NA,NA,NA,NA,NA,NA,NA,NA,NA,NA,NA,NA,NA,NA,sub7
audio-keyboard-response,122,511617,0.0-63.0,TRUE,TRUE,FALSE,FALSE,"""event"",""trial"",""time""
""fullscreenenter"",""5"",""13243""
","
","
","""event"",""trial"",""time""
""fullscreenenter"",""5"",""13243""
","
",2955,audio/instructions/treasure_feedback.wav,32,NA,NA,NA,NA,NA,NA,NA,NA,NA,NA,NA,NA,NA,NA,NA,NA,NA,NA,NA,sub7
d3-instructions,123,519556,0.0-64.0,TRUE,TRUE,FALSE,FALSE,"""event"",""trial"",""time""
""fullscreenenter"",""5"",""13243""
","
","
","""event"",""trial"",""time""
""fullscreenenter"",""5"",""13243""
","
",NA,NA,NA,NA,NA,NA,NA,NA,NA,NA,NA,NA,NA,NA,NA,NA,NA,NA,NA,NA,NA,NA,sub7
d3-instructions,124,527116,0.0-65.0,TRUE,TRUE,FALSE,FALSE,"""event"",""trial"",""time""
""fullscreenenter"",""5"",""13243""
","
","
","""event"",""trial"",""time""
""fullscreenenter"",""5"",""13243""
","
",NA,NA,NA,NA,NA,NA,NA,NA,NA,NA,NA,NA,NA,NA,NA,NA,NA,NA,NA,NA,NA,NA,sub7
d3-instructions,125,536362,0.0-66.0,TRUE,TRUE,FALSE,FALSE,"""event"",""trial"",""time""
""fullscreenenter"",""5"",""13243""
","
","
","""event"",""trial"",""time""
""fullscreenenter"",""5"",""13243""
","
",NA,NA,NA,NA,NA,NA,NA,NA,NA,NA,NA,NA,NA,NA,NA,NA,NA,NA,NA,NA,NA,NA,sub7
d3-instructions,126,545604,0.0-67.0,TRUE,TRUE,FALSE,FALSE,"""event"",""trial"",""time""
""fullscreenenter"",""5"",""13243""
","
","
","""event"",""trial"",""time""
""fullscreenenter"",""5"",""13243""
","
",NA,NA,NA,NA,NA,NA,NA,NA,NA,NA,NA,NA,NA,NA,NA,NA,NA,NA,NA,NA,NA,NA,sub7
d3-instructions,127,554141,0.0-68.0,TRUE,TRUE,FALSE,FALSE,"""event"",""trial"",""time""
""fullscreenenter"",""5"",""13243""
","
","
","""event"",""trial"",""time""
""fullscreenenter"",""5"",""13243""
","
",NA,NA,NA,NA,NA,NA,NA,NA,NA,NA,NA,NA,NA,NA,NA,NA,NA,NA,NA,NA,NA,NA,sub7
instructions-quiz,128,557056,0.0-69.0,TRUE,TRUE,FALSE,FALSE,"""event"",""trial"",""time""
""fullscreenenter"",""5"",""13243""
","
","
","""event"",""trial"",""time""
""fullscreenenter"",""5"",""13243""
","
",2914.0449999977136,audio/quiz/Q1_Prompt.wav,NA,1,NA,NA,NA,NA,NA,NA,NA,NA,NA,NA,NA,NA,NA,NA,NA,NA,NA,NA,sub7
audio-keyboard-response,129,559055,0.0-70.0,TRUE,TRUE,FALSE,FALSE,"""event"",""trial"",""time""
""fullscreenenter"",""5"",""13243""
","
","
","""event"",""trial"",""time""
""fullscreenenter"",""5"",""13243""
","
",1997,audio/quiz/Q1_Correct.wav,32,NA,NA,NA,NA,NA,NA,NA,NA,NA,NA,NA,NA,NA,NA,NA,NA,NA,NA,NA,sub7
instructions-quiz,130,563909,0.0-71.0,TRUE,TRUE,FALSE,FALSE,"""event"",""trial"",""time""
""fullscreenenter"",""5"",""13243""
","
","
","""event"",""trial"",""time""
""fullscreenenter"",""5"",""13243""
","
",4852.719999995315,audio/quiz/Q2_Prompt.wav,NA,0,NA,NA,NA,NA,NA,NA,NA,NA,NA,NA,NA,NA,NA,NA,NA,NA,NA,NA,sub7
audio-keyboard-response,131,565782,0.0-72.0,TRUE,TRUE,FALSE,FALSE,"""event"",""trial"",""time""
""fullscreenenter"",""5"",""13243""
","
","
","""event"",""trial"",""time""
""fullscreenenter"",""5"",""13243""
","
",1875,audio/quiz/Q2_Correct.wav,32,NA,NA,NA,NA,NA,NA,NA,NA,NA,NA,NA,NA,NA,NA,NA,NA,NA,NA,NA,sub7
instructions-quiz,132,568770,0.0-73.0,TRUE,TRUE,FALSE,FALSE,"""event"",""trial"",""time""
""fullscreenenter"",""5"",""13243""
","
","
","""event"",""trial"",""time""
""fullscreenenter"",""5"",""13243""
","
",2987.0150000060676,audio/quiz/Q3_Prompt.wav,NA,1,NA,NA,NA,NA,NA,NA,NA,NA,NA,NA,NA,NA,NA,NA,NA,NA,NA,NA,sub7
audio-keyboard-response,133,569320,0.0-74.0,TRUE,TRUE,FALSE,FALSE,"""event"",""trial"",""time""
""fullscreenenter"",""5"",""13243""
","
","
","""event"",""trial"",""time""
""fullscreenenter"",""5"",""13243""
","
",546,audio/quiz/Q3_Correct.wav,32,NA,NA,NA,NA,NA,NA,NA,NA,NA,NA,NA,NA,NA,NA,NA,NA,NA,NA,NA,sub7
d3-instructions,134,574225,0.0-75.0,TRUE,TRUE,FALSE,FALSE,"""event"",""trial"",""time""
""fullscreenenter"",""5"",""13243""
","
","
","""event"",""trial"",""time""
""fullscreenenter"",""5"",""13243""
","
",NA,NA,NA,NA,NA,NA,NA,NA,NA,NA,NA,NA,NA,NA,NA,NA,NA,NA,NA,NA,NA,NA,sub7
d3-animate-choice,135,577515,0.0-76.0-0.0,TRUE,TRUE,FALSE,FALSE,"""event"",""trial"",""time""
""fullscreenenter"",""5"",""13243""
","
","
","""event"",""trial"",""time""
""fullscreenenter"",""5"",""13243""
","
",1286.0149999905843,NA,49,NA,NA,3000,1,NA,NA,images/earth.jpg,images/rocket2,images/rocket1,null,images/rocket1,NA,1,real,null,1,NA,NA,NA,sub7
d3-animate-choice,136,580297,0.0-76.0-1.0,TRUE,TRUE,FALSE,FALSE,"""event"",""trial"",""time""
""fullscreenenter"",""5"",""13243""
","
","
","""event"",""trial"",""time""
""fullscreenenter"",""5"",""13243""
","
",775.5400000023656,NA,48,NA,NA,3000,1,NA,NA,images/purpleplanet.jpg,images/alien4,images/alien3,images/rocket1,images/alien4,images/nothing.png,2,real,false,2,rare,0,2020-06-12T19:38:00Z,sub7
two-step-fixation,137,581300,0.0-76.0-2.0,TRUE,TRUE,FALSE,FALSE,"""event"",""trial"",""time""
""fullscreenenter"",""5"",""13243""
","
","
","""event"",""trial"",""time""
""fullscreenenter"",""5"",""13243""
","
",NA,images/earth.jpg,NA,NA,NA,NA,NA,NA,NA,NA,NA,NA,NA,NA,NA,fixation,NA,NA,NA,NA,NA,NA,sub7
d3-animate-choice,138,584113,0.0-76.0-0.1,TRUE,TRUE,FALSE,FALSE,"""event"",""trial"",""time""
""fullscreenenter"",""5"",""13243""
","
","
","""event"",""trial"",""time""
""fullscreenenter"",""5"",""13243""
","
",808.1850000016857,NA,49,NA,NA,3000,1,NA,NA,images/earth.jpg,images/rocket2,images/rocket1,null,images/rocket1,NA,1,real,null,1,NA,NA,NA,sub7
d3-animate-choice,139,587092,0.0-76.0-1.1,TRUE,TRUE,FALSE,FALSE,"""event"",""trial"",""time""
""fullscreenenter"",""5"",""13243""
","
","
","""event"",""trial"",""time""
""fullscreenenter"",""5"",""13243""
","
",973.9649999974063,NA,48,NA,NA,3000,1,NA,NA,images/redplanet1.jpg,images/alien2,images/alien1,images/rocket1,images/alien2,images/t.png,2,real,true,2,common,1,2020-06-12T19:38:07Z,sub7
two-step-fixation,140,588098,0.0-76.0-2.1,TRUE,TRUE,FALSE,FALSE,"""event"",""trial"",""time""
""fullscreenenter"",""5"",""13243""
","
","
","""event"",""trial"",""time""
""fullscreenenter"",""5"",""13243""
","
",NA,images/earth.jpg,NA,NA,NA,NA,NA,NA,NA,NA,NA,NA,NA,NA,NA,fixation,NA,NA,NA,NA,NA,NA,sub7
d3-animate-choice,141,590399,0.0-76.0-0.2,TRUE,TRUE,FALSE,FALSE,"""event"",""trial"",""time""
""fullscreenenter"",""5"",""13243""
","
","
","""event"",""trial"",""time""
""fullscreenenter"",""5"",""13243""
","
",297.08499999833293,NA,49,NA,NA,3000,1,NA,NA,images/earth.jpg,images/rocket2,images/rocket1,null,images/rocket1,NA,1,real,null,1,NA,NA,NA,sub7
d3-animate-choice,142,593134,0.0-76.0-1.2,TRUE,TRUE,FALSE,FALSE,"""event"",""trial"",""time""
""fullscreenenter"",""5"",""13243""
","
","
","""event"",""trial"",""time""
""fullscreenenter"",""5"",""13243""
","
",731.5050000033807,NA,48,NA,NA,3000,1,NA,NA,images/redplanet1.jpg,images/alien2,images/alien1,images/rocket1,images/alien2,images/t.png,2,real,true,2,common,1,2020-06-12T19:38:13Z,sub7
two-step-fixation,143,594137,0.0-76.0-2.2,TRUE,TRUE,FALSE,FALSE,"""event"",""trial"",""time""
""fullscreenenter"",""5"",""13243""
","
","
","""event"",""trial"",""time""
""fullscreenenter"",""5"",""13243""
","
",NA,images/earth.jpg,NA,NA,NA,NA,NA,NA,NA,NA,NA,NA,NA,NA,NA,fixation,NA,NA,NA,NA,NA,NA,sub7
d3-animate-choice,144,596484,0.0-76.0-0.3,TRUE,TRUE,FALSE,FALSE,"""event"",""trial"",""time""
""fullscreenenter"",""5"",""13243""
","
","
","""event"",""trial"",""time""
""fullscreenenter"",""5"",""13243""
","
",342.50000001338776,NA,49,NA,NA,3000,1,NA,NA,images/earth.jpg,images/rocket2,images/rocket1,null,images/rocket1,NA,1,real,null,1,NA,NA,NA,sub7
d3-animate-choice,145,599035,0.0-76.0-1.3,TRUE,TRUE,FALSE,FALSE,"""event"",""trial"",""time""
""fullscreenenter"",""5"",""13243""
","
","
","""event"",""trial"",""time""
""fullscreenenter"",""5"",""13243""
","
",546.1050000012619,NA,48,NA,NA,3000,1,NA,NA,images/redplanet1.jpg,images/alien2,images/alien1,images/rocket1,images/alien2,images/t.png,2,real,true,2,common,1,2020-06-12T19:38:19Z,sub7
two-step-fixation,146,600043,0.0-76.0-2.3,TRUE,TRUE,FALSE,FALSE,"""event"",""trial"",""time""
""fullscreenenter"",""5"",""13243""
","
","
","""event"",""trial"",""time""
""fullscreenenter"",""5"",""13243""
","
",NA,images/earth.jpg,NA,NA,NA,NA,NA,NA,NA,NA,NA,NA,NA,NA,NA,fixation,NA,NA,NA,NA,NA,NA,sub7
d3-animate-choice,147,602376,0.0-76.0-0.4,TRUE,TRUE,FALSE,FALSE,"""event"",""trial"",""time""
""fullscreenenter"",""5"",""13243""
","
","
","""event"",""trial"",""time""
""fullscreenenter"",""5"",""13243""
","
",328.6200000002282,NA,49,NA,NA,3000,1,NA,NA,images/earth.jpg,images/rocket2,images/rocket1,null,images/rocket1,NA,1,real,null,1,NA,NA,NA,sub7
d3-animate-choice,148,604713,0.0-76.0-1.4,TRUE,TRUE,FALSE,FALSE,"""event"",""trial"",""time""
""fullscreenenter"",""5"",""13243""
","
","
","""event"",""trial"",""time""
""fullscreenenter"",""5"",""13243""
","
",330.3299999970477,NA,48,NA,NA,3000,1,NA,NA,images/redplanet1.jpg,images/alien2,images/alien1,images/rocket1,images/alien2,images/nothing.png,2,real,true,2,common,0,2020-06-12T19:38:24Z,sub7
two-step-fixation,149,605718,0.0-76.0-2.4,TRUE,TRUE,FALSE,FALSE,"""event"",""trial"",""time""
""fullscreenenter"",""5"",""13243""
","
","
","""event"",""trial"",""time""
""fullscreenenter"",""5"",""13243""
","
",NA,images/earth.jpg,NA,NA,NA,NA,NA,NA,NA,NA,NA,NA,NA,NA,NA,fixation,NA,NA,NA,NA,NA,NA,sub7
d3-animate-choice,150,608078,0.0-76.0-0.5,TRUE,TRUE,FALSE,FALSE,"""event"",""trial"",""time""
""fullscreenenter"",""5"",""13243""
","
","
","""event"",""trial"",""time""
""fullscreenenter"",""5"",""13243""
","
",355.18499999307096,NA,48,NA,NA,3000,1,NA,NA,images/earth.jpg,images/rocket2,images/rocket1,null,images/rocket2,NA,1,real,null,2,NA,NA,NA,sub7
d3-animate-choice,151,610867,0.0-76.0-1.5,TRUE,TRUE,FALSE,FALSE,"""event"",""trial"",""time""
""fullscreenenter"",""5"",""13243""
","
","
","""event"",""trial"",""time""
""fullscreenenter"",""5"",""13243""
","
",780.9100000013132,NA,49,NA,NA,3000,1,NA,NA,images/redplanet1.jpg,images/alien2,images/alien1,images/rocket2,images/alien1,images/nothing.png,2,real,false,1,rare,0,2020-06-12T19:38:31Z,sub7
two-step-fixation,152,611872,0.0-76.0-2.5,TRUE,TRUE,FALSE,FALSE,"""event"",""trial"",""time""
""fullscreenenter"",""5"",""13243""
","
","
","""event"",""trial"",""time""
""fullscreenenter"",""5"",""13243""
","
",NA,images/earth.jpg,NA,NA,NA,NA,NA,NA,NA,NA,NA,NA,NA,NA,NA,fixation,NA,NA,NA,NA,NA,NA,sub7
d3-animate-choice,153,614402,0.0-76.0-0.6,TRUE,TRUE,FALSE,FALSE,"""event"",""trial"",""time""
""fullscreenenter"",""5"",""13243""
","
","
","""event"",""trial"",""time""
""fullscreenenter"",""5"",""13243""
","
",526.2349999975413,NA,48,NA,NA,3000,1,NA,NA,images/earth.jpg,images/rocket2,images/rocket1,null,images/rocket2,NA,1,real,null,2,NA,NA,NA,sub7
d3-animate-choice,154,617170,0.0-76.0-1.6,TRUE,TRUE,FALSE,FALSE,"""event"",""trial"",""time""
""fullscreenenter"",""5"",""13243""
","
","
","""event"",""trial"",""time""
""fullscreenenter"",""5"",""13243""
","
",760.4449999926146,NA,49,NA,NA,3000,1,NA,NA,images/redplanet1.jpg,images/alien2,images/alien1,images/rocket2,images/alien1,images/t.png,2,real,false,1,rare,1,2020-06-12T19:38:37Z,sub7
two-step-fixation,155,618178,0.0-76.0-2.6,TRUE,TRUE,FALSE,FALSE,"""event"",""trial"",""time""
""fullscreenenter"",""5"",""13243""
","
","
","""event"",""trial"",""time""
""fullscreenenter"",""5"",""13243""
","
",NA,images/earth.jpg,NA,NA,NA,NA,NA,NA,NA,NA,NA,NA,NA,NA,NA,fixation,NA,NA,NA,NA,NA,NA,sub7
d3-animate-choice,156,620593,0.0-76.0-0.7,TRUE,TRUE,FALSE,FALSE,"""event"",""trial"",""time""
""fullscreenenter"",""5"",""13243""
","
","
","""event"",""trial"",""time""
""fullscreenenter"",""5"",""13243""
","
",410.3800000011688,NA,48,NA,NA,3000,1,NA,NA,images/earth.jpg,images/rocket2,images/rocket1,null,images/rocket2,NA,1,real,null,2,NA,NA,NA,sub7
d3-animate-choice,157,623248,0.0-76.0-1.7,TRUE,TRUE,FALSE,FALSE,"""event"",""trial"",""time""
""fullscreenenter"",""5"",""13243""
","
","
","""event"",""trial"",""time""
""fullscreenenter"",""5"",""13243""
","
",646.3700000022072,NA,49,NA,NA,3000,1,NA,NA,images/redplanet1.jpg,images/alien2,images/alien1,images/rocket2,images/alien1,images/nothing.png,2,real,false,1,rare,0,2020-06-12T19:38:43Z,sub7
two-step-fixation,158,624254,0.0-76.0-2.7,TRUE,TRUE,FALSE,FALSE,"""event"",""trial"",""time""
""fullscreenenter"",""5"",""13243""
","
","
","""event"",""trial"",""time""
""fullscreenenter"",""5"",""13243""
","
",NA,images/earth.jpg,NA,NA,NA,NA,NA,NA,NA,NA,NA,NA,NA,NA,NA,fixation,NA,NA,NA,NA,NA,NA,sub7
d3-animate-choice,159,626570,0.0-76.0-0.8,TRUE,TRUE,FALSE,FALSE,"""event"",""trial"",""time""
""fullscreenenter"",""5"",""13243""
","
","
","""event"",""trial"",""time""
""fullscreenenter"",""5"",""13243""
","
",312.4850000021979,NA,49,NA,NA,3000,1,NA,NA,images/earth.jpg,images/rocket2,images/rocket1,null,images/rocket1,NA,1,real,null,1,NA,NA,NA,sub7
d3-animate-choice,160,629161,0.0-76.0-1.8,TRUE,TRUE,FALSE,FALSE,"""event"",""trial"",""time""
""fullscreenenter"",""5"",""13243""
","
","
","""event"",""trial"",""time""
""fullscreenenter"",""5"",""13243""
","
",585.3000000061002,NA,48,NA,NA,3000,1,NA,NA,images/redplanet1.jpg,images/alien2,images/alien1,images/rocket1,images/alien2,images/t.png,2,real,true,2,common,1,2020-06-12T19:38:49Z,sub7
two-step-fixation,161,630167,0.0-76.0-2.8,TRUE,TRUE,FALSE,FALSE,"""event"",""trial"",""time""
""fullscreenenter"",""5"",""13243""
","
","
","""event"",""trial"",""time""
""fullscreenenter"",""5"",""13243""
","
",NA,images/earth.jpg,NA,NA,NA,NA,NA,NA,NA,NA,NA,NA,NA,NA,NA,fixation,NA,NA,NA,NA,NA,NA,sub7
d3-animate-choice,162,632485,0.0-76.0-0.9,TRUE,TRUE,FALSE,FALSE,"""event"",""trial"",""time""
""fullscreenenter"",""5"",""13243""
","
","
","""event"",""trial"",""time""
""fullscreenenter"",""5"",""13243""
","
",313.30499998875894,NA,49,NA,NA,3000,1,NA,NA,images/earth.jpg,images/rocket2,images/rocket1,null,images/rocket1,NA,1,real,null,1,NA,NA,NA,sub7
d3-animate-choice,163,634855,0.0-76.0-1.9,TRUE,TRUE,FALSE,FALSE,"""event"",""trial"",""time""
""fullscreenenter"",""5"",""13243""
","
","
","""event"",""trial"",""time""
""fullscreenenter"",""5"",""13243""
","
",361.1650000093505,NA,48,NA,NA,3000,1,NA,NA,images/redplanet1.jpg,images/alien2,images/alien1,images/rocket1,images/alien2,images/t.png,2,real,true,2,common,1,2020-06-12T19:38:55Z,sub7
two-step-fixation,164,635864,0.0-76.0-2.9,TRUE,TRUE,FALSE,FALSE,"""event"",""trial"",""time""
""fullscreenenter"",""5"",""13243""
","
","
","""event"",""trial"",""time""
""fullscreenenter"",""5"",""13243""
","
",NA,images/earth.jpg,NA,NA,NA,NA,NA,NA,NA,NA,NA,NA,NA,NA,NA,fixation,NA,NA,NA,NA,NA,NA,sub7
d3-animate-choice,165,638229,0.0-76.0-0.10,TRUE,TRUE,FALSE,FALSE,"""event"",""trial"",""time""
""fullscreenenter"",""5"",""13243""
","
","
","""event"",""trial"",""time""
""fullscreenenter"",""5"",""13243""
","
",360.51500000758097,NA,49,NA,NA,3000,1,NA,NA,images/earth.jpg,images/rocket2,images/rocket1,null,images/rocket1,NA,1,real,null,1,NA,NA,NA,sub7
d3-animate-choice,166,641166,0.0-76.0-1.10,TRUE,TRUE,FALSE,FALSE,"""event"",""trial"",""time""
""fullscreenenter"",""5"",""13243""
","
","
","""event"",""trial"",""time""
""fullscreenenter"",""5"",""13243""
","
",931.8549999879906,NA,49,NA,NA,3000,1,NA,NA,images/purpleplanet.jpg,images/alien4,images/alien3,images/rocket1,images/alien3,images/nothing.png,2,real,false,1,rare,0,2020-06-12T19:39:01Z,sub7
two-step-fixation,167,642171,0.0-76.0-2.10,TRUE,TRUE,FALSE,FALSE,"""event"",""trial"",""time""
""fullscreenenter"",""5"",""13243""
","
","
","""event"",""trial"",""time""
""fullscreenenter"",""5"",""13243""
","
",NA,images/earth.jpg,NA,NA,NA,NA,NA,NA,NA,NA,NA,NA,NA,NA,NA,fixation,NA,NA,NA,NA,NA,NA,sub7
d3-animate-choice,168,644489,0.0-76.0-0.11,TRUE,TRUE,FALSE,FALSE,"""event"",""trial"",""time""
""fullscreenenter"",""5"",""13243""
","
","
","""event"",""trial"",""time""
""fullscreenenter"",""5"",""13243""
","
",310.3899999987334,NA,49,NA,NA,3000,1,NA,NA,images/earth.jpg,images/rocket2,images/rocket1,null,images/rocket1,NA,1,real,null,1,NA,NA,NA,sub7
d3-animate-choice,169,647363,0.0-76.0-1.11,TRUE,TRUE,FALSE,FALSE,"""event"",""trial"",""time""
""fullscreenenter"",""5"",""13243""
","
","
","""event"",""trial"",""time""
""fullscreenenter"",""5"",""13243""
","
",869.4899999973131,NA,48,NA,NA,3000,1,NA,NA,images/purpleplanet.jpg,images/alien4,images/alien3,images/rocket1,images/alien4,images/nothing.png,2,real,false,2,rare,0,2020-06-12T19:39:07Z,sub7
two-step-fixation,170,648368,0.0-76.0-2.11,TRUE,TRUE,FALSE,FALSE,"""event"",""trial"",""time""
""fullscreenenter"",""5"",""13243""
","
","
","""event"",""trial"",""time""
""fullscreenenter"",""5"",""13243""
","
",NA,images/earth.jpg,NA,NA,NA,NA,NA,NA,NA,NA,NA,NA,NA,NA,NA,fixation,NA,NA,NA,NA,NA,NA,sub7
d3-animate-choice,171,650715,0.0-76.0-0.12,TRUE,TRUE,FALSE,FALSE,"""event"",""trial"",""time""
""fullscreenenter"",""5"",""13243""
","
","
","""event"",""trial"",""time""
""fullscreenenter"",""5"",""13243""
","
",342.48500000103377,NA,49,NA,NA,3000,1,NA,NA,images/earth.jpg,images/rocket2,images/rocket1,null,images/rocket1,NA,1,real,null,1,NA,NA,NA,sub7
d3-animate-choice,172,653601,0.0-76.0-1.12,TRUE,TRUE,FALSE,FALSE,"""event"",""trial"",""time""
""fullscreenenter"",""5"",""13243""
","
","
","""event"",""trial"",""time""
""fullscreenenter"",""5"",""13243""
","
",881.1049999931129,NA,48,NA,NA,3000,1,NA,NA,images/redplanet1.jpg,images/alien2,images/alien1,images/rocket1,images/alien2,images/nothing.png,2,real,true,2,common,0,2020-06-12T19:39:13Z,sub7
two-step-fixation,173,654607,0.0-76.0-2.12,TRUE,TRUE,FALSE,FALSE,"""event"",""trial"",""time""
""fullscreenenter"",""5"",""13243""
","
","
","""event"",""trial"",""time""
""fullscreenenter"",""5"",""13243""
","
",NA,images/earth.jpg,NA,NA,NA,NA,NA,NA,NA,NA,NA,NA,NA,NA,NA,fixation,NA,NA,NA,NA,NA,NA,sub7
d3-animate-choice,174,656974,0.0-76.0-0.13,TRUE,TRUE,FALSE,FALSE,"""event"",""trial"",""time""
""fullscreenenter"",""5"",""13243""
","
","
","""event"",""trial"",""time""
""fullscreenenter"",""5"",""13243""
","
",361.1949999904027,NA,49,NA,NA,3000,1,NA,NA,images/earth.jpg,images/rocket2,images/rocket1,null,images/rocket1,NA,1,real,null,1,NA,NA,NA,sub7
d3-animate-choice,175,659909,0.0-76.0-1.13,TRUE,TRUE,FALSE,FALSE,"""event"",""trial"",""time""
""fullscreenenter"",""5"",""13243""
","
","
","""event"",""trial"",""time""
""fullscreenenter"",""5"",""13243""
","
",926.0450000001583,NA,49,NA,NA,3000,1,NA,NA,images/redplanet1.jpg,images/alien2,images/alien1,images/rocket1,images/alien1,images/t.png,2,real,true,1,common,1,2020-06-12T19:39:20Z,sub7
two-step-fixation,176,660914,0.0-76.0-2.13,TRUE,TRUE,FALSE,FALSE,"""event"",""trial"",""time""
""fullscreenenter"",""5"",""13243""
","
","
","""event"",""trial"",""time""
""fullscreenenter"",""5"",""13243""
","
",NA,images/earth.jpg,NA,NA,NA,NA,NA,NA,NA,NA,NA,NA,NA,NA,NA,fixation,NA,NA,NA,NA,NA,NA,sub7
d3-animate-choice,177,663321,0.0-76.0-0.14,TRUE,TRUE,FALSE,FALSE,"""event"",""trial"",""time""
""fullscreenenter"",""5"",""13243""
","
","
","""event"",""trial"",""time""
""fullscreenenter"",""5"",""13243""
","
",400.29499999945983,NA,49,NA,NA,3000,1,NA,NA,images/earth.jpg,images/rocket2,images/rocket1,null,images/rocket1,NA,1,real,null,1,NA,NA,NA,sub7
d3-animate-choice,178,665974,0.0-76.0-1.14,TRUE,TRUE,FALSE,FALSE,"""event"",""trial"",""time""
""fullscreenenter"",""5"",""13243""
","
","
","""event"",""trial"",""time""
""fullscreenenter"",""5"",""13243""
","
",648.0500000034226,NA,48,NA,NA,3000,1,NA,NA,images/redplanet1.jpg,images/alien2,images/alien1,images/rocket1,images/alien2,images/t.png,2,real,true,2,common,1,2020-06-12T19:39:26Z,sub7
two-step-fixation,179,666988,0.0-76.0-2.14,TRUE,TRUE,FALSE,FALSE,"""event"",""trial"",""time""
""fullscreenenter"",""5"",""13243""
","
","
","""event"",""trial"",""time""
""fullscreenenter"",""5"",""13243""
","
",NA,images/earth.jpg,NA,NA,NA,NA,NA,NA,NA,NA,NA,NA,NA,NA,NA,fixation,NA,NA,NA,NA,NA,NA,sub7
d3-animate-choice,180,669316,0.0-76.0-0.15,TRUE,TRUE,FALSE,FALSE,"""event"",""trial"",""time""
""fullscreenenter"",""5"",""13243""
","
","
","""event"",""trial"",""time""
""fullscreenenter"",""5"",""13243""
","
",323.4399999928428,NA,49,NA,NA,3000,1,NA,NA,images/earth.jpg,images/rocket2,images/rocket1,null,images/rocket1,NA,1,real,null,1,NA,NA,NA,sub7
d3-animate-choice,181,671699,0.0-76.0-1.15,TRUE,TRUE,FALSE,FALSE,"""event"",""trial"",""time""
""fullscreenenter"",""5"",""13243""
","
","
","""event"",""trial"",""time""
""fullscreenenter"",""5"",""13243""
","
",376.5699999930803,NA,48,NA,NA,3000,1,NA,NA,images/redplanet1.jpg,images/alien2,images/alien1,images/rocket1,images/alien2,images/nothing.png,2,real,true,2,common,0,2020-06-12T19:39:31Z,sub7
two-step-fixation,182,672707,0.0-76.0-2.15,TRUE,TRUE,FALSE,FALSE,"""event"",""trial"",""time""
""fullscreenenter"",""5"",""13243""
","
","
","""event"",""trial"",""time""
""fullscreenenter"",""5"",""13243""
","
",NA,images/earth.jpg,NA,NA,NA,NA,NA,NA,NA,NA,NA,NA,NA,NA,NA,fixation,NA,NA,NA,NA,NA,NA,sub7
d3-animate-choice,183,674996,0.0-76.0-0.16,TRUE,TRUE,FALSE,FALSE,"""event"",""trial"",""time""
""fullscreenenter"",""5"",""13243""
","
","
","""event"",""trial"",""time""
""fullscreenenter"",""5"",""13243""
","
",283.8800000026822,NA,48,NA,NA,3000,1,NA,NA,images/earth.jpg,images/rocket2,images/rocket1,null,images/rocket2,NA,1,real,null,2,NA,NA,NA,sub7
d3-animate-choice,184,678088,0.0-76.0-1.16,TRUE,TRUE,FALSE,FALSE,"""event"",""trial"",""time""
""fullscreenenter"",""5"",""13243""
","
","
","""event"",""trial"",""time""
""fullscreenenter"",""5"",""13243""
","
",1086.4299999957439,NA,49,NA,NA,3000,1,NA,NA,images/purpleplanet.jpg,images/alien4,images/alien3,images/rocket2,images/alien3,images/nothing.png,2,real,true,1,common,0,2020-06-12T19:39:38Z,sub7
two-step-fixation,185,679093,0.0-76.0-2.16,TRUE,TRUE,FALSE,FALSE,"""event"",""trial"",""time""
""fullscreenenter"",""5"",""13243""
","
","
","""event"",""trial"",""time""
""fullscreenenter"",""5"",""13243""
","
",NA,images/earth.jpg,NA,NA,NA,NA,NA,NA,NA,NA,NA,NA,NA,NA,NA,fixation,NA,NA,NA,NA,NA,NA,sub7
d3-animate-choice,186,681520,0.0-76.0-0.17,TRUE,TRUE,FALSE,FALSE,"""event"",""trial"",""time""
""fullscreenenter"",""5"",""13243""
","
","
","""event"",""trial"",""time""
""fullscreenenter"",""5"",""13243""
","
",421.184999999241,NA,48,NA,NA,3000,1,NA,NA,images/earth.jpg,images/rocket2,images/rocket1,null,images/rocket2,NA,1,real,null,2,NA,NA,NA,sub7
d3-animate-choice,187,684298,0.0-76.0-1.17,TRUE,TRUE,FALSE,FALSE,"""event"",""trial"",""time""
""fullscreenenter"",""5"",""13243""
","
","
","""event"",""trial"",""time""
""fullscreenenter"",""5"",""13243""
","
",773.07500000461,NA,48,NA,NA,3000,1,NA,NA,images/purpleplanet.jpg,images/alien4,images/alien3,images/rocket2,images/alien4,images/t.png,2,real,true,2,common,1,2020-06-12T19:39:44Z,sub7
two-step-fixation,188,685303,0.0-76.0-2.17,TRUE,TRUE,FALSE,FALSE,"""event"",""trial"",""time""
""fullscreenenter"",""5"",""13243""
","
","
","""event"",""trial"",""time""
""fullscreenenter"",""5"",""13243""
","
",NA,images/earth.jpg,NA,NA,NA,NA,NA,NA,NA,NA,NA,NA,NA,NA,NA,fixation,NA,NA,NA,NA,NA,NA,sub7
d3-animate-choice,189,687634,0.0-76.0-0.18,TRUE,TRUE,FALSE,FALSE,"""event"",""trial"",""time""
""fullscreenenter"",""5"",""13243""
","
","
","""event"",""trial"",""time""
""fullscreenenter"",""5"",""13243""
","
",326.6399999993155,NA,49,NA,NA,3000,1,NA,NA,images/earth.jpg,images/rocket2,images/rocket1,null,images/rocket1,NA,1,real,null,1,NA,NA,NA,sub7
d3-animate-choice,190,690662,0.0-76.0-1.18,TRUE,TRUE,FALSE,FALSE,"""event"",""trial"",""time""
""fullscreenenter"",""5"",""13243""
","
","
","""event"",""trial"",""time""
""fullscreenenter"",""5"",""13243""
","
",1023.3999999909429,NA,48,NA,NA,3000,1,NA,NA,images/purpleplanet.jpg,images/alien4,images/alien3,images/rocket1,images/alien4,images/t.png,2,real,false,2,rare,1,2020-06-12T19:39:50Z,sub7
two-step-fixation,191,691666,0.0-76.0-2.18,TRUE,TRUE,FALSE,FALSE,"""event"",""trial"",""time""
""fullscreenenter"",""5"",""13243""
","
","
","""event"",""trial"",""time""
""fullscreenenter"",""5"",""13243""
","
",NA,images/earth.jpg,NA,NA,NA,NA,NA,NA,NA,NA,NA,NA,NA,NA,NA,fixation,NA,NA,NA,NA,NA,NA,sub7
d3-animate-choice,192,694146,0.0-76.0-0.19,TRUE,TRUE,FALSE,FALSE,"""event"",""trial"",""time""
""fullscreenenter"",""5"",""13243""
","
","
","""event"",""trial"",""time""
""fullscreenenter"",""5"",""13243""
","
",475.7649999955902,NA,48,NA,NA,3000,1,NA,NA,images/earth.jpg,images/rocket2,images/rocket1,null,images/rocket2,NA,1,real,null,2,NA,NA,NA,sub7
d3-animate-choice,193,696824,0.0-76.0-1.19,TRUE,TRUE,FALSE,FALSE,"""event"",""trial"",""time""
""fullscreenenter"",""5"",""13243""
","
","
","""event"",""trial"",""time""
""fullscreenenter"",""5"",""13243""
","
",668.6499999923399,NA,48,NA,NA,3000,1,NA,NA,images/purpleplanet.jpg,images/alien4,images/alien3,images/rocket2,images/alien4,images/t.png,2,real,true,2,common,1,2020-06-12T19:39:57Z,sub7
two-step-fixation,194,697828,0.0-76.0-2.19,TRUE,TRUE,FALSE,FALSE,"""event"",""trial"",""time""
""fullscreenenter"",""5"",""13243""
","
","
","""event"",""trial"",""time""
""fullscreenenter"",""5"",""13243""
","
",NA,images/earth.jpg,NA,NA,NA,NA,NA,NA,NA,NA,NA,NA,NA,NA,NA,fixation,NA,NA,NA,NA,NA,NA,sub7
d3-animate-choice,195,700211,0.0-76.0-0.20,TRUE,TRUE,FALSE,FALSE,"""event"",""trial"",""time""
""fullscreenenter"",""5"",""13243""
","
","
","""event"",""trial"",""time""
""fullscreenenter"",""5"",""13243""
","
",378.1500000040978,NA,48,NA,NA,3000,1,NA,NA,images/earth.jpg,images/rocket2,images/rocket1,null,images/rocket2,NA,1,real,null,2,NA,NA,NA,sub7
d3-animate-choice,196,702739,0.0-76.0-1.20,TRUE,TRUE,FALSE,FALSE,"""event"",""trial"",""time""
""fullscreenenter"",""5"",""13243""
","
","
","""event"",""trial"",""time""
""fullscreenenter"",""5"",""13243""
","
",523.9049999945564,NA,48,NA,NA,3000,1,NA,NA,images/purpleplanet.jpg,images/alien4,images/alien3,images/rocket2,images/alien4,images/t.png,2,real,true,2,common,1,2020-06-12T19:40:03Z,sub7
two-step-fixation,197,703743,0.0-76.0-2.20,TRUE,TRUE,FALSE,FALSE,"""event"",""trial"",""time""
""fullscreenenter"",""5"",""13243""
","
","
","""event"",""trial"",""time""
""fullscreenenter"",""5"",""13243""
","
",NA,images/earth.jpg,NA,NA,NA,NA,NA,NA,NA,NA,NA,NA,NA,NA,NA,fixation,NA,NA,NA,NA,NA,NA,sub7
d3-animate-choice,198,706094,0.0-76.0-0.21,TRUE,TRUE,FALSE,FALSE,"""event"",""trial"",""time""
""fullscreenenter"",""5"",""13243""
","
","
","""event"",""trial"",""time""
""fullscreenenter"",""5"",""13243""
","
",342.92999999888707,NA,48,NA,NA,3000,1,NA,NA,images/earth.jpg,images/rocket2,images/rocket1,null,images/rocket2,NA,1,real,null,2,NA,NA,NA,sub7
d3-animate-choice,199,708521,0.0-76.0-1.21,TRUE,TRUE,FALSE,FALSE,"""event"",""trial"",""time""
""fullscreenenter"",""5"",""13243""
","
","
","""event"",""trial"",""time""
""fullscreenenter"",""5"",""13243""
","
",421.14500000025146,NA,48,NA,NA,3000,1,NA,NA,images/purpleplanet.jpg,images/alien4,images/alien3,images/rocket2,images/alien4,images/t.png,2,real,true,2,common,1,2020-06-12T19:40:08Z,sub7
two-step-fixation,200,709527,0.0-76.0-2.21,TRUE,TRUE,FALSE,FALSE,"""event"",""trial"",""time""
""fullscreenenter"",""5"",""13243""
","
","
","""event"",""trial"",""time""
""fullscreenenter"",""5"",""13243""
","
",NA,images/earth.jpg,NA,NA,NA,NA,NA,NA,NA,NA,NA,NA,NA,NA,NA,fixation,NA,NA,NA,NA,NA,NA,sub7
d3-animate-choice,201,711830,0.0-76.0-0.22,TRUE,TRUE,FALSE,FALSE,"""event"",""trial"",""time""
""fullscreenenter"",""5"",""13243""
","
","
","""event"",""trial"",""time""
""fullscreenenter"",""5"",""13243""
","
",296.10500000126194,NA,48,NA,NA,3000,1,NA,NA,images/earth.jpg,images/rocket2,images/rocket1,null,images/rocket2,NA,1,real,null,2,NA,NA,NA,sub7
d3-animate-choice,202,714440,0.0-76.0-1.22,TRUE,TRUE,FALSE,FALSE,"""event"",""trial"",""time""
""fullscreenenter"",""5"",""13243""
","
","
","""event"",""trial"",""time""
""fullscreenenter"",""5"",""13243""
","
",603.5750000010012,NA,48,NA,NA,3000,1,NA,NA,images/purpleplanet.jpg,images/alien4,images/alien3,images/rocket2,images/alien4,images/nothing.png,2,real,true,2,common,0,2020-06-12T19:40:14Z,sub7
two-step-fixation,203,715446,0.0-76.0-2.22,TRUE,TRUE,FALSE,FALSE,"""event"",""trial"",""time""
""fullscreenenter"",""5"",""13243""
","
","
","""event"",""trial"",""time""
""fullscreenenter"",""5"",""13243""
","
",NA,images/earth.jpg,NA,NA,NA,NA,NA,NA,NA,NA,NA,NA,NA,NA,NA,fixation,NA,NA,NA,NA,NA,NA,sub7
d3-animate-choice,204,717821,0.0-76.0-0.23,TRUE,TRUE,FALSE,FALSE,"""event"",""trial"",""time""
""fullscreenenter"",""5"",""13243""
","
","
","""event"",""trial"",""time""
""fullscreenenter"",""5"",""13243""
","
",369.65999999665655,NA,48,NA,NA,3000,1,NA,NA,images/earth.jpg,images/rocket2,images/rocket1,null,images/rocket2,NA,1,real,null,2,NA,NA,NA,sub7
d3-animate-choice,205,720190,0.0-76.0-1.23,TRUE,TRUE,FALSE,FALSE,"""event"",""trial"",""time""
""fullscreenenter"",""5"",""13243""
","
","
","""event"",""trial"",""time""
""fullscreenenter"",""5"",""13243""
","
",363.3700000063982,NA,48,NA,NA,3000,1,NA,NA,images/purpleplanet.jpg,images/alien4,images/alien3,images/rocket2,images/alien4,images/t.png,2,real,true,2,common,1,2020-06-12T19:40:20Z,sub7
two-step-fixation,206,721197,0.0-76.0-2.23,TRUE,TRUE,FALSE,FALSE,"""event"",""trial"",""time""
""fullscreenenter"",""5"",""13243""
","
","
","""event"",""trial"",""time""
""fullscreenenter"",""5"",""13243""
","
",NA,images/earth.jpg,NA,NA,NA,NA,NA,NA,NA,NA,NA,NA,NA,NA,NA,fixation,NA,NA,NA,NA,NA,NA,sub7
d3-animate-choice,207,723241,0.0-76.0-0.24,TRUE,TRUE,FALSE,FALSE,"""event"",""trial"",""time""
""fullscreenenter"",""5"",""13243""
","
","
","""event"",""trial"",""time""
""fullscreenenter"",""5"",""13243""
","
",38.44000000390224,NA,48,NA,NA,3000,1,NA,NA,images/earth.jpg,images/rocket2,images/rocket1,null,images/rocket2,NA,1,real,null,2,NA,NA,NA,sub7
d3-animate-choice,208,725974,0.0-76.0-1.24,TRUE,TRUE,FALSE,FALSE,"""event"",""trial"",""time""
""fullscreenenter"",""5"",""13243""
","
","
","""event"",""trial"",""time""
""fullscreenenter"",""5"",""13243""
","
",727.2999999986496,NA,48,NA,NA,3000,1,NA,NA,images/redplanet1.jpg,images/alien2,images/alien1,images/rocket2,images/alien2,images/t.png,2,real,false,2,rare,1,2020-06-12T19:40:26Z,sub7
two-step-fixation,209,726981,0.0-76.0-2.24,TRUE,TRUE,FALSE,FALSE,"""event"",""trial"",""time""
""fullscreenenter"",""5"",""13243""
","
","
","""event"",""trial"",""time""
""fullscreenenter"",""5"",""13243""
","
",NA,images/earth.jpg,NA,NA,NA,NA,NA,NA,NA,NA,NA,NA,NA,NA,NA,fixation,NA,NA,NA,NA,NA,NA,sub7
d3-animate-choice,210,729421,0.0-76.0-0.25,TRUE,TRUE,FALSE,FALSE,"""event"",""trial"",""time""
""fullscreenenter"",""5"",""13243""
","
","
","""event"",""trial"",""time""
""fullscreenenter"",""5"",""13243""
","
",431.2950000021374,NA,48,NA,NA,3000,1,NA,NA,images/earth.jpg,images/rocket2,images/rocket1,null,images/rocket2,NA,1,real,null,2,NA,NA,NA,sub7
d3-animate-choice,211,731730,0.0-76.0-1.25,TRUE,TRUE,FALSE,FALSE,"""event"",""trial"",""time""
""fullscreenenter"",""5"",""13243""
","
","
","""event"",""trial"",""time""
""fullscreenenter"",""5"",""13243""
","
",303.1749999936437,NA,48,NA,NA,3000,1,NA,NA,images/purpleplanet.jpg,images/alien4,images/alien3,images/rocket2,images/alien4,images/t.png,2,real,true,2,common,1,2020-06-12T19:40:32Z,sub7
two-step-fixation,212,732734,0.0-76.0-2.25,TRUE,TRUE,FALSE,FALSE,"""event"",""trial"",""time""
""fullscreenenter"",""5"",""13243""
","
","
","""event"",""trial"",""time""
""fullscreenenter"",""5"",""13243""
","
",NA,images/earth.jpg,NA,NA,NA,NA,NA,NA,NA,NA,NA,NA,NA,NA,NA,fixation,NA,NA,NA,NA,NA,NA,sub7
d3-animate-choice,213,735033,0.0-76.0-0.26,TRUE,TRUE,FALSE,FALSE,"""event"",""trial"",""time""
""fullscreenenter"",""5"",""13243""
","
","
","""event"",""trial"",""time""
""fullscreenenter"",""5"",""13243""
","
",293.75500000605825,NA,48,NA,NA,3000,1,NA,NA,images/earth.jpg,images/rocket2,images/rocket1,null,images/rocket2,NA,1,real,null,2,NA,NA,NA,sub7
d3-animate-choice,214,737594,0.0-76.0-1.26,TRUE,TRUE,FALSE,FALSE,"""event"",""trial"",""time""
""fullscreenenter"",""5"",""13243""
","
","
","""event"",""trial"",""time""
""fullscreenenter"",""5"",""13243""
","
",555.1749999867752,NA,48,NA,NA,3000,1,NA,NA,images/purpleplanet.jpg,images/alien4,images/alien3,images/rocket2,images/alien4,images/t.png,2,real,true,2,common,1,2020-06-12T19:40:37Z,sub7
two-step-fixation,215,738599,0.0-76.0-2.26,TRUE,TRUE,FALSE,FALSE,"""event"",""trial"",""time""
""fullscreenenter"",""5"",""13243""
","
","
","""event"",""trial"",""time""
""fullscreenenter"",""5"",""13243""
","
",NA,images/earth.jpg,NA,NA,NA,NA,NA,NA,NA,NA,NA,NA,NA,NA,NA,fixation,NA,NA,NA,NA,NA,NA,sub7
d3-animate-choice,216,740894,0.0-76.0-0.27,TRUE,TRUE,FALSE,FALSE,"""event"",""trial"",""time""
""fullscreenenter"",""5"",""13243""
","
","
","""event"",""trial"",""time""
""fullscreenenter"",""5"",""13243""
","
",290.4700000071898,NA,48,NA,NA,3000,1,NA,NA,images/earth.jpg,images/rocket2,images/rocket1,null,images/rocket2,NA,1,real,null,2,NA,NA,NA,sub7
d3-animate-choice,217,743248,0.0-76.0-1.27,TRUE,TRUE,FALSE,FALSE,"""event"",""trial"",""time""
""fullscreenenter"",""5"",""13243""
","
","
","""event"",""trial"",""time""
""fullscreenenter"",""5"",""13243""
","
",349.22000000369735,NA,48,NA,NA,3000,1,NA,NA,images/purpleplanet.jpg,images/alien4,images/alien3,images/rocket2,images/alien4,images/t.png,2,real,true,2,common,1,2020-06-12T19:40:43Z,sub7
two-step-fixation,218,744252,0.0-76.0-2.27,TRUE,TRUE,FALSE,FALSE,"""event"",""trial"",""time""
""fullscreenenter"",""5"",""13243""
","
","
","""event"",""trial"",""time""
""fullscreenenter"",""5"",""13243""
","
",NA,images/earth.jpg,NA,NA,NA,NA,NA,NA,NA,NA,NA,NA,NA,NA,NA,fixation,NA,NA,NA,NA,NA,NA,sub7
d3-animate-choice,219,746557,0.0-76.0-0.28,TRUE,TRUE,FALSE,FALSE,"""event"",""trial"",""time""
""fullscreenenter"",""5"",""13243""
","
","
","""event"",""trial"",""time""
""fullscreenenter"",""5"",""13243""
","
",299.9849999905564,NA,48,NA,NA,3000,1,NA,NA,images/earth.jpg,images/rocket2,images/rocket1,null,images/rocket2,NA,1,real,null,2,NA,NA,NA,sub7
d3-animate-choice,220,748900,0.0-76.0-1.28,TRUE,TRUE,FALSE,FALSE,"""event"",""trial"",""time""
""fullscreenenter"",""5"",""13243""
","
","
","""event"",""trial"",""time""
""fullscreenenter"",""5"",""13243""
","
",337.1749999932945,NA,48,NA,NA,3000,1,NA,NA,images/purpleplanet.jpg,images/alien4,images/alien3,images/rocket2,images/alien4,images/t.png,2,real,true,2,common,1,2020-06-12T19:40:49Z,sub7
two-step-fixation,221,749905,0.0-76.0-2.28,TRUE,TRUE,FALSE,FALSE,"""event"",""trial"",""time""
""fullscreenenter"",""5"",""13243""
","
","
","""event"",""trial"",""time""
""fullscreenenter"",""5"",""13243""
","
",NA,images/earth.jpg,NA,NA,NA,NA,NA,NA,NA,NA,NA,NA,NA,NA,NA,fixation,NA,NA,NA,NA,NA,NA,sub7
d3-animate-choice,222,752258,0.0-76.0-0.29,TRUE,TRUE,FALSE,FALSE,"""event"",""trial"",""time""
""fullscreenenter"",""5"",""13243""
","
","
","""event"",""trial"",""time""
""fullscreenenter"",""5"",""13243""
","
",349.1599999979371,NA,48,NA,NA,3000,1,NA,NA,images/earth.jpg,images/rocket2,images/rocket1,null,images/rocket2,NA,1,real,null,2,NA,NA,NA,sub7
d3-animate-choice,223,754626,0.0-76.0-1.29,TRUE,TRUE,FALSE,FALSE,"""event"",""trial"",""time""
""fullscreenenter"",""5"",""13243""
","
","
","""event"",""trial"",""time""
""fullscreenenter"",""5"",""13243""
","
",364.1499999939697,NA,48,NA,NA,3000,1,NA,NA,images/purpleplanet.jpg,images/alien4,images/alien3,images/rocket2,images/alien4,images/t.png,2,real,true,2,common,1,2020-06-12T19:40:54Z,sub7
two-step-fixation,224,755633,0.0-76.0-2.29,TRUE,TRUE,FALSE,FALSE,"""event"",""trial"",""time""
""fullscreenenter"",""5"",""13243""
","
","
","""event"",""trial"",""time""
""fullscreenenter"",""5"",""13243""
","
",NA,images/earth.jpg,NA,NA,NA,NA,NA,NA,NA,NA,NA,NA,NA,NA,NA,fixation,NA,NA,NA,NA,NA,NA,sub7
d3-animate-choice,225,758057,0.0-76.0-0.30,TRUE,TRUE,FALSE,FALSE,"""event"",""trial"",""time""
""fullscreenenter"",""5"",""13243""
","
","
","""event"",""trial"",""time""
""fullscreenenter"",""5"",""13243""
","
",420.1150000008056,NA,48,NA,NA,3000,1,NA,NA,images/earth.jpg,images/rocket2,images/rocket1,null,images/rocket2,NA,1,real,null,2,NA,NA,NA,sub7
d3-animate-choice,226,760360,0.0-76.0-1.30,TRUE,TRUE,FALSE,FALSE,"""event"",""trial"",""time""
""fullscreenenter"",""5"",""13243""
","
","
","""event"",""trial"",""time""
""fullscreenenter"",""5"",""13243""
","
",298.6700000037672,NA,48,NA,NA,3000,1,NA,NA,images/purpleplanet.jpg,images/alien4,images/alien3,images/rocket2,images/alien4,images/t.png,2,real,true,2,common,1,2020-06-12T19:41:00Z,sub7
two-step-fixation,227,761366,0.0-76.0-2.30,TRUE,TRUE,FALSE,FALSE,"""event"",""trial"",""time""
""fullscreenenter"",""5"",""13243""
","
","
","""event"",""trial"",""time""
""fullscreenenter"",""5"",""13243""
","
",NA,images/earth.jpg,NA,NA,NA,NA,NA,NA,NA,NA,NA,NA,NA,NA,NA,fixation,NA,NA,NA,NA,NA,NA,sub7
d3-animate-choice,228,763711,0.0-76.0-0.31,TRUE,TRUE,FALSE,FALSE,"""event"",""trial"",""time""
""fullscreenenter"",""5"",""13243""
","
","
","""event"",""trial"",""time""
""fullscreenenter"",""5"",""13243""
","
",336.54000000387896,NA,49,NA,NA,3000,1,NA,NA,images/earth.jpg,images/rocket2,images/rocket1,null,images/rocket1,NA,1,real,null,1,NA,NA,NA,sub7
d3-animate-choice,229,766066,0.0-76.0-1.31,TRUE,TRUE,FALSE,FALSE,"""event"",""trial"",""time""
""fullscreenenter"",""5"",""13243""
","
","
","""event"",""trial"",""time""
""fullscreenenter"",""5"",""13243""
","
",346.4550000062445,NA,48,NA,NA,3000,1,NA,NA,images/redplanet1.jpg,images/alien2,images/alien1,images/rocket1,images/alien2,images/t.png,2,real,true,2,common,1,2020-06-12T19:41:06Z,sub7
two-step-fixation,230,767070,0.0-76.0-2.31,TRUE,TRUE,FALSE,FALSE,"""event"",""trial"",""time""
""fullscreenenter"",""5"",""13243""
","
","
","""event"",""trial"",""time""
""fullscreenenter"",""5"",""13243""
","
",NA,images/earth.jpg,NA,NA,NA,NA,NA,NA,NA,NA,NA,NA,NA,NA,NA,fixation,NA,NA,NA,NA,NA,NA,sub7
d3-animate-choice,231,769411,0.0-76.0-0.32,TRUE,TRUE,FALSE,FALSE,"""event"",""trial"",""time""
""fullscreenenter"",""5"",""13243""
","
","
","""event"",""trial"",""time""
""fullscreenenter"",""5"",""13243""
","
",334.5149999950081,NA,49,NA,NA,3000,1,NA,NA,images/earth.jpg,images/rocket2,images/rocket1,null,images/rocket1,NA,1,real,null,1,NA,NA,NA,sub7
d3-animate-choice,232,771711,0.0-76.0-1.32,TRUE,TRUE,FALSE,FALSE,"""event"",""trial"",""time""
""fullscreenenter"",""5"",""13243""
","
","
","""event"",""trial"",""time""
""fullscreenenter"",""5"",""13243""
","
",291.83000000193715,NA,48,NA,NA,3000,1,NA,NA,images/redplanet1.jpg,images/alien2,images/alien1,images/rocket1,images/alien2,images/nothing.png,2,real,true,2,common,0,2020-06-12T19:41:11Z,sub7
two-step-fixation,233,772719,0.0-76.0-2.32,TRUE,TRUE,FALSE,FALSE,"""event"",""trial"",""time""
""fullscreenenter"",""5"",""13243""
","
","
","""event"",""trial"",""time""
""fullscreenenter"",""5"",""13243""
","
",NA,images/earth.jpg,NA,NA,NA,NA,NA,NA,NA,NA,NA,NA,NA,NA,NA,fixation,NA,NA,NA,NA,NA,NA,sub7
d3-animate-choice,234,775261,0.0-76.0-0.33,TRUE,TRUE,FALSE,FALSE,"""event"",""trial"",""time""
""fullscreenenter"",""5"",""13243""
","
","
","""event"",""trial"",""time""
""fullscreenenter"",""5"",""13243""
","
",536.3900000083959,NA,48,NA,NA,3000,1,NA,NA,images/earth.jpg,images/rocket2,images/rocket1,null,images/rocket2,NA,1,real,null,2,NA,NA,NA,sub7
d3-animate-choice,235,777677,0.0-76.0-1.33,TRUE,TRUE,FALSE,FALSE,"""event"",""trial"",""time""
""fullscreenenter"",""5"",""13243""
","
","
","""event"",""trial"",""time""
""fullscreenenter"",""5"",""13243""
","
",410.3999999933876,NA,48,NA,NA,3000,1,NA,NA,images/redplanet1.jpg,images/alien2,images/alien1,images/rocket2,images/alien2,images/nothing.png,2,real,false,2,rare,0,2020-06-12T19:41:17Z,sub7
two-step-fixation,236,778683,0.0-76.0-2.33,TRUE,TRUE,FALSE,FALSE,"""event"",""trial"",""time""
""fullscreenenter"",""5"",""13243""
","
","
","""event"",""trial"",""time""
""fullscreenenter"",""5"",""13243""
","
",NA,images/earth.jpg,NA,NA,NA,NA,NA,NA,NA,NA,NA,NA,NA,NA,NA,fixation,NA,NA,NA,NA,NA,NA,sub7
d3-animate-choice,237,781001,0.0-76.0-0.34,TRUE,TRUE,FALSE,FALSE,"""event"",""trial"",""time""
""fullscreenenter"",""5"",""13243""
","
","
","""event"",""trial"",""time""
""fullscreenenter"",""5"",""13243""
","
",312.12499999674037,NA,48,NA,NA,3000,1,NA,NA,images/earth.jpg,images/rocket2,images/rocket1,null,images/rocket2,NA,1,real,null,2,NA,NA,NA,sub7
d3-animate-choice,238,783343,0.0-76.0-1.34,TRUE,TRUE,FALSE,FALSE,"""event"",""trial"",""time""
""fullscreenenter"",""5"",""13243""
","
","
","""event"",""trial"",""time""
""fullscreenenter"",""5"",""13243""
","
",337.92999999423046,NA,48,NA,NA,3000,1,NA,NA,images/purpleplanet.jpg,images/alien4,images/alien3,images/rocket2,images/alien4,images/t.png,2,real,true,2,common,1,2020-06-12T19:41:23Z,sub7
two-step-fixation,239,784347,0.0-76.0-2.34,TRUE,TRUE,FALSE,FALSE,"""event"",""trial"",""time""
""fullscreenenter"",""5"",""13243""
","
","
","""event"",""trial"",""time""
""fullscreenenter"",""5"",""13243""
","
",NA,images/earth.jpg,NA,NA,NA,NA,NA,NA,NA,NA,NA,NA,NA,NA,NA,fixation,NA,NA,NA,NA,NA,NA,sub7
d3-animate-choice,240,786701,0.0-76.0-0.35,TRUE,TRUE,FALSE,FALSE,"""event"",""trial"",""time""
""fullscreenenter"",""5"",""13243""
","
","
","""event"",""trial"",""time""
""fullscreenenter"",""5"",""13243""
","
",348.93999999621883,NA,48,NA,NA,3000,1,NA,NA,images/earth.jpg,images/rocket2,images/rocket1,null,images/rocket2,NA,1,real,null,2,NA,NA,NA,sub7
d3-animate-choice,241,789316,0.0-76.0-1.35,TRUE,TRUE,FALSE,FALSE,"""event"",""trial"",""time""
""fullscreenenter"",""5"",""13243""
","
","
","""event"",""trial"",""time""
""fullscreenenter"",""5"",""13243""
","
",610.2600000012899,NA,48,NA,NA,3000,1,NA,NA,images/purpleplanet.jpg,images/alien4,images/alien3,images/rocket2,images/alien4,images/nothing.png,2,real,true,2,common,0,2020-06-12T19:41:29Z,sub7
two-step-fixation,242,790321,0.0-76.0-2.35,TRUE,TRUE,FALSE,FALSE,"""event"",""trial"",""time""
""fullscreenenter"",""5"",""13243""
","
","
","""event"",""trial"",""time""
""fullscreenenter"",""5"",""13243""
","
",NA,images/earth.jpg,NA,NA,NA,NA,NA,NA,NA,NA,NA,NA,NA,NA,NA,fixation,NA,NA,NA,NA,NA,NA,sub7
d3-animate-choice,243,792831,0.0-76.0-0.36,TRUE,TRUE,FALSE,FALSE,"""event"",""trial"",""time""
""fullscreenenter"",""5"",""13243""
","
","
","""event"",""trial"",""time""
""fullscreenenter"",""5"",""13243""
","
",504.5699999900535,NA,48,NA,NA,3000,1,NA,NA,images/earth.jpg,images/rocket2,images/rocket1,null,images/rocket2,NA,1,real,null,2,NA,NA,NA,sub7
d3-animate-choice,244,795395,0.0-76.0-1.36,TRUE,TRUE,FALSE,FALSE,"""event"",""trial"",""time""
""fullscreenenter"",""5"",""13243""
","
","
","""event"",""trial"",""time""
""fullscreenenter"",""5"",""13243""
","
",558.6000000039348,NA,48,NA,NA,3000,1,NA,NA,images/purpleplanet.jpg,images/alien4,images/alien3,images/rocket2,images/alien4,images/nothing.png,2,real,true,2,common,0,2020-06-12T19:41:35Z,sub7
two-step-fixation,245,796399,0.0-76.0-2.36,TRUE,TRUE,FALSE,FALSE,"""event"",""trial"",""time""
""fullscreenenter"",""5"",""13243""
","
","
","""event"",""trial"",""time""
""fullscreenenter"",""5"",""13243""
","
",NA,images/earth.jpg,NA,NA,NA,NA,NA,NA,NA,NA,NA,NA,NA,NA,NA,fixation,NA,NA,NA,NA,NA,NA,sub7
d3-animate-choice,246,798746,0.0-76.0-0.37,TRUE,TRUE,FALSE,FALSE,"""event"",""trial"",""time""
""fullscreenenter"",""5"",""13243""
","
","
","""event"",""trial"",""time""
""fullscreenenter"",""5"",""13243""
","
",342.35000000626314,NA,49,NA,NA,3000,1,NA,NA,images/earth.jpg,images/rocket2,images/rocket1,null,images/rocket1,NA,1,real,null,1,NA,NA,NA,sub7
d3-animate-choice,247,801309,0.0-76.0-1.37,TRUE,TRUE,FALSE,FALSE,"""event"",""trial"",""time""
""fullscreenenter"",""5"",""13243""
","
","
","""event"",""trial"",""time""
""fullscreenenter"",""5"",""13243""
","
",556.7000000010012,NA,48,NA,NA,3000,1,NA,NA,images/purpleplanet.jpg,images/alien4,images/alien3,images/rocket1,images/alien4,images/t.png,2,real,false,2,rare,1,2020-06-12T19:41:41Z,sub7
two-step-fixation,248,802315,0.0-76.0-2.37,TRUE,TRUE,FALSE,FALSE,"""event"",""trial"",""time""
""fullscreenenter"",""5"",""13243""
","
","
","""event"",""trial"",""time""
""fullscreenenter"",""5"",""13243""
","
",NA,images/earth.jpg,NA,NA,NA,NA,NA,NA,NA,NA,NA,NA,NA,NA,NA,fixation,NA,NA,NA,NA,NA,NA,sub7
d3-animate-choice,249,804737,0.0-76.0-0.38,TRUE,TRUE,FALSE,FALSE,"""event"",""trial"",""time""
""fullscreenenter"",""5"",""13243""
","
","
","""event"",""trial"",""time""
""fullscreenenter"",""5"",""13243""
","
",417.77499999443535,NA,49,NA,NA,3000,1,NA,NA,images/earth.jpg,images/rocket2,images/rocket1,null,images/rocket1,NA,1,real,null,1,NA,NA,NA,sub7
d3-animate-choice,250,807772,0.0-76.0-1.38,TRUE,TRUE,FALSE,FALSE,"""event"",""trial"",""time""
""fullscreenenter"",""5"",""13243""
","
","
","""event"",""trial"",""time""
""fullscreenenter"",""5"",""13243""
","
",1028.760000001057,NA,48,NA,NA,3000,1,NA,NA,images/redplanet1.jpg,images/alien2,images/alien1,images/rocket1,images/alien2,images/nothing.png,2,real,true,2,common,0,2020-06-12T19:41:48Z,sub7
two-step-fixation,251,808777,0.0-76.0-2.38,TRUE,TRUE,FALSE,FALSE,"""event"",""trial"",""time""
""fullscreenenter"",""5"",""13243""
","
","
","""event"",""trial"",""time""
""fullscreenenter"",""5"",""13243""
","
",NA,images/earth.jpg,NA,NA,NA,NA,NA,NA,NA,NA,NA,NA,NA,NA,NA,fixation,NA,NA,NA,NA,NA,NA,sub7
d3-animate-choice,252,811134,0.0-76.0-0.39,TRUE,TRUE,FALSE,FALSE,"""event"",""trial"",""time""
""fullscreenenter"",""5"",""13243""
","
","
","""event"",""trial"",""time""
""fullscreenenter"",""5"",""13243""
","
",351.6899999958696,NA,49,NA,NA,3000,1,NA,NA,images/earth.jpg,images/rocket2,images/rocket1,null,images/rocket1,NA,1,real,null,1,NA,NA,NA,sub7
d3-animate-choice,253,813589,0.0-76.0-1.39,TRUE,TRUE,FALSE,FALSE,"""event"",""trial"",""time""
""fullscreenenter"",""5"",""13243""
","
","
","""event"",""trial"",""time""
""fullscreenenter"",""5"",""13243""
","
",450.87500000954606,NA,49,NA,NA,3000,1,NA,NA,images/redplanet1.jpg,images/alien2,images/alien1,images/rocket1,images/alien1,images/t.png,2,real,true,1,common,1,2020-06-12T19:41:53Z,sub7
two-step-fixation,254,814593,0.0-76.0-2.39,TRUE,TRUE,FALSE,FALSE,"""event"",""trial"",""time""
""fullscreenenter"",""5"",""13243""
","
","
","""event"",""trial"",""time""
""fullscreenenter"",""5"",""13243""
","
",NA,images/earth.jpg,NA,NA,NA,NA,NA,NA,NA,NA,NA,NA,NA,NA,NA,fixation,NA,NA,NA,NA,NA,NA,sub7
d3-animate-choice,255,816882,0.0-76.0-0.40,TRUE,TRUE,FALSE,FALSE,"""event"",""trial"",""time""
""fullscreenenter"",""5"",""13243""
","
","
","""event"",""trial"",""time""
""fullscreenenter"",""5"",""13243""
","
",280.254999990575,NA,49,NA,NA,3000,1,NA,NA,images/earth.jpg,images/rocket2,images/rocket1,null,images/rocket1,NA,1,real,null,1,NA,NA,NA,sub7
d3-animate-choice,256,819650,0.0-76.0-1.40,TRUE,TRUE,FALSE,FALSE,"""event"",""trial"",""time""
""fullscreenenter"",""5"",""13243""
","
","
","""event"",""trial"",""time""
""fullscreenenter"",""5"",""13243""
","
",761.5500000101747,NA,48,NA,NA,3000,1,NA,NA,images/purpleplanet.jpg,images/alien4,images/alien3,images/rocket1,images/alien4,images/t.png,2,real,false,2,rare,1,2020-06-12T19:41:59Z,sub7
two-step-fixation,257,820658,0.0-76.0-2.40,TRUE,TRUE,FALSE,FALSE,"""event"",""trial"",""time""
""fullscreenenter"",""5"",""13243""
","
","
","""event"",""trial"",""time""
""fullscreenenter"",""5"",""13243""
","
",NA,images/earth.jpg,NA,NA,NA,NA,NA,NA,NA,NA,NA,NA,NA,NA,NA,fixation,NA,NA,NA,NA,NA,NA,sub7
d3-animate-choice,258,822994,0.0-76.0-0.41,TRUE,TRUE,FALSE,FALSE,"""event"",""trial"",""time""
""fullscreenenter"",""5"",""13243""
","
","
","""event"",""trial"",""time""
""fullscreenenter"",""5"",""13243""
","
",330.6400000001304,NA,49,NA,NA,3000,1,NA,NA,images/earth.jpg,images/rocket2,images/rocket1,null,images/rocket1,NA,1,real,null,1,NA,NA,NA,sub7
d3-animate-choice,259,825385,0.0-76.0-1.41,TRUE,TRUE,FALSE,FALSE,"""event"",""trial"",""time""
""fullscreenenter"",""5"",""13243""
","
","
","""event"",""trial"",""time""
""fullscreenenter"",""5"",""13243""
","
",384.3250000063563,NA,49,NA,NA,3000,1,NA,NA,images/redplanet1.jpg,images/alien2,images/alien1,images/rocket1,images/alien1,images/nothing.png,2,real,true,1,common,0,2020-06-12T19:42:05Z,sub7
two-step-fixation,260,826390,0.0-76.0-2.41,TRUE,TRUE,FALSE,FALSE,"""event"",""trial"",""time""
""fullscreenenter"",""5"",""13243""
","
","
","""event"",""trial"",""time""
""fullscreenenter"",""5"",""13243""
","
",NA,images/earth.jpg,NA,NA,NA,NA,NA,NA,NA,NA,NA,NA,NA,NA,NA,fixation,NA,NA,NA,NA,NA,NA,sub7
d3-animate-choice,261,828777,0.0-76.0-0.42,TRUE,TRUE,FALSE,FALSE,"""event"",""trial"",""time""
""fullscreenenter"",""5"",""13243""
","
","
","""event"",""trial"",""time""
""fullscreenenter"",""5"",""13243""
","
",380.74500000220723,NA,48,NA,NA,3000,1,NA,NA,images/earth.jpg,images/rocket2,images/rocket1,null,images/rocket2,NA,1,real,null,2,NA,NA,NA,sub7
d3-animate-choice,262,831277,0.0-76.0-1.42,TRUE,TRUE,FALSE,FALSE,"""event"",""trial"",""time""
""fullscreenenter"",""5"",""13243""
","
","
","""event"",""trial"",""time""
""fullscreenenter"",""5"",""13243""
","
",494.925000006333,NA,48,NA,NA,3000,1,NA,NA,images/purpleplanet.jpg,images/alien4,images/alien3,images/rocket2,images/alien4,images/nothing.png,2,real,true,2,common,0,2020-06-12T19:42:11Z,sub7
two-step-fixation,263,832281,0.0-76.0-2.42,TRUE,TRUE,FALSE,FALSE,"""event"",""trial"",""time""
""fullscreenenter"",""5"",""13243""
","
","
","""event"",""trial"",""time""
""fullscreenenter"",""5"",""13243""
","
",NA,images/earth.jpg,NA,NA,NA,NA,NA,NA,NA,NA,NA,NA,NA,NA,NA,fixation,NA,NA,NA,NA,NA,NA,sub7
d3-animate-choice,264,834700,0.0-76.0-0.43,TRUE,TRUE,FALSE,FALSE,"""event"",""trial"",""time""
""fullscreenenter"",""5"",""13243""
","
","
","""event"",""trial"",""time""
""fullscreenenter"",""5"",""13243""
","
",412.77999999874737,NA,49,NA,NA,3000,1,NA,NA,images/earth.jpg,images/rocket2,images/rocket1,null,images/rocket1,NA,1,real,null,1,NA,NA,NA,sub7
d3-animate-choice,265,837121,0.0-76.0-1.43,TRUE,TRUE,FALSE,FALSE,"""event"",""trial"",""time""
""fullscreenenter"",""5"",""13243""
","
","
","""event"",""trial"",""time""
""fullscreenenter"",""5"",""13243""
","
",416.01500000979286,NA,49,NA,NA,3000,1,NA,NA,images/redplanet1.jpg,images/alien2,images/alien1,images/rocket1,images/alien1,images/nothing.png,2,real,true,1,common,0,2020-06-12T19:42:17Z,sub7
two-step-fixation,266,838126,0.0-76.0-2.43,TRUE,TRUE,FALSE,FALSE,"""event"",""trial"",""time""
""fullscreenenter"",""5"",""13243""
","
","
","""event"",""trial"",""time""
""fullscreenenter"",""5"",""13243""
","
",NA,images/earth.jpg,NA,NA,NA,NA,NA,NA,NA,NA,NA,NA,NA,NA,NA,fixation,NA,NA,NA,NA,NA,NA,sub7
d3-animate-choice,267,840641,0.0-76.0-0.44,TRUE,TRUE,FALSE,FALSE,"""event"",""trial"",""time""
""fullscreenenter"",""5"",""13243""
","
","
","""event"",""trial"",""time""
""fullscreenenter"",""5"",""13243""
","
",511.15500000014435,NA,49,NA,NA,3000,1,NA,NA,images/earth.jpg,images/rocket2,images/rocket1,null,images/rocket1,NA,1,real,null,1,NA,NA,NA,sub7
d3-animate-choice,268,843022,0.0-76.0-1.44,TRUE,TRUE,FALSE,FALSE,"""event"",""trial"",""time""
""fullscreenenter"",""5"",""13243""
","
","
","""event"",""trial"",""time""
""fullscreenenter"",""5"",""13243""
","
",375.66000000515487,NA,48,NA,NA,3000,1,NA,NA,images/redplanet1.jpg,images/alien2,images/alien1,images/rocket1,images/alien2,images/t.png,2,real,true,2,common,1,2020-06-12T19:42:23Z,sub7
two-step-fixation,269,844026,0.0-76.0-2.44,TRUE,TRUE,FALSE,FALSE,"""event"",""trial"",""time""
""fullscreenenter"",""5"",""13243""
","
","
","""event"",""trial"",""time""
""fullscreenenter"",""5"",""13243""
","
",NA,images/earth.jpg,NA,NA,NA,NA,NA,NA,NA,NA,NA,NA,NA,NA,NA,fixation,NA,NA,NA,NA,NA,NA,sub7
d3-animate-choice,270,846338,0.0-76.0-0.45,TRUE,TRUE,FALSE,FALSE,"""event"",""trial"",""time""
""fullscreenenter"",""5"",""13243""
","
","
","""event"",""trial"",""time""
""fullscreenenter"",""5"",""13243""
","
",307.30499999481253,NA,49,NA,NA,3000,1,NA,NA,images/earth.jpg,images/rocket2,images/rocket1,null,images/rocket1,NA,1,real,null,1,NA,NA,NA,sub7
d3-animate-choice,271,848804,0.0-76.0-1.45,TRUE,TRUE,FALSE,FALSE,"""event"",""trial"",""time""
""fullscreenenter"",""5"",""13243""
","
","
","""event"",""trial"",""time""
""fullscreenenter"",""5"",""13243""
","
",459.63499999197666,NA,48,NA,NA,3000,1,NA,NA,images/redplanet1.jpg,images/alien2,images/alien1,images/rocket1,images/alien2,images/t.png,2,real,true,2,common,1,2020-06-12T19:42:29Z,sub7
two-step-fixation,272,849813,0.0-76.0-2.45,TRUE,TRUE,FALSE,FALSE,"""event"",""trial"",""time""
""fullscreenenter"",""5"",""13243""
","
","
","""event"",""trial"",""time""
""fullscreenenter"",""5"",""13243""
","
",NA,images/earth.jpg,NA,NA,NA,NA,NA,NA,NA,NA,NA,NA,NA,NA,NA,fixation,NA,NA,NA,NA,NA,NA,sub7
d3-animate-choice,273,852433,0.0-76.0-0.46,TRUE,TRUE,FALSE,FALSE,"""event"",""trial"",""time""
""fullscreenenter"",""5"",""13243""
","
","
","""event"",""trial"",""time""
""fullscreenenter"",""5"",""13243""
","
",615.5549999966752,NA,48,NA,NA,3000,1,NA,NA,images/earth.jpg,images/rocket2,images/rocket1,null,images/rocket2,NA,1,real,null,2,NA,NA,NA,sub7
d3-animate-choice,274,855065,0.0-76.0-1.46,TRUE,TRUE,FALSE,FALSE,"""event"",""trial"",""time""
""fullscreenenter"",""5"",""13243""
","
","
","""event"",""trial"",""time""
""fullscreenenter"",""5"",""13243""
","
",626.4700000028824,NA,48,NA,NA,3000,1,NA,NA,images/purpleplanet.jpg,images/alien4,images/alien3,images/rocket2,images/alien4,images/nothing.png,2,real,true,2,common,0,2020-06-12T19:42:35Z,sub7
two-step-fixation,275,856072,0.0-76.0-2.46,TRUE,TRUE,FALSE,FALSE,"""event"",""trial"",""time""
""fullscreenenter"",""5"",""13243""
","
","
","""event"",""trial"",""time""
""fullscreenenter"",""5"",""13243""
","
",NA,images/earth.jpg,NA,NA,NA,NA,NA,NA,NA,NA,NA,NA,NA,NA,NA,fixation,NA,NA,NA,NA,NA,NA,sub7
d3-animate-choice,276,858426,0.0-76.0-0.47,TRUE,TRUE,FALSE,FALSE,"""event"",""trial"",""time""
""fullscreenenter"",""5"",""13243""
","
","
","""event"",""trial"",""time""
""fullscreenenter"",""5"",""13243""
","
",349.55000001355074,NA,49,NA,NA,3000,1,NA,NA,images/earth.jpg,images/rocket2,images/rocket1,null,images/rocket1,NA,1,real,null,1,NA,NA,NA,sub7
d3-animate-choice,277,860798,0.0-76.0-1.47,TRUE,TRUE,FALSE,FALSE,"""event"",""trial"",""time""
""fullscreenenter"",""5"",""13243""
","
","
","""event"",""trial"",""time""
""fullscreenenter"",""5"",""13243""
","
",366.3349999987986,NA,48,NA,NA,3000,1,NA,NA,images/redplanet1.jpg,images/alien2,images/alien1,images/rocket1,images/alien2,images/nothing.png,2,real,true,2,common,0,2020-06-12T19:42:41Z,sub7
two-step-fixation,278,861806,0.0-76.0-2.47,TRUE,TRUE,FALSE,FALSE,"""event"",""trial"",""time""
""fullscreenenter"",""5"",""13243""
","
","
","""event"",""trial"",""time""
""fullscreenenter"",""5"",""13243""
","
",NA,images/earth.jpg,NA,NA,NA,NA,NA,NA,NA,NA,NA,NA,NA,NA,NA,fixation,NA,NA,NA,NA,NA,NA,sub7
d3-animate-choice,279,864142,0.0-76.0-0.48,TRUE,TRUE,FALSE,FALSE,"""event"",""trial"",""time""
""fullscreenenter"",""5"",""13243""
","
","
","""event"",""trial"",""time""
""fullscreenenter"",""5"",""13243""
","
",331.43000000563916,NA,48,NA,NA,3000,1,NA,NA,images/earth.jpg,images/rocket2,images/rocket1,null,images/rocket2,NA,1,real,null,2,NA,NA,NA,sub7
d3-animate-choice,280,866555,0.0-76.0-1.48,TRUE,TRUE,FALSE,FALSE,"""event"",""trial"",""time""
""fullscreenenter"",""5"",""13243""
","
","
","""event"",""trial"",""time""
""fullscreenenter"",""5"",""13243""
","
",406.20499999204185,NA,49,NA,NA,3000,1,NA,NA,images/purpleplanet.jpg,images/alien4,images/alien3,images/rocket2,images/alien3,images/t.png,2,real,true,1,common,1,2020-06-12T19:42:46Z,sub7
two-step-fixation,281,867557,0.0-76.0-2.48,TRUE,TRUE,FALSE,FALSE,"""event"",""trial"",""time""
""fullscreenenter"",""5"",""13243""
","
","
","""event"",""trial"",""time""
""fullscreenenter"",""5"",""13243""
","
",NA,images/earth.jpg,NA,NA,NA,NA,NA,NA,NA,NA,NA,NA,NA,NA,NA,fixation,NA,NA,NA,NA,NA,NA,sub7
d3-animate-choice,282,869986,0.0-76.0-0.49,TRUE,TRUE,FALSE,FALSE,"""event"",""trial"",""time""
""fullscreenenter"",""5"",""13243""
","
","
","""event"",""trial"",""time""
""fullscreenenter"",""5"",""13243""
","
",422.55000000295695,NA,48,NA,NA,3000,1,NA,NA,images/earth.jpg,images/rocket2,images/rocket1,null,images/rocket2,NA,1,real,null,2,NA,NA,NA,sub7
d3-animate-choice,283,872430,0.0-76.0-1.49,TRUE,TRUE,FALSE,FALSE,"""event"",""trial"",""time""
""fullscreenenter"",""5"",""13243""
","
","
","""event"",""trial"",""time""
""fullscreenenter"",""5"",""13243""
","
",439.9849999899743,NA,49,NA,NA,3000,1,NA,NA,images/purpleplanet.jpg,images/alien4,images/alien3,images/rocket2,images/alien3,images/nothing.png,2,real,true,1,common,0,2020-06-12T19:42:52Z,sub7
two-step-fixation,284,873435,0.0-76.0-2.49,TRUE,TRUE,FALSE,FALSE,"""event"",""trial"",""time""
""fullscreenenter"",""5"",""13243""
","
","
","""event"",""trial"",""time""
