trial_type,trial_index,time_elapsed,internal_node_id,rocket_sides,red_planet_first_rocket,red_display_order,purple_display_order,interactions,blur_events,focus_events,fullscreenenter_events,fullscreenexit_events,rt,stimulus,key_press,button_pressed,success,duration,valid_pressed,rts,keys,planet_text,right_text,left_text,center_text,chosen_text,reward_text,trial_stage,practice_trial,transition_type,choice,transition,reward,timestamp,subject_id
pavlovia,0,7,0.0-0.0,TRUE,TRUE,FALSE,TRUE,"
","
","
","
","
",NA,NA,NA,NA,NA,NA,NA,NA,NA,NA,NA,NA,NA,NA,NA,NA,NA,NA,NA,NA,NA,NA,sub96
html-keyboard-response,1,2519,0.0-1.0,TRUE,TRUE,FALSE,TRUE,"
","
","
","
","
",2510.999999999998,Welcome! Press the space bar to begin.,32,NA,NA,NA,NA,NA,NA,NA,NA,NA,NA,NA,NA,NA,NA,NA,NA,NA,NA,NA,sub96
audio-keyboard-response,2,7169,0.0-2.0,TRUE,TRUE,FALSE,TRUE,"
","
","
","
","
",4647,audio/beep_loop.wav,32,NA,NA,NA,NA,NA,NA,NA,NA,NA,NA,NA,NA,NA,NA,NA,NA,NA,NA,NA,sub96
audio-button-response,3,12019,0.0-3.0,TRUE,TRUE,FALSE,TRUE,"
","
","
","
","
",NaN,audio/fish.mp3,NA,1,NA,NA,NA,NA,NA,NA,NA,NA,NA,NA,NA,NA,NA,NA,NA,NA,NA,NA,sub96
audio-button-response,4,14791,0.0-4.0,TRUE,TRUE,FALSE,TRUE,"""event"",""trial"",""time""
""fullscreenenter"",""5"",""20377""
","
","
","""event"",""trial"",""time""
""fullscreenenter"",""5"",""20377""
","
",NaN,audio/tiger.mp3,NA,4,NA,NA,NA,NA,NA,NA,NA,NA,NA,NA,NA,NA,NA,NA,NA,NA,NA,NA,sub96
fullscreen,5,20707,0.0-5.0,TRUE,TRUE,FALSE,TRUE,"""event"",""trial"",""time""
""fullscreenenter"",""5"",""20377""
","
","
","""event"",""trial"",""time""
""fullscreenenter"",""5"",""20377""
","
",NA,NA,NA,NA,TRUE,NA,NA,NA,NA,NA,NA,NA,NA,NA,NA,NA,NA,NA,NA,NA,NA,NA,sub96
d3-instructions,6,34853,0.0-6.0,TRUE,TRUE,FALSE,TRUE,"""event"",""trial"",""time""
""fullscreenenter"",""5"",""20377""
","
","
","""event"",""trial"",""time""
""fullscreenenter"",""5"",""20377""
","
",NA,NA,NA,NA,NA,NA,NA,NA,NA,NA,NA,NA,NA,NA,NA,NA,NA,NA,NA,NA,NA,NA,sub96
d3-instructions,7,49320,0.0-7.0,TRUE,TRUE,FALSE,TRUE,"""event"",""trial"",""time""
""fullscreenenter"",""5"",""20377""
","
","
","""event"",""trial"",""time""
""fullscreenenter"",""5"",""20377""
","
",NA,NA,NA,NA,NA,NA,NA,NA,NA,NA,NA,NA,NA,NA,NA,NA,NA,NA,NA,NA,NA,NA,sub96
d3-instructions,8,57969,0.0-8.0,TRUE,TRUE,FALSE,TRUE,"""event"",""trial"",""time""
""fullscreenenter"",""5"",""20377""
","
","
","""event"",""trial"",""time""
""fullscreenenter"",""5"",""20377""
","
",NA,NA,NA,NA,NA,NA,NA,NA,NA,NA,NA,NA,NA,NA,NA,NA,NA,NA,NA,NA,NA,NA,sub96
d3-instructions,9,73878,0.0-9.0,TRUE,TRUE,FALSE,TRUE,"""event"",""trial"",""time""
""fullscreenenter"",""5"",""20377""
""fullscreenexit"",""10"",""89688""
","
","
","""event"",""trial"",""time""
""fullscreenenter"",""5"",""20377""
","""event"",""trial"",""time""
""fullscreenexit"",""10"",""89688""
",NA,NA,NA,NA,NA,NA,NA,NA,NA,NA,NA,NA,NA,NA,NA,NA,NA,NA,NA,NA,NA,NA,sub96
d3-instructions,10,125988,0.0-10.0,TRUE,TRUE,FALSE,TRUE,"""event"",""trial"",""time""
""fullscreenenter"",""5"",""20377""
""fullscreenexit"",""10"",""89688""
","
","
","""event"",""trial"",""time""
""fullscreenenter"",""5"",""20377""
","""event"",""trial"",""time""
""fullscreenexit"",""10"",""89688""
",NA,NA,NA,NA,NA,NA,NA,NA,NA,NA,NA,NA,NA,NA,NA,NA,NA,NA,NA,NA,NA,NA,sub96
d3-animate-choice,11,131817,0.0-11.0,TRUE,TRUE,FALSE,TRUE,"""event"",""trial"",""time""
""fullscreenenter"",""5"",""20377""
""fullscreenexit"",""10"",""89688""
","
","
","""event"",""trial"",""time""
""fullscreenenter"",""5"",""20377""
","""event"",""trial"",""time""
""fullscreenexit"",""10"",""89688""
",3824,NA,49,NA,NA,3000,1,NA,NA,images/tutgreenplanet.jpg,images/tutalien1,images/tutalien2,null,images/tutalien2,NA,NA,practice,null,NA,NA,NA,NA,sub96
d3-animate-choice,12,135155,0.0-12.0,TRUE,TRUE,FALSE,TRUE,"""event"",""trial"",""time""
""fullscreenenter"",""5"",""20377""
""fullscreenexit"",""10"",""89688""
","
","
","""event"",""trial"",""time""
""fullscreenenter"",""5"",""20377""
","""event"",""trial"",""time""
""fullscreenexit"",""10"",""89688""
",1335,NA,48,NA,NA,3000,1,3026,49,images/tutgreenplanet.jpg,images/tutalien1,images/tutalien2,null,images/tutalien1,NA,NA,practice,null,NA,NA,NA,NA,sub96
d3-animate-choice,13,137452,0.0-13.0,TRUE,TRUE,FALSE,TRUE,"""event"",""trial"",""time""
""fullscreenenter"",""5"",""20377""
""fullscreenexit"",""10"",""89688""
","
","
","""event"",""trial"",""time""
""fullscreenenter"",""5"",""20377""
","""event"",""trial"",""time""
""fullscreenexit"",""10"",""89688""
",293,NA,49,NA,NA,3000,1,"1045,1567,1927,2214",49484848,images/tutgreenplanet.jpg,images/tutalien1,images/tutalien2,null,images/tutalien2,NA,NA,practice,null,NA,NA,NA,NA,sub96
d3-animate-choice,14,139568,0.0-14.0,TRUE,TRUE,FALSE,TRUE,"""event"",""trial"",""time""
""fullscreenenter"",""5"",""20377""
""fullscreenexit"",""10"",""89688""
","
","
","""event"",""trial"",""time""
""fullscreenenter"",""5"",""20377""
","""event"",""trial"",""time""
""fullscreenexit"",""10"",""89688""
",112,NA,48,NA,NA,3000,1,"321.0000000000291,548,771,1008,1330,1575,1831",48484849494949,images/tutgreenplanet.jpg,images/tutalien1,images/tutalien2,null,images/tutalien1,NA,NA,practice,null,NA,NA,NA,NA,sub96
d3-instructions,15,145856,0.0-15.0,TRUE,TRUE,FALSE,TRUE,"""event"",""trial"",""time""
""fullscreenenter"",""5"",""20377""
""fullscreenexit"",""10"",""89688""
","
","
","""event"",""trial"",""time""
""fullscreenenter"",""5"",""20377""
","""event"",""trial"",""time""
""fullscreenexit"",""10"",""89688""
",NA,NA,NA,NA,NA,NA,NA,NA,NA,NA,NA,NA,NA,NA,NA,NA,NA,NA,NA,NA,NA,NA,sub96
d3-instructions,16,151563,0.0-16.0,TRUE,TRUE,FALSE,TRUE,"""event"",""trial"",""time""
""fullscreenenter"",""5"",""20377""
""fullscreenexit"",""10"",""89688""
","
","
","""event"",""trial"",""time""
""fullscreenenter"",""5"",""20377""
","""event"",""trial"",""time""
""fullscreenexit"",""10"",""89688""
",NA,NA,NA,NA,NA,NA,NA,NA,NA,NA,NA,NA,NA,NA,NA,NA,NA,NA,NA,NA,NA,NA,sub96
d3-instructions,17,160781,0.0-17.0,TRUE,TRUE,FALSE,TRUE,"""event"",""trial"",""time""
""fullscreenenter"",""5"",""20377""
""fullscreenexit"",""10"",""89688""
","
","
","""event"",""trial"",""time""
""fullscreenenter"",""5"",""20377""
","""event"",""trial"",""time""
""fullscreenexit"",""10"",""89688""
",NA,NA,NA,NA,NA,NA,NA,NA,NA,NA,NA,NA,NA,NA,NA,NA,NA,NA,NA,NA,NA,NA,sub96
d3-instructions,18,173561,0.0-18.0,TRUE,TRUE,FALSE,TRUE,"""event"",""trial"",""time""
""fullscreenenter"",""5"",""20377""
""fullscreenexit"",""10"",""89688""
","
","
","""event"",""trial"",""time""
""fullscreenenter"",""5"",""20377""
","""event"",""trial"",""time""
""fullscreenexit"",""10"",""89688""
",NA,NA,NA,NA,NA,NA,NA,NA,NA,NA,NA,NA,NA,NA,NA,NA,NA,NA,NA,NA,NA,NA,sub96
d3-instructions,19,189849,0.0-19.0,TRUE,TRUE,FALSE,TRUE,"""event"",""trial"",""time""
""fullscreenenter"",""5"",""20377""
""fullscreenexit"",""10"",""89688""
","
","
","""event"",""trial"",""time""
""fullscreenenter"",""5"",""20377""
","""event"",""trial"",""time""
""fullscreenexit"",""10"",""89688""
",NA,NA,NA,NA,NA,NA,NA,NA,NA,NA,NA,NA,NA,NA,NA,NA,NA,NA,NA,NA,NA,NA,sub96
d3-animate-choice,20,194309,0.0-20.0,TRUE,TRUE,FALSE,TRUE,"""event"",""trial"",""time""
""fullscreenenter"",""5"",""20377""
""fullscreenexit"",""10"",""89688""
","
","
","""event"",""trial"",""time""
""fullscreenenter"",""5"",""20377""
","""event"",""trial"",""time""
""fullscreenexit"",""10"",""89688""
",2459,NA,49,NA,NA,3000,1,"2649,2899,3099,3279,3482,3672,3860.000000000029,4071,4280",494949494949494900,images/tutyellowplanet.jpg,null,images/tutalien3,null,images/tutalien3,images/t.png,NA,practice,null,NA,NA,NA,NA,sub96
d3-animate-choice,21,197815,0.0-21.0,TRUE,TRUE,FALSE,TRUE,"""event"",""trial"",""time""
""fullscreenenter"",""5"",""20377""
""fullscreenexit"",""10"",""89688""
","
","
","""event"",""trial"",""time""
""fullscreenenter"",""5"",""20377""
","""event"",""trial"",""time""
""fullscreenexit"",""10"",""89688""
",1502,NA,49,NA,NA,3000,1,"1696,2550,2708,2881",49494949,images/tutyellowplanet.jpg,null,images/tutalien3,null,images/tutalien3,images/nothing.png,NA,practice,null,NA,NA,NA,NA,sub96
d3-animate-choice,22,200755,0.0-22.0,TRUE,TRUE,FALSE,TRUE,"""event"",""trial"",""time""
""fullscreenenter"",""5"",""20377""
""fullscreenexit"",""10"",""89688""
","
","
","""event"",""trial"",""time""
""fullscreenenter"",""5"",""20377""
","""event"",""trial"",""time""
""fullscreenexit"",""10"",""89688""
",936,NA,49,NA,NA,3000,1,"1094.000000000029,1256,1435,1586,1755.000000000029,1935,2104",49494949494949,images/tutyellowplanet.jpg,null,images/tutalien3,null,images/tutalien3,images/t.png,NA,practice,null,NA,NA,NA,NA,sub96
d3-animate-choice,23,203623,0.0-23.0,TRUE,TRUE,FALSE,TRUE,"""event"",""trial"",""time""
""fullscreenenter"",""5"",""20377""
""fullscreenexit"",""10"",""89688""
","
","
","""event"",""trial"",""time""
""fullscreenenter"",""5"",""20377""
","""event"",""trial"",""time""
""fullscreenexit"",""10"",""89688""
",863.9999999999709,NA,49,NA,NA,3000,1,"1042,1201.999999999971,1365.999999999971,1521.999999999971,1687.999999999971,1852.999999999971,2025.999999999971",49494949494949,images/tutyellowplanet.jpg,null,images/tutalien3,null,images/tutalien3,images/t.png,NA,practice,null,NA,NA,NA,NA,sub96
d3-animate-choice,24,205800,0.0-24.0,TRUE,TRUE,FALSE,TRUE,"""event"",""trial"",""time""
""fullscreenenter"",""5"",""20377""
""fullscreenexit"",""10"",""89688""
","
","
","""event"",""trial"",""time""
""fullscreenenter"",""5"",""20377""
","""event"",""trial"",""time""
""fullscreenexit"",""10"",""89688""
",174.0000000000291,NA,49,NA,NA,3000,1,"342,519.0000000000291,672,815,984,1152,1326",49494949494949,images/tutyellowplanet.jpg,null,images/tutalien3,null,images/tutalien3,images/t.png,NA,practice,null,NA,NA,NA,NA,sub96
d3-animate-choice,25,208232,0.0-25.0,TRUE,TRUE,FALSE,TRUE,"""event"",""trial"",""time""
""fullscreenenter"",""5"",""20377""
""fullscreenexit"",""10"",""89688""
","
","
","""event"",""trial"",""time""
""fullscreenenter"",""5"",""20377""
","""event"",""trial"",""time""
""fullscreenexit"",""10"",""89688""
",430,NA,49,NA,NA,3000,1,"616,793,976,1151,1321,1498.000000000029,1681",49494949494949,images/tutyellowplanet.jpg,null,images/tutalien3,null,images/tutalien3,images/t.png,NA,practice,null,NA,NA,NA,NA,sub96
d3-animate-choice,26,210629,0.0-26.0,TRUE,TRUE,FALSE,TRUE,"""event"",""trial"",""time""
""fullscreenenter"",""5"",""20377""
""fullscreenexit"",""10"",""89688""
","
","
","""event"",""trial"",""time""
""fullscreenenter"",""5"",""20377""
","""event"",""trial"",""time""
""fullscreenexit"",""10"",""89688""
",394,NA,49,NA,NA,3000,1,"580,755,928.0000000000291,1094,1247,1499",494949494949,images/tutyellowplanet.jpg,null,images/tutalien3,null,images/tutalien3,images/t.png,NA,practice,null,NA,NA,NA,NA,sub96
d3-animate-choice,27,212647,0.0-27.0,TRUE,TRUE,FALSE,TRUE,"""event"",""trial"",""time""
""fullscreenenter"",""5"",""20377""
""fullscreenexit"",""10"",""89688""
","
","
","""event"",""trial"",""time""
""fullscreenenter"",""5"",""20377""
","""event"",""trial"",""time""
""fullscreenexit"",""10"",""89688""
",15,NA,49,NA,NA,3000,1,"192.0000000000291,377,569,746,1196",4949494949,images/tutyellowplanet.jpg,null,images/tutalien3,null,images/tutalien3,images/t.png,NA,practice,null,NA,NA,NA,NA,sub96
d3-animate-choice,28,215166,0.0-28.0,TRUE,TRUE,FALSE,TRUE,"""event"",""trial"",""time""
""fullscreenenter"",""5"",""20377""
""fullscreenexit"",""10"",""89688""
","
","
","""event"",""trial"",""time""
""fullscreenenter"",""5"",""20377""
","""event"",""trial"",""time""
""fullscreenexit"",""10"",""89688""
",516,NA,49,NA,NA,3000,1,"713,899,1059,1226,1400.000000000029,1605",494949494949,images/tutyellowplanet.jpg,null,images/tutalien3,null,images/tutalien3,images/t.png,NA,practice,null,NA,NA,NA,NA,sub96
d3-animate-choice,29,217676,0.0-29.0,TRUE,TRUE,FALSE,TRUE,"""event"",""trial"",""time""
""fullscreenenter"",""5"",""20377""
""fullscreenexit"",""10"",""89688""
","
","
","""event"",""trial"",""time""
""fullscreenenter"",""5"",""20377""
","""event"",""trial"",""time""
""fullscreenexit"",""10"",""89688""
",506.9999999999709,NA,49,NA,NA,3000,1,"686.9999999999709,884.9999999999709,1081.999999999971,1262,1432.999999999971,1601.999999999971,1790.999999999971",49494949494949,images/tutyellowplanet.jpg,null,images/tutalien3,null,images/tutalien3,images/t.png,NA,practice,null,NA,NA,NA,NA,sub96
d3-instructions,30,224851,0.0-30.0,TRUE,TRUE,FALSE,TRUE,"""event"",""trial"",""time""
""fullscreenenter"",""5"",""20377""
""fullscreenexit"",""10"",""89688""
","
","
","""event"",""trial"",""time""
""fullscreenenter"",""5"",""20377""
","""event"",""trial"",""time""
""fullscreenexit"",""10"",""89688""
",NA,NA,NA,NA,NA,NA,NA,NA,NA,NA,NA,NA,NA,NA,NA,NA,NA,NA,NA,NA,NA,NA,sub96
d3-instructions,31,234898,0.0-31.0,TRUE,TRUE,FALSE,TRUE,"""event"",""trial"",""time""
""fullscreenenter"",""5"",""20377""
""fullscreenexit"",""10"",""89688""
","
","
","""event"",""trial"",""time""
""fullscreenenter"",""5"",""20377""
","""event"",""trial"",""time""
""fullscreenexit"",""10"",""89688""
",NA,NA,NA,NA,NA,NA,NA,NA,NA,NA,NA,NA,NA,NA,NA,NA,NA,NA,NA,NA,NA,NA,sub96
d3-instructions,32,242047,0.0-32.0,TRUE,TRUE,FALSE,TRUE,"""event"",""trial"",""time""
""fullscreenenter"",""5"",""20377""
""fullscreenexit"",""10"",""89688""
","
","
","""event"",""trial"",""time""
""fullscreenenter"",""5"",""20377""
","""event"",""trial"",""time""
""fullscreenexit"",""10"",""89688""
",NA,NA,NA,NA,NA,NA,NA,NA,NA,NA,NA,NA,NA,NA,NA,NA,NA,NA,NA,NA,NA,NA,sub96
d3-instructions,33,246117,0.0-33.0,TRUE,TRUE,FALSE,TRUE,"""event"",""trial"",""time""
""fullscreenenter"",""5"",""20377""
""fullscreenexit"",""10"",""89688""
","
","
","""event"",""trial"",""time""
""fullscreenenter"",""5"",""20377""
","""event"",""trial"",""time""
""fullscreenexit"",""10"",""89688""
",NA,NA,NA,NA,NA,NA,NA,NA,NA,NA,NA,NA,NA,NA,NA,NA,NA,NA,NA,NA,NA,NA,sub96
d3-animate-choice,34,254190,0.0-34.0,TRUE,TRUE,FALSE,TRUE,"""event"",""trial"",""time""
""fullscreenenter"",""5"",""20377""
""fullscreenexit"",""10"",""89688""
","
","
","""event"",""trial"",""time""
""fullscreenenter"",""5"",""20377""
","""event"",""trial"",""time""
""fullscreenexit"",""10"",""89688""
",6070,NA,49,NA,NA,3000,1,7114,49,images/tutgreenplanet.jpg,images/tutalien1,images/tutalien2,null,images/tutalien2,images/t.png,NA,practice,null,NA,NA,NA,NA,sub96
d3-animate-choice,35,257438,0.0-35.0,TRUE,TRUE,FALSE,TRUE,"""event"",""trial"",""time""
""fullscreenenter"",""5"",""20377""
""fullscreenexit"",""10"",""89688""
","
","
","""event"",""trial"",""time""
""fullscreenenter"",""5"",""20377""
","""event"",""trial"",""time""
""fullscreenexit"",""10"",""89688""
",1246,NA,49,NA,NA,3000,1,"1639,2252",4949,images/tutgreenplanet.jpg,images/tutalien1,images/tutalien2,null,images/tutalien2,images/t.png,NA,practice,null,NA,NA,NA,NA,sub96
d3-animate-choice,36,260265,0.0-36.0,TRUE,TRUE,FALSE,TRUE,"""event"",""trial"",""time""
""fullscreenenter"",""5"",""20377""
""fullscreenexit"",""10"",""89688""
","
","
","""event"",""trial"",""time""
""fullscreenenter"",""5"",""20377""
","""event"",""trial"",""time""
""fullscreenexit"",""10"",""89688""
",824,NA,48,NA,NA,3000,1,"1306,2040",4848,images/tutgreenplanet.jpg,images/tutalien1,images/tutalien2,null,images/tutalien1,images/nothing.png,NA,practice,null,NA,NA,NA,NA,sub96
d3-animate-choice,37,262691,0.0-37.0,TRUE,TRUE,FALSE,TRUE,"""event"",""trial"",""time""
""fullscreenenter"",""5"",""20377""
""fullscreenexit"",""10"",""89688""
","
","
","""event"",""trial"",""time""
""fullscreenenter"",""5"",""20377""
","""event"",""trial"",""time""
""fullscreenexit"",""10"",""89688""
",423,NA,49,NA,NA,3000,1,"795,1263",4949,images/tutgreenplanet.jpg,images/tutalien1,images/tutalien2,null,images/tutalien2,images/t.png,NA,practice,null,NA,NA,NA,NA,sub96
d3-animate-choice,38,265402,0.0-38.0,TRUE,TRUE,FALSE,TRUE,"""event"",""trial"",""time""
""fullscreenenter"",""5"",""20377""
""fullscreenexit"",""10"",""89688""
","
","
","""event"",""trial"",""time""
""fullscreenenter"",""5"",""20377""
","""event"",""trial"",""time""
""fullscreenexit"",""10"",""89688""
",708,NA,49,NA,NA,3000,1,"1084,1646",4949,images/tutgreenplanet.jpg,images/tutalien1,images/tutalien2,null,images/tutalien2,images/t.png,NA,practice,null,NA,NA,NA,NA,sub96
d3-animate-choice,39,268081,0.0-39.0,TRUE,TRUE,FALSE,TRUE,"""event"",""trial"",""time""
""fullscreenenter"",""5"",""20377""
""fullscreenexit"",""10"",""89688""
","
","
","""event"",""trial"",""time""
""fullscreenenter"",""5"",""20377""
","""event"",""trial"",""time""
""fullscreenexit"",""10"",""89688""
",676,NA,48,NA,NA,3000,1,"1053,1691",4848,images/tutgreenplanet.jpg,images/tutalien1,images/tutalien2,null,images/tutalien1,images/nothing.png,NA,practice,null,NA,NA,NA,NA,sub96
d3-animate-choice,40,270438,0.0-40.0,TRUE,TRUE,FALSE,TRUE,"""event"",""trial"",""time""
""fullscreenenter"",""5"",""20377""
""fullscreenexit"",""10"",""89688""
","
","
","""event"",""trial"",""time""
""fullscreenenter"",""5"",""20377""
","""event"",""trial"",""time""
""fullscreenexit"",""10"",""89688""
",355,NA,49,NA,NA,3000,1,"666,1195,1874.0000000000582,2170",49494949,images/tutgreenplanet.jpg,images/tutalien1,images/tutalien2,null,images/tutalien2,images/t.png,NA,practice,null,NA,NA,NA,NA,sub96
d3-animate-choice,41,272777,0.0-41.0,TRUE,TRUE,FALSE,TRUE,"""event"",""trial"",""time""
""fullscreenenter"",""5"",""20377""
""fullscreenexit"",""10"",""89688""
","
","
","""event"",""trial"",""time""
""fullscreenenter"",""5"",""20377""
","""event"",""trial"",""time""
""fullscreenexit"",""10"",""89688""
",336,NA,49,NA,NA,3000,1,"611,890",4949,images/tutgreenplanet.jpg,images/tutalien1,images/tutalien2,null,images/tutalien2,images/t.png,NA,practice,null,NA,NA,NA,NA,sub96
d3-animate-choice,42,275107,0.0-42.0,TRUE,TRUE,FALSE,TRUE,"""event"",""trial"",""time""
""fullscreenenter"",""5"",""20377""
""fullscreenexit"",""10"",""89688""
","
","
","""event"",""trial"",""time""
""fullscreenenter"",""5"",""20377""
","""event"",""trial"",""time""
""fullscreenexit"",""10"",""89688""
",326.0000000000582,NA,49,NA,NA,3000,1,"600.0000000000582,1140,1580",494949,images/tutgreenplanet.jpg,images/tutalien1,images/tutalien2,null,images/tutalien2,images/t.png,NA,practice,null,NA,NA,NA,NA,sub96
d3-animate-choice,43,277438,0.0-43.0,TRUE,TRUE,FALSE,TRUE,"""event"",""trial"",""time""
""fullscreenenter"",""5"",""20377""
""fullscreenexit"",""10"",""89688""
","
","
","""event"",""trial"",""time""
""fullscreenenter"",""5"",""20377""
","""event"",""trial"",""time""
""fullscreenexit"",""10"",""89688""
",328,NA,49,NA,NA,3000,1,861,49,images/tutgreenplanet.jpg,images/tutalien1,images/tutalien2,null,images/tutalien2,images/t.png,NA,practice,null,NA,NA,NA,NA,sub96
d3-instructions,44,282376,0.0-44.0,TRUE,TRUE,FALSE,TRUE,"""event"",""trial"",""time""
""fullscreenenter"",""5"",""20377""
""fullscreenexit"",""10"",""89688""
","
","
","""event"",""trial"",""time""
""fullscreenenter"",""5"",""20377""
","""event"",""trial"",""time""
""fullscreenexit"",""10"",""89688""
",NA,NA,NA,NA,NA,NA,NA,NA,NA,NA,NA,NA,NA,NA,NA,NA,NA,NA,NA,NA,NA,NA,sub96
d3-instructions,45,287042,0.0-45.0,TRUE,TRUE,FALSE,TRUE,"""event"",""trial"",""time""
""fullscreenenter"",""5"",""20377""
""fullscreenexit"",""10"",""89688""
","
","
","""event"",""trial"",""time""
""fullscreenenter"",""5"",""20377""
","""event"",""trial"",""time""
""fullscreenexit"",""10"",""89688""
",NA,NA,NA,NA,NA,NA,NA,NA,NA,NA,NA,NA,NA,NA,NA,NA,NA,NA,NA,NA,NA,NA,sub96
d3-instructions,46,290403,0.0-46.0,TRUE,TRUE,FALSE,TRUE,"""event"",""trial"",""time""
""fullscreenenter"",""5"",""20377""
""fullscreenexit"",""10"",""89688""
","
","
","""event"",""trial"",""time""
""fullscreenenter"",""5"",""20377""
","""event"",""trial"",""time""
""fullscreenexit"",""10"",""89688""
",NA,NA,NA,NA,NA,NA,NA,NA,NA,NA,NA,NA,NA,NA,NA,NA,NA,NA,NA,NA,NA,NA,sub96
d3-instructions,47,302172,0.0-47.0,TRUE,TRUE,FALSE,TRUE,"""event"",""trial"",""time""
""fullscreenenter"",""5"",""20377""
""fullscreenexit"",""10"",""89688""
","
","
","""event"",""trial"",""time""
""fullscreenenter"",""5"",""20377""
","""event"",""trial"",""time""
""fullscreenexit"",""10"",""89688""
",NA,NA,NA,NA,NA,NA,NA,NA,NA,NA,NA,NA,NA,NA,NA,NA,NA,NA,NA,NA,NA,NA,sub96
d3-instructions,48,307000,0.0-48.0,TRUE,TRUE,FALSE,TRUE,"""event"",""trial"",""time""
""fullscreenenter"",""5"",""20377""
""fullscreenexit"",""10"",""89688""
","
","
","""event"",""trial"",""time""
""fullscreenenter"",""5"",""20377""
","""event"",""trial"",""time""
""fullscreenexit"",""10"",""89688""
",NA,NA,NA,NA,NA,NA,NA,NA,NA,NA,NA,NA,NA,NA,NA,NA,NA,NA,NA,NA,NA,NA,sub96
d3-instructions,49,316082,0.0-49.0,TRUE,TRUE,FALSE,TRUE,"""event"",""trial"",""time""
""fullscreenenter"",""5"",""20377""
""fullscreenexit"",""10"",""89688""
","
","
","""event"",""trial"",""time""
""fullscreenenter"",""5"",""20377""
","""event"",""trial"",""time""
""fullscreenexit"",""10"",""89688""
",NA,NA,NA,NA,NA,NA,NA,NA,NA,NA,NA,NA,NA,NA,NA,NA,NA,NA,NA,NA,NA,NA,sub96
d3-instructions,50,322005,0.0-50.0,TRUE,TRUE,FALSE,TRUE,"""event"",""trial"",""time""
""fullscreenenter"",""5"",""20377""
""fullscreenexit"",""10"",""89688""
","
","
","""event"",""trial"",""time""
""fullscreenenter"",""5"",""20377""
","""event"",""trial"",""time""
""fullscreenexit"",""10"",""89688""
",NA,NA,NA,NA,NA,NA,NA,NA,NA,NA,NA,NA,NA,NA,NA,NA,NA,NA,NA,NA,NA,NA,sub96
d3-instructions,51,324891,0.0-51.0,TRUE,TRUE,FALSE,TRUE,"""event"",""trial"",""time""
""fullscreenenter"",""5"",""20377""
""fullscreenexit"",""10"",""89688""
","
","
","""event"",""trial"",""time""
""fullscreenenter"",""5"",""20377""
","""event"",""trial"",""time""
""fullscreenexit"",""10"",""89688""
",NA,NA,NA,NA,NA,NA,NA,NA,NA,NA,NA,NA,NA,NA,NA,NA,NA,NA,NA,NA,NA,NA,sub96
d3-instructions,52,326509,0.0-52.0,TRUE,TRUE,FALSE,TRUE,"""event"",""trial"",""time""
""fullscreenenter"",""5"",""20377""
""fullscreenexit"",""10"",""89688""
","
","
","""event"",""trial"",""time""
""fullscreenenter"",""5"",""20377""
","""event"",""trial"",""time""
""fullscreenexit"",""10"",""89688""
",NA,NA,NA,NA,NA,NA,NA,NA,NA,NA,NA,NA,NA,NA,NA,NA,NA,NA,NA,NA,NA,NA,sub96
d3-instructions,53,337009,0.0-53.0,TRUE,TRUE,FALSE,TRUE,"""event"",""trial"",""time""
""fullscreenenter"",""5"",""20377""
""fullscreenexit"",""10"",""89688""
","
","
","""event"",""trial"",""time""
""fullscreenenter"",""5"",""20377""
","""event"",""trial"",""time""
""fullscreenexit"",""10"",""89688""
",NA,NA,NA,NA,NA,NA,NA,NA,NA,NA,NA,NA,NA,NA,NA,NA,NA,NA,NA,NA,NA,NA,sub96
d3-instructions,54,348533,0.0-54.0,TRUE,TRUE,FALSE,TRUE,"""event"",""trial"",""time""
""fullscreenenter"",""5"",""20377""
""fullscreenexit"",""10"",""89688""
","
","
","""event"",""trial"",""time""
""fullscreenenter"",""5"",""20377""
","""event"",""trial"",""time""
""fullscreenexit"",""10"",""89688""
",NA,NA,NA,NA,NA,NA,NA,NA,NA,NA,NA,NA,NA,NA,NA,NA,NA,NA,NA,NA,NA,NA,sub96
d3-instructions,55,350596,0.0-55.0,TRUE,TRUE,FALSE,TRUE,"""event"",""trial"",""time""
""fullscreenenter"",""5"",""20377""
""fullscreenexit"",""10"",""89688""
","
","
","""event"",""trial"",""time""
""fullscreenenter"",""5"",""20377""
","""event"",""trial"",""time""
""fullscreenexit"",""10"",""89688""
",NA,NA,NA,NA,NA,NA,NA,NA,NA,NA,NA,NA,NA,NA,NA,NA,NA,NA,NA,NA,NA,NA,sub96
d3-instructions,56,352585,0.0-56.0,TRUE,TRUE,FALSE,TRUE,"""event"",""trial"",""time""
""fullscreenenter"",""5"",""20377""
""fullscreenexit"",""10"",""89688""
","
","
","""event"",""trial"",""time""
""fullscreenenter"",""5"",""20377""
","""event"",""trial"",""time""
""fullscreenexit"",""10"",""89688""
",NA,NA,NA,NA,NA,NA,NA,NA,NA,NA,NA,NA,NA,NA,NA,NA,NA,NA,NA,NA,NA,NA,sub96
d3-instructions,57,362359,0.0-57.0,TRUE,TRUE,FALSE,TRUE,"""event"",""trial"",""time""
""fullscreenenter"",""5"",""20377""
""fullscreenexit"",""10"",""89688""
","
","
","""event"",""trial"",""time""
""fullscreenenter"",""5"",""20377""
","""event"",""trial"",""time""
""fullscreenexit"",""10"",""89688""
",NA,NA,NA,NA,NA,NA,NA,NA,NA,NA,NA,NA,NA,NA,NA,NA,NA,NA,NA,NA,NA,NA,sub96
d3-instructions,58,373553,0.0-58.0,TRUE,TRUE,FALSE,TRUE,"""event"",""trial"",""time""
""fullscreenenter"",""5"",""20377""
""fullscreenexit"",""10"",""89688""
","
","
","""event"",""trial"",""time""
""fullscreenenter"",""5"",""20377""
","""event"",""trial"",""time""
""fullscreenexit"",""10"",""89688""
",NA,NA,NA,NA,NA,NA,NA,NA,NA,NA,NA,NA,NA,NA,NA,NA,NA,NA,NA,NA,NA,NA,sub96
d3-instructions,59,378269,0.0-59.0,TRUE,TRUE,FALSE,TRUE,"""event"",""trial"",""time""
""fullscreenenter"",""5"",""20377""
""fullscreenexit"",""10"",""89688""
","
","
","""event"",""trial"",""time""
""fullscreenenter"",""5"",""20377""
","""event"",""trial"",""time""
""fullscreenexit"",""10"",""89688""
",NA,NA,NA,NA,NA,NA,NA,NA,NA,NA,NA,NA,NA,NA,NA,NA,NA,NA,NA,NA,NA,NA,sub96
d3-instructions,60,385597,0.0-60.0,TRUE,TRUE,FALSE,TRUE,"""event"",""trial"",""time""
""fullscreenenter"",""5"",""20377""
""fullscreenexit"",""10"",""89688""
","
","
","""event"",""trial"",""time""
""fullscreenenter"",""5"",""20377""
","""event"",""trial"",""time""
""fullscreenexit"",""10"",""89688""
",NA,NA,NA,NA,NA,NA,NA,NA,NA,NA,NA,NA,NA,NA,NA,NA,NA,NA,NA,NA,NA,NA,sub96
d3-animate-choice,61,388436,0.0-61.0-0.0,TRUE,TRUE,FALSE,TRUE,"""event"",""trial"",""time""
""fullscreenenter"",""5"",""20377""
""fullscreenexit"",""10"",""89688""
","
","
","""event"",""trial"",""time""
""fullscreenenter"",""5"",""20377""
","""event"",""trial"",""time""
""fullscreenexit"",""10"",""89688""
",837,NA,48,NA,NA,3000,1,"1703.0000000000582,1891,2052,2204,2362,2515,2672.000000000058",48484848484848,images/earth.jpg,images/tutrocket2,images/tutrocket1,null,images/tutrocket2,NA,1,practice,null,2,NA,NA,NA,sub96
d3-animate-choice,62,390441,0.0-61.0-1.0,TRUE,TRUE,FALSE,TRUE,"""event"",""trial"",""time""
""fullscreenenter"",""5"",""20377""
""fullscreenexit"",""10"",""89688""
","
","
","""event"",""trial"",""time""
""fullscreenenter"",""5"",""20377""
","""event"",""trial"",""time""
""fullscreenexit"",""10"",""89688""
",0,NA,48,NA,NA,3000,1,"173,367.0000000000582,539,704,891.0000000000582,1081.0000000000582,1297",48484848484848,images/tutgreenplanet.jpg,images/tutalien2,images/tutalien1,images/tutrocket2,images/tutalien2,images/nothing.png,2,practice,false,2,rare,0,2020-06-18T18:49:38Z,sub96
two-step-fixation,63,391445,0.0-61.0-2.0,TRUE,TRUE,FALSE,TRUE,"""event"",""trial"",""time""
""fullscreenenter"",""5"",""20377""
""fullscreenexit"",""10"",""89688""
","
","
","""event"",""trial"",""time""
""fullscreenenter"",""5"",""20377""
","""event"",""trial"",""time""
""fullscreenexit"",""10"",""89688""
",NA,images/earth.jpg,NA,NA,NA,NA,NA,NA,NA,NA,NA,NA,NA,NA,NA,fixation,NA,NA,NA,NA,NA,NA,sub96
d3-animate-choice,64,394382,0.0-61.0-0.1,TRUE,TRUE,FALSE,TRUE,"""event"",""trial"",""time""
""fullscreenenter"",""5"",""20377""
""fullscreenexit"",""10"",""89688""
","
","
","""event"",""trial"",""time""
""fullscreenenter"",""5"",""20377""
","""event"",""trial"",""time""
""fullscreenexit"",""10"",""89688""
",936,NA,49,NA,NA,3000,1,"1550,2230.000000000058",4949,images/earth.jpg,images/tutrocket2,images/tutrocket1,null,images/tutrocket1,NA,1,practice,null,1,NA,NA,NA,sub96
d3-animate-choice,65,397296,0.0-61.0-1.1,TRUE,TRUE,FALSE,TRUE,"""event"",""trial"",""time""
""fullscreenenter"",""5"",""20377""
""fullscreenexit"",""10"",""89688""
","
","
","""event"",""trial"",""time""
""fullscreenenter"",""5"",""20377""
","""event"",""trial"",""time""
""fullscreenexit"",""10"",""89688""
",911,NA,48,NA,NA,3000,1,2156,48,images/tutgreenplanet.jpg,images/tutalien2,images/tutalien1,images/tutrocket1,images/tutalien2,images/nothing.png,2,practice,true,2,common,0,2020-06-18T18:49:45Z,sub96
two-step-fixation,66,398297,0.0-61.0-2.1,TRUE,TRUE,FALSE,TRUE,"""event"",""trial"",""time""
""fullscreenenter"",""5"",""20377""
""fullscreenexit"",""10"",""89688""
","
","
","""event"",""trial"",""time""
""fullscreenenter"",""5"",""20377""
","""event"",""trial"",""time""
""fullscreenexit"",""10"",""89688""
",NA,images/earth.jpg,NA,NA,NA,NA,NA,NA,NA,NA,NA,NA,NA,NA,NA,fixation,NA,NA,NA,NA,NA,NA,sub96
d3-animate-choice,67,400804,0.0-61.0-0.2,TRUE,TRUE,FALSE,TRUE,"""event"",""trial"",""time""
""fullscreenenter"",""5"",""20377""
""fullscreenexit"",""10"",""89688""
","
","
","""event"",""trial"",""time""
""fullscreenenter"",""5"",""20377""
","""event"",""trial"",""time""
""fullscreenexit"",""10"",""89688""
",505,NA,49,NA,NA,3000,1,1234,49,images/earth.jpg,images/tutrocket2,images/tutrocket1,null,images/tutrocket1,NA,1,practice,null,1,NA,NA,NA,sub96
d3-animate-choice,68,403692,0.0-61.0-1.2,TRUE,TRUE,FALSE,TRUE,"""event"",""trial"",""time""
""fullscreenenter"",""5"",""20377""
""fullscreenexit"",""10"",""89688""
","
","
","""event"",""trial"",""time""
""fullscreenenter"",""5"",""20377""
","""event"",""trial"",""time""
""fullscreenexit"",""10"",""89688""
",883.9999999999418,NA,49,NA,NA,3000,1,"1090.9999999999418,1310.9999999999418,1927.9999999999418,2145.999999999942,2365.999999999942",4949494949,images/tutyellowplanet.jpg,images/tutalien4,images/tutalien3,images/tutrocket1,images/tutalien3,images/nothing.png,2,practice,false,1,rare,0,2020-06-18T18:49:51Z,sub96
two-step-fixation,69,404695,0.0-61.0-2.2,TRUE,TRUE,FALSE,TRUE,"""event"",""trial"",""time""
""fullscreenenter"",""5"",""20377""
""fullscreenexit"",""10"",""89688""
","
","
","""event"",""trial"",""time""
""fullscreenenter"",""5"",""20377""
","""event"",""trial"",""time""
""fullscreenexit"",""10"",""89688""
",NA,images/earth.jpg,NA,NA,NA,NA,NA,NA,NA,NA,NA,NA,NA,NA,NA,fixation,NA,NA,NA,NA,NA,NA,sub96
d3-animate-choice,70,406996,0.0-61.0-0.3,TRUE,TRUE,FALSE,TRUE,"""event"",""trial"",""time""
""fullscreenenter"",""5"",""20377""
""fullscreenexit"",""10"",""89688""
","
","
","""event"",""trial"",""time""
""fullscreenenter"",""5"",""20377""
","""event"",""trial"",""time""
""fullscreenexit"",""10"",""89688""
",298,NA,48,NA,NA,3000,1,"509,715,1057,1238,1762",4848484848,images/earth.jpg,images/tutrocket2,images/tutrocket1,null,images/tutrocket2,NA,1,practice,null,2,NA,NA,NA,sub96
d3-animate-choice,71,409471,0.0-61.0-1.3,TRUE,TRUE,FALSE,TRUE,"""event"",""trial"",""time""
""fullscreenenter"",""5"",""20377""
""fullscreenexit"",""10"",""89688""
","
","
","""event"",""trial"",""time""
""fullscreenenter"",""5"",""20377""
","""event"",""trial"",""time""
""fullscreenexit"",""10"",""89688""
",472,NA,49,NA,NA,3000,1,"681,857,1351,1549",49494949,images/tutyellowplanet.jpg,images/tutalien4,images/tutalien3,images/tutrocket2,images/tutalien3,images/nothing.png,2,practice,true,1,common,0,2020-06-18T18:49:57Z,sub96
two-step-fixation,72,410473,0.0-61.0-2.3,TRUE,TRUE,FALSE,TRUE,"""event"",""trial"",""time""
""fullscreenenter"",""5"",""20377""
""fullscreenexit"",""10"",""89688""
","
","
","""event"",""trial"",""time""
""fullscreenenter"",""5"",""20377""
","""event"",""trial"",""time""
""fullscreenexit"",""10"",""89688""
",NA,images/earth.jpg,NA,NA,NA,NA,NA,NA,NA,NA,NA,NA,NA,NA,NA,fixation,NA,NA,NA,NA,NA,NA,sub96
d3-animate-choice,73,412971,0.0-61.0-0.4,TRUE,TRUE,FALSE,TRUE,"""event"",""trial"",""time""
""fullscreenenter"",""5"",""20377""
""fullscreenexit"",""10"",""89688""
","
","
","""event"",""trial"",""time""
""fullscreenenter"",""5"",""20377""
","""event"",""trial"",""time""
""fullscreenexit"",""10"",""89688""
",494,NA,49,NA,NA,3000,1,"723,933,1114",494949,images/earth.jpg,images/tutrocket2,images/tutrocket1,null,images/tutrocket1,NA,1,practice,null,1,NA,NA,NA,sub96
d3-animate-choice,74,415282,0.0-61.0-1.4,TRUE,TRUE,FALSE,TRUE,"""event"",""trial"",""time""
""fullscreenenter"",""5"",""20377""
""fullscreenexit"",""10"",""89688""
","
","
","""event"",""trial"",""time""
""fullscreenenter"",""5"",""20377""
","""event"",""trial"",""time""
""fullscreenexit"",""10"",""89688""
",308,NA,48,NA,NA,3000,1,"475,640,810,1411",48484848,images/tutgreenplanet.jpg,images/tutalien2,images/tutalien1,images/tutrocket1,images/tutalien2,images/t.png,2,practice,true,2,common,1,2020-06-18T18:50:03Z,sub96
two-step-fixation,75,416284,0.0-61.0-2.4,TRUE,TRUE,FALSE,TRUE,"""event"",""trial"",""time""
""fullscreenenter"",""5"",""20377""
""fullscreenexit"",""10"",""89688""
","
","
","""event"",""trial"",""time""
""fullscreenenter"",""5"",""20377""
","""event"",""trial"",""time""
""fullscreenexit"",""10"",""89688""
",NA,images/earth.jpg,NA,NA,NA,NA,NA,NA,NA,NA,NA,NA,NA,NA,NA,fixation,NA,NA,NA,NA,NA,NA,sub96
d3-animate-choice,76,418713,0.0-61.0-0.5,TRUE,TRUE,FALSE,TRUE,"""event"",""trial"",""time""
""fullscreenenter"",""5"",""20377""
""fullscreenexit"",""10"",""89688""
","
","
","""event"",""trial"",""time""
""fullscreenenter"",""5"",""20377""
","""event"",""trial"",""time""
""fullscreenexit"",""10"",""89688""
",426.0000000000582,NA,48,NA,NA,3000,1,"611,787,985,1173,1349,1541",484848484848,images/earth.jpg,images/tutrocket2,images/tutrocket1,null,images/tutrocket2,NA,1,practice,null,2,NA,NA,NA,sub96
d3-animate-choice,77,421140,0.0-61.0-1.5,TRUE,TRUE,FALSE,TRUE,"""event"",""trial"",""time""
""fullscreenenter"",""5"",""20377""
""fullscreenexit"",""10"",""89688""
","
","
","""event"",""trial"",""time""
""fullscreenenter"",""5"",""20377""
","""event"",""trial"",""time""
""fullscreenexit"",""10"",""89688""
",423,NA,49,NA,NA,3000,1,"637,844,1030,1243,1461.0000000000582",4949494949,images/tutyellowplanet.jpg,images/tutalien4,images/tutalien3,images/tutrocket2,images/tutalien3,images/t.png,2,practice,true,1,common,1,2020-06-18T18:50:08Z,sub96
two-step-fixation,78,422141,0.0-61.0-2.5,TRUE,TRUE,FALSE,TRUE,"""event"",""trial"",""time""
""fullscreenenter"",""5"",""20377""
""fullscreenexit"",""10"",""89688""
","
","
","""event"",""trial"",""time""
""fullscreenenter"",""5"",""20377""
","""event"",""trial"",""time""
""fullscreenexit"",""10"",""89688""
",NA,images/earth.jpg,NA,NA,NA,NA,NA,NA,NA,NA,NA,NA,NA,NA,NA,fixation,NA,NA,NA,NA,NA,NA,sub96
d3-animate-choice,79,424425,0.0-61.0-0.6,TRUE,TRUE,FALSE,TRUE,"""event"",""trial"",""time""
""fullscreenenter"",""5"",""20377""
""fullscreenexit"",""10"",""89688""
","
","
","""event"",""trial"",""time""
""fullscreenenter"",""5"",""20377""
","""event"",""trial"",""time""
""fullscreenexit"",""10"",""89688""
",280,NA,49,NA,NA,3000,1,"495,672,861,1039,1234,1500",494949494949,images/earth.jpg,images/tutrocket2,images/tutrocket1,null,images/tutrocket1,NA,1,practice,null,1,NA,NA,NA,sub96
d3-animate-choice,80,427299,0.0-61.0-1.6,TRUE,TRUE,FALSE,TRUE,"""event"",""trial"",""time""
""fullscreenenter"",""5"",""20377""
""fullscreenexit"",""10"",""89688""
","
","
","""event"",""trial"",""time""
""fullscreenenter"",""5"",""20377""
","""event"",""trial"",""time""
""fullscreenexit"",""10"",""89688""
",871,NA,48,NA,NA,3000,1,"1060,1233,1416,1576.0000000000582,1764,2369",484848484848,images/tutyellowplanet.jpg,images/tutalien4,images/tutalien3,images/tutrocket1,images/tutalien4,images/t.png,2,practice,false,2,rare,1,2020-06-18T18:50:15Z,sub96
two-step-fixation,81,428300,0.0-61.0-2.6,TRUE,TRUE,FALSE,TRUE,"""event"",""trial"",""time""
""fullscreenenter"",""5"",""20377""
""fullscreenexit"",""10"",""89688""
","
","
","""event"",""trial"",""time""
""fullscreenenter"",""5"",""20377""
","""event"",""trial"",""time""
""fullscreenexit"",""10"",""89688""
",NA,images/earth.jpg,NA,NA,NA,NA,NA,NA,NA,NA,NA,NA,NA,NA,NA,fixation,NA,NA,NA,NA,NA,NA,sub96
d3-animate-choice,82,430860,0.0-61.0-0.7,TRUE,TRUE,FALSE,TRUE,"""event"",""trial"",""time""
""fullscreenenter"",""5"",""20377""
""fullscreenexit"",""10"",""89688""
","
","
","""event"",""trial"",""time""
""fullscreenenter"",""5"",""20377""
","""event"",""trial"",""time""
""fullscreenexit"",""10"",""89688""
",557,NA,49,NA,NA,3000,1,"769,952,1176,1379.0000000000582,1598,1784",494949494949,images/earth.jpg,images/tutrocket2,images/tutrocket1,null,images/tutrocket1,NA,1,practice,null,1,NA,NA,NA,sub96
d3-animate-choice,83,433273,0.0-61.0-1.7,TRUE,TRUE,FALSE,TRUE,"""event"",""trial"",""time""
""fullscreenenter"",""5"",""20377""
""fullscreenexit"",""10"",""89688""
","
","
","""event"",""trial"",""time""
""fullscreenenter"",""5"",""20377""
","""event"",""trial"",""time""
""fullscreenexit"",""10"",""89688""
",409,NA,49,NA,NA,3000,1,"656,1003.0000000000582,1204,1417,1618",4949494949,images/tutgreenplanet.jpg,images/tutalien2,images/tutalien1,images/tutrocket1,images/tutalien1,images/nothing.png,2,practice,true,1,common,0,2020-06-18T18:50:21Z,sub96
two-step-fixation,84,434276,0.0-61.0-2.7,TRUE,TRUE,FALSE,TRUE,"""event"",""trial"",""time""
""fullscreenenter"",""5"",""20377""
""fullscreenexit"",""10"",""89688""
","
","
","""event"",""trial"",""time""
""fullscreenenter"",""5"",""20377""
","""event"",""trial"",""time""
""fullscreenexit"",""10"",""89688""
",NA,images/earth.jpg,NA,NA,NA,NA,NA,NA,NA,NA,NA,NA,NA,NA,NA,fixation,NA,NA,NA,NA,NA,NA,sub96
d3-animate-choice,85,436610,0.0-61.0-0.8,TRUE,TRUE,FALSE,TRUE,"""event"",""trial"",""time""
""fullscreenenter"",""5"",""20377""
""fullscreenexit"",""10"",""89688""
","
","
","""event"",""trial"",""time""
""fullscreenenter"",""5"",""20377""
","""event"",""trial"",""time""
""fullscreenexit"",""10"",""89688""
",331,NA,48,NA,NA,3000,1,"508,911,1102,1304,1497,1695,1852",48484848484848,images/earth.jpg,images/tutrocket2,images/tutrocket1,null,images/tutrocket2,NA,1,practice,null,2,NA,NA,NA,sub96
d3-animate-choice,86,438946,0.0-61.0-1.8,TRUE,TRUE,FALSE,TRUE,"""event"",""trial"",""time""
""fullscreenenter"",""5"",""20377""
""fullscreenexit"",""10"",""89688""
","
","
","""event"",""trial"",""time""
""fullscreenenter"",""5"",""20377""
","""event"",""trial"",""time""
""fullscreenexit"",""10"",""89688""
",334,NA,48,NA,NA,3000,1,"529,726,910,1079,1269,1461,1645,1828",4848484848484848,images/tutgreenplanet.jpg,images/tutalien2,images/tutalien1,images/tutrocket2,images/tutalien2,images/nothing.png,2,practice,false,2,rare,0,2020-06-18T18:50:26Z,sub96
two-step-fixation,87,439948,0.0-61.0-2.8,TRUE,TRUE,FALSE,TRUE,"""event"",""trial"",""time""
""fullscreenenter"",""5"",""20377""
""fullscreenexit"",""10"",""89688""
","
","
","""event"",""trial"",""time""
""fullscreenenter"",""5"",""20377""
","""event"",""trial"",""time""
""fullscreenexit"",""10"",""89688""
",NA,images/earth.jpg,NA,NA,NA,NA,NA,NA,NA,NA,NA,NA,NA,NA,NA,fixation,NA,NA,NA,NA,NA,NA,sub96
d3-animate-choice,88,442320,0.0-61.0-0.9,TRUE,TRUE,FALSE,TRUE,"""event"",""trial"",""time""
""fullscreenenter"",""5"",""20377""
""fullscreenexit"",""10"",""89688""
","
","
","""event"",""trial"",""time""
""fullscreenenter"",""5"",""20377""
","""event"",""trial"",""time""
""fullscreenexit"",""10"",""89688""
",368.9999999999418,NA,48,NA,NA,3000,1,"579.9999999999418,990.9999999999418,1195,1407.9999999999418,1618.9999999999418",4948484848,images/earth.jpg,images/tutrocket2,images/tutrocket1,null,images/tutrocket2,NA,1,practice,null,2,NA,NA,NA,sub96
d3-animate-choice,89,444818,0.0-61.0-1.9,TRUE,TRUE,FALSE,TRUE,"""event"",""trial"",""time""
""fullscreenenter"",""5"",""20377""
""fullscreenexit"",""10"",""89688""
","
","
","""event"",""trial"",""time""
""fullscreenenter"",""5"",""20377""
","""event"",""trial"",""time""
""fullscreenexit"",""10"",""89688""
",496.0000000000582,NA,49,NA,NA,3000,1,"702,942,1177,1655,1895.0000000000582,2156",494949494949,images/tutyellowplanet.jpg,images/tutalien4,images/tutalien3,images/tutrocket2,images/tutalien3,images/t.png,2,practice,true,1,common,1,2020-06-18T18:50:32Z,sub96
two-step-fixation,90,445820,0.0-61.0-2.9,TRUE,TRUE,FALSE,TRUE,"""event"",""trial"",""time""
""fullscreenenter"",""5"",""20377""
""fullscreenexit"",""10"",""89688""
","
","
","""event"",""trial"",""time""
""fullscreenenter"",""5"",""20377""
","""event"",""trial"",""time""
""fullscreenexit"",""10"",""89688""
",NA,images/earth.jpg,NA,NA,NA,NA,NA,NA,NA,NA,NA,NA,NA,NA,NA,fixation,NA,NA,NA,NA,NA,NA,sub96
d3-animate-choice,91,447822,0.0-61.0-0.10,TRUE,TRUE,FALSE,TRUE,"""event"",""trial"",""time""
""fullscreenenter"",""5"",""20377""
""fullscreenexit"",""10"",""89688""
","
","
","""event"",""trial"",""time""
""fullscreenenter"",""5"",""20377""
","""event"",""trial"",""time""
""fullscreenexit"",""10"",""89688""
",0,NA,49,NA,NA,3000,1,"214,406,670,1073.0000000000582,1293",4949494949,images/earth.jpg,images/tutrocket2,images/tutrocket1,null,images/tutrocket1,NA,1,practice,null,1,NA,NA,NA,sub96
d3-animate-choice,92,450581,0.0-61.0-1.10,TRUE,TRUE,FALSE,TRUE,"""event"",""trial"",""time""
""fullscreenenter"",""5"",""20377""
""fullscreenexit"",""10"",""89688""
","
","
","""event"",""trial"",""time""
""fullscreenenter"",""5"",""20377""
","""event"",""trial"",""time""
""fullscreenexit"",""10"",""89688""
",757,NA,48,NA,NA,3000,1,"956,1169,1634,1878,2128,2342",484849494949,images/tutgreenplanet.jpg,images/tutalien2,images/tutalien1,images/tutrocket1,images/tutalien2,images/t.png,2,practice,true,2,common,1,2020-06-18T18:50:38Z,sub96
two-step-fixation,93,451584,0.0-61.0-2.10,TRUE,TRUE,FALSE,TRUE,"""event"",""trial"",""time""
""fullscreenenter"",""5"",""20377""
""fullscreenexit"",""10"",""89688""
","
","
","""event"",""trial"",""time""
""fullscreenenter"",""5"",""20377""
","""event"",""trial"",""time""
""fullscreenexit"",""10"",""89688""
",NA,images/earth.jpg,NA,NA,NA,NA,NA,NA,NA,NA,NA,NA,NA,NA,NA,fixation,NA,NA,NA,NA,NA,NA,sub96
d3-animate-choice,94,454235,0.0-61.0-0.11,TRUE,TRUE,FALSE,TRUE,"""event"",""trial"",""time""
""fullscreenenter"",""5"",""20377""
""fullscreenexit"",""10"",""89688""
","
","
","""event"",""trial"",""time""
""fullscreenenter"",""5"",""20377""
","""event"",""trial"",""time""
""fullscreenexit"",""10"",""89688""
",650,NA,48,NA,NA,3000,1,"840,1013,1184,1358.0000000000582,1527",4848484848,images/earth.jpg,images/tutrocket2,images/tutrocket1,null,images/tutrocket2,NA,1,practice,null,2,NA,NA,NA,sub96
d3-animate-choice,95,456495,0.0-61.0-1.11,TRUE,TRUE,FALSE,TRUE,"""event"",""trial"",""time""
""fullscreenenter"",""5"",""20377""
""fullscreenexit"",""10"",""89688""
","
","
","""event"",""trial"",""time""
""fullscreenenter"",""5"",""20377""
","""event"",""trial"",""time""
""fullscreenexit"",""10"",""89688""
",258,NA,48,NA,NA,3000,1,"468.0000000000582,666,865,1049,1236,1405",484848484848,images/tutyellowplanet.jpg,images/tutalien4,images/tutalien3,images/tutrocket2,images/tutalien4,images/t.png,2,practice,true,2,common,1,2020-06-18T18:50:44Z,sub96
two-step-fixation,96,457496,0.0-61.0-2.11,TRUE,TRUE,FALSE,TRUE,"""event"",""trial"",""time""
""fullscreenenter"",""5"",""20377""
""fullscreenexit"",""10"",""89688""
","
","
","""event"",""trial"",""time""
""fullscreenenter"",""5"",""20377""
","""event"",""trial"",""time""
""fullscreenexit"",""10"",""89688""
",NA,images/earth.jpg,NA,NA,NA,NA,NA,NA,NA,NA,NA,NA,NA,NA,NA,fixation,NA,NA,NA,NA,NA,NA,sub96
d3-animate-choice,97,459627,0.0-61.0-0.12,TRUE,TRUE,FALSE,TRUE,"""event"",""trial"",""time""
""fullscreenenter"",""5"",""20377""
""fullscreenexit"",""10"",""89688""
","
","
","""event"",""trial"",""time""
""fullscreenenter"",""5"",""20377""
","""event"",""trial"",""time""
""fullscreenexit"",""10"",""89688""
",127,NA,49,NA,NA,3000,1,"348,547,808,1064.0000000000582,1260",4949494949,images/earth.jpg,images/tutrocket2,images/tutrocket1,null,images/tutrocket1,NA,1,practice,null,1,NA,NA,NA,sub96
d3-animate-choice,98,462012,0.0-61.0-1.12,TRUE,TRUE,FALSE,TRUE,"""event"",""trial"",""time""
""fullscreenenter"",""5"",""20377""
""fullscreenexit"",""10"",""89688""
","
","
","""event"",""trial"",""time""
""fullscreenenter"",""5"",""20377""
","""event"",""trial"",""time""
""fullscreenexit"",""10"",""89688""
",381,NA,48,NA,NA,3000,1,"584,791,988,1130,1351,1541,1821",48484848484948,images/tutyellowplanet.jpg,images/tutalien4,images/tutalien3,images/tutrocket1,images/tutalien4,images/t.png,2,practice,false,2,rare,1,2020-06-18T18:50:49Z,sub96
two-step-fixation,99,463014,0.0-61.0-2.12,TRUE,TRUE,FALSE,TRUE,"""event"",""trial"",""time""
""fullscreenenter"",""5"",""20377""
""fullscreenexit"",""10"",""89688""
","
","
","""event"",""trial"",""time""
""fullscreenenter"",""5"",""20377""
","""event"",""trial"",""time""
""fullscreenexit"",""10"",""89688""
",NA,images/earth.jpg,NA,NA,NA,NA,NA,NA,NA,NA,NA,NA,NA,NA,NA,fixation,NA,NA,NA,NA,NA,NA,sub96
d3-animate-choice,100,465648,0.0-61.0-0.13,TRUE,TRUE,FALSE,TRUE,"""event"",""trial"",""time""
""fullscreenenter"",""5"",""20377""
""fullscreenexit"",""10"",""89688""
","
","
","""event"",""trial"",""time""
""fullscreenenter"",""5"",""20377""
","""event"",""trial"",""time""
""fullscreenexit"",""10"",""89688""
",631,NA,49,NA,NA,3000,1,"865,1246,1584,1821.0000000000582",49494949,images/earth.jpg,images/tutrocket2,images/tutrocket1,null,images/tutrocket1,NA,1,practice,null,1,NA,NA,NA,sub96
d3-animate-choice,101,467946,0.0-61.0-1.13,TRUE,TRUE,FALSE,TRUE,"""event"",""trial"",""time""
""fullscreenenter"",""5"",""20377""
""fullscreenexit"",""10"",""89688""
","
","
","""event"",""trial"",""time""
""fullscreenenter"",""5"",""20377""
","""event"",""trial"",""time""
""fullscreenexit"",""10"",""89688""
",295,NA,48,NA,NA,3000,1,"583,881.0000000000582,1166,1791",48484848,images/tutgreenplanet.jpg,images/tutalien2,images/tutalien1,images/tutrocket1,images/tutalien2,images/t.png,2,practice,true,2,common,1,2020-06-18T18:50:55Z,sub96
two-step-fixation,102,468948,0.0-61.0-2.13,TRUE,TRUE,FALSE,TRUE,"""event"",""trial"",""time""
""fullscreenenter"",""5"",""20377""
""fullscreenexit"",""10"",""89688""
","
","
","""event"",""trial"",""time""
""fullscreenenter"",""5"",""20377""
","""event"",""trial"",""time""
""fullscreenexit"",""10"",""89688""
",NA,images/earth.jpg,NA,NA,NA,NA,NA,NA,NA,NA,NA,NA,NA,NA,NA,fixation,NA,NA,NA,NA,NA,NA,sub96
d3-animate-choice,103,471488,0.0-61.0-0.14,TRUE,TRUE,FALSE,TRUE,"""event"",""trial"",""time""
""fullscreenenter"",""5"",""20377""
""fullscreenexit"",""10"",""89688""
","
","
","""event"",""trial"",""time""
""fullscreenenter"",""5"",""20377""
","""event"",""trial"",""time""
""fullscreenexit"",""10"",""89688""
",536.9999999999418,NA,48,NA,NA,3000,1,"758.9999999999418,1375,1578.9999999999418",484848,images/earth.jpg,images/tutrocket2,images/tutrocket1,null,images/tutrocket2,NA,1,practice,null,2,NA,NA,NA,sub96
d3-animate-choice,104,473794,0.0-61.0-1.14,TRUE,TRUE,FALSE,TRUE,"""event"",""trial"",""time""
""fullscreenenter"",""5"",""20377""
""fullscreenexit"",""10"",""89688""
","
","
","""event"",""trial"",""time""
""fullscreenenter"",""5"",""20377""
","""event"",""trial"",""time""
""fullscreenexit"",""10"",""89688""
",303,NA,49,NA,NA,3000,1,"513.9999999999418,756.9999999999418,977.9999999999418,1205.9999999999418,1424.9999999999418",4949494949,images/tutgreenplanet.jpg,images/tutalien2,images/tutalien1,images/tutrocket2,images/tutalien1,images/nothing.png,2,practice,false,1,rare,0,2020-06-18T18:51:01Z,sub96
two-step-fixation,105,474797,0.0-61.0-2.14,TRUE,TRUE,FALSE,TRUE,"""event"",""trial"",""time""
""fullscreenenter"",""5"",""20377""
""fullscreenexit"",""10"",""89688""
","
","
","""event"",""trial"",""time""
""fullscreenenter"",""5"",""20377""
","""event"",""trial"",""time""
""fullscreenexit"",""10"",""89688""
",NA,images/earth.jpg,NA,NA,NA,NA,NA,NA,NA,NA,NA,NA,NA,NA,NA,fixation,NA,NA,NA,NA,NA,NA,sub96
d3-animate-choice,106,477148,0.0-61.0-0.15,TRUE,TRUE,FALSE,TRUE,"""event"",""trial"",""time""
""fullscreenenter"",""5"",""20377""
""fullscreenexit"",""10"",""89688""
","
","
","""event"",""trial"",""time""
""fullscreenenter"",""5"",""20377""
","""event"",""trial"",""time""
""fullscreenexit"",""10"",""89688""
",348,NA,49,NA,NA,3000,1,"570,856,1139.0000000000582,1429,1742",4949494949,images/earth.jpg,images/tutrocket2,images/tutrocket1,null,images/tutrocket1,NA,1,practice,null,1,NA,NA,NA,sub96
d3-animate-choice,107,479552,0.0-61.0-1.15,TRUE,TRUE,FALSE,TRUE,"""event"",""trial"",""time""
""fullscreenenter"",""5"",""20377""
""fullscreenexit"",""10"",""89688""
","
","
","""event"",""trial"",""time""
""fullscreenenter"",""5"",""20377""
","""event"",""trial"",""time""
""fullscreenexit"",""10"",""89688""
",401,NA,48,NA,NA,3000,1,"657,885,1105,1675,1881.0000000000582",4848484848,images/tutgreenplanet.jpg,images/tutalien2,images/tutalien1,images/tutrocket1,images/tutalien2,images/nothing.png,2,practice,true,2,common,0,2020-06-18T18:51:07Z,sub96
two-step-fixation,108,480554,0.0-61.0-2.15,TRUE,TRUE,FALSE,TRUE,"""event"",""trial"",""time""
""fullscreenenter"",""5"",""20377""
""fullscreenexit"",""10"",""89688""
","
","
","""event"",""trial"",""time""
""fullscreenenter"",""5"",""20377""
","""event"",""trial"",""time""
""fullscreenexit"",""10"",""89688""
",NA,images/earth.jpg,NA,NA,NA,NA,NA,NA,NA,NA,NA,NA,NA,NA,NA,fixation,NA,NA,NA,NA,NA,NA,sub96
d3-animate-choice,109,482921,0.0-61.0-0.16,TRUE,TRUE,FALSE,TRUE,"""event"",""trial"",""time""
""fullscreenenter"",""5"",""20377""
""fullscreenexit"",""10"",""89688""
","
","
","""event"",""trial"",""time""
""fullscreenenter"",""5"",""20377""
","""event"",""trial"",""time""
""fullscreenexit"",""10"",""89688""
",364,NA,49,NA,NA,3000,1,"822,1051,1290,1522,1762",4848484848,images/earth.jpg,images/tutrocket2,images/tutrocket1,null,images/tutrocket1,NA,1,practice,null,1,NA,NA,NA,sub96
d3-animate-choice,110,485615,0.0-61.0-1.16,TRUE,TRUE,FALSE,TRUE,"""event"",""trial"",""time""
""fullscreenenter"",""5"",""20377""
""fullscreenexit"",""10"",""89688""
","
","
","""event"",""trial"",""time""
""fullscreenenter"",""5"",""20377""
","""event"",""trial"",""time""
""fullscreenexit"",""10"",""89688""
",690,NA,48,NA,NA,3000,1,"914,1153,1384,1621,1921,2205",484848484949,images/tutgreenplanet.jpg,images/tutalien2,images/tutalien1,images/tutrocket1,images/tutalien2,images/nothing.png,2,practice,true,2,common,0,2020-06-18T18:51:13Z,sub96
two-step-fixation,111,486617,0.0-61.0-2.16,TRUE,TRUE,FALSE,TRUE,"""event"",""trial"",""time""
""fullscreenenter"",""5"",""20377""
""fullscreenexit"",""10"",""89688""
","
","
","""event"",""trial"",""time""
""fullscreenenter"",""5"",""20377""
","""event"",""trial"",""time""
""fullscreenexit"",""10"",""89688""
",NA,images/earth.jpg,NA,NA,NA,NA,NA,NA,NA,NA,NA,NA,NA,NA,NA,fixation,NA,NA,NA,NA,NA,NA,sub96
d3-animate-choice,112,489246,0.0-61.0-0.17,TRUE,TRUE,FALSE,TRUE,"""event"",""trial"",""time""
""fullscreenenter"",""5"",""20377""
""fullscreenexit"",""10"",""89688""
","
","
","""event"",""trial"",""time""
""fullscreenenter"",""5"",""20377""
","""event"",""trial"",""time""
""fullscreenexit"",""10"",""89688""
",626,NA,49,NA,NA,3000,1,"860,1201,1406,1711,2027",4949494949,images/earth.jpg,images/tutrocket2,images/tutrocket1,null,images/tutrocket1,NA,1,practice,null,1,NA,NA,NA,sub96
d3-animate-choice,113,491690,0.0-61.0-1.17,TRUE,TRUE,FALSE,TRUE,"""event"",""trial"",""time""
""fullscreenenter"",""5"",""20377""
""fullscreenexit"",""10"",""89688""
","
","
","""event"",""trial"",""time""
""fullscreenenter"",""5"",""20377""
","""event"",""trial"",""time""
""fullscreenexit"",""10"",""89688""
",440,NA,48,NA,NA,3000,1,"679,934,1154,1397,1604,1932.0000000000582",484848484848,images/tutyellowplanet.jpg,images/tutalien4,images/tutalien3,images/tutrocket1,images/tutalien4,images/t.png,2,practice,false,2,rare,1,2020-06-18T18:51:19Z,sub96
two-step-fixation,114,492692,0.0-61.0-2.17,TRUE,TRUE,FALSE,TRUE,"""event"",""trial"",""time""
""fullscreenenter"",""5"",""20377""
""fullscreenexit"",""10"",""89688""
","
","
","""event"",""trial"",""time""
""fullscreenenter"",""5"",""20377""
","""event"",""trial"",""time""
""fullscreenexit"",""10"",""89688""
",NA,images/earth.jpg,NA,NA,NA,NA,NA,NA,NA,NA,NA,NA,NA,NA,NA,fixation,NA,NA,NA,NA,NA,NA,sub96
d3-animate-choice,115,494720,0.0-61.0-0.18,TRUE,TRUE,FALSE,TRUE,"""event"",""trial"",""time""
""fullscreenenter"",""5"",""20377""
""fullscreenexit"",""10"",""89688""
","
","
","""event"",""trial"",""time""
""fullscreenenter"",""5"",""20377""
","""event"",""trial"",""time""
""fullscreenexit"",""10"",""89688""
",25,NA,48,NA,NA,3000,1,"268,497,736.0000000000582,984,1258,1514",484848484848,images/earth.jpg,images/tutrocket2,images/tutrocket1,null,images/tutrocket2,NA,1,practice,null,2,NA,NA,NA,sub96
d3-animate-choice,116,497061,0.0-61.0-1.18,TRUE,TRUE,FALSE,TRUE,"""event"",""trial"",""time""
""fullscreenenter"",""5"",""20377""
""fullscreenexit"",""10"",""89688""
","
","
","""event"",""trial"",""time""
""fullscreenenter"",""5"",""20377""
","""event"",""trial"",""time""
""fullscreenexit"",""10"",""89688""
",339,NA,49,NA,NA,3000,1,"581,1056,1624",494949,images/tutgreenplanet.jpg,images/tutalien2,images/tutalien1,images/tutrocket2,images/tutalien1,images/nothing.png,2,practice,false,1,rare,0,2020-06-18T18:51:24Z,sub96
two-step-fixation,117,498064,0.0-61.0-2.18,TRUE,TRUE,FALSE,TRUE,"""event"",""trial"",""time""
""fullscreenenter"",""5"",""20377""
""fullscreenexit"",""10"",""89688""
","
","
","""event"",""trial"",""time""
""fullscreenenter"",""5"",""20377""
","""event"",""trial"",""time""
""fullscreenexit"",""10"",""89688""
",NA,images/earth.jpg,NA,NA,NA,NA,NA,NA,NA,NA,NA,NA,NA,NA,NA,fixation,NA,NA,NA,NA,NA,NA,sub96
d3-animate-choice,118,500388,0.0-61.0-0.19,TRUE,TRUE,FALSE,TRUE,"""event"",""trial"",""time""
""fullscreenenter"",""5"",""20377""
""fullscreenexit"",""10"",""89688""
","
","
","""event"",""trial"",""time""
""fullscreenenter"",""5"",""20377""
","""event"",""trial"",""time""
""fullscreenexit"",""10"",""89688""
",321,NA,49,NA,NA,3000,1,"578.0000000000582,795,1034,1243,1436.0000000000582",4949494949,images/earth.jpg,images/tutrocket2,images/tutrocket1,null,images/tutrocket1,NA,1,practice,null,1,NA,NA,NA,sub96
d3-animate-choice,119,502734,0.0-61.0-1.19,TRUE,TRUE,FALSE,TRUE,"""event"",""trial"",""time""
""fullscreenenter"",""5"",""20377""
""fullscreenexit"",""10"",""89688""
","
","
","""event"",""trial"",""time""
""fullscreenenter"",""5"",""20377""
","""event"",""trial"",""time""
""fullscreenexit"",""10"",""89688""
",343,NA,48,NA,NA,3000,1,"580,803,992.0000000000582,1218,1415,1613.0000000000582,1802.0000000000582",48484848484848,images/tutgreenplanet.jpg,images/tutalien2,images/tutalien1,images/tutrocket1,images/tutalien2,images/nothing.png,2,practice,true,2,common,0,2020-06-18T18:51:30Z,sub96
two-step-fixation,120,503736,0.0-61.0-2.19,TRUE,TRUE,FALSE,TRUE,"""event"",""trial"",""time""
""fullscreenenter"",""5"",""20377""
""fullscreenexit"",""10"",""89688""
","
","
","""event"",""trial"",""time""
""fullscreenenter"",""5"",""20377""
","""event"",""trial"",""time""
""fullscreenexit"",""10"",""89688""
",NA,images/earth.jpg,NA,NA,NA,NA,NA,NA,NA,NA,NA,NA,NA,NA,NA,fixation,NA,NA,NA,NA,NA,NA,sub96
d3-instructions,121,510124,0.0-62.0,TRUE,TRUE,FALSE,TRUE,"""event"",""trial"",""time""
""fullscreenenter"",""5"",""20377""
""fullscreenexit"",""10"",""89688""
","
","
","""event"",""trial"",""time""
""fullscreenenter"",""5"",""20377""
","""event"",""trial"",""time""
""fullscreenexit"",""10"",""89688""
",NA,NA,NA,NA,NA,NA,NA,NA,NA,NA,NA,NA,NA,NA,NA,NA,NA,NA,NA,NA,NA,NA,sub96
audio-keyboard-response,122,514151,0.0-63.0,TRUE,TRUE,FALSE,TRUE,"""event"",""trial"",""time""
""fullscreenenter"",""5"",""20377""
""fullscreenexit"",""10"",""89688""
","
","
","""event"",""trial"",""time""
""fullscreenenter"",""5"",""20377""
","""event"",""trial"",""time""
""fullscreenexit"",""10"",""89688""
",4026,audio/instructions/treasure_feedback.wav,32,NA,NA,NA,NA,NA,NA,NA,NA,NA,NA,NA,NA,NA,NA,NA,NA,NA,NA,NA,sub96
d3-instructions,123,533957,0.0-64.0,TRUE,TRUE,FALSE,TRUE,"""event"",""trial"",""time""
""fullscreenenter"",""5"",""20377""
""fullscreenexit"",""10"",""89688""
","
","
","""event"",""trial"",""time""
""fullscreenenter"",""5"",""20377""
","""event"",""trial"",""time""
""fullscreenexit"",""10"",""89688""
",NA,NA,NA,NA,NA,NA,NA,NA,NA,NA,NA,NA,NA,NA,NA,NA,NA,NA,NA,NA,NA,NA,sub96
d3-instructions,124,548576,0.0-65.0,TRUE,TRUE,FALSE,TRUE,"""event"",""trial"",""time""
""fullscreenenter"",""5"",""20377""
""fullscreenexit"",""10"",""89688""
","
","
","""event"",""trial"",""time""
""fullscreenenter"",""5"",""20377""
","""event"",""trial"",""time""
""fullscreenexit"",""10"",""89688""
",NA,NA,NA,NA,NA,NA,NA,NA,NA,NA,NA,NA,NA,NA,NA,NA,NA,NA,NA,NA,NA,NA,sub96
d3-instructions,125,572943,0.0-66.0,TRUE,TRUE,FALSE,TRUE,"""event"",""trial"",""time""
""fullscreenenter"",""5"",""20377""
""fullscreenexit"",""10"",""89688""
","
","
","""event"",""trial"",""time""
""fullscreenenter"",""5"",""20377""
","""event"",""trial"",""time""
""fullscreenexit"",""10"",""89688""
",NA,NA,NA,NA,NA,NA,NA,NA,NA,NA,NA,NA,NA,NA,NA,NA,NA,NA,NA,NA,NA,NA,sub96
d3-instructions,126,588555,0.0-67.0,TRUE,TRUE,FALSE,TRUE,"""event"",""trial"",""time""
""fullscreenenter"",""5"",""20377""
""fullscreenexit"",""10"",""89688""
","
","
","""event"",""trial"",""time""
""fullscreenenter"",""5"",""20377""
","""event"",""trial"",""time""
""fullscreenexit"",""10"",""89688""
",NA,NA,NA,NA,NA,NA,NA,NA,NA,NA,NA,NA,NA,NA,NA,NA,NA,NA,NA,NA,NA,NA,sub96
d3-instructions,127,595737,0.0-68.0,TRUE,TRUE,FALSE,TRUE,"""event"",""trial"",""time""
""fullscreenenter"",""5"",""20377""
""fullscreenexit"",""10"",""89688""
","
","
","""event"",""trial"",""time""
""fullscreenenter"",""5"",""20377""
","""event"",""trial"",""time""
""fullscreenexit"",""10"",""89688""
",NA,NA,NA,NA,NA,NA,NA,NA,NA,NA,NA,NA,NA,NA,NA,NA,NA,NA,NA,NA,NA,NA,sub96
instructions-quiz,128,600070,0.0-69.0,TRUE,TRUE,FALSE,TRUE,"""event"",""trial"",""time""
""fullscreenenter"",""5"",""20377""
""fullscreenexit"",""10"",""89688""
","
","
","""event"",""trial"",""time""
""fullscreenenter"",""5"",""20377""
","""event"",""trial"",""time""
""fullscreenexit"",""10"",""89688""
",4330,audio/quiz/Q1_Prompt.wav,NA,1,NA,NA,NA,NA,NA,NA,NA,NA,NA,NA,NA,NA,NA,NA,NA,NA,NA,NA,sub96
audio-keyboard-response,129,609242,0.0-70.0,TRUE,TRUE,FALSE,TRUE,"""event"",""trial"",""time""
""fullscreenenter"",""5"",""20377""
""fullscreenexit"",""10"",""89688""
","
","
","""event"",""trial"",""time""
""fullscreenenter"",""5"",""20377""
","""event"",""trial"",""time""
""fullscreenexit"",""10"",""89688""
",null,audio/quiz/Q1_Correct.wav,null,NA,NA,NA,NA,NA,NA,NA,NA,NA,NA,NA,NA,NA,NA,NA,NA,NA,NA,NA,sub96
instructions-quiz,130,616735,0.0-71.0,TRUE,TRUE,FALSE,TRUE,"""event"",""trial"",""time""
""fullscreenenter"",""5"",""20377""
""fullscreenexit"",""10"",""89688""
","
","
","""event"",""trial"",""time""
""fullscreenenter"",""5"",""20377""
","""event"",""trial"",""time""
""fullscreenexit"",""10"",""89688""
",7491,audio/quiz/Q2_Prompt.wav,NA,0,NA,NA,NA,NA,NA,NA,NA,NA,NA,NA,NA,NA,NA,NA,NA,NA,NA,NA,sub96
audio-keyboard-response,131,628879,0.0-72.0,TRUE,TRUE,FALSE,TRUE,"""event"",""trial"",""time""
""fullscreenenter"",""5"",""20377""
""fullscreenexit"",""10"",""89688""
","
","
","""event"",""trial"",""time""
""fullscreenenter"",""5"",""20377""
","""event"",""trial"",""time""
""fullscreenexit"",""10"",""89688""
",12144,audio/quiz/Q2_Correct.wav,32,NA,NA,NA,NA,NA,NA,NA,NA,NA,NA,NA,NA,NA,NA,NA,NA,NA,NA,NA,sub96
instructions-quiz,132,633044,0.0-73.0,TRUE,TRUE,FALSE,TRUE,"""event"",""trial"",""time""
""fullscreenenter"",""5"",""20377""
""fullscreenexit"",""10"",""89688""
","
","
","""event"",""trial"",""time""
""fullscreenenter"",""5"",""20377""
","""event"",""trial"",""time""
""fullscreenexit"",""10"",""89688""
",4163,audio/quiz/Q3_Prompt.wav,NA,1,NA,NA,NA,NA,NA,NA,NA,NA,NA,NA,NA,NA,NA,NA,NA,NA,NA,NA,sub96
audio-keyboard-response,133,638087,0.0-74.0,TRUE,TRUE,FALSE,TRUE,"""event"",""trial"",""time""
""fullscreenenter"",""5"",""20377""
""fullscreenexit"",""10"",""89688""
","
","
","""event"",""trial"",""time""
""fullscreenenter"",""5"",""20377""
","""event"",""trial"",""time""
""fullscreenexit"",""10"",""89688""
",5042,audio/quiz/Q3_Correct.wav,32,NA,NA,NA,NA,NA,NA,NA,NA,NA,NA,NA,NA,NA,NA,NA,NA,NA,NA,NA,sub96
d3-instructions,134,641264,0.0-75.0,TRUE,TRUE,FALSE,TRUE,"""event"",""trial"",""time""
""fullscreenenter"",""5"",""20377""
""fullscreenexit"",""10"",""89688""
","
","
","""event"",""trial"",""time""
""fullscreenenter"",""5"",""20377""
","""event"",""trial"",""time""
""fullscreenexit"",""10"",""89688""
",NA,NA,NA,NA,NA,NA,NA,NA,NA,NA,NA,NA,NA,NA,NA,NA,NA,NA,NA,NA,NA,NA,sub96
d3-animate-choice,135,645007,0.0-76.0-0.0,TRUE,TRUE,FALSE,TRUE,"""event"",""trial"",""time""
""fullscreenenter"",""5"",""20377""
""fullscreenexit"",""10"",""89688""
","
","
","""event"",""trial"",""time""
""fullscreenenter"",""5"",""20377""
","""event"",""trial"",""time""
""fullscreenexit"",""10"",""89688""
",1587,NA,189,NA,NA,3000,1,"1740,1898,2219,2501.0000000001164,2630,2792,2944,3164",4848484848484848,images/earth.jpg,images/rocket2,images/rocket1,null,images/rocket2,NA,1,real,null,NA,NA,NA,NA,sub96
d3-animate-choice,136,647573,0.0-76.0-1.0,TRUE,TRUE,FALSE,TRUE,"""event"",""trial"",""time""
""fullscreenenter"",""5"",""20377""
""fullscreenexit"",""10"",""89688""
","
","
","""event"",""trial"",""time""
""fullscreenenter"",""5"",""20377""
","""event"",""trial"",""time""
""fullscreenexit"",""10"",""89688""
",562,NA,49,NA,NA,3000,1,"754,943,1078,1318,1520,1732,1926,2087",4949494949494949,images/purpleplanet.jpg,images/alien4,images/alien3,images/rocket2,images/alien3,images/nothing.png,2,real,true,1,common,0,2020-06-18T18:53:55Z,sub96
two-step-fixation,137,648575,0.0-76.0-2.0,TRUE,TRUE,FALSE,TRUE,"""event"",""trial"",""time""
""fullscreenenter"",""5"",""20377""
""fullscreenexit"",""10"",""89688""
","
","
","""event"",""trial"",""time""
""fullscreenenter"",""5"",""20377""
","""event"",""trial"",""time""
""fullscreenexit"",""10"",""89688""
",NA,images/earth.jpg,NA,NA,NA,NA,NA,NA,NA,NA,NA,NA,NA,NA,NA,fixation,NA,NA,NA,NA,NA,NA,sub96
d3-animate-choice,138,651166,0.0-76.0-0.1,TRUE,TRUE,FALSE,TRUE,"""event"",""trial"",""time""
""fullscreenenter"",""5"",""20377""
""fullscreenexit"",""10"",""89688""
","
","
","""event"",""trial"",""time""
""fullscreenenter"",""5"",""20377""
","""event"",""trial"",""time""
""fullscreenexit"",""10"",""89688""
",589,NA,49,NA,NA,3000,1,"760,937,1101,1384,1596",4949494949,images/earth.jpg,images/rocket2,images/rocket1,null,images/rocket1,NA,1,real,null,1,NA,NA,NA,sub96
d3-animate-choice,139,653521,0.0-76.0-1.1,TRUE,TRUE,FALSE,TRUE,"""event"",""trial"",""time""
""fullscreenenter"",""5"",""20377""
""fullscreenexit"",""10"",""89688""
","
","
","""event"",""trial"",""time""
""fullscreenenter"",""5"",""20377""
","""event"",""trial"",""time""
""fullscreenexit"",""10"",""89688""
",352,NA,48,NA,NA,3000,1,"511,673,833,995,1163,1338,1516.0000000001164,1672,1835",484848484848484800,images/redplanet1.jpg,images/alien2,images/alien1,images/rocket1,images/alien2,images/t.png,2,real,true,2,common,1,2020-06-18T18:54:01Z,sub96
two-step-fixation,140,654523,0.0-76.0-2.1,TRUE,TRUE,FALSE,TRUE,"""event"",""trial"",""time""
""fullscreenenter"",""5"",""20377""
""fullscreenexit"",""10"",""89688""
","
","
","""event"",""trial"",""time""
""fullscreenenter"",""5"",""20377""
","""event"",""trial"",""time""
""fullscreenexit"",""10"",""89688""
",NA,images/earth.jpg,NA,NA,NA,NA,NA,NA,NA,NA,NA,NA,NA,NA,NA,fixation,NA,NA,NA,NA,NA,NA,sub96
d3-animate-choice,141,657296,0.0-76.0-0.2,TRUE,TRUE,FALSE,TRUE,"""event"",""trial"",""time""
""fullscreenenter"",""5"",""20377""
""fullscreenexit"",""10"",""89688""
","
","
","""event"",""trial"",""time""
""fullscreenenter"",""5"",""20377""
","""event"",""trial"",""time""
""fullscreenexit"",""10"",""89688""
",771.0000000001164,NA,48,NA,NA,3000,1,"934.0000000001164,1092,1248,1398,1559.0000000001164,1744",484848484848,images/earth.jpg,images/rocket2,images/rocket1,null,images/rocket2,NA,1,real,null,2,NA,NA,NA,sub96
d3-animate-choice,142,660023,0.0-76.0-1.2,TRUE,TRUE,FALSE,TRUE,"""event"",""trial"",""time""
""fullscreenenter"",""5"",""20377""
""fullscreenexit"",""10"",""89688""
","
","
","""event"",""trial"",""time""
""fullscreenenter"",""5"",""20377""
","""event"",""trial"",""time""
""fullscreenexit"",""10"",""89688""
",724,NA,49,NA,NA,3000,1,"904,1107,1257,1405,1573,1731",494949494949,images/purpleplanet.jpg,images/alien4,images/alien3,images/rocket2,images/alien3,images/t.png,2,real,true,1,common,1,2020-06-18T18:54:07Z,sub96
two-step-fixation,143,661024,0.0-76.0-2.2,TRUE,TRUE,FALSE,TRUE,"""event"",""trial"",""time""
""fullscreenenter"",""5"",""20377""
""fullscreenexit"",""10"",""89688""
","
","
","""event"",""trial"",""time""
""fullscreenenter"",""5"",""20377""
","""event"",""trial"",""time""
""fullscreenexit"",""10"",""89688""
",NA,images/earth.jpg,NA,NA,NA,NA,NA,NA,NA,NA,NA,NA,NA,NA,NA,fixation,NA,NA,NA,NA,NA,NA,sub96
d3-animate-choice,144,663682,0.0-76.0-0.3,TRUE,TRUE,FALSE,TRUE,"""event"",""trial"",""time""
""fullscreenenter"",""5"",""20377""
""fullscreenexit"",""10"",""89688""
","
","
","""event"",""trial"",""time""
""fullscreenenter"",""5"",""20377""
","""event"",""trial"",""time""
""fullscreenexit"",""10"",""89688""
",654,NA,49,NA,NA,3000,1,"932.0000000001164,1247,1424,1684,1888",4949494949,images/earth.jpg,images/rocket2,images/rocket1,null,images/rocket1,NA,1,real,null,1,NA,NA,NA,sub96
d3-animate-choice,145,666172,0.0-76.0-1.3,TRUE,TRUE,FALSE,TRUE,"""event"",""trial"",""time""
""fullscreenenter"",""5"",""20377""
""fullscreenexit"",""10"",""89688""
","
","
","""event"",""trial"",""time""
""fullscreenenter"",""5"",""20377""
","""event"",""trial"",""time""
""fullscreenexit"",""10"",""89688""
",486.9999999998836,NA,48,NA,NA,3000,1,"665.9999999998836,833.9999999998836,986,1139.9999999998836,1304.9999999998836,1463.9999999998836,1644.9999999998836,1792.9999999998836",4848484848484848,images/redplanet1.jpg,images/alien2,images/alien1,images/rocket1,images/alien2,images/t.png,2,real,true,2,common,1,2020-06-18T18:54:13Z,sub96
two-step-fixation,146,667175,0.0-76.0-2.3,TRUE,TRUE,FALSE,TRUE,"""event"",""trial"",""time""
""fullscreenenter"",""5"",""20377""
""fullscreenexit"",""10"",""89688""
","
","
","""event"",""trial"",""time""
""fullscreenenter"",""5"",""20377""
","""event"",""trial"",""time""
""fullscreenexit"",""10"",""89688""
",NA,images/earth.jpg,NA,NA,NA,NA,NA,NA,NA,NA,NA,NA,NA,NA,NA,fixation,NA,NA,NA,NA,NA,NA,sub96
d3-animate-choice,147,669201,0.0-76.0-0.4,TRUE,TRUE,FALSE,TRUE,"""event"",""trial"",""time""
""fullscreenenter"",""5"",""20377""
""fullscreenexit"",""10"",""89688""
","
","
","""event"",""trial"",""time""
""fullscreenenter"",""5"",""20377""
","""event"",""trial"",""time""
""fullscreenexit"",""10"",""89688""
",23,NA,48,NA,NA,3000,1,"185,339,516,690,859.0000000001164,1048,1231",48484848484848,images/earth.jpg,images/rocket2,images/rocket1,null,images/rocket2,NA,1,real,null,2,NA,NA,NA,sub96
d3-animate-choice,148,671763,0.0-76.0-1.4,TRUE,TRUE,FALSE,TRUE,"""event"",""trial"",""time""
""fullscreenenter"",""5"",""20377""
""fullscreenexit"",""10"",""89688""
","
","
","""event"",""trial"",""time""
""fullscreenenter"",""5"",""20377""
","""event"",""trial"",""time""
""fullscreenexit"",""10"",""89688""
",559.0000000001164,NA,49,NA,NA,3000,1,"725,913,1214,1387,1572,1891.0000000001164,2071",49494949494949,images/redplanet1.jpg,images/alien2,images/alien1,images/rocket2,images/alien1,images/nothing.png,2,real,false,1,rare,0,2020-06-18T18:54:19Z,sub96
two-step-fixation,149,672765,0.0-76.0-2.4,TRUE,TRUE,FALSE,TRUE,"""event"",""trial"",""time""
""fullscreenenter"",""5"",""20377""
""fullscreenexit"",""10"",""89688""
","
","
","""event"",""trial"",""time""
""fullscreenenter"",""5"",""20377""
","""event"",""trial"",""time""
""fullscreenexit"",""10"",""89688""
",NA,images/earth.jpg,NA,NA,NA,NA,NA,NA,NA,NA,NA,NA,NA,NA,NA,fixation,NA,NA,NA,NA,NA,NA,sub96
d3-animate-choice,150,675045,0.0-76.0-0.5,TRUE,TRUE,FALSE,TRUE,"""event"",""trial"",""time""
""fullscreenenter"",""5"",""20377""
""fullscreenexit"",""10"",""89688""
","
","
","""event"",""trial"",""time""
""fullscreenenter"",""5"",""20377""
","""event"",""trial"",""time""
""fullscreenexit"",""10"",""89688""
",276.9999999998836,NA,49,NA,NA,3000,1,"462.9999999998836,641.9999999998836,806.9999999998836,989.9999999998836,1171.9999999998836,1344.9999999998836",494949494949,images/earth.jpg,images/rocket2,images/rocket1,null,images/rocket1,NA,1,real,null,1,NA,NA,NA,sub96
d3-animate-choice,151,677971,0.0-76.0-1.5,TRUE,TRUE,FALSE,TRUE,"""event"",""trial"",""time""
""fullscreenenter"",""5"",""20377""
""fullscreenexit"",""10"",""89688""
","
","
","""event"",""trial"",""time""
""fullscreenenter"",""5"",""20377""
","""event"",""trial"",""time""
""fullscreenexit"",""10"",""89688""
",924,NA,48,NA,NA,3000,1,"1077,1235,1408,1559,1742,1969,2154,2334,2502",484848484848484800,images/purpleplanet.jpg,images/alien4,images/alien3,images/rocket1,images/alien4,images/t.png,2,real,false,2,rare,1,2020-06-18T18:54:25Z,sub96
two-step-fixation,152,678973,0.0-76.0-2.5,TRUE,TRUE,FALSE,TRUE,"""event"",""trial"",""time""
""fullscreenenter"",""5"",""20377""
""fullscreenexit"",""10"",""89688""
","
","
","""event"",""trial"",""time""
""fullscreenenter"",""5"",""20377""
","""event"",""trial"",""time""
""fullscreenexit"",""10"",""89688""
",NA,images/earth.jpg,NA,NA,NA,NA,NA,NA,NA,NA,NA,NA,NA,NA,NA,fixation,NA,NA,NA,NA,NA,NA,sub96
d3-animate-choice,153,681306,0.0-76.0-0.6,TRUE,TRUE,FALSE,TRUE,"""event"",""trial"",""time""
""fullscreenenter"",""5"",""20377""
""fullscreenexit"",""10"",""89688""
","
","
","""event"",""trial"",""time""
""fullscreenenter"",""5"",""20377""
","""event"",""trial"",""time""
""fullscreenexit"",""10"",""89688""
",330,NA,48,NA,NA,3000,1,"497,670,827,1007,1183,1390,1582",48484848484848,images/earth.jpg,images/rocket2,images/rocket1,null,images/rocket2,NA,1,real,null,2,NA,NA,NA,sub96
d3-animate-choice,154,683951,0.0-76.0-1.6,TRUE,TRUE,FALSE,TRUE,"""event"",""trial"",""time""
""fullscreenenter"",""5"",""20377""
""fullscreenexit"",""10"",""89688""
","
","
","""event"",""trial"",""time""
""fullscreenenter"",""5"",""20377""
","""event"",""trial"",""time""
""fullscreenexit"",""10"",""89688""
",643,NA,48,NA,NA,3000,1,"818,998,1171,1339,1525,1698,1892,2075",4848484848484848,images/redplanet1.jpg,images/alien2,images/alien1,images/rocket2,images/alien2,images/nothing.png,2,real,false,2,rare,0,2020-06-18T18:54:31Z,sub96
two-step-fixation,155,684952,0.0-76.0-2.6,TRUE,TRUE,FALSE,TRUE,"""event"",""trial"",""time""
""fullscreenenter"",""5"",""20377""
""fullscreenexit"",""10"",""89688""
","
","
","""event"",""trial"",""time""
""fullscreenenter"",""5"",""20377""
","""event"",""trial"",""time""
""fullscreenexit"",""10"",""89688""
",NA,images/earth.jpg,NA,NA,NA,NA,NA,NA,NA,NA,NA,NA,NA,NA,NA,fixation,NA,NA,NA,NA,NA,NA,sub96
d3-animate-choice,156,687463,0.0-76.0-0.7,TRUE,TRUE,FALSE,TRUE,"""event"",""trial"",""time""
""fullscreenenter"",""5"",""20377""
""fullscreenexit"",""10"",""89688""
","
","
","""event"",""trial"",""time""
""fullscreenenter"",""5"",""20377""
","""event"",""trial"",""time""
""fullscreenexit"",""10"",""89688""
",508,NA,49,NA,NA,3000,1,"682.0000000001164,892,1061,1265,1448,1647,1824,2005",4949494949494949,images/earth.jpg,images/rocket2,images/rocket1,null,images/rocket1,NA,1,real,null,1,NA,NA,NA,sub96
d3-animate-choice,157,690249,0.0-76.0-1.7,TRUE,TRUE,FALSE,TRUE,"""event"",""trial"",""time""
""fullscreenenter"",""5"",""20377""
""fullscreenexit"",""10"",""89688""
","
","
","""event"",""trial"",""time""
""fullscreenenter"",""5"",""20377""
","""event"",""trial"",""time""
""fullscreenexit"",""10"",""89688""
",783,NA,48,NA,NA,3000,1,"969,1133,1297.0000000001164,1450,1627,1842",484848484848,images/purpleplanet.jpg,images/alien4,images/alien3,images/rocket1,images/alien4,images/nothing.png,2,real,false,2,rare,0,2020-06-18T18:54:38Z,sub96
two-step-fixation,158,691251,0.0-76.0-2.7,TRUE,TRUE,FALSE,TRUE,"""event"",""trial"",""time""
""fullscreenenter"",""5"",""20377""
""fullscreenexit"",""10"",""89688""
","
","
","""event"",""trial"",""time""
""fullscreenenter"",""5"",""20377""
","""event"",""trial"",""time""
""fullscreenexit"",""10"",""89688""
",NA,images/earth.jpg,NA,NA,NA,NA,NA,NA,NA,NA,NA,NA,NA,NA,NA,fixation,NA,NA,NA,NA,NA,NA,sub96
d3-animate-choice,159,693879,0.0-76.0-0.8,TRUE,TRUE,FALSE,TRUE,"""event"",""trial"",""time""
""fullscreenenter"",""5"",""20377""
""fullscreenexit"",""10"",""89688""
","
","
","""event"",""trial"",""time""
""fullscreenenter"",""5"",""20377""
","""event"",""trial"",""time""
""fullscreenexit"",""10"",""89688""
",625,NA,48,NA,NA,3000,1,"782,945,1116,1279,1445,1627,1814,1989,2175",484848484848484800,images/earth.jpg,images/rocket2,images/rocket1,null,images/rocket2,NA,1,real,null,2,NA,NA,NA,sub96
d3-animate-choice,160,696640,0.0-76.0-1.8,TRUE,TRUE,FALSE,TRUE,"""event"",""trial"",""time""
""fullscreenenter"",""5"",""20377""
""fullscreenexit"",""10"",""89688""
","
","
","""event"",""trial"",""time""
""fullscreenenter"",""5"",""20377""
","""event"",""trial"",""time""
""fullscreenexit"",""10"",""89688""
",757,NA,49,NA,NA,3000,1,"972,1132,1330,1539.0000000001164,1716,1893,2083",49494949494949,images/redplanet1.jpg,images/alien2,images/alien1,images/rocket2,images/alien1,images/nothing.png,2,real,false,1,rare,0,2020-06-18T18:54:44Z,sub96
two-step-fixation,161,697642,0.0-76.0-2.8,TRUE,TRUE,FALSE,TRUE,"""event"",""trial"",""time""
""fullscreenenter"",""5"",""20377""
""fullscreenexit"",""10"",""89688""
","
","
","""event"",""trial"",""time""
""fullscreenenter"",""5"",""20377""
","""event"",""trial"",""time""
""fullscreenexit"",""10"",""89688""
",NA,images/earth.jpg,NA,NA,NA,NA,NA,NA,NA,NA,NA,NA,NA,NA,NA,fixation,NA,NA,NA,NA,NA,NA,sub96
d3-animate-choice,162,700349,0.0-76.0-0.9,TRUE,TRUE,FALSE,TRUE,"""event"",""trial"",""time""
""fullscreenenter"",""5"",""20377""
""fullscreenexit"",""10"",""89688""
","
","
","""event"",""trial"",""time""
""fullscreenenter"",""5"",""20377""
","""event"",""trial"",""time""
""fullscreenexit"",""10"",""89688""
",703,NA,49,NA,NA,3000,1,"922,1263,1467,1644,1854,2047,2230",49494949494949,images/earth.jpg,images/rocket2,images/rocket1,null,images/rocket1,NA,1,real,null,1,NA,NA,NA,sub96
d3-animate-choice,163,703290,0.0-76.0-1.9,TRUE,TRUE,FALSE,TRUE,"""event"",""trial"",""time""
""fullscreenenter"",""5"",""20377""
""fullscreenexit"",""10"",""89688""
","
","
","""event"",""trial"",""time""
""fullscreenenter"",""5"",""20377""
","""event"",""trial"",""time""
""fullscreenexit"",""10"",""89688""
",939,NA,49,NA,NA,3000,1,"1112,1300,1492,1689,1878,2055",494949494949,images/redplanet1.jpg,images/alien2,images/alien1,images/rocket1,images/alien1,images/nothing.png,2,real,true,1,common,0,2020-06-18T18:54:51Z,sub96
two-step-fixation,164,704292,0.0-76.0-2.9,TRUE,TRUE,FALSE,TRUE,"""event"",""trial"",""time""
""fullscreenenter"",""5"",""20377""
""fullscreenexit"",""10"",""89688""
","
","
","""event"",""trial"",""time""
""fullscreenenter"",""5"",""20377""
","""event"",""trial"",""time""
""fullscreenexit"",""10"",""89688""
",NA,images/earth.jpg,NA,NA,NA,NA,NA,NA,NA,NA,NA,NA,NA,NA,NA,fixation,NA,NA,NA,NA,NA,NA,sub96
d3-animate-choice,165,706395,0.0-76.0-0.10,TRUE,TRUE,FALSE,TRUE,"""event"",""trial"",""time""
""fullscreenenter"",""5"",""20377""
""fullscreenexit"",""10"",""89688""
","
","
","""event"",""trial"",""time""
""fullscreenenter"",""5"",""20377""
","""event"",""trial"",""time""
""fullscreenexit"",""10"",""89688""
",100,NA,48,NA,NA,3000,1,"520.0000000001164,703,895.0000000001164,1072,1226",4848484848,images/earth.jpg,images/rocket2,images/rocket1,null,images/rocket2,NA,1,real,null,2,NA,NA,NA,sub96
d3-animate-choice,166,708680,0.0-76.0-1.10,TRUE,TRUE,FALSE,TRUE,"""event"",""trial"",""time""
""fullscreenenter"",""5"",""20377""
""fullscreenexit"",""10"",""89688""
","
","
","""event"",""trial"",""time""
""fullscreenenter"",""5"",""20377""
","""event"",""trial"",""time""
""fullscreenexit"",""10"",""89688""
",282,NA,48,NA,NA,3000,1,"466,661,837,997,1178,1354,1674",48484848484848,images/redplanet1.jpg,images/alien2,images/alien1,images/rocket2,images/alien2,images/t.png,2,real,false,2,rare,1,2020-06-18T18:54:56Z,sub96
two-step-fixation,167,709682,0.0-76.0-2.10,TRUE,TRUE,FALSE,TRUE,"""event"",""trial"",""time""
""fullscreenenter"",""5"",""20377""
""fullscreenexit"",""10"",""89688""
","
","
","""event"",""trial"",""time""
""fullscreenenter"",""5"",""20377""
","""event"",""trial"",""time""
""fullscreenexit"",""10"",""89688""
",NA,images/earth.jpg,NA,NA,NA,NA,NA,NA,NA,NA,NA,NA,NA,NA,NA,fixation,NA,NA,NA,NA,NA,NA,sub96
d3-animate-choice,168,712404,0.0-76.0-0.11,TRUE,TRUE,FALSE,TRUE,"""event"",""trial"",""time""
""fullscreenenter"",""5"",""20377""
""fullscreenexit"",""10"",""89688""
","
","
","""event"",""trial"",""time""
""fullscreenenter"",""5"",""20377""
","""event"",""trial"",""time""
""fullscreenexit"",""10"",""89688""
",719,NA,49,NA,NA,3000,1,"899,1100,1288,1476,1750,1937,2127",49494949494949,images/earth.jpg,images/rocket2,images/rocket1,null,images/rocket1,NA,1,real,null,1,NA,NA,NA,sub96
d3-animate-choice,169,714952,0.0-76.0-1.11,TRUE,TRUE,FALSE,TRUE,"""event"",""trial"",""time""
""fullscreenenter"",""5"",""20377""
""fullscreenexit"",""10"",""89688""
","
","
","""event"",""trial"",""time""
""fullscreenenter"",""5"",""20377""
","""event"",""trial"",""time""
""fullscreenexit"",""10"",""89688""
",544,NA,48,NA,NA,3000,1,"717,927.0000000001164,1106,1296,1461.0000000001164,1653.0000000001164,1850.0000000001164,2039",4848484848484848,images/purpleplanet.jpg,images/alien4,images/alien3,images/rocket1,images/alien4,images/t.png,2,real,false,2,rare,1,2020-06-18T18:55:02Z,sub96
two-step-fixation,170,715954,0.0-76.0-2.11,TRUE,TRUE,FALSE,TRUE,"""event"",""trial"",""time""
""fullscreenenter"",""5"",""20377""
""fullscreenexit"",""10"",""89688""
","
","
","""event"",""trial"",""time""
""fullscreenenter"",""5"",""20377""
","""event"",""trial"",""time""
""fullscreenexit"",""10"",""89688""
",NA,images/earth.jpg,NA,NA,NA,NA,NA,NA,NA,NA,NA,NA,NA,NA,NA,fixation,NA,NA,NA,NA,NA,NA,sub96
d3-animate-choice,171,718195,0.0-76.0-0.12,TRUE,TRUE,FALSE,TRUE,"""event"",""trial"",""time""
""fullscreenenter"",""5"",""20377""
""fullscreenexit"",""10"",""89688""
","
","
","""event"",""trial"",""time""
""fullscreenenter"",""5"",""20377""
","""event"",""trial"",""time""
""fullscreenexit"",""10"",""89688""
",238,NA,48,NA,NA,3000,1,"421,596,776,960.0000000001164,1144,1340.0000000001164",484848484848,images/earth.jpg,images/rocket2,images/rocket1,null,images/rocket2,NA,1,real,null,2,NA,NA,NA,sub96
d3-animate-choice,172,720467,0.0-76.0-1.12,TRUE,TRUE,FALSE,TRUE,"""event"",""trial"",""time""
""fullscreenenter"",""5"",""20377""
""fullscreenexit"",""10"",""89688""
","
","
","""event"",""trial"",""time""
""fullscreenenter"",""5"",""20377""
","""event"",""trial"",""time""
""fullscreenexit"",""10"",""89688""
",270,NA,48,NA,NA,3000,1,"470,666.0000000001164,853,1203,1399,1587",484848484848,images/purpleplanet.jpg,images/alien4,images/alien3,images/rocket2,images/alien4,images/t.png,2,real,true,2,common,1,2020-06-18T18:55:08Z,sub96
two-step-fixation,173,721469,0.0-76.0-2.12,TRUE,TRUE,FALSE,TRUE,"""event"",""trial"",""time""
""fullscreenenter"",""5"",""20377""
""fullscreenexit"",""10"",""89688""
","
","
","""event"",""trial"",""time""
""fullscreenenter"",""5"",""20377""
","""event"",""trial"",""time""
""fullscreenexit"",""10"",""89688""
",NA,images/earth.jpg,NA,NA,NA,NA,NA,NA,NA,NA,NA,NA,NA,NA,NA,fixation,NA,NA,NA,NA,NA,NA,sub96
d3-animate-choice,174,723492,0.0-76.0-0.13,TRUE,TRUE,FALSE,TRUE,"""event"",""trial"",""time""
""fullscreenenter"",""5"",""20377""
""fullscreenexit"",""10"",""89688""
","
","
","""event"",""trial"",""time""
""fullscreenenter"",""5"",""20377""
","""event"",""trial"",""time""
""fullscreenexit"",""10"",""89688""
",20,NA,48,NA,NA,3000,1,"223.00000000011642,425,613,826,1031,1211,1405",48484848484848,images/earth.jpg,images/rocket2,images/rocket1,null,images/rocket2,NA,1,real,null,2,NA,NA,NA,sub96
d3-animate-choice,175,725976,0.0-76.0-1.13,TRUE,TRUE,FALSE,TRUE,"""event"",""trial"",""time""
""fullscreenenter"",""5"",""20377""
""fullscreenexit"",""10"",""89688""
","
","
","""event"",""trial"",""time""
""fullscreenenter"",""5"",""20377""
","""event"",""trial"",""time""
""fullscreenexit"",""10"",""89688""
",481,NA,48,NA,NA,3000,1,"685,899,1093,1309",48484848,images/purpleplanet.jpg,images/alien4,images/alien3,images/rocket2,images/alien4,images/t.png,2,real,true,2,common,1,2020-06-18T18:55:13Z,sub96
two-step-fixation,176,726978,0.0-76.0-2.13,TRUE,TRUE,FALSE,TRUE,"""event"",""trial"",""time""
""fullscreenenter"",""5"",""20377""
""fullscreenexit"",""10"",""89688""
","
","
","""event"",""trial"",""time""
""fullscreenenter"",""5"",""20377""
","""event"",""trial"",""time""
""fullscreenexit"",""10"",""89688""
",NA,images/earth.jpg,NA,NA,NA,NA,NA,NA,NA,NA,NA,NA,NA,NA,NA,fixation,NA,NA,NA,NA,NA,NA,sub96
d3-animate-choice,177,729272,0.0-76.0-0.14,TRUE,TRUE,FALSE,TRUE,"""event"",""trial"",""time""
""fullscreenenter"",""5"",""20377""
""fullscreenexit"",""10"",""89688""
","
","
","""event"",""trial"",""time""
""fullscreenenter"",""5"",""20377""
","""event"",""trial"",""time""
""fullscreenexit"",""10"",""89688""
",292,NA,49,NA,NA,3000,1,"490,676,887,1096,1307,1502,1705.0000000001164",49494949494949,images/earth.jpg,images/rocket2,images/rocket1,null,images/rocket1,NA,1,real,null,1,NA,NA,NA,sub96
d3-animate-choice,178,731724,0.0-76.0-1.14,TRUE,TRUE,FALSE,TRUE,"""event"",""trial"",""time""
""fullscreenenter"",""5"",""20377""
""fullscreenexit"",""10"",""89688""
","
","
","""event"",""trial"",""time""
""fullscreenenter"",""5"",""20377""
","""event"",""trial"",""time""
""fullscreenexit"",""10"",""89688""
",450,NA,48,NA,NA,3000,1,"641,837,1019,1183,1362",4848484848,images/redplanet1.jpg,images/alien2,images/alien1,images/rocket1,images/alien2,images/t.png,2,real,true,2,common,1,2020-06-18T18:55:19Z,sub96
two-step-fixation,179,732726,0.0-76.0-2.14,TRUE,TRUE,FALSE,TRUE,"""event"",""trial"",""time""
""fullscreenenter"",""5"",""20377""
""fullscreenexit"",""10"",""89688""
","
","
","""event"",""trial"",""time""
""fullscreenenter"",""5"",""20377""
","""event"",""trial"",""time""
""fullscreenexit"",""10"",""89688""
",NA,images/earth.jpg,NA,NA,NA,NA,NA,NA,NA,NA,NA,NA,NA,NA,NA,fixation,NA,NA,NA,NA,NA,NA,sub96
d3-animate-choice,180,734823,0.0-76.0-0.15,TRUE,TRUE,FALSE,TRUE,"""event"",""trial"",""time""
""fullscreenenter"",""5"",""20377""
""fullscreenexit"",""10"",""89688""
","
","
","""event"",""trial"",""time""
""fullscreenenter"",""5"",""20377""
","""event"",""trial"",""time""
""fullscreenexit"",""10"",""89688""
",94,NA,48,NA,NA,3000,1,"299,504.0000000001164,701,905,1091.0000000001164",4848484848,images/earth.jpg,images/rocket2,images/rocket1,null,images/rocket2,NA,1,real,null,2,NA,NA,NA,sub96
d3-animate-choice,181,737537,0.0-76.0-1.15,TRUE,TRUE,FALSE,TRUE,"""event"",""trial"",""time""
""fullscreenenter"",""5"",""20377""
""fullscreenexit"",""10"",""89688""
","
","
","""event"",""trial"",""time""
""fullscreenenter"",""5"",""20377""
","""event"",""trial"",""time""
""fullscreenexit"",""10"",""89688""
",712,NA,48,NA,NA,3000,1,"889.0000000001164,1083,1277,1444,1632,1779,2187.0000000001164",48484848484848,images/purpleplanet.jpg,images/alien4,images/alien3,images/rocket2,images/alien4,images/nothing.png,2,real,true,2,common,0,2020-06-18T18:55:25Z,sub96
two-step-fixation,182,738539,0.0-76.0-2.15,TRUE,TRUE,FALSE,TRUE,"""event"",""trial"",""time""
""fullscreenenter"",""5"",""20377""
""fullscreenexit"",""10"",""89688""
","
","
","""event"",""trial"",""time""
""fullscreenenter"",""5"",""20377""
","""event"",""trial"",""time""
""fullscreenexit"",""10"",""89688""
",NA,images/earth.jpg,NA,NA,NA,NA,NA,NA,NA,NA,NA,NA,NA,NA,NA,fixation,NA,NA,NA,NA,NA,NA,sub96
d3-animate-choice,183,740924,0.0-76.0-0.16,TRUE,TRUE,FALSE,TRUE,"""event"",""trial"",""time""
""fullscreenenter"",""5"",""20377""
""fullscreenexit"",""10"",""89688""
","
","
","""event"",""trial"",""time""
""fullscreenenter"",""5"",""20377""
","""event"",""trial"",""time""
""fullscreenexit"",""10"",""89688""
",384,NA,49,NA,NA,3000,1,"554.0000000001164,764,964,1150.0000000001164,1344,1518,1684",49494949494949,images/earth.jpg,images/rocket2,images/rocket1,null,images/rocket1,NA,1,real,null,1,NA,NA,NA,sub96
d3-animate-choice,184,743324,0.0-76.0-1.16,TRUE,TRUE,FALSE,TRUE,"""event"",""trial"",""time""
""fullscreenenter"",""5"",""20377""
""fullscreenexit"",""10"",""89688""
","
","
","""event"",""trial"",""time""
""fullscreenenter"",""5"",""20377""
","""event"",""trial"",""time""
""fullscreenexit"",""10"",""89688""
",397,NA,49,NA,NA,3000,1,"819,1007,1219,1406,1609.0000000001164,1815",494949494949,images/redplanet1.jpg,images/alien2,images/alien1,images/rocket1,images/alien1,images/nothing.png,2,real,true,1,common,0,2020-06-18T18:55:31Z,sub96
two-step-fixation,185,744326,0.0-76.0-2.16,TRUE,TRUE,FALSE,TRUE,"""event"",""trial"",""time""
""fullscreenenter"",""5"",""20377""
""fullscreenexit"",""10"",""89688""
","
","
","""event"",""trial"",""time""
""fullscreenenter"",""5"",""20377""
","""event"",""trial"",""time""
""fullscreenexit"",""10"",""89688""
",NA,images/earth.jpg,NA,NA,NA,NA,NA,NA,NA,NA,NA,NA,NA,NA,NA,fixation,NA,NA,NA,NA,NA,NA,sub96
d3-animate-choice,186,746349,0.0-76.0-0.17,TRUE,TRUE,FALSE,TRUE,"""event"",""trial"",""time""
""fullscreenenter"",""5"",""20377""
""fullscreenexit"",""10"",""89688""
","
","
","""event"",""trial"",""time""
""fullscreenenter"",""5"",""20377""
","""event"",""trial"",""time""
""fullscreenexit"",""10"",""89688""
",21,NA,48,NA,NA,3000,1,"211,401,603,795,1013",4848484848,images/earth.jpg,images/rocket2,images/rocket1,null,images/rocket2,NA,1,real,null,2,NA,NA,NA,sub96
d3-animate-choice,187,748854,0.0-76.0-1.17,TRUE,TRUE,FALSE,TRUE,"""event"",""trial"",""time""
""fullscreenenter"",""5"",""20377""
""fullscreenexit"",""10"",""89688""
","
","
","""event"",""trial"",""time""
""fullscreenenter"",""5"",""20377""
","""event"",""trial"",""time""
""fullscreenexit"",""10"",""89688""
",501,NA,48,NA,NA,3000,1,"721,2001",4848,images/purpleplanet.jpg,images/alien4,images/alien3,images/rocket2,images/alien4,images/t.png,2,real,true,2,common,1,2020-06-18T18:55:36Z,sub96
two-step-fixation,188,749855,0.0-76.0-2.17,TRUE,TRUE,FALSE,TRUE,"""event"",""trial"",""time""
""fullscreenenter"",""5"",""20377""
""fullscreenexit"",""10"",""89688""
","
","
","""event"",""trial"",""time""
""fullscreenenter"",""5"",""20377""
","""event"",""trial"",""time""
""fullscreenexit"",""10"",""89688""
",NA,images/earth.jpg,NA,NA,NA,NA,NA,NA,NA,NA,NA,NA,NA,NA,NA,fixation,NA,NA,NA,NA,NA,NA,sub96
d3-animate-choice,189,752543,0.0-76.0-0.18,TRUE,TRUE,FALSE,TRUE,"""event"",""trial"",""time""
""fullscreenenter"",""5"",""20377""
""fullscreenexit"",""10"",""89688""
","
","
","""event"",""trial"",""time""
""fullscreenenter"",""5"",""20377""
","""event"",""trial"",""time""
""fullscreenexit"",""10"",""89688""
",683.9999999998836,NA,49,NA,NA,3000,1,"889.9999999998836,1063.9999999998836,1281.9999999998836,1505.9999999998836,1688,1899",494949494949,images/earth.jpg,images/rocket2,images/rocket1,null,images/rocket1,NA,1,real,null,1,NA,NA,NA,sub96
d3-animate-choice,190,755053,0.0-76.0-1.18,TRUE,TRUE,FALSE,TRUE,"""event"",""trial"",""time""
""fullscreenenter"",""5"",""20377""
""fullscreenexit"",""10"",""89688""
","
","
","""event"",""trial"",""time""
""fullscreenenter"",""5"",""20377""
","""event"",""trial"",""time""
""fullscreenexit"",""10"",""89688""
",507,NA,49,NA,NA,3000,1,"723,925,1117,1538,1745",4949494949,images/redplanet1.jpg,images/alien2,images/alien1,images/rocket1,images/alien1,images/nothing.png,2,real,true,1,common,0,2020-06-18T18:55:42Z,sub96
two-step-fixation,191,756055,0.0-76.0-2.18,TRUE,TRUE,FALSE,TRUE,"""event"",""trial"",""time""
""fullscreenenter"",""5"",""20377""
""fullscreenexit"",""10"",""89688""
","
","
","""event"",""trial"",""time""
""fullscreenenter"",""5"",""20377""
","""event"",""trial"",""time""
""fullscreenexit"",""10"",""89688""
",NA,images/earth.jpg,NA,NA,NA,NA,NA,NA,NA,NA,NA,NA,NA,NA,NA,fixation,NA,NA,NA,NA,NA,NA,sub96
d3-animate-choice,192,758185,0.0-76.0-0.19,TRUE,TRUE,FALSE,TRUE,"""event"",""trial"",""time""
""fullscreenenter"",""5"",""20377""
""fullscreenexit"",""10"",""89688""
","
","
","""event"",""trial"",""time""
""fullscreenenter"",""5"",""20377""
","""event"",""trial"",""time""
""fullscreenexit"",""10"",""89688""
",127,NA,48,NA,NA,3000,1,"318,497,661,852,1039,1230,1453",48484848484848,images/earth.jpg,images/rocket2,images/rocket1,null,images/rocket2,NA,1,real,null,2,NA,NA,NA,sub96
d3-animate-choice,193,760492,0.0-76.0-1.19,TRUE,TRUE,FALSE,TRUE,"""event"",""trial"",""time""
""fullscreenenter"",""5"",""20377""
""fullscreenexit"",""10"",""89688""
","
","
","""event"",""trial"",""time""
""fullscreenenter"",""5"",""20377""
","""event"",""trial"",""time""
""fullscreenexit"",""10"",""89688""
",304,NA,48,NA,NA,3000,1,"507,684,850,1004,1194,1374,1540,1714,1903",484848484848484800,images/purpleplanet.jpg,images/alien4,images/alien3,images/rocket2,images/alien4,images/nothing.png,2,real,true,2,common,0,2020-06-18T18:55:48Z,sub96
two-step-fixation,194,761494,0.0-76.0-2.19,TRUE,TRUE,FALSE,TRUE,"""event"",""trial"",""time""
""fullscreenenter"",""5"",""20377""
""fullscreenexit"",""10"",""89688""
","
","
","""event"",""trial"",""time""
""fullscreenenter"",""5"",""20377""
","""event"",""trial"",""time""
""fullscreenexit"",""10"",""89688""
",NA,images/earth.jpg,NA,NA,NA,NA,NA,NA,NA,NA,NA,NA,NA,NA,NA,fixation,NA,NA,NA,NA,NA,NA,sub96
d3-animate-choice,195,763689,0.0-76.0-0.20,TRUE,TRUE,FALSE,TRUE,"""event"",""trial"",""time""
""fullscreenenter"",""5"",""20377""
""fullscreenexit"",""10"",""89688""
","
","
","""event"",""trial"",""time""
""fullscreenenter"",""5"",""20377""
","""event"",""trial"",""time""
""fullscreenexit"",""10"",""89688""
",192,NA,48,NA,NA,3000,1,404,48,images/earth.jpg,images/rocket2,images/rocket1,null,images/rocket2,NA,1,real,null,2,NA,NA,NA,sub96
d3-animate-choice,196,766623,0.0-76.0-1.20,TRUE,TRUE,FALSE,TRUE,"""event"",""trial"",""time""
""fullscreenenter"",""5"",""20377""
""fullscreenexit"",""10"",""89688""
","
","
","""event"",""trial"",""time""
""fullscreenenter"",""5"",""20377""
","""event"",""trial"",""time""
""fullscreenexit"",""10"",""89688""
",931,NA,48,NA,NA,3000,1,"1143.0000000001164,1360,1579",484848,images/redplanet1.jpg,images/alien2,images/alien1,images/rocket2,images/alien2,images/t.png,2,real,false,2,rare,1,2020-06-18T18:55:54Z,sub96
two-step-fixation,197,767624,0.0-76.0-2.20,TRUE,TRUE,FALSE,TRUE,"""event"",""trial"",""time""
""fullscreenenter"",""5"",""20377""
""fullscreenexit"",""10"",""89688""
","
","
","""event"",""trial"",""time""
""fullscreenenter"",""5"",""20377""
","""event"",""trial"",""time""
""fullscreenexit"",""10"",""89688""
",NA,images/earth.jpg,NA,NA,NA,NA,NA,NA,NA,NA,NA,NA,NA,NA,NA,fixation,NA,NA,NA,NA,NA,NA,sub96
d3-animate-choice,198,769633,0.0-76.0-0.21,TRUE,TRUE,FALSE,TRUE,"""event"",""trial"",""time""
""fullscreenenter"",""5"",""20377""
""fullscreenexit"",""10"",""89688""
","
","
","""event"",""trial"",""time""
""fullscreenenter"",""5"",""20377""
","""event"",""trial"",""time""
""fullscreenexit"",""10"",""89688""
",5,NA,48,NA,NA,3000,1,"266.0000000001164,490,727,945,1166",4848484848,images/earth.jpg,images/rocket2,images/rocket1,null,images/rocket2,NA,1,real,null,2,NA,NA,NA,sub96
d3-animate-choice,199,772196,0.0-76.0-1.21,TRUE,TRUE,FALSE,TRUE,"""event"",""trial"",""time""
""fullscreenenter"",""5"",""20377""
""fullscreenexit"",""10"",""89688""
","
","
","""event"",""trial"",""time""
""fullscreenenter"",""5"",""20377""
","""event"",""trial"",""time""
""fullscreenexit"",""10"",""89688""
",560.0000000001164,NA,48,NA,NA,3000,1,"830,1054,1265,1477,1808",4848484848,images/purpleplanet.jpg,images/alien4,images/alien3,images/rocket2,images/alien4,images/t.png,2,real,true,2,common,1,2020-06-18T18:55:59Z,sub96
two-step-fixation,200,773199,0.0-76.0-2.21,TRUE,TRUE,FALSE,TRUE,"""event"",""trial"",""time""
""fullscreenenter"",""5"",""20377""
""fullscreenexit"",""10"",""89688""
","
","
","""event"",""trial"",""time""
""fullscreenenter"",""5"",""20377""
","""event"",""trial"",""time""
""fullscreenexit"",""10"",""89688""
",NA,images/earth.jpg,NA,NA,NA,NA,NA,NA,NA,NA,NA,NA,NA,NA,NA,fixation,NA,NA,NA,NA,NA,NA,sub96
d3-animate-choice,201,775447,0.0-76.0-0.22,TRUE,TRUE,FALSE,TRUE,"""event"",""trial"",""time""
""fullscreenenter"",""5"",""20377""
""fullscreenexit"",""10"",""89688""
","
","
","""event"",""trial"",""time""
""fullscreenenter"",""5"",""20377""
","""event"",""trial"",""time""
""fullscreenexit"",""10"",""89688""
",245,NA,49,NA,NA,3000,1,"499,770,982,1187,1425",4949494949,images/earth.jpg,images/rocket2,images/rocket1,null,images/rocket1,NA,1,real,null,1,NA,NA,NA,sub96
d3-animate-choice,202,778618,0.0-76.0-1.22,TRUE,TRUE,FALSE,TRUE,"""event"",""trial"",""time""
""fullscreenenter"",""5"",""20377""
""fullscreenexit"",""10"",""89688""
","
","
","""event"",""trial"",""time""
""fullscreenenter"",""5"",""20377""
","""event"",""trial"",""time""
""fullscreenexit"",""10"",""89688""
",1168,NA,49,NA,NA,3000,1,"1366.0000000001164,1568.0000000001164,1763,1995,2256",4949494949,images/redplanet1.jpg,images/alien2,images/alien1,images/rocket1,images/alien1,images/t.png,2,real,true,1,common,1,2020-06-18T18:56:06Z,sub96
two-step-fixation,203,779620,0.0-76.0-2.22,TRUE,TRUE,FALSE,TRUE,"""event"",""trial"",""time""
""fullscreenenter"",""5"",""20377""
""fullscreenexit"",""10"",""89688""
","
","
","""event"",""trial"",""time""
""fullscreenenter"",""5"",""20377""
","""event"",""trial"",""time""
""fullscreenexit"",""10"",""89688""
",NA,images/earth.jpg,NA,NA,NA,NA,NA,NA,NA,NA,NA,NA,NA,NA,NA,fixation,NA,NA,NA,NA,NA,NA,sub96
d3-animate-choice,204,781930,0.0-76.0-0.23,TRUE,TRUE,FALSE,TRUE,"""event"",""trial"",""time""
""fullscreenenter"",""5"",""20377""
""fullscreenexit"",""10"",""89688""
","
","
","""event"",""trial"",""time""
""fullscreenenter"",""5"",""20377""
","""event"",""trial"",""time""
""fullscreenexit"",""10"",""89688""
",307,NA,48,NA,NA,3000,1,"537,760.0000000001164,957,1183,1396",4848484848,images/earth.jpg,images/rocket2,images/rocket1,null,images/rocket2,NA,1,real,null,2,NA,NA,NA,sub96
d3-animate-choice,205,784254,0.0-76.0-1.23,TRUE,TRUE,FALSE,TRUE,"""event"",""trial"",""time""
""fullscreenenter"",""5"",""20377""
""fullscreenexit"",""10"",""89688""
","
","
","""event"",""trial"",""time""
""fullscreenenter"",""5"",""20377""
","""event"",""trial"",""time""
""fullscreenexit"",""10"",""89688""
",321,NA,49,NA,NA,3000,1,"581,839,1067,1309,1539",4949494949,images/purpleplanet.jpg,images/alien4,images/alien3,images/rocket2,images/alien3,images/t.png,2,real,true,1,common,1,2020-06-18T18:56:12Z,sub96
two-step-fixation,206,785257,0.0-76.0-2.23,TRUE,TRUE,FALSE,TRUE,"""event"",""trial"",""time""
""fullscreenenter"",""5"",""20377""
""fullscreenexit"",""10"",""89688""
","
","
","""event"",""trial"",""time""
""fullscreenenter"",""5"",""20377""
","""event"",""trial"",""time""
""fullscreenexit"",""10"",""89688""
",NA,images/earth.jpg,NA,NA,NA,NA,NA,NA,NA,NA,NA,NA,NA,NA,NA,fixation,NA,NA,NA,NA,NA,NA,sub96
d3-animate-choice,207,787900,0.0-76.0-0.24,TRUE,TRUE,FALSE,TRUE,"""event"",""trial"",""time""
""fullscreenenter"",""5"",""20377""
""fullscreenexit"",""10"",""89688""
","
","
","""event"",""trial"",""time""
""fullscreenenter"",""5"",""20377""
","""event"",""trial"",""time""
""fullscreenexit"",""10"",""89688""
",640,NA,48,NA,NA,3000,1,"817,1015,1212,1375,1593,1796,2026,2223,2397.0000000001164",484848484848484800,images/earth.jpg,images/rocket2,images/rocket1,null,images/rocket2,NA,1,real,null,2,NA,NA,NA,sub96
d3-animate-choice,208,790165,0.0-76.0-1.24,TRUE,TRUE,FALSE,TRUE,"""event"",""trial"",""time""
""fullscreenenter"",""5"",""20377""
""fullscreenexit"",""10"",""89688""
","
","
","""event"",""trial"",""time""
""fullscreenenter"",""5"",""20377""
","""event"",""trial"",""time""
""fullscreenexit"",""10"",""89688""
",262,NA,48,NA,NA,3000,1,"459,662,883,1088,1278,1468,1677",48484848484848,images/redplanet1.jpg,images/alien2,images/alien1,images/rocket2,images/alien2,images/t.png,2,real,false,2,rare,1,2020-06-18T18:56:17Z,sub96
two-step-fixation,209,791166,0.0-76.0-2.24,TRUE,TRUE,FALSE,TRUE,"""event"",""trial"",""time""
""fullscreenenter"",""5"",""20377""
""fullscreenexit"",""10"",""89688""
","
","
","""event"",""trial"",""time""
""fullscreenenter"",""5"",""20377""
","""event"",""trial"",""time""
""fullscreenexit"",""10"",""89688""
",NA,images/earth.jpg,NA,NA,NA,NA,NA,NA,NA,NA,NA,NA,NA,NA,NA,fixation,NA,NA,NA,NA,NA,NA,sub96
d3-animate-choice,210,793207,0.0-76.0-0.25,TRUE,TRUE,FALSE,TRUE,"""event"",""trial"",""time""
""fullscreenenter"",""5"",""20377""
""fullscreenexit"",""10"",""89688""
","
","
","""event"",""trial"",""time""
""fullscreenenter"",""5"",""20377""
","""event"",""trial"",""time""
""fullscreenexit"",""10"",""89688""
",39,NA,49,NA,NA,3000,1,"345,567,777.0000000001164,1010,1247",4949494949,images/earth.jpg,images/rocket2,images/rocket1,null,images/rocket1,NA,1,real,null,1,NA,NA,NA,sub96
d3-animate-choice,211,795781,0.0-76.0-1.25,TRUE,TRUE,FALSE,TRUE,"""event"",""trial"",""time""
""fullscreenenter"",""5"",""20377""
""fullscreenexit"",""10"",""89688""
","
","
","""event"",""trial"",""time""
""fullscreenenter"",""5"",""20377""
","""event"",""trial"",""time""
""fullscreenexit"",""10"",""89688""
",570,NA,48,NA,NA,3000,1,"770,986,1195,1413,1640,1849,2132",48484848484848,images/redplanet1.jpg,images/alien2,images/alien1,images/rocket1,images/alien2,images/t.png,2,real,true,2,common,1,2020-06-18T18:56:23Z,sub96
two-step-fixation,212,796783,0.0-76.0-2.25,TRUE,TRUE,FALSE,TRUE,"""event"",""trial"",""time""
""fullscreenenter"",""5"",""20377""
""fullscreenexit"",""10"",""89688""
","
","
","""event"",""trial"",""time""
""fullscreenenter"",""5"",""20377""
","""event"",""trial"",""time""
""fullscreenexit"",""10"",""89688""
",NA,images/earth.jpg,NA,NA,NA,NA,NA,NA,NA,NA,NA,NA,NA,NA,NA,fixation,NA,NA,NA,NA,NA,NA,sub96
d3-animate-choice,213,799395,0.0-76.0-0.26,TRUE,TRUE,FALSE,TRUE,"""event"",""trial"",""time""
""fullscreenenter"",""5"",""20377""
""fullscreenexit"",""10"",""89688""
","
","
","""event"",""trial"",""time""
""fullscreenenter"",""5"",""20377""
","""event"",""trial"",""time""
""fullscreenexit"",""10"",""89688""
",609,NA,48,NA,NA,3000,1,"830,1015,1236,1427,1630,1815",484848484848,images/earth.jpg,images/rocket2,images/rocket1,null,images/rocket2,NA,1,real,null,2,NA,NA,NA,sub96
d3-animate-choice,214,802477,0.0-76.0-1.26,TRUE,TRUE,FALSE,TRUE,"""event"",""trial"",""time""
""fullscreenenter"",""5"",""20377""
""fullscreenexit"",""10"",""89688""
","
","
","""event"",""trial"",""time""
""fullscreenenter"",""5"",""20377""
","""event"",""trial"",""time""
""fullscreenexit"",""10"",""89688""
",1079,NA,49,NA,NA,3000,1,"1285,1461.0000000001164,1694,1904,2147,2402,2659",49494949494949,images/purpleplanet.jpg,images/alien4,images/alien3,images/rocket2,images/alien3,images/t.png,2,real,true,1,common,1,2020-06-18T18:56:30Z,sub96
two-step-fixation,215,803479,0.0-76.0-2.26,TRUE,TRUE,FALSE,TRUE,"""event"",""trial"",""time""
""fullscreenenter"",""5"",""20377""
