trial_type,trial_index,time_elapsed,internal_node_id,rocket_sides,red_planet_first_rocket,red_display_order,purple_display_order,interactions,blur_events,focus_events,fullscreenenter_events,fullscreenexit_events,rt,stimulus,key_press,button_pressed,success,duration,valid_pressed,rts,keys,planet_text,right_text,left_text,center_text,chosen_text,reward_text,trial_stage,practice_trial,transition_type,choice,transition,reward,timestamp,subject_id
pavlovia,0,7,0.0-0.0,TRUE,FALSE,TRUE,TRUE,"
","
","
","
","
",NA,NA,NA,NA,NA,NA,NA,NA,NA,NA,NA,NA,NA,NA,NA,NA,NA,NA,NA,NA,NA,NA,sub67
html-keyboard-response,1,1638,0.0-1.0,TRUE,FALSE,TRUE,TRUE,"
","
","
","
","
",1629,Welcome! Press the space bar to begin.,32,NA,NA,NA,NA,NA,NA,NA,NA,NA,NA,NA,NA,NA,NA,NA,NA,NA,NA,NA,sub67
audio-keyboard-response,2,4969,0.0-2.0,TRUE,FALSE,TRUE,TRUE,"""event"",""trial"",""time""
""blur"",""3"",""10987""
""focus"",""3"",""10988""
","""event"",""trial"",""time""
""blur"",""3"",""10987""
","""event"",""trial"",""time""
""focus"",""3"",""10988""
","
","
",3253,audio/beep_loop.wav,32,NA,NA,NA,NA,NA,NA,NA,NA,NA,NA,NA,NA,NA,NA,NA,NA,NA,NA,NA,sub67
audio-button-response,3,12008,0.0-3.0,TRUE,FALSE,TRUE,TRUE,"""event"",""trial"",""time""
""blur"",""3"",""10987""
""focus"",""3"",""10988""
","""event"",""trial"",""time""
""blur"",""3"",""10987""
","""event"",""trial"",""time""
""focus"",""3"",""10988""
","
","
",NaN,audio/fish.mp3,NA,1,NA,NA,NA,NA,NA,NA,NA,NA,NA,NA,NA,NA,NA,NA,NA,NA,NA,NA,sub67
audio-button-response,4,14441,0.0-4.0,TRUE,FALSE,TRUE,TRUE,"""event"",""trial"",""time""
""blur"",""3"",""10987""
""focus"",""3"",""10988""
""fullscreenenter"",""5"",""19159""
","""event"",""trial"",""time""
""blur"",""3"",""10987""
","""event"",""trial"",""time""
""focus"",""3"",""10988""
","""event"",""trial"",""time""
""fullscreenenter"",""5"",""19159""
","
",NaN,audio/tiger.mp3,NA,4,NA,NA,NA,NA,NA,NA,NA,NA,NA,NA,NA,NA,NA,NA,NA,NA,NA,NA,sub67
fullscreen,5,20053,0.0-5.0,TRUE,FALSE,TRUE,TRUE,"""event"",""trial"",""time""
""blur"",""3"",""10987""
""focus"",""3"",""10988""
""fullscreenenter"",""5"",""19159""
","""event"",""trial"",""time""
""blur"",""3"",""10987""
","""event"",""trial"",""time""
""focus"",""3"",""10988""
","""event"",""trial"",""time""
""fullscreenenter"",""5"",""19159""
","
",NA,NA,NA,NA,TRUE,NA,NA,NA,NA,NA,NA,NA,NA,NA,NA,NA,NA,NA,NA,NA,NA,NA,sub67
d3-instructions,6,34291,0.0-6.0,TRUE,FALSE,TRUE,TRUE,"""event"",""trial"",""time""
""blur"",""3"",""10987""
""focus"",""3"",""10988""
""fullscreenenter"",""5"",""19159""
","""event"",""trial"",""time""
""blur"",""3"",""10987""
","""event"",""trial"",""time""
""focus"",""3"",""10988""
","""event"",""trial"",""time""
""fullscreenenter"",""5"",""19159""
","
",NA,NA,NA,NA,NA,NA,NA,NA,NA,NA,NA,NA,NA,NA,NA,NA,NA,NA,NA,NA,NA,NA,sub67
d3-instructions,7,42422,0.0-7.0,TRUE,FALSE,TRUE,TRUE,"""event"",""trial"",""time""
""blur"",""3"",""10987""
""focus"",""3"",""10988""
""fullscreenenter"",""5"",""19159""
","""event"",""trial"",""time""
""blur"",""3"",""10987""
","""event"",""trial"",""time""
""focus"",""3"",""10988""
","""event"",""trial"",""time""
""fullscreenenter"",""5"",""19159""
","
",NA,NA,NA,NA,NA,NA,NA,NA,NA,NA,NA,NA,NA,NA,NA,NA,NA,NA,NA,NA,NA,NA,sub67
d3-instructions,8,49670,0.0-8.0,TRUE,FALSE,TRUE,TRUE,"""event"",""trial"",""time""
""blur"",""3"",""10987""
""focus"",""3"",""10988""
""fullscreenenter"",""5"",""19159""
","""event"",""trial"",""time""
""blur"",""3"",""10987""
","""event"",""trial"",""time""
""focus"",""3"",""10988""
","""event"",""trial"",""time""
""fullscreenenter"",""5"",""19159""
","
",NA,NA,NA,NA,NA,NA,NA,NA,NA,NA,NA,NA,NA,NA,NA,NA,NA,NA,NA,NA,NA,NA,sub67
d3-instructions,9,60366,0.0-9.0,TRUE,FALSE,TRUE,TRUE,"""event"",""trial"",""time""
""blur"",""3"",""10987""
""focus"",""3"",""10988""
""fullscreenenter"",""5"",""19159""
","""event"",""trial"",""time""
""blur"",""3"",""10987""
","""event"",""trial"",""time""
""focus"",""3"",""10988""
","""event"",""trial"",""time""
""fullscreenenter"",""5"",""19159""
","
",NA,NA,NA,NA,NA,NA,NA,NA,NA,NA,NA,NA,NA,NA,NA,NA,NA,NA,NA,NA,NA,NA,sub67
d3-instructions,10,83063,0.0-10.0,TRUE,FALSE,TRUE,TRUE,"""event"",""trial"",""time""
""blur"",""3"",""10987""
""focus"",""3"",""10988""
""fullscreenenter"",""5"",""19159""
","""event"",""trial"",""time""
""blur"",""3"",""10987""
","""event"",""trial"",""time""
""focus"",""3"",""10988""
","""event"",""trial"",""time""
""fullscreenenter"",""5"",""19159""
","
",NA,NA,NA,NA,NA,NA,NA,NA,NA,NA,NA,NA,NA,NA,NA,NA,NA,NA,NA,NA,NA,NA,sub67
d3-animate-choice,11,85815,0.0-11.0,TRUE,FALSE,TRUE,TRUE,"""event"",""trial"",""time""
""blur"",""3"",""10987""
""focus"",""3"",""10988""
""fullscreenenter"",""5"",""19159""
","""event"",""trial"",""time""
""blur"",""3"",""10987""
","""event"",""trial"",""time""
""focus"",""3"",""10988""
","""event"",""trial"",""time""
""fullscreenenter"",""5"",""19159""
","
",747.9999999999854,NA,49,NA,NA,3000,1,2149,48,images/tutgreenplanet.jpg,images/tutalien1,images/tutalien2,null,images/tutalien2,NA,NA,practice,null,NA,NA,NA,NA,sub67
d3-animate-choice,12,88948,0.0-12.0,TRUE,FALSE,TRUE,TRUE,"""event"",""trial"",""time""
""blur"",""3"",""10987""
""focus"",""3"",""10988""
""fullscreenenter"",""5"",""19159""
","""event"",""trial"",""time""
""blur"",""3"",""10987""
","""event"",""trial"",""time""
""focus"",""3"",""10988""
","""event"",""trial"",""time""
""fullscreenenter"",""5"",""19159""
","
",1130,NA,48,NA,NA,3000,1,NA,NA,images/tutgreenplanet.jpg,images/tutalien1,images/tutalien2,null,images/tutalien1,NA,NA,practice,null,NA,NA,NA,NA,sub67
d3-animate-choice,13,92311,0.0-13.0,TRUE,FALSE,TRUE,TRUE,"""event"",""trial"",""time""
""blur"",""3"",""10987""
""focus"",""3"",""10988""
""fullscreenenter"",""5"",""19159""
","""event"",""trial"",""time""
""blur"",""3"",""10987""
","""event"",""trial"",""time""
""focus"",""3"",""10988""
","""event"",""trial"",""time""
""fullscreenenter"",""5"",""19159""
","
",1360,NA,48,NA,NA,3000,1,NA,NA,images/tutgreenplanet.jpg,images/tutalien1,images/tutalien2,null,images/tutalien1,NA,NA,practice,null,NA,NA,NA,NA,sub67
d3-animate-choice,14,94717,0.0-14.0,TRUE,FALSE,TRUE,TRUE,"""event"",""trial"",""time""
""blur"",""3"",""10987""
""focus"",""3"",""10988""
""fullscreenenter"",""5"",""19159""
","""event"",""trial"",""time""
""blur"",""3"",""10987""
","""event"",""trial"",""time""
""focus"",""3"",""10988""
","""event"",""trial"",""time""
""fullscreenenter"",""5"",""19159""
","
",403.99999999998545,NA,49,NA,NA,3000,1,NA,NA,images/tutgreenplanet.jpg,images/tutalien1,images/tutalien2,null,images/tutalien2,NA,NA,practice,null,NA,NA,NA,NA,sub67
d3-instructions,15,101011,0.0-15.0,TRUE,FALSE,TRUE,TRUE,"""event"",""trial"",""time""
""blur"",""3"",""10987""
""focus"",""3"",""10988""
""fullscreenenter"",""5"",""19159""
","""event"",""trial"",""time""
""blur"",""3"",""10987""
","""event"",""trial"",""time""
""focus"",""3"",""10988""
","""event"",""trial"",""time""
""fullscreenenter"",""5"",""19159""
","
",NA,NA,NA,NA,NA,NA,NA,NA,NA,NA,NA,NA,NA,NA,NA,NA,NA,NA,NA,NA,NA,NA,sub67
d3-instructions,16,108372,0.0-16.0,TRUE,FALSE,TRUE,TRUE,"""event"",""trial"",""time""
""blur"",""3"",""10987""
""focus"",""3"",""10988""
""fullscreenenter"",""5"",""19159""
","""event"",""trial"",""time""
""blur"",""3"",""10987""
","""event"",""trial"",""time""
""focus"",""3"",""10988""
","""event"",""trial"",""time""
""fullscreenenter"",""5"",""19159""
","
",NA,NA,NA,NA,NA,NA,NA,NA,NA,NA,NA,NA,NA,NA,NA,NA,NA,NA,NA,NA,NA,NA,sub67
d3-instructions,17,117269,0.0-17.0,TRUE,FALSE,TRUE,TRUE,"""event"",""trial"",""time""
""blur"",""3"",""10987""
""focus"",""3"",""10988""
""fullscreenenter"",""5"",""19159""
","""event"",""trial"",""time""
""blur"",""3"",""10987""
","""event"",""trial"",""time""
""focus"",""3"",""10988""
","""event"",""trial"",""time""
""fullscreenenter"",""5"",""19159""
","
",NA,NA,NA,NA,NA,NA,NA,NA,NA,NA,NA,NA,NA,NA,NA,NA,NA,NA,NA,NA,NA,NA,sub67
d3-instructions,18,132115,0.0-18.0,TRUE,FALSE,TRUE,TRUE,"""event"",""trial"",""time""
""blur"",""3"",""10987""
""focus"",""3"",""10988""
""fullscreenenter"",""5"",""19159""
","""event"",""trial"",""time""
""blur"",""3"",""10987""
","""event"",""trial"",""time""
""focus"",""3"",""10988""
","""event"",""trial"",""time""
""fullscreenenter"",""5"",""19159""
","
",NA,NA,NA,NA,NA,NA,NA,NA,NA,NA,NA,NA,NA,NA,NA,NA,NA,NA,NA,NA,NA,NA,sub67
d3-instructions,19,141598,0.0-19.0,TRUE,FALSE,TRUE,TRUE,"""event"",""trial"",""time""
""blur"",""3"",""10987""
""focus"",""3"",""10988""
""fullscreenenter"",""5"",""19159""
","""event"",""trial"",""time""
""blur"",""3"",""10987""
","""event"",""trial"",""time""
""focus"",""3"",""10988""
","""event"",""trial"",""time""
""fullscreenenter"",""5"",""19159""
","
",NA,NA,NA,NA,NA,NA,NA,NA,NA,NA,NA,NA,NA,NA,NA,NA,NA,NA,NA,NA,NA,NA,sub67
d3-animate-choice,20,145067,0.0-20.0,TRUE,FALSE,TRUE,TRUE,"""event"",""trial"",""time""
""blur"",""3"",""10987""
""focus"",""3"",""10988""
""fullscreenenter"",""5"",""19159""
","""event"",""trial"",""time""
""blur"",""3"",""10987""
","""event"",""trial"",""time""
""focus"",""3"",""10988""
","""event"",""trial"",""time""
""fullscreenenter"",""5"",""19159""
","
",1467,NA,49,NA,NA,3000,1,NA,NA,images/tutyellowplanet.jpg,null,images/tutalien3,null,images/tutalien3,images/t.png,NA,practice,null,NA,NA,NA,NA,sub67
d3-animate-choice,21,147504,0.0-21.0,TRUE,FALSE,TRUE,TRUE,"""event"",""trial"",""time""
""blur"",""3"",""10987""
""focus"",""3"",""10988""
""fullscreenenter"",""5"",""19159""
","""event"",""trial"",""time""
""blur"",""3"",""10987""
","""event"",""trial"",""time""
""focus"",""3"",""10988""
","""event"",""trial"",""time""
""fullscreenenter"",""5"",""19159""
","
",434,NA,49,NA,NA,3000,1,NA,NA,images/tutyellowplanet.jpg,null,images/tutalien3,null,images/tutalien3,images/t.png,NA,practice,null,NA,NA,NA,NA,sub67
d3-animate-choice,22,149851,0.0-22.0,TRUE,FALSE,TRUE,TRUE,"""event"",""trial"",""time""
""blur"",""3"",""10987""
""focus"",""3"",""10988""
""fullscreenenter"",""5"",""19159""
","""event"",""trial"",""time""
""blur"",""3"",""10987""
","""event"",""trial"",""time""
""focus"",""3"",""10988""
","""event"",""trial"",""time""
""fullscreenenter"",""5"",""19159""
","
",346,NA,49,NA,NA,3000,1,NA,NA,images/tutyellowplanet.jpg,null,images/tutalien3,null,images/tutalien3,images/t.png,NA,practice,null,NA,NA,NA,NA,sub67
d3-animate-choice,23,152115,0.0-23.0,TRUE,FALSE,TRUE,TRUE,"""event"",""trial"",""time""
""blur"",""3"",""10987""
""focus"",""3"",""10988""
""fullscreenenter"",""5"",""19159""
","""event"",""trial"",""time""
""blur"",""3"",""10987""
","""event"",""trial"",""time""
""focus"",""3"",""10988""
","""event"",""trial"",""time""
""fullscreenenter"",""5"",""19159""
","
",262,NA,49,NA,NA,3000,1,NA,NA,images/tutyellowplanet.jpg,null,images/tutalien3,null,images/tutalien3,images/t.png,NA,practice,null,NA,NA,NA,NA,sub67
d3-animate-choice,24,154400,0.0-24.0,TRUE,FALSE,TRUE,TRUE,"""event"",""trial"",""time""
""blur"",""3"",""10987""
""focus"",""3"",""10988""
""fullscreenenter"",""5"",""19159""
","""event"",""trial"",""time""
""blur"",""3"",""10987""
","""event"",""trial"",""time""
""focus"",""3"",""10988""
","""event"",""trial"",""time""
""fullscreenenter"",""5"",""19159""
","
",282.0000000000291,NA,49,NA,NA,3000,1,NA,NA,images/tutyellowplanet.jpg,null,images/tutalien3,null,images/tutalien3,images/t.png,NA,practice,null,NA,NA,NA,NA,sub67
d3-animate-choice,25,156703,0.0-25.0,TRUE,FALSE,TRUE,TRUE,"""event"",""trial"",""time""
""blur"",""3"",""10987""
""focus"",""3"",""10988""
""fullscreenenter"",""5"",""19159""
","""event"",""trial"",""time""
""blur"",""3"",""10987""
","""event"",""trial"",""time""
""focus"",""3"",""10988""
","""event"",""trial"",""time""
""fullscreenenter"",""5"",""19159""
","
",301,NA,49,NA,NA,3000,1,NA,NA,images/tutyellowplanet.jpg,null,images/tutalien3,null,images/tutalien3,images/t.png,NA,practice,null,NA,NA,NA,NA,sub67
d3-animate-choice,26,158937,0.0-26.0,TRUE,FALSE,TRUE,TRUE,"""event"",""trial"",""time""
""blur"",""3"",""10987""
""focus"",""3"",""10988""
""fullscreenenter"",""5"",""19159""
","""event"",""trial"",""time""
""blur"",""3"",""10987""
","""event"",""trial"",""time""
""focus"",""3"",""10988""
","""event"",""trial"",""time""
""fullscreenenter"",""5"",""19159""
","
",232,NA,49,NA,NA,3000,1,NA,NA,images/tutyellowplanet.jpg,null,images/tutalien3,null,images/tutalien3,images/nothing.png,NA,practice,null,NA,NA,NA,NA,sub67
d3-animate-choice,27,161304,0.0-27.0,TRUE,FALSE,TRUE,TRUE,"""event"",""trial"",""time""
""blur"",""3"",""10987""
""focus"",""3"",""10988""
""fullscreenenter"",""5"",""19159""
","""event"",""trial"",""time""
""blur"",""3"",""10987""
","""event"",""trial"",""time""
""focus"",""3"",""10988""
","""event"",""trial"",""time""
""fullscreenenter"",""5"",""19159""
","
",365,NA,49,NA,NA,3000,1,NA,NA,images/tutyellowplanet.jpg,null,images/tutalien3,null,images/tutalien3,images/t.png,NA,practice,null,NA,NA,NA,NA,sub67
d3-animate-choice,28,163357,0.0-28.0,TRUE,FALSE,TRUE,TRUE,"""event"",""trial"",""time""
""blur"",""3"",""10987""
""focus"",""3"",""10988""
""fullscreenenter"",""5"",""19159""
","""event"",""trial"",""time""
""blur"",""3"",""10987""
","""event"",""trial"",""time""
""focus"",""3"",""10988""
","""event"",""trial"",""time""
""fullscreenenter"",""5"",""19159""
","
",50,NA,49,NA,NA,3000,1,NA,NA,images/tutyellowplanet.jpg,null,images/tutalien3,null,images/tutalien3,images/t.png,NA,practice,null,NA,NA,NA,NA,sub67
d3-animate-choice,29,165597,0.0-29.0,TRUE,FALSE,TRUE,TRUE,"""event"",""trial"",""time""
""blur"",""3"",""10987""
""focus"",""3"",""10988""
""fullscreenenter"",""5"",""19159""
","""event"",""trial"",""time""
""blur"",""3"",""10987""
","""event"",""trial"",""time""
""focus"",""3"",""10988""
","""event"",""trial"",""time""
""fullscreenenter"",""5"",""19159""
","
",239,NA,49,NA,NA,3000,1,NA,NA,images/tutyellowplanet.jpg,null,images/tutalien3,null,images/tutalien3,images/t.png,NA,practice,null,NA,NA,NA,NA,sub67
d3-instructions,30,174078,0.0-30.0,TRUE,FALSE,TRUE,TRUE,"""event"",""trial"",""time""
""blur"",""3"",""10987""
""focus"",""3"",""10988""
""fullscreenenter"",""5"",""19159""
","""event"",""trial"",""time""
""blur"",""3"",""10987""
","""event"",""trial"",""time""
""focus"",""3"",""10988""
","""event"",""trial"",""time""
""fullscreenenter"",""5"",""19159""
","
",NA,NA,NA,NA,NA,NA,NA,NA,NA,NA,NA,NA,NA,NA,NA,NA,NA,NA,NA,NA,NA,NA,sub67
d3-instructions,31,184636,0.0-31.0,TRUE,FALSE,TRUE,TRUE,"""event"",""trial"",""time""
""blur"",""3"",""10987""
""focus"",""3"",""10988""
""fullscreenenter"",""5"",""19159""
","""event"",""trial"",""time""
""blur"",""3"",""10987""
","""event"",""trial"",""time""
""focus"",""3"",""10988""
","""event"",""trial"",""time""
""fullscreenenter"",""5"",""19159""
","
",NA,NA,NA,NA,NA,NA,NA,NA,NA,NA,NA,NA,NA,NA,NA,NA,NA,NA,NA,NA,NA,NA,sub67
d3-instructions,32,192637,0.0-32.0,TRUE,FALSE,TRUE,TRUE,"""event"",""trial"",""time""
""blur"",""3"",""10987""
""focus"",""3"",""10988""
""fullscreenenter"",""5"",""19159""
","""event"",""trial"",""time""
""blur"",""3"",""10987""
","""event"",""trial"",""time""
""focus"",""3"",""10988""
","""event"",""trial"",""time""
""fullscreenenter"",""5"",""19159""
","
",NA,NA,NA,NA,NA,NA,NA,NA,NA,NA,NA,NA,NA,NA,NA,NA,NA,NA,NA,NA,NA,NA,sub67
d3-instructions,33,203557,0.0-33.0,TRUE,FALSE,TRUE,TRUE,"""event"",""trial"",""time""
""blur"",""3"",""10987""
""focus"",""3"",""10988""
""fullscreenenter"",""5"",""19159""
","""event"",""trial"",""time""
""blur"",""3"",""10987""
","""event"",""trial"",""time""
""focus"",""3"",""10988""
","""event"",""trial"",""time""
""fullscreenenter"",""5"",""19159""
","
",NA,NA,NA,NA,NA,NA,NA,NA,NA,NA,NA,NA,NA,NA,NA,NA,NA,NA,NA,NA,NA,NA,sub67
d3-animate-choice,34,206853,0.0-34.0,TRUE,FALSE,TRUE,TRUE,"""event"",""trial"",""time""
""blur"",""3"",""10987""
""focus"",""3"",""10988""
""fullscreenenter"",""5"",""19159""
","""event"",""trial"",""time""
""blur"",""3"",""10987""
","""event"",""trial"",""time""
""focus"",""3"",""10988""
","""event"",""trial"",""time""
""fullscreenenter"",""5"",""19159""
","
",1293,NA,49,NA,NA,3000,1,NA,NA,images/tutgreenplanet.jpg,images/tutalien1,images/tutalien2,null,images/tutalien2,images/t.png,NA,practice,null,NA,NA,NA,NA,sub67
d3-animate-choice,35,209709,0.0-35.0,TRUE,FALSE,TRUE,TRUE,"""event"",""trial"",""time""
""blur"",""3"",""10987""
""focus"",""3"",""10988""
""fullscreenenter"",""5"",""19159""
","""event"",""trial"",""time""
""blur"",""3"",""10987""
","""event"",""trial"",""time""
""focus"",""3"",""10988""
","""event"",""trial"",""time""
""fullscreenenter"",""5"",""19159""
","
",853,NA,49,NA,NA,3000,1,NA,NA,images/tutgreenplanet.jpg,images/tutalien1,images/tutalien2,null,images/tutalien2,images/t.png,NA,practice,null,NA,NA,NA,NA,sub67
d3-animate-choice,36,212308,0.0-36.0,TRUE,FALSE,TRUE,TRUE,"""event"",""trial"",""time""
""blur"",""3"",""10987""
""focus"",""3"",""10988""
""fullscreenenter"",""5"",""19159""
","""event"",""trial"",""time""
""blur"",""3"",""10987""
","""event"",""trial"",""time""
""focus"",""3"",""10988""
","""event"",""trial"",""time""
""fullscreenenter"",""5"",""19159""
","
",597,NA,49,NA,NA,3000,1,NA,NA,images/tutgreenplanet.jpg,images/tutalien1,images/tutalien2,null,images/tutalien2,images/t.png,NA,practice,null,NA,NA,NA,NA,sub67
d3-animate-choice,37,214766,0.0-37.0,TRUE,FALSE,TRUE,TRUE,"""event"",""trial"",""time""
""blur"",""3"",""10987""
""focus"",""3"",""10988""
""fullscreenenter"",""5"",""19159""
","""event"",""trial"",""time""
""blur"",""3"",""10987""
","""event"",""trial"",""time""
""focus"",""3"",""10988""
","""event"",""trial"",""time""
""fullscreenenter"",""5"",""19159""
","
",456,NA,49,NA,NA,3000,1,NA,NA,images/tutgreenplanet.jpg,images/tutalien1,images/tutalien2,null,images/tutalien2,images/t.png,NA,practice,null,NA,NA,NA,NA,sub67
d3-animate-choice,38,217220,0.0-38.0,TRUE,FALSE,TRUE,TRUE,"""event"",""trial"",""time""
""blur"",""3"",""10987""
""focus"",""3"",""10988""
""fullscreenenter"",""5"",""19159""
","""event"",""trial"",""time""
""blur"",""3"",""10987""
","""event"",""trial"",""time""
""focus"",""3"",""10988""
","""event"",""trial"",""time""
""fullscreenenter"",""5"",""19159""
","
",451,NA,49,NA,NA,3000,1,NA,NA,images/tutgreenplanet.jpg,images/tutalien1,images/tutalien2,null,images/tutalien2,images/t.png,NA,practice,null,NA,NA,NA,NA,sub67
d3-animate-choice,39,219636,0.0-39.0,TRUE,FALSE,TRUE,TRUE,"""event"",""trial"",""time""
""blur"",""3"",""10987""
""focus"",""3"",""10988""
""fullscreenenter"",""5"",""19159""
","""event"",""trial"",""time""
""blur"",""3"",""10987""
","""event"",""trial"",""time""
""focus"",""3"",""10988""
","""event"",""trial"",""time""
""fullscreenenter"",""5"",""19159""
","
",414,NA,49,NA,NA,3000,1,NA,NA,images/tutgreenplanet.jpg,images/tutalien1,images/tutalien2,null,images/tutalien2,images/t.png,NA,practice,null,NA,NA,NA,NA,sub67
d3-animate-choice,40,222499,0.0-40.0,TRUE,FALSE,TRUE,TRUE,"""event"",""trial"",""time""
""blur"",""3"",""10987""
""focus"",""3"",""10988""
""fullscreenenter"",""5"",""19159""
","""event"",""trial"",""time""
""blur"",""3"",""10987""
","""event"",""trial"",""time""
""focus"",""3"",""10988""
","""event"",""trial"",""time""
""fullscreenenter"",""5"",""19159""
","
",860,NA,49,NA,NA,3000,1,NA,NA,images/tutgreenplanet.jpg,images/tutalien1,images/tutalien2,null,images/tutalien2,images/nothing.png,NA,practice,null,NA,NA,NA,NA,sub67
d3-animate-choice,41,224933,0.0-41.0,TRUE,FALSE,TRUE,TRUE,"""event"",""trial"",""time""
""blur"",""3"",""10987""
""focus"",""3"",""10988""
""fullscreenenter"",""5"",""19159""
","""event"",""trial"",""time""
""blur"",""3"",""10987""
","""event"",""trial"",""time""
""focus"",""3"",""10988""
","""event"",""trial"",""time""
""fullscreenenter"",""5"",""19159""
","
",431.0000000000291,NA,49,NA,NA,3000,1,NA,NA,images/tutgreenplanet.jpg,images/tutalien1,images/tutalien2,null,images/tutalien2,images/t.png,NA,practice,null,NA,NA,NA,NA,sub67
d3-animate-choice,42,227288,0.0-42.0,TRUE,FALSE,TRUE,TRUE,"""event"",""trial"",""time""
""blur"",""3"",""10987""
""focus"",""3"",""10988""
""fullscreenenter"",""5"",""19159""
","""event"",""trial"",""time""
""blur"",""3"",""10987""
","""event"",""trial"",""time""
""focus"",""3"",""10988""
","""event"",""trial"",""time""
""fullscreenenter"",""5"",""19159""
","
",353,NA,49,NA,NA,3000,1,NA,NA,images/tutgreenplanet.jpg,images/tutalien1,images/tutalien2,null,images/tutalien2,images/t.png,NA,practice,null,NA,NA,NA,NA,sub67
d3-animate-choice,43,229795,0.0-43.0,TRUE,FALSE,TRUE,TRUE,"""event"",""trial"",""time""
""blur"",""3"",""10987""
""focus"",""3"",""10988""
""fullscreenenter"",""5"",""19159""
","""event"",""trial"",""time""
""blur"",""3"",""10987""
","""event"",""trial"",""time""
""focus"",""3"",""10988""
","""event"",""trial"",""time""
""fullscreenenter"",""5"",""19159""
","
",505.0000000000291,NA,49,NA,NA,3000,1,NA,NA,images/tutgreenplanet.jpg,images/tutalien1,images/tutalien2,null,images/tutalien2,images/t.png,NA,practice,null,NA,NA,NA,NA,sub67
d3-instructions,44,246506,0.0-44.0,TRUE,FALSE,TRUE,TRUE,"""event"",""trial"",""time""
""blur"",""3"",""10987""
""focus"",""3"",""10988""
""fullscreenenter"",""5"",""19159""
","""event"",""trial"",""time""
""blur"",""3"",""10987""
","""event"",""trial"",""time""
""focus"",""3"",""10988""
","""event"",""trial"",""time""
""fullscreenenter"",""5"",""19159""
","
",NA,NA,NA,NA,NA,NA,NA,NA,NA,NA,NA,NA,NA,NA,NA,NA,NA,NA,NA,NA,NA,NA,sub67
d3-instructions,45,254926,0.0-45.0,TRUE,FALSE,TRUE,TRUE,"""event"",""trial"",""time""
""blur"",""3"",""10987""
""focus"",""3"",""10988""
""fullscreenenter"",""5"",""19159""
","""event"",""trial"",""time""
""blur"",""3"",""10987""
","""event"",""trial"",""time""
""focus"",""3"",""10988""
","""event"",""trial"",""time""
""fullscreenenter"",""5"",""19159""
","
",NA,NA,NA,NA,NA,NA,NA,NA,NA,NA,NA,NA,NA,NA,NA,NA,NA,NA,NA,NA,NA,NA,sub67
d3-instructions,46,260214,0.0-46.0,TRUE,FALSE,TRUE,TRUE,"""event"",""trial"",""time""
""blur"",""3"",""10987""
""focus"",""3"",""10988""
""fullscreenenter"",""5"",""19159""
","""event"",""trial"",""time""
""blur"",""3"",""10987""
","""event"",""trial"",""time""
""focus"",""3"",""10988""
","""event"",""trial"",""time""
""fullscreenenter"",""5"",""19159""
","
",NA,NA,NA,NA,NA,NA,NA,NA,NA,NA,NA,NA,NA,NA,NA,NA,NA,NA,NA,NA,NA,NA,sub67
d3-instructions,47,277799,0.0-47.0,TRUE,FALSE,TRUE,TRUE,"""event"",""trial"",""time""
""blur"",""3"",""10987""
""focus"",""3"",""10988""
""fullscreenenter"",""5"",""19159""
","""event"",""trial"",""time""
""blur"",""3"",""10987""
","""event"",""trial"",""time""
""focus"",""3"",""10988""
","""event"",""trial"",""time""
""fullscreenenter"",""5"",""19159""
","
",NA,NA,NA,NA,NA,NA,NA,NA,NA,NA,NA,NA,NA,NA,NA,NA,NA,NA,NA,NA,NA,NA,sub67
d3-instructions,48,284488,0.0-48.0,TRUE,FALSE,TRUE,TRUE,"""event"",""trial"",""time""
""blur"",""3"",""10987""
""focus"",""3"",""10988""
""fullscreenenter"",""5"",""19159""
","""event"",""trial"",""time""
""blur"",""3"",""10987""
","""event"",""trial"",""time""
""focus"",""3"",""10988""
","""event"",""trial"",""time""
""fullscreenenter"",""5"",""19159""
","
",NA,NA,NA,NA,NA,NA,NA,NA,NA,NA,NA,NA,NA,NA,NA,NA,NA,NA,NA,NA,NA,NA,sub67
d3-instructions,49,296108,0.0-49.0,TRUE,FALSE,TRUE,TRUE,"""event"",""trial"",""time""
""blur"",""3"",""10987""
""focus"",""3"",""10988""
""fullscreenenter"",""5"",""19159""
","""event"",""trial"",""time""
""blur"",""3"",""10987""
","""event"",""trial"",""time""
""focus"",""3"",""10988""
","""event"",""trial"",""time""
""fullscreenenter"",""5"",""19159""
","
",NA,NA,NA,NA,NA,NA,NA,NA,NA,NA,NA,NA,NA,NA,NA,NA,NA,NA,NA,NA,NA,NA,sub67
d3-instructions,50,304649,0.0-50.0,TRUE,FALSE,TRUE,TRUE,"""event"",""trial"",""time""
""blur"",""3"",""10987""
""focus"",""3"",""10988""
""fullscreenenter"",""5"",""19159""
","""event"",""trial"",""time""
""blur"",""3"",""10987""
","""event"",""trial"",""time""
""focus"",""3"",""10988""
","""event"",""trial"",""time""
""fullscreenenter"",""5"",""19159""
","
",NA,NA,NA,NA,NA,NA,NA,NA,NA,NA,NA,NA,NA,NA,NA,NA,NA,NA,NA,NA,NA,NA,sub67
d3-instructions,51,306876,0.0-51.0,TRUE,FALSE,TRUE,TRUE,"""event"",""trial"",""time""
""blur"",""3"",""10987""
""focus"",""3"",""10988""
""fullscreenenter"",""5"",""19159""
","""event"",""trial"",""time""
""blur"",""3"",""10987""
","""event"",""trial"",""time""
""focus"",""3"",""10988""
","""event"",""trial"",""time""
""fullscreenenter"",""5"",""19159""
","
",NA,NA,NA,NA,NA,NA,NA,NA,NA,NA,NA,NA,NA,NA,NA,NA,NA,NA,NA,NA,NA,NA,sub67
d3-instructions,52,308984,0.0-52.0,TRUE,FALSE,TRUE,TRUE,"""event"",""trial"",""time""
""blur"",""3"",""10987""
""focus"",""3"",""10988""
""fullscreenenter"",""5"",""19159""
","""event"",""trial"",""time""
""blur"",""3"",""10987""
","""event"",""trial"",""time""
""focus"",""3"",""10988""
","""event"",""trial"",""time""
""fullscreenenter"",""5"",""19159""
","
",NA,NA,NA,NA,NA,NA,NA,NA,NA,NA,NA,NA,NA,NA,NA,NA,NA,NA,NA,NA,NA,NA,sub67
d3-instructions,53,320607,0.0-53.0,TRUE,FALSE,TRUE,TRUE,"""event"",""trial"",""time""
""blur"",""3"",""10987""
""focus"",""3"",""10988""
""fullscreenenter"",""5"",""19159""
","""event"",""trial"",""time""
""blur"",""3"",""10987""
","""event"",""trial"",""time""
""focus"",""3"",""10988""
","""event"",""trial"",""time""
""fullscreenenter"",""5"",""19159""
","
",NA,NA,NA,NA,NA,NA,NA,NA,NA,NA,NA,NA,NA,NA,NA,NA,NA,NA,NA,NA,NA,NA,sub67
d3-instructions,54,333688,0.0-54.0,TRUE,FALSE,TRUE,TRUE,"""event"",""trial"",""time""
""blur"",""3"",""10987""
""focus"",""3"",""10988""
""fullscreenenter"",""5"",""19159""
","""event"",""trial"",""time""
""blur"",""3"",""10987""
","""event"",""trial"",""time""
""focus"",""3"",""10988""
","""event"",""trial"",""time""
""fullscreenenter"",""5"",""19159""
","
",NA,NA,NA,NA,NA,NA,NA,NA,NA,NA,NA,NA,NA,NA,NA,NA,NA,NA,NA,NA,NA,NA,sub67
d3-instructions,55,343638,0.0-55.0,TRUE,FALSE,TRUE,TRUE,"""event"",""trial"",""time""
""blur"",""3"",""10987""
""focus"",""3"",""10988""
""fullscreenenter"",""5"",""19159""
","""event"",""trial"",""time""
""blur"",""3"",""10987""
","""event"",""trial"",""time""
""focus"",""3"",""10988""
","""event"",""trial"",""time""
""fullscreenenter"",""5"",""19159""
","
",NA,NA,NA,NA,NA,NA,NA,NA,NA,NA,NA,NA,NA,NA,NA,NA,NA,NA,NA,NA,NA,NA,sub67
d3-instructions,56,352320,0.0-56.0,TRUE,FALSE,TRUE,TRUE,"""event"",""trial"",""time""
""blur"",""3"",""10987""
""focus"",""3"",""10988""
""fullscreenenter"",""5"",""19159""
","""event"",""trial"",""time""
""blur"",""3"",""10987""
","""event"",""trial"",""time""
""focus"",""3"",""10988""
","""event"",""trial"",""time""
""fullscreenenter"",""5"",""19159""
","
",NA,NA,NA,NA,NA,NA,NA,NA,NA,NA,NA,NA,NA,NA,NA,NA,NA,NA,NA,NA,NA,NA,sub67
d3-instructions,57,379165,0.0-57.0,TRUE,FALSE,TRUE,TRUE,"""event"",""trial"",""time""
""blur"",""3"",""10987""
""focus"",""3"",""10988""
""fullscreenenter"",""5"",""19159""
","""event"",""trial"",""time""
""blur"",""3"",""10987""
","""event"",""trial"",""time""
""focus"",""3"",""10988""
","""event"",""trial"",""time""
""fullscreenenter"",""5"",""19159""
","
",NA,NA,NA,NA,NA,NA,NA,NA,NA,NA,NA,NA,NA,NA,NA,NA,NA,NA,NA,NA,NA,NA,sub67
d3-instructions,58,395695,0.0-58.0,TRUE,FALSE,TRUE,TRUE,"""event"",""trial"",""time""
""blur"",""3"",""10987""
""focus"",""3"",""10988""
""fullscreenenter"",""5"",""19159""
","""event"",""trial"",""time""
""blur"",""3"",""10987""
","""event"",""trial"",""time""
""focus"",""3"",""10988""
","""event"",""trial"",""time""
""fullscreenenter"",""5"",""19159""
","
",NA,NA,NA,NA,NA,NA,NA,NA,NA,NA,NA,NA,NA,NA,NA,NA,NA,NA,NA,NA,NA,NA,sub67
d3-instructions,59,400743,0.0-59.0,TRUE,FALSE,TRUE,TRUE,"""event"",""trial"",""time""
""blur"",""3"",""10987""
""focus"",""3"",""10988""
""fullscreenenter"",""5"",""19159""
","""event"",""trial"",""time""
""blur"",""3"",""10987""
","""event"",""trial"",""time""
""focus"",""3"",""10988""
","""event"",""trial"",""time""
""fullscreenenter"",""5"",""19159""
","
",NA,NA,NA,NA,NA,NA,NA,NA,NA,NA,NA,NA,NA,NA,NA,NA,NA,NA,NA,NA,NA,NA,sub67
d3-instructions,60,407885,0.0-60.0,TRUE,FALSE,TRUE,TRUE,"""event"",""trial"",""time""
""blur"",""3"",""10987""
""focus"",""3"",""10988""
""fullscreenenter"",""5"",""19159""
","""event"",""trial"",""time""
""blur"",""3"",""10987""
","""event"",""trial"",""time""
""focus"",""3"",""10988""
","""event"",""trial"",""time""
""fullscreenenter"",""5"",""19159""
","
",NA,NA,NA,NA,NA,NA,NA,NA,NA,NA,NA,NA,NA,NA,NA,NA,NA,NA,NA,NA,NA,NA,sub67
d3-animate-choice,61,410724,0.0-61.0-0.0,TRUE,FALSE,TRUE,TRUE,"""event"",""trial"",""time""
""blur"",""3"",""10987""
""focus"",""3"",""10988""
""fullscreenenter"",""5"",""19159""
","""event"",""trial"",""time""
""blur"",""3"",""10987""
","""event"",""trial"",""time""
""focus"",""3"",""10988""
","""event"",""trial"",""time""
""fullscreenenter"",""5"",""19159""
","
",836.9999999999418,NA,49,NA,NA,3000,1,NA,NA,images/earth.jpg,images/tutrocket2,images/tutrocket1,null,images/tutrocket1,NA,1,practice,null,1,NA,NA,NA,sub67
d3-animate-choice,62,414103,0.0-61.0-1.0,TRUE,FALSE,TRUE,TRUE,"""event"",""trial"",""time""
""blur"",""3"",""10987""
""focus"",""3"",""10988""
""fullscreenenter"",""5"",""19159""
","""event"",""trial"",""time""
""blur"",""3"",""10987""
","""event"",""trial"",""time""
""focus"",""3"",""10988""
","""event"",""trial"",""time""
""fullscreenenter"",""5"",""19159""
","
",1376,NA,49,NA,NA,3000,1,NA,NA,images/tutyellowplanet.jpg,images/tutalien4,images/tutalien3,images/tutrocket1,images/tutalien3,images/nothing.png,2,practice,true,1,common,0,2020-06-18T22:33:26Z,sub67
two-step-fixation,63,415106,0.0-61.0-2.0,TRUE,FALSE,TRUE,TRUE,"""event"",""trial"",""time""
""blur"",""3"",""10987""
""focus"",""3"",""10988""
""fullscreenenter"",""5"",""19159""
","""event"",""trial"",""time""
""blur"",""3"",""10987""
","""event"",""trial"",""time""
""focus"",""3"",""10988""
","""event"",""trial"",""time""
""fullscreenenter"",""5"",""19159""
","
",NA,images/earth.jpg,NA,NA,NA,NA,NA,NA,NA,NA,NA,NA,NA,NA,NA,fixation,NA,NA,NA,NA,NA,NA,sub67
d3-animate-choice,64,417608,0.0-61.0-0.1,TRUE,FALSE,TRUE,TRUE,"""event"",""trial"",""time""
""blur"",""3"",""10987""
""focus"",""3"",""10988""
""fullscreenenter"",""5"",""19159""
","""event"",""trial"",""time""
""blur"",""3"",""10987""
","""event"",""trial"",""time""
""focus"",""3"",""10988""
","""event"",""trial"",""time""
""fullscreenenter"",""5"",""19159""
","
",500,NA,49,NA,NA,3000,1,NA,NA,images/earth.jpg,images/tutrocket2,images/tutrocket1,null,images/tutrocket1,NA,1,practice,null,1,NA,NA,NA,sub67
d3-animate-choice,65,420600,0.0-61.0-1.1,TRUE,FALSE,TRUE,TRUE,"""event"",""trial"",""time""
""blur"",""3"",""10987""
""focus"",""3"",""10988""
""fullscreenenter"",""5"",""19159""
","""event"",""trial"",""time""
""blur"",""3"",""10987""
","""event"",""trial"",""time""
""focus"",""3"",""10988""
","""event"",""trial"",""time""
""fullscreenenter"",""5"",""19159""
","
",990,NA,48,NA,NA,3000,1,NA,NA,images/tutyellowplanet.jpg,images/tutalien4,images/tutalien3,images/tutrocket1,images/tutalien4,images/t.png,2,practice,true,2,common,1,2020-06-18T22:33:33Z,sub67
two-step-fixation,66,421601,0.0-61.0-2.1,TRUE,FALSE,TRUE,TRUE,"""event"",""trial"",""time""
""blur"",""3"",""10987""
""focus"",""3"",""10988""
""fullscreenenter"",""5"",""19159""
","""event"",""trial"",""time""
""blur"",""3"",""10987""
","""event"",""trial"",""time""
""focus"",""3"",""10988""
","""event"",""trial"",""time""
""fullscreenenter"",""5"",""19159""
","
",NA,images/earth.jpg,NA,NA,NA,NA,NA,NA,NA,NA,NA,NA,NA,NA,NA,fixation,NA,NA,NA,NA,NA,NA,sub67
d3-animate-choice,67,423944,0.0-61.0-0.2,TRUE,FALSE,TRUE,TRUE,"""event"",""trial"",""time""
""blur"",""3"",""10987""
""focus"",""3"",""10988""
""fullscreenenter"",""5"",""19159""
","""event"",""trial"",""time""
""blur"",""3"",""10987""
","""event"",""trial"",""time""
""focus"",""3"",""10988""
","""event"",""trial"",""time""
""fullscreenenter"",""5"",""19159""
","
",340,NA,49,NA,NA,3000,1,NA,NA,images/earth.jpg,images/tutrocket2,images/tutrocket1,null,images/tutrocket1,NA,1,practice,null,1,NA,NA,NA,sub67
d3-animate-choice,68,426496,0.0-61.0-1.2,TRUE,FALSE,TRUE,TRUE,"""event"",""trial"",""time""
""blur"",""3"",""10987""
""focus"",""3"",""10988""
""fullscreenenter"",""5"",""19159""
","""event"",""trial"",""time""
""blur"",""3"",""10987""
","""event"",""trial"",""time""
""focus"",""3"",""10988""
","""event"",""trial"",""time""
""fullscreenenter"",""5"",""19159""
","
",549,NA,48,NA,NA,3000,1,NA,NA,images/tutyellowplanet.jpg,images/tutalien4,images/tutalien3,images/tutrocket1,images/tutalien4,images/t.png,2,practice,true,2,common,1,2020-06-18T22:33:39Z,sub67
two-step-fixation,69,427499,0.0-61.0-2.2,TRUE,FALSE,TRUE,TRUE,"""event"",""trial"",""time""
""blur"",""3"",""10987""
""focus"",""3"",""10988""
""fullscreenenter"",""5"",""19159""
","""event"",""trial"",""time""
""blur"",""3"",""10987""
","""event"",""trial"",""time""
""focus"",""3"",""10988""
","""event"",""trial"",""time""
""fullscreenenter"",""5"",""19159""
","
",NA,images/earth.jpg,NA,NA,NA,NA,NA,NA,NA,NA,NA,NA,NA,NA,NA,fixation,NA,NA,NA,NA,NA,NA,sub67
d3-animate-choice,70,429874,0.0-61.0-0.3,TRUE,FALSE,TRUE,TRUE,"""event"",""trial"",""time""
""blur"",""3"",""10987""
""focus"",""3"",""10988""
""fullscreenenter"",""5"",""19159""
","""event"",""trial"",""time""
""blur"",""3"",""10987""
","""event"",""trial"",""time""
""focus"",""3"",""10988""
","""event"",""trial"",""time""
""fullscreenenter"",""5"",""19159""
","
",372.9999999999418,NA,49,NA,NA,3000,1,NA,NA,images/earth.jpg,images/tutrocket2,images/tutrocket1,null,images/tutrocket1,NA,1,practice,null,1,NA,NA,NA,sub67
d3-animate-choice,71,432616,0.0-61.0-1.3,TRUE,FALSE,TRUE,TRUE,"""event"",""trial"",""time""
""blur"",""3"",""10987""
""focus"",""3"",""10988""
""fullscreenenter"",""5"",""19159""
","""event"",""trial"",""time""
""blur"",""3"",""10987""
","""event"",""trial"",""time""
""focus"",""3"",""10988""
","""event"",""trial"",""time""
""fullscreenenter"",""5"",""19159""
","
",739,NA,48,NA,NA,3000,1,NA,NA,images/tutyellowplanet.jpg,images/tutalien4,images/tutalien3,images/tutrocket1,images/tutalien4,images/nothing.png,2,practice,true,2,common,0,2020-06-18T22:33:45Z,sub67
two-step-fixation,72,433618,0.0-61.0-2.3,TRUE,FALSE,TRUE,TRUE,"""event"",""trial"",""time""
""blur"",""3"",""10987""
""focus"",""3"",""10988""
""fullscreenenter"",""5"",""19159""
","""event"",""trial"",""time""
""blur"",""3"",""10987""
","""event"",""trial"",""time""
""focus"",""3"",""10988""
","""event"",""trial"",""time""
""fullscreenenter"",""5"",""19159""
","
",NA,images/earth.jpg,NA,NA,NA,NA,NA,NA,NA,NA,NA,NA,NA,NA,NA,fixation,NA,NA,NA,NA,NA,NA,sub67
d3-animate-choice,73,435928,0.0-61.0-0.4,TRUE,FALSE,TRUE,TRUE,"""event"",""trial"",""time""
""blur"",""3"",""10987""
""focus"",""3"",""10988""
""fullscreenenter"",""5"",""19159""
","""event"",""trial"",""time""
""blur"",""3"",""10987""
","""event"",""trial"",""time""
""focus"",""3"",""10988""
","""event"",""trial"",""time""
""fullscreenenter"",""5"",""19159""
","
",307,NA,49,NA,NA,3000,1,NA,NA,images/earth.jpg,images/tutrocket2,images/tutrocket1,null,images/tutrocket1,NA,1,practice,null,1,NA,NA,NA,sub67
d3-animate-choice,74,438317,0.0-61.0-1.4,TRUE,FALSE,TRUE,TRUE,"""event"",""trial"",""time""
""blur"",""3"",""10987""
""focus"",""3"",""10988""
""fullscreenenter"",""5"",""19159""
","""event"",""trial"",""time""
""blur"",""3"",""10987""
","""event"",""trial"",""time""
""focus"",""3"",""10988""
","""event"",""trial"",""time""
""fullscreenenter"",""5"",""19159""
","
",386,NA,48,NA,NA,3000,1,NA,NA,images/tutyellowplanet.jpg,images/tutalien4,images/tutalien3,images/tutrocket1,images/tutalien4,images/t.png,2,practice,true,2,common,1,2020-06-18T22:33:51Z,sub67
two-step-fixation,75,439318,0.0-61.0-2.4,TRUE,FALSE,TRUE,TRUE,"""event"",""trial"",""time""
""blur"",""3"",""10987""
""focus"",""3"",""10988""
""fullscreenenter"",""5"",""19159""
","""event"",""trial"",""time""
""blur"",""3"",""10987""
","""event"",""trial"",""time""
""focus"",""3"",""10988""
","""event"",""trial"",""time""
""fullscreenenter"",""5"",""19159""
","
",NA,images/earth.jpg,NA,NA,NA,NA,NA,NA,NA,NA,NA,NA,NA,NA,NA,fixation,NA,NA,NA,NA,NA,NA,sub67
d3-animate-choice,76,441610,0.0-61.0-0.5,TRUE,FALSE,TRUE,TRUE,"""event"",""trial"",""time""
""blur"",""3"",""10987""
""focus"",""3"",""10988""
""fullscreenenter"",""5"",""19159""
","""event"",""trial"",""time""
""blur"",""3"",""10987""
","""event"",""trial"",""time""
""focus"",""3"",""10988""
","""event"",""trial"",""time""
""fullscreenenter"",""5"",""19159""
","
",290,NA,49,NA,NA,3000,1,NA,NA,images/earth.jpg,images/tutrocket2,images/tutrocket1,null,images/tutrocket1,NA,1,practice,null,1,NA,NA,NA,sub67
d3-animate-choice,77,444069,0.0-61.0-1.5,TRUE,FALSE,TRUE,TRUE,"""event"",""trial"",""time""
""blur"",""3"",""10987""
""focus"",""3"",""10988""
""fullscreenenter"",""5"",""19159""
","""event"",""trial"",""time""
""blur"",""3"",""10987""
","""event"",""trial"",""time""
""focus"",""3"",""10988""
","""event"",""trial"",""time""
""fullscreenenter"",""5"",""19159""
","
",456,NA,48,NA,NA,3000,1,NA,NA,images/tutyellowplanet.jpg,images/tutalien4,images/tutalien3,images/tutrocket1,images/tutalien4,images/nothing.png,2,practice,true,2,common,0,2020-06-18T22:33:56Z,sub67
two-step-fixation,78,445070,0.0-61.0-2.5,TRUE,FALSE,TRUE,TRUE,"""event"",""trial"",""time""
""blur"",""3"",""10987""
""focus"",""3"",""10988""
""fullscreenenter"",""5"",""19159""
","""event"",""trial"",""time""
""blur"",""3"",""10987""
","""event"",""trial"",""time""
""focus"",""3"",""10988""
","""event"",""trial"",""time""
""fullscreenenter"",""5"",""19159""
","
",NA,images/earth.jpg,NA,NA,NA,NA,NA,NA,NA,NA,NA,NA,NA,NA,NA,fixation,NA,NA,NA,NA,NA,NA,sub67
d3-animate-choice,79,447861,0.0-61.0-0.6,TRUE,FALSE,TRUE,TRUE,"""event"",""trial"",""time""
""blur"",""3"",""10987""
""focus"",""3"",""10988""
""fullscreenenter"",""5"",""19159""
","""event"",""trial"",""time""
""blur"",""3"",""10987""
","""event"",""trial"",""time""
""focus"",""3"",""10988""
","""event"",""trial"",""time""
""fullscreenenter"",""5"",""19159""
","
",786.9999999999418,NA,48,NA,NA,3000,1,NA,NA,images/earth.jpg,images/tutrocket2,images/tutrocket1,null,images/tutrocket2,NA,1,practice,null,2,NA,NA,NA,sub67
d3-animate-choice,80,450692,0.0-61.0-1.6,TRUE,FALSE,TRUE,TRUE,"""event"",""trial"",""time""
""blur"",""3"",""10987""
""focus"",""3"",""10988""
""fullscreenenter"",""5"",""19159""
","""event"",""trial"",""time""
""blur"",""3"",""10987""
","""event"",""trial"",""time""
""focus"",""3"",""10988""
","""event"",""trial"",""time""
""fullscreenenter"",""5"",""19159""
","
",828.0000000000582,NA,49,NA,NA,3000,1,NA,NA,images/tutgreenplanet.jpg,images/tutalien2,images/tutalien1,images/tutrocket2,images/tutalien1,images/t.png,2,practice,true,1,common,1,2020-06-18T22:34:03Z,sub67
two-step-fixation,81,451693,0.0-61.0-2.6,TRUE,FALSE,TRUE,TRUE,"""event"",""trial"",""time""
""blur"",""3"",""10987""
""focus"",""3"",""10988""
""fullscreenenter"",""5"",""19159""
","""event"",""trial"",""time""
""blur"",""3"",""10987""
","""event"",""trial"",""time""
""focus"",""3"",""10988""
","""event"",""trial"",""time""
""fullscreenenter"",""5"",""19159""
","
",NA,images/earth.jpg,NA,NA,NA,NA,NA,NA,NA,NA,NA,NA,NA,NA,NA,fixation,NA,NA,NA,NA,NA,NA,sub67
d3-animate-choice,82,453992,0.0-61.0-0.7,TRUE,FALSE,TRUE,TRUE,"""event"",""trial"",""time""
""blur"",""3"",""10987""
""focus"",""3"",""10988""
""fullscreenenter"",""5"",""19159""
","""event"",""trial"",""time""
""blur"",""3"",""10987""
","""event"",""trial"",""time""
""focus"",""3"",""10988""
","""event"",""trial"",""time""
""fullscreenenter"",""5"",""19159""
","
",296,NA,48,NA,NA,3000,1,NA,NA,images/earth.jpg,images/tutrocket2,images/tutrocket1,null,images/tutrocket2,NA,1,practice,null,2,NA,NA,NA,sub67
d3-animate-choice,83,456461,0.0-61.0-1.7,TRUE,FALSE,TRUE,TRUE,"""event"",""trial"",""time""
""blur"",""3"",""10987""
""focus"",""3"",""10988""
""fullscreenenter"",""5"",""19159""
","""event"",""trial"",""time""
""blur"",""3"",""10987""
","""event"",""trial"",""time""
""focus"",""3"",""10988""
","""event"",""trial"",""time""
""fullscreenenter"",""5"",""19159""
","
",467,NA,49,NA,NA,3000,1,NA,NA,images/tutgreenplanet.jpg,images/tutalien2,images/tutalien1,images/tutrocket2,images/tutalien1,images/t.png,2,practice,true,1,common,1,2020-06-18T22:34:09Z,sub67
two-step-fixation,84,457463,0.0-61.0-2.7,TRUE,FALSE,TRUE,TRUE,"""event"",""trial"",""time""
""blur"",""3"",""10987""
""focus"",""3"",""10988""
""fullscreenenter"",""5"",""19159""
","""event"",""trial"",""time""
""blur"",""3"",""10987""
","""event"",""trial"",""time""
""focus"",""3"",""10988""
","""event"",""trial"",""time""
""fullscreenenter"",""5"",""19159""
","
",NA,images/earth.jpg,NA,NA,NA,NA,NA,NA,NA,NA,NA,NA,NA,NA,NA,fixation,NA,NA,NA,NA,NA,NA,sub67
d3-animate-choice,85,459753,0.0-61.0-0.8,TRUE,FALSE,TRUE,TRUE,"""event"",""trial"",""time""
""blur"",""3"",""10987""
""focus"",""3"",""10988""
""fullscreenenter"",""5"",""19159""
","""event"",""trial"",""time""
""blur"",""3"",""10987""
","""event"",""trial"",""time""
""focus"",""3"",""10988""
","""event"",""trial"",""time""
""fullscreenenter"",""5"",""19159""
","
",288,NA,48,NA,NA,3000,1,NA,NA,images/earth.jpg,images/tutrocket2,images/tutrocket1,null,images/tutrocket2,NA,1,practice,null,2,NA,NA,NA,sub67
d3-animate-choice,86,462044,0.0-61.0-1.8,TRUE,FALSE,TRUE,TRUE,"""event"",""trial"",""time""
""blur"",""3"",""10987""
""focus"",""3"",""10988""
""fullscreenenter"",""5"",""19159""
","""event"",""trial"",""time""
""blur"",""3"",""10987""
","""event"",""trial"",""time""
""focus"",""3"",""10988""
","""event"",""trial"",""time""
""fullscreenenter"",""5"",""19159""
","
",289,NA,49,NA,NA,3000,1,NA,NA,images/tutyellowplanet.jpg,images/tutalien4,images/tutalien3,images/tutrocket2,images/tutalien3,images/t.png,2,practice,false,1,rare,1,2020-06-18T22:34:14Z,sub67
two-step-fixation,87,463046,0.0-61.0-2.8,TRUE,FALSE,TRUE,TRUE,"""event"",""trial"",""time""
""blur"",""3"",""10987""
""focus"",""3"",""10988""
""fullscreenenter"",""5"",""19159""
","""event"",""trial"",""time""
""blur"",""3"",""10987""
","""event"",""trial"",""time""
""focus"",""3"",""10988""
","""event"",""trial"",""time""
""fullscreenenter"",""5"",""19159""
","
",NA,images/earth.jpg,NA,NA,NA,NA,NA,NA,NA,NA,NA,NA,NA,NA,NA,fixation,NA,NA,NA,NA,NA,NA,sub67
d3-animate-choice,88,465431,0.0-61.0-0.9,TRUE,FALSE,TRUE,TRUE,"""event"",""trial"",""time""
""blur"",""3"",""10987""
""focus"",""3"",""10988""
""fullscreenenter"",""5"",""19159""
","""event"",""trial"",""time""
""blur"",""3"",""10987""
","""event"",""trial"",""time""
""focus"",""3"",""10988""
","""event"",""trial"",""time""
""fullscreenenter"",""5"",""19159""
","
",383,NA,48,NA,NA,3000,1,NA,NA,images/earth.jpg,images/tutrocket2,images/tutrocket1,null,images/tutrocket2,NA,1,practice,null,2,NA,NA,NA,sub67
d3-animate-choice,89,468068,0.0-61.0-1.9,TRUE,FALSE,TRUE,TRUE,"""event"",""trial"",""time""
""blur"",""3"",""10987""
""focus"",""3"",""10988""
""fullscreenenter"",""5"",""19159""
","""event"",""trial"",""time""
""blur"",""3"",""10987""
","""event"",""trial"",""time""
""focus"",""3"",""10988""
","""event"",""trial"",""time""
""fullscreenenter"",""5"",""19159""
","
",634,NA,49,NA,NA,3000,1,NA,NA,images/tutgreenplanet.jpg,images/tutalien2,images/tutalien1,images/tutrocket2,images/tutalien1,images/nothing.png,2,practice,true,1,common,0,2020-06-18T22:34:20Z,sub67
two-step-fixation,90,469070,0.0-61.0-2.9,TRUE,FALSE,TRUE,TRUE,"""event"",""trial"",""time""
""blur"",""3"",""10987""
""focus"",""3"",""10988""
""fullscreenenter"",""5"",""19159""
","""event"",""trial"",""time""
""blur"",""3"",""10987""
","""event"",""trial"",""time""
""focus"",""3"",""10988""
","""event"",""trial"",""time""
""fullscreenenter"",""5"",""19159""
","
",NA,images/earth.jpg,NA,NA,NA,NA,NA,NA,NA,NA,NA,NA,NA,NA,NA,fixation,NA,NA,NA,NA,NA,NA,sub67
d3-animate-choice,91,471375,0.0-61.0-0.10,TRUE,FALSE,TRUE,TRUE,"""event"",""trial"",""time""
""blur"",""3"",""10987""
""focus"",""3"",""10988""
""fullscreenenter"",""5"",""19159""
","""event"",""trial"",""time""
""blur"",""3"",""10987""
","""event"",""trial"",""time""
""focus"",""3"",""10988""
","""event"",""trial"",""time""
""fullscreenenter"",""5"",""19159""
","
",303,NA,48,NA,NA,3000,1,NA,NA,images/earth.jpg,images/tutrocket2,images/tutrocket1,null,images/tutrocket2,NA,1,practice,null,2,NA,NA,NA,sub67
d3-animate-choice,92,473810,0.0-61.0-1.10,TRUE,FALSE,TRUE,TRUE,"""event"",""trial"",""time""
""blur"",""3"",""10987""
""focus"",""3"",""10988""
""fullscreenenter"",""5"",""19159""
","""event"",""trial"",""time""
""blur"",""3"",""10987""
","""event"",""trial"",""time""
""focus"",""3"",""10988""
","""event"",""trial"",""time""
""fullscreenenter"",""5"",""19159""
","
",432.9999999999418,NA,49,NA,NA,3000,1,NA,NA,images/tutgreenplanet.jpg,images/tutalien2,images/tutalien1,images/tutrocket2,images/tutalien1,images/nothing.png,2,practice,true,1,common,0,2020-06-18T22:34:26Z,sub67
two-step-fixation,93,474811,0.0-61.0-2.10,TRUE,FALSE,TRUE,TRUE,"""event"",""trial"",""time""
""blur"",""3"",""10987""
""focus"",""3"",""10988""
""fullscreenenter"",""5"",""19159""
","""event"",""trial"",""time""
""blur"",""3"",""10987""
","""event"",""trial"",""time""
""focus"",""3"",""10988""
","""event"",""trial"",""time""
""fullscreenenter"",""5"",""19159""
","
",NA,images/earth.jpg,NA,NA,NA,NA,NA,NA,NA,NA,NA,NA,NA,NA,NA,fixation,NA,NA,NA,NA,NA,NA,sub67
d3-animate-choice,94,477736,0.0-61.0-0.11,TRUE,FALSE,TRUE,TRUE,"""event"",""trial"",""time""
""blur"",""3"",""10987""
""focus"",""3"",""10988""
""fullscreenenter"",""5"",""19159""
","""event"",""trial"",""time""
""blur"",""3"",""10987""
","""event"",""trial"",""time""
""focus"",""3"",""10988""
","""event"",""trial"",""time""
""fullscreenenter"",""5"",""19159""
","
",923,NA,48,NA,NA,3000,1,NA,NA,images/earth.jpg,images/tutrocket2,images/tutrocket1,null,images/tutrocket2,NA,1,practice,null,2,NA,NA,NA,sub67
d3-animate-choice,95,480533,0.0-61.0-1.11,TRUE,FALSE,TRUE,TRUE,"""event"",""trial"",""time""
""blur"",""3"",""10987""
""focus"",""3"",""10988""
""fullscreenenter"",""5"",""19159""
","""event"",""trial"",""time""
""blur"",""3"",""10987""
","""event"",""trial"",""time""
""focus"",""3"",""10988""
","""event"",""trial"",""time""
""fullscreenenter"",""5"",""19159""
","
",794,NA,48,NA,NA,3000,1,NA,NA,images/tutyellowplanet.jpg,images/tutalien4,images/tutalien3,images/tutrocket2,images/tutalien4,images/t.png,2,practice,false,2,rare,1,2020-06-18T22:34:33Z,sub67
two-step-fixation,96,481535,0.0-61.0-2.11,TRUE,FALSE,TRUE,TRUE,"""event"",""trial"",""time""
""blur"",""3"",""10987""
""focus"",""3"",""10988""
""fullscreenenter"",""5"",""19159""
","""event"",""trial"",""time""
""blur"",""3"",""10987""
","""event"",""trial"",""time""
""focus"",""3"",""10988""
","""event"",""trial"",""time""
""fullscreenenter"",""5"",""19159""
","
",NA,images/earth.jpg,NA,NA,NA,NA,NA,NA,NA,NA,NA,NA,NA,NA,NA,fixation,NA,NA,NA,NA,NA,NA,sub67
d3-animate-choice,97,483846,0.0-61.0-0.12,TRUE,FALSE,TRUE,TRUE,"""event"",""trial"",""time""
""blur"",""3"",""10987""
""focus"",""3"",""10988""
""fullscreenenter"",""5"",""19159""
","""event"",""trial"",""time""
""blur"",""3"",""10987""
","""event"",""trial"",""time""
""focus"",""3"",""10988""
","""event"",""trial"",""time""
""fullscreenenter"",""5"",""19159""
","
",308,NA,48,NA,NA,3000,1,NA,NA,images/earth.jpg,images/tutrocket2,images/tutrocket1,null,images/tutrocket2,NA,1,practice,null,2,NA,NA,NA,sub67
d3-animate-choice,98,486452,0.0-61.0-1.12,TRUE,FALSE,TRUE,TRUE,"""event"",""trial"",""time""
""blur"",""3"",""10987""
""focus"",""3"",""10988""
""fullscreenenter"",""5"",""19159""
","""event"",""trial"",""time""
""blur"",""3"",""10987""
","""event"",""trial"",""time""
""focus"",""3"",""10988""
","""event"",""trial"",""time""
""fullscreenenter"",""5"",""19159""
","
",602.9999999999418,NA,48,NA,NA,3000,1,NA,NA,images/tutgreenplanet.jpg,images/tutalien2,images/tutalien1,images/tutrocket2,images/tutalien2,images/t.png,2,practice,true,2,common,1,2020-06-18T22:34:39Z,sub67
two-step-fixation,99,487453,0.0-61.0-2.12,TRUE,FALSE,TRUE,TRUE,"""event"",""trial"",""time""
""blur"",""3"",""10987""
""focus"",""3"",""10988""
""fullscreenenter"",""5"",""19159""
","""event"",""trial"",""time""
""blur"",""3"",""10987""
","""event"",""trial"",""time""
""focus"",""3"",""10988""
","""event"",""trial"",""time""
""fullscreenenter"",""5"",""19159""
","
",NA,images/earth.jpg,NA,NA,NA,NA,NA,NA,NA,NA,NA,NA,NA,NA,NA,fixation,NA,NA,NA,NA,NA,NA,sub67
d3-animate-choice,100,489761,0.0-61.0-0.13,TRUE,FALSE,TRUE,TRUE,"""event"",""trial"",""time""
""blur"",""3"",""10987""
""focus"",""3"",""10988""
""fullscreenenter"",""5"",""19159""
","""event"",""trial"",""time""
""blur"",""3"",""10987""
","""event"",""trial"",""time""
""focus"",""3"",""10988""
","""event"",""trial"",""time""
""fullscreenenter"",""5"",""19159""
","
",306.0000000000582,NA,48,NA,NA,3000,1,NA,NA,images/earth.jpg,images/tutrocket2,images/tutrocket1,null,images/tutrocket2,NA,1,practice,null,2,NA,NA,NA,sub67
d3-animate-choice,101,492244,0.0-61.0-1.13,TRUE,FALSE,TRUE,TRUE,"""event"",""trial"",""time""
""blur"",""3"",""10987""
""focus"",""3"",""10988""
""fullscreenenter"",""5"",""19159""
","""event"",""trial"",""time""
""blur"",""3"",""10987""
","""event"",""trial"",""time""
""focus"",""3"",""10988""
","""event"",""trial"",""time""
""fullscreenenter"",""5"",""19159""
","
",480,NA,48,NA,NA,3000,1,NA,NA,images/tutgreenplanet.jpg,images/tutalien2,images/tutalien1,images/tutrocket2,images/tutalien2,images/nothing.png,2,practice,true,2,common,0,2020-06-18T22:34:44Z,sub67
two-step-fixation,102,493245,0.0-61.0-2.13,TRUE,FALSE,TRUE,TRUE,"""event"",""trial"",""time""
""blur"",""3"",""10987""
""focus"",""3"",""10988""
""fullscreenenter"",""5"",""19159""
","""event"",""trial"",""time""
""blur"",""3"",""10987""
","""event"",""trial"",""time""
""focus"",""3"",""10988""
","""event"",""trial"",""time""
""fullscreenenter"",""5"",""19159""
","
",NA,images/earth.jpg,NA,NA,NA,NA,NA,NA,NA,NA,NA,NA,NA,NA,NA,fixation,NA,NA,NA,NA,NA,NA,sub67
d3-animate-choice,103,495562,0.0-61.0-0.14,TRUE,FALSE,TRUE,TRUE,"""event"",""trial"",""time""
""blur"",""3"",""10987""
""focus"",""3"",""10988""
""fullscreenenter"",""5"",""19159""
","""event"",""trial"",""time""
""blur"",""3"",""10987""
","""event"",""trial"",""time""
""focus"",""3"",""10988""
","""event"",""trial"",""time""
""fullscreenenter"",""5"",""19159""
","
",313.9999999999418,NA,48,NA,NA,3000,1,NA,NA,images/earth.jpg,images/tutrocket2,images/tutrocket1,null,images/tutrocket2,NA,1,practice,null,2,NA,NA,NA,sub67
d3-animate-choice,104,498090,0.0-61.0-1.14,TRUE,FALSE,TRUE,TRUE,"""event"",""trial"",""time""
""blur"",""3"",""10987""
""focus"",""3"",""10988""
""fullscreenenter"",""5"",""19159""
","""event"",""trial"",""time""
""blur"",""3"",""10987""
","""event"",""trial"",""time""
""focus"",""3"",""10988""
","""event"",""trial"",""time""
""fullscreenenter"",""5"",""19159""
","
",524.9999999999418,NA,48,NA,NA,3000,1,NA,NA,images/tutgreenplanet.jpg,images/tutalien2,images/tutalien1,images/tutrocket2,images/tutalien2,images/nothing.png,2,practice,true,2,common,0,2020-06-18T22:34:50Z,sub67
two-step-fixation,105,499092,0.0-61.0-2.14,TRUE,FALSE,TRUE,TRUE,"""event"",""trial"",""time""
""blur"",""3"",""10987""
""focus"",""3"",""10988""
""fullscreenenter"",""5"",""19159""
","""event"",""trial"",""time""
""blur"",""3"",""10987""
","""event"",""trial"",""time""
""focus"",""3"",""10988""
","""event"",""trial"",""time""
""fullscreenenter"",""5"",""19159""
","
",NA,images/earth.jpg,NA,NA,NA,NA,NA,NA,NA,NA,NA,NA,NA,NA,NA,fixation,NA,NA,NA,NA,NA,NA,sub67
d3-animate-choice,106,501756,0.0-61.0-0.15,TRUE,FALSE,TRUE,TRUE,"""event"",""trial"",""time""
""blur"",""3"",""10987""
""focus"",""3"",""10988""
""fullscreenenter"",""5"",""19159""
","""event"",""trial"",""time""
""blur"",""3"",""10987""
","""event"",""trial"",""time""
""focus"",""3"",""10988""
","""event"",""trial"",""time""
""fullscreenenter"",""5"",""19159""
","
",661,NA,49,NA,NA,3000,1,NA,NA,images/earth.jpg,images/tutrocket2,images/tutrocket1,null,images/tutrocket1,NA,1,practice,null,1,NA,NA,NA,sub67
d3-animate-choice,107,504100,0.0-61.0-1.15,TRUE,FALSE,TRUE,TRUE,"""event"",""trial"",""time""
""blur"",""3"",""10987""
""focus"",""3"",""10988""
""fullscreenenter"",""5"",""19159""
","""event"",""trial"",""time""
""blur"",""3"",""10987""
","""event"",""trial"",""time""
""focus"",""3"",""10988""
","""event"",""trial"",""time""
""fullscreenenter"",""5"",""19159""
","
",342,NA,48,NA,NA,3000,1,NA,NA,images/tutgreenplanet.jpg,images/tutalien2,images/tutalien1,images/tutrocket1,images/tutalien2,images/nothing.png,2,practice,false,2,rare,0,2020-06-18T22:34:56Z,sub67
two-step-fixation,108,505101,0.0-61.0-2.15,TRUE,FALSE,TRUE,TRUE,"""event"",""trial"",""time""
""blur"",""3"",""10987""
""focus"",""3"",""10988""
""fullscreenenter"",""5"",""19159""
","""event"",""trial"",""time""
""blur"",""3"",""10987""
","""event"",""trial"",""time""
""focus"",""3"",""10988""
","""event"",""trial"",""time""
""fullscreenenter"",""5"",""19159""
","
",NA,images/earth.jpg,NA,NA,NA,NA,NA,NA,NA,NA,NA,NA,NA,NA,NA,fixation,NA,NA,NA,NA,NA,NA,sub67
d3-animate-choice,109,507398,0.0-61.0-0.16,TRUE,FALSE,TRUE,TRUE,"""event"",""trial"",""time""
""blur"",""3"",""10987""
""focus"",""3"",""10988""
""fullscreenenter"",""5"",""19159""
","""event"",""trial"",""time""
""blur"",""3"",""10987""
","""event"",""trial"",""time""
""focus"",""3"",""10988""
","""event"",""trial"",""time""
""fullscreenenter"",""5"",""19159""
","
",294,NA,49,NA,NA,3000,1,NA,NA,images/earth.jpg,images/tutrocket2,images/tutrocket1,null,images/tutrocket1,NA,1,practice,null,1,NA,NA,NA,sub67
d3-animate-choice,110,510446,0.0-61.0-1.16,TRUE,FALSE,TRUE,TRUE,"""event"",""trial"",""time""
""blur"",""3"",""10987""
""focus"",""3"",""10988""
""fullscreenenter"",""5"",""19159""
","""event"",""trial"",""time""
""blur"",""3"",""10987""
","""event"",""trial"",""time""
""focus"",""3"",""10988""
","""event"",""trial"",""time""
""fullscreenenter"",""5"",""19159""
","
",1046,NA,49,NA,NA,3000,1,NA,NA,images/tutgreenplanet.jpg,images/tutalien2,images/tutalien1,images/tutrocket1,images/tutalien1,images/nothing.png,2,practice,false,1,rare,0,2020-06-18T22:35:03Z,sub67
two-step-fixation,111,511448,0.0-61.0-2.16,TRUE,FALSE,TRUE,TRUE,"""event"",""trial"",""time""
""blur"",""3"",""10987""
""focus"",""3"",""10988""
""fullscreenenter"",""5"",""19159""
","""event"",""trial"",""time""
""blur"",""3"",""10987""
","""event"",""trial"",""time""
""focus"",""3"",""10988""
","""event"",""trial"",""time""
""fullscreenenter"",""5"",""19159""
","
",NA,images/earth.jpg,NA,NA,NA,NA,NA,NA,NA,NA,NA,NA,NA,NA,NA,fixation,NA,NA,NA,NA,NA,NA,sub67
d3-animate-choice,112,513781,0.0-61.0-0.17,TRUE,FALSE,TRUE,TRUE,"""event"",""trial"",""time""
""blur"",""3"",""10987""
""focus"",""3"",""10988""
""fullscreenenter"",""5"",""19159""
","""event"",""trial"",""time""
""blur"",""3"",""10987""
","""event"",""trial"",""time""
""focus"",""3"",""10988""
","""event"",""trial"",""time""
""fullscreenenter"",""5"",""19159""
","
",330,NA,49,NA,NA,3000,1,NA,NA,images/earth.jpg,images/tutrocket2,images/tutrocket1,null,images/tutrocket1,NA,1,practice,null,1,NA,NA,NA,sub67
d3-animate-choice,113,517784,0.0-61.0-1.17,TRUE,FALSE,TRUE,TRUE,"""event"",""trial"",""time""
""blur"",""3"",""10987""
""focus"",""3"",""10988""
""fullscreenenter"",""5"",""19159""
","""event"",""trial"",""time""
""blur"",""3"",""10987""
","""event"",""trial"",""time""
""focus"",""3"",""10988""
","""event"",""trial"",""time""
""fullscreenenter"",""5"",""19159""
","
",2952,NA,48,NA,NA,3000,1,NA,NA,images/tutgreenplanet.jpg,images/tutalien2,images/tutalien1,images/tutrocket1,images/tutalien2,NA,2,practice,false,2,rare,0,2020-06-18T22:35:10Z,sub67
two-step-fixation,114,518786,0.0-61.0-2.17,TRUE,FALSE,TRUE,TRUE,"""event"",""trial"",""time""
""blur"",""3"",""10987""
""focus"",""3"",""10988""
""fullscreenenter"",""5"",""19159""
","""event"",""trial"",""time""
""blur"",""3"",""10987""
","""event"",""trial"",""time""
""focus"",""3"",""10988""
","""event"",""trial"",""time""
""fullscreenenter"",""5"",""19159""
","
",NA,images/earth.jpg,NA,NA,NA,NA,NA,NA,NA,NA,NA,NA,NA,NA,NA,fixation,NA,NA,NA,NA,NA,NA,sub67
d3-animate-choice,115,521686,0.0-61.0-0.18,TRUE,FALSE,TRUE,TRUE,"""event"",""trial"",""time""
""blur"",""3"",""10987""
""focus"",""3"",""10988""
""fullscreenenter"",""5"",""19159""
","""event"",""trial"",""time""
""blur"",""3"",""10987""
","""event"",""trial"",""time""
""focus"",""3"",""10988""
","""event"",""trial"",""time""
""fullscreenenter"",""5"",""19159""
","
",897,NA,49,NA,NA,3000,1,NA,NA,images/earth.jpg,images/tutrocket2,images/tutrocket1,null,images/tutrocket1,NA,1,practice,null,1,NA,NA,NA,sub67
d3-animate-choice,116,524723,0.0-61.0-1.18,TRUE,FALSE,TRUE,TRUE,"""event"",""trial"",""time""
""blur"",""3"",""10987""
""focus"",""3"",""10988""
""fullscreenenter"",""5"",""19159""
","""event"",""trial"",""time""
""blur"",""3"",""10987""
","""event"",""trial"",""time""
""focus"",""3"",""10988""
","""event"",""trial"",""time""
""fullscreenenter"",""5"",""19159""
","
",1036,NA,48,NA,NA,3000,1,NA,NA,images/tutgreenplanet.jpg,images/tutalien2,images/tutalien1,images/tutrocket1,images/tutalien2,images/nothing.png,2,practice,false,2,rare,0,2020-06-18T22:35:17Z,sub67
two-step-fixation,117,525725,0.0-61.0-2.18,TRUE,FALSE,TRUE,TRUE,"""event"",""trial"",""time""
""blur"",""3"",""10987""
""focus"",""3"",""10988""
""fullscreenenter"",""5"",""19159""
","""event"",""trial"",""time""
""blur"",""3"",""10987""
","""event"",""trial"",""time""
""focus"",""3"",""10988""
","""event"",""trial"",""time""
""fullscreenenter"",""5"",""19159""
","
",NA,images/earth.jpg,NA,NA,NA,NA,NA,NA,NA,NA,NA,NA,NA,NA,NA,fixation,NA,NA,NA,NA,NA,NA,sub67
d3-animate-choice,118,528052,0.0-61.0-0.19,TRUE,FALSE,TRUE,TRUE,"""event"",""trial"",""time""
""blur"",""3"",""10987""
""focus"",""3"",""10988""
""fullscreenenter"",""5"",""19159""
","""event"",""trial"",""time""
""blur"",""3"",""10987""
","""event"",""trial"",""time""
""focus"",""3"",""10988""
","""event"",""trial"",""time""
""fullscreenenter"",""5"",""19159""
","
",325,NA,48,NA,NA,3000,1,NA,NA,images/earth.jpg,images/tutrocket2,images/tutrocket1,null,images/tutrocket2,NA,1,practice,null,2,NA,NA,NA,sub67
d3-animate-choice,119,531593,0.0-61.0-1.19,TRUE,FALSE,TRUE,TRUE,"""event"",""trial"",""time""
""blur"",""3"",""10987""
""focus"",""3"",""10988""
""fullscreenenter"",""5"",""19159""
","""event"",""trial"",""time""
""blur"",""3"",""10987""
","""event"",""trial"",""time""
""focus"",""3"",""10988""
","""event"",""trial"",""time""
""fullscreenenter"",""5"",""19159""
","
",1539.0000000001164,NA,49,NA,NA,3000,1,NA,NA,images/tutgreenplanet.jpg,images/tutalien2,images/tutalien1,images/tutrocket2,images/tutalien1,images/t.png,2,practice,true,1,common,1,2020-06-18T22:35:24Z,sub67
two-step-fixation,120,532595,0.0-61.0-2.19,TRUE,FALSE,TRUE,TRUE,"""event"",""trial"",""time""
""blur"",""3"",""10987""
""focus"",""3"",""10988""
""fullscreenenter"",""5"",""19159""
","""event"",""trial"",""time""
""blur"",""3"",""10987""
","""event"",""trial"",""time""
""focus"",""3"",""10988""
","""event"",""trial"",""time""
""fullscreenenter"",""5"",""19159""
","
",NA,images/earth.jpg,NA,NA,NA,NA,NA,NA,NA,NA,NA,NA,NA,NA,NA,fixation,NA,NA,NA,NA,NA,NA,sub67
d3-instructions,121,539666,0.0-62.0,TRUE,FALSE,TRUE,TRUE,"""event"",""trial"",""time""
""blur"",""3"",""10987""
""focus"",""3"",""10988""
""fullscreenenter"",""5"",""19159""
","""event"",""trial"",""time""
""blur"",""3"",""10987""
","""event"",""trial"",""time""
""focus"",""3"",""10988""
","""event"",""trial"",""time""
""fullscreenenter"",""5"",""19159""
","
",NA,NA,NA,NA,NA,NA,NA,NA,NA,NA,NA,NA,NA,NA,NA,NA,NA,NA,NA,NA,NA,NA,sub67
audio-keyboard-response,122,544908,0.0-63.0,TRUE,FALSE,TRUE,TRUE,"""event"",""trial"",""time""
""blur"",""3"",""10987""
""focus"",""3"",""10988""
""fullscreenenter"",""5"",""19159""
","""event"",""trial"",""time""
""blur"",""3"",""10987""
","""event"",""trial"",""time""
""focus"",""3"",""10988""
","""event"",""trial"",""time""
""fullscreenenter"",""5"",""19159""
","
",5243,audio/instructions/treasure_feedback.wav,32,NA,NA,NA,NA,NA,NA,NA,NA,NA,NA,NA,NA,NA,NA,NA,NA,NA,NA,NA,sub67
d3-instructions,123,565791,0.0-64.0,TRUE,FALSE,TRUE,TRUE,"""event"",""trial"",""time""
""blur"",""3"",""10987""
""focus"",""3"",""10988""
""fullscreenenter"",""5"",""19159""
","""event"",""trial"",""time""
""blur"",""3"",""10987""
","""event"",""trial"",""time""
""focus"",""3"",""10988""
","""event"",""trial"",""time""
""fullscreenenter"",""5"",""19159""
","
",NA,NA,NA,NA,NA,NA,NA,NA,NA,NA,NA,NA,NA,NA,NA,NA,NA,NA,NA,NA,NA,NA,sub67
d3-instructions,124,579889,0.0-65.0,TRUE,FALSE,TRUE,TRUE,"""event"",""trial"",""time""
""blur"",""3"",""10987""
""focus"",""3"",""10988""
""fullscreenenter"",""5"",""19159""
","""event"",""trial"",""time""
""blur"",""3"",""10987""
","""event"",""trial"",""time""
""focus"",""3"",""10988""
","""event"",""trial"",""time""
""fullscreenenter"",""5"",""19159""
","
",NA,NA,NA,NA,NA,NA,NA,NA,NA,NA,NA,NA,NA,NA,NA,NA,NA,NA,NA,NA,NA,NA,sub67
d3-instructions,125,604759,0.0-66.0,TRUE,FALSE,TRUE,TRUE,"""event"",""trial"",""time""
""blur"",""3"",""10987""
""focus"",""3"",""10988""
""fullscreenenter"",""5"",""19159""
","""event"",""trial"",""time""
""blur"",""3"",""10987""
","""event"",""trial"",""time""
""focus"",""3"",""10988""
","""event"",""trial"",""time""
""fullscreenenter"",""5"",""19159""
","
",NA,NA,NA,NA,NA,NA,NA,NA,NA,NA,NA,NA,NA,NA,NA,NA,NA,NA,NA,NA,NA,NA,sub67
d3-instructions,126,621968,0.0-67.0,TRUE,FALSE,TRUE,TRUE,"""event"",""trial"",""time""
""blur"",""3"",""10987""
""focus"",""3"",""10988""
""fullscreenenter"",""5"",""19159""
","""event"",""trial"",""time""
""blur"",""3"",""10987""
","""event"",""trial"",""time""
""focus"",""3"",""10988""
","""event"",""trial"",""time""
""fullscreenenter"",""5"",""19159""
","
",NA,NA,NA,NA,NA,NA,NA,NA,NA,NA,NA,NA,NA,NA,NA,NA,NA,NA,NA,NA,NA,NA,sub67
d3-instructions,127,631031,0.0-68.0,TRUE,FALSE,TRUE,TRUE,"""event"",""trial"",""time""
""blur"",""3"",""10987""
""focus"",""3"",""10988""
""fullscreenenter"",""5"",""19159""
","""event"",""trial"",""time""
""blur"",""3"",""10987""
","""event"",""trial"",""time""
""focus"",""3"",""10988""
","""event"",""trial"",""time""
""fullscreenenter"",""5"",""19159""
","
",NA,NA,NA,NA,NA,NA,NA,NA,NA,NA,NA,NA,NA,NA,NA,NA,NA,NA,NA,NA,NA,NA,sub67
instructions-quiz,128,635820,0.0-69.0,TRUE,FALSE,TRUE,TRUE,"""event"",""trial"",""time""
""blur"",""3"",""10987""
""focus"",""3"",""10988""
""fullscreenenter"",""5"",""19159""
","""event"",""trial"",""time""
""blur"",""3"",""10987""
","""event"",""trial"",""time""
""focus"",""3"",""10988""
","""event"",""trial"",""time""
""fullscreenenter"",""5"",""19159""
","
",4789,audio/quiz/Q1_Prompt.wav,NA,1,NA,NA,NA,NA,NA,NA,NA,NA,NA,NA,NA,NA,NA,NA,NA,NA,NA,NA,sub67
audio-keyboard-response,129,644991,0.0-70.0,TRUE,FALSE,TRUE,TRUE,"""event"",""trial"",""time""
""blur"",""3"",""10987""
""focus"",""3"",""10988""
""fullscreenenter"",""5"",""19159""
","""event"",""trial"",""time""
""blur"",""3"",""10987""
","""event"",""trial"",""time""
""focus"",""3"",""10988""
","""event"",""trial"",""time""
""fullscreenenter"",""5"",""19159""
","
",null,audio/quiz/Q1_Correct.wav,null,NA,NA,NA,NA,NA,NA,NA,NA,NA,NA,NA,NA,NA,NA,NA,NA,NA,NA,NA,sub67
instructions-quiz,130,654001,0.0-71.0,TRUE,FALSE,TRUE,TRUE,"""event"",""trial"",""time""
""blur"",""3"",""10987""
""focus"",""3"",""10988""
""fullscreenenter"",""5"",""19159""
","""event"",""trial"",""time""
""blur"",""3"",""10987""
","""event"",""trial"",""time""
""focus"",""3"",""10988""
","""event"",""trial"",""time""
""fullscreenenter"",""5"",""19159""
","
",9009,audio/quiz/Q2_Prompt.wav,NA,0,NA,NA,NA,NA,NA,NA,NA,NA,NA,NA,NA,NA,NA,NA,NA,NA,NA,NA,sub67
audio-keyboard-response,131,666871,0.0-72.0,TRUE,FALSE,TRUE,TRUE,"""event"",""trial"",""time""
""blur"",""3"",""10987""
""focus"",""3"",""10988""
""fullscreenenter"",""5"",""19159""
","""event"",""trial"",""time""
""blur"",""3"",""10987""
","""event"",""trial"",""time""
""focus"",""3"",""10988""
","""event"",""trial"",""time""
""fullscreenenter"",""5"",""19159""
","
",null,audio/quiz/Q2_Correct.wav,null,NA,NA,NA,NA,NA,NA,NA,NA,NA,NA,NA,NA,NA,NA,NA,NA,NA,NA,NA,sub67
instructions-quiz,132,670555,0.0-73.0,TRUE,FALSE,TRUE,TRUE,"""event"",""trial"",""time""
""blur"",""3"",""10987""
""focus"",""3"",""10988""
""fullscreenenter"",""5"",""19159""
","""event"",""trial"",""time""
""blur"",""3"",""10987""
","""event"",""trial"",""time""
""focus"",""3"",""10988""
","""event"",""trial"",""time""
""fullscreenenter"",""5"",""19159""
","
",3682,audio/quiz/Q3_Prompt.wav,NA,1,NA,NA,NA,NA,NA,NA,NA,NA,NA,NA,NA,NA,NA,NA,NA,NA,NA,NA,sub67
audio-keyboard-response,133,676354,0.0-74.0,TRUE,FALSE,TRUE,TRUE,"""event"",""trial"",""time""
""blur"",""3"",""10987""
""focus"",""3"",""10988""
""fullscreenenter"",""5"",""19159""
","""event"",""trial"",""time""
""blur"",""3"",""10987""
","""event"",""trial"",""time""
""focus"",""3"",""10988""
","""event"",""trial"",""time""
""fullscreenenter"",""5"",""19159""
","
",null,audio/quiz/Q3_Correct.wav,null,NA,NA,NA,NA,NA,NA,NA,NA,NA,NA,NA,NA,NA,NA,NA,NA,NA,NA,NA,sub67
d3-instructions,134,690192,0.0-75.0,TRUE,FALSE,TRUE,TRUE,"""event"",""trial"",""time""
""blur"",""3"",""10987""
""focus"",""3"",""10988""
""fullscreenenter"",""5"",""19159""
","""event"",""trial"",""time""
""blur"",""3"",""10987""
","""event"",""trial"",""time""
""focus"",""3"",""10988""
","""event"",""trial"",""time""
""fullscreenenter"",""5"",""19159""
","
",NA,NA,NA,NA,NA,NA,NA,NA,NA,NA,NA,NA,NA,NA,NA,NA,NA,NA,NA,NA,NA,NA,sub67
d3-animate-choice,135,693287,0.0-76.0-0.0,TRUE,FALSE,TRUE,TRUE,"""event"",""trial"",""time""
""blur"",""3"",""10987""
""focus"",""3"",""10988""
""fullscreenenter"",""5"",""19159""
","""event"",""trial"",""time""
""blur"",""3"",""10987""
","""event"",""trial"",""time""
""focus"",""3"",""10988""
","""event"",""trial"",""time""
""fullscreenenter"",""5"",""19159""
","
",1093,NA,49,NA,NA,3000,1,NA,NA,images/earth.jpg,images/rocket2,images/rocket1,null,images/rocket1,NA,1,real,null,1,NA,NA,NA,sub67
d3-animate-choice,136,695747,0.0-76.0-1.0,TRUE,FALSE,TRUE,TRUE,"""event"",""trial"",""time""
""blur"",""3"",""10987""
""focus"",""3"",""10988""
""fullscreenenter"",""5"",""19159""
","""event"",""trial"",""time""
""blur"",""3"",""10987""
","""event"",""trial"",""time""
""focus"",""3"",""10988""
","""event"",""trial"",""time""
""fullscreenenter"",""5"",""19159""
","
",457,NA,49,NA,NA,3000,1,NA,NA,images/redplanet1.jpg,images/alien2,images/alien1,images/rocket1,images/alien1,images/nothing.png,2,real,false,1,rare,0,2020-06-18T22:38:08Z,sub67
two-step-fixation,137,696749,0.0-76.0-2.0,TRUE,FALSE,TRUE,TRUE,"""event"",""trial"",""time""
""blur"",""3"",""10987""
""focus"",""3"",""10988""
""fullscreenenter"",""5"",""19159""
","""event"",""trial"",""time""
""blur"",""3"",""10987""
","""event"",""trial"",""time""
""focus"",""3"",""10988""
","""event"",""trial"",""time""
""fullscreenenter"",""5"",""19159""
","
",NA,images/earth.jpg,NA,NA,NA,NA,NA,NA,NA,NA,NA,NA,NA,NA,NA,fixation,NA,NA,NA,NA,NA,NA,sub67
d3-animate-choice,138,699140,0.0-76.0-0.1,TRUE,FALSE,TRUE,TRUE,"""event"",""trial"",""time""
""blur"",""3"",""10987""
""focus"",""3"",""10988""
""fullscreenenter"",""5"",""19159""
","""event"",""trial"",""time""
""blur"",""3"",""10987""
","""event"",""trial"",""time""
""focus"",""3"",""10988""
","""event"",""trial"",""time""
""fullscreenenter"",""5"",""19159""
","
",389,NA,49,NA,NA,3000,1,NA,NA,images/earth.jpg,images/rocket2,images/rocket1,null,images/rocket1,NA,1,real,null,1,NA,NA,NA,sub67
d3-animate-choice,139,702089,0.0-76.0-1.1,TRUE,FALSE,TRUE,TRUE,"""event"",""trial"",""time""
""blur"",""3"",""10987""
""focus"",""3"",""10988""
""fullscreenenter"",""5"",""19159""
","""event"",""trial"",""time""
""blur"",""3"",""10987""
","""event"",""trial"",""time""
""focus"",""3"",""10988""
","""event"",""trial"",""time""
""fullscreenenter"",""5"",""19159""
","
",947.9999999998836,NA,49,NA,NA,3000,1,NA,NA,images/purpleplanet.jpg,images/alien4,images/alien3,images/rocket1,images/alien3,images/t.png,2,real,true,1,common,1,2020-06-18T22:38:14Z,sub67
two-step-fixation,140,703091,0.0-76.0-2.1,TRUE,FALSE,TRUE,TRUE,"""event"",""trial"",""time""
""blur"",""3"",""10987""
""focus"",""3"",""10988""
""fullscreenenter"",""5"",""19159""
","""event"",""trial"",""time""
""blur"",""3"",""10987""
","""event"",""trial"",""time""
""focus"",""3"",""10988""
","""event"",""trial"",""time""
""fullscreenenter"",""5"",""19159""
","
",NA,images/earth.jpg,NA,NA,NA,NA,NA,NA,NA,NA,NA,NA,NA,NA,NA,fixation,NA,NA,NA,NA,NA,NA,sub67
d3-animate-choice,141,705442,0.0-76.0-0.2,TRUE,FALSE,TRUE,TRUE,"""event"",""trial"",""time""
""blur"",""3"",""10987""
""focus"",""3"",""10988""
""fullscreenenter"",""5"",""19159""
","""event"",""trial"",""time""
""blur"",""3"",""10987""
","""event"",""trial"",""time""
""focus"",""3"",""10988""
","""event"",""trial"",""time""
""fullscreenenter"",""5"",""19159""
","
",348.9999999998836,NA,49,NA,NA,3000,1,NA,NA,images/earth.jpg,images/rocket2,images/rocket1,null,images/rocket1,NA,1,real,null,1,NA,NA,NA,sub67
d3-animate-choice,142,708142,0.0-76.0-1.2,TRUE,FALSE,TRUE,TRUE,"""event"",""trial"",""time""
""blur"",""3"",""10987""
""focus"",""3"",""10988""
""fullscreenenter"",""5"",""19159""
","""event"",""trial"",""time""
""blur"",""3"",""10987""
","""event"",""trial"",""time""
""focus"",""3"",""10988""
","""event"",""trial"",""time""
""fullscreenenter"",""5"",""19159""
","
",697.9999999998836,NA,49,NA,NA,3000,1,NA,NA,images/purpleplanet.jpg,images/alien4,images/alien3,images/rocket1,images/alien3,images/nothing.png,2,real,true,1,common,0,2020-06-18T22:38:20Z,sub67
two-step-fixation,143,709144,0.0-76.0-2.2,TRUE,FALSE,TRUE,TRUE,"""event"",""trial"",""time""
""blur"",""3"",""10987""
""focus"",""3"",""10988""
""fullscreenenter"",""5"",""19159""
","""event"",""trial"",""time""
""blur"",""3"",""10987""
","""event"",""trial"",""time""
""focus"",""3"",""10988""
","""event"",""trial"",""time""
""fullscreenenter"",""5"",""19159""
","
",NA,images/earth.jpg,NA,NA,NA,NA,NA,NA,NA,NA,NA,NA,NA,NA,NA,fixation,NA,NA,NA,NA,NA,NA,sub67
d3-animate-choice,144,711665,0.0-76.0-0.3,TRUE,FALSE,TRUE,TRUE,"""event"",""trial"",""time""
""blur"",""3"",""10987""
""focus"",""3"",""10988""
""fullscreenenter"",""5"",""19159""
","""event"",""trial"",""time""
""blur"",""3"",""10987""
","""event"",""trial"",""time""
""focus"",""3"",""10988""
","""event"",""trial"",""time""
""fullscreenenter"",""5"",""19159""
","
",517.9999999998836,NA,49,NA,NA,3000,1,NA,NA,images/earth.jpg,images/rocket2,images/rocket1,null,images/rocket1,NA,1,real,null,1,NA,NA,NA,sub67
d3-animate-choice,145,714251,0.0-76.0-1.3,TRUE,FALSE,TRUE,TRUE,"""event"",""trial"",""time""
""blur"",""3"",""10987""
""focus"",""3"",""10988""
""fullscreenenter"",""5"",""19159""
","""event"",""trial"",""time""
""blur"",""3"",""10987""
","""event"",""trial"",""time""
""focus"",""3"",""10988""
","""event"",""trial"",""time""
""fullscreenenter"",""5"",""19159""
","
",583,NA,48,NA,NA,3000,1,NA,NA,images/purpleplanet.jpg,images/alien4,images/alien3,images/rocket1,images/alien4,images/t.png,2,real,true,2,common,1,2020-06-18T22:38:26Z,sub67
two-step-fixation,146,715253,0.0-76.0-2.3,TRUE,FALSE,TRUE,TRUE,"""event"",""trial"",""time""
""blur"",""3"",""10987""
""focus"",""3"",""10988""
""fullscreenenter"",""5"",""19159""
","""event"",""trial"",""time""
""blur"",""3"",""10987""
","""event"",""trial"",""time""
""focus"",""3"",""10988""
","""event"",""trial"",""time""
""fullscreenenter"",""5"",""19159""
","
",NA,images/earth.jpg,NA,NA,NA,NA,NA,NA,NA,NA,NA,NA,NA,NA,NA,fixation,NA,NA,NA,NA,NA,NA,sub67
d3-animate-choice,147,717584,0.0-76.0-0.4,TRUE,FALSE,TRUE,TRUE,"""event"",""trial"",""time""
""blur"",""3"",""10987""
""focus"",""3"",""10988""
""fullscreenenter"",""5"",""19159""
","""event"",""trial"",""time""
""blur"",""3"",""10987""
","""event"",""trial"",""time""
""focus"",""3"",""10988""
","""event"",""trial"",""time""
""fullscreenenter"",""5"",""19159""
","
",327,NA,49,NA,NA,3000,1,NA,NA,images/earth.jpg,images/rocket2,images/rocket1,null,images/rocket1,NA,1,real,null,1,NA,NA,NA,sub67
d3-animate-choice,148,720115,0.0-76.0-1.4,TRUE,FALSE,TRUE,TRUE,"""event"",""trial"",""time""
""blur"",""3"",""10987""
""focus"",""3"",""10988""
""fullscreenenter"",""5"",""19159""
","""event"",""trial"",""time""
""blur"",""3"",""10987""
","""event"",""trial"",""time""
""focus"",""3"",""10988""
","""event"",""trial"",""time""
""fullscreenenter"",""5"",""19159""
","
",528,NA,48,NA,NA,3000,1,NA,NA,images/purpleplanet.jpg,images/alien4,images/alien3,images/rocket1,images/alien4,images/t.png,2,real,true,2,common,1,2020-06-18T22:38:32Z,sub67
two-step-fixation,149,721116,0.0-76.0-2.4,TRUE,FALSE,TRUE,TRUE,"""event"",""trial"",""time""
""blur"",""3"",""10987""
""focus"",""3"",""10988""
""fullscreenenter"",""5"",""19159""
","""event"",""trial"",""time""
""blur"",""3"",""10987""
","""event"",""trial"",""time""
""focus"",""3"",""10988""
","""event"",""trial"",""time""
""fullscreenenter"",""5"",""19159""
","
",NA,images/earth.jpg,NA,NA,NA,NA,NA,NA,NA,NA,NA,NA,NA,NA,NA,fixation,NA,NA,NA,NA,NA,NA,sub67
d3-animate-choice,150,723433,0.0-76.0-0.5,TRUE,FALSE,TRUE,TRUE,"""event"",""trial"",""time""
""blur"",""3"",""10987""
""focus"",""3"",""10988""
""fullscreenenter"",""5"",""19159""
","""event"",""trial"",""time""
""blur"",""3"",""10987""
","""event"",""trial"",""time""
""focus"",""3"",""10988""
","""event"",""trial"",""time""
""fullscreenenter"",""5"",""19159""
","
",313.9999999998836,NA,49,NA,NA,3000,1,NA,NA,images/earth.jpg,images/rocket2,images/rocket1,null,images/rocket1,NA,1,real,null,1,NA,NA,NA,sub67
d3-animate-choice,151,725915,0.0-76.0-1.5,TRUE,FALSE,TRUE,TRUE,"""event"",""trial"",""time""
""blur"",""3"",""10987""
""focus"",""3"",""10988""
""fullscreenenter"",""5"",""19159""
","""event"",""trial"",""time""
""blur"",""3"",""10987""
","""event"",""trial"",""time""
""focus"",""3"",""10988""
","""event"",""trial"",""time""
""fullscreenenter"",""5"",""19159""
","
",480,NA,48,NA,NA,3000,1,NA,NA,images/purpleplanet.jpg,images/alien4,images/alien3,images/rocket1,images/alien4,images/t.png,2,real,true,2,common,1,2020-06-18T22:38:38Z,sub67
two-step-fixation,152,726916,0.0-76.0-2.5,TRUE,FALSE,TRUE,TRUE,"""event"",""trial"",""time""
""blur"",""3"",""10987""
""focus"",""3"",""10988""
""fullscreenenter"",""5"",""19159""
","""event"",""trial"",""time""
""blur"",""3"",""10987""
","""event"",""trial"",""time""
""focus"",""3"",""10988""
","""event"",""trial"",""time""
""fullscreenenter"",""5"",""19159""
","
",NA,images/earth.jpg,NA,NA,NA,NA,NA,NA,NA,NA,NA,NA,NA,NA,NA,fixation,NA,NA,NA,NA,NA,NA,sub67
d3-animate-choice,153,729214,0.0-76.0-0.6,TRUE,FALSE,TRUE,TRUE,"""event"",""trial"",""time""
""blur"",""3"",""10987""
""focus"",""3"",""10988""
""fullscreenenter"",""5"",""19159""
","""event"",""trial"",""time""
""blur"",""3"",""10987""
","""event"",""trial"",""time""
""focus"",""3"",""10988""
","""event"",""trial"",""time""
""fullscreenenter"",""5"",""19159""
","
",296,NA,49,NA,NA,3000,1,NA,NA,images/earth.jpg,images/rocket2,images/rocket1,null,images/rocket1,NA,1,real,null,1,NA,NA,NA,sub67
d3-animate-choice,154,731665,0.0-76.0-1.6,TRUE,FALSE,TRUE,TRUE,"""event"",""trial"",""time""
""blur"",""3"",""10987""
""focus"",""3"",""10988""
""fullscreenenter"",""5"",""19159""
","""event"",""trial"",""time""
""blur"",""3"",""10987""
","""event"",""trial"",""time""
""focus"",""3"",""10988""
","""event"",""trial"",""time""
""fullscreenenter"",""5"",""19159""
","
",450,NA,48,NA,NA,3000,1,NA,NA,images/purpleplanet.jpg,images/alien4,images/alien3,images/rocket1,images/alien4,images/t.png,2,real,true,2,common,1,2020-06-18T22:38:44Z,sub67
two-step-fixation,155,732667,0.0-76.0-2.6,TRUE,FALSE,TRUE,TRUE,"""event"",""trial"",""time""
""blur"",""3"",""10987""
""focus"",""3"",""10988""
""fullscreenenter"",""5"",""19159""
","""event"",""trial"",""time""
""blur"",""3"",""10987""
","""event"",""trial"",""time""
""focus"",""3"",""10988""
","""event"",""trial"",""time""
""fullscreenenter"",""5"",""19159""
","
",NA,images/earth.jpg,NA,NA,NA,NA,NA,NA,NA,NA,NA,NA,NA,NA,NA,fixation,NA,NA,NA,NA,NA,NA,sub67
d3-animate-choice,156,734939,0.0-76.0-0.7,TRUE,FALSE,TRUE,TRUE,"""event"",""trial"",""time""
""blur"",""3"",""10987""
""focus"",""3"",""10988""
""fullscreenenter"",""5"",""19159""
","""event"",""trial"",""time""
""blur"",""3"",""10987""
","""event"",""trial"",""time""
""focus"",""3"",""10988""
","""event"",""trial"",""time""
""fullscreenenter"",""5"",""19159""
","
",269,NA,49,NA,NA,3000,1,NA,NA,images/earth.jpg,images/rocket2,images/rocket1,null,images/rocket1,NA,1,real,null,1,NA,NA,NA,sub67
d3-animate-choice,157,737529,0.0-76.0-1.7,TRUE,FALSE,TRUE,TRUE,"""event"",""trial"",""time""
""blur"",""3"",""10987""
""focus"",""3"",""10988""
""fullscreenenter"",""5"",""19159""
","""event"",""trial"",""time""
""blur"",""3"",""10987""
","""event"",""trial"",""time""
""focus"",""3"",""10988""
","""event"",""trial"",""time""
""fullscreenenter"",""5"",""19159""
","
",587,NA,48,NA,NA,3000,1,NA,NA,images/purpleplanet.jpg,images/alien4,images/alien3,images/rocket1,images/alien4,images/t.png,2,real,true,2,common,1,2020-06-18T22:38:50Z,sub67
two-step-fixation,158,738531,0.0-76.0-2.7,TRUE,FALSE,TRUE,TRUE,"""event"",""trial"",""time""
""blur"",""3"",""10987""
""focus"",""3"",""10988""
""fullscreenenter"",""5"",""19159""
","""event"",""trial"",""time""
""blur"",""3"",""10987""
","""event"",""trial"",""time""
""focus"",""3"",""10988""
","""event"",""trial"",""time""
""fullscreenenter"",""5"",""19159""
","
",NA,images/earth.jpg,NA,NA,NA,NA,NA,NA,NA,NA,NA,NA,NA,NA,NA,fixation,NA,NA,NA,NA,NA,NA,sub67
d3-animate-choice,159,740857,0.0-76.0-0.8,TRUE,FALSE,TRUE,TRUE,"""event"",""trial"",""time""
""blur"",""3"",""10987""
""focus"",""3"",""10988""
""fullscreenenter"",""5"",""19159""
","""event"",""trial"",""time""
""blur"",""3"",""10987""
","""event"",""trial"",""time""
""focus"",""3"",""10988""
","""event"",""trial"",""time""
""fullscreenenter"",""5"",""19159""
","
",325,NA,49,NA,NA,3000,1,NA,NA,images/earth.jpg,images/rocket2,images/rocket1,null,images/rocket1,NA,1,real,null,1,NA,NA,NA,sub67
d3-animate-choice,160,744779,0.0-76.0-1.8,TRUE,FALSE,TRUE,TRUE,"""event"",""trial"",""time""
""blur"",""3"",""10987""
""focus"",""3"",""10988""
""fullscreenenter"",""5"",""19159""
","""event"",""trial"",""time""
""blur"",""3"",""10987""
","""event"",""trial"",""time""
""focus"",""3"",""10988""
","""event"",""trial"",""time""
""fullscreenenter"",""5"",""19159""
","
",1919,NA,49,NA,NA,3000,1,NA,NA,images/redplanet1.jpg,images/alien2,images/alien1,images/rocket1,images/alien1,images/nothing.png,2,real,false,1,rare,0,2020-06-18T22:38:57Z,sub67
two-step-fixation,161,745780,0.0-76.0-2.8,TRUE,FALSE,TRUE,TRUE,"""event"",""trial"",""time""
""blur"",""3"",""10987""
""focus"",""3"",""10988""
""fullscreenenter"",""5"",""19159""
","""event"",""trial"",""time""
""blur"",""3"",""10987""
","""event"",""trial"",""time""
""focus"",""3"",""10988""
","""event"",""trial"",""time""
""fullscreenenter"",""5"",""19159""
","
",NA,images/earth.jpg,NA,NA,NA,NA,NA,NA,NA,NA,NA,NA,NA,NA,NA,fixation,NA,NA,NA,NA,NA,NA,sub67
d3-animate-choice,162,748084,0.0-76.0-0.9,TRUE,FALSE,TRUE,TRUE,"""event"",""trial"",""time""
""blur"",""3"",""10987""
""focus"",""3"",""10988""
""fullscreenenter"",""5"",""19159""
","""event"",""trial"",""time""
""blur"",""3"",""10987""
","""event"",""trial"",""time""
""focus"",""3"",""10988""
","""event"",""trial"",""time""
""fullscreenenter"",""5"",""19159""
","
",302,NA,49,NA,NA,3000,1,NA,NA,images/earth.jpg,images/rocket2,images/rocket1,null,images/rocket1,NA,1,real,null,1,NA,NA,NA,sub67
d3-animate-choice,163,750594,0.0-76.0-1.9,TRUE,FALSE,TRUE,TRUE,"""event"",""trial"",""time""
""blur"",""3"",""10987""
""focus"",""3"",""10988""
""fullscreenenter"",""5"",""19159""
","""event"",""trial"",""time""
""blur"",""3"",""10987""
","""event"",""trial"",""time""
""focus"",""3"",""10988""
","""event"",""trial"",""time""
""fullscreenenter"",""5"",""19159""
","
",507,NA,48,NA,NA,3000,1,NA,NA,images/purpleplanet.jpg,images/alien4,images/alien3,images/rocket1,images/alien4,images/t.png,2,real,true,2,common,1,2020-06-18T22:39:03Z,sub67
two-step-fixation,164,751596,0.0-76.0-2.9,TRUE,FALSE,TRUE,TRUE,"""event"",""trial"",""time""
""blur"",""3"",""10987""
""focus"",""3"",""10988""
""fullscreenenter"",""5"",""19159""
","""event"",""trial"",""time""
""blur"",""3"",""10987""
","""event"",""trial"",""time""
""focus"",""3"",""10988""
","""event"",""trial"",""time""
""fullscreenenter"",""5"",""19159""
","
",NA,images/earth.jpg,NA,NA,NA,NA,NA,NA,NA,NA,NA,NA,NA,NA,NA,fixation,NA,NA,NA,NA,NA,NA,sub67
d3-animate-choice,165,753859,0.0-76.0-0.10,TRUE,FALSE,TRUE,TRUE,"""event"",""trial"",""time""
""blur"",""3"",""10987""
""focus"",""3"",""10988""
""fullscreenenter"",""5"",""19159""
","""event"",""trial"",""time""
""blur"",""3"",""10987""
","""event"",""trial"",""time""
""focus"",""3"",""10988""
","""event"",""trial"",""time""
""fullscreenenter"",""5"",""19159""
","
",261,NA,49,NA,NA,3000,1,NA,NA,images/earth.jpg,images/rocket2,images/rocket1,null,images/rocket1,NA,1,real,null,1,NA,NA,NA,sub67
d3-animate-choice,166,756341,0.0-76.0-1.10,TRUE,FALSE,TRUE,TRUE,"""event"",""trial"",""time""
""blur"",""3"",""10987""
""focus"",""3"",""10988""
""fullscreenenter"",""5"",""19159""
","""event"",""trial"",""time""
""blur"",""3"",""10987""
","""event"",""trial"",""time""
""focus"",""3"",""10988""
","""event"",""trial"",""time""
""fullscreenenter"",""5"",""19159""
","
",481,NA,48,NA,NA,3000,1,NA,NA,images/purpleplanet.jpg,images/alien4,images/alien3,images/rocket1,images/alien4,images/t.png,2,real,true,2,common,1,2020-06-18T22:39:09Z,sub67
two-step-fixation,167,757343,0.0-76.0-2.10,TRUE,FALSE,TRUE,TRUE,"""event"",""trial"",""time""
""blur"",""3"",""10987""
""focus"",""3"",""10988""
""fullscreenenter"",""5"",""19159""
","""event"",""trial"",""time""
""blur"",""3"",""10987""
","""event"",""trial"",""time""
""focus"",""3"",""10988""
","""event"",""trial"",""time""
""fullscreenenter"",""5"",""19159""
","
",NA,images/earth.jpg,NA,NA,NA,NA,NA,NA,NA,NA,NA,NA,NA,NA,NA,fixation,NA,NA,NA,NA,NA,NA,sub67
d3-animate-choice,168,759646,0.0-76.0-0.11,TRUE,FALSE,TRUE,TRUE,"""event"",""trial"",""time""
""blur"",""3"",""10987""
""focus"",""3"",""10988""
""fullscreenenter"",""5"",""19159""
","""event"",""trial"",""time""
""blur"",""3"",""10987""
","""event"",""trial"",""time""
""focus"",""3"",""10988""
","""event"",""trial"",""time""
""fullscreenenter"",""5"",""19159""
","
",300.9999999998836,NA,49,NA,NA,3000,1,NA,NA,images/earth.jpg,images/rocket2,images/rocket1,null,images/rocket1,NA,1,real,null,1,NA,NA,NA,sub67
d3-animate-choice,169,762193,0.0-76.0-1.11,TRUE,FALSE,TRUE,TRUE,"""event"",""trial"",""time""
""blur"",""3"",""10987""
""focus"",""3"",""10988""
""fullscreenenter"",""5"",""19159""
","""event"",""trial"",""time""
""blur"",""3"",""10987""
","""event"",""trial"",""time""
""focus"",""3"",""10988""
","""event"",""trial"",""time""
""fullscreenenter"",""5"",""19159""
","
",544.9999999998836,NA,48,NA,NA,3000,1,NA,NA,images/purpleplanet.jpg,images/alien4,images/alien3,images/rocket1,images/alien4,images/nothing.png,2,real,true,2,common,0,2020-06-18T22:39:14Z,sub67
two-step-fixation,170,763195,0.0-76.0-2.11,TRUE,FALSE,TRUE,TRUE,"""event"",""trial"",""time""
""blur"",""3"",""10987""
""focus"",""3"",""10988""
""fullscreenenter"",""5"",""19159""
","""event"",""trial"",""time""
""blur"",""3"",""10987""
","""event"",""trial"",""time""
""focus"",""3"",""10988""
","""event"",""trial"",""time""
""fullscreenenter"",""5"",""19159""
","
",NA,images/earth.jpg,NA,NA,NA,NA,NA,NA,NA,NA,NA,NA,NA,NA,NA,fixation,NA,NA,NA,NA,NA,NA,sub67
d3-animate-choice,171,765479,0.0-76.0-0.12,TRUE,FALSE,TRUE,TRUE,"""event"",""trial"",""time""
""blur"",""3"",""10987""
""focus"",""3"",""10988""
""fullscreenenter"",""5"",""19159""
","""event"",""trial"",""time""
""blur"",""3"",""10987""
","""event"",""trial"",""time""
""focus"",""3"",""10988""
","""event"",""trial"",""time""
""fullscreenenter"",""5"",""19159""
","
",281,NA,49,NA,NA,3000,1,NA,NA,images/earth.jpg,images/rocket2,images/rocket1,null,images/rocket1,NA,1,real,null,1,NA,NA,NA,sub67
d3-animate-choice,172,768850,0.0-76.0-1.12,TRUE,FALSE,TRUE,TRUE,"""event"",""trial"",""time""
""blur"",""3"",""10987""
""focus"",""3"",""10988""
""fullscreenenter"",""5"",""19159""
","""event"",""trial"",""time""
""blur"",""3"",""10987""
","""event"",""trial"",""time""
""focus"",""3"",""10988""
","""event"",""trial"",""time""
""fullscreenenter"",""5"",""19159""
","
",1369.0000000001164,NA,48,NA,NA,3000,1,NA,NA,images/redplanet1.jpg,images/alien2,images/alien1,images/rocket1,images/alien2,images/t.png,2,real,false,2,rare,1,2020-06-18T22:39:21Z,sub67
two-step-fixation,173,769852,0.0-76.0-2.12,TRUE,FALSE,TRUE,TRUE,"""event"",""trial"",""time""
""blur"",""3"",""10987""
""focus"",""3"",""10988""
""fullscreenenter"",""5"",""19159""
","""event"",""trial"",""time""
""blur"",""3"",""10987""
","""event"",""trial"",""time""
""focus"",""3"",""10988""
","""event"",""trial"",""time""
""fullscreenenter"",""5"",""19159""
","
",NA,images/earth.jpg,NA,NA,NA,NA,NA,NA,NA,NA,NA,NA,NA,NA,NA,fixation,NA,NA,NA,NA,NA,NA,sub67
d3-animate-choice,174,772249,0.0-76.0-0.13,TRUE,FALSE,TRUE,TRUE,"""event"",""trial"",""time""
""blur"",""3"",""10987""
""focus"",""3"",""10988""
""fullscreenenter"",""5"",""19159""
","""event"",""trial"",""time""
""blur"",""3"",""10987""
","""event"",""trial"",""time""
""focus"",""3"",""10988""
","""event"",""trial"",""time""
""fullscreenenter"",""5"",""19159""
","
",394,NA,49,NA,NA,3000,1,NA,NA,images/earth.jpg,images/rocket2,images/rocket1,null,images/rocket1,NA,1,real,null,1,NA,NA,NA,sub67
d3-animate-choice,175,774665,0.0-76.0-1.13,TRUE,FALSE,TRUE,TRUE,"""event"",""trial"",""time""
""blur"",""3"",""10987""
""focus"",""3"",""10988""
""fullscreenenter"",""5"",""19159""
","""event"",""trial"",""time""
""blur"",""3"",""10987""
","""event"",""trial"",""time""
""focus"",""3"",""10988""
","""event"",""trial"",""time""
""fullscreenenter"",""5"",""19159""
","
",413,NA,48,NA,NA,3000,1,NA,NA,images/purpleplanet.jpg,images/alien4,images/alien3,images/rocket1,images/alien4,images/nothing.png,2,real,true,2,common,0,2020-06-18T22:39:27Z,sub67
two-step-fixation,176,775666,0.0-76.0-2.13,TRUE,FALSE,TRUE,TRUE,"""event"",""trial"",""time""
""blur"",""3"",""10987""
""focus"",""3"",""10988""
""fullscreenenter"",""5"",""19159""
","""event"",""trial"",""time""
""blur"",""3"",""10987""
","""event"",""trial"",""time""
""focus"",""3"",""10988""
","""event"",""trial"",""time""
""fullscreenenter"",""5"",""19159""
","
",NA,images/earth.jpg,NA,NA,NA,NA,NA,NA,NA,NA,NA,NA,NA,NA,NA,fixation,NA,NA,NA,NA,NA,NA,sub67
d3-animate-choice,177,778028,0.0-76.0-0.14,TRUE,FALSE,TRUE,TRUE,"""event"",""trial"",""time""
""blur"",""3"",""10987""
""focus"",""3"",""10988""
""fullscreenenter"",""5"",""19159""
","""event"",""trial"",""time""
""blur"",""3"",""10987""
","""event"",""trial"",""time""
""focus"",""3"",""10988""
","""event"",""trial"",""time""
""fullscreenenter"",""5"",""19159""
","
",360.0000000001164,NA,48,NA,NA,3000,1,NA,NA,images/earth.jpg,images/rocket2,images/rocket1,null,images/rocket2,NA,1,real,null,2,NA,NA,NA,sub67
d3-animate-choice,178,780794,0.0-76.0-1.14,TRUE,FALSE,TRUE,TRUE,"""event"",""trial"",""time""
""blur"",""3"",""10987""
""focus"",""3"",""10988""
""fullscreenenter"",""5"",""19159""
","""event"",""trial"",""time""
""blur"",""3"",""10987""
","""event"",""trial"",""time""
""focus"",""3"",""10988""
","""event"",""trial"",""time""
""fullscreenenter"",""5"",""19159""
","
",764,NA,48,NA,NA,3000,1,NA,NA,images/redplanet1.jpg,images/alien2,images/alien1,images/rocket2,images/alien2,images/t.png,2,real,true,2,common,1,2020-06-18T22:39:33Z,sub67
two-step-fixation,179,781796,0.0-76.0-2.14,TRUE,FALSE,TRUE,TRUE,"""event"",""trial"",""time""
""blur"",""3"",""10987""
""focus"",""3"",""10988""
""fullscreenenter"",""5"",""19159""
","""event"",""trial"",""time""
""blur"",""3"",""10987""
","""event"",""trial"",""time""
""focus"",""3"",""10988""
","""event"",""trial"",""time""
""fullscreenenter"",""5"",""19159""
","
",NA,images/earth.jpg,NA,NA,NA,NA,NA,NA,NA,NA,NA,NA,NA,NA,NA,fixation,NA,NA,NA,NA,NA,NA,sub67
d3-animate-choice,180,784131,0.0-76.0-0.15,TRUE,FALSE,TRUE,TRUE,"""event"",""trial"",""time""
""blur"",""3"",""10987""
""focus"",""3"",""10988""
""fullscreenenter"",""5"",""19159""
","""event"",""trial"",""time""
""blur"",""3"",""10987""
","""event"",""trial"",""time""
""focus"",""3"",""10988""
","""event"",""trial"",""time""
""fullscreenenter"",""5"",""19159""
","
",332.9999999998836,NA,48,NA,NA,3000,1,NA,NA,images/earth.jpg,images/rocket2,images/rocket1,null,images/rocket2,NA,1,real,null,2,NA,NA,NA,sub67
d3-animate-choice,181,786627,0.0-76.0-1.15,TRUE,FALSE,TRUE,TRUE,"""event"",""trial"",""time""
""blur"",""3"",""10987""
""focus"",""3"",""10988""
""fullscreenenter"",""5"",""19159""
","""event"",""trial"",""time""
""blur"",""3"",""10987""
","""event"",""trial"",""time""
""focus"",""3"",""10988""
","""event"",""trial"",""time""
""fullscreenenter"",""5"",""19159""
","
",494,NA,48,NA,NA,3000,1,NA,NA,images/redplanet1.jpg,images/alien2,images/alien1,images/rocket2,images/alien2,images/t.png,2,real,true,2,common,1,2020-06-18T22:39:39Z,sub67
two-step-fixation,182,787629,0.0-76.0-2.15,TRUE,FALSE,TRUE,TRUE,"""event"",""trial"",""time""
""blur"",""3"",""10987""
""focus"",""3"",""10988""
""fullscreenenter"",""5"",""19159""
","""event"",""trial"",""time""
""blur"",""3"",""10987""
","""event"",""trial"",""time""
""focus"",""3"",""10988""
","""event"",""trial"",""time""
""fullscreenenter"",""5"",""19159""
","
",NA,images/earth.jpg,NA,NA,NA,NA,NA,NA,NA,NA,NA,NA,NA,NA,NA,fixation,NA,NA,NA,NA,NA,NA,sub67
d3-animate-choice,183,789989,0.0-76.0-0.16,TRUE,FALSE,TRUE,TRUE,"""event"",""trial"",""time""
""blur"",""3"",""10987""
""focus"",""3"",""10988""
""fullscreenenter"",""5"",""19159""
","""event"",""trial"",""time""
""blur"",""3"",""10987""
","""event"",""trial"",""time""
""focus"",""3"",""10988""
","""event"",""trial"",""time""
""fullscreenenter"",""5"",""19159""
","
",359,NA,48,NA,NA,3000,1,NA,NA,images/earth.jpg,images/rocket2,images/rocket1,null,images/rocket2,NA,1,real,null,2,NA,NA,NA,sub67
d3-animate-choice,184,792511,0.0-76.0-1.16,TRUE,FALSE,TRUE,TRUE,"""event"",""trial"",""time""
""blur"",""3"",""10987""
""focus"",""3"",""10988""
""fullscreenenter"",""5"",""19159""
","""event"",""trial"",""time""
""blur"",""3"",""10987""
","""event"",""trial"",""time""
""focus"",""3"",""10988""
","""event"",""trial"",""time""
""fullscreenenter"",""5"",""19159""
","
",519,NA,48,NA,NA,3000,1,NA,NA,images/redplanet1.jpg,images/alien2,images/alien1,images/rocket2,images/alien2,images/t.png,2,real,true,2,common,1,2020-06-18T22:39:45Z,sub67
two-step-fixation,185,793514,0.0-76.0-2.16,TRUE,FALSE,TRUE,TRUE,"""event"",""trial"",""time""
""blur"",""3"",""10987""
""focus"",""3"",""10988""
""fullscreenenter"",""5"",""19159""
","""event"",""trial"",""time""
""blur"",""3"",""10987""
","""event"",""trial"",""time""
""focus"",""3"",""10988""
","""event"",""trial"",""time""
""fullscreenenter"",""5"",""19159""
","
",NA,images/earth.jpg,NA,NA,NA,NA,NA,NA,NA,NA,NA,NA,NA,NA,NA,fixation,NA,NA,NA,NA,NA,NA,sub67
d3-animate-choice,186,795810,0.0-76.0-0.17,TRUE,FALSE,TRUE,TRUE,"""event"",""trial"",""time""
""blur"",""3"",""10987""
""focus"",""3"",""10988""
""fullscreenenter"",""5"",""19159""
","""event"",""trial"",""time""
""blur"",""3"",""10987""
","""event"",""trial"",""time""
""focus"",""3"",""10988""
","""event"",""trial"",""time""
""fullscreenenter"",""5"",""19159""
","
",294,NA,48,NA,NA,3000,1,NA,NA,images/earth.jpg,images/rocket2,images/rocket1,null,images/rocket2,NA,1,real,null,2,NA,NA,NA,sub67
d3-animate-choice,187,798336,0.0-76.0-1.17,TRUE,FALSE,TRUE,TRUE,"""event"",""trial"",""time""
""blur"",""3"",""10987""
""focus"",""3"",""10988""
""fullscreenenter"",""5"",""19159""
","""event"",""trial"",""time""
""blur"",""3"",""10987""
","""event"",""trial"",""time""
""focus"",""3"",""10988""
","""event"",""trial"",""time""
""fullscreenenter"",""5"",""19159""
","
",525,NA,48,NA,NA,3000,1,NA,NA,images/redplanet1.jpg,images/alien2,images/alien1,images/rocket2,images/alien2,images/t.png,2,real,true,2,common,1,2020-06-18T22:39:51Z,sub67
two-step-fixation,188,799337,0.0-76.0-2.17,TRUE,FALSE,TRUE,TRUE,"""event"",""trial"",""time""
""blur"",""3"",""10987""
""focus"",""3"",""10988""
""fullscreenenter"",""5"",""19159""
","""event"",""trial"",""time""
""blur"",""3"",""10987""
","""event"",""trial"",""time""
""focus"",""3"",""10988""
","""event"",""trial"",""time""
""fullscreenenter"",""5"",""19159""
","
",NA,images/earth.jpg,NA,NA,NA,NA,NA,NA,NA,NA,NA,NA,NA,NA,NA,fixation,NA,NA,NA,NA,NA,NA,sub67
d3-animate-choice,189,801635,0.0-76.0-0.18,TRUE,FALSE,TRUE,TRUE,"""event"",""trial"",""time""
""blur"",""3"",""10987""
""focus"",""3"",""10988""
""fullscreenenter"",""5"",""19159""
","""event"",""trial"",""time""
""blur"",""3"",""10987""
","""event"",""trial"",""time""
""focus"",""3"",""10988""
","""event"",""trial"",""time""
""fullscreenenter"",""5"",""19159""
","
",295,NA,48,NA,NA,3000,1,NA,NA,images/earth.jpg,images/rocket2,images/rocket1,null,images/rocket2,NA,1,real,null,2,NA,NA,NA,sub67
d3-animate-choice,190,804129,0.0-76.0-1.18,TRUE,FALSE,TRUE,TRUE,"""event"",""trial"",""time""
""blur"",""3"",""10987""
""focus"",""3"",""10988""
""fullscreenenter"",""5"",""19159""
","""event"",""trial"",""time""
""blur"",""3"",""10987""
","""event"",""trial"",""time""
""focus"",""3"",""10988""
","""event"",""trial"",""time""
""fullscreenenter"",""5"",""19159""
","
",492,NA,48,NA,NA,3000,1,NA,NA,images/redplanet1.jpg,images/alien2,images/alien1,images/rocket2,images/alien2,images/nothing.png,2,real,true,2,common,0,2020-06-18T22:39:56Z,sub67
two-step-fixation,191,805131,0.0-76.0-2.18,TRUE,FALSE,TRUE,TRUE,"""event"",""trial"",""time""
""blur"",""3"",""10987""
""focus"",""3"",""10988""
""fullscreenenter"",""5"",""19159""
","""event"",""trial"",""time""
""blur"",""3"",""10987""
","""event"",""trial"",""time""
""focus"",""3"",""10988""
","""event"",""trial"",""time""
""fullscreenenter"",""5"",""19159""
","
",NA,images/earth.jpg,NA,NA,NA,NA,NA,NA,NA,NA,NA,NA,NA,NA,NA,fixation,NA,NA,NA,NA,NA,NA,sub67
d3-animate-choice,192,807433,0.0-76.0-0.19,TRUE,FALSE,TRUE,TRUE,"""event"",""trial"",""time""
""blur"",""3"",""10987""
""focus"",""3"",""10988""
""fullscreenenter"",""5"",""19159""
","""event"",""trial"",""time""
""blur"",""3"",""10987""
","""event"",""trial"",""time""
""focus"",""3"",""10988""
","""event"",""trial"",""time""
""fullscreenenter"",""5"",""19159""
","
",300,NA,48,NA,NA,3000,1,NA,NA,images/earth.jpg,images/rocket2,images/rocket1,null,images/rocket2,NA,1,real,null,2,NA,NA,NA,sub67
d3-animate-choice,193,809875,0.0-76.0-1.19,TRUE,FALSE,TRUE,TRUE,"""event"",""trial"",""time""
""blur"",""3"",""10987""
""focus"",""3"",""10988""
""fullscreenenter"",""5"",""19159""
","""event"",""trial"",""time""
""blur"",""3"",""10987""
","""event"",""trial"",""time""
""focus"",""3"",""10988""
","""event"",""trial"",""time""
""fullscreenenter"",""5"",""19159""
","
",441.0000000001164,NA,48,NA,NA,3000,1,NA,NA,images/purpleplanet.jpg,images/alien4,images/alien3,images/rocket2,images/alien4,images/t.png,2,real,false,2,rare,1,2020-06-18T22:40:02Z,sub67
two-step-fixation,194,810877,0.0-76.0-2.19,TRUE,FALSE,TRUE,TRUE,"""event"",""trial"",""time""
""blur"",""3"",""10987""
""focus"",""3"",""10988""
""fullscreenenter"",""5"",""19159""
","""event"",""trial"",""time""
""blur"",""3"",""10987""
","""event"",""trial"",""time""
""focus"",""3"",""10988""
","""event"",""trial"",""time""
""fullscreenenter"",""5"",""19159""
","
",NA,images/earth.jpg,NA,NA,NA,NA,NA,NA,NA,NA,NA,NA,NA,NA,NA,fixation,NA,NA,NA,NA,NA,NA,sub67
d3-animate-choice,195,813326,0.0-76.0-0.20,TRUE,FALSE,TRUE,TRUE,"""event"",""trial"",""time""
""blur"",""3"",""10987""
""focus"",""3"",""10988""
""fullscreenenter"",""5"",""19159""
","""event"",""trial"",""time""
""blur"",""3"",""10987""
","""event"",""trial"",""time""
""focus"",""3"",""10988""
","""event"",""trial"",""time""
""fullscreenenter"",""5"",""19159""
","
",446,NA,48,NA,NA,3000,1,NA,NA,images/earth.jpg,images/rocket2,images/rocket1,null,images/rocket2,NA,1,real,null,2,NA,NA,NA,sub67
d3-animate-choice,196,815951,0.0-76.0-1.20,TRUE,FALSE,TRUE,TRUE,"""event"",""trial"",""time""
""blur"",""3"",""10987""
""focus"",""3"",""10988""
""fullscreenenter"",""5"",""19159""
","""event"",""trial"",""time""
""blur"",""3"",""10987""
","""event"",""trial"",""time""
""focus"",""3"",""10988""
","""event"",""trial"",""time""
""fullscreenenter"",""5"",""19159""
","
",623,NA,48,NA,NA,3000,1,NA,NA,images/redplanet1.jpg,images/alien2,images/alien1,images/rocket2,images/alien2,images/t.png,2,real,true,2,common,1,2020-06-18T22:40:08Z,sub67
two-step-fixation,197,816952,0.0-76.0-2.20,TRUE,FALSE,TRUE,TRUE,"""event"",""trial"",""time""
""blur"",""3"",""10987""
""focus"",""3"",""10988""
""fullscreenenter"",""5"",""19159""
","""event"",""trial"",""time""
""blur"",""3"",""10987""
","""event"",""trial"",""time""
""focus"",""3"",""10988""
","""event"",""trial"",""time""
""fullscreenenter"",""5"",""19159""
","
",NA,images/earth.jpg,NA,NA,NA,NA,NA,NA,NA,NA,NA,NA,NA,NA,NA,fixation,NA,NA,NA,NA,NA,NA,sub67
d3-animate-choice,198,819339,0.0-76.0-0.21,TRUE,FALSE,TRUE,TRUE,"""event"",""trial"",""time""
""blur"",""3"",""10987""
""focus"",""3"",""10988""
""fullscreenenter"",""5"",""19159""
","""event"",""trial"",""time""
""blur"",""3"",""10987""
","""event"",""trial"",""time""
""focus"",""3"",""10988""
","""event"",""trial"",""time""
""fullscreenenter"",""5"",""19159""
","
",385,NA,48,NA,NA,3000,1,NA,NA,images/earth.jpg,images/rocket2,images/rocket1,null,images/rocket2,NA,1,real,null,2,NA,NA,NA,sub67
d3-animate-choice,199,821865,0.0-76.0-1.21,TRUE,FALSE,TRUE,TRUE,"""event"",""trial"",""time""
""blur"",""3"",""10987""
""focus"",""3"",""10988""
""fullscreenenter"",""5"",""19159""
","""event"",""trial"",""time""
