trial_type,trial_index,time_elapsed,internal_node_id,rocket_sides,red_planet_first_rocket,red_display_order,purple_display_order,interactions,blur_events,focus_events,fullscreenenter_events,fullscreenexit_events,rt,stimulus,key_press,button_pressed,success,duration,valid_pressed,rts,keys,planet_text,right_text,left_text,center_text,chosen_text,reward_text,trial_stage,practice_trial,transition_type,choice,transition,reward,timestamp,subject_id
pavlovia,0,4,0.0-0.0,FALSE,FALSE,FALSE,FALSE,"
","
","
","
","
",NA,NA,NA,NA,NA,NA,NA,NA,NA,NA,NA,NA,NA,NA,NA,NA,NA,NA,NA,NA,NA,NA,sub109
html-keyboard-response,1,1752,0.0-1.0,FALSE,FALSE,FALSE,FALSE,"
","
","
","
","
",1745.3349999850616,Welcome! Press the space bar to begin.,32,NA,NA,NA,NA,NA,NA,NA,NA,NA,NA,NA,NA,NA,NA,NA,NA,NA,NA,NA,sub109
audio-keyboard-response,2,3638,0.0-2.0,FALSE,FALSE,FALSE,FALSE,"
","
","
","
","
",1880,audio/beep_loop.wav,32,NA,NA,NA,NA,NA,NA,NA,NA,NA,NA,NA,NA,NA,NA,NA,NA,NA,NA,NA,sub109
audio-button-response,3,5411,0.0-3.0,FALSE,FALSE,FALSE,FALSE,"
","
","
","
","
",NaN,audio/fish.mp3,NA,1,NA,NA,NA,NA,NA,NA,NA,NA,NA,NA,NA,NA,NA,NA,NA,NA,NA,NA,sub109
audio-button-response,4,8010,0.0-4.0,FALSE,FALSE,FALSE,FALSE,"""event"",""trial"",""time""
""fullscreenenter"",""5"",""17704""
","
","
","""event"",""trial"",""time""
""fullscreenenter"",""5"",""17704""
","
",NaN,audio/tiger.mp3,NA,4,NA,NA,NA,NA,NA,NA,NA,NA,NA,NA,NA,NA,NA,NA,NA,NA,NA,NA,sub109
fullscreen,5,18674,0.0-5.0,FALSE,FALSE,FALSE,FALSE,"""event"",""trial"",""time""
""fullscreenenter"",""5"",""17704""
","
","
","""event"",""trial"",""time""
""fullscreenenter"",""5"",""17704""
","
",NA,NA,NA,NA,TRUE,NA,NA,NA,NA,NA,NA,NA,NA,NA,NA,NA,NA,NA,NA,NA,NA,NA,sub109
d3-instructions,6,32373,0.0-6.0,FALSE,FALSE,FALSE,FALSE,"""event"",""trial"",""time""
""fullscreenenter"",""5"",""17704""
","
","
","""event"",""trial"",""time""
""fullscreenenter"",""5"",""17704""
","
",NA,NA,NA,NA,NA,NA,NA,NA,NA,NA,NA,NA,NA,NA,NA,NA,NA,NA,NA,NA,NA,NA,sub109
d3-instructions,7,44102,0.0-7.0,FALSE,FALSE,FALSE,FALSE,"""event"",""trial"",""time""
""fullscreenenter"",""5"",""17704""
","
","
","""event"",""trial"",""time""
""fullscreenenter"",""5"",""17704""
","
",NA,NA,NA,NA,NA,NA,NA,NA,NA,NA,NA,NA,NA,NA,NA,NA,NA,NA,NA,NA,NA,NA,sub109
d3-instructions,8,51934,0.0-8.0,FALSE,FALSE,FALSE,FALSE,"""event"",""trial"",""time""
""fullscreenenter"",""5"",""17704""
","
","
","""event"",""trial"",""time""
""fullscreenenter"",""5"",""17704""
","
",NA,NA,NA,NA,NA,NA,NA,NA,NA,NA,NA,NA,NA,NA,NA,NA,NA,NA,NA,NA,NA,NA,sub109
d3-instructions,9,64449,0.0-9.0,FALSE,FALSE,FALSE,FALSE,"""event"",""trial"",""time""
""fullscreenenter"",""5"",""17704""
","
","
","""event"",""trial"",""time""
""fullscreenenter"",""5"",""17704""
","
",NA,NA,NA,NA,NA,NA,NA,NA,NA,NA,NA,NA,NA,NA,NA,NA,NA,NA,NA,NA,NA,NA,sub109
d3-instructions,10,91979,0.0-10.0,FALSE,FALSE,FALSE,FALSE,"""event"",""trial"",""time""
""fullscreenenter"",""5"",""17704""
","
","
","""event"",""trial"",""time""
""fullscreenenter"",""5"",""17704""
","
",NA,NA,NA,NA,NA,NA,NA,NA,NA,NA,NA,NA,NA,NA,NA,NA,NA,NA,NA,NA,NA,NA,sub109
d3-animate-choice,11,95010,0.0-11.0,FALSE,FALSE,FALSE,FALSE,"""event"",""trial"",""time""
""fullscreenenter"",""5"",""17704""
","
","
","""event"",""trial"",""time""
""fullscreenenter"",""5"",""17704""
","
",1002.3199999704957,NA,48,NA,NA,3000,1,"1728.125000023283,2284.7149999579415",4948,images/tutgreenplanet.jpg,images/tutalien1,images/tutalien2,null,images/tutalien1,NA,NA,practice,null,NA,NA,NA,NA,sub109
d3-animate-choice,12,97718,0.0-12.0,FALSE,FALSE,FALSE,FALSE,"""event"",""trial"",""time""
""fullscreenenter"",""5"",""17704""
","
","
","""event"",""trial"",""time""
""fullscreenenter"",""5"",""17704""
","
",702.3449999978766,NA,49,NA,NA,3000,1,NA,NA,images/tutgreenplanet.jpg,images/tutalien1,images/tutalien2,null,images/tutalien2,NA,NA,practice,null,NA,NA,NA,NA,sub109
d3-animate-choice,13,100723,0.0-13.0,FALSE,FALSE,FALSE,FALSE,"""event"",""trial"",""time""
""fullscreenenter"",""5"",""17704""
","
","
","""event"",""trial"",""time""
""fullscreenenter"",""5"",""17704""
","
",1000.1750000519678,NA,48,NA,NA,3000,1,NA,NA,images/tutgreenplanet.jpg,images/tutalien1,images/tutalien2,null,images/tutalien1,NA,NA,practice,null,NA,NA,NA,NA,sub109
d3-animate-choice,14,103121,0.0-14.0,FALSE,FALSE,FALSE,FALSE,"""event"",""trial"",""time""
""fullscreenenter"",""5"",""17704""
","
","
","""event"",""trial"",""time""
""fullscreenenter"",""5"",""17704""
","
",382.1900000330061,NA,49,NA,NA,3000,1,NA,NA,images/tutgreenplanet.jpg,images/tutalien1,images/tutalien2,null,images/tutalien2,NA,NA,practice,null,NA,NA,NA,NA,sub109
d3-instructions,15,112325,0.0-15.0,FALSE,FALSE,FALSE,FALSE,"""event"",""trial"",""time""
""fullscreenenter"",""5"",""17704""
","
","
","""event"",""trial"",""time""
""fullscreenenter"",""5"",""17704""
","
",NA,NA,NA,NA,NA,NA,NA,NA,NA,NA,NA,NA,NA,NA,NA,NA,NA,NA,NA,NA,NA,NA,sub109
d3-instructions,16,121999,0.0-16.0,FALSE,FALSE,FALSE,FALSE,"""event"",""trial"",""time""
""fullscreenenter"",""5"",""17704""
","
","
","""event"",""trial"",""time""
""fullscreenenter"",""5"",""17704""
","
",NA,NA,NA,NA,NA,NA,NA,NA,NA,NA,NA,NA,NA,NA,NA,NA,NA,NA,NA,NA,NA,NA,sub109
d3-instructions,17,131921,0.0-17.0,FALSE,FALSE,FALSE,FALSE,"""event"",""trial"",""time""
""fullscreenenter"",""5"",""17704""
","
","
","""event"",""trial"",""time""
""fullscreenenter"",""5"",""17704""
","
",NA,NA,NA,NA,NA,NA,NA,NA,NA,NA,NA,NA,NA,NA,NA,NA,NA,NA,NA,NA,NA,NA,sub109
d3-instructions,18,145005,0.0-18.0,FALSE,FALSE,FALSE,FALSE,"""event"",""trial"",""time""
""fullscreenenter"",""5"",""17704""
","
","
","""event"",""trial"",""time""
""fullscreenenter"",""5"",""17704""
","
",NA,NA,NA,NA,NA,NA,NA,NA,NA,NA,NA,NA,NA,NA,NA,NA,NA,NA,NA,NA,NA,NA,sub109
d3-instructions,19,159170,0.0-19.0,FALSE,FALSE,FALSE,FALSE,"""event"",""trial"",""time""
""fullscreenenter"",""5"",""17704""
","
","
","""event"",""trial"",""time""
""fullscreenenter"",""5"",""17704""
","
",NA,NA,NA,NA,NA,NA,NA,NA,NA,NA,NA,NA,NA,NA,NA,NA,NA,NA,NA,NA,NA,NA,sub109
d3-animate-choice,20,161748,0.0-20.0,FALSE,FALSE,FALSE,FALSE,"""event"",""trial"",""time""
""fullscreenenter"",""5"",""17704""
","
","
","""event"",""trial"",""time""
""fullscreenenter"",""5"",""17704""
","
",555.7850000914186,NA,49,NA,NA,3000,1,NA,NA,images/tutyellowplanet.jpg,null,images/tutalien3,null,images/tutalien3,images/nothing.png,NA,practice,null,NA,NA,NA,NA,sub109
d3-animate-choice,21,164158,0.0-21.0,FALSE,FALSE,FALSE,FALSE,"""event"",""trial"",""time""
""fullscreenenter"",""5"",""17704""
","
","
","""event"",""trial"",""time""
""fullscreenenter"",""5"",""17704""
","
",389.4700000528246,NA,49,NA,NA,3000,1,NA,NA,images/tutyellowplanet.jpg,null,images/tutalien3,null,images/tutalien3,images/t.png,NA,practice,null,NA,NA,NA,NA,sub109
d3-animate-choice,22,166519,0.0-22.0,FALSE,FALSE,FALSE,FALSE,"""event"",""trial"",""time""
""fullscreenenter"",""5"",""17704""
","
","
","""event"",""trial"",""time""
""fullscreenenter"",""5"",""17704""
","
",349.79000000748783,NA,49,NA,NA,3000,1,NA,NA,images/tutyellowplanet.jpg,null,images/tutalien3,null,images/tutalien3,images/t.png,NA,practice,null,NA,NA,NA,NA,sub109
d3-animate-choice,23,168837,0.0-23.0,FALSE,FALSE,FALSE,FALSE,"""event"",""trial"",""time""
""fullscreenenter"",""5"",""17704""
","
","
","""event"",""trial"",""time""
""fullscreenenter"",""5"",""17704""
","
",296.05000000447035,NA,49,NA,NA,3000,1,NA,NA,images/tutyellowplanet.jpg,null,images/tutalien3,null,images/tutalien3,images/t.png,NA,practice,null,NA,NA,NA,NA,sub109
d3-animate-choice,24,171117,0.0-24.0,FALSE,FALSE,FALSE,FALSE,"""event"",""trial"",""time""
""fullscreenenter"",""5"",""17704""
","
","
","""event"",""trial"",""time""
""fullscreenenter"",""5"",""17704""
","
",258.5249999538064,NA,49,NA,NA,3000,1,NA,NA,images/tutyellowplanet.jpg,null,images/tutalien3,null,images/tutalien3,images/nothing.png,NA,practice,null,NA,NA,NA,NA,sub109
d3-animate-choice,25,173427,0.0-25.0,FALSE,FALSE,FALSE,FALSE,"""event"",""trial"",""time""
""fullscreenenter"",""5"",""17704""
","
","
","""event"",""trial"",""time""
""fullscreenenter"",""5"",""17704""
","
",288.64000004250556,NA,49,NA,NA,3000,1,NA,NA,images/tutyellowplanet.jpg,null,images/tutalien3,null,images/tutalien3,images/t.png,NA,practice,null,NA,NA,NA,NA,sub109
d3-animate-choice,26,175688,0.0-26.0,FALSE,FALSE,FALSE,FALSE,"""event"",""trial"",""time""
""fullscreenenter"",""5"",""17704""
","
","
","""event"",""trial"",""time""
""fullscreenenter"",""5"",""17704""
","
",257.33000005129725,NA,49,NA,NA,3000,1,NA,NA,images/tutyellowplanet.jpg,null,images/tutalien3,null,images/tutalien3,images/t.png,NA,practice,null,NA,NA,NA,NA,sub109
d3-animate-choice,27,177948,0.0-27.0,FALSE,FALSE,FALSE,FALSE,"""event"",""trial"",""time""
""fullscreenenter"",""5"",""17704""
","
","
","""event"",""trial"",""time""
""fullscreenenter"",""5"",""17704""
","
",247.00999993365258,NA,49,NA,NA,3000,1,NA,NA,images/tutyellowplanet.jpg,null,images/tutalien3,null,images/tutalien3,images/nothing.png,NA,practice,null,NA,NA,NA,NA,sub109
d3-animate-choice,28,180397,0.0-28.0,FALSE,FALSE,FALSE,FALSE,"""event"",""trial"",""time""
""fullscreenenter"",""5"",""17704""
","
","
","""event"",""trial"",""time""
""fullscreenenter"",""5"",""17704""
","
",435.43499999213964,NA,49,NA,NA,3000,1,NA,NA,images/tutyellowplanet.jpg,null,images/tutalien3,null,images/tutalien3,images/t.png,NA,practice,null,NA,NA,NA,NA,sub109
d3-animate-choice,29,182717,0.0-29.0,FALSE,FALSE,FALSE,FALSE,"""event"",""trial"",""time""
""fullscreenenter"",""5"",""17704""
","
","
","""event"",""trial"",""time""
""fullscreenenter"",""5"",""17704""
","
",296.8500000424683,NA,49,NA,NA,3000,1,NA,NA,images/tutyellowplanet.jpg,null,images/tutalien3,null,images/tutalien3,images/t.png,NA,practice,null,NA,NA,NA,NA,sub109
d3-instructions,30,190833,0.0-30.0,FALSE,FALSE,FALSE,FALSE,"""event"",""trial"",""time""
""fullscreenenter"",""5"",""17704""
","
","
","""event"",""trial"",""time""
""fullscreenenter"",""5"",""17704""
","
",NA,NA,NA,NA,NA,NA,NA,NA,NA,NA,NA,NA,NA,NA,NA,NA,NA,NA,NA,NA,NA,NA,sub109
d3-instructions,31,201842,0.0-31.0,FALSE,FALSE,FALSE,FALSE,"""event"",""trial"",""time""
""fullscreenenter"",""5"",""17704""
","
","
","""event"",""trial"",""time""
""fullscreenenter"",""5"",""17704""
","
",NA,NA,NA,NA,NA,NA,NA,NA,NA,NA,NA,NA,NA,NA,NA,NA,NA,NA,NA,NA,NA,NA,sub109
d3-instructions,32,210784,0.0-32.0,FALSE,FALSE,FALSE,FALSE,"""event"",""trial"",""time""
""fullscreenenter"",""5"",""17704""
","
","
","""event"",""trial"",""time""
""fullscreenenter"",""5"",""17704""
","
",NA,NA,NA,NA,NA,NA,NA,NA,NA,NA,NA,NA,NA,NA,NA,NA,NA,NA,NA,NA,NA,NA,sub109
d3-instructions,33,220867,0.0-33.0,FALSE,FALSE,FALSE,FALSE,"""event"",""trial"",""time""
""fullscreenenter"",""5"",""17704""
","
","
","""event"",""trial"",""time""
""fullscreenenter"",""5"",""17704""
","
",NA,NA,NA,NA,NA,NA,NA,NA,NA,NA,NA,NA,NA,NA,NA,NA,NA,NA,NA,NA,NA,NA,sub109
d3-animate-choice,34,225277,0.0-34.0,FALSE,FALSE,FALSE,FALSE,"""event"",""trial"",""time""
""fullscreenenter"",""5"",""17704""
","
","
","""event"",""trial"",""time""
""fullscreenenter"",""5"",""17704""
","
",2389.5250000059605,NA,48,NA,NA,3000,1,NA,NA,images/tutgreenplanet.jpg,images/tutalien1,images/tutalien2,null,images/tutalien1,images/nothing.png,NA,practice,null,NA,NA,NA,NA,sub109
d3-animate-choice,35,228157,0.0-35.0,FALSE,FALSE,FALSE,FALSE,"""event"",""trial"",""time""
""fullscreenenter"",""5"",""17704""
","
","
","""event"",""trial"",""time""
""fullscreenenter"",""5"",""17704""
","
",870.5399999162182,NA,48,NA,NA,3000,1,NA,NA,images/tutgreenplanet.jpg,images/tutalien1,images/tutalien2,null,images/tutalien1,images/nothing.png,NA,practice,null,NA,NA,NA,NA,sub109
d3-animate-choice,36,230475,0.0-36.0,FALSE,FALSE,FALSE,FALSE,"""event"",""trial"",""time""
""fullscreenenter"",""5"",""17704""
","
","
","""event"",""trial"",""time""
""fullscreenenter"",""5"",""17704""
","
",299.9149999814108,NA,49,NA,NA,3000,1,NA,NA,images/tutgreenplanet.jpg,images/tutalien1,images/tutalien2,null,images/tutalien2,images/t.png,NA,practice,null,NA,NA,NA,NA,sub109
d3-animate-choice,37,232785,0.0-37.0,FALSE,FALSE,FALSE,FALSE,"""event"",""trial"",""time""
""fullscreenenter"",""5"",""17704""
","
","
","""event"",""trial"",""time""
""fullscreenenter"",""5"",""17704""
","
",295.86499999277294,NA,49,NA,NA,3000,1,NA,NA,images/tutgreenplanet.jpg,images/tutalien1,images/tutalien2,null,images/tutalien2,images/t.png,NA,practice,null,NA,NA,NA,NA,sub109
d3-animate-choice,38,235075,0.0-38.0,FALSE,FALSE,FALSE,FALSE,"""event"",""trial"",""time""
""fullscreenenter"",""5"",""17704""
","
","
","""event"",""trial"",""time""
""fullscreenenter"",""5"",""17704""
","
",281.70499997213483,NA,49,NA,NA,3000,1,NA,NA,images/tutgreenplanet.jpg,images/tutalien1,images/tutalien2,null,images/tutalien2,images/t.png,NA,practice,null,NA,NA,NA,NA,sub109
d3-animate-choice,39,237345,0.0-39.0,FALSE,FALSE,FALSE,FALSE,"""event"",""trial"",""time""
""fullscreenenter"",""5"",""17704""
","
","
","""event"",""trial"",""time""
""fullscreenenter"",""5"",""17704""
","
",256.46000006236136,NA,49,NA,NA,3000,1,NA,NA,images/tutgreenplanet.jpg,images/tutalien1,images/tutalien2,null,images/tutalien2,images/nothing.png,NA,practice,null,NA,NA,NA,NA,sub109
d3-animate-choice,40,239615,0.0-40.0,FALSE,FALSE,FALSE,FALSE,"""event"",""trial"",""time""
""fullscreenenter"",""5"",""17704""
","
","
","""event"",""trial"",""time""
""fullscreenenter"",""5"",""17704""
","
",265.6600000336766,NA,49,NA,NA,3000,1,NA,NA,images/tutgreenplanet.jpg,images/tutalien1,images/tutalien2,null,images/tutalien2,images/t.png,NA,practice,null,NA,NA,NA,NA,sub109
d3-animate-choice,41,241868,0.0-41.0,FALSE,FALSE,FALSE,FALSE,"""event"",""trial"",""time""
""fullscreenenter"",""5"",""17704""
","
","
","""event"",""trial"",""time""
""fullscreenenter"",""5"",""17704""
","
",248.64000000525266,NA,49,NA,NA,3000,1,NA,NA,images/tutgreenplanet.jpg,images/tutalien1,images/tutalien2,null,images/tutalien2,images/t.png,NA,practice,null,NA,NA,NA,NA,sub109
d3-animate-choice,42,244135,0.0-42.0,FALSE,FALSE,FALSE,FALSE,"""event"",""trial"",""time""
""fullscreenenter"",""5"",""17704""
","
","
","""event"",""trial"",""time""
""fullscreenenter"",""5"",""17704""
","
",254.05500002671033,NA,49,NA,NA,3000,1,NA,NA,images/tutgreenplanet.jpg,images/tutalien1,images/tutalien2,null,images/tutalien2,images/t.png,NA,practice,null,NA,NA,NA,NA,sub109
d3-animate-choice,43,246375,0.0-43.0,FALSE,FALSE,FALSE,FALSE,"""event"",""trial"",""time""
""fullscreenenter"",""5"",""17704""
","
","
","""event"",""trial"",""time""
""fullscreenenter"",""5"",""17704""
","
",227.4150000885129,NA,49,NA,NA,3000,1,NA,NA,images/tutgreenplanet.jpg,images/tutalien1,images/tutalien2,null,images/tutalien2,images/t.png,NA,practice,null,NA,NA,NA,NA,sub109
d3-instructions,44,261226,0.0-44.0,FALSE,FALSE,FALSE,FALSE,"""event"",""trial"",""time""
""fullscreenenter"",""5"",""17704""
","
","
","""event"",""trial"",""time""
""fullscreenenter"",""5"",""17704""
","
",NA,NA,NA,NA,NA,NA,NA,NA,NA,NA,NA,NA,NA,NA,NA,NA,NA,NA,NA,NA,NA,NA,sub109
d3-instructions,45,269551,0.0-45.0,FALSE,FALSE,FALSE,FALSE,"""event"",""trial"",""time""
""fullscreenenter"",""5"",""17704""
","
","
","""event"",""trial"",""time""
""fullscreenenter"",""5"",""17704""
","
",NA,NA,NA,NA,NA,NA,NA,NA,NA,NA,NA,NA,NA,NA,NA,NA,NA,NA,NA,NA,NA,NA,sub109
d3-instructions,46,275577,0.0-46.0,FALSE,FALSE,FALSE,FALSE,"""event"",""trial"",""time""
""fullscreenenter"",""5"",""17704""
","
","
","""event"",""trial"",""time""
""fullscreenenter"",""5"",""17704""
","
",NA,NA,NA,NA,NA,NA,NA,NA,NA,NA,NA,NA,NA,NA,NA,NA,NA,NA,NA,NA,NA,NA,sub109
d3-instructions,47,293330,0.0-47.0,FALSE,FALSE,FALSE,FALSE,"""event"",""trial"",""time""
""fullscreenenter"",""5"",""17704""
","
","
","""event"",""trial"",""time""
""fullscreenenter"",""5"",""17704""
","
",NA,NA,NA,NA,NA,NA,NA,NA,NA,NA,NA,NA,NA,NA,NA,NA,NA,NA,NA,NA,NA,NA,sub109
d3-instructions,48,301292,0.0-48.0,FALSE,FALSE,FALSE,FALSE,"""event"",""trial"",""time""
""fullscreenenter"",""5"",""17704""
","
","
","""event"",""trial"",""time""
""fullscreenenter"",""5"",""17704""
","
",NA,NA,NA,NA,NA,NA,NA,NA,NA,NA,NA,NA,NA,NA,NA,NA,NA,NA,NA,NA,NA,NA,sub109
d3-instructions,49,313317,0.0-49.0,FALSE,FALSE,FALSE,FALSE,"""event"",""trial"",""time""
""fullscreenenter"",""5"",""17704""
","
","
","""event"",""trial"",""time""
""fullscreenenter"",""5"",""17704""
","
",NA,NA,NA,NA,NA,NA,NA,NA,NA,NA,NA,NA,NA,NA,NA,NA,NA,NA,NA,NA,NA,NA,sub109
d3-instructions,50,323334,0.0-50.0,FALSE,FALSE,FALSE,FALSE,"""event"",""trial"",""time""
""fullscreenenter"",""5"",""17704""
","
","
","""event"",""trial"",""time""
""fullscreenenter"",""5"",""17704""
","
",NA,NA,NA,NA,NA,NA,NA,NA,NA,NA,NA,NA,NA,NA,NA,NA,NA,NA,NA,NA,NA,NA,sub109
d3-instructions,51,327238,0.0-51.0,FALSE,FALSE,FALSE,FALSE,"""event"",""trial"",""time""
""fullscreenenter"",""5"",""17704""
","
","
","""event"",""trial"",""time""
""fullscreenenter"",""5"",""17704""
","
",NA,NA,NA,NA,NA,NA,NA,NA,NA,NA,NA,NA,NA,NA,NA,NA,NA,NA,NA,NA,NA,NA,sub109
d3-instructions,52,331470,0.0-52.0,FALSE,FALSE,FALSE,FALSE,"""event"",""trial"",""time""
""fullscreenenter"",""5"",""17704""
","
","
","""event"",""trial"",""time""
""fullscreenenter"",""5"",""17704""
","
",NA,NA,NA,NA,NA,NA,NA,NA,NA,NA,NA,NA,NA,NA,NA,NA,NA,NA,NA,NA,NA,NA,sub109
d3-instructions,53,343995,0.0-53.0,FALSE,FALSE,FALSE,FALSE,"""event"",""trial"",""time""
""fullscreenenter"",""5"",""17704""
","
","
","""event"",""trial"",""time""
""fullscreenenter"",""5"",""17704""
","
",NA,NA,NA,NA,NA,NA,NA,NA,NA,NA,NA,NA,NA,NA,NA,NA,NA,NA,NA,NA,NA,NA,sub109
d3-instructions,54,359101,0.0-54.0,FALSE,FALSE,FALSE,FALSE,"""event"",""trial"",""time""
""fullscreenenter"",""5"",""17704""
","
","
","""event"",""trial"",""time""
""fullscreenenter"",""5"",""17704""
","
",NA,NA,NA,NA,NA,NA,NA,NA,NA,NA,NA,NA,NA,NA,NA,NA,NA,NA,NA,NA,NA,NA,sub109
d3-instructions,55,370177,0.0-55.0,FALSE,FALSE,FALSE,FALSE,"""event"",""trial"",""time""
""fullscreenenter"",""5"",""17704""
","
","
","""event"",""trial"",""time""
""fullscreenenter"",""5"",""17704""
","
",NA,NA,NA,NA,NA,NA,NA,NA,NA,NA,NA,NA,NA,NA,NA,NA,NA,NA,NA,NA,NA,NA,sub109
d3-instructions,56,379605,0.0-56.0,FALSE,FALSE,FALSE,FALSE,"""event"",""trial"",""time""
""fullscreenenter"",""5"",""17704""
","
","
","""event"",""trial"",""time""
""fullscreenenter"",""5"",""17704""
","
",NA,NA,NA,NA,NA,NA,NA,NA,NA,NA,NA,NA,NA,NA,NA,NA,NA,NA,NA,NA,NA,NA,sub109
d3-instructions,57,391296,0.0-57.0,FALSE,FALSE,FALSE,FALSE,"""event"",""trial"",""time""
""fullscreenenter"",""5"",""17704""
","
","
","""event"",""trial"",""time""
""fullscreenenter"",""5"",""17704""
","
",NA,NA,NA,NA,NA,NA,NA,NA,NA,NA,NA,NA,NA,NA,NA,NA,NA,NA,NA,NA,NA,NA,sub109
d3-instructions,58,403509,0.0-58.0,FALSE,FALSE,FALSE,FALSE,"""event"",""trial"",""time""
""fullscreenenter"",""5"",""17704""
","
","
","""event"",""trial"",""time""
""fullscreenenter"",""5"",""17704""
","
",NA,NA,NA,NA,NA,NA,NA,NA,NA,NA,NA,NA,NA,NA,NA,NA,NA,NA,NA,NA,NA,NA,sub109
d3-instructions,59,409034,0.0-59.0,FALSE,FALSE,FALSE,FALSE,"""event"",""trial"",""time""
""fullscreenenter"",""5"",""17704""
","
","
","""event"",""trial"",""time""
""fullscreenenter"",""5"",""17704""
","
",NA,NA,NA,NA,NA,NA,NA,NA,NA,NA,NA,NA,NA,NA,NA,NA,NA,NA,NA,NA,NA,NA,sub109
d3-instructions,60,416312,0.0-60.0,FALSE,FALSE,FALSE,FALSE,"""event"",""trial"",""time""
""fullscreenenter"",""5"",""17704""
","
","
","""event"",""trial"",""time""
""fullscreenenter"",""5"",""17704""
","
",NA,NA,NA,NA,NA,NA,NA,NA,NA,NA,NA,NA,NA,NA,NA,NA,NA,NA,NA,NA,NA,NA,sub109
d3-animate-choice,61,418962,0.0-61.0-0.0,FALSE,FALSE,FALSE,FALSE,"""event"",""trial"",""time""
""fullscreenenter"",""5"",""17704""
","
","
","""event"",""trial"",""time""
""fullscreenenter"",""5"",""17704""
","
",641.8850000482053,NA,48,NA,NA,3000,1,1668.485000031069,48,images/earth.jpg,images/tutrocket1,images/tutrocket2,null,images/tutrocket1,NA,1,practice,null,2,NA,NA,NA,sub109
d3-animate-choice,62,422181,0.0-61.0-1.0,FALSE,FALSE,FALSE,FALSE,"""event"",""trial"",""time""
""fullscreenenter"",""5"",""17704""
","
","
","""event"",""trial"",""time""
""fullscreenenter"",""5"",""17704""
","
",1189.0300000086427,NA,49,NA,NA,3000,1,NA,NA,images/tutyellowplanet.jpg,images/tutalien4,images/tutalien3,images/tutrocket1,images/tutalien3,images/t.png,2,practice,true,1,common,1,2020-06-29T02:35:47Z,sub109
two-step-fixation,63,423191,0.0-61.0-2.0,FALSE,FALSE,FALSE,FALSE,"""event"",""trial"",""time""
""fullscreenenter"",""5"",""17704""
","
","
","""event"",""trial"",""time""
""fullscreenenter"",""5"",""17704""
","
",NA,images/earth.jpg,NA,NA,NA,NA,NA,NA,NA,NA,NA,NA,NA,NA,NA,fixation,NA,NA,NA,NA,NA,NA,sub109
d3-animate-choice,64,425606,0.0-61.0-0.1,FALSE,FALSE,FALSE,FALSE,"""event"",""trial"",""time""
""fullscreenenter"",""5"",""17704""
","
","
","""event"",""trial"",""time""
""fullscreenenter"",""5"",""17704""
","
",410.4799999622628,NA,48,NA,NA,3000,1,859.4949999824166,49,images/earth.jpg,images/tutrocket1,images/tutrocket2,null,images/tutrocket1,NA,1,practice,null,2,NA,NA,NA,sub109
d3-animate-choice,65,428470,0.0-61.0-1.1,FALSE,FALSE,FALSE,FALSE,"""event"",""trial"",""time""
""fullscreenenter"",""5"",""17704""
","
","
","""event"",""trial"",""time""
""fullscreenenter"",""5"",""17704""
","
",849.0549999987707,NA,49,NA,NA,3000,1,NA,NA,images/tutyellowplanet.jpg,images/tutalien4,images/tutalien3,images/tutrocket1,images/tutalien3,images/t.png,2,practice,true,1,common,1,2020-06-29T02:35:53Z,sub109
two-step-fixation,66,429475,0.0-61.0-2.1,FALSE,FALSE,FALSE,FALSE,"""event"",""trial"",""time""
""fullscreenenter"",""5"",""17704""
","
","
","""event"",""trial"",""time""
""fullscreenenter"",""5"",""17704""
","
",NA,images/earth.jpg,NA,NA,NA,NA,NA,NA,NA,NA,NA,NA,NA,NA,NA,fixation,NA,NA,NA,NA,NA,NA,sub109
d3-animate-choice,67,431937,0.0-61.0-0.2,FALSE,FALSE,FALSE,FALSE,"""event"",""trial"",""time""
""fullscreenenter"",""5"",""17704""
","
","
","""event"",""trial"",""time""
""fullscreenenter"",""5"",""17704""
","
",456.7500000121072,NA,48,NA,NA,3000,1,NA,NA,images/earth.jpg,images/tutrocket1,images/tutrocket2,null,images/tutrocket1,NA,1,practice,null,2,NA,NA,NA,sub109
d3-animate-choice,68,434568,0.0-61.0-1.2,FALSE,FALSE,FALSE,FALSE,"""event"",""trial"",""time""
""fullscreenenter"",""5"",""17704""
","
","
","""event"",""trial"",""time""
""fullscreenenter"",""5"",""17704""
","
",626.4149999478832,NA,49,NA,NA,3000,1,NA,NA,images/tutyellowplanet.jpg,images/tutalien4,images/tutalien3,images/tutrocket1,images/tutalien3,images/nothing.png,2,practice,true,1,common,0,2020-06-29T02:35:59Z,sub109
two-step-fixation,69,435573,0.0-61.0-2.2,FALSE,FALSE,FALSE,FALSE,"""event"",""trial"",""time""
""fullscreenenter"",""5"",""17704""
","
","
","""event"",""trial"",""time""
""fullscreenenter"",""5"",""17704""
","
",NA,images/earth.jpg,NA,NA,NA,NA,NA,NA,NA,NA,NA,NA,NA,NA,NA,fixation,NA,NA,NA,NA,NA,NA,sub109
d3-animate-choice,70,438451,0.0-61.0-0.3,FALSE,FALSE,FALSE,FALSE,"""event"",""trial"",""time""
""fullscreenenter"",""5"",""17704""
","
","
","""event"",""trial"",""time""
""fullscreenenter"",""5"",""17704""
","
",853.4549999749288,NA,49,NA,NA,3000,1,NA,NA,images/earth.jpg,images/tutrocket1,images/tutrocket2,null,images/tutrocket2,NA,1,practice,null,1,NA,NA,NA,sub109
d3-animate-choice,71,441152,0.0-61.0-1.3,FALSE,FALSE,FALSE,FALSE,"""event"",""trial"",""time""
""fullscreenenter"",""5"",""17704""
","
","
","""event"",""trial"",""time""
""fullscreenenter"",""5"",""17704""
","
",690.3849999653175,NA,48,NA,NA,3000,1,NA,NA,images/tutyellowplanet.jpg,images/tutalien4,images/tutalien3,images/tutrocket2,images/tutalien4,images/t.png,2,practice,false,2,rare,1,2020-06-29T02:36:06Z,sub109
two-step-fixation,72,442170,0.0-61.0-2.3,FALSE,FALSE,FALSE,FALSE,"""event"",""trial"",""time""
""fullscreenenter"",""5"",""17704""
","
","
","""event"",""trial"",""time""
""fullscreenenter"",""5"",""17704""
","
",NA,images/earth.jpg,NA,NA,NA,NA,NA,NA,NA,NA,NA,NA,NA,NA,NA,fixation,NA,NA,NA,NA,NA,NA,sub109
d3-animate-choice,73,444994,0.0-61.0-0.4,FALSE,FALSE,FALSE,FALSE,"""event"",""trial"",""time""
""fullscreenenter"",""5"",""17704""
","
","
","""event"",""trial"",""time""
""fullscreenenter"",""5"",""17704""
","
",817.7849999628961,NA,49,NA,NA,3000,1,NA,NA,images/earth.jpg,images/tutrocket1,images/tutrocket2,null,images/tutrocket2,NA,1,practice,null,1,NA,NA,NA,sub109
d3-animate-choice,74,447562,0.0-61.0-1.4,FALSE,FALSE,FALSE,FALSE,"""event"",""trial"",""time""
""fullscreenenter"",""5"",""17704""
","
","
","""event"",""trial"",""time""
""fullscreenenter"",""5"",""17704""
","
",562.0499999495223,NA,49,NA,NA,3000,1,NA,NA,images/tutgreenplanet.jpg,images/tutalien2,images/tutalien1,images/tutrocket2,images/tutalien1,images/nothing.png,2,practice,true,1,common,0,2020-06-29T02:36:12Z,sub109
two-step-fixation,75,448567,0.0-61.0-2.4,FALSE,FALSE,FALSE,FALSE,"""event"",""trial"",""time""
""fullscreenenter"",""5"",""17704""
","
","
","""event"",""trial"",""time""
""fullscreenenter"",""5"",""17704""
","
",NA,images/earth.jpg,NA,NA,NA,NA,NA,NA,NA,NA,NA,NA,NA,NA,NA,fixation,NA,NA,NA,NA,NA,NA,sub109
d3-animate-choice,76,451174,0.0-61.0-0.5,FALSE,FALSE,FALSE,FALSE,"""event"",""trial"",""time""
""fullscreenenter"",""5"",""17704""
","
","
","""event"",""trial"",""time""
""fullscreenenter"",""5"",""17704""
","
",602.6550000533462,NA,49,NA,NA,3000,1,NA,NA,images/earth.jpg,images/tutrocket1,images/tutrocket2,null,images/tutrocket2,NA,1,practice,null,1,NA,NA,NA,sub109
d3-animate-choice,77,453630,0.0-61.0-1.5,FALSE,FALSE,FALSE,FALSE,"""event"",""trial"",""time""
""fullscreenenter"",""5"",""17704""
","
","
","""event"",""trial"",""time""
""fullscreenenter"",""5"",""17704""
","
",450.4600000800565,NA,48,NA,NA,3000,1,NA,NA,images/tutgreenplanet.jpg,images/tutalien2,images/tutalien1,images/tutrocket2,images/tutalien2,images/nothing.png,2,practice,true,2,common,0,2020-06-29T02:36:18Z,sub109
two-step-fixation,78,454635,0.0-61.0-2.5,FALSE,FALSE,FALSE,FALSE,"""event"",""trial"",""time""
""fullscreenenter"",""5"",""17704""
","
","
","""event"",""trial"",""time""
""fullscreenenter"",""5"",""17704""
","
",NA,images/earth.jpg,NA,NA,NA,NA,NA,NA,NA,NA,NA,NA,NA,NA,NA,fixation,NA,NA,NA,NA,NA,NA,sub109
d3-animate-choice,79,456917,0.0-61.0-0.6,FALSE,FALSE,FALSE,FALSE,"""event"",""trial"",""time""
""fullscreenenter"",""5"",""17704""
","
","
","""event"",""trial"",""time""
""fullscreenenter"",""5"",""17704""
","
",277.1550000179559,NA,48,NA,NA,3000,1,NA,NA,images/earth.jpg,images/tutrocket1,images/tutrocket2,null,images/tutrocket1,NA,1,practice,null,2,NA,NA,NA,sub109
d3-animate-choice,80,459272,0.0-61.0-1.6,FALSE,FALSE,FALSE,FALSE,"""event"",""trial"",""time""
""fullscreenenter"",""5"",""17704""
","
","
","""event"",""trial"",""time""
""fullscreenenter"",""5"",""17704""
","
",350.27500009164214,NA,48,NA,NA,3000,1,NA,NA,images/tutyellowplanet.jpg,images/tutalien4,images/tutalien3,images/tutrocket1,images/tutalien4,images/t.png,2,practice,true,2,common,1,2020-06-29T02:36:24Z,sub109
two-step-fixation,81,460276,0.0-61.0-2.6,FALSE,FALSE,FALSE,FALSE,"""event"",""trial"",""time""
""fullscreenenter"",""5"",""17704""
","
","
","""event"",""trial"",""time""
""fullscreenenter"",""5"",""17704""
","
",NA,images/earth.jpg,NA,NA,NA,NA,NA,NA,NA,NA,NA,NA,NA,NA,NA,fixation,NA,NA,NA,NA,NA,NA,sub109
d3-animate-choice,82,462807,0.0-61.0-0.7,FALSE,FALSE,FALSE,FALSE,"""event"",""trial"",""time""
""fullscreenenter"",""5"",""17704""
","
","
","""event"",""trial"",""time""
""fullscreenenter"",""5"",""17704""
","
",526.2550000334159,NA,48,NA,NA,3000,1,NA,NA,images/earth.jpg,images/tutrocket1,images/tutrocket2,null,images/tutrocket1,NA,1,practice,null,2,NA,NA,NA,sub109
d3-animate-choice,83,465173,0.0-61.0-1.7,FALSE,FALSE,FALSE,FALSE,"""event"",""trial"",""time""
""fullscreenenter"",""5"",""17704""
","
","
","""event"",""trial"",""time""
""fullscreenenter"",""5"",""17704""
","
",361.63000005763024,NA,49,NA,NA,3000,1,NA,NA,images/tutyellowplanet.jpg,images/tutalien4,images/tutalien3,images/tutrocket1,images/tutalien3,images/nothing.png,2,practice,true,1,common,0,2020-06-29T02:36:30Z,sub109
two-step-fixation,84,466178,0.0-61.0-2.7,FALSE,FALSE,FALSE,FALSE,"""event"",""trial"",""time""
""fullscreenenter"",""5"",""17704""
","
","
","""event"",""trial"",""time""
""fullscreenenter"",""5"",""17704""
","
",NA,images/earth.jpg,NA,NA,NA,NA,NA,NA,NA,NA,NA,NA,NA,NA,NA,fixation,NA,NA,NA,NA,NA,NA,sub109
d3-animate-choice,85,468546,0.0-61.0-0.8,FALSE,FALSE,FALSE,FALSE,"""event"",""trial"",""time""
""fullscreenenter"",""5"",""17704""
","
","
","""event"",""trial"",""time""
""fullscreenenter"",""5"",""17704""
","
",363.81000000983477,NA,48,NA,NA,3000,1,NA,NA,images/earth.jpg,images/tutrocket1,images/tutrocket2,null,images/tutrocket1,NA,1,practice,null,2,NA,NA,NA,sub109
d3-animate-choice,86,470904,0.0-61.0-1.8,FALSE,FALSE,FALSE,FALSE,"""event"",""trial"",""time""
""fullscreenenter"",""5"",""17704""
","
","
","""event"",""trial"",""time""
""fullscreenenter"",""5"",""17704""
","
",353.5799999954179,NA,48,NA,NA,3000,1,NA,NA,images/tutyellowplanet.jpg,images/tutalien4,images/tutalien3,images/tutrocket1,images/tutalien4,images/t.png,2,practice,true,2,common,1,2020-06-29T02:36:36Z,sub109
two-step-fixation,87,471909,0.0-61.0-2.8,FALSE,FALSE,FALSE,FALSE,"""event"",""trial"",""time""
""fullscreenenter"",""5"",""17704""
","
","
","""event"",""trial"",""time""
""fullscreenenter"",""5"",""17704""
","
",NA,images/earth.jpg,NA,NA,NA,NA,NA,NA,NA,NA,NA,NA,NA,NA,NA,fixation,NA,NA,NA,NA,NA,NA,sub109
d3-animate-choice,88,474383,0.0-61.0-0.9,FALSE,FALSE,FALSE,FALSE,"""event"",""trial"",""time""
""fullscreenenter"",""5"",""17704""
","
","
","""event"",""trial"",""time""
""fullscreenenter"",""5"",""17704""
","
",468.9950000029057,NA,48,NA,NA,3000,1,NA,NA,images/earth.jpg,images/tutrocket1,images/tutrocket2,null,images/tutrocket1,NA,1,practice,null,2,NA,NA,NA,sub109
d3-animate-choice,89,476790,0.0-61.0-1.9,FALSE,FALSE,FALSE,FALSE,"""event"",""trial"",""time""
""fullscreenenter"",""5"",""17704""
","
","
","""event"",""trial"",""time""
""fullscreenenter"",""5"",""17704""
","
",401.5099999960512,NA,48,NA,NA,3000,1,NA,NA,images/tutyellowplanet.jpg,images/tutalien4,images/tutalien3,images/tutrocket1,images/tutalien4,images/t.png,2,practice,true,2,common,1,2020-06-29T02:36:42Z,sub109
two-step-fixation,90,477794,0.0-61.0-2.9,FALSE,FALSE,FALSE,FALSE,"""event"",""trial"",""time""
""fullscreenenter"",""5"",""17704""
","
","
","""event"",""trial"",""time""
""fullscreenenter"",""5"",""17704""
","
",NA,images/earth.jpg,NA,NA,NA,NA,NA,NA,NA,NA,NA,NA,NA,NA,NA,fixation,NA,NA,NA,NA,NA,NA,sub109
d3-animate-choice,91,480177,0.0-61.0-0.10,FALSE,FALSE,FALSE,FALSE,"""event"",""trial"",""time""
""fullscreenenter"",""5"",""17704""
","
","
","""event"",""trial"",""time""
""fullscreenenter"",""5"",""17704""
","
",378.52000002749264,NA,48,NA,NA,3000,1,NA,NA,images/earth.jpg,images/tutrocket1,images/tutrocket2,null,images/tutrocket1,NA,1,practice,null,2,NA,NA,NA,sub109
d3-animate-choice,92,482464,0.0-61.0-1.10,FALSE,FALSE,FALSE,FALSE,"""event"",""trial"",""time""
""fullscreenenter"",""5"",""17704""
","
","
","""event"",""trial"",""time""
""fullscreenenter"",""5"",""17704""
","
",280.69499996490777,NA,48,NA,NA,3000,1,NA,NA,images/tutyellowplanet.jpg,images/tutalien4,images/tutalien3,images/tutrocket1,images/tutalien4,images/nothing.png,2,practice,true,2,common,0,2020-06-29T02:36:47Z,sub109
two-step-fixation,93,483468,0.0-61.0-2.10,FALSE,FALSE,FALSE,FALSE,"""event"",""trial"",""time""
""fullscreenenter"",""5"",""17704""
","
","
","""event"",""trial"",""time""
""fullscreenenter"",""5"",""17704""
","
",NA,images/earth.jpg,NA,NA,NA,NA,NA,NA,NA,NA,NA,NA,NA,NA,NA,fixation,NA,NA,NA,NA,NA,NA,sub109
d3-animate-choice,94,485765,0.0-61.0-0.11,FALSE,FALSE,FALSE,FALSE,"""event"",""trial"",""time""
""fullscreenenter"",""5"",""17704""
","
","
","""event"",""trial"",""time""
""fullscreenenter"",""5"",""17704""
","
",290.93499993905425,NA,48,NA,NA,3000,1,NA,NA,images/earth.jpg,images/tutrocket1,images/tutrocket2,null,images/tutrocket1,NA,1,practice,null,2,NA,NA,NA,sub109
d3-animate-choice,95,488280,0.0-61.0-1.11,FALSE,FALSE,FALSE,FALSE,"""event"",""trial"",""time""
""fullscreenenter"",""5"",""17704""
","
","
","""event"",""trial"",""time""
""fullscreenenter"",""5"",""17704""
","
",509.0250000357628,NA,48,NA,NA,3000,1,NA,NA,images/tutyellowplanet.jpg,images/tutalien4,images/tutalien3,images/tutrocket1,images/tutalien4,images/t.png,2,practice,true,2,common,1,2020-06-29T02:36:53Z,sub109
two-step-fixation,96,489284,0.0-61.0-2.11,FALSE,FALSE,FALSE,FALSE,"""event"",""trial"",""time""
""fullscreenenter"",""5"",""17704""
","
","
","""event"",""trial"",""time""
""fullscreenenter"",""5"",""17704""
","
",NA,images/earth.jpg,NA,NA,NA,NA,NA,NA,NA,NA,NA,NA,NA,NA,NA,fixation,NA,NA,NA,NA,NA,NA,sub109
d3-animate-choice,97,491592,0.0-61.0-0.12,FALSE,FALSE,FALSE,FALSE,"""event"",""trial"",""time""
""fullscreenenter"",""5"",""17704""
","
","
","""event"",""trial"",""time""
""fullscreenenter"",""5"",""17704""
","
",303.74500004108995,NA,48,NA,NA,3000,1,NA,NA,images/earth.jpg,images/tutrocket1,images/tutrocket2,null,images/tutrocket1,NA,1,practice,null,2,NA,NA,NA,sub109
d3-animate-choice,98,493980,0.0-61.0-1.12,FALSE,FALSE,FALSE,FALSE,"""event"",""trial"",""time""
""fullscreenenter"",""5"",""17704""
","
","
","""event"",""trial"",""time""
""fullscreenenter"",""5"",""17704""
","
",382.454999955371,NA,48,NA,NA,3000,1,NA,NA,images/tutyellowplanet.jpg,images/tutalien4,images/tutalien3,images/tutrocket1,images/tutalien4,images/nothing.png,2,practice,true,2,common,0,2020-06-29T02:36:59Z,sub109
two-step-fixation,99,494986,0.0-61.0-2.12,FALSE,FALSE,FALSE,FALSE,"""event"",""trial"",""time""
""fullscreenenter"",""5"",""17704""
","
","
","""event"",""trial"",""time""
""fullscreenenter"",""5"",""17704""
","
",NA,images/earth.jpg,NA,NA,NA,NA,NA,NA,NA,NA,NA,NA,NA,NA,NA,fixation,NA,NA,NA,NA,NA,NA,sub109
d3-animate-choice,100,497723,0.0-61.0-0.13,FALSE,FALSE,FALSE,FALSE,"""event"",""trial"",""time""
""fullscreenenter"",""5"",""17704""
","
","
","""event"",""trial"",""time""
""fullscreenenter"",""5"",""17704""
","
",732.105000060983,NA,49,NA,NA,3000,1,NA,NA,images/earth.jpg,images/tutrocket1,images/tutrocket2,null,images/tutrocket2,NA,1,practice,null,1,NA,NA,NA,sub109
d3-animate-choice,101,500103,0.0-61.0-1.13,FALSE,FALSE,FALSE,FALSE,"""event"",""trial"",""time""
""fullscreenenter"",""5"",""17704""
","
","
","""event"",""trial"",""time""
""fullscreenenter"",""5"",""17704""
","
",373.7100000726059,NA,48,NA,NA,3000,1,NA,NA,images/tutgreenplanet.jpg,images/tutalien2,images/tutalien1,images/tutrocket2,images/tutalien2,images/nothing.png,2,practice,true,2,common,0,2020-06-29T02:37:05Z,sub109
two-step-fixation,102,501109,0.0-61.0-2.13,FALSE,FALSE,FALSE,FALSE,"""event"",""trial"",""time""
""fullscreenenter"",""5"",""17704""
","
","
","""event"",""trial"",""time""
""fullscreenenter"",""5"",""17704""
","
",NA,images/earth.jpg,NA,NA,NA,NA,NA,NA,NA,NA,NA,NA,NA,NA,NA,fixation,NA,NA,NA,NA,NA,NA,sub109
d3-animate-choice,103,503669,0.0-61.0-0.14,FALSE,FALSE,FALSE,FALSE,"""event"",""trial"",""time""
""fullscreenenter"",""5"",""17704""
","
","
","""event"",""trial"",""time""
""fullscreenenter"",""5"",""17704""
","
",553.4749999642372,NA,49,NA,NA,3000,1,NA,NA,images/earth.jpg,images/tutrocket1,images/tutrocket2,null,images/tutrocket2,NA,1,practice,null,1,NA,NA,NA,sub109
d3-animate-choice,104,505968,0.0-61.0-1.14,FALSE,FALSE,FALSE,FALSE,"""event"",""trial"",""time""
""fullscreenenter"",""5"",""17704""
","
","
","""event"",""trial"",""time""
""fullscreenenter"",""5"",""17704""
","
",293.1999999564141,NA,49,NA,NA,3000,1,NA,NA,images/tutyellowplanet.jpg,images/tutalien4,images/tutalien3,images/tutrocket2,images/tutalien3,images/nothing.png,2,practice,false,1,rare,0,2020-06-29T02:37:11Z,sub109
two-step-fixation,105,506973,0.0-61.0-2.14,FALSE,FALSE,FALSE,FALSE,"""event"",""trial"",""time""
""fullscreenenter"",""5"",""17704""
","
","
","""event"",""trial"",""time""
""fullscreenenter"",""5"",""17704""
","
",NA,images/earth.jpg,NA,NA,NA,NA,NA,NA,NA,NA,NA,NA,NA,NA,NA,fixation,NA,NA,NA,NA,NA,NA,sub109
d3-animate-choice,106,509488,0.0-61.0-0.15,FALSE,FALSE,FALSE,FALSE,"""event"",""trial"",""time""
""fullscreenenter"",""5"",""17704""
","
","
","""event"",""trial"",""time""
""fullscreenenter"",""5"",""17704""
","
",509.3450000276789,NA,48,NA,NA,3000,1,NA,NA,images/earth.jpg,images/tutrocket1,images/tutrocket2,null,images/tutrocket1,NA,1,practice,null,2,NA,NA,NA,sub109
d3-animate-choice,107,511878,0.0-61.0-1.15,FALSE,FALSE,FALSE,FALSE,"""event"",""trial"",""time""
""fullscreenenter"",""5"",""17704""
","
","
","""event"",""trial"",""time""
""fullscreenenter"",""5"",""17704""
","
",384.1049999464303,NA,48,NA,NA,3000,1,NA,NA,images/tutyellowplanet.jpg,images/tutalien4,images/tutalien3,images/tutrocket1,images/tutalien4,images/t.png,2,practice,true,2,common,1,2020-06-29T02:37:17Z,sub109
two-step-fixation,108,512882,0.0-61.0-2.15,FALSE,FALSE,FALSE,FALSE,"""event"",""trial"",""time""
""fullscreenenter"",""5"",""17704""
","
","
","""event"",""trial"",""time""
""fullscreenenter"",""5"",""17704""
","
",NA,images/earth.jpg,NA,NA,NA,NA,NA,NA,NA,NA,NA,NA,NA,NA,NA,fixation,NA,NA,NA,NA,NA,NA,sub109
d3-animate-choice,109,515655,0.0-61.0-0.16,FALSE,FALSE,FALSE,FALSE,"""event"",""trial"",""time""
""fullscreenenter"",""5"",""17704""
","
","
","""event"",""trial"",""time""
""fullscreenenter"",""5"",""17704""
","
",768.3100000722334,NA,48,NA,NA,3000,1,NA,NA,images/earth.jpg,images/tutrocket1,images/tutrocket2,null,images/tutrocket1,NA,1,practice,null,2,NA,NA,NA,sub109
d3-animate-choice,110,518018,0.0-61.0-1.16,FALSE,FALSE,FALSE,FALSE,"""event"",""trial"",""time""
""fullscreenenter"",""5"",""17704""
","
","
","""event"",""trial"",""time""
""fullscreenenter"",""5"",""17704""
","
",357.9199999803677,NA,49,NA,NA,3000,1,NA,NA,images/tutyellowplanet.jpg,images/tutalien4,images/tutalien3,images/tutrocket1,images/tutalien3,images/t.png,2,practice,true,1,common,1,2020-06-29T02:37:23Z,sub109
two-step-fixation,111,519023,0.0-61.0-2.16,FALSE,FALSE,FALSE,FALSE,"""event"",""trial"",""time""
""fullscreenenter"",""5"",""17704""
","
","
","""event"",""trial"",""time""
""fullscreenenter"",""5"",""17704""
","
",NA,images/earth.jpg,NA,NA,NA,NA,NA,NA,NA,NA,NA,NA,NA,NA,NA,fixation,NA,NA,NA,NA,NA,NA,sub109
d3-animate-choice,112,521409,0.0-61.0-0.17,FALSE,FALSE,FALSE,FALSE,"""event"",""trial"",""time""
""fullscreenenter"",""5"",""17704""
","
","
","""event"",""trial"",""time""
""fullscreenenter"",""5"",""17704""
","
",380.49000001046807,NA,48,NA,NA,3000,1,NA,NA,images/earth.jpg,images/tutrocket1,images/tutrocket2,null,images/tutrocket1,NA,1,practice,null,2,NA,NA,NA,sub109
d3-animate-choice,113,523906,0.0-61.0-1.17,FALSE,FALSE,FALSE,FALSE,"""event"",""trial"",""time""
""fullscreenenter"",""5"",""17704""
","
","
","""event"",""trial"",""time""
""fullscreenenter"",""5"",""17704""
","
",491.60499998833984,NA,48,NA,NA,3000,1,NA,NA,images/tutgreenplanet.jpg,images/tutalien2,images/tutalien1,images/tutrocket1,images/tutalien2,images/t.png,2,practice,false,2,rare,1,2020-06-29T02:37:29Z,sub109
two-step-fixation,114,524912,0.0-61.0-2.17,FALSE,FALSE,FALSE,FALSE,"""event"",""trial"",""time""
""fullscreenenter"",""5"",""17704""
","
","
","""event"",""trial"",""time""
""fullscreenenter"",""5"",""17704""
","
",NA,images/earth.jpg,NA,NA,NA,NA,NA,NA,NA,NA,NA,NA,NA,NA,NA,fixation,NA,NA,NA,NA,NA,NA,sub109
d3-animate-choice,115,527418,0.0-61.0-0.18,FALSE,FALSE,FALSE,FALSE,"""event"",""trial"",""time""
""fullscreenenter"",""5"",""17704""
","
","
","""event"",""trial"",""time""
""fullscreenenter"",""5"",""17704""
","
",500.87500002700835,NA,48,NA,NA,3000,1,NA,NA,images/earth.jpg,images/tutrocket1,images/tutrocket2,null,images/tutrocket1,NA,1,practice,null,2,NA,NA,NA,sub109
d3-animate-choice,116,529777,0.0-61.0-1.18,FALSE,FALSE,FALSE,FALSE,"""event"",""trial"",""time""
""fullscreenenter"",""5"",""17704""
","
","
","""event"",""trial"",""time""
""fullscreenenter"",""5"",""17704""
","
",353.3649999881163,NA,49,NA,NA,3000,1,NA,NA,images/tutyellowplanet.jpg,images/tutalien4,images/tutalien3,images/tutrocket1,images/tutalien3,images/nothing.png,2,practice,true,1,common,0,2020-06-29T02:37:35Z,sub109
two-step-fixation,117,530779,0.0-61.0-2.18,FALSE,FALSE,FALSE,FALSE,"""event"",""trial"",""time""
""fullscreenenter"",""5"",""17704""
","
","
","""event"",""trial"",""time""
""fullscreenenter"",""5"",""17704""
","
",NA,images/earth.jpg,NA,NA,NA,NA,NA,NA,NA,NA,NA,NA,NA,NA,NA,fixation,NA,NA,NA,NA,NA,NA,sub109
d3-animate-choice,118,533099,0.0-61.0-0.19,FALSE,FALSE,FALSE,FALSE,"""event"",""trial"",""time""
""fullscreenenter"",""5"",""17704""
","
","
","""event"",""trial"",""time""
""fullscreenenter"",""5"",""17704""
","
",314.1849999083206,NA,48,NA,NA,3000,1,NA,NA,images/earth.jpg,images/tutrocket1,images/tutrocket2,null,images/tutrocket1,NA,1,practice,null,2,NA,NA,NA,sub109
d3-animate-choice,119,535462,0.0-61.0-1.19,FALSE,FALSE,FALSE,FALSE,"""event"",""trial"",""time""
""fullscreenenter"",""5"",""17704""
","
","
","""event"",""trial"",""time""
""fullscreenenter"",""5"",""17704""
","
",358.0000000074506,NA,48,NA,NA,3000,1,NA,NA,images/tutyellowplanet.jpg,images/tutalien4,images/tutalien3,images/tutrocket1,images/tutalien4,images/nothing.png,2,practice,true,2,common,0,2020-06-29T02:37:40Z,sub109
two-step-fixation,120,536467,0.0-61.0-2.19,FALSE,FALSE,FALSE,FALSE,"""event"",""trial"",""time""
""fullscreenenter"",""5"",""17704""
","
","
","""event"",""trial"",""time""
""fullscreenenter"",""5"",""17704""
","
",NA,images/earth.jpg,NA,NA,NA,NA,NA,NA,NA,NA,NA,NA,NA,NA,NA,fixation,NA,NA,NA,NA,NA,NA,sub109
d3-instructions,121,542598,0.0-62.0,FALSE,FALSE,FALSE,FALSE,"""event"",""trial"",""time""
""fullscreenenter"",""5"",""17704""
","
","
","""event"",""trial"",""time""
""fullscreenenter"",""5"",""17704""
","
",NA,NA,NA,NA,NA,NA,NA,NA,NA,NA,NA,NA,NA,NA,NA,NA,NA,NA,NA,NA,NA,NA,sub109
audio-keyboard-response,122,547248,0.0-63.0,FALSE,FALSE,FALSE,FALSE,"""event"",""trial"",""time""
""fullscreenenter"",""5"",""17704""
","
","
","""event"",""trial"",""time""
""fullscreenenter"",""5"",""17704""
","
",4648,audio/instructions/treasure_feedback.wav,32,NA,NA,NA,NA,NA,NA,NA,NA,NA,NA,NA,NA,NA,NA,NA,NA,NA,NA,NA,sub109
d3-instructions,123,566752,0.0-64.0,FALSE,FALSE,FALSE,FALSE,"""event"",""trial"",""time""
""fullscreenenter"",""5"",""17704""
","
","
","""event"",""trial"",""time""
""fullscreenenter"",""5"",""17704""
","
",NA,NA,NA,NA,NA,NA,NA,NA,NA,NA,NA,NA,NA,NA,NA,NA,NA,NA,NA,NA,NA,NA,sub109
d3-instructions,124,581919,0.0-65.0,FALSE,FALSE,FALSE,FALSE,"""event"",""trial"",""time""
""fullscreenenter"",""5"",""17704""
","
","
","""event"",""trial"",""time""
""fullscreenenter"",""5"",""17704""
","
",NA,NA,NA,NA,NA,NA,NA,NA,NA,NA,NA,NA,NA,NA,NA,NA,NA,NA,NA,NA,NA,NA,sub109
d3-instructions,125,620062,0.0-66.0,FALSE,FALSE,FALSE,FALSE,"""event"",""trial"",""time""
""fullscreenenter"",""5"",""17704""
","
","
","""event"",""trial"",""time""
""fullscreenenter"",""5"",""17704""
","
",NA,NA,NA,NA,NA,NA,NA,NA,NA,NA,NA,NA,NA,NA,NA,NA,NA,NA,NA,NA,NA,NA,sub109
d3-instructions,126,637448,0.0-67.0,FALSE,FALSE,FALSE,FALSE,"""event"",""trial"",""time""
""fullscreenenter"",""5"",""17704""
","
","
","""event"",""trial"",""time""
""fullscreenenter"",""5"",""17704""
","
",NA,NA,NA,NA,NA,NA,NA,NA,NA,NA,NA,NA,NA,NA,NA,NA,NA,NA,NA,NA,NA,NA,sub109
d3-instructions,127,647391,0.0-68.0,FALSE,FALSE,FALSE,FALSE,"""event"",""trial"",""time""
""fullscreenenter"",""5"",""17704""
","
","
","""event"",""trial"",""time""
""fullscreenenter"",""5"",""17704""
","
",NA,NA,NA,NA,NA,NA,NA,NA,NA,NA,NA,NA,NA,NA,NA,NA,NA,NA,NA,NA,NA,NA,sub109
instructions-quiz,128,650936,0.0-69.0,FALSE,FALSE,FALSE,FALSE,"""event"",""trial"",""time""
""fullscreenenter"",""5"",""17704""
","
","
","""event"",""trial"",""time""
""fullscreenenter"",""5"",""17704""
","
",3543.8100000610575,audio/quiz/Q1_Prompt.wav,NA,1,NA,NA,NA,NA,NA,NA,NA,NA,NA,NA,NA,NA,NA,NA,NA,NA,NA,NA,sub109
audio-keyboard-response,129,659557,0.0-70.0,FALSE,FALSE,FALSE,FALSE,"""event"",""trial"",""time""
""fullscreenenter"",""5"",""17704""
","
","
","""event"",""trial"",""time""
""fullscreenenter"",""5"",""17704""
","
",8621,audio/quiz/Q1_Correct.wav,32,NA,NA,NA,NA,NA,NA,NA,NA,NA,NA,NA,NA,NA,NA,NA,NA,NA,NA,NA,sub109
instructions-quiz,130,664557,0.0-71.0,FALSE,FALSE,FALSE,FALSE,"""event"",""trial"",""time""
""fullscreenenter"",""5"",""17704""
","
","
","""event"",""trial"",""time""
""fullscreenenter"",""5"",""17704""
","
",4998.120000003837,audio/quiz/Q2_Prompt.wav,NA,0,NA,NA,NA,NA,NA,NA,NA,NA,NA,NA,NA,NA,NA,NA,NA,NA,NA,NA,sub109
audio-keyboard-response,131,677414,0.0-72.0,FALSE,FALSE,FALSE,FALSE,"""event"",""trial"",""time""
""fullscreenenter"",""5"",""17704""
","
","
","""event"",""trial"",""time""
""fullscreenenter"",""5"",""17704""
","
",12848,audio/quiz/Q2_Correct.wav,32,NA,NA,NA,NA,NA,NA,NA,NA,NA,NA,NA,NA,NA,NA,NA,NA,NA,NA,NA,sub109
instructions-quiz,132,680765,0.0-73.0,FALSE,FALSE,FALSE,FALSE,"""event"",""trial"",""time""
""fullscreenenter"",""5"",""17704""
","
","
","""event"",""trial"",""time""
""fullscreenenter"",""5"",""17704""
","
",3349.4100000243634,audio/quiz/Q3_Prompt.wav,NA,1,NA,NA,NA,NA,NA,NA,NA,NA,NA,NA,NA,NA,NA,NA,NA,NA,NA,NA,sub109
audio-keyboard-response,133,685816,0.0-74.0,FALSE,FALSE,FALSE,FALSE,"""event"",""trial"",""time""
""fullscreenenter"",""5"",""17704""
","
","
","""event"",""trial"",""time""
""fullscreenenter"",""5"",""17704""
","
",5051,audio/quiz/Q3_Correct.wav,32,NA,NA,NA,NA,NA,NA,NA,NA,NA,NA,NA,NA,NA,NA,NA,NA,NA,NA,NA,sub109
d3-instructions,134,699813,0.0-75.0,FALSE,FALSE,FALSE,FALSE,"""event"",""trial"",""time""
""fullscreenenter"",""5"",""17704""
","
","
","""event"",""trial"",""time""
""fullscreenenter"",""5"",""17704""
","
",NA,NA,NA,NA,NA,NA,NA,NA,NA,NA,NA,NA,NA,NA,NA,NA,NA,NA,NA,NA,NA,NA,sub109
d3-animate-choice,135,702894,0.0-76.0-0.0,FALSE,FALSE,FALSE,FALSE,"""event"",""trial"",""time""
""fullscreenenter"",""5"",""17704""
","
","
","""event"",""trial"",""time""
""fullscreenenter"",""5"",""17704""
","
",1075.3000000258908,NA,48,NA,NA,3000,1,NA,NA,images/earth.jpg,images/rocket1,images/rocket2,null,images/rocket1,NA,1,real,null,2,NA,NA,NA,sub109
d3-animate-choice,136,705484,0.0-76.0-1.0,FALSE,FALSE,FALSE,FALSE,"""event"",""trial"",""time""
""fullscreenenter"",""5"",""17704""
","
","
","""event"",""trial"",""time""
""fullscreenenter"",""5"",""17704""
","
",584.5850000623614,NA,49,NA,NA,3000,1,NA,NA,images/purpleplanet.jpg,images/alien4,images/alien3,images/rocket1,images/alien3,images/t.png,2,real,true,1,common,1,2020-06-29T02:40:30Z,sub109
two-step-fixation,137,706488,0.0-76.0-2.0,FALSE,FALSE,FALSE,FALSE,"""event"",""trial"",""time""
""fullscreenenter"",""5"",""17704""
","
","
","""event"",""trial"",""time""
""fullscreenenter"",""5"",""17704""
","
",NA,images/earth.jpg,NA,NA,NA,NA,NA,NA,NA,NA,NA,NA,NA,NA,NA,fixation,NA,NA,NA,NA,NA,NA,sub109
d3-animate-choice,138,708811,0.0-76.0-0.1,FALSE,FALSE,FALSE,FALSE,"""event"",""trial"",""time""
""fullscreenenter"",""5"",""17704""
","
","
","""event"",""trial"",""time""
""fullscreenenter"",""5"",""17704""
","
",316.53000006917864,NA,48,NA,NA,3000,1,NA,NA,images/earth.jpg,images/rocket1,images/rocket2,null,images/rocket1,NA,1,real,null,2,NA,NA,NA,sub109
d3-animate-choice,139,711143,0.0-76.0-1.1,FALSE,FALSE,FALSE,FALSE,"""event"",""trial"",""time""
""fullscreenenter"",""5"",""17704""
","
","
","""event"",""trial"",""time""
""fullscreenenter"",""5"",""17704""
","
",309.82500000391155,NA,49,NA,NA,3000,1,NA,NA,images/purpleplanet.jpg,images/alien4,images/alien3,images/rocket1,images/alien3,images/t.png,2,real,true,1,common,1,2020-06-29T02:40:36Z,sub109
two-step-fixation,140,712148,0.0-76.0-2.1,FALSE,FALSE,FALSE,FALSE,"""event"",""trial"",""time""
""fullscreenenter"",""5"",""17704""
","
","
","""event"",""trial"",""time""
""fullscreenenter"",""5"",""17704""
","
",NA,images/earth.jpg,NA,NA,NA,NA,NA,NA,NA,NA,NA,NA,NA,NA,NA,fixation,NA,NA,NA,NA,NA,NA,sub109
d3-animate-choice,141,714443,0.0-76.0-0.2,FALSE,FALSE,FALSE,FALSE,"""event"",""trial"",""time""
""fullscreenenter"",""5"",""17704""
","
","
","""event"",""trial"",""time""
""fullscreenenter"",""5"",""17704""
","
",283.0850000027567,NA,48,NA,NA,3000,1,NA,NA,images/earth.jpg,images/rocket1,images/rocket2,null,images/rocket1,NA,1,real,null,2,NA,NA,NA,sub109
d3-animate-choice,142,716773,0.0-76.0-1.2,FALSE,FALSE,FALSE,FALSE,"""event"",""trial"",""time""
""fullscreenenter"",""5"",""17704""
","
","
","""event"",""trial"",""time""
""fullscreenenter"",""5"",""17704""
","
",311.1349999671802,NA,49,NA,NA,3000,1,NA,NA,images/purpleplanet.jpg,images/alien4,images/alien3,images/rocket1,images/alien3,images/nothing.png,2,real,true,1,common,0,2020-06-29T02:40:42Z,sub109
two-step-fixation,143,717793,0.0-76.0-2.2,FALSE,FALSE,FALSE,FALSE,"""event"",""trial"",""time""
""fullscreenenter"",""5"",""17704""
","
","
","""event"",""trial"",""time""
""fullscreenenter"",""5"",""17704""
","
",NA,images/earth.jpg,NA,NA,NA,NA,NA,NA,NA,NA,NA,NA,NA,NA,NA,fixation,NA,NA,NA,NA,NA,NA,sub109
d3-animate-choice,144,720249,0.0-76.0-0.3,FALSE,FALSE,FALSE,FALSE,"""event"",""trial"",""time""
""fullscreenenter"",""5"",""17704""
","
","
","""event"",""trial"",""time""
""fullscreenenter"",""5"",""17704""
","
",451.3750000623986,NA,48,NA,NA,3000,1,NA,NA,images/earth.jpg,images/rocket1,images/rocket2,null,images/rocket1,NA,1,real,null,2,NA,NA,NA,sub109
d3-animate-choice,145,722562,0.0-76.0-1.3,FALSE,FALSE,FALSE,FALSE,"""event"",""trial"",""time""
""fullscreenenter"",""5"",""17704""
","
","
","""event"",""trial"",""time""
""fullscreenenter"",""5"",""17704""
","
",307.6949999667704,NA,48,NA,NA,3000,1,NA,NA,images/purpleplanet.jpg,images/alien4,images/alien3,images/rocket1,images/alien4,images/t.png,2,real,true,2,common,1,2020-06-29T02:40:47Z,sub109
two-step-fixation,146,723567,0.0-76.0-2.3,FALSE,FALSE,FALSE,FALSE,"""event"",""trial"",""time""
""fullscreenenter"",""5"",""17704""
","
","
","""event"",""trial"",""time""
""fullscreenenter"",""5"",""17704""
","
",NA,images/earth.jpg,NA,NA,NA,NA,NA,NA,NA,NA,NA,NA,NA,NA,NA,fixation,NA,NA,NA,NA,NA,NA,sub109
d3-animate-choice,147,725892,0.0-76.0-0.4,FALSE,FALSE,FALSE,FALSE,"""event"",""trial"",""time""
""fullscreenenter"",""5"",""17704""
","
","
","""event"",""trial"",""time""
""fullscreenenter"",""5"",""17704""
","
",320.8899999735877,NA,48,NA,NA,3000,1,NA,NA,images/earth.jpg,images/rocket1,images/rocket2,null,images/rocket1,NA,1,real,null,2,NA,NA,NA,sub109
d3-animate-choice,148,728357,0.0-76.0-1.4,FALSE,FALSE,FALSE,FALSE,"""event"",""trial"",""time""
""fullscreenenter"",""5"",""17704""
","
","
","""event"",""trial"",""time""
""fullscreenenter"",""5"",""17704""
","
",459.53499991446733,NA,48,NA,NA,3000,1,NA,NA,images/purpleplanet.jpg,images/alien4,images/alien3,images/rocket1,images/alien4,images/nothing.png,2,real,true,2,common,0,2020-06-29T02:40:53Z,sub109
two-step-fixation,149,729361,0.0-76.0-2.4,FALSE,FALSE,FALSE,FALSE,"""event"",""trial"",""time""
""fullscreenenter"",""5"",""17704""
","
","
","""event"",""trial"",""time""
""fullscreenenter"",""5"",""17704""
","
",NA,images/earth.jpg,NA,NA,NA,NA,NA,NA,NA,NA,NA,NA,NA,NA,NA,fixation,NA,NA,NA,NA,NA,NA,sub109
d3-animate-choice,150,732044,0.0-76.0-0.5,FALSE,FALSE,FALSE,FALSE,"""event"",""trial"",""time""
""fullscreenenter"",""5"",""17704""
","
","
","""event"",""trial"",""time""
""fullscreenenter"",""5"",""17704""
","
",678.1950000440702,NA,48,NA,NA,3000,1,NA,NA,images/earth.jpg,images/rocket1,images/rocket2,null,images/rocket1,NA,1,real,null,2,NA,NA,NA,sub109
d3-animate-choice,151,735138,0.0-76.0-1.5,FALSE,FALSE,FALSE,FALSE,"""event"",""trial"",""time""
""fullscreenenter"",""5"",""17704""
","
","
","""event"",""trial"",""time""
""fullscreenenter"",""5"",""17704""
","
",1089.585000067018,NA,49,NA,NA,3000,1,NA,NA,images/purpleplanet.jpg,images/alien4,images/alien3,images/rocket1,images/alien3,images/nothing.png,2,real,true,1,common,0,2020-06-29T02:41:00Z,sub109
two-step-fixation,152,736143,0.0-76.0-2.5,FALSE,FALSE,FALSE,FALSE,"""event"",""trial"",""time""
""fullscreenenter"",""5"",""17704""
","
","
","""event"",""trial"",""time""
""fullscreenenter"",""5"",""17704""
","
",NA,images/earth.jpg,NA,NA,NA,NA,NA,NA,NA,NA,NA,NA,NA,NA,NA,fixation,NA,NA,NA,NA,NA,NA,sub109
d3-animate-choice,153,738543,0.0-76.0-0.6,FALSE,FALSE,FALSE,FALSE,"""event"",""trial"",""time""
""fullscreenenter"",""5"",""17704""
","
","
","""event"",""trial"",""time""
""fullscreenenter"",""5"",""17704""
","
",395.0549999717623,NA,49,NA,NA,3000,1,NA,NA,images/earth.jpg,images/rocket1,images/rocket2,null,images/rocket2,NA,1,real,null,1,NA,NA,NA,sub109
d3-animate-choice,154,740982,0.0-76.0-1.6,FALSE,FALSE,FALSE,FALSE,"""event"",""trial"",""time""
""fullscreenenter"",""5"",""17704""
","
","
","""event"",""trial"",""time""
""fullscreenenter"",""5"",""17704""
","
",433.0049999989569,NA,48,NA,NA,3000,1,NA,NA,images/redplanet1.jpg,images/alien2,images/alien1,images/rocket2,images/alien2,images/nothing.png,2,real,true,2,common,0,2020-06-29T02:41:06Z,sub109
two-step-fixation,155,741988,0.0-76.0-2.6,FALSE,FALSE,FALSE,FALSE,"""event"",""trial"",""time""
""fullscreenenter"",""5"",""17704""
","
","
","""event"",""trial"",""time""
""fullscreenenter"",""5"",""17704""
","
",NA,images/earth.jpg,NA,NA,NA,NA,NA,NA,NA,NA,NA,NA,NA,NA,NA,fixation,NA,NA,NA,NA,NA,NA,sub109
d3-animate-choice,156,744515,0.0-76.0-0.7,FALSE,FALSE,FALSE,FALSE,"""event"",""trial"",""time""
""fullscreenenter"",""5"",""17704""
","
","
","""event"",""trial"",""time""
""fullscreenenter"",""5"",""17704""
","
",521.2000000756234,NA,49,NA,NA,3000,1,NA,NA,images/earth.jpg,images/rocket1,images/rocket2,null,images/rocket2,NA,1,real,null,1,NA,NA,NA,sub109
d3-animate-choice,157,746880,0.0-76.0-1.7,FALSE,FALSE,FALSE,FALSE,"""event"",""trial"",""time""
""fullscreenenter"",""5"",""17704""
","
","
","""event"",""trial"",""time""
""fullscreenenter"",""5"",""17704""
","
",360.32500001601875,NA,49,NA,NA,3000,1,NA,NA,images/redplanet1.jpg,images/alien2,images/alien1,images/rocket2,images/alien1,images/nothing.png,2,real,true,1,common,0,2020-06-29T02:41:12Z,sub109
two-step-fixation,158,747884,0.0-76.0-2.7,FALSE,FALSE,FALSE,FALSE,"""event"",""trial"",""time""
""fullscreenenter"",""5"",""17704""
","
","
","""event"",""trial"",""time""
""fullscreenenter"",""5"",""17704""
","
",NA,images/earth.jpg,NA,NA,NA,NA,NA,NA,NA,NA,NA,NA,NA,NA,NA,fixation,NA,NA,NA,NA,NA,NA,sub109
d3-animate-choice,159,750170,0.0-76.0-0.8,FALSE,FALSE,FALSE,FALSE,"""event"",""trial"",""time""
""fullscreenenter"",""5"",""17704""
","
","
","""event"",""trial"",""time""
""fullscreenenter"",""5"",""17704""
","
",281.360000022687,NA,48,NA,NA,3000,1,NA,NA,images/earth.jpg,images/rocket1,images/rocket2,null,images/rocket1,NA,1,real,null,2,NA,NA,NA,sub109
d3-animate-choice,160,752564,0.0-76.0-1.8,FALSE,FALSE,FALSE,FALSE,"""event"",""trial"",""time""
""fullscreenenter"",""5"",""17704""
","
","
","""event"",""trial"",""time""
""fullscreenenter"",""5"",""17704""
","
",387.87499989848584,NA,49,NA,NA,3000,1,NA,NA,images/redplanet1.jpg,images/alien2,images/alien1,images/rocket1,images/alien1,images/nothing.png,2,real,false,1,rare,0,2020-06-29T02:41:17Z,sub109
two-step-fixation,161,753569,0.0-76.0-2.8,FALSE,FALSE,FALSE,FALSE,"""event"",""trial"",""time""
""fullscreenenter"",""5"",""17704""
","
","
","""event"",""trial"",""time""
""fullscreenenter"",""5"",""17704""
","
",NA,images/earth.jpg,NA,NA,NA,NA,NA,NA,NA,NA,NA,NA,NA,NA,NA,fixation,NA,NA,NA,NA,NA,NA,sub109
d3-animate-choice,162,756032,0.0-76.0-0.9,FALSE,FALSE,FALSE,FALSE,"""event"",""trial"",""time""
""fullscreenenter"",""5"",""17704""
","
","
","""event"",""trial"",""time""
""fullscreenenter"",""5"",""17704""
","
",456.6399999894202,NA,48,NA,NA,3000,1,NA,NA,images/earth.jpg,images/rocket1,images/rocket2,null,images/rocket1,NA,1,real,null,2,NA,NA,NA,sub109
d3-animate-choice,163,758487,0.0-76.0-1.9,FALSE,FALSE,FALSE,FALSE,"""event"",""trial"",""time""
""fullscreenenter"",""5"",""17704""
","
","
","""event"",""trial"",""time""
""fullscreenenter"",""5"",""17704""
","
",449.92000004276633,NA,49,NA,NA,3000,1,NA,NA,images/redplanet1.jpg,images/alien2,images/alien1,images/rocket1,images/alien1,images/nothing.png,2,real,false,1,rare,0,2020-06-29T02:41:23Z,sub109
two-step-fixation,164,759492,0.0-76.0-2.9,FALSE,FALSE,FALSE,FALSE,"""event"",""trial"",""time""
""fullscreenenter"",""5"",""17704""
","
","
","""event"",""trial"",""time""
""fullscreenenter"",""5"",""17704""
","
",NA,images/earth.jpg,NA,NA,NA,NA,NA,NA,NA,NA,NA,NA,NA,NA,NA,fixation,NA,NA,NA,NA,NA,NA,sub109
d3-animate-choice,165,761796,0.0-76.0-0.10,FALSE,FALSE,FALSE,FALSE,"""event"",""trial"",""time""
""fullscreenenter"",""5"",""17704""
","
","
","""event"",""trial"",""time""
""fullscreenenter"",""5"",""17704""
","
",299.8200000729412,NA,48,NA,NA,3000,1,NA,NA,images/earth.jpg,images/rocket1,images/rocket2,null,images/rocket1,NA,1,real,null,2,NA,NA,NA,sub109
d3-animate-choice,166,764265,0.0-76.0-1.10,FALSE,FALSE,FALSE,FALSE,"""event"",""trial"",""time""
""fullscreenenter"",""5"",""17704""
","
","
","""event"",""trial"",""time""
""fullscreenenter"",""5"",""17704""
","
",463.50499999243766,NA,48,NA,NA,3000,1,NA,NA,images/redplanet1.jpg,images/alien2,images/alien1,images/rocket1,images/alien2,images/t.png,2,real,false,2,rare,1,2020-06-29T02:41:29Z,sub109
two-step-fixation,167,765270,0.0-76.0-2.10,FALSE,FALSE,FALSE,FALSE,"""event"",""trial"",""time""
""fullscreenenter"",""5"",""17704""
","
","
","""event"",""trial"",""time""
""fullscreenenter"",""5"",""17704""
","
",NA,images/earth.jpg,NA,NA,NA,NA,NA,NA,NA,NA,NA,NA,NA,NA,NA,fixation,NA,NA,NA,NA,NA,NA,sub109
d3-animate-choice,168,767770,0.0-76.0-0.11,FALSE,FALSE,FALSE,FALSE,"""event"",""trial"",""time""
""fullscreenenter"",""5"",""17704""
","
","
","""event"",""trial"",""time""
""fullscreenenter"",""5"",""17704""
","
",494.77000010665506,NA,48,NA,NA,3000,1,NA,NA,images/earth.jpg,images/rocket1,images/rocket2,null,images/rocket1,NA,1,real,null,2,NA,NA,NA,sub109
d3-animate-choice,169,770187,0.0-76.0-1.11,FALSE,FALSE,FALSE,FALSE,"""event"",""trial"",""time""
""fullscreenenter"",""5"",""17704""
","
","
","""event"",""trial"",""time""
""fullscreenenter"",""5"",""17704""
","
",411.56999999657273,NA,48,NA,NA,3000,1,NA,NA,images/redplanet1.jpg,images/alien2,images/alien1,images/rocket1,images/alien2,images/nothing.png,2,real,false,2,rare,0,2020-06-29T02:41:35Z,sub109
two-step-fixation,170,771190,0.0-76.0-2.11,FALSE,FALSE,FALSE,FALSE,"""event"",""trial"",""time""
""fullscreenenter"",""5"",""17704""
","
","
","""event"",""trial"",""time""
""fullscreenenter"",""5"",""17704""
","
",NA,images/earth.jpg,NA,NA,NA,NA,NA,NA,NA,NA,NA,NA,NA,NA,NA,fixation,NA,NA,NA,NA,NA,NA,sub109
d3-animate-choice,171,773676,0.0-76.0-0.12,FALSE,FALSE,FALSE,FALSE,"""event"",""trial"",""time""
""fullscreenenter"",""5"",""17704""
","
","
","""event"",""trial"",""time""
""fullscreenenter"",""5"",""17704""
","
",478.39000006206334,NA,49,NA,NA,3000,1,NA,NA,images/earth.jpg,images/rocket1,images/rocket2,null,images/rocket2,NA,1,real,null,1,NA,NA,NA,sub109
d3-animate-choice,172,776013,0.0-76.0-1.12,FALSE,FALSE,FALSE,FALSE,"""event"",""trial"",""time""
""fullscreenenter"",""5"",""17704""
","
","
","""event"",""trial"",""time""
""fullscreenenter"",""5"",""17704""
","
",330.45000000856817,NA,48,NA,NA,3000,1,NA,NA,images/redplanet1.jpg,images/alien2,images/alien1,images/rocket2,images/alien2,images/t.png,2,real,true,2,common,1,2020-06-29T02:41:41Z,sub109
two-step-fixation,173,777018,0.0-76.0-2.12,FALSE,FALSE,FALSE,FALSE,"""event"",""trial"",""time""
""fullscreenenter"",""5"",""17704""
","
","
","""event"",""trial"",""time""
""fullscreenenter"",""5"",""17704""
","
",NA,images/earth.jpg,NA,NA,NA,NA,NA,NA,NA,NA,NA,NA,NA,NA,NA,fixation,NA,NA,NA,NA,NA,NA,sub109
d3-animate-choice,174,779382,0.0-76.0-0.13,FALSE,FALSE,FALSE,FALSE,"""event"",""trial"",""time""
""fullscreenenter"",""5"",""17704""
","
","
","""event"",""trial"",""time""
""fullscreenenter"",""5"",""17704""
","
",360.60000001452863,NA,49,NA,NA,3000,1,NA,NA,images/earth.jpg,images/rocket1,images/rocket2,null,images/rocket2,NA,1,real,null,1,NA,NA,NA,sub109
d3-animate-choice,175,781808,0.0-76.0-1.13,FALSE,FALSE,FALSE,FALSE,"""event"",""trial"",""time""
""fullscreenenter"",""5"",""17704""
","
","
","""event"",""trial"",""time""
""fullscreenenter"",""5"",""17704""
","
",421.25000001396984,NA,48,NA,NA,3000,1,NA,NA,images/redplanet1.jpg,images/alien2,images/alien1,images/rocket2,images/alien2,images/t.png,2,real,true,2,common,1,2020-06-29T02:41:47Z,sub109
two-step-fixation,176,782813,0.0-76.0-2.13,FALSE,FALSE,FALSE,FALSE,"""event"",""trial"",""time""
""fullscreenenter"",""5"",""17704""
","
","
","""event"",""trial"",""time""
""fullscreenenter"",""5"",""17704""
","
",NA,images/earth.jpg,NA,NA,NA,NA,NA,NA,NA,NA,NA,NA,NA,NA,NA,fixation,NA,NA,NA,NA,NA,NA,sub109
d3-animate-choice,177,785266,0.0-76.0-0.14,FALSE,FALSE,FALSE,FALSE,"""event"",""trial"",""time""
""fullscreenenter"",""5"",""17704""
","
","
","""event"",""trial"",""time""
""fullscreenenter"",""5"",""17704""
","
",448.72500002384186,NA,49,NA,NA,3000,1,NA,NA,images/earth.jpg,images/rocket1,images/rocket2,null,images/rocket2,NA,1,real,null,1,NA,NA,NA,sub109
d3-animate-choice,178,787700,0.0-76.0-1.14,FALSE,FALSE,FALSE,FALSE,"""event"",""trial"",""time""
""fullscreenenter"",""5"",""17704""
","
","
","""event"",""trial"",""time""
""fullscreenenter"",""5"",""17704""
","
",429.4549999758601,NA,48,NA,NA,3000,1,NA,NA,images/redplanet1.jpg,images/alien2,images/alien1,images/rocket2,images/alien2,images/t.png,2,real,true,2,common,1,2020-06-29T02:41:53Z,sub109
two-step-fixation,179,788706,0.0-76.0-2.14,FALSE,FALSE,FALSE,FALSE,"""event"",""trial"",""time""
""fullscreenenter"",""5"",""17704""
","
","
","""event"",""trial"",""time""
""fullscreenenter"",""5"",""17704""
","
",NA,images/earth.jpg,NA,NA,NA,NA,NA,NA,NA,NA,NA,NA,NA,NA,NA,fixation,NA,NA,NA,NA,NA,NA,sub109
d3-animate-choice,180,790996,0.0-76.0-0.15,FALSE,FALSE,FALSE,FALSE,"""event"",""trial"",""time""
""fullscreenenter"",""5"",""17704""
","
","
","""event"",""trial"",""time""
""fullscreenenter"",""5"",""17704""
","
",284.7750000655651,NA,49,NA,NA,3000,1,NA,NA,images/earth.jpg,images/rocket1,images/rocket2,null,images/rocket2,NA,1,real,null,1,NA,NA,NA,sub109
d3-animate-choice,181,793295,0.0-76.0-1.15,FALSE,FALSE,FALSE,FALSE,"""event"",""trial"",""time""
""fullscreenenter"",""5"",""17704""
","
","
","""event"",""trial"",""time""
""fullscreenenter"",""5"",""17704""
","
",293.66500000469387,NA,48,NA,NA,3000,1,NA,NA,images/redplanet1.jpg,images/alien2,images/alien1,images/rocket2,images/alien2,images/t.png,2,real,true,2,common,1,2020-06-29T02:41:58Z,sub109
two-step-fixation,182,794300,0.0-76.0-2.15,FALSE,FALSE,FALSE,FALSE,"""event"",""trial"",""time""
""fullscreenenter"",""5"",""17704""
","
","
","""event"",""trial"",""time""
""fullscreenenter"",""5"",""17704""
","
",NA,images/earth.jpg,NA,NA,NA,NA,NA,NA,NA,NA,NA,NA,NA,NA,NA,fixation,NA,NA,NA,NA,NA,NA,sub109
d3-animate-choice,183,796646,0.0-76.0-0.16,FALSE,FALSE,FALSE,FALSE,"""event"",""trial"",""time""
""fullscreenenter"",""5"",""17704""
","
","
","""event"",""trial"",""time""
""fullscreenenter"",""5"",""17704""
","
",341.1199999973178,NA,49,NA,NA,3000,1,NA,NA,images/earth.jpg,images/rocket1,images/rocket2,null,images/rocket2,NA,1,real,null,1,NA,NA,NA,sub109
d3-animate-choice,184,798978,0.0-76.0-1.16,FALSE,FALSE,FALSE,FALSE,"""event"",""trial"",""time""
""fullscreenenter"",""5"",""17704""
","
","
","""event"",""trial"",""time""
""fullscreenenter"",""5"",""17704""
","
",324.945000000298,NA,48,NA,NA,3000,1,NA,NA,images/redplanet1.jpg,images/alien2,images/alien1,images/rocket2,images/alien2,images/nothing.png,2,real,true,2,common,0,2020-06-29T02:42:04Z,sub109
two-step-fixation,185,799982,0.0-76.0-2.16,FALSE,FALSE,FALSE,FALSE,"""event"",""trial"",""time""
""fullscreenenter"",""5"",""17704""
","
","
","""event"",""trial"",""time""
""fullscreenenter"",""5"",""17704""
","
",NA,images/earth.jpg,NA,NA,NA,NA,NA,NA,NA,NA,NA,NA,NA,NA,NA,fixation,NA,NA,NA,NA,NA,NA,sub109
d3-animate-choice,186,802323,0.0-76.0-0.17,FALSE,FALSE,FALSE,FALSE,"""event"",""trial"",""time""
""fullscreenenter"",""5"",""17704""
","
","
","""event"",""trial"",""time""
""fullscreenenter"",""5"",""17704""
","
",336.31000004243106,NA,48,NA,NA,3000,1,NA,NA,images/earth.jpg,images/rocket1,images/rocket2,null,images/rocket1,NA,1,real,null,2,NA,NA,NA,sub109
d3-animate-choice,187,804674,0.0-76.0-1.17,FALSE,FALSE,FALSE,FALSE,"""event"",""trial"",""time""
""fullscreenenter"",""5"",""17704""
","
","
","""event"",""trial"",""time""
""fullscreenenter"",""5"",""17704""
","
",344.81000003870577,NA,49,NA,NA,3000,1,NA,NA,images/purpleplanet.jpg,images/alien4,images/alien3,images/rocket1,images/alien3,images/nothing.png,2,real,true,1,common,0,2020-06-29T02:42:09Z,sub109
two-step-fixation,188,805680,0.0-76.0-2.17,FALSE,FALSE,FALSE,FALSE,"""event"",""trial"",""time""
""fullscreenenter"",""5"",""17704""
","
","
","""event"",""trial"",""time""
""fullscreenenter"",""5"",""17704""
","
",NA,images/earth.jpg,NA,NA,NA,NA,NA,NA,NA,NA,NA,NA,NA,NA,NA,fixation,NA,NA,NA,NA,NA,NA,sub109
d3-animate-choice,189,808061,0.0-76.0-0.18,FALSE,FALSE,FALSE,FALSE,"""event"",""trial"",""time""
""fullscreenenter"",""5"",""17704""
","
","
","""event"",""trial"",""time""
""fullscreenenter"",""5"",""17704""
","
",375.6099999882281,NA,48,NA,NA,3000,1,NA,NA,images/earth.jpg,images/rocket1,images/rocket2,null,images/rocket1,NA,1,real,null,2,NA,NA,NA,sub109
d3-animate-choice,190,810385,0.0-76.0-1.18,FALSE,FALSE,FALSE,FALSE,"""event"",""trial"",""time""
""fullscreenenter"",""5"",""17704""
","
","
","""event"",""trial"",""time""
""fullscreenenter"",""5"",""17704""
","
",319.2550000967458,NA,48,NA,NA,3000,1,NA,NA,images/redplanet1.jpg,images/alien2,images/alien1,images/rocket1,images/alien2,images/t.png,2,real,false,2,rare,1,2020-06-29T02:42:15Z,sub109
two-step-fixation,191,811390,0.0-76.0-2.18,FALSE,FALSE,FALSE,FALSE,"""event"",""trial"",""time""
""fullscreenenter"",""5"",""17704""
","
","
","""event"",""trial"",""time""
""fullscreenenter"",""5"",""17704""
","
",NA,images/earth.jpg,NA,NA,NA,NA,NA,NA,NA,NA,NA,NA,NA,NA,NA,fixation,NA,NA,NA,NA,NA,NA,sub109
d3-animate-choice,192,813814,0.0-76.0-0.19,FALSE,FALSE,FALSE,FALSE,"""event"",""trial"",""time""
""fullscreenenter"",""5"",""17704""
","
","
","""event"",""trial"",""time""
""fullscreenenter"",""5"",""17704""
","
",418.0400000186637,NA,49,NA,NA,3000,1,NA,NA,images/earth.jpg,images/rocket1,images/rocket2,null,images/rocket2,NA,1,real,null,1,NA,NA,NA,sub109
d3-animate-choice,193,816182,0.0-76.0-1.19,FALSE,FALSE,FALSE,FALSE,"""event"",""trial"",""time""
""fullscreenenter"",""5"",""17704""
","
","
","""event"",""trial"",""time""
""fullscreenenter"",""5"",""17704""
","
",363.69000002741814,NA,48,NA,NA,3000,1,NA,NA,images/redplanet1.jpg,images/alien2,images/alien1,images/rocket2,images/alien2,images/nothing.png,2,real,true,2,common,0,2020-06-29T02:42:21Z,sub109
two-step-fixation,194,817187,0.0-76.0-2.19,FALSE,FALSE,FALSE,FALSE,"""event"",""trial"",""time""
""fullscreenenter"",""5"",""17704""
","
","
","""event"",""trial"",""time""
""fullscreenenter"",""5"",""17704""
","
",NA,images/earth.jpg,NA,NA,NA,NA,NA,NA,NA,NA,NA,NA,NA,NA,NA,fixation,NA,NA,NA,NA,NA,NA,sub109
d3-animate-choice,195,819634,0.0-76.0-0.20,FALSE,FALSE,FALSE,FALSE,"""event"",""trial"",""time""
""fullscreenenter"",""5"",""17704""
","
","
","""event"",""trial"",""time""
""fullscreenenter"",""5"",""17704""
","
",442.75499996729195,NA,49,NA,NA,3000,1,NA,NA,images/earth.jpg,images/rocket1,images/rocket2,null,images/rocket2,NA,1,real,null,1,NA,NA,NA,sub109
d3-animate-choice,196,822162,0.0-76.0-1.20,FALSE,FALSE,FALSE,FALSE,"""event"",""trial"",""time""
""fullscreenenter"",""5"",""17704""
","
","
","""event"",""trial"",""time""
""fullscreenenter"",""5"",""17704""
","
",523.0449999216944,NA,49,NA,NA,3000,1,NA,NA,images/purpleplanet.jpg,images/alien4,images/alien3,images/rocket2,images/alien3,images/t.png,2,real,false,1,rare,1,2020-06-29T02:42:27Z,sub109
two-step-fixation,197,823166,0.0-76.0-2.20,FALSE,FALSE,FALSE,FALSE,"""event"",""trial"",""time""
""fullscreenenter"",""5"",""17704""
","
","
","""event"",""trial"",""time""
""fullscreenenter"",""5"",""17704""
","
",NA,images/earth.jpg,NA,NA,NA,NA,NA,NA,NA,NA,NA,NA,NA,NA,NA,fixation,NA,NA,NA,NA,NA,NA,sub109
d3-animate-choice,198,825708,0.0-76.0-0.21,FALSE,FALSE,FALSE,FALSE,"""event"",""trial"",""time""
""fullscreenenter"",""5"",""17704""
","
","
","""event"",""trial"",""time""
""fullscreenenter"",""5"",""17704""
","
",534.5850000157952,NA,48,NA,NA,3000,1,NA,NA,images/earth.jpg,images/rocket1,images/rocket2,null,images/rocket1,NA,1,real,null,2,NA,NA,NA,sub109
d3-animate-choice,199,828132,0.0-76.0-1.21,FALSE,FALSE,FALSE,FALSE,"""event"",""trial"",""time""
""fullscreenenter"",""5"",""17704""
","
","
","""event"",""trial"",""time""
""fullscreenenter"",""5"",""17704""
","
",418.9950000727549,NA,49,NA,NA,3000,1,NA,NA,images/purpleplanet.jpg,images/alien4,images/alien3,images/rocket1,images/alien3,images/nothing.png,2,real,true,1,common,0,2020-06-29T02:42:33Z,sub109
two-step-fixation,200,829136,0.0-76.0-2.21,FALSE,FALSE,FALSE,FALSE,"""event"",""trial"",""time""
""fullscreenenter"",""5"",""17704""
","
","
","""event"",""trial"",""time""
""fullscreenenter"",""5"",""17704""
","
",NA,images/earth.jpg,NA,NA,NA,NA,NA,NA,NA,NA,NA,NA,NA,NA,NA,fixation,NA,NA,NA,NA,NA,NA,sub109
d3-animate-choice,201,831736,0.0-76.0-0.22,FALSE,FALSE,FALSE,FALSE,"""event"",""trial"",""time""
""fullscreenenter"",""5"",""17704""
","
","
","""event"",""trial"",""time""
""fullscreenenter"",""5"",""17704""
","
",595.4899999778718,NA,49,NA,NA,3000,1,NA,NA,images/earth.jpg,images/rocket1,images/rocket2,null,images/rocket2,NA,1,real,null,1,NA,NA,NA,sub109
d3-animate-choice,202,834169,0.0-76.0-1.22,FALSE,FALSE,FALSE,FALSE,"""event"",""trial"",""time""
""fullscreenenter"",""5"",""17704""
","
","
","""event"",""trial"",""time""
""fullscreenenter"",""5"",""17704""
","
",427.95000004116446,NA,48,NA,NA,3000,1,NA,NA,images/redplanet1.jpg,images/alien2,images/alien1,images/rocket2,images/alien2,images/nothing.png,2,real,true,2,common,0,2020-06-29T02:42:39Z,sub109
two-step-fixation,203,835173,0.0-76.0-2.22,FALSE,FALSE,FALSE,FALSE,"""event"",""trial"",""time""
""fullscreenenter"",""5"",""17704""
","
","
","""event"",""trial"",""time""
""fullscreenenter"",""5"",""17704""
","
",NA,images/earth.jpg,NA,NA,NA,NA,NA,NA,NA,NA,NA,NA,NA,NA,NA,fixation,NA,NA,NA,NA,NA,NA,sub109
d3-animate-choice,204,837567,0.0-76.0-0.23,FALSE,FALSE,FALSE,FALSE,"""event"",""trial"",""time""
""fullscreenenter"",""5"",""17704""
","
","
","""event"",""trial"",""time""
""fullscreenenter"",""5"",""17704""
","
",388.8850000221282,NA,48,NA,NA,3000,1,NA,NA,images/earth.jpg,images/rocket1,images/rocket2,null,images/rocket1,NA,1,real,null,2,NA,NA,NA,sub109
d3-animate-choice,205,839989,0.0-76.0-1.23,FALSE,FALSE,FALSE,FALSE,"""event"",""trial"",""time""
""fullscreenenter"",""5"",""17704""
","
","
","""event"",""trial"",""time""
""fullscreenenter"",""5"",""17704""
","
",416.53999988920987,NA,49,NA,NA,3000,1,NA,NA,images/redplanet1.jpg,images/alien2,images/alien1,images/rocket1,images/alien1,images/nothing.png,2,real,false,1,rare,0,2020-06-29T02:42:45Z,sub109
two-step-fixation,206,840993,0.0-76.0-2.23,FALSE,FALSE,FALSE,FALSE,"""event"",""trial"",""time""
""fullscreenenter"",""5"",""17704""
","
","
","""event"",""trial"",""time""
""fullscreenenter"",""5"",""17704""
","
",NA,images/earth.jpg,NA,NA,NA,NA,NA,NA,NA,NA,NA,NA,NA,NA,NA,fixation,NA,NA,NA,NA,NA,NA,sub109
d3-animate-choice,207,843301,0.0-76.0-0.24,FALSE,FALSE,FALSE,FALSE,"""event"",""trial"",""time""
""fullscreenenter"",""5"",""17704""
","
","
","""event"",""trial"",""time""
""fullscreenenter"",""5"",""17704""
","
",303.19499992765486,NA,49,NA,NA,3000,1,NA,NA,images/earth.jpg,images/rocket1,images/rocket2,null,images/rocket2,NA,1,real,null,1,NA,NA,NA,sub109
d3-animate-choice,208,845710,0.0-76.0-1.24,FALSE,FALSE,FALSE,FALSE,"""event"",""trial"",""time""
""fullscreenenter"",""5"",""17704""
","
","
","""event"",""trial"",""time""
""fullscreenenter"",""5"",""17704""
","
",403.8799999980256,NA,48,NA,NA,3000,1,NA,NA,images/purpleplanet.jpg,images/alien4,images/alien3,images/rocket2,images/alien4,images/t.png,2,real,false,2,rare,1,2020-06-29T02:42:51Z,sub109
two-step-fixation,209,846716,0.0-76.0-2.24,FALSE,FALSE,FALSE,FALSE,"""event"",""trial"",""time""
""fullscreenenter"",""5"",""17704""
","
","
","""event"",""trial"",""time""
""fullscreenenter"",""5"",""17704""
","
",NA,images/earth.jpg,NA,NA,NA,NA,NA,NA,NA,NA,NA,NA,NA,NA,NA,fixation,NA,NA,NA,NA,NA,NA,sub109
d3-animate-choice,210,849377,0.0-76.0-0.25,FALSE,FALSE,FALSE,FALSE,"""event"",""trial"",""time""
""fullscreenenter"",""5"",""17704""
","
","
","""event"",""trial"",""time""
""fullscreenenter"",""5"",""17704""
","
",655.7000000029802,NA,49,NA,NA,3000,1,NA,NA,images/earth.jpg,images/rocket1,images/rocket2,null,images/rocket2,NA,1,real,null,1,NA,NA,NA,sub109
d3-animate-choice,211,851793,0.0-76.0-1.25,FALSE,FALSE,FALSE,FALSE,"""event"",""trial"",""time""
""fullscreenenter"",""5"",""17704""
","
","
","""event"",""trial"",""time""
""fullscreenenter"",""5"",""17704""
","
",410.69000004790723,NA,48,NA,NA,3000,1,NA,NA,images/purpleplanet.jpg,images/alien4,images/alien3,images/rocket2,images/alien4,images/t.png,2,real,false,2,rare,1,2020-06-29T02:42:57Z,sub109
two-step-fixation,212,852797,0.0-76.0-2.25,FALSE,FALSE,FALSE,FALSE,"""event"",""trial"",""time""
""fullscreenenter"",""5"",""17704""
","
","
","""event"",""trial"",""time""
""fullscreenenter"",""5"",""17704""
","
",NA,images/earth.jpg,NA,NA,NA,NA,NA,NA,NA,NA,NA,NA,NA,NA,NA,fixation,NA,NA,NA,NA,NA,NA,sub109
d3-animate-choice,213,855287,0.0-76.0-0.26,FALSE,FALSE,FALSE,FALSE,"""event"",""trial"",""time""
""fullscreenenter"",""5"",""17704""
","
","
","""event"",""trial"",""time""
""fullscreenenter"",""5"",""17704""
","
",483.89499995391816,NA,49,NA,NA,3000,1,NA,NA,images/earth.jpg,images/rocket1,images/rocket2,null,images/rocket2,NA,1,real,null,1,NA,NA,NA,sub109
d3-animate-choice,214,857809,0.0-76.0-1.26,FALSE,FALSE,FALSE,FALSE,"""event"",""trial"",""time""
""fullscreenenter"",""5"",""17704""
","
","
","""event"",""trial"",""time""
""fullscreenenter"",""5"",""17704""
","
",516.5999999735504,NA,48,NA,NA,3000,1,NA,NA,images/redplanet1.jpg,images/alien2,images/alien1,images/rocket2,images/alien2,images/t.png,2,real,true,2,common,1,2020-06-29T02:43:03Z,sub109
two-step-fixation,215,858813,0.0-76.0-2.26,FALSE,FALSE,FALSE,FALSE,"""event"",""trial"",""time""
""fullscreenenter"",""5"",""17704""
","
","
","""event"",""trial"",""time""
""fullscreenenter"",""5"",""17704""
","
",NA,images/earth.jpg,NA,NA,NA,NA,NA,NA,NA,NA,NA,NA,NA,NA,NA,fixation,NA,NA,NA,NA,NA,NA,sub109
d3-animate-choice,216,861279,0.0-76.0-0.27,FALSE,FALSE,FALSE,FALSE,"""event"",""trial"",""time""
""fullscreenenter"",""5"",""17704""
","
","
","""event"",""trial"",""time""
""fullscreenenter"",""5"",""17704""
","
",461.56000008340925,NA,48,NA,NA,3000,1,NA,NA,images/earth.jpg,images/rocket1,images/rocket2,null,images/rocket1,NA,1,real,null,2,NA,NA,NA,sub109
d3-animate-choice,217,863694,0.0-76.0-1.27,FALSE,FALSE,FALSE,FALSE,"""event"",""trial"",""time""
""fullscreenenter"",""5"",""17704""
","
","
","""event"",""trial"",""time""
""fullscreenenter"",""5"",""17704""
","
",408.1999999471009,NA,48,NA,NA,3000,1,NA,NA,images/redplanet1.jpg,images/alien2,images/alien1,images/rocket1,images/alien2,images/nothing.png,2,real,false,2,rare,0,2020-06-29T02:43:09Z,sub109
two-step-fixation,218,864700,0.0-76.0-2.27,FALSE,FALSE,FALSE,FALSE,"""event"",""trial"",""time""
""fullscreenenter"",""5"",""17704""
","
","
","""event"",""trial"",""time""
""fullscreenenter"",""5"",""17704""
","
",NA,images/earth.jpg,NA,NA,NA,NA,NA,NA,NA,NA,NA,NA,NA,NA,NA,fixation,NA,NA,NA,NA,NA,NA,sub109
d3-animate-choice,219,867013,0.0-76.0-0.28,FALSE,FALSE,FALSE,FALSE,"""event"",""trial"",""time""
""fullscreenenter"",""5"",""17704""
","
","
","""event"",""trial"",""time""
""fullscreenenter"",""5"",""17704""
","
",308.1800000509247,NA,48,NA,NA,3000,1,NA,NA,images/earth.jpg,images/rocket1,images/rocket2,null,images/rocket1,NA,1,real,null,2,NA,NA,NA,sub109
d3-animate-choice,220,869385,0.0-76.0-1.28,FALSE,FALSE,FALSE,FALSE,"""event"",""trial"",""time""
""fullscreenenter"",""5"",""17704""
","
","
","""event"",""trial"",""time""
""fullscreenenter"",""5"",""17704""
","
",367.1600000234321,NA,49,NA,NA,3000,1,NA,NA,images/purpleplanet.jpg,images/alien4,images/alien3,images/rocket1,images/alien3,images/t.png,2,real,true,1,common,1,2020-06-29T02:43:14Z,sub109
two-step-fixation,221,870390,0.0-76.0-2.28,FALSE,FALSE,FALSE,FALSE,"""event"",""trial"",""time""
""fullscreenenter"",""5"",""17704""
","
","
","""event"",""trial"",""time""
""fullscreenenter"",""5"",""17704""
","
",NA,images/earth.jpg,NA,NA,NA,NA,NA,NA,NA,NA,NA,NA,NA,NA,NA,fixation,NA,NA,NA,NA,NA,NA,sub109
d3-animate-choice,222,872792,0.0-76.0-0.29,FALSE,FALSE,FALSE,FALSE,"""event"",""trial"",""time""
""fullscreenenter"",""5"",""17704""
","
","
","""event"",""trial"",""time""
""fullscreenenter"",""5"",""17704""
","
",398.91999994870275,NA,48,NA,NA,3000,1,NA,NA,images/earth.jpg,images/rocket1,images/rocket2,null,images/rocket1,NA,1,real,null,2,NA,NA,NA,sub109
d3-animate-choice,223,875156,0.0-76.0-1.29,FALSE,FALSE,FALSE,FALSE,"""event"",""trial"",""time""
""fullscreenenter"",""5"",""17704""
","
","
","""event"",""trial"",""time""
""fullscreenenter"",""5"",""17704""
","
",359.0550000080839,NA,49,NA,NA,3000,1,NA,NA,images/purpleplanet.jpg,images/alien4,images/alien3,images/rocket1,images/alien3,images/t.png,2,real,true,1,common,1,2020-06-29T02:43:20Z,sub109
two-step-fixation,224,876161,0.0-76.0-2.29,FALSE,FALSE,FALSE,FALSE,"""event"",""trial"",""time""
""fullscreenenter"",""5"",""17704""
","
","
","""event"",""trial"",""time""
""fullscreenenter"",""5"",""17704""
","
",NA,images/earth.jpg,NA,NA,NA,NA,NA,NA,NA,NA,NA,NA,NA,NA,NA,fixation,NA,NA,NA,NA,NA,NA,sub109
d3-animate-choice,225,878703,0.0-76.0-0.30,FALSE,FALSE,FALSE,FALSE,"""event"",""trial"",""time""
""fullscreenenter"",""5"",""17704""
","
","
","""event"",""trial"",""time""
""fullscreenenter"",""5"",""17704""
","
",536.6799999028444,NA,48,NA,NA,3000,1,NA,NA,images/earth.jpg,images/rocket1,images/rocket2,null,images/rocket1,NA,1,real,null,2,NA,NA,NA,sub109
d3-animate-choice,226,881074,0.0-76.0-1.30,FALSE,FALSE,FALSE,FALSE,"""event"",""trial"",""time""
""fullscreenenter"",""5"",""17704""
","
","
","""event"",""trial"",""time""
""fullscreenenter"",""5"",""17704""
","
",367.19000001903623,NA,49,NA,NA,3000,1,NA,NA,images/redplanet1.jpg,images/alien2,images/alien1,images/rocket1,images/alien1,images/t.png,2,real,false,1,rare,1,2020-06-29T02:43:26Z,sub109
two-step-fixation,227,882080,0.0-76.0-2.30,FALSE,FALSE,FALSE,FALSE,"""event"",""trial"",""time""
""fullscreenenter"",""5"",""17704""
","
","
","""event"",""trial"",""time""
""fullscreenenter"",""5"",""17704""
","
",NA,images/earth.jpg,NA,NA,NA,NA,NA,NA,NA,NA,NA,NA,NA,NA,NA,fixation,NA,NA,NA,NA,NA,NA,sub109
d3-animate-choice,228,884620,0.0-76.0-0.31,FALSE,FALSE,FALSE,FALSE,"""event"",""trial"",""time""
""fullscreenenter"",""5"",""17704""
","
","
","""event"",""trial"",""time""
""fullscreenenter"",""5"",""17704""
","
",534.6650000428781,NA,48,NA,NA,3000,1,NA,NA,images/earth.jpg,images/rocket1,images/rocket2,null,images/rocket1,NA,1,real,null,2,NA,NA,NA,sub109
d3-animate-choice,229,887092,0.0-76.0-1.31,FALSE,FALSE,FALSE,FALSE,"""event"",""trial"",""time""
""fullscreenenter"",""5"",""17704""
","
","
","""event"",""trial"",""time""
""fullscreenenter"",""5"",""17704""
","
",466.1850000265986,NA,49,NA,NA,3000,1,NA,NA,images/purpleplanet.jpg,images/alien4,images/alien3,images/rocket1,images/alien3,images/nothing.png,2,real,true,1,common,0,2020-06-29T02:43:32Z,sub109
two-step-fixation,230,888097,0.0-76.0-2.31,FALSE,FALSE,FALSE,FALSE,"""event"",""trial"",""time""
""fullscreenenter"",""5"",""17704""
","
","
","""event"",""trial"",""time""
""fullscreenenter"",""5"",""17704""
","
",NA,images/earth.jpg,NA,NA,NA,NA,NA,NA,NA,NA,NA,NA,NA,NA,NA,fixation,NA,NA,NA,NA,NA,NA,sub109
d3-animate-choice,231,890796,0.0-76.0-0.32,FALSE,FALSE,FALSE,FALSE,"""event"",""trial"",""time""
""fullscreenenter"",""5"",""17704""
","
","
","""event"",""trial"",""time""
""fullscreenenter"",""5"",""17704""
","
",596.6649999609217,NA,50,NA,NA,3000,1,695.9150000475347,49,images/earth.jpg,images/rocket1,images/rocket2,null,images/rocket2,NA,1,real,null,NA,NA,NA,NA,sub109
d3-animate-choice,232,893563,0.0-76.0-1.32,FALSE,FALSE,FALSE,FALSE,"""event"",""trial"",""time""
""fullscreenenter"",""5"",""17704""
","
","
","""event"",""trial"",""time""
""fullscreenenter"",""5"",""17704""
","
",762.6300000119954,NA,48,NA,NA,3000,1,NA,NA,images/redplanet1.jpg,images/alien2,images/alien1,images/rocket2,images/alien2,images/nothing.png,2,real,true,2,common,0,2020-06-29T02:43:38Z,sub109
two-step-fixation,233,894568,0.0-76.0-2.32,FALSE,FALSE,FALSE,FALSE,"""event"",""trial"",""time""
""fullscreenenter"",""5"",""17704""
","
","
","""event"",""trial"",""time""
""fullscreenenter"",""5"",""17704""
","
",NA,images/earth.jpg,NA,NA,NA,NA,NA,NA,NA,NA,NA,NA,NA,NA,NA,fixation,NA,NA,NA,NA,NA,NA,sub109
d3-animate-choice,234,896899,0.0-76.0-0.33,FALSE,FALSE,FALSE,FALSE,"""event"",""trial"",""time""
""fullscreenenter"",""5"",""17704""
","
","
","""event"",""trial"",""time""
""fullscreenenter"",""5"",""17704""
","
",326.7449999693781,NA,49,NA,NA,3000,1,NA,NA,images/earth.jpg,images/rocket1,images/rocket2,null,images/rocket2,NA,1,real,null,1,NA,NA,NA,sub109
d3-animate-choice,235,899305,0.0-76.0-1.33,FALSE,FALSE,FALSE,FALSE,"""event"",""trial"",""time""
""fullscreenenter"",""5"",""17704""
","
","
","""event"",""trial"",""time""
""fullscreenenter"",""5"",""17704""
","
",400.05500009283423,NA,48,NA,NA,3000,1,NA,NA,images/redplanet1.jpg,images/alien2,images/alien1,images/rocket2,images/alien2,images/nothing.png,2,real,true,2,common,0,2020-06-29T02:43:44Z,sub109
two-step-fixation,236,900311,0.0-76.0-2.33,FALSE,FALSE,FALSE,FALSE,"""event"",""trial"",""time""
""fullscreenenter"",""5"",""17704""
","
","
","""event"",""trial"",""time""
""fullscreenenter"",""5"",""17704""
","
",NA,images/earth.jpg,NA,NA,NA,NA,NA,NA,NA,NA,NA,NA,NA,NA,NA,fixation,NA,NA,NA,NA,NA,NA,sub109
d3-animate-choice,237,902621,0.0-76.0-0.34,FALSE,FALSE,FALSE,FALSE,"""event"",""trial"",""time""
""fullscreenenter"",""5"",""17704""
","
","
","""event"",""trial"",""time""
""fullscreenenter"",""5"",""17704""
","
",303.1100000953302,NA,48,NA,NA,3000,1,NA,NA,images/earth.jpg,images/rocket1,images/rocket2,null,images/rocket1,NA,1,real,null,2,NA,NA,NA,sub109
d3-animate-choice,238,905168,0.0-76.0-1.34,FALSE,FALSE,FALSE,FALSE,"""event"",""trial"",""time""
""fullscreenenter"",""5"",""17704""
","
","
","""event"",""trial"",""time""
""fullscreenenter"",""5"",""17704""
","
",541.7400000151247,NA,49,NA,NA,3000,1,NA,NA,images/purpleplanet.jpg,images/alien4,images/alien3,images/rocket1,images/alien3,images/nothing.png,2,real,true,1,common,0,2020-06-29T02:43:50Z,sub109
two-step-fixation,239,906172,0.0-76.0-2.34,FALSE,FALSE,FALSE,FALSE,"""event"",""trial"",""time""
""fullscreenenter"",""5"",""17704""
","
","
","""event"",""trial"",""time""
""fullscreenenter"",""5"",""17704""
","
",NA,images/earth.jpg,NA,NA,NA,NA,NA,NA,NA,NA,NA,NA,NA,NA,NA,fixation,NA,NA,NA,NA,NA,NA,sub109
d3-animate-choice,240,908533,0.0-76.0-0.35,FALSE,FALSE,FALSE,FALSE,"""event"",""trial"",""time""
""fullscreenenter"",""5"",""17704""
","
","
","""event"",""trial"",""time""
""fullscreenenter"",""5"",""17704""
","
",356.0350000625476,NA,48,NA,NA,3000,1,NA,NA,images/earth.jpg,images/rocket1,images/rocket2,null,images/rocket1,NA,1,real,null,2,NA,NA,NA,sub109
d3-animate-choice,241,910848,0.0-76.0-1.35,FALSE,FALSE,FALSE,FALSE,"""event"",""trial"",""time""
""fullscreenenter"",""5"",""17704""
","
","
","""event"",""trial"",""time""
""fullscreenenter"",""5"",""17704""
","
",310.1899999892339,NA,48,NA,NA,3000,1,NA,NA,images/purpleplanet.jpg,images/alien4,images/alien3,images/rocket1,images/alien4,images/nothing.png,2,real,true,2,common,0,2020-06-29T02:43:56Z,sub109
two-step-fixation,242,911852,0.0-76.0-2.35,FALSE,FALSE,FALSE,FALSE,"""event"",""trial"",""time""
""fullscreenenter"",""5"",""17704""
","
","
","""event"",""trial"",""time""
""fullscreenenter"",""5"",""17704""
","
",NA,images/earth.jpg,NA,NA,NA,NA,NA,NA,NA,NA,NA,NA,NA,NA,NA,fixation,NA,NA,NA,NA,NA,NA,sub109
d3-animate-choice,243,914144,0.0-76.0-0.36,FALSE,FALSE,FALSE,FALSE,"""event"",""trial"",""time""
""fullscreenenter"",""5"",""17704""
","
","
","""event"",""trial"",""time""
""fullscreenenter"",""5"",""17704""
","
",286.9850000133738,NA,49,NA,NA,3000,1,NA,NA,images/earth.jpg,images/rocket1,images/rocket2,null,images/rocket2,NA,1,real,null,1,NA,NA,NA,sub109
d3-animate-choice,244,916482,0.0-76.0-1.36,FALSE,FALSE,FALSE,FALSE,"""event"",""trial"",""time""
""fullscreenenter"",""5"",""17704""
","
","
","""event"",""trial"",""time""
""fullscreenenter"",""5"",""17704""
","
",333.48000003024936,NA,48,NA,NA,3000,1,NA,NA,images/purpleplanet.jpg,images/alien4,images/alien3,images/rocket2,images/alien4,images/t.png,2,real,false,2,rare,1,2020-06-29T02:44:01Z,sub109
two-step-fixation,245,917487,0.0-76.0-2.36,FALSE,FALSE,FALSE,FALSE,"""event"",""trial"",""time""
""fullscreenenter"",""5"",""17704""
","
","
","""event"",""trial"",""time""
""fullscreenenter"",""5"",""17704""
","
",NA,images/earth.jpg,NA,NA,NA,NA,NA,NA,NA,NA,NA,NA,NA,NA,NA,fixation,NA,NA,NA,NA,NA,NA,sub109
d3-animate-choice,246,920086,0.0-76.0-0.37,FALSE,FALSE,FALSE,FALSE,"""event"",""trial"",""time""
""fullscreenenter"",""5"",""17704""
","
","
","""event"",""trial"",""time""
""fullscreenenter"",""5"",""17704""
","
",594.9900000123307,NA,48,NA,NA,3000,1,NA,NA,images/earth.jpg,images/rocket1,images/rocket2,null,images/rocket1,NA,1,real,null,2,NA,NA,NA,sub109
d3-animate-choice,247,922891,0.0-76.0-1.37,FALSE,FALSE,FALSE,FALSE,"""event"",""trial"",""time""
""fullscreenenter"",""5"",""17704""
","
","
","""event"",""trial"",""time""
""fullscreenenter"",""5"",""17704""
","
",799.7200000099838,NA,48,NA,NA,3000,1,NA,NA,images/purpleplanet.jpg,images/alien4,images/alien3,images/rocket1,images/alien4,images/nothing.png,2,real,true,2,common,0,2020-06-29T02:44:08Z,sub109
two-step-fixation,248,923896,0.0-76.0-2.37,FALSE,FALSE,FALSE,FALSE,"""event"",""trial"",""time""
""fullscreenenter"",""5"",""17704""
","
","
","""event"",""trial"",""time""
""fullscreenenter"",""5"",""17704""
","
",NA,images/earth.jpg,NA,NA,NA,NA,NA,NA,NA,NA,NA,NA,NA,NA,NA,fixation,NA,NA,NA,NA,NA,NA,sub109
d3-animate-choice,249,926449,0.0-76.0-0.38,FALSE,FALSE,FALSE,FALSE,"""event"",""trial"",""time""
""fullscreenenter"",""5"",""17704""
","
","
","""event"",""trial"",""time""
""fullscreenenter"",""5"",""17704""
","
",547.8299999376759,NA,49,NA,NA,3000,1,NA,NA,images/earth.jpg,images/rocket1,images/rocket2,null,images/rocket2,NA,1,real,null,1,NA,NA,NA,sub109
d3-animate-choice,250,928930,0.0-76.0-1.38,FALSE,FALSE,FALSE,FALSE,"""event"",""trial"",""time""
""fullscreenenter"",""5"",""17704""
","
","
","""event"",""trial"",""time""
""fullscreenenter"",""5"",""17704""
","
",476.13999992609024,NA,48,NA,NA,3000,1,NA,NA,images/redplanet1.jpg,images/alien2,images/alien1,images/rocket2,images/alien2,images/t.png,2,real,true,2,common,1,2020-06-29T02:44:14Z,sub109
two-step-fixation,251,929935,0.0-76.0-2.38,FALSE,FALSE,FALSE,FALSE,"""event"",""trial"",""time""
""fullscreenenter"",""5"",""17704""
","
","
","""event"",""trial"",""time""
""fullscreenenter"",""5"",""17704""
","
",NA,images/earth.jpg,NA,NA,NA,NA,NA,NA,NA,NA,NA,NA,NA,NA,NA,fixation,NA,NA,NA,NA,NA,NA,sub109
d3-animate-choice,252,932401,0.0-76.0-0.39,FALSE,FALSE,FALSE,FALSE,"""event"",""trial"",""time""
""fullscreenenter"",""5"",""17704""
","
","
","""event"",""trial"",""time""
""fullscreenenter"",""5"",""17704""
","
",460.32999991439283,NA,49,NA,NA,3000,1,NA,NA,images/earth.jpg,images/rocket1,images/rocket2,null,images/rocket2,NA,1,real,null,1,NA,NA,NA,sub109
d3-animate-choice,253,934954,0.0-76.0-1.39,FALSE,FALSE,FALSE,FALSE,"""event"",""trial"",""time""
""fullscreenenter"",""5"",""17704""
","
","
","""event"",""trial"",""time""
""fullscreenenter"",""5"",""17704""
","
",546.70500010252,NA,48,NA,NA,3000,1,NA,NA,images/purpleplanet.jpg,images/alien4,images/alien3,images/rocket2,images/alien4,images/nothing.png,2,real,false,2,rare,0,2020-06-29T02:44:20Z,sub109
two-step-fixation,254,935959,0.0-76.0-2.39,FALSE,FALSE,FALSE,FALSE,"""event"",""trial"",""time""
""fullscreenenter"",""5"",""17704""
","
","
","""event"",""trial"",""time""
""fullscreenenter"",""5"",""17704""
","
",NA,images/earth.jpg,NA,NA,NA,NA,NA,NA,NA,NA,NA,NA,NA,NA,NA,fixation,NA,NA,NA,NA,NA,NA,sub109
d3-animate-choice,255,938325,0.0-76.0-0.40,FALSE,FALSE,FALSE,FALSE,"""event"",""trial"",""time""
""fullscreenenter"",""5"",""17704""
","
","
","""event"",""trial"",""time""
""fullscreenenter"",""5"",""17704""
","
",361.3599999807775,NA,49,NA,NA,3000,1,NA,NA,images/earth.jpg,images/rocket1,images/rocket2,null,images/rocket2,NA,1,real,null,1,NA,NA,NA,sub109
d3-animate-choice,256,940729,0.0-76.0-1.40,FALSE,FALSE,FALSE,FALSE,"""event"",""trial"",""time""
""fullscreenenter"",""5"",""17704""
","
","
","""event"",""trial"",""time""
""fullscreenenter"",""5"",""17704""
","
",398.9999999757856,NA,49,NA,NA,3000,1,NA,NA,images/redplanet1.jpg,images/alien2,images/alien1,images/rocket2,images/alien1,images/t.png,2,real,true,1,common,1,2020-06-29T02:44:26Z,sub109
two-step-fixation,257,941735,0.0-76.0-2.40,FALSE,FALSE,FALSE,FALSE,"""event"",""trial"",""time""
""fullscreenenter"",""5"",""17704""
","
","
","""event"",""trial"",""time""
""fullscreenenter"",""5"",""17704""
","
",NA,images/earth.jpg,NA,NA,NA,NA,NA,NA,NA,NA,NA,NA,NA,NA,NA,fixation,NA,NA,NA,NA,NA,NA,sub109
d3-animate-choice,258,944108,0.0-76.0-0.41,FALSE,FALSE,FALSE,FALSE,"""event"",""trial"",""time""
""fullscreenenter"",""5"",""17704""
","
","
","""event"",""trial"",""time""
""fullscreenenter"",""5"",""17704""
","
",368.8550000078976,NA,49,NA,NA,3000,1,NA,NA,images/earth.jpg,images/rocket1,images/rocket2,null,images/rocket2,NA,1,real,null,1,NA,NA,NA,sub109
d3-animate-choice,259,946478,0.0-76.0-1.41,FALSE,FALSE,FALSE,FALSE,"""event"",""trial"",""time""
""fullscreenenter"",""5"",""17704""
","
","
","""event"",""trial"",""time""
""fullscreenenter"",""5"",""17704""
","
",364.2049999907613,NA,49,NA,NA,3000,1,NA,NA,images/redplanet1.jpg,images/alien2,images/alien1,images/rocket2,images/alien1,images/t.png,2,real,true,1,common,1,2020-06-29T02:44:31Z,sub109
two-step-fixation,260,947482,0.0-76.0-2.41,FALSE,FALSE,FALSE,FALSE,"""event"",""trial"",""time""
""fullscreenenter"",""5"",""17704""
","
","
","""event"",""trial"",""time""
""fullscreenenter"",""5"",""17704""
","
",NA,images/earth.jpg,NA,NA,NA,NA,NA,NA,NA,NA,NA,NA,NA,NA,NA,fixation,NA,NA,NA,NA,NA,NA,sub109
d3-animate-choice,261,950036,0.0-76.0-0.42,FALSE,FALSE,FALSE,FALSE,"""event"",""trial"",""time""
""fullscreenenter"",""5"",""17704""
","
","
","""event"",""trial"",""time""
""fullscreenenter"",""5"",""17704""
","
",549.6249999850988,NA,49,NA,NA,3000,1,NA,NA,images/earth.jpg,images/rocket1,images/rocket2,null,images/rocket2,NA,1,real,null,1,NA,NA,NA,sub109
d3-animate-choice,262,952677,0.0-76.0-1.42,FALSE,FALSE,FALSE,FALSE,"""event"",""trial"",""time""
""fullscreenenter"",""5"",""17704""
","
","
","""event"",""trial"",""time""
""fullscreenenter"",""5"",""17704""
","
",637.65000004787,NA,48,NA,NA,3000,1,NA,NA,images/purpleplanet.jpg,images/alien4,images/alien3,images/rocket2,images/alien4,images/t.png,2,real,false,2,rare,1,2020-06-29T02:44:37Z,sub109
two-step-fixation,263,953683,0.0-76.0-2.42,FALSE,FALSE,FALSE,FALSE,"""event"",""trial"",""time""
""fullscreenenter"",""5"",""17704""
","
","
","""event"",""trial"",""time""
""fullscreenenter"",""5"",""17704""
","
",NA,images/earth.jpg,NA,NA,NA,NA,NA,NA,NA,NA,NA,NA,NA,NA,NA,fixation,NA,NA,NA,NA,NA,NA,sub109
d3-animate-choice,264,955999,0.0-76.0-0.43,FALSE,FALSE,FALSE,FALSE,"""event"",""trial"",""time""
""fullscreenenter"",""5"",""17704""
","
","
","""event"",""trial"",""time""
""fullscreenenter"",""5"",""17704""
","
",310.88000000454485,NA,49,NA,NA,3000,1,NA,NA,images/earth.jpg,images/rocket1,images/rocket2,null,images/rocket2,NA,1,real,null,1,NA,NA,NA,sub109
d3-animate-choice,265,958833,0.0-76.0-1.43,FALSE,FALSE,FALSE,FALSE,"""event"",""trial"",""time""
""fullscreenenter"",""5"",""17704""
","
","
","""event"",""trial"",""time""
""fullscreenenter"",""5"",""17704""
","
",829.5899999793619,NA,49,NA,NA,3000,1,NA,NA,images/redplanet1.jpg,images/alien2,images/alien1,images/rocket2,images/alien1,images/t.png,2,real,true,1,common,1,2020-06-29T02:44:44Z,sub109
two-step-fixation,266,959838,0.0-76.0-2.43,FALSE,FALSE,FALSE,FALSE,"""event"",""trial"",""time""
""fullscreenenter"",""5"",""17704""
","
","
","""event"",""trial"",""time""
""fullscreenenter"",""5"",""17704""
","
",NA,images/earth.jpg,NA,NA,NA,NA,NA,NA,NA,NA,NA,NA,NA,NA,NA,fixation,NA,NA,NA,NA,NA,NA,sub109
d3-animate-choice,267,962161,0.0-76.0-0.44,FALSE,FALSE,FALSE,FALSE,"""event"",""trial"",""time""
""fullscreenenter"",""5"",""17704""
","
","
","""event"",""trial"",""time""
""fullscreenenter"",""5"",""17704""
","
",318.34999995771796,NA,48,NA,NA,3000,1,NA,NA,images/earth.jpg,images/rocket1,images/rocket2,null,images/rocket1,NA,1,real,null,2,NA,NA,NA,sub109
d3-animate-choice,268,964623,0.0-76.0-1.44,FALSE,FALSE,FALSE,FALSE,"""event"",""trial"",""time""
""fullscreenenter"",""5"",""17704""
","
","
","""event"",""trial"",""time""
""fullscreenenter"",""5"",""17704""
","
",457.1699999505654,NA,49,NA,NA,3000,1,NA,NA,images/purpleplanet.jpg,images/alien4,images/alien3,images/rocket1,images/alien3,images/t.png,2,real,true,1,common,1,2020-06-29T02:44:49Z,sub109
two-step-fixation,269,965628,0.0-76.0-2.44,FALSE,FALSE,FALSE,FALSE,"""event"",""trial"",""time""
""fullscreenenter"",""5"",""17704""
","
","
","""event"",""trial"",""time""
""fullscreenenter"",""5"",""17704""
","
",NA,images/earth.jpg,NA,NA,NA,NA,NA,NA,NA,NA,NA,NA,NA,NA,NA,fixation,NA,NA,NA,NA,NA,NA,sub109
d3-animate-choice,270,967902,0.0-76.0-0.45,FALSE,FALSE,FALSE,FALSE,"""event"",""trial"",""time""
""fullscreenenter"",""5"",""17704""
","
","
","""event"",""trial"",""time""
""fullscreenenter"",""5"",""17704""
","
",269.3849999923259,NA,48,NA,NA,3000,1,NA,NA,images/earth.jpg,images/rocket1,images/rocket2,null,images/rocket1,NA,1,real,null,2,NA,NA,NA,sub109
d3-animate-choice,271,970303,0.0-76.0-1.45,FALSE,FALSE,FALSE,FALSE,"""event"",""trial"",""time""
""fullscreenenter"",""5"",""17704""
","
","
","""event"",""trial"",""time""
""fullscreenenter"",""5"",""17704""
","
",396.3349999394268,NA,49,NA,NA,3000,1,NA,NA,images/purpleplanet.jpg,images/alien4,images/alien3,images/rocket1,images/alien3,images/t.png,2,real,true,1,common,1,2020-06-29T02:44:55Z,sub109
two-step-fixation,272,971307,0.0-76.0-2.45,FALSE,FALSE,FALSE,FALSE,"""event"",""trial"",""time""
""fullscreenenter"",""5"",""17704""
","
","
","""event"",""trial"",""time""
""fullscreenenter"",""5"",""17704""
","
",NA,images/earth.jpg,NA,NA,NA,NA,NA,NA,NA,NA,NA,NA,NA,NA,NA,fixation,NA,NA,NA,NA,NA,NA,sub109
d3-animate-choice,273,973590,0.0-76.0-0.46,FALSE,FALSE,FALSE,FALSE,"""event"",""trial"",""time""
""fullscreenenter"",""5"",""17704""
","
","
","""event"",""trial"",""time""
""fullscreenenter"",""5"",""17704""
","
",276.97499992791563,NA,48,NA,NA,3000,1,NA,NA,images/earth.jpg,images/rocket1,images/rocket2,null,images/rocket1,NA,1,real,null,2,NA,NA,NA,sub109
d3-animate-choice,274,975983,0.0-76.0-1.46,FALSE,FALSE,FALSE,FALSE,"""event"",""trial"",""time""
""fullscreenenter"",""5"",""17704""
","
","
","""event"",""trial"",""time""
""fullscreenenter"",""5"",""17704""
","
",387.79000006616116,NA,49,NA,NA,3000,1,NA,NA,images/purpleplanet.jpg,images/alien4,images/alien3,images/rocket1,images/alien3,images/nothing.png,2,real,true,1,common,0,2020-06-29T02:45:01Z,sub109
two-step-fixation,275,976988,0.0-76.0-2.46,FALSE,FALSE,FALSE,FALSE,"""event"",""trial"",""time""
""fullscreenenter"",""5"",""17704""
","
","
","""event"",""trial"",""time""
""fullscreenenter"",""5"",""17704""
","
",NA,images/earth.jpg,NA,NA,NA,NA,NA,NA,NA,NA,NA,NA,NA,NA,NA,fixation,NA,NA,NA,NA,NA,NA,sub109
d3-animate-choice,276,979291,0.0-76.0-0.47,FALSE,FALSE,FALSE,FALSE,"""event"",""trial"",""time""
""fullscreenenter"",""5"",""17704""
","
","
","""event"",""trial"",""time""
""fullscreenenter"",""5"",""17704""
","
",298.1549999676645,NA,49,NA,NA,3000,1,NA,NA,images/earth.jpg,images/rocket1,images/rocket2,null,images/rocket2,NA,1,real,null,1,NA,NA,NA,sub109
d3-animate-choice,277,981750,0.0-76.0-1.47,FALSE,FALSE,FALSE,FALSE,"""event"",""trial"",""time""
""fullscreenenter"",""5"",""17704""
","
","
","""event"",""trial"",""time""
""fullscreenenter"",""5"",""17704""
","
",451.9299999810755,NA,48,NA,NA,3000,1,NA,NA,images/redplanet1.jpg,images/alien2,images/alien1,images/rocket2,images/alien2,images/t.png,2,real,true,2,common,1,2020-06-29T02:45:07Z,sub109
two-step-fixation,278,982755,0.0-76.0-2.47,FALSE,FALSE,FALSE,FALSE,"""event"",""trial"",""time""
""fullscreenenter"",""5"",""17704""
","
","
","""event"",""trial"",""time""
""fullscreenenter"",""5"",""17704""
","
",NA,images/earth.jpg,NA,NA,NA,NA,NA,NA,NA,NA,NA,NA,NA,NA,NA,fixation,NA,NA,NA,NA,NA,NA,sub109
d3-animate-choice,279,985181,0.0-76.0-0.48,FALSE,FALSE,FALSE,FALSE,"""event"",""trial"",""time""
""fullscreenenter"",""5"",""17704""
","
","
","""event"",""trial"",""time""
""fullscreenenter"",""5"",""17704""
","
",419.80000003241,NA,49,NA,NA,3000,1,NA,NA,images/earth.jpg,images/rocket1,images/rocket2,null,images/rocket2,NA,1,real,null,1,NA,NA,NA,sub109
d3-animate-choice,280,987572,0.0-76.0-1.48,FALSE,FALSE,FALSE,FALSE,"""event"",""trial"",""time""
""fullscreenenter"",""5"",""17704""
","
","
","""event"",""trial"",""time""
""fullscreenenter"",""5"",""17704""
","
",386.36000000406057,NA,48,NA,NA,3000,1,NA,NA,images/redplanet1.jpg,images/alien2,images/alien1,images/rocket2,images/alien2,images/t.png,2,real,true,2,common,1,2020-06-29T02:45:12Z,sub109
two-step-fixation,281,988576,0.0-76.0-2.48,FALSE,FALSE,FALSE,FALSE,"""event"",""trial"",""time""
""fullscreenenter"",""5"",""17704""
","
