trial_type,trial_index,time_elapsed,internal_node_id,rocket_sides,red_planet_first_rocket,red_display_order,purple_display_order,interactions,blur_events,focus_events,fullscreenenter_events,fullscreenexit_events,rt,stimulus,key_press,button_pressed,success,duration,valid_pressed,rts,keys,planet_text,right_text,left_text,center_text,chosen_text,reward_text,trial_stage,practice_trial,transition_type,choice,transition,reward,timestamp,subject_id
pavlovia,0,25,0.0-0.0,TRUE,TRUE,TRUE,TRUE,"
","
","
","
","
",NA,NA,NA,NA,NA,NA,NA,NA,NA,NA,NA,NA,NA,NA,NA,NA,NA,NA,NA,NA,NA,NA,sub95
html-keyboard-response,1,1355,0.0-1.0,TRUE,TRUE,TRUE,TRUE,"
","
","
","
","
",1326.8300000054296,Welcome! Press the space bar to begin.,32,NA,NA,NA,NA,NA,NA,NA,NA,NA,NA,NA,NA,NA,NA,NA,NA,NA,NA,NA,sub95
audio-keyboard-response,2,4469,0.0-2.0,TRUE,TRUE,TRUE,TRUE,"
","
","
","
","
",3115,audio/beep_loop.wav,32,NA,NA,NA,NA,NA,NA,NA,NA,NA,NA,NA,NA,NA,NA,NA,NA,NA,NA,NA,sub95
audio-button-response,3,6955,0.0-3.0,TRUE,TRUE,TRUE,TRUE,"
","
","
","
","
",NaN,audio/fish.mp3,NA,1,NA,NA,NA,NA,NA,NA,NA,NA,NA,NA,NA,NA,NA,NA,NA,NA,NA,NA,sub95
audio-button-response,4,10547,0.0-4.0,TRUE,TRUE,TRUE,TRUE,"""event"",""trial"",""time""
""fullscreenenter"",""5"",""14787""
","
","
","""event"",""trial"",""time""
""fullscreenenter"",""5"",""14787""
","
",NaN,audio/tiger.mp3,NA,4,NA,NA,NA,NA,NA,NA,NA,NA,NA,NA,NA,NA,NA,NA,NA,NA,NA,NA,sub95
fullscreen,5,15760,0.0-5.0,TRUE,TRUE,TRUE,TRUE,"""event"",""trial"",""time""
""fullscreenenter"",""5"",""14787""
","
","
","""event"",""trial"",""time""
""fullscreenenter"",""5"",""14787""
","
",NA,NA,NA,NA,TRUE,NA,NA,NA,NA,NA,NA,NA,NA,NA,NA,NA,NA,NA,NA,NA,NA,NA,sub95
d3-instructions,6,30024,0.0-6.0,TRUE,TRUE,TRUE,TRUE,"""event"",""trial"",""time""
""fullscreenenter"",""5"",""14787""
","
","
","""event"",""trial"",""time""
""fullscreenenter"",""5"",""14787""
","
",NA,NA,NA,NA,NA,NA,NA,NA,NA,NA,NA,NA,NA,NA,NA,NA,NA,NA,NA,NA,NA,NA,sub95
d3-instructions,7,37410,0.0-7.0,TRUE,TRUE,TRUE,TRUE,"""event"",""trial"",""time""
""fullscreenenter"",""5"",""14787""
","
","
","""event"",""trial"",""time""
""fullscreenenter"",""5"",""14787""
","
",NA,NA,NA,NA,NA,NA,NA,NA,NA,NA,NA,NA,NA,NA,NA,NA,NA,NA,NA,NA,NA,NA,sub95
d3-instructions,8,44406,0.0-8.0,TRUE,TRUE,TRUE,TRUE,"""event"",""trial"",""time""
""fullscreenenter"",""5"",""14787""
","
","
","""event"",""trial"",""time""
""fullscreenenter"",""5"",""14787""
","
",NA,NA,NA,NA,NA,NA,NA,NA,NA,NA,NA,NA,NA,NA,NA,NA,NA,NA,NA,NA,NA,NA,sub95
d3-instructions,9,54346,0.0-9.0,TRUE,TRUE,TRUE,TRUE,"""event"",""trial"",""time""
""fullscreenenter"",""5"",""14787""
","
","
","""event"",""trial"",""time""
""fullscreenenter"",""5"",""14787""
","
",NA,NA,NA,NA,NA,NA,NA,NA,NA,NA,NA,NA,NA,NA,NA,NA,NA,NA,NA,NA,NA,NA,sub95
d3-instructions,10,68912,0.0-10.0,TRUE,TRUE,TRUE,TRUE,"""event"",""trial"",""time""
""fullscreenenter"",""5"",""14787""
","
","
","""event"",""trial"",""time""
""fullscreenenter"",""5"",""14787""
","
",NA,NA,NA,NA,NA,NA,NA,NA,NA,NA,NA,NA,NA,NA,NA,NA,NA,NA,NA,NA,NA,NA,sub95
d3-animate-choice,11,74953,0.0-11.0,TRUE,TRUE,TRUE,TRUE,"""event"",""trial"",""time""
""fullscreenenter"",""5"",""14787""
","
","
","""event"",""trial"",""time""
""fullscreenenter"",""5"",""14787""
","
",4030.1800000015646,NA,49,NA,NA,3000,1,NA,NA,images/tutgreenplanet.jpg,images/tutalien1,images/tutalien2,null,images/tutalien2,NA,NA,practice,null,NA,NA,NA,NA,sub95
d3-animate-choice,12,78166,0.0-12.0,TRUE,TRUE,TRUE,TRUE,"""event"",""trial"",""time""
""fullscreenenter"",""5"",""14787""
","
","
","""event"",""trial"",""time""
""fullscreenenter"",""5"",""14787""
","
",1202.7299999899697,NA,48,NA,NA,3000,1,NA,NA,images/tutgreenplanet.jpg,images/tutalien1,images/tutalien2,null,images/tutalien1,NA,NA,practice,null,NA,NA,NA,NA,sub95
d3-animate-choice,13,82441,0.0-13.0,TRUE,TRUE,TRUE,TRUE,"""event"",""trial"",""time""
""fullscreenenter"",""5"",""14787""
","
","
","""event"",""trial"",""time""
""fullscreenenter"",""5"",""14787""
","
",2264.999999999418,NA,49,NA,NA,3000,1,NA,NA,images/tutgreenplanet.jpg,images/tutalien1,images/tutalien2,null,images/tutalien2,NA,NA,practice,null,NA,NA,NA,NA,sub95
d3-animate-choice,14,84849,0.0-14.0,TRUE,TRUE,TRUE,TRUE,"""event"",""trial"",""time""
""fullscreenenter"",""5"",""14787""
","
","
","""event"",""trial"",""time""
""fullscreenenter"",""5"",""14787""
","
",398.1399999902351,NA,48,NA,NA,3000,1,NA,NA,images/tutgreenplanet.jpg,images/tutalien1,images/tutalien2,null,images/tutalien1,NA,NA,practice,null,NA,NA,NA,NA,sub95
d3-instructions,15,90585,0.0-15.0,TRUE,TRUE,TRUE,TRUE,"""event"",""trial"",""time""
""fullscreenenter"",""5"",""14787""
","
","
","""event"",""trial"",""time""
""fullscreenenter"",""5"",""14787""
","
",NA,NA,NA,NA,NA,NA,NA,NA,NA,NA,NA,NA,NA,NA,NA,NA,NA,NA,NA,NA,NA,NA,sub95
d3-instructions,16,95215,0.0-16.0,TRUE,TRUE,TRUE,TRUE,"""event"",""trial"",""time""
""fullscreenenter"",""5"",""14787""
","
","
","""event"",""trial"",""time""
""fullscreenenter"",""5"",""14787""
","
",NA,NA,NA,NA,NA,NA,NA,NA,NA,NA,NA,NA,NA,NA,NA,NA,NA,NA,NA,NA,NA,NA,sub95
d3-instructions,17,101054,0.0-17.0,TRUE,TRUE,TRUE,TRUE,"""event"",""trial"",""time""
""fullscreenenter"",""5"",""14787""
","
","
","""event"",""trial"",""time""
""fullscreenenter"",""5"",""14787""
","
",NA,NA,NA,NA,NA,NA,NA,NA,NA,NA,NA,NA,NA,NA,NA,NA,NA,NA,NA,NA,NA,NA,sub95
d3-instructions,18,112586,0.0-18.0,TRUE,TRUE,TRUE,TRUE,"""event"",""trial"",""time""
""fullscreenenter"",""5"",""14787""
","
","
","""event"",""trial"",""time""
""fullscreenenter"",""5"",""14787""
","
",NA,NA,NA,NA,NA,NA,NA,NA,NA,NA,NA,NA,NA,NA,NA,NA,NA,NA,NA,NA,NA,NA,sub95
d3-instructions,19,124286,0.0-19.0,TRUE,TRUE,TRUE,TRUE,"""event"",""trial"",""time""
""fullscreenenter"",""5"",""14787""
","
","
","""event"",""trial"",""time""
""fullscreenenter"",""5"",""14787""
","
",NA,NA,NA,NA,NA,NA,NA,NA,NA,NA,NA,NA,NA,NA,NA,NA,NA,NA,NA,NA,NA,NA,sub95
d3-animate-choice,20,126448,0.0-20.0,TRUE,TRUE,TRUE,TRUE,"""event"",""trial"",""time""
""fullscreenenter"",""5"",""14787""
","
","
","""event"",""trial"",""time""
""fullscreenenter"",""5"",""14787""
","
",156.90500001073815,NA,49,NA,NA,3000,1,"326.6650000005029,513.4000000107335,662.1500000037486,871.7900000046939,1057.7400000038324,1249.6050000045216,1463.6800000007497,1684.7400000115158,1926.820000007865",494949494949494900,images/tutyellowplanet.jpg,null,images/tutalien3,null,images/tutalien3,images/t.png,NA,practice,null,NA,NA,NA,NA,sub95
d3-animate-choice,21,128919,0.0-21.0,TRUE,TRUE,TRUE,TRUE,"""event"",""trial"",""time""
""fullscreenenter"",""5"",""14787""
","
","
","""event"",""trial"",""time""
""fullscreenenter"",""5"",""14787""
","
",465.0300000066636,NA,49,NA,NA,3000,1,"657.4399999954039,855.1250000018626,1129.9549999966985,1347.9999999981374,1544.8100000066916,1744.6499999932712,1964.9650000064867,2192.045000003418,2422.005000000354",494949494949494900,images/tutyellowplanet.jpg,null,images/tutalien3,null,images/tutalien3,images/nothing.png,NA,practice,null,NA,NA,NA,NA,sub95
d3-animate-choice,22,131111,0.0-22.0,TRUE,TRUE,TRUE,TRUE,"""event"",""trial"",""time""
""fullscreenenter"",""5"",""14787""
","
","
","""event"",""trial"",""time""
""fullscreenenter"",""5"",""14787""
","
",187.77499999850988,NA,49,NA,NA,3000,1,"412.64500000397675,624.5300000009593,842.835000003106,1154.0899999963585,1375.4049999988638,1629.5350000000326,1828.349999996135,2174.314999996568",4949494949494949,images/tutyellowplanet.jpg,null,images/tutalien3,null,images/tutalien3,images/t.png,NA,practice,null,NA,NA,NA,NA,sub95
d3-animate-choice,23,133330,0.0-23.0,TRUE,TRUE,TRUE,TRUE,"""event"",""trial"",""time""
""fullscreenenter"",""5"",""14787""
","
","
","""event"",""trial"",""time""
""fullscreenenter"",""5"",""14787""
","
",216.19000000646338,NA,49,NA,NA,3000,1,"477.0800000114832,702.0900000061374,930.145000005723,1145.845000006375,1371.4050000126008,1595.7850000122562,1842.1550000057323,2086.670000004233,2144.9350000038976",494949494949494900,images/tutyellowplanet.jpg,null,images/tutalien3,null,images/tutalien3,images/t.png,NA,practice,null,NA,NA,NA,NA,sub95
d3-animate-choice,24,135438,0.0-24.0,TRUE,TRUE,TRUE,TRUE,"""event"",""trial"",""time""
""fullscreenenter"",""5"",""14787""
","
","
","""event"",""trial"",""time""
""fullscreenenter"",""5"",""14787""
","
",104.77000000537373,NA,49,NA,NA,3000,1,"341.8200000014622,592.2549999959301,810.8900000079302,1042.7750000089873,1252.8000000020256,1491.6550000052666,1691.9300000008661,1914.8850000055972",4949494949494949,images/tutyellowplanet.jpg,null,images/tutalien3,null,images/tutalien3,images/t.png,NA,practice,null,NA,NA,NA,NA,sub95
d3-animate-choice,25,137451,0.0-25.0,TRUE,TRUE,TRUE,TRUE,"""event"",""trial"",""time""
""fullscreenenter"",""5"",""14787""
","
","
","""event"",""trial"",""time""
""fullscreenenter"",""5"",""14787""
","
",9.30000000516884,NA,49,NA,NA,3000,1,"257.515000004787,485.7999999949243,716.5349999995669,939.3399999971734,1199.9599999981,1441.2049999955343,1684.720000004745,1953.494999994291",4949494949494949,images/tutyellowplanet.jpg,null,images/tutalien3,null,images/tutalien3,images/nothing.png,NA,practice,null,NA,NA,NA,NA,sub95
d3-animate-choice,26,139631,0.0-26.0,TRUE,TRUE,TRUE,TRUE,"""event"",""trial"",""time""
""fullscreenenter"",""5"",""14787""
","
","
","""event"",""trial"",""time""
""fullscreenenter"",""5"",""14787""
","
",177.10000000079162,NA,49,NA,NA,3000,1,"443.32500000018626,713.6800000007497,967.915000001085,1241.359999999986,1497.3099999915576,2010.6999999989057",494949494949,images/tutyellowplanet.jpg,null,images/tutalien3,null,images/tutalien3,images/t.png,NA,practice,null,NA,NA,NA,NA,sub95
d3-animate-choice,27,141735,0.0-27.0,TRUE,TRUE,TRUE,TRUE,"""event"",""trial"",""time""
""fullscreenenter"",""5"",""14787""
","
","
","""event"",""trial"",""time""
""fullscreenenter"",""5"",""14787""
","
",100.10500000498723,NA,49,NA,NA,3000,1,"337.5300000043353,584.0900000039255,831.8699999945238,1097.380000006524,1334.6900000033202,1592.8949999943143,1795.8849999995437,2054.8300000082236",4949494949494949,images/tutyellowplanet.jpg,null,images/tutalien3,null,images/tutalien3,images/t.png,NA,practice,null,NA,NA,NA,NA,sub95
d3-animate-choice,28,143974,0.0-28.0,TRUE,TRUE,TRUE,TRUE,"""event"",""trial"",""time""
""fullscreenenter"",""5"",""14787""
","
","
","""event"",""trial"",""time""
""fullscreenenter"",""5"",""14787""
","
",235.43499999505002,NA,49,NA,NA,3000,1,"532.8699999954551,756.3649999938207,999.4000000006054,1201.0750000044936,1442.255000001751,1690.1700000016717,1975.9900000062771",49494949494949,images/tutyellowplanet.jpg,null,images/tutalien3,null,images/tutalien3,images/t.png,NA,practice,null,NA,NA,NA,NA,sub95
d3-animate-choice,29,146051,0.0-29.0,TRUE,TRUE,TRUE,TRUE,"""event"",""trial"",""time""
""fullscreenenter"",""5"",""14787""
","
","
","""event"",""trial"",""time""
""fullscreenenter"",""5"",""14787""
","
",70.93000000168104,NA,49,NA,NA,3000,1,"308.36000000999775,541.8700000009267,892.5300000119023,1182.4750000087079,1448.6800000013318,1979.2799999995623",494949494949,images/tutyellowplanet.jpg,null,images/tutalien3,null,images/tutalien3,images/t.png,NA,practice,null,NA,NA,NA,NA,sub95
d3-instructions,30,151275,0.0-30.0,TRUE,TRUE,TRUE,TRUE,"""event"",""trial"",""time""
""fullscreenenter"",""5"",""14787""
","
","
","""event"",""trial"",""time""
""fullscreenenter"",""5"",""14787""
","
",NA,NA,NA,NA,NA,NA,NA,NA,NA,NA,NA,NA,NA,NA,NA,NA,NA,NA,NA,NA,NA,NA,sub95
d3-instructions,31,156437,0.0-31.0,TRUE,TRUE,TRUE,TRUE,"""event"",""trial"",""time""
""fullscreenenter"",""5"",""14787""
","
","
","""event"",""trial"",""time""
""fullscreenenter"",""5"",""14787""
","
",NA,NA,NA,NA,NA,NA,NA,NA,NA,NA,NA,NA,NA,NA,NA,NA,NA,NA,NA,NA,NA,NA,sub95
d3-instructions,32,162080,0.0-32.0,TRUE,TRUE,TRUE,TRUE,"""event"",""trial"",""time""
""fullscreenenter"",""5"",""14787""
","
","
","""event"",""trial"",""time""
""fullscreenenter"",""5"",""14787""
","
",NA,NA,NA,NA,NA,NA,NA,NA,NA,NA,NA,NA,NA,NA,NA,NA,NA,NA,NA,NA,NA,NA,sub95
d3-instructions,33,164149,0.0-33.0,TRUE,TRUE,TRUE,TRUE,"""event"",""trial"",""time""
""fullscreenenter"",""5"",""14787""
","
","
","""event"",""trial"",""time""
""fullscreenenter"",""5"",""14787""
","
",NA,NA,NA,NA,NA,NA,NA,NA,NA,NA,NA,NA,NA,NA,NA,NA,NA,NA,NA,NA,NA,NA,sub95
d3-animate-choice,34,167421,0.0-34.0,TRUE,TRUE,TRUE,TRUE,"""event"",""trial"",""time""
""fullscreenenter"",""5"",""14787""
","
","
","""event"",""trial"",""time""
""fullscreenenter"",""5"",""14787""
","
",1268.51500000339,NA,49,NA,NA,3000,1,NA,NA,images/tutgreenplanet.jpg,images/tutalien1,images/tutalien2,null,images/tutalien2,images/t.png,NA,practice,null,NA,NA,NA,NA,sub95
d3-animate-choice,35,170101,0.0-35.0,TRUE,TRUE,TRUE,TRUE,"""event"",""trial"",""time""
""fullscreenenter"",""5"",""14787""
","
","
","""event"",""trial"",""time""
""fullscreenenter"",""5"",""14787""
","
",671.8450000043958,NA,49,NA,NA,3000,1,NA,NA,images/tutgreenplanet.jpg,images/tutalien1,images/tutalien2,null,images/tutalien2,images/t.png,NA,practice,null,NA,NA,NA,NA,sub95
d3-animate-choice,36,172431,0.0-36.0,TRUE,TRUE,TRUE,TRUE,"""event"",""trial"",""time""
""fullscreenenter"",""5"",""14787""
","
","
","""event"",""trial"",""time""
""fullscreenenter"",""5"",""14787""
","
",320.4100000002654,NA,48,NA,NA,3000,1,NA,NA,images/tutgreenplanet.jpg,images/tutalien1,images/tutalien2,null,images/tutalien1,images/nothing.png,NA,practice,null,NA,NA,NA,NA,sub95
d3-animate-choice,37,174681,0.0-37.0,TRUE,TRUE,TRUE,TRUE,"""event"",""trial"",""time""
""fullscreenenter"",""5"",""14787""
","
","
","""event"",""trial"",""time""
""fullscreenenter"",""5"",""14787""
","
",242.02499999955762,NA,49,NA,NA,3000,1,1841.8749999982538,49,images/tutgreenplanet.jpg,images/tutalien1,images/tutalien2,null,images/tutalien2,images/t.png,NA,practice,null,NA,NA,NA,NA,sub95
d3-animate-choice,38,176712,0.0-38.0,TRUE,TRUE,TRUE,TRUE,"""event"",""trial"",""time""
""fullscreenenter"",""5"",""14787""
","
","
","""event"",""trial"",""time""
""fullscreenenter"",""5"",""14787""
","
",21.69500000309199,NA,49,NA,NA,3000,1,"317.21000000834465,1432.440000004135,1737.520000009681",494949,images/tutgreenplanet.jpg,images/tutalien1,images/tutalien2,null,images/tutalien2,images/t.png,NA,practice,null,NA,NA,NA,NA,sub95
d3-animate-choice,39,178778,0.0-39.0,TRUE,TRUE,TRUE,TRUE,"""event"",""trial"",""time""
""fullscreenenter"",""5"",""14787""
","
","
","""event"",""trial"",""time""
""fullscreenenter"",""5"",""14787""
","
",58.30000000423752,NA,49,NA,NA,3000,1,"305.3399999917019,667.7049999998417,1032.0649999921443,1390.7949999993434,1679.0749999927357,2003.5950000019511",494949494949,images/tutgreenplanet.jpg,images/tutalien1,images/tutalien2,null,images/tutalien2,images/t.png,NA,practice,null,NA,NA,NA,NA,sub95
d3-animate-choice,40,181005,0.0-40.0,TRUE,TRUE,TRUE,TRUE,"""event"",""trial"",""time""
""fullscreenenter"",""5"",""14787""
","
","
","""event"",""trial"",""time""
""fullscreenenter"",""5"",""14787""
","
",223.54999999515712,NA,49,NA,NA,3000,1,"501.5349999885075,746.6349999886006,1053.844999987632,1397.884999998496,1672.7699999901233,2016.9800000003306",494949494948,images/tutgreenplanet.jpg,images/tutalien1,images/tutalien2,null,images/tutalien2,images/t.png,NA,practice,null,NA,NA,NA,NA,sub95
d3-animate-choice,41,183029,0.0-41.0,TRUE,TRUE,TRUE,TRUE,"""event"",""trial"",""time""
""fullscreenenter"",""5"",""14787""
","
","
","""event"",""trial"",""time""
""fullscreenenter"",""5"",""14787""
","
",20.225000000209548,NA,48,NA,NA,3000,1,"236.47500001243316,431.71499999880325,635.5200000107288,848.0100000015227,1061.7500000080327,1275.710000001709,1520.7750000117812,1742.595000003348,1973.519999999553",484848484848484800,images/tutgreenplanet.jpg,images/tutalien1,images/tutalien2,null,images/tutalien1,images/t.png,NA,practice,null,NA,NA,NA,NA,sub95
d3-animate-choice,42,185246,0.0-42.0,TRUE,TRUE,TRUE,TRUE,"""event"",""trial"",""time""
""fullscreenenter"",""5"",""14787""
","
","
","""event"",""trial"",""time""
""fullscreenenter"",""5"",""14787""
","
",211.62500001082662,NA,48,NA,NA,3000,1,"427.1300000109477,681.2850000133039,968.7150000099791,1228.560000003199,1532.7150000084657,1767.6900000078604,2031.3500000047497",48484848484848,images/tutgreenplanet.jpg,images/tutalien1,images/tutalien2,null,images/tutalien1,images/nothing.png,NA,practice,null,NA,NA,NA,NA,sub95
d3-animate-choice,43,187711,0.0-43.0,TRUE,TRUE,TRUE,TRUE,"""event"",""trial"",""time""
""fullscreenenter"",""5"",""14787""
","
","
","""event"",""trial"",""time""
""fullscreenenter"",""5"",""14787""
","
",460.72499999718275,NA,49,NA,NA,3000,1,"705.3549999982351,1420.1349999930244,1628.5149999894202,1871.7349999933504,2323.22999999451",4948484849,images/tutgreenplanet.jpg,images/tutalien1,images/tutalien2,null,images/tutalien2,images/t.png,NA,practice,null,NA,NA,NA,NA,sub95
d3-instructions,44,191352,0.0-44.0,TRUE,TRUE,TRUE,TRUE,"""event"",""trial"",""time""
""fullscreenenter"",""5"",""14787""
","
","
","""event"",""trial"",""time""
""fullscreenenter"",""5"",""14787""
","
",NA,NA,NA,NA,NA,NA,NA,NA,NA,NA,NA,NA,NA,NA,NA,NA,NA,NA,NA,NA,NA,NA,sub95
d3-instructions,45,194163,0.0-45.0,TRUE,TRUE,TRUE,TRUE,"""event"",""trial"",""time""
""fullscreenenter"",""5"",""14787""
","
","
","""event"",""trial"",""time""
""fullscreenenter"",""5"",""14787""
","
",NA,NA,NA,NA,NA,NA,NA,NA,NA,NA,NA,NA,NA,NA,NA,NA,NA,NA,NA,NA,NA,NA,sub95
d3-instructions,46,198151,0.0-46.0,TRUE,TRUE,TRUE,TRUE,"""event"",""trial"",""time""
""fullscreenenter"",""5"",""14787""
","
","
","""event"",""trial"",""time""
""fullscreenenter"",""5"",""14787""
","
",NA,NA,NA,NA,NA,NA,NA,NA,NA,NA,NA,NA,NA,NA,NA,NA,NA,NA,NA,NA,NA,NA,sub95
d3-instructions,47,210960,0.0-47.0,TRUE,TRUE,TRUE,TRUE,"""event"",""trial"",""time""
""fullscreenenter"",""5"",""14787""
","
","
","""event"",""trial"",""time""
""fullscreenenter"",""5"",""14787""
","
",NA,NA,NA,NA,NA,NA,NA,NA,NA,NA,NA,NA,NA,NA,NA,NA,NA,NA,NA,NA,NA,NA,sub95
d3-instructions,48,216192,0.0-48.0,TRUE,TRUE,TRUE,TRUE,"""event"",""trial"",""time""
""fullscreenenter"",""5"",""14787""
","
","
","""event"",""trial"",""time""
""fullscreenenter"",""5"",""14787""
","
",NA,NA,NA,NA,NA,NA,NA,NA,NA,NA,NA,NA,NA,NA,NA,NA,NA,NA,NA,NA,NA,NA,sub95
d3-instructions,49,222875,0.0-49.0,TRUE,TRUE,TRUE,TRUE,"""event"",""trial"",""time""
""fullscreenenter"",""5"",""14787""
","
","
","""event"",""trial"",""time""
""fullscreenenter"",""5"",""14787""
","
",NA,NA,NA,NA,NA,NA,NA,NA,NA,NA,NA,NA,NA,NA,NA,NA,NA,NA,NA,NA,NA,NA,sub95
d3-instructions,50,227691,0.0-50.0,TRUE,TRUE,TRUE,TRUE,"""event"",""trial"",""time""
""fullscreenenter"",""5"",""14787""
","
","
","""event"",""trial"",""time""
""fullscreenenter"",""5"",""14787""
","
",NA,NA,NA,NA,NA,NA,NA,NA,NA,NA,NA,NA,NA,NA,NA,NA,NA,NA,NA,NA,NA,NA,sub95
d3-instructions,51,230382,0.0-51.0,TRUE,TRUE,TRUE,TRUE,"""event"",""trial"",""time""
""fullscreenenter"",""5"",""14787""
","
","
","""event"",""trial"",""time""
""fullscreenenter"",""5"",""14787""
","
",NA,NA,NA,NA,NA,NA,NA,NA,NA,NA,NA,NA,NA,NA,NA,NA,NA,NA,NA,NA,NA,NA,sub95
d3-instructions,52,232317,0.0-52.0,TRUE,TRUE,TRUE,TRUE,"""event"",""trial"",""time""
""fullscreenenter"",""5"",""14787""
","
","
","""event"",""trial"",""time""
""fullscreenenter"",""5"",""14787""
","
",NA,NA,NA,NA,NA,NA,NA,NA,NA,NA,NA,NA,NA,NA,NA,NA,NA,NA,NA,NA,NA,NA,sub95
d3-instructions,53,245028,0.0-53.0,TRUE,TRUE,TRUE,TRUE,"""event"",""trial"",""time""
""fullscreenenter"",""5"",""14787""
","
","
","""event"",""trial"",""time""
""fullscreenenter"",""5"",""14787""
","
",NA,NA,NA,NA,NA,NA,NA,NA,NA,NA,NA,NA,NA,NA,NA,NA,NA,NA,NA,NA,NA,NA,sub95
d3-instructions,54,253852,0.0-54.0,TRUE,TRUE,TRUE,TRUE,"""event"",""trial"",""time""
""fullscreenenter"",""5"",""14787""
","
","
","""event"",""trial"",""time""
""fullscreenenter"",""5"",""14787""
","
",NA,NA,NA,NA,NA,NA,NA,NA,NA,NA,NA,NA,NA,NA,NA,NA,NA,NA,NA,NA,NA,NA,sub95
d3-instructions,55,257139,0.0-55.0,TRUE,TRUE,TRUE,TRUE,"""event"",""trial"",""time""
""fullscreenenter"",""5"",""14787""
","
","
","""event"",""trial"",""time""
""fullscreenenter"",""5"",""14787""
","
",NA,NA,NA,NA,NA,NA,NA,NA,NA,NA,NA,NA,NA,NA,NA,NA,NA,NA,NA,NA,NA,NA,sub95
d3-instructions,56,266276,0.0-56.0,TRUE,TRUE,TRUE,TRUE,"""event"",""trial"",""time""
""fullscreenenter"",""5"",""14787""
","
","
","""event"",""trial"",""time""
""fullscreenenter"",""5"",""14787""
","
",NA,NA,NA,NA,NA,NA,NA,NA,NA,NA,NA,NA,NA,NA,NA,NA,NA,NA,NA,NA,NA,NA,sub95
d3-instructions,57,276599,0.0-57.0,TRUE,TRUE,TRUE,TRUE,"""event"",""trial"",""time""
""fullscreenenter"",""5"",""14787""
","
","
","""event"",""trial"",""time""
""fullscreenenter"",""5"",""14787""
","
",NA,NA,NA,NA,NA,NA,NA,NA,NA,NA,NA,NA,NA,NA,NA,NA,NA,NA,NA,NA,NA,NA,sub95
d3-instructions,58,289604,0.0-58.0,TRUE,TRUE,TRUE,TRUE,"""event"",""trial"",""time""
""fullscreenenter"",""5"",""14787""
","
","
","""event"",""trial"",""time""
""fullscreenenter"",""5"",""14787""
","
",NA,NA,NA,NA,NA,NA,NA,NA,NA,NA,NA,NA,NA,NA,NA,NA,NA,NA,NA,NA,NA,NA,sub95
d3-instructions,59,296584,0.0-59.0,TRUE,TRUE,TRUE,TRUE,"""event"",""trial"",""time""
""fullscreenenter"",""5"",""14787""
","
","
","""event"",""trial"",""time""
""fullscreenenter"",""5"",""14787""
","
",NA,NA,NA,NA,NA,NA,NA,NA,NA,NA,NA,NA,NA,NA,NA,NA,NA,NA,NA,NA,NA,NA,sub95
d3-instructions,60,305927,0.0-60.0,TRUE,TRUE,TRUE,TRUE,"""event"",""trial"",""time""
""fullscreenenter"",""5"",""14787""
","
","
","""event"",""trial"",""time""
""fullscreenenter"",""5"",""14787""
","
",NA,NA,NA,NA,NA,NA,NA,NA,NA,NA,NA,NA,NA,NA,NA,NA,NA,NA,NA,NA,NA,NA,sub95
d3-animate-choice,61,308237,0.0-61.0-0.0,TRUE,TRUE,TRUE,TRUE,"""event"",""trial"",""time""
""fullscreenenter"",""5"",""14787""
","
","
","""event"",""trial"",""time""
""fullscreenenter"",""5"",""14787""
","
",304.0350000082981,NA,48,NA,NA,3000,1,NA,NA,images/earth.jpg,images/tutrocket1,images/tutrocket2,null,images/tutrocket1,NA,1,practice,null,2,NA,NA,NA,sub95
d3-animate-choice,62,312256,0.0-61.0-1.0,TRUE,TRUE,TRUE,TRUE,"""event"",""trial"",""time""
""fullscreenenter"",""5"",""14787""
","
","
","""event"",""trial"",""time""
""fullscreenenter"",""5"",""14787""
","
",2563.399999999092,NA,49,NA,NA,3000,1,NA,NA,images/tutgreenplanet.jpg,images/tutalien2,images/tutalien1,images/tutrocket1,images/tutalien1,images/nothing.png,2,practice,true,1,common,0,2020-06-20T00:35:38Z,sub95
two-step-fixation,63,313277,0.0-61.0-2.0,TRUE,TRUE,TRUE,TRUE,"""event"",""trial"",""time""
""fullscreenenter"",""5"",""14787""
","
","
","""event"",""trial"",""time""
""fullscreenenter"",""5"",""14787""
","
",NA,images/earth.jpg,NA,NA,NA,NA,NA,NA,NA,NA,NA,NA,NA,NA,NA,fixation,NA,NA,NA,NA,NA,NA,sub95
d3-animate-choice,64,316438,0.0-61.0-0.1,TRUE,TRUE,TRUE,TRUE,"""event"",""trial"",""time""
""fullscreenenter"",""5"",""14787""
","
","
","""event"",""trial"",""time""
""fullscreenenter"",""5"",""14787""
","
",1151.0399999970105,NA,49,NA,NA,3000,1,NA,NA,images/earth.jpg,images/tutrocket1,images/tutrocket2,null,images/tutrocket2,NA,1,practice,null,1,NA,NA,NA,sub95
d3-animate-choice,65,319449,0.0-61.0-1.1,TRUE,TRUE,TRUE,TRUE,"""event"",""trial"",""time""
""fullscreenenter"",""5"",""14787""
","
","
","""event"",""trial"",""time""
""fullscreenenter"",""5"",""14787""
","
",999.534999995376,NA,48,NA,NA,3000,1,NA,NA,images/tutgreenplanet.jpg,images/tutalien2,images/tutalien1,images/tutrocket2,images/tutalien2,images/nothing.png,2,practice,false,2,rare,0,2020-06-20T00:35:45Z,sub95
two-step-fixation,66,320460,0.0-61.0-2.1,TRUE,TRUE,TRUE,TRUE,"""event"",""trial"",""time""
""fullscreenenter"",""5"",""14787""
","
","
","""event"",""trial"",""time""
""fullscreenenter"",""5"",""14787""
","
",NA,images/earth.jpg,NA,NA,NA,NA,NA,NA,NA,NA,NA,NA,NA,NA,NA,fixation,NA,NA,NA,NA,NA,NA,sub95
d3-animate-choice,67,323174,0.0-61.0-0.2,TRUE,TRUE,TRUE,TRUE,"""event"",""trial"",""time""
""fullscreenenter"",""5"",""14787""
","
","
","""event"",""trial"",""time""
""fullscreenenter"",""5"",""14787""
","
",702.7050000033341,NA,48,NA,NA,3000,1,NA,NA,images/earth.jpg,images/tutrocket1,images/tutrocket2,null,images/tutrocket1,NA,1,practice,null,2,NA,NA,NA,sub95
d3-animate-choice,68,325722,0.0-61.0-1.2,TRUE,TRUE,TRUE,TRUE,"""event"",""trial"",""time""
""fullscreenenter"",""5"",""14787""
","
","
","""event"",""trial"",""time""
""fullscreenenter"",""5"",""14787""
","
",537.2749999951338,NA,48,NA,NA,3000,1,NA,NA,images/tutyellowplanet.jpg,images/tutalien4,images/tutalien3,images/tutrocket1,images/tutalien4,images/nothing.png,2,practice,false,2,rare,0,2020-06-20T00:35:52Z,sub95
two-step-fixation,69,326734,0.0-61.0-2.2,TRUE,TRUE,TRUE,TRUE,"""event"",""trial"",""time""
""fullscreenenter"",""5"",""14787""
","
","
","""event"",""trial"",""time""
""fullscreenenter"",""5"",""14787""
","
",NA,images/earth.jpg,NA,NA,NA,NA,NA,NA,NA,NA,NA,NA,NA,NA,NA,fixation,NA,NA,NA,NA,NA,NA,sub95
d3-animate-choice,70,329040,0.0-61.0-0.3,TRUE,TRUE,TRUE,TRUE,"""event"",""trial"",""time""
""fullscreenenter"",""5"",""14787""
","
","
","""event"",""trial"",""time""
""fullscreenenter"",""5"",""14787""
","
",301.28500000864733,NA,48,NA,NA,3000,1,NA,NA,images/earth.jpg,images/tutrocket1,images/tutrocket2,null,images/tutrocket1,NA,1,practice,null,2,NA,NA,NA,sub95
d3-animate-choice,71,331349,0.0-61.0-1.3,TRUE,TRUE,TRUE,TRUE,"""event"",""trial"",""time""
""fullscreenenter"",""5"",""14787""
","
","
","""event"",""trial"",""time""
""fullscreenenter"",""5"",""14787""
","
",293.86499999964144,NA,48,NA,NA,3000,1,820.4049999912968,48,images/tutgreenplanet.jpg,images/tutalien2,images/tutalien1,images/tutrocket1,images/tutalien2,images/nothing.png,2,practice,true,2,common,0,2020-06-20T00:35:57Z,sub95
two-step-fixation,72,332360,0.0-61.0-2.3,TRUE,TRUE,TRUE,TRUE,"""event"",""trial"",""time""
""fullscreenenter"",""5"",""14787""
","
","
","""event"",""trial"",""time""
""fullscreenenter"",""5"",""14787""
","
",NA,images/earth.jpg,NA,NA,NA,NA,NA,NA,NA,NA,NA,NA,NA,NA,NA,fixation,NA,NA,NA,NA,NA,NA,sub95
d3-animate-choice,73,334641,0.0-61.0-0.4,TRUE,TRUE,TRUE,TRUE,"""event"",""trial"",""time""
""fullscreenenter"",""5"",""14787""
","
","
","""event"",""trial"",""time""
""fullscreenenter"",""5"",""14787""
","
",268.1250000023283,NA,48,NA,NA,3000,1,1972.185000005993,48,images/earth.jpg,images/tutrocket1,images/tutrocket2,null,images/tutrocket1,NA,1,practice,null,2,NA,NA,NA,sub95
d3-animate-choice,74,337008,0.0-61.0-1.4,TRUE,TRUE,TRUE,TRUE,"""event"",""trial"",""time""
""fullscreenenter"",""5"",""14787""
","
","
","""event"",""trial"",""time""
""fullscreenenter"",""5"",""14787""
","
",350.1349999860395,NA,48,NA,NA,3000,1,2249.4449999940116,48,images/tutgreenplanet.jpg,images/tutalien2,images/tutalien1,images/tutrocket1,images/tutalien2,images/nothing.png,2,practice,true,2,common,0,2020-06-20T00:36:03Z,sub95
two-step-fixation,75,338018,0.0-61.0-2.4,TRUE,TRUE,TRUE,TRUE,"""event"",""trial"",""time""
""fullscreenenter"",""5"",""14787""
","
","
","""event"",""trial"",""time""
""fullscreenenter"",""5"",""14787""
","
",NA,images/earth.jpg,NA,NA,NA,NA,NA,NA,NA,NA,NA,NA,NA,NA,NA,fixation,NA,NA,NA,NA,NA,NA,sub95
d3-animate-choice,76,340275,0.0-61.0-0.5,TRUE,TRUE,TRUE,TRUE,"""event"",""trial"",""time""
""fullscreenenter"",""5"",""14787""
","
","
","""event"",""trial"",""time""
""fullscreenenter"",""5"",""14787""
","
",247.23500000254717,NA,49,NA,NA,3000,1,1570.9599999972852,49,images/earth.jpg,images/tutrocket1,images/tutrocket2,null,images/tutrocket2,NA,1,practice,null,1,NA,NA,NA,sub95
d3-animate-choice,77,342319,0.0-61.0-1.5,TRUE,TRUE,TRUE,TRUE,"""event"",""trial"",""time""
""fullscreenenter"",""5"",""14787""
","
","
","""event"",""trial"",""time""
""fullscreenenter"",""5"",""14787""
","
",33.80000000470318,NA,49,NA,NA,3000,1,"328.26500000373926,1872.71999999939",4949,images/tutgreenplanet.jpg,images/tutalien2,images/tutalien1,images/tutrocket2,images/tutalien1,images/nothing.png,2,practice,false,1,rare,0,2020-06-20T00:36:08Z,sub95
two-step-fixation,78,343326,0.0-61.0-2.5,TRUE,TRUE,TRUE,TRUE,"""event"",""trial"",""time""
""fullscreenenter"",""5"",""14787""
","
","
","""event"",""trial"",""time""
""fullscreenenter"",""5"",""14787""
","
",NA,images/earth.jpg,NA,NA,NA,NA,NA,NA,NA,NA,NA,NA,NA,NA,NA,fixation,NA,NA,NA,NA,NA,NA,sub95
d3-animate-choice,79,345655,0.0-61.0-0.6,TRUE,TRUE,TRUE,TRUE,"""event"",""trial"",""time""
""fullscreenenter"",""5"",""14787""
","
","
","""event"",""trial"",""time""
""fullscreenenter"",""5"",""14787""
","
",320.09999999718275,NA,48,NA,NA,3000,1,NA,NA,images/earth.jpg,images/tutrocket1,images/tutrocket2,null,images/tutrocket1,NA,1,practice,null,2,NA,NA,NA,sub95
d3-animate-choice,80,348166,0.0-61.0-1.6,TRUE,TRUE,TRUE,TRUE,"""event"",""trial"",""time""
""fullscreenenter"",""5"",""14787""
","
","
","""event"",""trial"",""time""
""fullscreenenter"",""5"",""14787""
","
",500.4599999956554,NA,49,NA,NA,3000,1,NA,NA,images/tutyellowplanet.jpg,images/tutalien4,images/tutalien3,images/tutrocket1,images/tutalien3,images/t.png,2,practice,false,1,rare,1,2020-06-20T00:36:14Z,sub95
two-step-fixation,81,349176,0.0-61.0-2.6,TRUE,TRUE,TRUE,TRUE,"""event"",""trial"",""time""
""fullscreenenter"",""5"",""14787""
","
","
","""event"",""trial"",""time""
""fullscreenenter"",""5"",""14787""
","
",NA,images/earth.jpg,NA,NA,NA,NA,NA,NA,NA,NA,NA,NA,NA,NA,NA,fixation,NA,NA,NA,NA,NA,NA,sub95
d3-animate-choice,82,351468,0.0-61.0-0.7,TRUE,TRUE,TRUE,TRUE,"""event"",""trial"",""time""
""fullscreenenter"",""5"",""14787""
","
","
","""event"",""trial"",""time""
""fullscreenenter"",""5"",""14787""
","
",282.14999999909196,NA,49,NA,NA,3000,1,NA,NA,images/earth.jpg,images/tutrocket1,images/tutrocket2,null,images/tutrocket2,NA,1,practice,null,1,NA,NA,NA,sub95
d3-animate-choice,83,354189,0.0-61.0-1.7,TRUE,TRUE,TRUE,TRUE,"""event"",""trial"",""time""
""fullscreenenter"",""5"",""14787""
","
","
","""event"",""trial"",""time""
""fullscreenenter"",""5"",""14787""
","
",707.9450000019278,NA,49,NA,NA,3000,1,NA,NA,images/tutyellowplanet.jpg,images/tutalien4,images/tutalien3,images/tutrocket2,images/tutalien3,images/t.png,2,practice,true,1,common,1,2020-06-20T00:36:20Z,sub95
two-step-fixation,84,355199,0.0-61.0-2.7,TRUE,TRUE,TRUE,TRUE,"""event"",""trial"",""time""
""fullscreenenter"",""5"",""14787""
","
","
","""event"",""trial"",""time""
""fullscreenenter"",""5"",""14787""
","
",NA,images/earth.jpg,NA,NA,NA,NA,NA,NA,NA,NA,NA,NA,NA,NA,NA,fixation,NA,NA,NA,NA,NA,NA,sub95
d3-animate-choice,85,357526,0.0-61.0-0.8,TRUE,TRUE,TRUE,TRUE,"""event"",""trial"",""time""
""fullscreenenter"",""5"",""14787""
","
","
","""event"",""trial"",""time""
""fullscreenenter"",""5"",""14787""
","
",310.2550000039628,NA,48,NA,NA,3000,1,NA,NA,images/earth.jpg,images/tutrocket1,images/tutrocket2,null,images/tutrocket1,NA,1,practice,null,2,NA,NA,NA,sub95
d3-animate-choice,86,360051,0.0-61.0-1.8,TRUE,TRUE,TRUE,TRUE,"""event"",""trial"",""time""
""fullscreenenter"",""5"",""14787""
","
","
","""event"",""trial"",""time""
""fullscreenenter"",""5"",""14787""
","
",510.62000000092667,NA,49,NA,NA,3000,1,NA,NA,images/tutyellowplanet.jpg,images/tutalien4,images/tutalien3,images/tutrocket1,images/tutalien3,images/nothing.png,2,practice,false,1,rare,0,2020-06-20T00:36:26Z,sub95
two-step-fixation,87,361062,0.0-61.0-2.8,TRUE,TRUE,TRUE,TRUE,"""event"",""trial"",""time""
""fullscreenenter"",""5"",""14787""
","
","
","""event"",""trial"",""time""
""fullscreenenter"",""5"",""14787""
","
",NA,images/earth.jpg,NA,NA,NA,NA,NA,NA,NA,NA,NA,NA,NA,NA,NA,fixation,NA,NA,NA,NA,NA,NA,sub95
d3-animate-choice,88,363466,0.0-61.0-0.9,TRUE,TRUE,TRUE,TRUE,"""event"",""trial"",""time""
""fullscreenenter"",""5"",""14787""
","
","
","""event"",""trial"",""time""
""fullscreenenter"",""5"",""14787""
","
",394.59000001079403,NA,48,NA,NA,3000,1,NA,NA,images/earth.jpg,images/tutrocket1,images/tutrocket2,null,images/tutrocket1,NA,1,practice,null,2,NA,NA,NA,sub95
d3-animate-choice,89,365780,0.0-61.0-1.9,TRUE,TRUE,TRUE,TRUE,"""event"",""trial"",""time""
""fullscreenenter"",""5"",""14787""
","
","
","""event"",""trial"",""time""
""fullscreenenter"",""5"",""14787""
","
",304.6349999931408,NA,49,NA,NA,3000,1,NA,NA,images/tutyellowplanet.jpg,images/tutalien4,images/tutalien3,images/tutrocket1,images/tutalien3,images/nothing.png,2,practice,false,1,rare,0,2020-06-20T00:36:32Z,sub95
two-step-fixation,90,366791,0.0-61.0-2.9,TRUE,TRUE,TRUE,TRUE,"""event"",""trial"",""time""
""fullscreenenter"",""5"",""14787""
","
","
","""event"",""trial"",""time""
""fullscreenenter"",""5"",""14787""
","
",NA,images/earth.jpg,NA,NA,NA,NA,NA,NA,NA,NA,NA,NA,NA,NA,NA,fixation,NA,NA,NA,NA,NA,NA,sub95
d3-animate-choice,91,369098,0.0-61.0-0.10,TRUE,TRUE,TRUE,TRUE,"""event"",""trial"",""time""
""fullscreenenter"",""5"",""14787""
","
","
","""event"",""trial"",""time""
""fullscreenenter"",""5"",""14787""
","
",296.36999999638647,NA,48,NA,NA,3000,1,NA,NA,images/earth.jpg,images/tutrocket1,images/tutrocket2,null,images/tutrocket1,NA,1,practice,null,2,NA,NA,NA,sub95
d3-animate-choice,92,371457,0.0-61.0-1.10,TRUE,TRUE,TRUE,TRUE,"""event"",""trial"",""time""
""fullscreenenter"",""5"",""14787""
","
","
","""event"",""trial"",""time""
""fullscreenenter"",""5"",""14787""
","
",349.66500000155065,NA,49,NA,NA,3000,1,NA,NA,images/tutgreenplanet.jpg,images/tutalien2,images/tutalien1,images/tutrocket1,images/tutalien1,images/nothing.png,2,practice,true,1,common,0,2020-06-20T00:36:37Z,sub95
two-step-fixation,93,372468,0.0-61.0-2.10,TRUE,TRUE,TRUE,TRUE,"""event"",""trial"",""time""
""fullscreenenter"",""5"",""14787""
","
","
","""event"",""trial"",""time""
""fullscreenenter"",""5"",""14787""
","
",NA,images/earth.jpg,NA,NA,NA,NA,NA,NA,NA,NA,NA,NA,NA,NA,NA,fixation,NA,NA,NA,NA,NA,NA,sub95
d3-animate-choice,94,374910,0.0-61.0-0.11,TRUE,TRUE,TRUE,TRUE,"""event"",""trial"",""time""
""fullscreenenter"",""5"",""14787""
","
","
","""event"",""trial"",""time""
""fullscreenenter"",""5"",""14787""
","
",432.01499999850057,NA,48,NA,NA,3000,1,NA,NA,images/earth.jpg,images/tutrocket1,images/tutrocket2,null,images/tutrocket1,NA,1,practice,null,2,NA,NA,NA,sub95
d3-animate-choice,95,377292,0.0-61.0-1.11,TRUE,TRUE,TRUE,TRUE,"""event"",""trial"",""time""
""fullscreenenter"",""5"",""14787""
","
","
","""event"",""trial"",""time""
""fullscreenenter"",""5"",""14787""
","
",368.0400000012014,NA,49,NA,NA,3000,1,NA,NA,images/tutgreenplanet.jpg,images/tutalien2,images/tutalien1,images/tutrocket1,images/tutalien1,images/nothing.png,2,practice,true,1,common,0,2020-06-20T00:36:43Z,sub95
two-step-fixation,96,378302,0.0-61.0-2.11,TRUE,TRUE,TRUE,TRUE,"""event"",""trial"",""time""
""fullscreenenter"",""5"",""14787""
","
","
","""event"",""trial"",""time""
""fullscreenenter"",""5"",""14787""
","
",NA,images/earth.jpg,NA,NA,NA,NA,NA,NA,NA,NA,NA,NA,NA,NA,NA,fixation,NA,NA,NA,NA,NA,NA,sub95
d3-animate-choice,97,380661,0.0-61.0-0.12,TRUE,TRUE,TRUE,TRUE,"""event"",""trial"",""time""
""fullscreenenter"",""5"",""14787""
","
","
","""event"",""trial"",""time""
""fullscreenenter"",""5"",""14787""
","
",349.49500000220723,NA,48,NA,NA,3000,1,NA,NA,images/earth.jpg,images/tutrocket1,images/tutrocket2,null,images/tutrocket1,NA,1,practice,null,2,NA,NA,NA,sub95
d3-animate-choice,98,382986,0.0-61.0-1.12,TRUE,TRUE,TRUE,TRUE,"""event"",""trial"",""time""
""fullscreenenter"",""5"",""14787""
","
","
","""event"",""trial"",""time""
""fullscreenenter"",""5"",""14787""
","
",312.4600000010105,NA,48,NA,NA,3000,1,NA,NA,images/tutgreenplanet.jpg,images/tutalien2,images/tutalien1,images/tutrocket1,images/tutalien2,images/t.png,2,practice,true,2,common,1,2020-06-20T00:36:49Z,sub95
two-step-fixation,99,383995,0.0-61.0-2.12,TRUE,TRUE,TRUE,TRUE,"""event"",""trial"",""time""
""fullscreenenter"",""5"",""14787""
","
","
","""event"",""trial"",""time""
""fullscreenenter"",""5"",""14787""
","
",NA,images/earth.jpg,NA,NA,NA,NA,NA,NA,NA,NA,NA,NA,NA,NA,NA,fixation,NA,NA,NA,NA,NA,NA,sub95
d3-animate-choice,100,386297,0.0-61.0-0.13,TRUE,TRUE,TRUE,TRUE,"""event"",""trial"",""time""
""fullscreenenter"",""5"",""14787""
","
","
","""event"",""trial"",""time""
""fullscreenenter"",""5"",""14787""
","
",297.17999999411404,NA,48,NA,NA,3000,1,NA,NA,images/earth.jpg,images/tutrocket1,images/tutrocket2,null,images/tutrocket1,NA,1,practice,null,2,NA,NA,NA,sub95
d3-animate-choice,101,388531,0.0-61.0-1.13,TRUE,TRUE,TRUE,TRUE,"""event"",""trial"",""time""
""fullscreenenter"",""5"",""14787""
","
","
","""event"",""trial"",""time""
""fullscreenenter"",""5"",""14787""
","
",224.41000000981148,NA,48,NA,NA,3000,1,NA,NA,images/tutgreenplanet.jpg,images/tutalien2,images/tutalien1,images/tutrocket1,images/tutalien2,images/nothing.png,2,practice,true,2,common,0,2020-06-20T00:36:55Z,sub95
two-step-fixation,102,389546,0.0-61.0-2.13,TRUE,TRUE,TRUE,TRUE,"""event"",""trial"",""time""
""fullscreenenter"",""5"",""14787""
","
","
","""event"",""trial"",""time""
""fullscreenenter"",""5"",""14787""
","
",NA,images/earth.jpg,NA,NA,NA,NA,NA,NA,NA,NA,NA,NA,NA,NA,NA,fixation,NA,NA,NA,NA,NA,NA,sub95
d3-animate-choice,103,391553,0.0-61.0-0.14,TRUE,TRUE,TRUE,TRUE,"""event"",""trial"",""time""
""fullscreenenter"",""5"",""14787""
","
","
","""event"",""trial"",""time""
""fullscreenenter"",""5"",""14787""
","
",2.884999994421378,NA,48,NA,NA,3000,1,"1071.7399999994086,1666.4099999907194",4848,images/earth.jpg,images/tutrocket1,images/tutrocket2,null,images/tutrocket1,NA,1,practice,null,2,NA,NA,NA,sub95
d3-animate-choice,104,393993,0.0-61.0-1.14,TRUE,TRUE,TRUE,TRUE,"""event"",""trial"",""time""
""fullscreenenter"",""5"",""14787""
","
","
","""event"",""trial"",""time""
""fullscreenenter"",""5"",""14787""
","
",435.41499999992084,NA,48,NA,NA,3000,1,NA,NA,images/tutgreenplanet.jpg,images/tutalien2,images/tutalien1,images/tutrocket1,images/tutalien2,images/nothing.png,2,practice,true,2,common,0,2020-06-20T00:37:00Z,sub95
two-step-fixation,105,395002,0.0-61.0-2.14,TRUE,TRUE,TRUE,TRUE,"""event"",""trial"",""time""
""fullscreenenter"",""5"",""14787""
","
","
","""event"",""trial"",""time""
""fullscreenenter"",""5"",""14787""
","
",NA,images/earth.jpg,NA,NA,NA,NA,NA,NA,NA,NA,NA,NA,NA,NA,NA,fixation,NA,NA,NA,NA,NA,NA,sub95
d3-animate-choice,106,397184,0.0-61.0-0.15,TRUE,TRUE,TRUE,TRUE,"""event"",""trial"",""time""
""fullscreenenter"",""5"",""14787""
","
","
","""event"",""trial"",""time""
""fullscreenenter"",""5"",""14787""
","
",177.13500000536442,NA,48,NA,NA,3000,1,"1074.7450000053504,1340.2599999972153,1605.6099999987055,1843.0700000026263,2125.050000002375",4949494949,images/earth.jpg,images/tutrocket1,images/tutrocket2,null,images/tutrocket1,NA,1,practice,null,2,NA,NA,NA,sub95
d3-animate-choice,107,399446,0.0-61.0-1.15,TRUE,TRUE,TRUE,TRUE,"""event"",""trial"",""time""
""fullscreenenter"",""5"",""14787""
","
","
","""event"",""trial"",""time""
""fullscreenenter"",""5"",""14787""
","
",256.7399999970803,NA,49,NA,NA,3000,1,557.7250000060303,49,images/tutyellowplanet.jpg,images/tutalien4,images/tutalien3,images/tutrocket1,images/tutalien3,images/t.png,2,practice,false,1,rare,1,2020-06-20T00:37:05Z,sub95
two-step-fixation,108,400456,0.0-61.0-2.15,TRUE,TRUE,TRUE,TRUE,"""event"",""trial"",""time""
""fullscreenenter"",""5"",""14787""
","
","
","""event"",""trial"",""time""
""fullscreenenter"",""5"",""14787""
","
",NA,images/earth.jpg,NA,NA,NA,NA,NA,NA,NA,NA,NA,NA,NA,NA,NA,fixation,NA,NA,NA,NA,NA,NA,sub95
d3-animate-choice,109,402716,0.0-61.0-0.16,TRUE,TRUE,TRUE,TRUE,"""event"",""trial"",""time""
""fullscreenenter"",""5"",""14787""
","
","
","""event"",""trial"",""time""
""fullscreenenter"",""5"",""14787""
","
",255.2750000031665,NA,48,NA,NA,3000,1,NA,NA,images/earth.jpg,images/tutrocket1,images/tutrocket2,null,images/tutrocket1,NA,1,practice,null,2,NA,NA,NA,sub95
d3-animate-choice,110,405602,0.0-61.0-1.16,TRUE,TRUE,TRUE,TRUE,"""event"",""trial"",""time""
""fullscreenenter"",""5"",""14787""
","
","
","""event"",""trial"",""time""
""fullscreenenter"",""5"",""14787""
","
",875.1199999969685,NA,49,NA,NA,3000,1,NA,NA,images/tutgreenplanet.jpg,images/tutalien2,images/tutalien1,images/tutrocket1,images/tutalien1,images/nothing.png,2,practice,true,1,common,0,2020-06-20T00:37:12Z,sub95
two-step-fixation,111,406612,0.0-61.0-2.16,TRUE,TRUE,TRUE,TRUE,"""event"",""trial"",""time""
""fullscreenenter"",""5"",""14787""
","
","
","""event"",""trial"",""time""
""fullscreenenter"",""5"",""14787""
","
",NA,images/earth.jpg,NA,NA,NA,NA,NA,NA,NA,NA,NA,NA,NA,NA,NA,fixation,NA,NA,NA,NA,NA,NA,sub95
d3-animate-choice,112,408696,0.0-61.0-0.17,TRUE,TRUE,TRUE,TRUE,"""event"",""trial"",""time""
""fullscreenenter"",""5"",""14787""
","
","
","""event"",""trial"",""time""
""fullscreenenter"",""5"",""14787""
","
",78.34999999613501,NA,48,NA,NA,3000,1,NA,NA,images/earth.jpg,images/tutrocket1,images/tutrocket2,null,images/tutrocket1,NA,1,practice,null,2,NA,NA,NA,sub95
d3-animate-choice,113,411055,0.0-61.0-1.17,TRUE,TRUE,TRUE,TRUE,"""event"",""trial"",""time""
""fullscreenenter"",""5"",""14787""
","
","
","""event"",""trial"",""time""
""fullscreenenter"",""5"",""14787""
","
",349.39000000304077,NA,49,NA,NA,3000,1,745.7750000030501,49,images/tutgreenplanet.jpg,images/tutalien2,images/tutalien1,images/tutrocket1,images/tutalien1,images/t.png,2,practice,true,1,common,1,2020-06-20T00:37:17Z,sub95
two-step-fixation,114,412059,0.0-61.0-2.17,TRUE,TRUE,TRUE,TRUE,"""event"",""trial"",""time""
""fullscreenenter"",""5"",""14787""
","
","
","""event"",""trial"",""time""
""fullscreenenter"",""5"",""14787""
","
",NA,images/earth.jpg,NA,NA,NA,NA,NA,NA,NA,NA,NA,NA,NA,NA,NA,fixation,NA,NA,NA,NA,NA,NA,sub95
d3-animate-choice,115,414300,0.0-61.0-0.18,TRUE,TRUE,TRUE,TRUE,"""event"",""trial"",""time""
""fullscreenenter"",""5"",""14787""
","
","
","""event"",""trial"",""time""
""fullscreenenter"",""5"",""14787""
","
",229.55499999807216,NA,49,NA,NA,3000,1,NA,NA,images/earth.jpg,images/tutrocket1,images/tutrocket2,null,images/tutrocket2,NA,1,practice,null,1,NA,NA,NA,sub95
d3-animate-choice,116,417042,0.0-61.0-1.18,TRUE,TRUE,TRUE,TRUE,"""event"",""trial"",""time""
""fullscreenenter"",""5"",""14787""
","
","
","""event"",""trial"",""time""
""fullscreenenter"",""5"",""14787""
","
",732.2950000088895,NA,48,NA,NA,3000,1,NA,NA,images/tutgreenplanet.jpg,images/tutalien2,images/tutalien1,images/tutrocket2,images/tutalien2,images/nothing.png,2,practice,false,2,rare,0,2020-06-20T00:37:23Z,sub95
two-step-fixation,117,418052,0.0-61.0-2.18,TRUE,TRUE,TRUE,TRUE,"""event"",""trial"",""time""
""fullscreenenter"",""5"",""14787""
","
","
","""event"",""trial"",""time""
""fullscreenenter"",""5"",""14787""
","
",NA,images/earth.jpg,NA,NA,NA,NA,NA,NA,NA,NA,NA,NA,NA,NA,NA,fixation,NA,NA,NA,NA,NA,NA,sub95
d3-animate-choice,118,420165,0.0-61.0-0.19,TRUE,TRUE,TRUE,TRUE,"""event"",""trial"",""time""
""fullscreenenter"",""5"",""14787""
","
","
","""event"",""trial"",""time""
""fullscreenenter"",""5"",""14787""
","
",101.21999999682885,NA,48,NA,NA,3000,1,"301.804999995511,1833.585000000312,2057.669999994687",484949,images/earth.jpg,images/tutrocket1,images/tutrocket2,null,images/tutrocket1,NA,1,practice,null,2,NA,NA,NA,sub95
d3-animate-choice,119,422400,0.0-61.0-1.19,TRUE,TRUE,TRUE,TRUE,"""event"",""trial"",""time""
""fullscreenenter"",""5"",""14787""
","
","
","""event"",""trial"",""time""
""fullscreenenter"",""5"",""14787""
","
",231.54999999678694,NA,49,NA,NA,3000,1,2070.194999992964,48,images/tutgreenplanet.jpg,images/tutalien2,images/tutalien1,images/tutrocket1,images/tutalien1,images/nothing.png,2,practice,true,1,common,0,2020-06-20T00:37:28Z,sub95
two-step-fixation,120,423404,0.0-61.0-2.19,TRUE,TRUE,TRUE,TRUE,"""event"",""trial"",""time""
""fullscreenenter"",""5"",""14787""
","
","
","""event"",""trial"",""time""
""fullscreenenter"",""5"",""14787""
","
",NA,images/earth.jpg,NA,NA,NA,NA,NA,NA,NA,NA,NA,NA,NA,NA,NA,fixation,NA,NA,NA,NA,NA,NA,sub95
d3-instructions,121,426276,0.0-62.0,TRUE,TRUE,TRUE,TRUE,"""event"",""trial"",""time""
""fullscreenenter"",""5"",""14787""
","
","
","""event"",""trial"",""time""
""fullscreenenter"",""5"",""14787""
","
",NA,NA,NA,NA,NA,NA,NA,NA,NA,NA,NA,NA,NA,NA,NA,NA,NA,NA,NA,NA,NA,NA,sub95
audio-keyboard-response,122,428594,0.0-63.0,TRUE,TRUE,TRUE,TRUE,"""event"",""trial"",""time""
""fullscreenenter"",""5"",""14787""
","
","
","""event"",""trial"",""time""
""fullscreenenter"",""5"",""14787""
","
",2315,audio/instructions/treasure_feedback.wav,32,NA,NA,NA,NA,NA,NA,NA,NA,NA,NA,NA,NA,NA,NA,NA,NA,NA,NA,NA,sub95
d3-instructions,123,437395,0.0-64.0,TRUE,TRUE,TRUE,TRUE,"""event"",""trial"",""time""
""fullscreenenter"",""5"",""14787""
","
","
","""event"",""trial"",""time""
""fullscreenenter"",""5"",""14787""
","
",NA,NA,NA,NA,NA,NA,NA,NA,NA,NA,NA,NA,NA,NA,NA,NA,NA,NA,NA,NA,NA,NA,sub95
d3-instructions,124,449829,0.0-65.0,TRUE,TRUE,TRUE,TRUE,"""event"",""trial"",""time""
""fullscreenenter"",""5"",""14787""
","
","
","""event"",""trial"",""time""
""fullscreenenter"",""5"",""14787""
","
",NA,NA,NA,NA,NA,NA,NA,NA,NA,NA,NA,NA,NA,NA,NA,NA,NA,NA,NA,NA,NA,NA,sub95
d3-instructions,125,474119,0.0-66.0,TRUE,TRUE,TRUE,TRUE,"""event"",""trial"",""time""
""fullscreenenter"",""5"",""14787""
","
","
","""event"",""trial"",""time""
""fullscreenenter"",""5"",""14787""
","
",NA,NA,NA,NA,NA,NA,NA,NA,NA,NA,NA,NA,NA,NA,NA,NA,NA,NA,NA,NA,NA,NA,sub95
d3-instructions,126,485024,0.0-67.0,TRUE,TRUE,TRUE,TRUE,"""event"",""trial"",""time""
""fullscreenenter"",""5"",""14787""
","
","
","""event"",""trial"",""time""
""fullscreenenter"",""5"",""14787""
","
",NA,NA,NA,NA,NA,NA,NA,NA,NA,NA,NA,NA,NA,NA,NA,NA,NA,NA,NA,NA,NA,NA,sub95
d3-instructions,127,488246,0.0-68.0,TRUE,TRUE,TRUE,TRUE,"""event"",""trial"",""time""
""fullscreenenter"",""5"",""14787""
","
","
","""event"",""trial"",""time""
""fullscreenenter"",""5"",""14787""
","
",NA,NA,NA,NA,NA,NA,NA,NA,NA,NA,NA,NA,NA,NA,NA,NA,NA,NA,NA,NA,NA,NA,sub95
instructions-quiz,128,491247,0.0-69.0,TRUE,TRUE,TRUE,TRUE,"""event"",""trial"",""time""
""fullscreenenter"",""5"",""14787""
","
","
","""event"",""trial"",""time""
""fullscreenenter"",""5"",""14787""
","
",2997.914999999921,audio/quiz/Q1_Prompt.wav,NA,1,NA,NA,NA,NA,NA,NA,NA,NA,NA,NA,NA,NA,NA,NA,NA,NA,NA,NA,sub95
audio-keyboard-response,129,500422,0.0-70.0,TRUE,TRUE,TRUE,TRUE,"""event"",""trial"",""time""
""fullscreenenter"",""5"",""14787""
","
","
","""event"",""trial"",""time""
""fullscreenenter"",""5"",""14787""
","
",null,audio/quiz/Q1_Correct.wav,null,NA,NA,NA,NA,NA,NA,NA,NA,NA,NA,NA,NA,NA,NA,NA,NA,NA,NA,NA,sub95
instructions-quiz,130,504151,0.0-71.0,TRUE,TRUE,TRUE,TRUE,"""event"",""trial"",""time""
""fullscreenenter"",""5"",""14787""
","
","
","""event"",""trial"",""time""
""fullscreenenter"",""5"",""14787""
","
",3724.5050000055926,audio/quiz/Q2_Prompt.wav,NA,0,NA,NA,NA,NA,NA,NA,NA,NA,NA,NA,NA,NA,NA,NA,NA,NA,NA,NA,sub95
audio-keyboard-response,131,517026,0.0-72.0,TRUE,TRUE,TRUE,TRUE,"""event"",""trial"",""time""
""fullscreenenter"",""5"",""14787""
","
","
","""event"",""trial"",""time""
""fullscreenenter"",""5"",""14787""
","
",null,audio/quiz/Q2_Correct.wav,null,NA,NA,NA,NA,NA,NA,NA,NA,NA,NA,NA,NA,NA,NA,NA,NA,NA,NA,NA,sub95
instructions-quiz,132,521411,0.0-73.0,TRUE,TRUE,TRUE,TRUE,"""event"",""trial"",""time""
""fullscreenenter"",""5"",""14787""
","
","
","""event"",""trial"",""time""
""fullscreenenter"",""5"",""14787""
","
",4382.145000010496,audio/quiz/Q3_Prompt.wav,NA,1,NA,NA,NA,NA,NA,NA,NA,NA,NA,NA,NA,NA,NA,NA,NA,NA,NA,NA,sub95
audio-keyboard-response,133,527219,0.0-74.0,TRUE,TRUE,TRUE,TRUE,"""event"",""trial"",""time""
""fullscreenenter"",""5"",""14787""
","
","
","""event"",""trial"",""time""
""fullscreenenter"",""5"",""14787""
","
",null,audio/quiz/Q3_Correct.wav,null,NA,NA,NA,NA,NA,NA,NA,NA,NA,NA,NA,NA,NA,NA,NA,NA,NA,NA,NA,sub95
d3-instructions,134,529492,0.0-75.0,TRUE,TRUE,TRUE,TRUE,"""event"",""trial"",""time""
""fullscreenenter"",""5"",""14787""
","
","
","""event"",""trial"",""time""
""fullscreenenter"",""5"",""14787""
","
",NA,NA,NA,NA,NA,NA,NA,NA,NA,NA,NA,NA,NA,NA,NA,NA,NA,NA,NA,NA,NA,NA,sub95
d3-animate-choice,135,532742,0.0-76.0-0.0,TRUE,TRUE,TRUE,TRUE,"""event"",""trial"",""time""
""fullscreenenter"",""5"",""14787""
","
","
","""event"",""trial"",""time""
""fullscreenenter"",""5"",""14787""
","
",1245.4199999920093,NA,48,NA,NA,3000,1,NA,NA,images/earth.jpg,images/rocket2,images/rocket1,null,images/rocket2,NA,1,real,null,2,NA,NA,NA,sub95
d3-animate-choice,136,535146,0.0-76.0-1.0,TRUE,TRUE,TRUE,TRUE,"""event"",""trial"",""time""
""fullscreenenter"",""5"",""14787""
","
","
","""event"",""trial"",""time""
""fullscreenenter"",""5"",""14787""
","
",382.5550000037765,NA,49,NA,NA,3000,1,NA,NA,images/purpleplanet.jpg,images/alien4,images/alien3,images/rocket2,images/alien3,images/nothing.png,2,real,true,1,common,0,2020-06-20T00:39:21Z,sub95
two-step-fixation,137,536157,0.0-76.0-2.0,TRUE,TRUE,TRUE,TRUE,"""event"",""trial"",""time""
""fullscreenenter"",""5"",""14787""
","
","
","""event"",""trial"",""time""
""fullscreenenter"",""5"",""14787""
","
",NA,images/earth.jpg,NA,NA,NA,NA,NA,NA,NA,NA,NA,NA,NA,NA,NA,fixation,NA,NA,NA,NA,NA,NA,sub95
d3-animate-choice,138,538168,0.0-76.0-0.1,TRUE,TRUE,TRUE,TRUE,"""event"",""trial"",""time""
""fullscreenenter"",""5"",""14787""
","
","
","""event"",""trial"",""time""
""fullscreenenter"",""5"",""14787""
","
",1.3199999957578257,NA,48,NA,NA,3000,1,NA,NA,images/earth.jpg,images/rocket2,images/rocket1,null,images/rocket2,NA,1,real,null,2,NA,NA,NA,sub95
d3-animate-choice,139,540563,0.0-76.0-1.1,TRUE,TRUE,TRUE,TRUE,"""event"",""trial"",""time""
""fullscreenenter"",""5"",""14787""
","
","
","""event"",""trial"",""time""
""fullscreenenter"",""5"",""14787""
","
",380.11500000720844,NA,48,NA,NA,3000,1,NA,NA,images/redplanet1.jpg,images/alien2,images/alien1,images/rocket2,images/alien2,images/nothing.png,2,real,false,2,rare,0,2020-06-20T00:39:27Z,sub95
two-step-fixation,140,541567,0.0-76.0-2.1,TRUE,TRUE,TRUE,TRUE,"""event"",""trial"",""time""
""fullscreenenter"",""5"",""14787""
","
","
","""event"",""trial"",""time""
""fullscreenenter"",""5"",""14787""
","
",NA,images/earth.jpg,NA,NA,NA,NA,NA,NA,NA,NA,NA,NA,NA,NA,NA,fixation,NA,NA,NA,NA,NA,NA,sub95
d3-animate-choice,141,544004,0.0-76.0-0.2,TRUE,TRUE,TRUE,TRUE,"""event"",""trial"",""time""
""fullscreenenter"",""5"",""14787""
","
","
","""event"",""trial"",""time""
""fullscreenenter"",""5"",""14787""
","
",432.80500000400934,NA,48,NA,NA,3000,1,NA,NA,images/earth.jpg,images/rocket2,images/rocket1,null,images/rocket2,NA,1,real,null,2,NA,NA,NA,sub95
d3-animate-choice,142,546491,0.0-76.0-1.2,TRUE,TRUE,TRUE,TRUE,"""event"",""trial"",""time""
""fullscreenenter"",""5"",""14787""
","
","
","""event"",""trial"",""time""
""fullscreenenter"",""5"",""14787""
","
",477.06999999354593,NA,49,NA,NA,3000,1,NA,NA,images/redplanet1.jpg,images/alien2,images/alien1,images/rocket2,images/alien1,images/nothing.png,2,real,false,1,rare,0,2020-06-20T00:39:32Z,sub95
two-step-fixation,143,547504,0.0-76.0-2.2,TRUE,TRUE,TRUE,TRUE,"""event"",""trial"",""time""
""fullscreenenter"",""5"",""14787""
","
","
","""event"",""trial"",""time""
""fullscreenenter"",""5"",""14787""
","
",NA,images/earth.jpg,NA,NA,NA,NA,NA,NA,NA,NA,NA,NA,NA,NA,NA,fixation,NA,NA,NA,NA,NA,NA,sub95
d3-animate-choice,144,549840,0.0-76.0-0.3,TRUE,TRUE,TRUE,TRUE,"""event"",""trial"",""time""
""fullscreenenter"",""5"",""14787""
","
","
","""event"",""trial"",""time""
""fullscreenenter"",""5"",""14787""
","
",331.3099999941187,NA,49,NA,NA,3000,1,NA,NA,images/earth.jpg,images/rocket2,images/rocket1,null,images/rocket1,NA,1,real,null,1,NA,NA,NA,sub95
d3-animate-choice,145,552169,0.0-76.0-1.3,TRUE,TRUE,TRUE,TRUE,"""event"",""trial"",""time""
""fullscreenenter"",""5"",""14787""
","
","
","""event"",""trial"",""time""
""fullscreenenter"",""5"",""14787""
","
",314.4400000019232,NA,48,NA,NA,3000,1,NA,NA,images/redplanet1.jpg,images/alien2,images/alien1,images/rocket1,images/alien2,images/nothing.png,2,real,true,2,common,0,2020-06-20T00:39:38Z,sub95
two-step-fixation,146,553180,0.0-76.0-2.3,TRUE,TRUE,TRUE,TRUE,"""event"",""trial"",""time""
""fullscreenenter"",""5"",""14787""
","
","
","""event"",""trial"",""time""
""fullscreenenter"",""5"",""14787""
","
",NA,images/earth.jpg,NA,NA,NA,NA,NA,NA,NA,NA,NA,NA,NA,NA,NA,fixation,NA,NA,NA,NA,NA,NA,sub95
d3-animate-choice,147,555543,0.0-76.0-0.4,TRUE,TRUE,TRUE,TRUE,"""event"",""trial"",""time""
""fullscreenenter"",""5"",""14787""
","
","
","""event"",""trial"",""time""
""fullscreenenter"",""5"",""14787""
","
",334.9549999984447,NA,49,NA,NA,3000,1,NA,NA,images/earth.jpg,images/rocket2,images/rocket1,null,images/rocket1,NA,1,real,null,1,NA,NA,NA,sub95
d3-animate-choice,148,558246,0.0-76.0-1.4,TRUE,TRUE,TRUE,TRUE,"""event"",""trial"",""time""
""fullscreenenter"",""5"",""14787""
","
","
","""event"",""trial"",""time""
""fullscreenenter"",""5"",""14787""
","
",693.0700000084471,NA,48,NA,NA,3000,1,NA,NA,images/redplanet1.jpg,images/alien2,images/alien1,images/rocket1,images/alien2,images/nothing.png,2,real,true,2,common,0,2020-06-20T00:39:44Z,sub95
two-step-fixation,149,559258,0.0-76.0-2.4,TRUE,TRUE,TRUE,TRUE,"""event"",""trial"",""time""
""fullscreenenter"",""5"",""14787""
","
","
","""event"",""trial"",""time""
""fullscreenenter"",""5"",""14787""
","
",NA,images/earth.jpg,NA,NA,NA,NA,NA,NA,NA,NA,NA,NA,NA,NA,NA,fixation,NA,NA,NA,NA,NA,NA,sub95
d3-animate-choice,150,561436,0.0-76.0-0.5,TRUE,TRUE,TRUE,TRUE,"""event"",""trial"",""time""
""fullscreenenter"",""5"",""14787""
","
","
","""event"",""trial"",""time""
""fullscreenenter"",""5"",""14787""
","
",168.81499999726657,NA,48,NA,NA,3000,1,NA,NA,images/earth.jpg,images/rocket2,images/rocket1,null,images/rocket2,NA,1,real,null,2,NA,NA,NA,sub95
d3-animate-choice,151,563951,0.0-76.0-1.5,TRUE,TRUE,TRUE,TRUE,"""event"",""trial"",""time""
""fullscreenenter"",""5"",""14787""
","
","
","""event"",""trial"",""time""
""fullscreenenter"",""5"",""14787""
","
",505.7150000066031,NA,48,NA,NA,3000,1,NA,NA,images/purpleplanet.jpg,images/alien4,images/alien3,images/rocket2,images/alien4,images/t.png,2,real,true,2,common,1,2020-06-20T00:39:50Z,sub95
two-step-fixation,152,564965,0.0-76.0-2.5,TRUE,TRUE,TRUE,TRUE,"""event"",""trial"",""time""
""fullscreenenter"",""5"",""14787""
","
","
","""event"",""trial"",""time""
""fullscreenenter"",""5"",""14787""
","
",NA,images/earth.jpg,NA,NA,NA,NA,NA,NA,NA,NA,NA,NA,NA,NA,NA,fixation,NA,NA,NA,NA,NA,NA,sub95
d3-animate-choice,153,567212,0.0-76.0-0.6,TRUE,TRUE,TRUE,TRUE,"""event"",""trial"",""time""
""fullscreenenter"",""5"",""14787""
","
","
","""event"",""trial"",""time""
""fullscreenenter"",""5"",""14787""
","
",242.44000000180677,NA,48,NA,NA,3000,1,1183.709999997518,49,images/earth.jpg,images/rocket2,images/rocket1,null,images/rocket2,NA,1,real,null,2,NA,NA,NA,sub95
d3-animate-choice,154,569766,0.0-76.0-1.6,TRUE,TRUE,TRUE,TRUE,"""event"",""trial"",""time""
""fullscreenenter"",""5"",""14787""
","
","
","""event"",""trial"",""time""
""fullscreenenter"",""5"",""14787""
","
",542.5900000118418,NA,48,NA,NA,3000,1,NA,NA,images/purpleplanet.jpg,images/alien4,images/alien3,images/rocket2,images/alien4,images/t.png,2,real,true,2,common,1,2020-06-20T00:39:56Z,sub95
two-step-fixation,155,570776,0.0-76.0-2.6,TRUE,TRUE,TRUE,TRUE,"""event"",""trial"",""time""
""fullscreenenter"",""5"",""14787""
","
","
","""event"",""trial"",""time""
""fullscreenenter"",""5"",""14787""
","
",NA,images/earth.jpg,NA,NA,NA,NA,NA,NA,NA,NA,NA,NA,NA,NA,NA,fixation,NA,NA,NA,NA,NA,NA,sub95
d3-animate-choice,156,573125,0.0-76.0-0.7,TRUE,TRUE,TRUE,TRUE,"""event"",""trial"",""time""
""fullscreenenter"",""5"",""14787""
","
","
","""event"",""trial"",""time""
""fullscreenenter"",""5"",""14787""
","
",338.5450000059791,NA,48,NA,NA,3000,1,NA,NA,images/earth.jpg,images/rocket2,images/rocket1,null,images/rocket2,NA,1,real,null,2,NA,NA,NA,sub95
d3-animate-choice,157,575806,0.0-76.0-1.7,TRUE,TRUE,TRUE,TRUE,"""event"",""trial"",""time""
""fullscreenenter"",""5"",""14787""
","
","
","""event"",""trial"",""time""
""fullscreenenter"",""5"",""14787""
","
",669.8449999967124,NA,48,NA,NA,3000,1,NA,NA,images/purpleplanet.jpg,images/alien4,images/alien3,images/rocket2,images/alien4,images/nothing.png,2,real,true,2,common,0,2020-06-20T00:40:02Z,sub95
two-step-fixation,158,576816,0.0-76.0-2.7,TRUE,TRUE,TRUE,TRUE,"""event"",""trial"",""time""
""fullscreenenter"",""5"",""14787""
","
","
","""event"",""trial"",""time""
""fullscreenenter"",""5"",""14787""
","
",NA,images/earth.jpg,NA,NA,NA,NA,NA,NA,NA,NA,NA,NA,NA,NA,NA,fixation,NA,NA,NA,NA,NA,NA,sub95
d3-animate-choice,159,579145,0.0-76.0-0.8,TRUE,TRUE,TRUE,TRUE,"""event"",""trial"",""time""
""fullscreenenter"",""5"",""14787""
","
","
","""event"",""trial"",""time""
""fullscreenenter"",""5"",""14787""
","
",318.36000000475906,NA,48,NA,NA,3000,1,NA,NA,images/earth.jpg,images/rocket2,images/rocket1,null,images/rocket2,NA,1,real,null,2,NA,NA,NA,sub95
d3-animate-choice,160,581555,0.0-76.0-1.8,TRUE,TRUE,TRUE,TRUE,"""event"",""trial"",""time""
""fullscreenenter"",""5"",""14787""
","
","
","""event"",""trial"",""time""
""fullscreenenter"",""5"",""14787""
","
",398.9199999923585,NA,48,NA,NA,3000,1,NA,NA,images/purpleplanet.jpg,images/alien4,images/alien3,images/rocket2,images/alien4,images/t.png,2,real,true,2,common,1,2020-06-20T00:40:08Z,sub95
two-step-fixation,161,582559,0.0-76.0-2.8,TRUE,TRUE,TRUE,TRUE,"""event"",""trial"",""time""
""fullscreenenter"",""5"",""14787""
","
","
","""event"",""trial"",""time""
""fullscreenenter"",""5"",""14787""
","
",NA,images/earth.jpg,NA,NA,NA,NA,NA,NA,NA,NA,NA,NA,NA,NA,NA,fixation,NA,NA,NA,NA,NA,NA,sub95
d3-animate-choice,162,584782,0.0-76.0-0.9,TRUE,TRUE,TRUE,TRUE,"""event"",""trial"",""time""
""fullscreenenter"",""5"",""14787""
","
","
","""event"",""trial"",""time""
""fullscreenenter"",""5"",""14787""
","
",210.44500000425614,NA,48,NA,NA,3000,1,NA,NA,images/earth.jpg,images/rocket2,images/rocket1,null,images/rocket2,NA,1,real,null,2,NA,NA,NA,sub95
d3-animate-choice,163,587109,0.0-76.0-1.9,TRUE,TRUE,TRUE,TRUE,"""event"",""trial"",""time""
""fullscreenenter"",""5"",""14787""
","
","
","""event"",""trial"",""time""
""fullscreenenter"",""5"",""14787""
","
",317.56499999028165,NA,48,NA,NA,3000,1,514.8749999934807,48,images/purpleplanet.jpg,images/alien4,images/alien3,images/rocket2,images/alien4,images/nothing.png,2,real,true,2,common,0,2020-06-20T00:40:13Z,sub95
two-step-fixation,164,588120,0.0-76.0-2.9,TRUE,TRUE,TRUE,TRUE,"""event"",""trial"",""time""
""fullscreenenter"",""5"",""14787""
","
","
","""event"",""trial"",""time""
""fullscreenenter"",""5"",""14787""
","
",NA,images/earth.jpg,NA,NA,NA,NA,NA,NA,NA,NA,NA,NA,NA,NA,NA,fixation,NA,NA,NA,NA,NA,NA,sub95
d3-animate-choice,165,590330,0.0-76.0-0.10,TRUE,TRUE,TRUE,TRUE,"""event"",""trial"",""time""
""fullscreenenter"",""5"",""14787""
","
","
","""event"",""trial"",""time""
""fullscreenenter"",""5"",""14787""
","
",204.48000000033062,NA,48,NA,NA,3000,1,NA,NA,images/earth.jpg,images/rocket2,images/rocket1,null,images/rocket2,NA,1,real,null,2,NA,NA,NA,sub95
d3-animate-choice,166,592680,0.0-76.0-1.10,TRUE,TRUE,TRUE,TRUE,"""event"",""trial"",""time""
""fullscreenenter"",""5"",""14787""
","
","
","""event"",""trial"",""time""
""fullscreenenter"",""5"",""14787""
","
",332.6550000056159,NA,48,NA,NA,3000,1,"510.43000000936445,714.9350000108825",4848,images/purpleplanet.jpg,images/alien4,images/alien3,images/rocket2,images/alien4,images/t.png,2,real,true,2,common,1,2020-06-20T00:40:19Z,sub95
two-step-fixation,167,593690,0.0-76.0-2.10,TRUE,TRUE,TRUE,TRUE,"""event"",""trial"",""time""
""fullscreenenter"",""5"",""14787""
","
","
","""event"",""trial"",""time""
""fullscreenenter"",""5"",""14787""
","
",NA,images/earth.jpg,NA,NA,NA,NA,NA,NA,NA,NA,NA,NA,NA,NA,NA,fixation,NA,NA,NA,NA,NA,NA,sub95
d3-animate-choice,168,595763,0.0-76.0-0.11,TRUE,TRUE,TRUE,TRUE,"""event"",""trial"",""time""
""fullscreenenter"",""5"",""14787""
","
","
","""event"",""trial"",""time""
""fullscreenenter"",""5"",""14787""
","
",64.39499999396503,NA,48,NA,NA,3000,1,"298.53499999444466,559.4850000052247",4848,images/earth.jpg,images/rocket2,images/rocket1,null,images/rocket2,NA,1,real,null,2,NA,NA,NA,sub95
d3-animate-choice,169,598031,0.0-76.0-1.11,TRUE,TRUE,TRUE,TRUE,"""event"",""trial"",""time""
""fullscreenenter"",""5"",""14787""
","
","
","""event"",""trial"",""time""
""fullscreenenter"",""5"",""14787""
","
",253.59999999636784,NA,48,NA,NA,3000,1,"463.00499999779277,682.6900000014575",4848,images/redplanet1.jpg,images/alien2,images/alien1,images/rocket2,images/alien2,images/t.png,2,real,false,2,rare,1,2020-06-20T00:40:24Z,sub95
two-step-fixation,170,599041,0.0-76.0-2.11,TRUE,TRUE,TRUE,TRUE,"""event"",""trial"",""time""
""fullscreenenter"",""5"",""14787""
","
","
","""event"",""trial"",""time""
""fullscreenenter"",""5"",""14787""
","
",NA,images/earth.jpg,NA,NA,NA,NA,NA,NA,NA,NA,NA,NA,NA,NA,NA,fixation,NA,NA,NA,NA,NA,NA,sub95
d3-animate-choice,171,601094,0.0-76.0-0.12,TRUE,TRUE,TRUE,TRUE,"""event"",""trial"",""time""
""fullscreenenter"",""5"",""14787""
","
","
","""event"",""trial"",""time""
""fullscreenenter"",""5"",""14787""
","
",48.30500000389293,NA,48,NA,NA,3000,1,NA,NA,images/earth.jpg,images/rocket2,images/rocket1,null,images/rocket2,NA,1,real,null,2,NA,NA,NA,sub95
d3-animate-choice,172,603721,0.0-76.0-1.12,TRUE,TRUE,TRUE,TRUE,"""event"",""trial"",""time""
""fullscreenenter"",""5"",""14787""
","
","
","""event"",""trial"",""time""
""fullscreenenter"",""5"",""14787""
","
",615.2299999957904,NA,49,NA,NA,3000,1,NA,NA,images/redplanet1.jpg,images/alien2,images/alien1,images/rocket2,images/alien1,images/nothing.png,2,real,false,1,rare,0,2020-06-20T00:40:30Z,sub95
two-step-fixation,173,604731,0.0-76.0-2.12,TRUE,TRUE,TRUE,TRUE,"""event"",""trial"",""time""
""fullscreenenter"",""5"",""14787""
","
","
","""event"",""trial"",""time""
""fullscreenenter"",""5"",""14787""
","
",NA,images/earth.jpg,NA,NA,NA,NA,NA,NA,NA,NA,NA,NA,NA,NA,NA,fixation,NA,NA,NA,NA,NA,NA,sub95
d3-animate-choice,174,606808,0.0-76.0-0.13,TRUE,TRUE,TRUE,TRUE,"""event"",""trial"",""time""
""fullscreenenter"",""5"",""14787""
","
","
","""event"",""trial"",""time""
""fullscreenenter"",""5"",""14787""
","
",71.1650000012014,NA,48,NA,NA,3000,1,NA,NA,images/earth.jpg,images/rocket2,images/rocket1,null,images/rocket2,NA,1,real,null,2,NA,NA,NA,sub95
d3-animate-choice,175,609461,0.0-76.0-1.13,TRUE,TRUE,TRUE,TRUE,"""event"",""trial"",""time""
""fullscreenenter"",""5"",""14787""
","
","
","""event"",""trial"",""time""
""fullscreenenter"",""5"",""14787""
","
",642.3950000025798,NA,48,NA,NA,3000,1,837.599999998929,48,images/redplanet1.jpg,images/alien2,images/alien1,images/rocket2,images/alien2,images/nothing.png,2,real,false,2,rare,0,2020-06-20T00:40:35Z,sub95
two-step-fixation,176,610471,0.0-76.0-2.13,TRUE,TRUE,TRUE,TRUE,"""event"",""trial"",""time""
""fullscreenenter"",""5"",""14787""
","
","
","""event"",""trial"",""time""
""fullscreenenter"",""5"",""14787""
","
",NA,images/earth.jpg,NA,NA,NA,NA,NA,NA,NA,NA,NA,NA,NA,NA,NA,fixation,NA,NA,NA,NA,NA,NA,sub95
d3-animate-choice,177,612696,0.0-76.0-0.14,TRUE,TRUE,TRUE,TRUE,"""event"",""trial"",""time""
""fullscreenenter"",""5"",""14787""
","
","
","""event"",""trial"",""time""
""fullscreenenter"",""5"",""14787""
","
",210.91500000329688,NA,48,NA,NA,3000,1,NA,NA,images/earth.jpg,images/rocket2,images/rocket1,null,images/rocket2,NA,1,real,null,2,NA,NA,NA,sub95
d3-animate-choice,178,615187,0.0-76.0-1.14,TRUE,TRUE,TRUE,TRUE,"""event"",""trial"",""time""
""fullscreenenter"",""5"",""14787""
","
","
","""event"",""trial"",""time""
""fullscreenenter"",""5"",""14787""
","
",481.31000000284985,NA,48,NA,NA,3000,1,"675.745000000461,863.0149999953574",4848,images/purpleplanet.jpg,images/alien4,images/alien3,images/rocket2,images/alien4,images/nothing.png,2,real,true,2,common,0,2020-06-20T00:40:41Z,sub95
two-step-fixation,179,616197,0.0-76.0-2.14,TRUE,TRUE,TRUE,TRUE,"""event"",""trial"",""time""
""fullscreenenter"",""5"",""14787""
","
","
","""event"",""trial"",""time""
""fullscreenenter"",""5"",""14787""
","
",NA,images/earth.jpg,NA,NA,NA,NA,NA,NA,NA,NA,NA,NA,NA,NA,NA,fixation,NA,NA,NA,NA,NA,NA,sub95
d3-animate-choice,180,618701,0.0-76.0-0.15,TRUE,TRUE,TRUE,TRUE,"""event"",""trial"",""time""
""fullscreenenter"",""5"",""14787""
","
","
","""event"",""trial"",""time""
""fullscreenenter"",""5"",""14787""
","
",498.85999999241903,NA,49,NA,NA,3000,1,NA,NA,images/earth.jpg,images/rocket2,images/rocket1,null,images/rocket1,NA,1,real,null,1,NA,NA,NA,sub95
d3-animate-choice,181,621883,0.0-76.0-1.15,TRUE,TRUE,TRUE,TRUE,"""event"",""trial"",""time""
""fullscreenenter"",""5"",""14787""
","
","
","""event"",""trial"",""time""
""fullscreenenter"",""5"",""14787""
","
",1171.4500000089174,NA,48,NA,NA,3000,1,NA,NA,images/purpleplanet.jpg,images/alien4,images/alien3,images/rocket1,images/alien4,images/nothing.png,2,real,false,2,rare,0,2020-06-20T00:40:48Z,sub95
two-step-fixation,182,622893,0.0-76.0-2.15,TRUE,TRUE,TRUE,TRUE,"""event"",""trial"",""time""
""fullscreenenter"",""5"",""14787""
","
","
","""event"",""trial"",""time""
""fullscreenenter"",""5"",""14787""
","
",NA,images/earth.jpg,NA,NA,NA,NA,NA,NA,NA,NA,NA,NA,NA,NA,NA,fixation,NA,NA,NA,NA,NA,NA,sub95
d3-animate-choice,183,625223,0.0-76.0-0.16,TRUE,TRUE,TRUE,TRUE,"""event"",""trial"",""time""
""fullscreenenter"",""5"",""14787""
","
","
","""event"",""trial"",""time""
""fullscreenenter"",""5"",""14787""
","
",325.250000008964,NA,49,NA,NA,3000,1,1033.5200000117766,48,images/earth.jpg,images/rocket2,images/rocket1,null,images/rocket1,NA,1,real,null,1,NA,NA,NA,sub95
d3-animate-choice,184,627996,0.0-76.0-1.16,TRUE,TRUE,TRUE,TRUE,"""event"",""trial"",""time""
""fullscreenenter"",""5"",""14787""
","
","
","""event"",""trial"",""time""
""fullscreenenter"",""5"",""14787""
","
",760.1550000108546,NA,49,NA,NA,3000,1,NA,NA,images/redplanet1.jpg,images/alien2,images/alien1,images/rocket1,images/alien1,images/t.png,2,real,true,1,common,1,2020-06-20T00:40:54Z,sub95
two-step-fixation,185,629006,0.0-76.0-2.16,TRUE,TRUE,TRUE,TRUE,"""event"",""trial"",""time""
""fullscreenenter"",""5"",""14787""
","
","
","""event"",""trial"",""time""
""fullscreenenter"",""5"",""14787""
","
",NA,images/earth.jpg,NA,NA,NA,NA,NA,NA,NA,NA,NA,NA,NA,NA,NA,fixation,NA,NA,NA,NA,NA,NA,sub95
d3-animate-choice,186,631238,0.0-76.0-0.17,TRUE,TRUE,TRUE,TRUE,"""event"",""trial"",""time""
""fullscreenenter"",""5"",""14787""
","
","
","""event"",""trial"",""time""
""fullscreenenter"",""5"",""14787""
","
",227.44000000238884,NA,48,NA,NA,3000,1,NA,NA,images/earth.jpg,images/rocket2,images/rocket1,null,images/rocket2,NA,1,real,null,2,NA,NA,NA,sub95
d3-animate-choice,187,633619,0.0-76.0-1.17,TRUE,TRUE,TRUE,TRUE,"""event"",""trial"",""time""
""fullscreenenter"",""5"",""14787""
","
","
","""event"",""trial"",""time""
""fullscreenenter"",""5"",""14787""
","
",371.2550000054762,NA,49,NA,NA,3000,1,560.6799999950454,49,images/redplanet1.jpg,images/alien2,images/alien1,images/rocket2,images/alien1,images/t.png,2,real,false,1,rare,1,2020-06-20T00:41:00Z,sub95
two-step-fixation,188,634622,0.0-76.0-2.17,TRUE,TRUE,TRUE,TRUE,"""event"",""trial"",""time""
""fullscreenenter"",""5"",""14787""
","
","
","""event"",""trial"",""time""
""fullscreenenter"",""5"",""14787""
","
",NA,images/earth.jpg,NA,NA,NA,NA,NA,NA,NA,NA,NA,NA,NA,NA,NA,fixation,NA,NA,NA,NA,NA,NA,sub95
d3-animate-choice,189,636627,0.0-76.0-0.18,TRUE,TRUE,TRUE,TRUE,"""event"",""trial"",""time""
""fullscreenenter"",""5"",""14787""
","
","
","""event"",""trial"",""time""
""fullscreenenter"",""5"",""14787""
","
",0.7150000019464642,NA,48,NA,NA,3000,1,NA,NA,images/earth.jpg,images/rocket2,images/rocket1,null,images/rocket2,NA,1,real,null,2,NA,NA,NA,sub95
d3-animate-choice,190,639166,0.0-76.0-1.18,TRUE,TRUE,TRUE,TRUE,"""event"",""trial"",""time""
""fullscreenenter"",""5"",""14787""
","
","
","""event"",""trial"",""time""
""fullscreenenter"",""5"",""14787""
","
",534.5300000044517,NA,49,NA,NA,3000,1,727.4250000045868,49,images/purpleplanet.jpg,images/alien4,images/alien3,images/rocket2,images/alien3,images/nothing.png,2,real,true,1,common,0,2020-06-20T00:41:05Z,sub95
two-step-fixation,191,640176,0.0-76.0-2.18,TRUE,TRUE,TRUE,TRUE,"""event"",""trial"",""time""
""fullscreenenter"",""5"",""14787""
","
","
","""event"",""trial"",""time""
""fullscreenenter"",""5"",""14787""
","
",NA,images/earth.jpg,NA,NA,NA,NA,NA,NA,NA,NA,NA,NA,NA,NA,NA,fixation,NA,NA,NA,NA,NA,NA,sub95
d3-animate-choice,192,642223,0.0-76.0-0.19,TRUE,TRUE,TRUE,TRUE,"""event"",""trial"",""time""
""fullscreenenter"",""5"",""14787""
","
","
","""event"",""trial"",""time""
""fullscreenenter"",""5"",""14787""
","
",43.06999999971595,NA,48,NA,NA,3000,1,NA,NA,images/earth.jpg,images/rocket2,images/rocket1,null,images/rocket2,NA,1,real,null,2,NA,NA,NA,sub95
d3-animate-choice,193,644685,0.0-76.0-1.19,TRUE,TRUE,TRUE,TRUE,"""event"",""trial"",""time""
""fullscreenenter"",""5"",""14787""
","
","
","""event"",""trial"",""time""
""fullscreenenter"",""5"",""14787""
","
",456.2599999917438,NA,48,NA,NA,3000,1,693.6449999921024,48,images/purpleplanet.jpg,images/alien4,images/alien3,images/rocket2,images/alien4,images/nothing.png,2,real,true,2,common,0,2020-06-20T00:41:11Z,sub95
two-step-fixation,194,645703,0.0-76.0-2.19,TRUE,TRUE,TRUE,TRUE,"""event"",""trial"",""time""
""fullscreenenter"",""5"",""14787""
","
","
","""event"",""trial"",""time""
""fullscreenenter"",""5"",""14787""
","
",NA,images/earth.jpg,NA,NA,NA,NA,NA,NA,NA,NA,NA,NA,NA,NA,NA,fixation,NA,NA,NA,NA,NA,NA,sub95
d3-animate-choice,195,647970,0.0-76.0-0.20,TRUE,TRUE,TRUE,TRUE,"""event"",""trial"",""time""
""fullscreenenter"",""5"",""14787""
","
","
","""event"",""trial"",""time""
""fullscreenenter"",""5"",""14787""
","
",256.3099999970291,NA,48,NA,NA,3000,1,NA,NA,images/earth.jpg,images/rocket2,images/rocket1,null,images/rocket2,NA,1,real,null,2,NA,NA,NA,sub95
d3-animate-choice,196,650573,0.0-76.0-1.20,TRUE,TRUE,TRUE,TRUE,"""event"",""trial"",""time""
""fullscreenenter"",""5"",""14787""
","
","
","""event"",""trial"",""time""
""fullscreenenter"",""5"",""14787""
","
",591.5600000007544,NA,49,NA,NA,3000,1,NA,NA,images/purpleplanet.jpg,images/alien4,images/alien3,images/rocket2,images/alien3,images/nothing.png,2,real,true,1,common,0,2020-06-20T00:41:17Z,sub95
two-step-fixation,197,651581,0.0-76.0-2.20,TRUE,TRUE,TRUE,TRUE,"""event"",""trial"",""time""
""fullscreenenter"",""5"",""14787""
","
","
","""event"",""trial"",""time""
""fullscreenenter"",""5"",""14787""
","
",NA,images/earth.jpg,NA,NA,NA,NA,NA,NA,NA,NA,NA,NA,NA,NA,NA,fixation,NA,NA,NA,NA,NA,NA,sub95
d3-animate-choice,198,653768,0.0-76.0-0.21,TRUE,TRUE,TRUE,TRUE,"""event"",""trial"",""time""
""fullscreenenter"",""5"",""14787""
","
","
","""event"",""trial"",""time""
""fullscreenenter"",""5"",""14787""
","
",181.5200000128243,NA,48,NA,NA,3000,1,NA,NA,images/earth.jpg,images/rocket2,images/rocket1,null,images/rocket2,NA,1,real,null,2,NA,NA,NA,sub95
d3-animate-choice,199,656155,0.0-76.0-1.21,TRUE,TRUE,TRUE,TRUE,"""event"",""trial"",""time""
""fullscreenenter"",""5"",""14787""
","
","
","""event"",""trial"",""time""
""fullscreenenter"",""5"",""14787""
","
",376.8899999995483,NA,48,NA,NA,3000,1,602.7400000020862,48,images/redplanet1.jpg,images/alien2,images/alien1,images/rocket2,images/alien2,images/t.png,2,real,false,2,rare,1,2020-06-20T00:41:22Z,sub95
two-step-fixation,200,657164,0.0-76.0-2.21,TRUE,TRUE,TRUE,TRUE,"""event"",""trial"",""time""
""fullscreenenter"",""5"",""14787""
","
","
","""event"",""trial"",""time""
""fullscreenenter"",""5"",""14787""
","
",NA,images/earth.jpg,NA,NA,NA,NA,NA,NA,NA,NA,NA,NA,NA,NA,NA,fixation,NA,NA,NA,NA,NA,NA,sub95
d3-animate-choice,201,659407,0.0-76.0-0.22,TRUE,TRUE,TRUE,TRUE,"""event"",""trial"",""time""
""fullscreenenter"",""5"",""14787""
","
","
","""event"",""trial"",""time""
""fullscreenenter"",""5"",""14787""
","
",237.5249999895459,NA,49,NA,NA,3000,1,NA,NA,images/earth.jpg,images/rocket2,images/rocket1,null,images/rocket1,NA,1,real,null,1,NA,NA,NA,sub95
d3-animate-choice,202,661734,0.0-76.0-1.22,TRUE,TRUE,TRUE,TRUE,"""event"",""trial"",""time""
""fullscreenenter"",""5"",""14787""
","
","
","""event"",""trial"",""time""
""fullscreenenter"",""5"",""14787""
","
",313.6450000019977,NA,48,NA,NA,3000,1,"487.99500000313856,680.7799999951385",4848,images/redplanet1.jpg,images/alien2,images/alien1,images/rocket1,images/alien2,images/t.png,2,real,true,2,common,1,2020-06-20T00:41:28Z,sub95
two-step-fixation,203,662738,0.0-76.0-2.22,TRUE,TRUE,TRUE,TRUE,"""event"",""trial"",""time""
""fullscreenenter"",""5"",""14787""
","
","
","""event"",""trial"",""time""
""fullscreenenter"",""5"",""14787""
","
",NA,images/earth.jpg,NA,NA,NA,NA,NA,NA,NA,NA,NA,NA,NA,NA,NA,fixation,NA,NA,NA,NA,NA,NA,sub95
d3-animate-choice,204,664791,0.0-76.0-0.23,TRUE,TRUE,TRUE,TRUE,"""event"",""trial"",""time""
""fullscreenenter"",""5"",""14787""
","
","
","""event"",""trial"",""time""
""fullscreenenter"",""5"",""14787""
","
",48.16500000015367,NA,49,NA,NA,3000,1,"245.760000005248,1808.5399999981746,2044.1649999993388",494848,images/earth.jpg,images/rocket2,images/rocket1,null,images/rocket1,NA,1,real,null,1,NA,NA,NA,sub95
d3-animate-choice,205,666985,0.0-76.0-1.23,TRUE,TRUE,TRUE,TRUE,"""event"",""trial"",""time""
""fullscreenenter"",""5"",""14787""
","
","
","""event"",""trial"",""time""
""fullscreenenter"",""5"",""14787""
","
",189.74499999603722,NA,48,NA,NA,3000,1,439.0699999930803,48,images/redplanet1.jpg,images/alien2,images/alien1,images/rocket1,images/alien2,images/t.png,2,real,true,2,common,1,2020-06-20T00:41:33Z,sub95
two-step-fixation,206,667996,0.0-76.0-2.23,TRUE,TRUE,TRUE,TRUE,"""event"",""trial"",""time""
""fullscreenenter"",""5"",""14787""
","
","
","""event"",""trial"",""time""
""fullscreenenter"",""5"",""14787""
","
",NA,images/earth.jpg,NA,NA,NA,NA,NA,NA,NA,NA,NA,NA,NA,NA,NA,fixation,NA,NA,NA,NA,NA,NA,sub95
d3-animate-choice,207,670089,0.0-76.0-0.24,TRUE,TRUE,TRUE,TRUE,"""event"",""trial"",""time""
""fullscreenenter"",""5"",""14787""
","
","
","""event"",""trial"",""time""
""fullscreenenter"",""5"",""14787""
","
",81.11499999358784,NA,49,NA,NA,3000,1,"404.6950000047218,641.2850000051549,910.8899999991991,1107.9549999994924,1386.2800000060815,1582.3749999981374,1786.4600000029895,2022.9450000042561",4848484848484848,images/earth.jpg,images/rocket2,images/rocket1,null,images/rocket1,NA,1,real,null,1,NA,NA,NA,sub95
d3-animate-choice,208,672269,0.0-76.0-1.24,TRUE,TRUE,TRUE,TRUE,"""event"",""trial"",""time""
""fullscreenenter"",""5"",""14787""
","
","
","""event"",""trial"",""time""
""fullscreenenter"",""5"",""14787""
","
",175.58999999891967,NA,48,NA,NA,3000,1,402.4700000009034,48,images/redplanet1.jpg,images/alien2,images/alien1,images/rocket1,images/alien2,images/t.png,2,real,true,2,common,1,2020-06-20T00:41:38Z,sub95
two-step-fixation,209,673279,0.0-76.0-2.24,TRUE,TRUE,TRUE,TRUE,"""event"",""trial"",""time""
""fullscreenenter"",""5"",""14787""
","
","
","""event"",""trial"",""time""
""fullscreenenter"",""5"",""14787""
","
",NA,images/earth.jpg,NA,NA,NA,NA,NA,NA,NA,NA,NA,NA,NA,NA,NA,fixation,NA,NA,NA,NA,NA,NA,sub95
d3-animate-choice,210,675514,0.0-76.0-0.25,TRUE,TRUE,TRUE,TRUE,"""event"",""trial"",""time""
""fullscreenenter"",""5"",""14787""
","
","
","""event"",""trial"",""time""
""fullscreenenter"",""5"",""14787""
","
",230.71500001242384,NA,49,NA,NA,3000,1,2044.160000004922,48,images/earth.jpg,images/rocket2,images/rocket1,null,images/rocket1,NA,1,real,null,1,NA,NA,NA,sub95
d3-animate-choice,211,677628,0.0-76.0-1.25,TRUE,TRUE,TRUE,TRUE,"""event"",""trial"",""time""
""fullscreenenter"",""5"",""14787""
","
","
","""event"",""trial"",""time""
""fullscreenenter"",""5"",""14787""
","
",109.03499998676125,NA,48,NA,NA,3000,1,"361.47999999229796,582.3699999891687,942.7499999874271,1316.9399999896996,1615.639999989071,1884.4549999921583",484848484848,images/redplanet1.jpg,images/alien2,images/alien1,images/rocket1,images/alien2,images/t.png,2,real,true,2,common,1,2020-06-20T00:41:44Z,sub95
two-step-fixation,212,678632,0.0-76.0-2.25,TRUE,TRUE,TRUE,TRUE,"""event"",""trial"",""time""
""fullscreenenter"",""5"",""14787""
","
","
","""event"",""trial"",""time""
""fullscreenenter"",""5"",""14787""
","
",NA,images/earth.jpg,NA,NA,NA,NA,NA,NA,NA,NA,NA,NA,NA,NA,NA,fixation,NA,NA,NA,NA,NA,NA,sub95
d3-animate-choice,213,680952,0.0-76.0-0.26,TRUE,TRUE,TRUE,TRUE,"""event"",""trial"",""time""
""fullscreenenter"",""5"",""14787""
","
","
","""event"",""trial"",""time""
""fullscreenenter"",""5"",""14787""
","
",309.3000000080792,NA,49,NA,NA,3000,1,"1830.8099999994738,2040.2299999987008,2263.795000006212",484848,images/earth.jpg,images/rocket2,images/rocket1,null,images/rocket1,NA,1,real,null,1,NA,NA,NA,sub95
d3-animate-choice,214,683189,0.0-76.0-1.26,TRUE,TRUE,TRUE,TRUE,"""event"",""trial"",""time""
""fullscreenenter"",""5"",""14787""
","
","
","""event"",""trial"",""time""
""fullscreenenter"",""5"",""14787""
","
",233.21500000020023,NA,48,NA,NA,3000,1,"468.64999999525025,688.4049999935087",4848,images/redplanet1.jpg,images/alien2,images/alien1,images/rocket1,images/alien2,images/t.png,2,real,true,2,common,1,2020-06-20T00:41:49Z,sub95
two-step-fixation,215,684200,0.0-76.0-2.26,TRUE,TRUE,TRUE,TRUE,"""event"",""trial"",""time""
""fullscreenenter"",""5"",""14787""
","
","
","""event"",""trial"",""time""
""fullscreenenter"",""5"",""14787""
","
",NA,images/earth.jpg,NA,NA,NA,NA,NA,NA,NA,NA,NA,NA,NA,NA,NA,fixation,NA,NA,NA,NA,NA,NA,sub95
d3-animate-choice,216,686304,0.0-76.0-0.27,TRUE,TRUE,TRUE,TRUE,"""event"",""trial"",""time""
""fullscreenenter"",""5"",""14787""
","
","
","""event"",""trial"",""time""
""fullscreenenter"",""5"",""14787""
","
",94.27000000141561,NA,49,NA,NA,3000,1,"1692.460000005667,1919.965000008233",4848,images/earth.jpg,images/rocket2,images/rocket1,null,images/rocket1,NA,1,real,null,1,NA,NA,NA,sub95
d3-animate-choice,217,688386,0.0-76.0-1.27,TRUE,TRUE,TRUE,TRUE,"""event"",""trial"",""time""
""fullscreenenter"",""5"",""14787""
","
","
","""event"",""trial"",""time""
""fullscreenenter"",""5"",""14787""
","
",72.60499999392778,NA,48,NA,NA,3000,1,"330.1799999899231,566.8699999951059",4848,images/redplanet1.jpg,images/alien2,images/alien1,images/rocket1,images/alien2,images/t.png,2,real,true,2,common,1,2020-06-20T00:41:54Z,sub95
two-step-fixation,218,689397,0.0-76.0-2.27,TRUE,TRUE,TRUE,TRUE,"""event"",""trial"",""time""
""fullscreenenter"",""5"",""14787""
","
","
","""event"",""trial"",""time""
""fullscreenenter"",""5"",""14787""
","
",NA,images/earth.jpg,NA,NA,NA,NA,NA,NA,NA,NA,NA,NA,NA,NA,NA,fixation,NA,NA,NA,NA,NA,NA,sub95
d3-animate-choice,219,691688,0.0-76.0-0.28,TRUE,TRUE,TRUE,TRUE,"""event"",""trial"",""time""
""fullscreenenter"",""5"",""14787""
","
","
","""event"",""trial"",""time""
""fullscreenenter"",""5"",""14787""
","
",281.15000000980217,NA,49,NA,NA,3000,1,2250.480000002426,48,images/earth.jpg,images/rocket2,images/rocket1,null,images/rocket1,NA,1,real,null,1,NA,NA,NA,sub95
d3-animate-choice,220,693944,0.0-76.0-1.28,TRUE,TRUE,TRUE,TRUE,"""event"",""trial"",""time""
""fullscreenenter"",""5"",""14787""
","
","
","""event"",""trial"",""time""
""fullscreenenter"",""5"",""14787""
","
",251.88499999057967,NA,48,NA,NA,3000,1,460.1399999955902,48,images/purpleplanet.jpg,images/alien4,images/alien3,images/rocket1,images/alien4,images/t.png,2,real,false,2,rare,1,2020-06-20T00:42:00Z,sub95
two-step-fixation,221,694955,0.0-76.0-2.28,TRUE,TRUE,TRUE,TRUE,"""event"",""trial"",""time""
""fullscreenenter"",""5"",""14787""
","
","
","""event"",""trial"",""time""
""fullscreenenter"",""5"",""14787""
","
",NA,images/earth.jpg,NA,NA,NA,NA,NA,NA,NA,NA,NA,NA,NA,NA,NA,fixation,NA,NA,NA,NA,NA,NA,sub95
d3-animate-choice,222,697331,0.0-76.0-0.29,TRUE,TRUE,TRUE,TRUE,"""event"",""trial"",""time""
""fullscreenenter"",""5"",""14787""
","
","
","""event"",""trial"",""time""
""fullscreenenter"",""5"",""14787""
","
",365.14500000339467,NA,49,NA,NA,3000,1,"1889.7649999998976,2219.154999998864",4848,images/earth.jpg,images/rocket2,images/rocket1,null,images/rocket1,NA,1,real,null,1,NA,NA,NA,sub95
d3-animate-choice,223,699436,0.0-76.0-1.29,TRUE,TRUE,TRUE,TRUE,"""event"",""trial"",""time""
""fullscreenenter"",""5"",""14787""
","
","
","""event"",""trial"",""time""
""fullscreenenter"",""5"",""14787""
","
",96.79999999934807,NA,48,NA,NA,3000,1,592.7550000051269,48,images/redplanet1.jpg,images/alien2,images/alien1,images/rocket1,images/alien2,images/t.png,2,real,true,2,common,1,2020-06-20T00:42:05Z,sub95
two-step-fixation,224,700447,0.0-76.0-2.29,TRUE,TRUE,TRUE,TRUE,"""event"",""trial"",""time""
""fullscreenenter"",""5"",""14787""
","
","
","""event"",""trial"",""time""
""fullscreenenter"",""5"",""14787""
","
",NA,images/earth.jpg,NA,NA,NA,NA,NA,NA,NA,NA,NA,NA,NA,NA,NA,fixation,NA,NA,NA,NA,NA,NA,sub95
d3-animate-choice,225,702755,0.0-76.0-0.30,TRUE,TRUE,TRUE,TRUE,"""event"",""trial"",""time""
""fullscreenenter"",""5"",""14787""
","
","
","""event"",""trial"",""time""
""fullscreenenter"",""5"",""14787""
","
",301.7099999997299,NA,49,NA,NA,3000,1,"1990.1199999876553,2231.064999999944",4848,images/earth.jpg,images/rocket2,images/rocket1,null,images/rocket1,NA,1,real,null,1,NA,NA,NA,sub95
d3-animate-choice,226,704954,0.0-76.0-1.30,TRUE,TRUE,TRUE,TRUE,"""event"",""trial"",""time""
""fullscreenenter"",""5"",""14787""
","
","
","""event"",""trial"",""time""
""fullscreenenter"",""5"",""14787""
","
",193.83500001276843,NA,48,NA,NA,3000,1,428.9800000115065,48,images/purpleplanet.jpg,images/alien4,images/alien3,images/rocket1,images/alien4,images/t.png,2,real,false,2,rare,1,2020-06-20T00:42:11Z,sub95
two-step-fixation,227,705964,0.0-76.0-2.30,TRUE,TRUE,TRUE,TRUE,"""event"",""trial"",""time""
""fullscreenenter"",""5"",""14787""
","
","
","""event"",""trial"",""time""
""fullscreenenter"",""5"",""14787""
","
",NA,images/earth.jpg,NA,NA,NA,NA,NA,NA,NA,NA,NA,NA,NA,NA,NA,fixation,NA,NA,NA,NA,NA,NA,sub95
d3-animate-choice,228,708008,0.0-76.0-0.31,TRUE,TRUE,TRUE,TRUE,"""event"",""trial"",""time""
""fullscreenenter"",""5"",""14787""
","
","
","""event"",""trial"",""time""
""fullscreenenter"",""5"",""14787""
","
",39.64000000269152,NA,49,NA,NA,3000,1,"1270.7749999972293,1474.1649999923538,1702.449999997043,1898.8749999989523",48484848,images/earth.jpg,images/rocket2,images/rocket1,null,images/rocket1,NA,1,real,null,1,NA,NA,NA,sub95
d3-animate-choice,229,710094,0.0-76.0-1.31,TRUE,TRUE,TRUE,TRUE,"""event"",""trial"",""time""
""fullscreenenter"",""5"",""14787""
","
","
","""event"",""trial"",""time""
""fullscreenenter"",""5"",""14787""
","
",79.79499999783002,NA,48,NA,NA,3000,1,301.12499999813735,48,images/redplanet1.jpg,images/alien2,images/alien1,images/rocket1,images/alien2,images/t.png,2,real,true,2,common,1,2020-06-20T00:42:16Z,sub95
two-step-fixation,230,711104,0.0-76.0-2.31,TRUE,TRUE,TRUE,TRUE,"""event"",""trial"",""time""
""fullscreenenter"",""5"",""14787""
","
","
","""event"",""trial"",""time""
""fullscreenenter"",""5"",""14787""
","
",NA,images/earth.jpg,NA,NA,NA,NA,NA,NA,NA,NA,NA,NA,NA,NA,NA,fixation,NA,NA,NA,NA,NA,NA,sub95
d3-animate-choice,231,713258,0.0-76.0-0.32,TRUE,TRUE,TRUE,TRUE,"""event"",""trial"",""time""
""fullscreenenter"",""5"",""14787""
","
","
","""event"",""trial"",""time""
""fullscreenenter"",""5"",""14787""
","
",148.04000000003725,NA,49,NA,NA,3000,1,"1593.7899999989895,1806.6800000087824,2076.9799999980023",484848,images/earth.jpg,images/rocket2,images/rocket1,null,images/rocket1,NA,1,real,null,1,NA,NA,NA,sub95
d3-animate-choice,232,715427,0.0-76.0-1.32,TRUE,TRUE,TRUE,TRUE,"""event"",""trial"",""time""
""fullscreenenter"",""5"",""14787""
","
","
","""event"",""trial"",""time""
""fullscreenenter"",""5"",""14787""
","
",165.25499999988824,NA,48,NA,NA,3000,1,458.3099999872502,48,images/purpleplanet.jpg,images/alien4,images/alien3,images/rocket1,images/alien4,images/nothing.png,2,real,false,2,rare,0,2020-06-20T00:42:21Z,sub95
two-step-fixation,233,716438,0.0-76.0-2.32,TRUE,TRUE,TRUE,TRUE,"""event"",""trial"",""time""
""fullscreenenter"",""5"",""14787""
","
","
","""event"",""trial"",""time""
""fullscreenenter"",""5"",""14787""
","
",NA,images/earth.jpg,NA,NA,NA,NA,NA,NA,NA,NA,NA,NA,NA,NA,NA,fixation,NA,NA,NA,NA,NA,NA,sub95
d3-animate-choice,234,718664,0.0-76.0-0.33,TRUE,TRUE,TRUE,TRUE,"""event"",""trial"",""time""
""fullscreenenter"",""5"",""14787""
","
","
","""event"",""trial"",""time""
""fullscreenenter"",""5"",""14787""
","
",221.85499999613967,NA,49,NA,NA,3000,1,NA,NA,images/earth.jpg,images/rocket2,images/rocket1,null,images/rocket1,NA,1,real,null,1,NA,NA,NA,sub95
d3-animate-choice,235,720994,0.0-76.0-1.33,TRUE,TRUE,TRUE,TRUE,"""event"",""trial"",""time""
""fullscreenenter"",""5"",""14787""
","
","
","""event"",""trial"",""time""
""fullscreenenter"",""5"",""14787""
","
",319.76500000746455,NA,48,NA,NA,3000,1,525.9250000090105,48,images/purpleplanet.jpg,images/alien4,images/alien3,images/rocket1,images/alien4,images/t.png,2,real,false,2,rare,1,2020-06-20T00:42:27Z,sub95
two-step-fixation,236,722007,0.0-76.0-2.33,TRUE,TRUE,TRUE,TRUE,"""event"",""trial"",""time""
""fullscreenenter"",""5"",""14787""
","
","
","""event"",""trial"",""time""
""fullscreenenter"",""5"",""14787""
","
",NA,images/earth.jpg,NA,NA,NA,NA,NA,NA,NA,NA,NA,NA,NA,NA,NA,fixation,NA,NA,NA,NA,NA,NA,sub95
d3-animate-choice,237,724066,0.0-76.0-0.34,TRUE,TRUE,TRUE,TRUE,"""event"",""trial"",""time""
""fullscreenenter"",""5"",""14787""
","
","
","""event"",""trial"",""time""
""fullscreenenter"",""5"",""14787""
","
",53.3350000041537,NA,49,NA,NA,3000,1,1874.7799999982817,48,images/earth.jpg,images/rocket2,images/rocket1,null,images/rocket1,NA,1,real,null,1,NA,NA,NA,sub95
d3-animate-choice,238,726181,0.0-76.0-1.34,TRUE,TRUE,TRUE,TRUE,"""event"",""trial"",""time""
""fullscreenenter"",""5"",""14787""
","
","
","""event"",""trial"",""time""
""fullscreenenter"",""5"",""14787""
","
",111.4850000012666,NA,48,NA,NA,3000,1,"372.2950000083074,1536.1400000110734,1837.5100000121165",484848,images/redplanet1.jpg,images/alien2,images/alien1,images/rocket1,images/alien2,images/t.png,2,real,true,2,common,1,2020-06-20T00:42:32Z,sub95
two-step-fixation,239,727191,0.0-76.0-2.34,TRUE,TRUE,TRUE,TRUE,"""event"",""trial"",""time""
""fullscreenenter"",""5"",""14787""
","
","
","""event"",""trial"",""time""
""fullscreenenter"",""5"",""14787""
","
",NA,images/earth.jpg,NA,NA,NA,NA,NA,NA,NA,NA,NA,NA,NA,NA,NA,fixation,NA,NA,NA,NA,NA,NA,sub95
d3-animate-choice,240,729248,0.0-76.0-0.35,TRUE,TRUE,TRUE,TRUE,"""event"",""trial"",""time""
""fullscreenenter"",""5"",""14787""
","
","
","""event"",""trial"",""time""
""fullscreenenter"",""5"",""14787""
","
",52.36499999591615,NA,49,NA,NA,3000,1,243.82999999215826,49,images/earth.jpg,images/rocket2,images/rocket1,null,images/rocket1,NA,1,real,null,1,NA,NA,NA,sub95
d3-animate-choice,241,731596,0.0-76.0-1.35,TRUE,TRUE,TRUE,TRUE,"""event"",""trial"",""time""
""fullscreenenter"",""5"",""14787""
","
","
","""event"",""trial"",""time""
""fullscreenenter"",""5"",""14787""
","
",336.51999999710824,NA,49,NA,NA,3000,1,"556.3899999979185,758.9299999963259,957.4100000027101",484848,images/purpleplanet.jpg,images/alien4,images/alien3,images/rocket1,images/alien3,images/t.png,2,real,false,1,rare,1,2020-06-20T00:42:38Z,sub95
two-step-fixation,242,732600,0.0-76.0-2.35,TRUE,TRUE,TRUE,TRUE,"""event"",""trial"",""time""
""fullscreenenter"",""5"",""14787""
","
","
","""event"",""trial"",""time""
""fullscreenenter"",""5"",""14787""
","
",NA,images/earth.jpg,NA,NA,NA,NA,NA,NA,NA,NA,NA,NA,NA,NA,NA,fixation,NA,NA,NA,NA,NA,NA,sub95
d3-animate-choice,243,734857,0.0-76.0-0.36,TRUE,TRUE,TRUE,TRUE,"""event"",""trial"",""time""
""fullscreenenter"",""5"",""14787""
","
","
","""event"",""trial"",""time""
""fullscreenenter"",""5"",""14787""
","
",251.39999999373686,NA,49,NA,NA,3000,1,"517.3149999900488,744.989999991958,950.5449999996927,1155.5799999914598,1420.0149999960558,1646.775000001071,1844.0449999907287,2063.864999989164",4848484848484848,images/earth.jpg,images/rocket2,images/rocket1,null,images/rocket1,NA,1,real,null,1,NA,NA,NA,sub95
d3-animate-choice,244,736900,0.0-76.0-1.36,TRUE,TRUE,TRUE,TRUE,"""event"",""trial"",""time""
""fullscreenenter"",""5"",""14787""
","
","
","""event"",""trial"",""time""
""fullscreenenter"",""5"",""14787""
","
",38.37999999814201,NA,48,NA,NA,3000,1,295.38500000489876,48,images/purpleplanet.jpg,images/alien4,images/alien3,images/rocket1,images/alien4,images/nothing.png,2,real,false,2,rare,0,2020-06-20T00:42:43Z,sub95
two-step-fixation,245,737911,0.0-76.0-2.36,TRUE,TRUE,TRUE,TRUE,"""event"",""trial"",""time""
""fullscreenenter"",""5"",""14787""
","
","
","""event"",""trial"",""time""
""fullscreenenter"",""5"",""14787""
","
",NA,images/earth.jpg,NA,NA,NA,NA,NA,NA,NA,NA,NA,NA,NA,NA,NA,fixation,NA,NA,NA,NA,NA,NA,sub95
d3-animate-choice,246,740072,0.0-76.0-0.37,TRUE,TRUE,TRUE,TRUE,"""event"",""trial"",""time""
""fullscreenenter"",""5"",""14787""
","
","
","""event"",""trial"",""time""
""fullscreenenter"",""5"",""14787""
","
",147.80500000051688,NA,49,NA,NA,3000,1,366.6850000008708,49,images/earth.jpg,images/rocket2,images/rocket1,null,images/rocket1,NA,1,real,null,1,NA,NA,NA,sub95
d3-animate-choice,247,742397,0.0-76.0-1.37,TRUE,TRUE,TRUE,TRUE,"""event"",""trial"",""time""
""fullscreenenter"",""5"",""14787""
","
","
","""event"",""trial"",""time""
""fullscreenenter"",""5"",""14787""
","
",315.1450000004843,NA,48,NA,NA,3000,1,"520.7099999970524,728.610000005574",4848,images/redplanet1.jpg,images/alien2,images/alien1,images/rocket1,images/alien2,images/t.png,2,real,true,2,common,1,2020-06-20T00:42:48Z,sub95
two-step-fixation,248,743407,0.0-76.0-2.37,TRUE,TRUE,TRUE,TRUE,"""event"",""trial"",""time""
""fullscreenenter"",""5"",""14787""
","
","
","""event"",""trial"",""time""
""fullscreenenter"",""5"",""14787""
","
",NA,images/earth.jpg,NA,NA,NA,NA,NA,NA,NA,NA,NA,NA,NA,NA,NA,fixation,NA,NA,NA,NA,NA,NA,sub95
d3-animate-choice,249,745535,0.0-76.0-0.38,TRUE,TRUE,TRUE,TRUE,"""event"",""trial"",""time""
""fullscreenenter"",""5"",""14787""
","
","
","""event"",""trial"",""time""
""fullscreenenter"",""5"",""14787""
","
",115.78500000177883,NA,48,NA,NA,3000,1,385.1950000098441,48,images/earth.jpg,images/rocket2,images/rocket1,null,images/rocket2,NA,1,real,null,2,NA,NA,NA,sub95
d3-animate-choice,250,747695,0.0-76.0-1.38,TRUE,TRUE,TRUE,TRUE,"""event"",""trial"",""time""
""fullscreenenter"",""5"",""14787""
","
","
","""event"",""trial"",""time""
""fullscreenenter"",""5"",""14787""
","
",146.31999999983236,NA,48,NA,NA,3000,1,"348.62499999871943,590.2050000004238",4848,images/purpleplanet.jpg,images/alien4,images/alien3,images/rocket2,images/alien4,images/nothing.png,2,real,true,2,common,0,2020-06-20T00:42:54Z,sub95
two-step-fixation,251,748709,0.0-76.0-2.38,TRUE,TRUE,TRUE,TRUE,"""event"",""trial"",""time""
""fullscreenenter"",""5"",""14787""
","
","
","""event"",""trial"",""time""
""fullscreenenter"",""5"",""14787""
","
",NA,images/earth.jpg,NA,NA,NA,NA,NA,NA,NA,NA,NA,NA,NA,NA,NA,fixation,NA,NA,NA,NA,NA,NA,sub95
d3-animate-choice,252,750872,0.0-76.0-0.39,TRUE,TRUE,TRUE,TRUE,"""event"",""trial"",""time""
""fullscreenenter"",""5"",""14787""
","
","
","""event"",""trial"",""time""
""fullscreenenter"",""5"",""14787""
","
",150.6599999993341,NA,49,NA,NA,3000,1,"1191.3649999914924,1394.9699999939185,1603.464999992866,1847.7849999908358,2090.234999996028",4848484848,images/earth.jpg,images/rocket2,images/rocket1,null,images/rocket1,NA,1,real,null,1,NA,NA,NA,sub95
d3-animate-choice,253,753044,0.0-76.0-1.39,TRUE,TRUE,TRUE,TRUE,"""event"",""trial"",""time""
""fullscreenenter"",""5"",""14787""
","
","
","""event"",""trial"",""time""
""fullscreenenter"",""5"",""14787""
","
",168.01500000292435,NA,48,NA,NA,3000,1,"418.2699999946635,615.9849999967264",4848,images/redplanet1.jpg,images/alien2,images/alien1,images/rocket1,images/alien2,images/t.png,2,real,true,2,common,1,2020-06-20T00:42:59Z,sub95
two-step-fixation,254,754056,0.0-76.0-2.39,TRUE,TRUE,TRUE,TRUE,"""event"",""trial"",""time""
""fullscreenenter"",""5"",""14787""
","
","
","""event"",""trial"",""time""
""fullscreenenter"",""5"",""14787""
","
",NA,images/earth.jpg,NA,NA,NA,NA,NA,NA,NA,NA,NA,NA,NA,NA,NA,fixation,NA,NA,NA,NA,NA,NA,sub95
d3-animate-choice,255,756200,0.0-76.0-0.40,TRUE,TRUE,TRUE,TRUE,"""event"",""trial"",""time""
""fullscreenenter"",""5"",""14787""
","
","
","""event"",""trial"",""time""
""fullscreenenter"",""5"",""14787""
","
",133.09499999741092,NA,49,NA,NA,3000,1,"446.1699999956181,1496.2850000010803,1767.9499999940163,1994.8999999905936",49484848,images/earth.jpg,images/rocket2,images/rocket1,null,images/rocket1,NA,1,real,null,1,NA,NA,NA,sub95
d3-animate-choice,256,758320,0.0-76.0-1.40,TRUE,TRUE,TRUE,TRUE,"""event"",""trial"",""time""
""fullscreenenter"",""5"",""14787""
","
","
","""event"",""trial"",""time""
""fullscreenenter"",""5"",""14787""
","
",110.08499999297783,NA,48,NA,NA,3000,1,"292.80999999900814,566.7700000049081",4848,images/redplanet1.jpg,images/alien2,images/alien1,images/rocket1,images/alien2,images/t.png,2,real,true,2,common,1,2020-06-20T00:43:04Z,sub95
two-step-fixation,257,759333,0.0-76.0-2.40,TRUE,TRUE,TRUE,TRUE,"""event"",""trial"",""time""
""fullscreenenter"",""5"",""14787""
","
","
","""event"",""trial"",""time""
""fullscreenenter"",""5"",""14787""
","
",NA,images/earth.jpg,NA,NA,NA,NA,NA,NA,NA,NA,NA,NA,NA,NA,NA,fixation,NA,NA,NA,NA,NA,NA,sub95
d3-animate-choice,258,761488,0.0-76.0-0.41,TRUE,TRUE,TRUE,TRUE,"""event"",""trial"",""time""
""fullscreenenter"",""5"",""14787""
","
","
","""event"",""trial"",""time""
""fullscreenenter"",""5"",""14787""
","
",149.31000000797212,NA,49,NA,NA,3000,1,"1429.4950000039535,1676.8650000012713,1927.4250000016764",484848,images/earth.jpg,images/rocket2,images/rocket1,null,images/rocket1,NA,1,real,null,1,NA,NA,NA,sub95
d3-animate-choice,259,763500,0.0-76.0-1.41,TRUE,TRUE,TRUE,TRUE,"""event"",""trial"",""time""
""fullscreenenter"",""5"",""14787""
","
","
","""event"",""trial"",""time""
""fullscreenenter"",""5"",""14787""
","
",5.5450000072596595,NA,48,NA,NA,3000,1,"272.77999999932945,513.9199999975972",4848,images/redplanet1.jpg,images/alien2,images/alien1,images/rocket1,images/alien2,images/t.png,2,real,true,2,common,1,2020-06-20T00:43:10Z,sub95
two-step-fixation,260,764511,0.0-76.0-2.41,TRUE,TRUE,TRUE,TRUE,"""event"",""trial"",""time""
""fullscreenenter"",""5"",""14787""
","
","
","""event"",""trial"",""time""
""fullscreenenter"",""5"",""14787""
","
",NA,images/earth.jpg,NA,NA,NA,NA,NA,NA,NA,NA,NA,NA,NA,NA,NA,fixation,NA,NA,NA,NA,NA,NA,sub95
d3-animate-choice,261,766688,0.0-76.0-0.42,TRUE,TRUE,TRUE,TRUE,"""event"",""trial"",""time""
""fullscreenenter"",""5"",""14787""
","
","
","""event"",""trial"",""time""
""fullscreenenter"",""5"",""14787""
","
",165.49499999382533,NA,49,NA,NA,3000,1,"380.2449999930104,541.3649999973131,889.6999999997206,1108.6749999958556,1372.9800000000978,1615.6149999878835,1850.0549999880604,2102.999999988242",4948484848484848,images/earth.jpg,images/rocket2,images/rocket1,null,images/rocket1,NA,1,real,null,1,NA,NA,NA,sub95
d3-animate-choice,262,768872,0.0-76.0-1.42,TRUE,TRUE,TRUE,TRUE,"""event"",""trial"",""time""
""fullscreenenter"",""5"",""14787""
","
","
","""event"",""trial"",""time""
""fullscreenenter"",""5"",""14787""
","
",179.4649999937974,NA,48,NA,NA,3000,1,"418.4150000073714,672.0400000049267",4848,images/redplanet1.jpg,images/alien2,images/alien1,images/rocket1,images/alien2,images/nothing.png,2,real,true,2,common,0,2020-06-20T00:43:15Z,sub95
two-step-fixation,263,769883,0.0-76.0-2.42,TRUE,TRUE,TRUE,TRUE,"""event"",""trial"",""time""
""fullscreenenter"",""5"",""14787""
","
","
","""event"",""trial"",""time""
""fullscreenenter"",""5"",""14787""
","
",NA,images/earth.jpg,NA,NA,NA,NA,NA,NA,NA,NA,NA,NA,NA,NA,NA,fixation,NA,NA,NA,NA,NA,NA,sub95
d3-animate-choice,264,771933,0.0-76.0-0.43,TRUE,TRUE,TRUE,TRUE,"""event"",""trial"",""time""
""fullscreenenter"",""5"",""14787""
","
","
","""event"",""trial"",""time""
""fullscreenenter"",""5"",""14787""
","
",45.73000001255423,NA,49,NA,NA,3000,1,342.00000000419095,49,images/earth.jpg,images/rocket2,images/rocket1,null,images/rocket1,NA,1,real,null,1,NA,NA,NA,sub95
d3-animate-choice,265,774271,0.0-76.0-1.43,TRUE,TRUE,TRUE,TRUE,"""event"",""trial"",""time""
""fullscreenenter"",""5"",""14787""
","
","
","""event"",""trial"",""time""
""fullscreenenter"",""5"",""14787""
","
",328.1100000021979,NA,48,NA,NA,3000,1,579.6450000052573,48,images/purpleplanet.jpg,images/alien4,images/alien3,images/rocket1,images/alien4,images/t.png,2,real,false,2,rare,1,2020-06-20T00:43:20Z,sub95
two-step-fixation,266,775276,0.0-76.0-2.43,TRUE,TRUE,TRUE,TRUE,"""event"",""trial"",""time""
""fullscreenenter"",""5"",""14787""
","
","
","""event"",""trial"",""time""
""fullscreenenter"",""5"",""14787""
","
",NA,images/earth.jpg,NA,NA,NA,NA,NA,NA,NA,NA,NA,NA,NA,NA,NA,fixation,NA,NA,NA,NA,NA,NA,sub95
d3-animate-choice,267,777614,0.0-76.0-0.44,TRUE,TRUE,TRUE,TRUE,"""event"",""trial"",""time""
""fullscreenenter"",""5"",""14787""
","
","
","""event"",""trial"",""time""
""fullscreenenter"",""5"",""14787""
","
",333.8499999954365,NA,48,NA,NA,3000,1,"1996.7949999991106,2295.299999997951",4848,images/earth.jpg,images/rocket2,images/rocket1,null,images/rocket2,NA,1,real,null,2,NA,NA,NA,sub95
d3-animate-choice,268,779840,0.0-76.0-1.44,TRUE,TRUE,TRUE,TRUE,"""event"",""trial"",""time""
""fullscreenenter"",""5"",""14787""
","
","
","""event"",""trial"",""time""
""fullscreenenter"",""5"",""14787""
","
",221.0449999984121,NA,48,NA,NA,3000,1,475.70499998982996,48,images/purpleplanet.jpg,images/alien4,images/alien3,images/rocket2,images/alien4,images/nothing.png,2,real,true,2,common,0,2020-06-20T00:43:26Z,sub95
two-step-fixation,269,780850,0.0-76.0-2.44,TRUE,TRUE,TRUE,TRUE,"""event"",""trial"",""time""
""fullscreenenter"",""5"",""14787""
","
","
","""event"",""trial"",""time""
""fullscreenenter"",""5"",""14787""
","
",NA,images/earth.jpg,NA,NA,NA,NA,NA,NA,NA,NA,NA,NA,NA,NA,NA,fixation,NA,NA,NA,NA,NA,NA,sub95
d3-animate-choice,270,783027,0.0-76.0-0.45,TRUE,TRUE,TRUE,TRUE,"""event"",""trial"",""time""
""fullscreenenter"",""5"",""14787""
","
","
","""event"",""trial"",""time""
""fullscreenenter"",""5"",""14787""
","
",172.62499999196734,NA,49,NA,NA,3000,1,"436.7249999922933,2040.9949999884702",4948,images/earth.jpg,images/rocket2,images/rocket1,null,images/rocket1,NA,1,real,null,1,NA,NA,NA,sub95
d3-animate-choice,271,785170,0.0-76.0-1.45,TRUE,TRUE,TRUE,TRUE,"""event"",""trial"",""time""
""fullscreenenter"",""5"",""14787""
","
","
","""event"",""trial"",""time""
""fullscreenenter"",""5"",""14787""
","
