trial_type,trial_index,time_elapsed,internal_node_id,rocket_sides,red_planet_first_rocket,red_display_order,purple_display_order,interactions,blur_events,focus_events,fullscreenenter_events,fullscreenexit_events,rt,stimulus,key_press,button_pressed,success,duration,valid_pressed,rts,keys,planet_text,right_text,left_text,center_text,chosen_text,reward_text,trial_stage,practice_trial,transition_type,choice,transition,reward,timestamp,subject_id
pavlovia,0,7,0.0-0.0,TRUE,TRUE,FALSE,FALSE,"
","
","
","
","
",NA,NA,NA,NA,NA,NA,NA,NA,NA,NA,NA,NA,NA,NA,NA,NA,NA,NA,NA,NA,NA,NA,sub148
html-keyboard-response,1,2755,0.0-1.0,TRUE,TRUE,FALSE,FALSE,"
","
","
","
","
",2746.0549999959767,Welcome! Press the space bar to begin.,32,NA,NA,NA,NA,NA,NA,NA,NA,NA,NA,NA,NA,NA,NA,NA,NA,NA,NA,NA,sub148
audio-keyboard-response,2,7148,0.0-2.0,TRUE,TRUE,FALSE,FALSE,"""event"",""trial"",""time""
""blur"",""3"",""17222""
""focus"",""3"",""17223""
","""event"",""trial"",""time""
""blur"",""3"",""17222""
","""event"",""trial"",""time""
""focus"",""3"",""17223""
","
","
",4307,audio/beep_loop.wav,32,NA,NA,NA,NA,NA,NA,NA,NA,NA,NA,NA,NA,NA,NA,NA,NA,NA,NA,NA,sub148
audio-button-response,3,18179,0.0-3.0,TRUE,TRUE,FALSE,FALSE,"""event"",""trial"",""time""
""blur"",""3"",""17222""
""focus"",""3"",""17223""
","""event"",""trial"",""time""
""blur"",""3"",""17222""
","""event"",""trial"",""time""
""focus"",""3"",""17223""
","
","
",NaN,audio/fish.mp3,NA,1,NA,NA,NA,NA,NA,NA,NA,NA,NA,NA,NA,NA,NA,NA,NA,NA,NA,NA,sub148
audio-button-response,4,21003,0.0-4.0,TRUE,TRUE,FALSE,FALSE,"""event"",""trial"",""time""
""blur"",""3"",""17222""
""focus"",""3"",""17223""
""fullscreenenter"",""5"",""27736""
","""event"",""trial"",""time""
""blur"",""3"",""17222""
","""event"",""trial"",""time""
""focus"",""3"",""17223""
","""event"",""trial"",""time""
""fullscreenenter"",""5"",""27736""
","
",NaN,audio/tiger.mp3,NA,4,NA,NA,NA,NA,NA,NA,NA,NA,NA,NA,NA,NA,NA,NA,NA,NA,NA,NA,sub148
fullscreen,5,28724,0.0-5.0,TRUE,TRUE,FALSE,FALSE,"""event"",""trial"",""time""
""blur"",""3"",""17222""
""focus"",""3"",""17223""
""fullscreenenter"",""5"",""27736""
","""event"",""trial"",""time""
""blur"",""3"",""17222""
","""event"",""trial"",""time""
""focus"",""3"",""17223""
","""event"",""trial"",""time""
""fullscreenenter"",""5"",""27736""
","
",NA,NA,NA,NA,TRUE,NA,NA,NA,NA,NA,NA,NA,NA,NA,NA,NA,NA,NA,NA,NA,NA,NA,sub148
d3-instructions,6,62124,0.0-6.0,TRUE,TRUE,FALSE,FALSE,"""event"",""trial"",""time""
""blur"",""3"",""17222""
""focus"",""3"",""17223""
""fullscreenenter"",""5"",""27736""
","""event"",""trial"",""time""
""blur"",""3"",""17222""
","""event"",""trial"",""time""
""focus"",""3"",""17223""
","""event"",""trial"",""time""
""fullscreenenter"",""5"",""27736""
","
",NA,NA,NA,NA,NA,NA,NA,NA,NA,NA,NA,NA,NA,NA,NA,NA,NA,NA,NA,NA,NA,NA,sub148
d3-instructions,7,71333,0.0-7.0,TRUE,TRUE,FALSE,FALSE,"""event"",""trial"",""time""
""blur"",""3"",""17222""
""focus"",""3"",""17223""
""fullscreenenter"",""5"",""27736""
""blur"",""8"",""83920""
""focus"",""8"",""95007""
","""event"",""trial"",""time""
""blur"",""3"",""17222""
""blur"",""8"",""83920""
","""event"",""trial"",""time""
""focus"",""3"",""17223""
""focus"",""8"",""95007""
","""event"",""trial"",""time""
""fullscreenenter"",""5"",""27736""
","
",NA,NA,NA,NA,NA,NA,NA,NA,NA,NA,NA,NA,NA,NA,NA,NA,NA,NA,NA,NA,NA,NA,sub148
d3-instructions,8,96964,0.0-8.0,TRUE,TRUE,FALSE,FALSE,"""event"",""trial"",""time""
""blur"",""3"",""17222""
""focus"",""3"",""17223""
""fullscreenenter"",""5"",""27736""
""blur"",""8"",""83920""
""focus"",""8"",""95007""
","""event"",""trial"",""time""
""blur"",""3"",""17222""
""blur"",""8"",""83920""
","""event"",""trial"",""time""
""focus"",""3"",""17223""
""focus"",""8"",""95007""
","""event"",""trial"",""time""
""fullscreenenter"",""5"",""27736""
","
",NA,NA,NA,NA,NA,NA,NA,NA,NA,NA,NA,NA,NA,NA,NA,NA,NA,NA,NA,NA,NA,NA,sub148
d3-instructions,9,113420,0.0-9.0,TRUE,TRUE,FALSE,FALSE,"""event"",""trial"",""time""
""blur"",""3"",""17222""
""focus"",""3"",""17223""
""fullscreenenter"",""5"",""27736""
""blur"",""8"",""83920""
""focus"",""8"",""95007""
","""event"",""trial"",""time""
""blur"",""3"",""17222""
""blur"",""8"",""83920""
","""event"",""trial"",""time""
""focus"",""3"",""17223""
""focus"",""8"",""95007""
","""event"",""trial"",""time""
""fullscreenenter"",""5"",""27736""
","
",NA,NA,NA,NA,NA,NA,NA,NA,NA,NA,NA,NA,NA,NA,NA,NA,NA,NA,NA,NA,NA,NA,sub148
d3-instructions,10,137589,0.0-10.0,TRUE,TRUE,FALSE,FALSE,"""event"",""trial"",""time""
""blur"",""3"",""17222""
""focus"",""3"",""17223""
""fullscreenenter"",""5"",""27736""
""blur"",""8"",""83920""
""focus"",""8"",""95007""
","""event"",""trial"",""time""
""blur"",""3"",""17222""
""blur"",""8"",""83920""
","""event"",""trial"",""time""
""focus"",""3"",""17223""
""focus"",""8"",""95007""
","""event"",""trial"",""time""
""fullscreenenter"",""5"",""27736""
","
",NA,NA,NA,NA,NA,NA,NA,NA,NA,NA,NA,NA,NA,NA,NA,NA,NA,NA,NA,NA,NA,NA,sub148
d3-animate-choice,11,142739,0.0-11.0,TRUE,TRUE,FALSE,FALSE,"""event"",""trial"",""time""
""blur"",""3"",""17222""
""focus"",""3"",""17223""
""fullscreenenter"",""5"",""27736""
""blur"",""8"",""83920""
""focus"",""8"",""95007""
","""event"",""trial"",""time""
""blur"",""3"",""17222""
""blur"",""8"",""83920""
","""event"",""trial"",""time""
""focus"",""3"",""17223""
""focus"",""8"",""95007""
","""event"",""trial"",""time""
""fullscreenenter"",""5"",""27736""
","
",3137.8850000328384,NA,49,NA,NA,3000,1,NA,NA,images/tutgreenplanet.jpg,images/tutalien1,images/tutalien2,null,images/tutalien2,NA,NA,practice,null,NA,NA,NA,NA,sub148
d3-animate-choice,12,146679,0.0-12.0,TRUE,TRUE,FALSE,FALSE,"""event"",""trial"",""time""
""blur"",""3"",""17222""
""focus"",""3"",""17223""
""fullscreenenter"",""5"",""27736""
""blur"",""8"",""83920""
""focus"",""8"",""95007""
","""event"",""trial"",""time""
""blur"",""3"",""17222""
""blur"",""8"",""83920""
","""event"",""trial"",""time""
""focus"",""3"",""17223""
""focus"",""8"",""95007""
","""event"",""trial"",""time""
""fullscreenenter"",""5"",""27736""
","
",1006.3899999950081,NA,32,NA,NA,3000,1,1934.8950000130571,48,images/tutgreenplanet.jpg,images/tutalien1,images/tutalien2,null,images/tutalien1,NA,NA,practice,null,NA,NA,NA,NA,sub148
d3-animate-choice,13,150408,0.0-13.0,TRUE,TRUE,FALSE,FALSE,"""event"",""trial"",""time""
""blur"",""3"",""17222""
""focus"",""3"",""17223""
""fullscreenenter"",""5"",""27736""
""blur"",""8"",""83920""
""focus"",""8"",""95007""
","""event"",""trial"",""time""
""blur"",""3"",""17222""
""blur"",""8"",""83920""
","""event"",""trial"",""time""
""focus"",""3"",""17223""
""focus"",""8"",""95007""
","""event"",""trial"",""time""
""fullscreenenter"",""5"",""27736""
","
",1724.1550000035204,NA,48,NA,NA,3000,1,NA,NA,images/tutgreenplanet.jpg,images/tutalien1,images/tutalien2,null,images/tutalien1,NA,NA,practice,null,NA,NA,NA,NA,sub148
d3-animate-choice,14,153718,0.0-14.0,TRUE,TRUE,FALSE,FALSE,"""event"",""trial"",""time""
""blur"",""3"",""17222""
""focus"",""3"",""17223""
""fullscreenenter"",""5"",""27736""
""blur"",""8"",""83920""
""focus"",""8"",""95007""
","""event"",""trial"",""time""
""blur"",""3"",""17222""
""blur"",""8"",""83920""
","""event"",""trial"",""time""
""focus"",""3"",""17223""
""focus"",""8"",""95007""
","""event"",""trial"",""time""
""fullscreenenter"",""5"",""27736""
","
",1304.4150000205263,NA,49,NA,NA,3000,1,NA,NA,images/tutgreenplanet.jpg,images/tutalien1,images/tutalien2,null,images/tutalien2,NA,NA,practice,null,NA,NA,NA,NA,sub148
d3-instructions,15,162804,0.0-15.0,TRUE,TRUE,FALSE,FALSE,"""event"",""trial"",""time""
""blur"",""3"",""17222""
""focus"",""3"",""17223""
""fullscreenenter"",""5"",""27736""
""blur"",""8"",""83920""
""focus"",""8"",""95007""
","""event"",""trial"",""time""
""blur"",""3"",""17222""
""blur"",""8"",""83920""
","""event"",""trial"",""time""
""focus"",""3"",""17223""
""focus"",""8"",""95007""
","""event"",""trial"",""time""
""fullscreenenter"",""5"",""27736""
","
",NA,NA,NA,NA,NA,NA,NA,NA,NA,NA,NA,NA,NA,NA,NA,NA,NA,NA,NA,NA,NA,NA,sub148
d3-instructions,16,172797,0.0-16.0,TRUE,TRUE,FALSE,FALSE,"""event"",""trial"",""time""
""blur"",""3"",""17222""
""focus"",""3"",""17223""
""fullscreenenter"",""5"",""27736""
""blur"",""8"",""83920""
""focus"",""8"",""95007""
","""event"",""trial"",""time""
""blur"",""3"",""17222""
""blur"",""8"",""83920""
","""event"",""trial"",""time""
""focus"",""3"",""17223""
""focus"",""8"",""95007""
","""event"",""trial"",""time""
""fullscreenenter"",""5"",""27736""
","
",NA,NA,NA,NA,NA,NA,NA,NA,NA,NA,NA,NA,NA,NA,NA,NA,NA,NA,NA,NA,NA,NA,sub148
d3-instructions,17,184397,0.0-17.0,TRUE,TRUE,FALSE,FALSE,"""event"",""trial"",""time""
""blur"",""3"",""17222""
""focus"",""3"",""17223""
""fullscreenenter"",""5"",""27736""
""blur"",""8"",""83920""
""focus"",""8"",""95007""
","""event"",""trial"",""time""
""blur"",""3"",""17222""
""blur"",""8"",""83920""
","""event"",""trial"",""time""
""focus"",""3"",""17223""
""focus"",""8"",""95007""
","""event"",""trial"",""time""
""fullscreenenter"",""5"",""27736""
","
",NA,NA,NA,NA,NA,NA,NA,NA,NA,NA,NA,NA,NA,NA,NA,NA,NA,NA,NA,NA,NA,NA,sub148
d3-instructions,18,229245,0.0-18.0,TRUE,TRUE,FALSE,FALSE,"""event"",""trial"",""time""
""blur"",""3"",""17222""
""focus"",""3"",""17223""
""fullscreenenter"",""5"",""27736""
""blur"",""8"",""83920""
""focus"",""8"",""95007""
","""event"",""trial"",""time""
""blur"",""3"",""17222""
""blur"",""8"",""83920""
","""event"",""trial"",""time""
""focus"",""3"",""17223""
""focus"",""8"",""95007""
","""event"",""trial"",""time""
""fullscreenenter"",""5"",""27736""
","
",NA,NA,NA,NA,NA,NA,NA,NA,NA,NA,NA,NA,NA,NA,NA,NA,NA,NA,NA,NA,NA,NA,sub148
d3-instructions,19,245709,0.0-19.0,TRUE,TRUE,FALSE,FALSE,"""event"",""trial"",""time""
""blur"",""3"",""17222""
""focus"",""3"",""17223""
""fullscreenenter"",""5"",""27736""
""blur"",""8"",""83920""
""focus"",""8"",""95007""
","""event"",""trial"",""time""
""blur"",""3"",""17222""
""blur"",""8"",""83920""
","""event"",""trial"",""time""
""focus"",""3"",""17223""
""focus"",""8"",""95007""
","""event"",""trial"",""time""
""fullscreenenter"",""5"",""27736""
","
",NA,NA,NA,NA,NA,NA,NA,NA,NA,NA,NA,NA,NA,NA,NA,NA,NA,NA,NA,NA,NA,NA,sub148
d3-animate-choice,20,249055,0.0-20.0,TRUE,TRUE,FALSE,FALSE,"""event"",""trial"",""time""
""blur"",""3"",""17222""
""focus"",""3"",""17223""
""fullscreenenter"",""5"",""27736""
""blur"",""8"",""83920""
""focus"",""8"",""95007""
","""event"",""trial"",""time""
""blur"",""3"",""17222""
""blur"",""8"",""83920""
","""event"",""trial"",""time""
""focus"",""3"",""17223""
""focus"",""8"",""95007""
","""event"",""trial"",""time""
""fullscreenenter"",""5"",""27736""
","
",1341.324999986682,NA,49,NA,NA,3000,1,NA,NA,images/tutyellowplanet.jpg,null,images/tutalien3,null,images/tutalien3,images/t.png,NA,practice,null,NA,NA,NA,NA,sub148
d3-animate-choice,21,253718,0.0-21.0,TRUE,TRUE,FALSE,FALSE,"""event"",""trial"",""time""
""blur"",""3"",""17222""
""focus"",""3"",""17223""
""fullscreenenter"",""5"",""27736""
""blur"",""8"",""83920""
""focus"",""8"",""95007""
","""event"",""trial"",""time""
""blur"",""3"",""17222""
""blur"",""8"",""83920""
","""event"",""trial"",""time""
""focus"",""3"",""17223""
""focus"",""8"",""95007""
","""event"",""trial"",""time""
""fullscreenenter"",""5"",""27736""
","
",2658.9550000499003,NA,49,NA,NA,3000,1,NA,NA,images/tutyellowplanet.jpg,null,images/tutalien3,null,images/tutalien3,images/t.png,NA,practice,null,NA,NA,NA,NA,sub148
d3-animate-choice,22,258336,0.0-22.0,TRUE,TRUE,FALSE,FALSE,"""event"",""trial"",""time""
""blur"",""3"",""17222""
""focus"",""3"",""17223""
""fullscreenenter"",""5"",""27736""
""blur"",""8"",""83920""
""focus"",""8"",""95007""
","""event"",""trial"",""time""
""blur"",""3"",""17222""
""blur"",""8"",""83920""
","""event"",""trial"",""time""
""focus"",""3"",""17223""
""focus"",""8"",""95007""
","""event"",""trial"",""time""
""fullscreenenter"",""5"",""27736""
","
",2614.2300000065006,NA,49,NA,NA,3000,1,NA,NA,images/tutyellowplanet.jpg,null,images/tutalien3,null,images/tutalien3,images/t.png,NA,practice,null,NA,NA,NA,NA,sub148
d3-animate-choice,23,261143,0.0-23.0,TRUE,TRUE,FALSE,FALSE,"""event"",""trial"",""time""
""blur"",""3"",""17222""
""focus"",""3"",""17223""
""fullscreenenter"",""5"",""27736""
""blur"",""8"",""83920""
""focus"",""8"",""95007""
","""event"",""trial"",""time""
""blur"",""3"",""17222""
""blur"",""8"",""83920""
","""event"",""trial"",""time""
""focus"",""3"",""17223""
""focus"",""8"",""95007""
","""event"",""trial"",""time""
""fullscreenenter"",""5"",""27736""
","
",802.2299999720417,NA,49,NA,NA,3000,1,NA,NA,images/tutyellowplanet.jpg,null,images/tutalien3,null,images/tutalien3,images/t.png,NA,practice,null,NA,NA,NA,NA,sub148
d3-animate-choice,24,263621,0.0-24.0,TRUE,TRUE,FALSE,FALSE,"""event"",""trial"",""time""
""blur"",""3"",""17222""
""focus"",""3"",""17223""
""fullscreenenter"",""5"",""27736""
""blur"",""8"",""83920""
""focus"",""8"",""95007""
","""event"",""trial"",""time""
""blur"",""3"",""17222""
""blur"",""8"",""83920""
","""event"",""trial"",""time""
""focus"",""3"",""17223""
""focus"",""8"",""95007""
","""event"",""trial"",""time""
""fullscreenenter"",""5"",""27736""
","
",475.10500001953915,NA,49,NA,NA,3000,1,NA,NA,images/tutyellowplanet.jpg,null,images/tutalien3,null,images/tutalien3,images/nothing.png,NA,practice,null,NA,NA,NA,NA,sub148
d3-animate-choice,25,271848,0.0-25.0,TRUE,TRUE,FALSE,FALSE,"""event"",""trial"",""time""
""blur"",""3"",""17222""
""focus"",""3"",""17223""
""fullscreenenter"",""5"",""27736""
""blur"",""8"",""83920""
""focus"",""8"",""95007""
","""event"",""trial"",""time""
""blur"",""3"",""17222""
""blur"",""8"",""83920""
","""event"",""trial"",""time""
""focus"",""3"",""17223""
""focus"",""8"",""95007""
","""event"",""trial"",""time""
""fullscreenenter"",""5"",""27736""
","
",6223.100000002887,NA,49,NA,NA,3000,1,NA,NA,images/tutyellowplanet.jpg,null,images/tutalien3,null,images/tutalien3,images/t.png,NA,practice,null,NA,NA,NA,NA,sub148
d3-animate-choice,26,274574,0.0-26.0,TRUE,TRUE,FALSE,FALSE,"""event"",""trial"",""time""
""blur"",""3"",""17222""
""focus"",""3"",""17223""
""fullscreenenter"",""5"",""27736""
""blur"",""8"",""83920""
""focus"",""8"",""95007""
","""event"",""trial"",""time""
""blur"",""3"",""17222""
""blur"",""8"",""83920""
","""event"",""trial"",""time""
""focus"",""3"",""17223""
""focus"",""8"",""95007""
","""event"",""trial"",""time""
""fullscreenenter"",""5"",""27736""
","
",721.4249999960884,NA,49,NA,NA,3000,1,NA,NA,images/tutyellowplanet.jpg,null,images/tutalien3,null,images/tutalien3,images/t.png,NA,practice,null,NA,NA,NA,NA,sub148
d3-animate-choice,27,277254,0.0-27.0,TRUE,TRUE,FALSE,FALSE,"""event"",""trial"",""time""
""blur"",""3"",""17222""
""focus"",""3"",""17223""
""fullscreenenter"",""5"",""27736""
""blur"",""8"",""83920""
""focus"",""8"",""95007""
","""event"",""trial"",""time""
""blur"",""3"",""17222""
""blur"",""8"",""83920""
","""event"",""trial"",""time""
""focus"",""3"",""17223""
""focus"",""8"",""95007""
","""event"",""trial"",""time""
""fullscreenenter"",""5"",""27736""
","
",675.6900000036694,NA,49,NA,NA,3000,1,NA,NA,images/tutyellowplanet.jpg,null,images/tutalien3,null,images/tutalien3,images/t.png,NA,practice,null,NA,NA,NA,NA,sub148
d3-animate-choice,28,281695,0.0-28.0,TRUE,TRUE,FALSE,FALSE,"""event"",""trial"",""time""
""blur"",""3"",""17222""
""focus"",""3"",""17223""
""fullscreenenter"",""5"",""27736""
""blur"",""8"",""83920""
""focus"",""8"",""95007""
","""event"",""trial"",""time""
""blur"",""3"",""17222""
""blur"",""8"",""83920""
","""event"",""trial"",""time""
""focus"",""3"",""17223""
""focus"",""8"",""95007""
","""event"",""trial"",""time""
""fullscreenenter"",""5"",""27736""
","
",2436.5150000085123,NA,49,NA,NA,3000,1,NA,NA,images/tutyellowplanet.jpg,null,images/tutalien3,null,images/tutalien3,images/t.png,NA,practice,null,NA,NA,NA,NA,sub148
d3-animate-choice,29,285000,0.0-29.0,TRUE,TRUE,FALSE,FALSE,"""event"",""trial"",""time""
""blur"",""3"",""17222""
""focus"",""3"",""17223""
""fullscreenenter"",""5"",""27736""
""blur"",""8"",""83920""
""focus"",""8"",""95007""
","""event"",""trial"",""time""
""blur"",""3"",""17222""
""blur"",""8"",""83920""
","""event"",""trial"",""time""
""focus"",""3"",""17223""
""focus"",""8"",""95007""
","""event"",""trial"",""time""
""fullscreenenter"",""5"",""27736""
","
",1300.7799999904819,NA,49,NA,NA,3000,1,NA,NA,images/tutyellowplanet.jpg,null,images/tutalien3,null,images/tutalien3,images/t.png,NA,practice,null,NA,NA,NA,NA,sub148
d3-instructions,30,296069,0.0-30.0,TRUE,TRUE,FALSE,FALSE,"""event"",""trial"",""time""
""blur"",""3"",""17222""
""focus"",""3"",""17223""
""fullscreenenter"",""5"",""27736""
""blur"",""8"",""83920""
""focus"",""8"",""95007""
","""event"",""trial"",""time""
""blur"",""3"",""17222""
""blur"",""8"",""83920""
","""event"",""trial"",""time""
""focus"",""3"",""17223""
""focus"",""8"",""95007""
","""event"",""trial"",""time""
""fullscreenenter"",""5"",""27736""
","
",NA,NA,NA,NA,NA,NA,NA,NA,NA,NA,NA,NA,NA,NA,NA,NA,NA,NA,NA,NA,NA,NA,sub148
d3-instructions,31,307558,0.0-31.0,TRUE,TRUE,FALSE,FALSE,"""event"",""trial"",""time""
""blur"",""3"",""17222""
""focus"",""3"",""17223""
""fullscreenenter"",""5"",""27736""
""blur"",""8"",""83920""
""focus"",""8"",""95007""
","""event"",""trial"",""time""
""blur"",""3"",""17222""
""blur"",""8"",""83920""
","""event"",""trial"",""time""
""focus"",""3"",""17223""
""focus"",""8"",""95007""
","""event"",""trial"",""time""
""fullscreenenter"",""5"",""27736""
","
",NA,NA,NA,NA,NA,NA,NA,NA,NA,NA,NA,NA,NA,NA,NA,NA,NA,NA,NA,NA,NA,NA,sub148
d3-instructions,32,324653,0.0-32.0,TRUE,TRUE,FALSE,FALSE,"""event"",""trial"",""time""
""blur"",""3"",""17222""
""focus"",""3"",""17223""
""fullscreenenter"",""5"",""27736""
""blur"",""8"",""83920""
""focus"",""8"",""95007""
","""event"",""trial"",""time""
""blur"",""3"",""17222""
""blur"",""8"",""83920""
","""event"",""trial"",""time""
""focus"",""3"",""17223""
""focus"",""8"",""95007""
","""event"",""trial"",""time""
""fullscreenenter"",""5"",""27736""
","
",NA,NA,NA,NA,NA,NA,NA,NA,NA,NA,NA,NA,NA,NA,NA,NA,NA,NA,NA,NA,NA,NA,sub148
d3-instructions,33,336974,0.0-33.0,TRUE,TRUE,FALSE,FALSE,"""event"",""trial"",""time""
""blur"",""3"",""17222""
""focus"",""3"",""17223""
""fullscreenenter"",""5"",""27736""
""blur"",""8"",""83920""
""focus"",""8"",""95007""
","""event"",""trial"",""time""
""blur"",""3"",""17222""
""blur"",""8"",""83920""
","""event"",""trial"",""time""
""focus"",""3"",""17223""
""focus"",""8"",""95007""
","""event"",""trial"",""time""
""fullscreenenter"",""5"",""27736""
","
",NA,NA,NA,NA,NA,NA,NA,NA,NA,NA,NA,NA,NA,NA,NA,NA,NA,NA,NA,NA,NA,NA,sub148
d3-animate-choice,34,341727,0.0-34.0,TRUE,TRUE,FALSE,FALSE,"""event"",""trial"",""time""
""blur"",""3"",""17222""
""focus"",""3"",""17223""
""fullscreenenter"",""5"",""27736""
""blur"",""8"",""83920""
""focus"",""8"",""95007""
","""event"",""trial"",""time""
""blur"",""3"",""17222""
""blur"",""8"",""83920""
","""event"",""trial"",""time""
""focus"",""3"",""17223""
""focus"",""8"",""95007""
","""event"",""trial"",""time""
""fullscreenenter"",""5"",""27736""
","
",2749.0499999839813,NA,49,NA,NA,3000,1,NA,NA,images/tutgreenplanet.jpg,images/tutalien1,images/tutalien2,null,images/tutalien2,images/t.png,NA,practice,null,NA,NA,NA,NA,sub148
d3-animate-choice,35,362034,0.0-35.0,TRUE,TRUE,FALSE,FALSE,"""event"",""trial"",""time""
""blur"",""3"",""17222""
""focus"",""3"",""17223""
""fullscreenenter"",""5"",""27736""
""blur"",""8"",""83920""
""focus"",""8"",""95007""
","""event"",""trial"",""time""
""blur"",""3"",""17222""
""blur"",""8"",""83920""
","""event"",""trial"",""time""
""focus"",""3"",""17223""
""focus"",""8"",""95007""
","""event"",""trial"",""time""
""fullscreenenter"",""5"",""27736""
","
",18301.97999998927,NA,49,NA,NA,3000,1,NA,NA,images/tutgreenplanet.jpg,images/tutalien1,images/tutalien2,null,images/tutalien2,images/t.png,NA,practice,null,NA,NA,NA,NA,sub148
d3-animate-choice,36,365686,0.0-36.0,TRUE,TRUE,FALSE,FALSE,"""event"",""trial"",""time""
""blur"",""3"",""17222""
""focus"",""3"",""17223""
""fullscreenenter"",""5"",""27736""
""blur"",""8"",""83920""
""focus"",""8"",""95007""
","""event"",""trial"",""time""
""blur"",""3"",""17222""
""blur"",""8"",""83920""
","""event"",""trial"",""time""
""focus"",""3"",""17223""
""focus"",""8"",""95007""
","""event"",""trial"",""time""
""fullscreenenter"",""5"",""27736""
","
",1648.3400000142865,NA,49,NA,NA,3000,1,NA,NA,images/tutgreenplanet.jpg,images/tutalien1,images/tutalien2,null,images/tutalien2,images/nothing.png,NA,practice,null,NA,NA,NA,NA,sub148
d3-animate-choice,37,372601,0.0-37.0,TRUE,TRUE,FALSE,FALSE,"""event"",""trial"",""time""
""blur"",""3"",""17222""
""focus"",""3"",""17223""
""fullscreenenter"",""5"",""27736""
""blur"",""8"",""83920""
""focus"",""8"",""95007""
","""event"",""trial"",""time""
""blur"",""3"",""17222""
""blur"",""8"",""83920""
","""event"",""trial"",""time""
""focus"",""3"",""17223""
""focus"",""8"",""95007""
","""event"",""trial"",""time""
""fullscreenenter"",""5"",""27736""
","
",4911.20500001125,NA,48,NA,NA,3000,1,NA,NA,images/tutgreenplanet.jpg,images/tutalien1,images/tutalien2,null,images/tutalien1,images/nothing.png,NA,practice,null,NA,NA,NA,NA,sub148
d3-animate-choice,38,379344,0.0-38.0,TRUE,TRUE,FALSE,FALSE,"""event"",""trial"",""time""
""blur"",""3"",""17222""
""focus"",""3"",""17223""
""fullscreenenter"",""5"",""27736""
""blur"",""8"",""83920""
""focus"",""8"",""95007""
","""event"",""trial"",""time""
""blur"",""3"",""17222""
""blur"",""8"",""83920""
","""event"",""trial"",""time""
""focus"",""3"",""17223""
""focus"",""8"",""95007""
","""event"",""trial"",""time""
""fullscreenenter"",""5"",""27736""
","
",4736.595000023954,NA,49,NA,NA,3000,1,NA,NA,images/tutgreenplanet.jpg,images/tutalien1,images/tutalien2,null,images/tutalien2,images/t.png,NA,practice,null,NA,NA,NA,NA,sub148
d3-animate-choice,39,384177,0.0-39.0,TRUE,TRUE,FALSE,FALSE,"""event"",""trial"",""time""
""blur"",""3"",""17222""
""focus"",""3"",""17223""
""fullscreenenter"",""5"",""27736""
""blur"",""8"",""83920""
""focus"",""8"",""95007""
","""event"",""trial"",""time""
""blur"",""3"",""17222""
""blur"",""8"",""83920""
","""event"",""trial"",""time""
""focus"",""3"",""17223""
""focus"",""8"",""95007""
","""event"",""trial"",""time""
""fullscreenenter"",""5"",""27736""
","
",2828.8249999750406,NA,49,NA,NA,3000,1,NA,NA,images/tutgreenplanet.jpg,images/tutalien1,images/tutalien2,null,images/tutalien2,images/t.png,NA,practice,null,NA,NA,NA,NA,sub148
d3-animate-choice,40,389783,0.0-40.0,TRUE,TRUE,FALSE,FALSE,"""event"",""trial"",""time""
""blur"",""3"",""17222""
""focus"",""3"",""17223""
""fullscreenenter"",""5"",""27736""
""blur"",""8"",""83920""
""focus"",""8"",""95007""
","""event"",""trial"",""time""
""blur"",""3"",""17222""
""blur"",""8"",""83920""
","""event"",""trial"",""time""
""focus"",""3"",""17223""
""focus"",""8"",""95007""
","""event"",""trial"",""time""
""fullscreenenter"",""5"",""27736""
","
",3601.645000046119,NA,48,NA,NA,3000,1,NA,NA,images/tutgreenplanet.jpg,images/tutalien1,images/tutalien2,null,images/tutalien1,images/nothing.png,NA,practice,null,NA,NA,NA,NA,sub148
d3-animate-choice,41,394071,0.0-41.0,TRUE,TRUE,FALSE,FALSE,"""event"",""trial"",""time""
""blur"",""3"",""17222""
""focus"",""3"",""17223""
""fullscreenenter"",""5"",""27736""
""blur"",""8"",""83920""
""focus"",""8"",""95007""
","""event"",""trial"",""time""
""blur"",""3"",""17222""
""blur"",""8"",""83920""
","""event"",""trial"",""time""
""focus"",""3"",""17223""
""focus"",""8"",""95007""
","""event"",""trial"",""time""
""fullscreenenter"",""5"",""27736""
","
",2283.244999998715,NA,49,NA,NA,3000,1,NA,NA,images/tutgreenplanet.jpg,images/tutalien1,images/tutalien2,null,images/tutalien2,images/nothing.png,NA,practice,null,NA,NA,NA,NA,sub148
d3-animate-choice,42,403098,0.0-42.0,TRUE,TRUE,FALSE,FALSE,"""event"",""trial"",""time""
""blur"",""3"",""17222""
""focus"",""3"",""17223""
""fullscreenenter"",""5"",""27736""
""blur"",""8"",""83920""
""focus"",""8"",""95007""
","""event"",""trial"",""time""
""blur"",""3"",""17222""
""blur"",""8"",""83920""
","""event"",""trial"",""time""
""focus"",""3"",""17223""
""focus"",""8"",""95007""
","""event"",""trial"",""time""
""fullscreenenter"",""5"",""27736""
","
",7021.550000004936,NA,49,NA,NA,3000,1,NA,NA,images/tutgreenplanet.jpg,images/tutalien1,images/tutalien2,null,images/tutalien2,images/t.png,NA,practice,null,NA,NA,NA,NA,sub148
d3-animate-choice,43,406968,0.0-43.0,TRUE,TRUE,FALSE,FALSE,"""event"",""trial"",""time""
""blur"",""3"",""17222""
""focus"",""3"",""17223""
""fullscreenenter"",""5"",""27736""
""blur"",""8"",""83920""
""focus"",""8"",""95007""
","""event"",""trial"",""time""
""blur"",""3"",""17222""
""blur"",""8"",""83920""
","""event"",""trial"",""time""
""focus"",""3"",""17223""
""focus"",""8"",""95007""
","""event"",""trial"",""time""
""fullscreenenter"",""5"",""27736""
","
",1865.0999999954365,NA,49,NA,NA,3000,1,NA,NA,images/tutgreenplanet.jpg,images/tutalien1,images/tutalien2,null,images/tutalien2,images/nothing.png,NA,practice,null,NA,NA,NA,NA,sub148
d3-instructions,44,449566,0.0-44.0,TRUE,TRUE,FALSE,FALSE,"""event"",""trial"",""time""
""blur"",""3"",""17222""
""focus"",""3"",""17223""
""fullscreenenter"",""5"",""27736""
""blur"",""8"",""83920""
""focus"",""8"",""95007""
","""event"",""trial"",""time""
""blur"",""3"",""17222""
""blur"",""8"",""83920""
","""event"",""trial"",""time""
""focus"",""3"",""17223""
""focus"",""8"",""95007""
","""event"",""trial"",""time""
""fullscreenenter"",""5"",""27736""
","
",NA,NA,NA,NA,NA,NA,NA,NA,NA,NA,NA,NA,NA,NA,NA,NA,NA,NA,NA,NA,NA,NA,sub148
d3-instructions,45,458334,0.0-45.0,TRUE,TRUE,FALSE,FALSE,"""event"",""trial"",""time""
""blur"",""3"",""17222""
""focus"",""3"",""17223""
""fullscreenenter"",""5"",""27736""
""blur"",""8"",""83920""
""focus"",""8"",""95007""
","""event"",""trial"",""time""
""blur"",""3"",""17222""
""blur"",""8"",""83920""
","""event"",""trial"",""time""
""focus"",""3"",""17223""
""focus"",""8"",""95007""
","""event"",""trial"",""time""
""fullscreenenter"",""5"",""27736""
","
",NA,NA,NA,NA,NA,NA,NA,NA,NA,NA,NA,NA,NA,NA,NA,NA,NA,NA,NA,NA,NA,NA,sub148
d3-instructions,46,466318,0.0-46.0,TRUE,TRUE,FALSE,FALSE,"""event"",""trial"",""time""
""blur"",""3"",""17222""
""focus"",""3"",""17223""
""fullscreenenter"",""5"",""27736""
""blur"",""8"",""83920""
""focus"",""8"",""95007""
","""event"",""trial"",""time""
""blur"",""3"",""17222""
""blur"",""8"",""83920""
","""event"",""trial"",""time""
""focus"",""3"",""17223""
""focus"",""8"",""95007""
","""event"",""trial"",""time""
""fullscreenenter"",""5"",""27736""
","
",NA,NA,NA,NA,NA,NA,NA,NA,NA,NA,NA,NA,NA,NA,NA,NA,NA,NA,NA,NA,NA,NA,sub148
d3-instructions,47,507015,0.0-47.0,TRUE,TRUE,FALSE,FALSE,"""event"",""trial"",""time""
""blur"",""3"",""17222""
""focus"",""3"",""17223""
""fullscreenenter"",""5"",""27736""
""blur"",""8"",""83920""
""focus"",""8"",""95007""
","""event"",""trial"",""time""
""blur"",""3"",""17222""
""blur"",""8"",""83920""
","""event"",""trial"",""time""
""focus"",""3"",""17223""
""focus"",""8"",""95007""
","""event"",""trial"",""time""
""fullscreenenter"",""5"",""27736""
","
",NA,NA,NA,NA,NA,NA,NA,NA,NA,NA,NA,NA,NA,NA,NA,NA,NA,NA,NA,NA,NA,NA,sub148
d3-instructions,48,517031,0.0-48.0,TRUE,TRUE,FALSE,FALSE,"""event"",""trial"",""time""
""blur"",""3"",""17222""
""focus"",""3"",""17223""
""fullscreenenter"",""5"",""27736""
""blur"",""8"",""83920""
""focus"",""8"",""95007""
","""event"",""trial"",""time""
""blur"",""3"",""17222""
""blur"",""8"",""83920""
","""event"",""trial"",""time""
""focus"",""3"",""17223""
""focus"",""8"",""95007""
","""event"",""trial"",""time""
""fullscreenenter"",""5"",""27736""
","
",NA,NA,NA,NA,NA,NA,NA,NA,NA,NA,NA,NA,NA,NA,NA,NA,NA,NA,NA,NA,NA,NA,sub148
d3-instructions,49,545047,0.0-49.0,TRUE,TRUE,FALSE,FALSE,"""event"",""trial"",""time""
""blur"",""3"",""17222""
""focus"",""3"",""17223""
""fullscreenenter"",""5"",""27736""
""blur"",""8"",""83920""
""focus"",""8"",""95007""
","""event"",""trial"",""time""
""blur"",""3"",""17222""
""blur"",""8"",""83920""
","""event"",""trial"",""time""
""focus"",""3"",""17223""
""focus"",""8"",""95007""
","""event"",""trial"",""time""
""fullscreenenter"",""5"",""27736""
","
",NA,NA,NA,NA,NA,NA,NA,NA,NA,NA,NA,NA,NA,NA,NA,NA,NA,NA,NA,NA,NA,NA,sub148
d3-instructions,50,560327,0.0-50.0,TRUE,TRUE,FALSE,FALSE,"""event"",""trial"",""time""
""blur"",""3"",""17222""
""focus"",""3"",""17223""
""fullscreenenter"",""5"",""27736""
""blur"",""8"",""83920""
""focus"",""8"",""95007""
","""event"",""trial"",""time""
""blur"",""3"",""17222""
""blur"",""8"",""83920""
","""event"",""trial"",""time""
""focus"",""3"",""17223""
""focus"",""8"",""95007""
","""event"",""trial"",""time""
""fullscreenenter"",""5"",""27736""
","
",NA,NA,NA,NA,NA,NA,NA,NA,NA,NA,NA,NA,NA,NA,NA,NA,NA,NA,NA,NA,NA,NA,sub148
d3-instructions,51,565168,0.0-51.0,TRUE,TRUE,FALSE,FALSE,"""event"",""trial"",""time""
""blur"",""3"",""17222""
""focus"",""3"",""17223""
""fullscreenenter"",""5"",""27736""
""blur"",""8"",""83920""
""focus"",""8"",""95007""
","""event"",""trial"",""time""
""blur"",""3"",""17222""
""blur"",""8"",""83920""
","""event"",""trial"",""time""
""focus"",""3"",""17223""
""focus"",""8"",""95007""
","""event"",""trial"",""time""
""fullscreenenter"",""5"",""27736""
","
",NA,NA,NA,NA,NA,NA,NA,NA,NA,NA,NA,NA,NA,NA,NA,NA,NA,NA,NA,NA,NA,NA,sub148
d3-instructions,52,571679,0.0-52.0,TRUE,TRUE,FALSE,FALSE,"""event"",""trial"",""time""
""blur"",""3"",""17222""
""focus"",""3"",""17223""
""fullscreenenter"",""5"",""27736""
""blur"",""8"",""83920""
""focus"",""8"",""95007""
","""event"",""trial"",""time""
""blur"",""3"",""17222""
""blur"",""8"",""83920""
","""event"",""trial"",""time""
""focus"",""3"",""17223""
""focus"",""8"",""95007""
","""event"",""trial"",""time""
""fullscreenenter"",""5"",""27736""
","
",NA,NA,NA,NA,NA,NA,NA,NA,NA,NA,NA,NA,NA,NA,NA,NA,NA,NA,NA,NA,NA,NA,sub148
d3-instructions,53,586823,0.0-53.0,TRUE,TRUE,FALSE,FALSE,"""event"",""trial"",""time""
""blur"",""3"",""17222""
""focus"",""3"",""17223""
""fullscreenenter"",""5"",""27736""
""blur"",""8"",""83920""
""focus"",""8"",""95007""
","""event"",""trial"",""time""
""blur"",""3"",""17222""
""blur"",""8"",""83920""
","""event"",""trial"",""time""
""focus"",""3"",""17223""
""focus"",""8"",""95007""
","""event"",""trial"",""time""
""fullscreenenter"",""5"",""27736""
","
",NA,NA,NA,NA,NA,NA,NA,NA,NA,NA,NA,NA,NA,NA,NA,NA,NA,NA,NA,NA,NA,NA,sub148
d3-instructions,54,609647,0.0-54.0,TRUE,TRUE,FALSE,FALSE,"""event"",""trial"",""time""
""blur"",""3"",""17222""
""focus"",""3"",""17223""
""fullscreenenter"",""5"",""27736""
""blur"",""8"",""83920""
""focus"",""8"",""95007""
","""event"",""trial"",""time""
""blur"",""3"",""17222""
""blur"",""8"",""83920""
","""event"",""trial"",""time""
""focus"",""3"",""17223""
""focus"",""8"",""95007""
","""event"",""trial"",""time""
""fullscreenenter"",""5"",""27736""
","
",NA,NA,NA,NA,NA,NA,NA,NA,NA,NA,NA,NA,NA,NA,NA,NA,NA,NA,NA,NA,NA,NA,sub148
d3-instructions,55,621727,0.0-55.0,TRUE,TRUE,FALSE,FALSE,"""event"",""trial"",""time""
""blur"",""3"",""17222""
""focus"",""3"",""17223""
""fullscreenenter"",""5"",""27736""
""blur"",""8"",""83920""
""focus"",""8"",""95007""
","""event"",""trial"",""time""
""blur"",""3"",""17222""
""blur"",""8"",""83920""
","""event"",""trial"",""time""
""focus"",""3"",""17223""
""focus"",""8"",""95007""
","""event"",""trial"",""time""
""fullscreenenter"",""5"",""27736""
","
",NA,NA,NA,NA,NA,NA,NA,NA,NA,NA,NA,NA,NA,NA,NA,NA,NA,NA,NA,NA,NA,NA,sub148
d3-instructions,56,632914,0.0-56.0,TRUE,TRUE,FALSE,FALSE,"""event"",""trial"",""time""
""blur"",""3"",""17222""
""focus"",""3"",""17223""
""fullscreenenter"",""5"",""27736""
""blur"",""8"",""83920""
""focus"",""8"",""95007""
","""event"",""trial"",""time""
""blur"",""3"",""17222""
""blur"",""8"",""83920""
","""event"",""trial"",""time""
""focus"",""3"",""17223""
""focus"",""8"",""95007""
","""event"",""trial"",""time""
""fullscreenenter"",""5"",""27736""
","
",NA,NA,NA,NA,NA,NA,NA,NA,NA,NA,NA,NA,NA,NA,NA,NA,NA,NA,NA,NA,NA,NA,sub148
d3-instructions,57,646992,0.0-57.0,TRUE,TRUE,FALSE,FALSE,"""event"",""trial"",""time""
""blur"",""3"",""17222""
""focus"",""3"",""17223""
""fullscreenenter"",""5"",""27736""
""blur"",""8"",""83920""
""focus"",""8"",""95007""
""blur"",""58"",""679257""
""focus"",""58"",""692578""
","""event"",""trial"",""time""
""blur"",""3"",""17222""
""blur"",""8"",""83920""
""blur"",""58"",""679257""
","""event"",""trial"",""time""
""focus"",""3"",""17223""
""focus"",""8"",""95007""
""focus"",""58"",""692578""
","""event"",""trial"",""time""
""fullscreenenter"",""5"",""27736""
","
",NA,NA,NA,NA,NA,NA,NA,NA,NA,NA,NA,NA,NA,NA,NA,NA,NA,NA,NA,NA,NA,NA,sub148
d3-instructions,58,693384,0.0-58.0,TRUE,TRUE,FALSE,FALSE,"""event"",""trial"",""time""
""blur"",""3"",""17222""
""focus"",""3"",""17223""
""fullscreenenter"",""5"",""27736""
""blur"",""8"",""83920""
""focus"",""8"",""95007""
""blur"",""58"",""679257""
""focus"",""58"",""692578""
","""event"",""trial"",""time""
""blur"",""3"",""17222""
""blur"",""8"",""83920""
""blur"",""58"",""679257""
","""event"",""trial"",""time""
""focus"",""3"",""17223""
""focus"",""8"",""95007""
""focus"",""58"",""692578""
","""event"",""trial"",""time""
""fullscreenenter"",""5"",""27736""
","
",NA,NA,NA,NA,NA,NA,NA,NA,NA,NA,NA,NA,NA,NA,NA,NA,NA,NA,NA,NA,NA,NA,sub148
d3-instructions,59,699920,0.0-59.0,TRUE,TRUE,FALSE,FALSE,"""event"",""trial"",""time""
""blur"",""3"",""17222""
""focus"",""3"",""17223""
""fullscreenenter"",""5"",""27736""
""blur"",""8"",""83920""
""focus"",""8"",""95007""
""blur"",""58"",""679257""
""focus"",""58"",""692578""
","""event"",""trial"",""time""
""blur"",""3"",""17222""
""blur"",""8"",""83920""
""blur"",""58"",""679257""
","""event"",""trial"",""time""
""focus"",""3"",""17223""
""focus"",""8"",""95007""
""focus"",""58"",""692578""
","""event"",""trial"",""time""
""fullscreenenter"",""5"",""27736""
","
",NA,NA,NA,NA,NA,NA,NA,NA,NA,NA,NA,NA,NA,NA,NA,NA,NA,NA,NA,NA,NA,NA,sub148
d3-instructions,60,715481,0.0-60.0,TRUE,TRUE,FALSE,FALSE,"""event"",""trial"",""time""
""blur"",""3"",""17222""
""focus"",""3"",""17223""
""fullscreenenter"",""5"",""27736""
""blur"",""8"",""83920""
""focus"",""8"",""95007""
""blur"",""58"",""679257""
""focus"",""58"",""692578""
","""event"",""trial"",""time""
""blur"",""3"",""17222""
""blur"",""8"",""83920""
""blur"",""58"",""679257""
","""event"",""trial"",""time""
""focus"",""3"",""17223""
""focus"",""8"",""95007""
""focus"",""58"",""692578""
","""event"",""trial"",""time""
""fullscreenenter"",""5"",""27736""
","
",NA,NA,NA,NA,NA,NA,NA,NA,NA,NA,NA,NA,NA,NA,NA,NA,NA,NA,NA,NA,NA,NA,sub148
d3-animate-choice,61,719486,0.0-61.0-0.0,TRUE,TRUE,FALSE,FALSE,"""event"",""trial"",""time""
""blur"",""3"",""17222""
""focus"",""3"",""17223""
""fullscreenenter"",""5"",""27736""
""blur"",""8"",""83920""
""focus"",""8"",""95007""
""blur"",""58"",""679257""
""focus"",""58"",""692578""
","""event"",""trial"",""time""
""blur"",""3"",""17222""
""blur"",""8"",""83920""
""blur"",""58"",""679257""
","""event"",""trial"",""time""
""focus"",""3"",""17223""
""focus"",""8"",""95007""
""focus"",""58"",""692578""
","""event"",""trial"",""time""
""fullscreenenter"",""5"",""27736""
","
",762.8549999790266,NA,97,NA,NA,3000,1,"2146.9899999792688,3387.4599999981",9749,images/earth.jpg,images/tutrocket2,images/tutrocket1,null,images/tutrocket1,NA,1,practice,null,NA,NA,NA,NA,sub148
d3-animate-choice,62,723495,0.0-61.0-1.0,TRUE,TRUE,FALSE,FALSE,"""event"",""trial"",""time""
""blur"",""3"",""17222""
""focus"",""3"",""17223""
""fullscreenenter"",""5"",""27736""
""blur"",""8"",""83920""
""focus"",""8"",""95007""
""blur"",""58"",""679257""
""focus"",""58"",""692578""
","""event"",""trial"",""time""
""blur"",""3"",""17222""
""blur"",""8"",""83920""
""blur"",""58"",""679257""
","""event"",""trial"",""time""
""focus"",""3"",""17223""
""focus"",""8"",""95007""
""focus"",""58"",""692578""
","""event"",""trial"",""time""
""fullscreenenter"",""5"",""27736""
","
",3404.8649999895133,NA,49,NA,NA,3000,0,NA,NA,images/tutyellowplanet.jpg,images/tutalien4,images/tutalien3,images/tutrocket1,NA,NA,2,practice,false,1,rare,0,2020-07-05T14:53:00Z,sub148
two-step-fixation,63,724500,0.0-61.0-2.0,TRUE,TRUE,FALSE,FALSE,"""event"",""trial"",""time""
""blur"",""3"",""17222""
""focus"",""3"",""17223""
""fullscreenenter"",""5"",""27736""
""blur"",""8"",""83920""
""focus"",""8"",""95007""
""blur"",""58"",""679257""
""focus"",""58"",""692578""
","""event"",""trial"",""time""
""blur"",""3"",""17222""
""blur"",""8"",""83920""
""blur"",""58"",""679257""
","""event"",""trial"",""time""
""focus"",""3"",""17223""
""focus"",""8"",""95007""
""focus"",""58"",""692578""
","""event"",""trial"",""time""
""fullscreenenter"",""5"",""27736""
","
",NA,images/earth.jpg,NA,NA,NA,NA,NA,NA,NA,NA,NA,NA,NA,NA,NA,fixation,NA,NA,NA,NA,NA,NA,sub148
d3-animate-choice,64,728506,0.0-61.0-0.1,TRUE,TRUE,FALSE,FALSE,"""event"",""trial"",""time""
""blur"",""3"",""17222""
""focus"",""3"",""17223""
""fullscreenenter"",""5"",""27736""
""blur"",""8"",""83920""
""focus"",""8"",""95007""
""blur"",""58"",""679257""
""focus"",""58"",""692578""
","""event"",""trial"",""time""
""blur"",""3"",""17222""
""blur"",""8"",""83920""
""blur"",""58"",""679257""
","""event"",""trial"",""time""
""focus"",""3"",""17223""
""focus"",""8"",""95007""
""focus"",""58"",""692578""
","""event"",""trial"",""time""
""fullscreenenter"",""5"",""27736""
","
",2312.934999994468,NA,49,NA,NA,3000,1,NA,NA,images/earth.jpg,images/tutrocket2,images/tutrocket1,null,images/tutrocket1,NA,1,practice,null,1,NA,NA,NA,sub148
d3-animate-choice,65,732511,0.0-61.0-1.1,TRUE,TRUE,FALSE,FALSE,"""event"",""trial"",""time""
""blur"",""3"",""17222""
""focus"",""3"",""17223""
""fullscreenenter"",""5"",""27736""
""blur"",""8"",""83920""
""focus"",""8"",""95007""
""blur"",""58"",""679257""
""focus"",""58"",""692578""
","""event"",""trial"",""time""
""blur"",""3"",""17222""
""blur"",""8"",""83920""
""blur"",""58"",""679257""
","""event"",""trial"",""time""
""focus"",""3"",""17223""
""focus"",""8"",""95007""
""focus"",""58"",""692578""
","""event"",""trial"",""time""
""fullscreenenter"",""5"",""27736""
","
",3849.670000025071,NA,48,NA,NA,3000,0,NA,NA,images/tutgreenplanet.jpg,images/tutalien2,images/tutalien1,images/tutrocket1,NA,NA,2,practice,true,2,common,0,2020-07-05T14:53:09Z,sub148
two-step-fixation,66,733517,0.0-61.0-2.1,TRUE,TRUE,FALSE,FALSE,"""event"",""trial"",""time""
""blur"",""3"",""17222""
""focus"",""3"",""17223""
""fullscreenenter"",""5"",""27736""
""blur"",""8"",""83920""
""focus"",""8"",""95007""
""blur"",""58"",""679257""
""focus"",""58"",""692578""
","""event"",""trial"",""time""
""blur"",""3"",""17222""
""blur"",""8"",""83920""
""blur"",""58"",""679257""
","""event"",""trial"",""time""
""focus"",""3"",""17223""
""focus"",""8"",""95007""
""focus"",""58"",""692578""
","""event"",""trial"",""time""
""fullscreenenter"",""5"",""27736""
","
",NA,images/earth.jpg,NA,NA,NA,NA,NA,NA,NA,NA,NA,NA,NA,NA,NA,fixation,NA,NA,NA,NA,NA,NA,sub148
d3-animate-choice,67,737433,0.0-61.0-0.2,TRUE,TRUE,FALSE,FALSE,"""event"",""trial"",""time""
""blur"",""3"",""17222""
""focus"",""3"",""17223""
""fullscreenenter"",""5"",""27736""
""blur"",""8"",""83920""
""focus"",""8"",""95007""
""blur"",""58"",""679257""
""focus"",""58"",""692578""
","""event"",""trial"",""time""
""blur"",""3"",""17222""
""blur"",""8"",""83920""
""blur"",""58"",""679257""
","""event"",""trial"",""time""
""focus"",""3"",""17223""
""focus"",""8"",""95007""
""focus"",""58"",""692578""
","""event"",""trial"",""time""
""fullscreenenter"",""5"",""27736""
","
",1911.080000048969,NA,48,NA,NA,3000,1,NA,NA,images/earth.jpg,images/tutrocket2,images/tutrocket1,null,images/tutrocket2,NA,1,practice,null,2,NA,NA,NA,sub148
d3-animate-choice,68,741438,0.0-61.0-1.2,TRUE,TRUE,FALSE,FALSE,"""event"",""trial"",""time""
""blur"",""3"",""17222""
""focus"",""3"",""17223""
""fullscreenenter"",""5"",""27736""
""blur"",""8"",""83920""
""focus"",""8"",""95007""
""blur"",""58"",""679257""
""focus"",""58"",""692578""
","""event"",""trial"",""time""
""blur"",""3"",""17222""
""blur"",""8"",""83920""
""blur"",""58"",""679257""
","""event"",""trial"",""time""
""focus"",""3"",""17223""
""focus"",""8"",""95007""
""focus"",""58"",""692578""
","""event"",""trial"",""time""
""fullscreenenter"",""5"",""27736""
","
",null,NA,null,NA,NA,3000,0,NA,NA,images/tutyellowplanet.jpg,images/tutalien4,images/tutalien3,images/tutrocket2,NA,NA,2,practice,true,NA,common,0,2020-07-05T14:53:18Z,sub148
two-step-fixation,69,742442,0.0-61.0-2.2,TRUE,TRUE,FALSE,FALSE,"""event"",""trial"",""time""
""blur"",""3"",""17222""
""focus"",""3"",""17223""
""fullscreenenter"",""5"",""27736""
""blur"",""8"",""83920""
""focus"",""8"",""95007""
""blur"",""58"",""679257""
""focus"",""58"",""692578""
","""event"",""trial"",""time""
""blur"",""3"",""17222""
""blur"",""8"",""83920""
""blur"",""58"",""679257""
","""event"",""trial"",""time""
""focus"",""3"",""17223""
""focus"",""8"",""95007""
""focus"",""58"",""692578""
","""event"",""trial"",""time""
""fullscreenenter"",""5"",""27736""
","
",NA,images/earth.jpg,NA,NA,NA,NA,NA,NA,NA,NA,NA,NA,NA,NA,NA,fixation,NA,NA,NA,NA,NA,NA,sub148
d3-animate-choice,70,746447,0.0-61.0-0.3,TRUE,TRUE,FALSE,FALSE,"""event"",""trial"",""time""
""blur"",""3"",""17222""
""focus"",""3"",""17223""
""fullscreenenter"",""5"",""27736""
""blur"",""8"",""83920""
""focus"",""8"",""95007""
""blur"",""58"",""679257""
""focus"",""58"",""692578""
","""event"",""trial"",""time""
""blur"",""3"",""17222""
""blur"",""8"",""83920""
""blur"",""58"",""679257""
","""event"",""trial"",""time""
""focus"",""3"",""17223""
""focus"",""8"",""95007""
""focus"",""58"",""692578""
","""event"",""trial"",""time""
""fullscreenenter"",""5"",""27736""
","
",null,NA,null,NA,NA,3000,0,NA,NA,images/earth.jpg,images/tutrocket2,images/tutrocket1,null,NA,NA,1,practice,null,NA,NA,NA,NA,sub148
d3-animate-choice,71,747456,0.0-61.0-1.3,TRUE,TRUE,FALSE,FALSE,"""event"",""trial"",""time""
""blur"",""3"",""17222""
""focus"",""3"",""17223""
""fullscreenenter"",""5"",""27736""
""blur"",""8"",""83920""
""focus"",""8"",""95007""
""blur"",""58"",""679257""
""focus"",""58"",""692578""
","""event"",""trial"",""time""
""blur"",""3"",""17222""
""blur"",""8"",""83920""
""blur"",""58"",""679257""
","""event"",""trial"",""time""
""focus"",""3"",""17223""
""focus"",""8"",""95007""
""focus"",""58"",""692578""
","""event"",""trial"",""time""
""fullscreenenter"",""5"",""27736""
","
",null,NA,null,NA,NA,0,0,NA,NA,images/earth.jpg,images/tutrocket2,images/tutrocket1,null,NA,NA,2,practice,null,NA,NA,0,2020-07-05T14:53:24Z,sub148
two-step-fixation,72,748460,0.0-61.0-2.3,TRUE,TRUE,FALSE,FALSE,"""event"",""trial"",""time""
""blur"",""3"",""17222""
""focus"",""3"",""17223""
""fullscreenenter"",""5"",""27736""
""blur"",""8"",""83920""
""focus"",""8"",""95007""
""blur"",""58"",""679257""
""focus"",""58"",""692578""
","""event"",""trial"",""time""
""blur"",""3"",""17222""
""blur"",""8"",""83920""
""blur"",""58"",""679257""
","""event"",""trial"",""time""
""focus"",""3"",""17223""
""focus"",""8"",""95007""
""focus"",""58"",""692578""
","""event"",""trial"",""time""
""fullscreenenter"",""5"",""27736""
","
",NA,images/earth.jpg,NA,NA,NA,NA,NA,NA,NA,NA,NA,NA,NA,NA,NA,fixation,NA,NA,NA,NA,NA,NA,sub148
d3-animate-choice,73,752339,0.0-61.0-0.4,TRUE,TRUE,FALSE,FALSE,"""event"",""trial"",""time""
""blur"",""3"",""17222""
""focus"",""3"",""17223""
""fullscreenenter"",""5"",""27736""
""blur"",""8"",""83920""
""focus"",""8"",""95007""
""blur"",""58"",""679257""
""focus"",""58"",""692578""
","""event"",""trial"",""time""
""blur"",""3"",""17222""
""blur"",""8"",""83920""
""blur"",""58"",""679257""
","""event"",""trial"",""time""
""focus"",""3"",""17223""
""focus"",""8"",""95007""
""focus"",""58"",""692578""
","""event"",""trial"",""time""
""fullscreenenter"",""5"",""27736""
","
",1874.2549999733455,NA,49,NA,NA,3000,1,NA,NA,images/earth.jpg,images/tutrocket2,images/tutrocket1,null,images/tutrocket1,NA,1,practice,null,1,NA,NA,NA,sub148
d3-animate-choice,74,756347,0.0-61.0-1.4,TRUE,TRUE,FALSE,FALSE,"""event"",""trial"",""time""
""blur"",""3"",""17222""
""focus"",""3"",""17223""
""fullscreenenter"",""5"",""27736""
""blur"",""8"",""83920""
""focus"",""8"",""95007""
""blur"",""58"",""679257""
""focus"",""58"",""692578""
","""event"",""trial"",""time""
""blur"",""3"",""17222""
""blur"",""8"",""83920""
""blur"",""58"",""679257""
","""event"",""trial"",""time""
""focus"",""3"",""17223""
""focus"",""8"",""95007""
""focus"",""58"",""692578""
","""event"",""trial"",""time""
""fullscreenenter"",""5"",""27736""
","
",null,NA,null,NA,NA,3000,0,NA,NA,images/tutyellowplanet.jpg,images/tutalien4,images/tutalien3,images/tutrocket1,NA,NA,2,practice,false,NA,rare,0,2020-07-05T14:53:33Z,sub148
two-step-fixation,75,757351,0.0-61.0-2.4,TRUE,TRUE,FALSE,FALSE,"""event"",""trial"",""time""
""blur"",""3"",""17222""
""focus"",""3"",""17223""
""fullscreenenter"",""5"",""27736""
""blur"",""8"",""83920""
""focus"",""8"",""95007""
""blur"",""58"",""679257""
""focus"",""58"",""692578""
","""event"",""trial"",""time""
""blur"",""3"",""17222""
""blur"",""8"",""83920""
""blur"",""58"",""679257""
","""event"",""trial"",""time""
""focus"",""3"",""17223""
""focus"",""8"",""95007""
""focus"",""58"",""692578""
","""event"",""trial"",""time""
""fullscreenenter"",""5"",""27736""
","
",NA,images/earth.jpg,NA,NA,NA,NA,NA,NA,NA,NA,NA,NA,NA,NA,NA,fixation,NA,NA,NA,NA,NA,NA,sub148
d3-animate-choice,76,761356,0.0-61.0-0.5,TRUE,TRUE,FALSE,FALSE,"""event"",""trial"",""time""
""blur"",""3"",""17222""
""focus"",""3"",""17223""
""fullscreenenter"",""5"",""27736""
""blur"",""8"",""83920""
""focus"",""8"",""95007""
""blur"",""58"",""679257""
""focus"",""58"",""692578""
","""event"",""trial"",""time""
""blur"",""3"",""17222""
""blur"",""8"",""83920""
""blur"",""58"",""679257""
","""event"",""trial"",""time""
""focus"",""3"",""17223""
""focus"",""8"",""95007""
""focus"",""58"",""692578""
","""event"",""trial"",""time""
""fullscreenenter"",""5"",""27736""
","
",2117.14500002563,NA,48,NA,NA,3000,1,NA,NA,images/earth.jpg,images/tutrocket2,images/tutrocket1,null,images/tutrocket2,NA,1,practice,null,2,NA,NA,NA,sub148
d3-animate-choice,77,765361,0.0-61.0-1.5,TRUE,TRUE,FALSE,FALSE,"""event"",""trial"",""time""
""blur"",""3"",""17222""
""focus"",""3"",""17223""
""fullscreenenter"",""5"",""27736""
""blur"",""8"",""83920""
""focus"",""8"",""95007""
""blur"",""58"",""679257""
""focus"",""58"",""692578""
","""event"",""trial"",""time""
""blur"",""3"",""17222""
""blur"",""8"",""83920""
""blur"",""58"",""679257""
","""event"",""trial"",""time""
""focus"",""3"",""17223""
""focus"",""8"",""95007""
""focus"",""58"",""692578""
","""event"",""trial"",""time""
""fullscreenenter"",""5"",""27736""
","
",null,NA,null,NA,NA,3000,0,NA,NA,images/tutyellowplanet.jpg,images/tutalien4,images/tutalien3,images/tutrocket2,NA,NA,2,practice,true,NA,common,0,2020-07-05T14:53:42Z,sub148
two-step-fixation,78,766365,0.0-61.0-2.5,TRUE,TRUE,FALSE,FALSE,"""event"",""trial"",""time""
""blur"",""3"",""17222""
""focus"",""3"",""17223""
""fullscreenenter"",""5"",""27736""
""blur"",""8"",""83920""
""focus"",""8"",""95007""
""blur"",""58"",""679257""
""focus"",""58"",""692578""
","""event"",""trial"",""time""
""blur"",""3"",""17222""
""blur"",""8"",""83920""
""blur"",""58"",""679257""
","""event"",""trial"",""time""
""focus"",""3"",""17223""
""focus"",""8"",""95007""
""focus"",""58"",""692578""
","""event"",""trial"",""time""
""fullscreenenter"",""5"",""27736""
","
",NA,images/earth.jpg,NA,NA,NA,NA,NA,NA,NA,NA,NA,NA,NA,NA,NA,fixation,NA,NA,NA,NA,NA,NA,sub148
d3-animate-choice,79,770195,0.0-61.0-0.6,TRUE,TRUE,FALSE,FALSE,"""event"",""trial"",""time""
""blur"",""3"",""17222""
""focus"",""3"",""17223""
""fullscreenenter"",""5"",""27736""
""blur"",""8"",""83920""
""focus"",""8"",""95007""
""blur"",""58"",""679257""
""focus"",""58"",""692578""
","""event"",""trial"",""time""
""blur"",""3"",""17222""
""blur"",""8"",""83920""
""blur"",""58"",""679257""
","""event"",""trial"",""time""
""focus"",""3"",""17223""
""focus"",""8"",""95007""
""focus"",""58"",""692578""
","""event"",""trial"",""time""
""fullscreenenter"",""5"",""27736""
","
",1824.6100000105798,NA,49,NA,NA,3000,1,NA,NA,images/earth.jpg,images/tutrocket2,images/tutrocket1,null,images/tutrocket1,NA,1,practice,null,1,NA,NA,NA,sub148
d3-animate-choice,80,774200,0.0-61.0-1.6,TRUE,TRUE,FALSE,FALSE,"""event"",""trial"",""time""
""blur"",""3"",""17222""
""focus"",""3"",""17223""
""fullscreenenter"",""5"",""27736""
""blur"",""8"",""83920""
""focus"",""8"",""95007""
""blur"",""58"",""679257""
""focus"",""58"",""692578""
","""event"",""trial"",""time""
""blur"",""3"",""17222""
""blur"",""8"",""83920""
""blur"",""58"",""679257""
","""event"",""trial"",""time""
""focus"",""3"",""17223""
""focus"",""8"",""95007""
""focus"",""58"",""692578""
","""event"",""trial"",""time""
""fullscreenenter"",""5"",""27736""
","
",null,NA,null,NA,NA,3000,0,NA,NA,images/tutgreenplanet.jpg,images/tutalien2,images/tutalien1,images/tutrocket1,NA,NA,2,practice,true,NA,common,0,2020-07-05T14:53:51Z,sub148
two-step-fixation,81,775205,0.0-61.0-2.6,TRUE,TRUE,FALSE,FALSE,"""event"",""trial"",""time""
""blur"",""3"",""17222""
""focus"",""3"",""17223""
""fullscreenenter"",""5"",""27736""
""blur"",""8"",""83920""
""focus"",""8"",""95007""
""blur"",""58"",""679257""
""focus"",""58"",""692578""
","""event"",""trial"",""time""
""blur"",""3"",""17222""
""blur"",""8"",""83920""
""blur"",""58"",""679257""
","""event"",""trial"",""time""
""focus"",""3"",""17223""
""focus"",""8"",""95007""
""focus"",""58"",""692578""
","""event"",""trial"",""time""
""fullscreenenter"",""5"",""27736""
","
",NA,images/earth.jpg,NA,NA,NA,NA,NA,NA,NA,NA,NA,NA,NA,NA,NA,fixation,NA,NA,NA,NA,NA,NA,sub148
d3-animate-choice,82,778882,0.0-61.0-0.7,TRUE,TRUE,FALSE,FALSE,"""event"",""trial"",""time""
""blur"",""3"",""17222""
""focus"",""3"",""17223""
""fullscreenenter"",""5"",""27736""
""blur"",""8"",""83920""
""focus"",""8"",""95007""
""blur"",""58"",""679257""
""focus"",""58"",""692578""
","""event"",""trial"",""time""
""blur"",""3"",""17222""
""blur"",""8"",""83920""
""blur"",""58"",""679257""
","""event"",""trial"",""time""
""focus"",""3"",""17223""
""focus"",""8"",""95007""
""focus"",""58"",""692578""
","""event"",""trial"",""time""
""fullscreenenter"",""5"",""27736""
","
",1670.955000037793,NA,48,NA,NA,3000,1,NA,NA,images/earth.jpg,images/tutrocket2,images/tutrocket1,null,images/tutrocket2,NA,1,practice,null,2,NA,NA,NA,sub148
d3-animate-choice,83,782886,0.0-61.0-1.7,TRUE,TRUE,FALSE,FALSE,"""event"",""trial"",""time""
""blur"",""3"",""17222""
""focus"",""3"",""17223""
""fullscreenenter"",""5"",""27736""
""blur"",""8"",""83920""
""focus"",""8"",""95007""
""blur"",""58"",""679257""
""focus"",""58"",""692578""
","""event"",""trial"",""time""
""blur"",""3"",""17222""
""blur"",""8"",""83920""
""blur"",""58"",""679257""
","""event"",""trial"",""time""
""focus"",""3"",""17223""
""focus"",""8"",""95007""
""focus"",""58"",""692578""
","""event"",""trial"",""time""
""fullscreenenter"",""5"",""27736""
","
",null,NA,null,NA,NA,3000,0,NA,NA,images/tutyellowplanet.jpg,images/tutalien4,images/tutalien3,images/tutrocket2,NA,NA,2,practice,true,NA,common,0,2020-07-05T14:54:00Z,sub148
two-step-fixation,84,783891,0.0-61.0-2.7,TRUE,TRUE,FALSE,FALSE,"""event"",""trial"",""time""
""blur"",""3"",""17222""
""focus"",""3"",""17223""
""fullscreenenter"",""5"",""27736""
""blur"",""8"",""83920""
""focus"",""8"",""95007""
""blur"",""58"",""679257""
""focus"",""58"",""692578""
","""event"",""trial"",""time""
""blur"",""3"",""17222""
""blur"",""8"",""83920""
""blur"",""58"",""679257""
","""event"",""trial"",""time""
""focus"",""3"",""17223""
""focus"",""8"",""95007""
""focus"",""58"",""692578""
","""event"",""trial"",""time""
""fullscreenenter"",""5"",""27736""
","
",NA,images/earth.jpg,NA,NA,NA,NA,NA,NA,NA,NA,NA,NA,NA,NA,NA,fixation,NA,NA,NA,NA,NA,NA,sub148
d3-animate-choice,85,787540,0.0-61.0-0.8,TRUE,TRUE,FALSE,FALSE,"""event"",""trial"",""time""
""blur"",""3"",""17222""
""focus"",""3"",""17223""
""fullscreenenter"",""5"",""27736""
""blur"",""8"",""83920""
""focus"",""8"",""95007""
""blur"",""58"",""679257""
""focus"",""58"",""692578""
","""event"",""trial"",""time""
""blur"",""3"",""17222""
""blur"",""8"",""83920""
""blur"",""58"",""679257""
","""event"",""trial"",""time""
""focus"",""3"",""17223""
""focus"",""8"",""95007""
""focus"",""58"",""692578""
","""event"",""trial"",""time""
""fullscreenenter"",""5"",""27736""
","
",1643.4349999763072,NA,49,NA,NA,3000,1,NA,NA,images/earth.jpg,images/tutrocket2,images/tutrocket1,null,images/tutrocket1,NA,1,practice,null,1,NA,NA,NA,sub148
d3-animate-choice,86,791547,0.0-61.0-1.8,TRUE,TRUE,FALSE,FALSE,"""event"",""trial"",""time""
""blur"",""3"",""17222""
""focus"",""3"",""17223""
""fullscreenenter"",""5"",""27736""
""blur"",""8"",""83920""
""focus"",""8"",""95007""
""blur"",""58"",""679257""
""focus"",""58"",""692578""
","""event"",""trial"",""time""
""blur"",""3"",""17222""
""blur"",""8"",""83920""
""blur"",""58"",""679257""
","""event"",""trial"",""time""
""focus"",""3"",""17223""
""focus"",""8"",""95007""
""focus"",""58"",""692578""
","""event"",""trial"",""time""
""fullscreenenter"",""5"",""27736""
","
",null,NA,null,NA,NA,3000,0,NA,NA,images/tutgreenplanet.jpg,images/tutalien2,images/tutalien1,images/tutrocket1,NA,NA,2,practice,true,NA,common,0,2020-07-05T14:54:08Z,sub148
two-step-fixation,87,792552,0.0-61.0-2.8,TRUE,TRUE,FALSE,FALSE,"""event"",""trial"",""time""
""blur"",""3"",""17222""
""focus"",""3"",""17223""
""fullscreenenter"",""5"",""27736""
""blur"",""8"",""83920""
""focus"",""8"",""95007""
""blur"",""58"",""679257""
""focus"",""58"",""692578""
","""event"",""trial"",""time""
""blur"",""3"",""17222""
""blur"",""8"",""83920""
""blur"",""58"",""679257""
","""event"",""trial"",""time""
""focus"",""3"",""17223""
""focus"",""8"",""95007""
""focus"",""58"",""692578""
","""event"",""trial"",""time""
""fullscreenenter"",""5"",""27736""
","
",NA,images/earth.jpg,NA,NA,NA,NA,NA,NA,NA,NA,NA,NA,NA,NA,NA,fixation,NA,NA,NA,NA,NA,NA,sub148
d3-animate-choice,88,796410,0.0-61.0-0.9,TRUE,TRUE,FALSE,FALSE,"""event"",""trial"",""time""
""blur"",""3"",""17222""
""focus"",""3"",""17223""
""fullscreenenter"",""5"",""27736""
""blur"",""8"",""83920""
""focus"",""8"",""95007""
""blur"",""58"",""679257""
""focus"",""58"",""692578""
","""event"",""trial"",""time""
""blur"",""3"",""17222""
""blur"",""8"",""83920""
""blur"",""58"",""679257""
","""event"",""trial"",""time""
""focus"",""3"",""17223""
""focus"",""8"",""95007""
""focus"",""58"",""692578""
","""event"",""trial"",""time""
""fullscreenenter"",""5"",""27736""
","
",1852.004999993369,NA,48,NA,NA,3000,1,NA,NA,images/earth.jpg,images/tutrocket2,images/tutrocket1,null,images/tutrocket2,NA,1,practice,null,2,NA,NA,NA,sub148
d3-animate-choice,89,800416,0.0-61.0-1.9,TRUE,TRUE,FALSE,FALSE,"""event"",""trial"",""time""
""blur"",""3"",""17222""
""focus"",""3"",""17223""
""fullscreenenter"",""5"",""27736""
""blur"",""8"",""83920""
""focus"",""8"",""95007""
""blur"",""58"",""679257""
""focus"",""58"",""692578""
","""event"",""trial"",""time""
""blur"",""3"",""17222""
""blur"",""8"",""83920""
""blur"",""58"",""679257""
","""event"",""trial"",""time""
""focus"",""3"",""17223""
""focus"",""8"",""95007""
""focus"",""58"",""692578""
","""event"",""trial"",""time""
""fullscreenenter"",""5"",""27736""
","
",null,NA,null,NA,NA,3000,0,NA,NA,images/tutgreenplanet.jpg,images/tutalien2,images/tutalien1,images/tutrocket2,NA,NA,2,practice,false,NA,rare,0,2020-07-05T14:54:17Z,sub148
two-step-fixation,90,801422,0.0-61.0-2.9,TRUE,TRUE,FALSE,FALSE,"""event"",""trial"",""time""
""blur"",""3"",""17222""
""focus"",""3"",""17223""
""fullscreenenter"",""5"",""27736""
""blur"",""8"",""83920""
""focus"",""8"",""95007""
""blur"",""58"",""679257""
""focus"",""58"",""692578""
","""event"",""trial"",""time""
""blur"",""3"",""17222""
""blur"",""8"",""83920""
""blur"",""58"",""679257""
","""event"",""trial"",""time""
""focus"",""3"",""17223""
""focus"",""8"",""95007""
""focus"",""58"",""692578""
","""event"",""trial"",""time""
""fullscreenenter"",""5"",""27736""
","
",NA,images/earth.jpg,NA,NA,NA,NA,NA,NA,NA,NA,NA,NA,NA,NA,NA,fixation,NA,NA,NA,NA,NA,NA,sub148
d3-animate-choice,91,804756,0.0-61.0-0.10,TRUE,TRUE,FALSE,FALSE,"""event"",""trial"",""time""
""blur"",""3"",""17222""
""focus"",""3"",""17223""
""fullscreenenter"",""5"",""27736""
""blur"",""8"",""83920""
""focus"",""8"",""95007""
""blur"",""58"",""679257""
""focus"",""58"",""692578""
","""event"",""trial"",""time""
""blur"",""3"",""17222""
""blur"",""8"",""83920""
""blur"",""58"",""679257""
","""event"",""trial"",""time""
""focus"",""3"",""17223""
""focus"",""8"",""95007""
""focus"",""58"",""692578""
","""event"",""trial"",""time""
""fullscreenenter"",""5"",""27736""
","
",1328.5700000124052,NA,49,NA,NA,3000,1,NA,NA,images/earth.jpg,images/tutrocket2,images/tutrocket1,null,images/tutrocket1,NA,1,practice,null,1,NA,NA,NA,sub148
d3-animate-choice,92,808761,0.0-61.0-1.10,TRUE,TRUE,FALSE,FALSE,"""event"",""trial"",""time""
""blur"",""3"",""17222""
""focus"",""3"",""17223""
""fullscreenenter"",""5"",""27736""
""blur"",""8"",""83920""
""focus"",""8"",""95007""
""blur"",""58"",""679257""
""focus"",""58"",""692578""
","""event"",""trial"",""time""
""blur"",""3"",""17222""
""blur"",""8"",""83920""
""blur"",""58"",""679257""
","""event"",""trial"",""time""
""focus"",""3"",""17223""
""focus"",""8"",""95007""
""focus"",""58"",""692578""
","""event"",""trial"",""time""
""fullscreenenter"",""5"",""27736""
","
",null,NA,null,NA,NA,3000,0,NA,NA,images/tutgreenplanet.jpg,images/tutalien2,images/tutalien1,images/tutrocket1,NA,NA,2,practice,true,NA,common,0,2020-07-05T14:54:26Z,sub148
two-step-fixation,93,809765,0.0-61.0-2.10,TRUE,TRUE,FALSE,FALSE,"""event"",""trial"",""time""
""blur"",""3"",""17222""
""focus"",""3"",""17223""
""fullscreenenter"",""5"",""27736""
""blur"",""8"",""83920""
""focus"",""8"",""95007""
""blur"",""58"",""679257""
""focus"",""58"",""692578""
","""event"",""trial"",""time""
""blur"",""3"",""17222""
""blur"",""8"",""83920""
""blur"",""58"",""679257""
","""event"",""trial"",""time""
""focus"",""3"",""17223""
""focus"",""8"",""95007""
""focus"",""58"",""692578""
","""event"",""trial"",""time""
""fullscreenenter"",""5"",""27736""
","
",NA,images/earth.jpg,NA,NA,NA,NA,NA,NA,NA,NA,NA,NA,NA,NA,NA,fixation,NA,NA,NA,NA,NA,NA,sub148
d3-animate-choice,94,812825,0.0-61.0-0.11,TRUE,TRUE,FALSE,FALSE,"""event"",""trial"",""time""
""blur"",""3"",""17222""
""focus"",""3"",""17223""
""fullscreenenter"",""5"",""27736""
""blur"",""8"",""83920""
""focus"",""8"",""95007""
""blur"",""58"",""679257""
""focus"",""58"",""692578""
","""event"",""trial"",""time""
""blur"",""3"",""17222""
""blur"",""8"",""83920""
""blur"",""58"",""679257""
","""event"",""trial"",""time""
""focus"",""3"",""17223""
""focus"",""8"",""95007""
""focus"",""58"",""692578""
","""event"",""trial"",""time""
""fullscreenenter"",""5"",""27736""
","
",1055.4399999673478,NA,49,NA,NA,3000,1,NA,NA,images/earth.jpg,images/tutrocket2,images/tutrocket1,null,images/tutrocket1,NA,1,practice,null,1,NA,NA,NA,sub148
d3-animate-choice,95,816830,0.0-61.0-1.11,TRUE,TRUE,FALSE,FALSE,"""event"",""trial"",""time""
""blur"",""3"",""17222""
""focus"",""3"",""17223""
""fullscreenenter"",""5"",""27736""
""blur"",""8"",""83920""
""focus"",""8"",""95007""
""blur"",""58"",""679257""
""focus"",""58"",""692578""
","""event"",""trial"",""time""
""blur"",""3"",""17222""
""blur"",""8"",""83920""
""blur"",""58"",""679257""
","""event"",""trial"",""time""
""focus"",""3"",""17223""
""focus"",""8"",""95007""
""focus"",""58"",""692578""
","""event"",""trial"",""time""
""fullscreenenter"",""5"",""27736""
","
",null,NA,null,NA,NA,3000,0,NA,NA,images/tutgreenplanet.jpg,images/tutalien2,images/tutalien1,images/tutrocket1,NA,NA,2,practice,true,NA,common,0,2020-07-05T14:54:34Z,sub148
two-step-fixation,96,817834,0.0-61.0-2.11,TRUE,TRUE,FALSE,FALSE,"""event"",""trial"",""time""
""blur"",""3"",""17222""
""focus"",""3"",""17223""
""fullscreenenter"",""5"",""27736""
""blur"",""8"",""83920""
""focus"",""8"",""95007""
""blur"",""58"",""679257""
""focus"",""58"",""692578""
","""event"",""trial"",""time""
""blur"",""3"",""17222""
""blur"",""8"",""83920""
""blur"",""58"",""679257""
","""event"",""trial"",""time""
""focus"",""3"",""17223""
""focus"",""8"",""95007""
""focus"",""58"",""692578""
","""event"",""trial"",""time""
""fullscreenenter"",""5"",""27736""
","
",NA,images/earth.jpg,NA,NA,NA,NA,NA,NA,NA,NA,NA,NA,NA,NA,NA,fixation,NA,NA,NA,NA,NA,NA,sub148
d3-animate-choice,97,821838,0.0-61.0-0.12,TRUE,TRUE,FALSE,FALSE,"""event"",""trial"",""time""
""blur"",""3"",""17222""
""focus"",""3"",""17223""
""fullscreenenter"",""5"",""27736""
""blur"",""8"",""83920""
""focus"",""8"",""95007""
""blur"",""58"",""679257""
""focus"",""58"",""692578""
","""event"",""trial"",""time""
""blur"",""3"",""17222""
""blur"",""8"",""83920""
""blur"",""58"",""679257""
","""event"",""trial"",""time""
""focus"",""3"",""17223""
""focus"",""8"",""95007""
""focus"",""58"",""692578""
","""event"",""trial"",""time""
""fullscreenenter"",""5"",""27736""
","
",2309.1399999684654,NA,48,NA,NA,3000,1,NA,NA,images/earth.jpg,images/tutrocket2,images/tutrocket1,null,images/tutrocket2,NA,1,practice,null,2,NA,NA,NA,sub148
d3-animate-choice,98,825843,0.0-61.0-1.12,TRUE,TRUE,FALSE,FALSE,"""event"",""trial"",""time""
""blur"",""3"",""17222""
""focus"",""3"",""17223""
""fullscreenenter"",""5"",""27736""
""blur"",""8"",""83920""
""focus"",""8"",""95007""
""blur"",""58"",""679257""
""focus"",""58"",""692578""
","""event"",""trial"",""time""
""blur"",""3"",""17222""
""blur"",""8"",""83920""
""blur"",""58"",""679257""
","""event"",""trial"",""time""
""focus"",""3"",""17223""
""focus"",""8"",""95007""
""focus"",""58"",""692578""
","""event"",""trial"",""time""
""fullscreenenter"",""5"",""27736""
","
",null,NA,null,NA,NA,3000,0,NA,NA,images/tutyellowplanet.jpg,images/tutalien4,images/tutalien3,images/tutrocket2,NA,NA,2,practice,true,NA,common,0,2020-07-05T14:54:43Z,sub148
two-step-fixation,99,826848,0.0-61.0-2.12,TRUE,TRUE,FALSE,FALSE,"""event"",""trial"",""time""
""blur"",""3"",""17222""
""focus"",""3"",""17223""
""fullscreenenter"",""5"",""27736""
""blur"",""8"",""83920""
""focus"",""8"",""95007""
""blur"",""58"",""679257""
""focus"",""58"",""692578""
","""event"",""trial"",""time""
""blur"",""3"",""17222""
""blur"",""8"",""83920""
""blur"",""58"",""679257""
","""event"",""trial"",""time""
""focus"",""3"",""17223""
""focus"",""8"",""95007""
""focus"",""58"",""692578""
","""event"",""trial"",""time""
""fullscreenenter"",""5"",""27736""
","
",NA,images/earth.jpg,NA,NA,NA,NA,NA,NA,NA,NA,NA,NA,NA,NA,NA,fixation,NA,NA,NA,NA,NA,NA,sub148
d3-animate-choice,100,830433,0.0-61.0-0.13,TRUE,TRUE,FALSE,FALSE,"""event"",""trial"",""time""
""blur"",""3"",""17222""
""focus"",""3"",""17223""
""fullscreenenter"",""5"",""27736""
""blur"",""8"",""83920""
""focus"",""8"",""95007""
""blur"",""58"",""679257""
""focus"",""58"",""692578""
","""event"",""trial"",""time""
""blur"",""3"",""17222""
""blur"",""8"",""83920""
""blur"",""58"",""679257""
","""event"",""trial"",""time""
""focus"",""3"",""17223""
""focus"",""8"",""95007""
""focus"",""58"",""692578""
","""event"",""trial"",""time""
""fullscreenenter"",""5"",""27736""
","
",1580.4300000309013,NA,48,NA,NA,3000,1,NA,NA,images/earth.jpg,images/tutrocket2,images/tutrocket1,null,images/tutrocket2,NA,1,practice,null,2,NA,NA,NA,sub148
d3-animate-choice,101,834439,0.0-61.0-1.13,TRUE,TRUE,FALSE,FALSE,"""event"",""trial"",""time""
""blur"",""3"",""17222""
""focus"",""3"",""17223""
""fullscreenenter"",""5"",""27736""
""blur"",""8"",""83920""
""focus"",""8"",""95007""
""blur"",""58"",""679257""
""focus"",""58"",""692578""
","""event"",""trial"",""time""
""blur"",""3"",""17222""
""blur"",""8"",""83920""
""blur"",""58"",""679257""
","""event"",""trial"",""time""
""focus"",""3"",""17223""
""focus"",""8"",""95007""
""focus"",""58"",""692578""
","""event"",""trial"",""time""
""fullscreenenter"",""5"",""27736""
","
",null,NA,null,NA,NA,3000,0,NA,NA,images/tutyellowplanet.jpg,images/tutalien4,images/tutalien3,images/tutrocket2,NA,NA,2,practice,true,NA,common,0,2020-07-05T14:54:51Z,sub148
two-step-fixation,102,835445,0.0-61.0-2.13,TRUE,TRUE,FALSE,FALSE,"""event"",""trial"",""time""
""blur"",""3"",""17222""
""focus"",""3"",""17223""
""fullscreenenter"",""5"",""27736""
""blur"",""8"",""83920""
""focus"",""8"",""95007""
""blur"",""58"",""679257""
""focus"",""58"",""692578""
","""event"",""trial"",""time""
""blur"",""3"",""17222""
""blur"",""8"",""83920""
""blur"",""58"",""679257""
","""event"",""trial"",""time""
""focus"",""3"",""17223""
""focus"",""8"",""95007""
""focus"",""58"",""692578""
","""event"",""trial"",""time""
""fullscreenenter"",""5"",""27736""
","
",NA,images/earth.jpg,NA,NA,NA,NA,NA,NA,NA,NA,NA,NA,NA,NA,NA,fixation,NA,NA,NA,NA,NA,NA,sub148
d3-animate-choice,103,839450,0.0-61.0-0.14,TRUE,TRUE,FALSE,FALSE,"""event"",""trial"",""time""
""blur"",""3"",""17222""
""focus"",""3"",""17223""
""fullscreenenter"",""5"",""27736""
""blur"",""8"",""83920""
""focus"",""8"",""95007""
""blur"",""58"",""679257""
""focus"",""58"",""692578""
","""event"",""trial"",""time""
""blur"",""3"",""17222""
""blur"",""8"",""83920""
""blur"",""58"",""679257""
","""event"",""trial"",""time""
""focus"",""3"",""17223""
""focus"",""8"",""95007""
""focus"",""58"",""692578""
","""event"",""trial"",""time""
""fullscreenenter"",""5"",""27736""
","
",2073.2549999956973,NA,48,NA,NA,3000,1,NA,NA,images/earth.jpg,images/tutrocket2,images/tutrocket1,null,images/tutrocket2,NA,1,practice,null,2,NA,NA,NA,sub148
d3-animate-choice,104,843455,0.0-61.0-1.14,TRUE,TRUE,FALSE,FALSE,"""event"",""trial"",""time""
""blur"",""3"",""17222""
""focus"",""3"",""17223""
""fullscreenenter"",""5"",""27736""
""blur"",""8"",""83920""
""focus"",""8"",""95007""
""blur"",""58"",""679257""
""focus"",""58"",""692578""
","""event"",""trial"",""time""
""blur"",""3"",""17222""
""blur"",""8"",""83920""
""blur"",""58"",""679257""
","""event"",""trial"",""time""
""focus"",""3"",""17223""
""focus"",""8"",""95007""
""focus"",""58"",""692578""
","""event"",""trial"",""time""
""fullscreenenter"",""5"",""27736""
","
",null,NA,null,NA,NA,3000,0,NA,NA,images/tutyellowplanet.jpg,images/tutalien4,images/tutalien3,images/tutrocket2,NA,NA,2,practice,true,NA,common,0,2020-07-05T14:55:00Z,sub148
two-step-fixation,105,844458,0.0-61.0-2.14,TRUE,TRUE,FALSE,FALSE,"""event"",""trial"",""time""
""blur"",""3"",""17222""
""focus"",""3"",""17223""
""fullscreenenter"",""5"",""27736""
""blur"",""8"",""83920""
""focus"",""8"",""95007""
""blur"",""58"",""679257""
""focus"",""58"",""692578""
","""event"",""trial"",""time""
""blur"",""3"",""17222""
""blur"",""8"",""83920""
""blur"",""58"",""679257""
","""event"",""trial"",""time""
""focus"",""3"",""17223""
""focus"",""8"",""95007""
""focus"",""58"",""692578""
","""event"",""trial"",""time""
""fullscreenenter"",""5"",""27736""
","
",NA,images/earth.jpg,NA,NA,NA,NA,NA,NA,NA,NA,NA,NA,NA,NA,NA,fixation,NA,NA,NA,NA,NA,NA,sub148
d3-animate-choice,106,847298,0.0-61.0-0.15,TRUE,TRUE,FALSE,FALSE,"""event"",""trial"",""time""
""blur"",""3"",""17222""
""focus"",""3"",""17223""
""fullscreenenter"",""5"",""27736""
""blur"",""8"",""83920""
""focus"",""8"",""95007""
""blur"",""58"",""679257""
""focus"",""58"",""692578""
","""event"",""trial"",""time""
""blur"",""3"",""17222""
""blur"",""8"",""83920""
""blur"",""58"",""679257""
","""event"",""trial"",""time""
""focus"",""3"",""17223""
""focus"",""8"",""95007""
""focus"",""58"",""692578""
","""event"",""trial"",""time""
""fullscreenenter"",""5"",""27736""
","
",834.5899999840185,NA,48,NA,NA,3000,1,NA,NA,images/earth.jpg,images/tutrocket2,images/tutrocket1,null,images/tutrocket2,NA,1,practice,null,2,NA,NA,NA,sub148
d3-animate-choice,107,851303,0.0-61.0-1.15,TRUE,TRUE,FALSE,FALSE,"""event"",""trial"",""time""
""blur"",""3"",""17222""
""focus"",""3"",""17223""
""fullscreenenter"",""5"",""27736""
""blur"",""8"",""83920""
""focus"",""8"",""95007""
""blur"",""58"",""679257""
""focus"",""58"",""692578""
","""event"",""trial"",""time""
""blur"",""3"",""17222""
""blur"",""8"",""83920""
""blur"",""58"",""679257""
","""event"",""trial"",""time""
""focus"",""3"",""17223""
""focus"",""8"",""95007""
""focus"",""58"",""692578""
","""event"",""trial"",""time""
""fullscreenenter"",""5"",""27736""
","
",null,NA,null,NA,NA,3000,0,NA,NA,images/tutyellowplanet.jpg,images/tutalien4,images/tutalien3,images/tutrocket2,NA,NA,2,practice,true,NA,common,0,2020-07-05T14:55:08Z,sub148
two-step-fixation,108,852308,0.0-61.0-2.15,TRUE,TRUE,FALSE,FALSE,"""event"",""trial"",""time""
""blur"",""3"",""17222""
""focus"",""3"",""17223""
""fullscreenenter"",""5"",""27736""
""blur"",""8"",""83920""
""focus"",""8"",""95007""
""blur"",""58"",""679257""
""focus"",""58"",""692578""
","""event"",""trial"",""time""
""blur"",""3"",""17222""
""blur"",""8"",""83920""
""blur"",""58"",""679257""
","""event"",""trial"",""time""
""focus"",""3"",""17223""
""focus"",""8"",""95007""
""focus"",""58"",""692578""
","""event"",""trial"",""time""
""fullscreenenter"",""5"",""27736""
","
",NA,images/earth.jpg,NA,NA,NA,NA,NA,NA,NA,NA,NA,NA,NA,NA,NA,fixation,NA,NA,NA,NA,NA,NA,sub148
d3-animate-choice,109,855283,0.0-61.0-0.16,TRUE,TRUE,FALSE,FALSE,"""event"",""trial"",""time""
""blur"",""3"",""17222""
""focus"",""3"",""17223""
""fullscreenenter"",""5"",""27736""
""blur"",""8"",""83920""
""focus"",""8"",""95007""
""blur"",""58"",""679257""
""focus"",""58"",""692578""
","""event"",""trial"",""time""
""blur"",""3"",""17222""
""blur"",""8"",""83920""
""blur"",""58"",""679257""
","""event"",""trial"",""time""
""focus"",""3"",""17223""
""focus"",""8"",""95007""
""focus"",""58"",""692578""
","""event"",""trial"",""time""
""fullscreenenter"",""5"",""27736""
","
",969.6300000068732,NA,49,NA,NA,3000,1,NA,NA,images/earth.jpg,images/tutrocket2,images/tutrocket1,null,images/tutrocket1,NA,1,practice,null,1,NA,NA,NA,sub148
d3-animate-choice,110,859288,0.0-61.0-1.16,TRUE,TRUE,FALSE,FALSE,"""event"",""trial"",""time""
""blur"",""3"",""17222""
""focus"",""3"",""17223""
""fullscreenenter"",""5"",""27736""
""blur"",""8"",""83920""
""focus"",""8"",""95007""
""blur"",""58"",""679257""
""focus"",""58"",""692578""
","""event"",""trial"",""time""
""blur"",""3"",""17222""
""blur"",""8"",""83920""
""blur"",""58"",""679257""
","""event"",""trial"",""time""
""focus"",""3"",""17223""
""focus"",""8"",""95007""
""focus"",""58"",""692578""
","""event"",""trial"",""time""
""fullscreenenter"",""5"",""27736""
","
",null,NA,null,NA,NA,3000,0,NA,NA,images/tutgreenplanet.jpg,images/tutalien2,images/tutalien1,images/tutrocket1,NA,NA,2,practice,true,NA,common,0,2020-07-05T14:55:16Z,sub148
two-step-fixation,111,860293,0.0-61.0-2.16,TRUE,TRUE,FALSE,FALSE,"""event"",""trial"",""time""
""blur"",""3"",""17222""
""focus"",""3"",""17223""
""fullscreenenter"",""5"",""27736""
""blur"",""8"",""83920""
""focus"",""8"",""95007""
""blur"",""58"",""679257""
""focus"",""58"",""692578""
","""event"",""trial"",""time""
""blur"",""3"",""17222""
""blur"",""8"",""83920""
""blur"",""58"",""679257""
","""event"",""trial"",""time""
""focus"",""3"",""17223""
""focus"",""8"",""95007""
""focus"",""58"",""692578""
","""event"",""trial"",""time""
""fullscreenenter"",""5"",""27736""
","
",NA,images/earth.jpg,NA,NA,NA,NA,NA,NA,NA,NA,NA,NA,NA,NA,NA,fixation,NA,NA,NA,NA,NA,NA,sub148
d3-animate-choice,112,863226,0.0-61.0-0.17,TRUE,TRUE,FALSE,FALSE,"""event"",""trial"",""time""
""blur"",""3"",""17222""
""focus"",""3"",""17223""
""fullscreenenter"",""5"",""27736""
""blur"",""8"",""83920""
""focus"",""8"",""95007""
""blur"",""58"",""679257""
""focus"",""58"",""692578""
","""event"",""trial"",""time""
""blur"",""3"",""17222""
""blur"",""8"",""83920""
""blur"",""58"",""679257""
","""event"",""trial"",""time""
""focus"",""3"",""17223""
""focus"",""8"",""95007""
""focus"",""58"",""692578""
","""event"",""trial"",""time""
""fullscreenenter"",""5"",""27736""
","
",927.5350000243634,NA,49,NA,NA,3000,1,NA,NA,images/earth.jpg,images/tutrocket2,images/tutrocket1,null,images/tutrocket1,NA,1,practice,null,1,NA,NA,NA,sub148
d3-animate-choice,113,867230,0.0-61.0-1.17,TRUE,TRUE,FALSE,FALSE,"""event"",""trial"",""time""
""blur"",""3"",""17222""
""focus"",""3"",""17223""
""fullscreenenter"",""5"",""27736""
""blur"",""8"",""83920""
""focus"",""8"",""95007""
""blur"",""58"",""679257""
""focus"",""58"",""692578""
","""event"",""trial"",""time""
""blur"",""3"",""17222""
""blur"",""8"",""83920""
""blur"",""58"",""679257""
","""event"",""trial"",""time""
""focus"",""3"",""17223""
""focus"",""8"",""95007""
""focus"",""58"",""692578""
","""event"",""trial"",""time""
""fullscreenenter"",""5"",""27736""
","
",null,NA,null,NA,NA,3000,0,NA,NA,images/tutgreenplanet.jpg,images/tutalien2,images/tutalien1,images/tutrocket1,NA,NA,2,practice,true,NA,common,0,2020-07-05T14:55:24Z,sub148
two-step-fixation,114,868234,0.0-61.0-2.17,TRUE,TRUE,FALSE,FALSE,"""event"",""trial"",""time""
""blur"",""3"",""17222""
""focus"",""3"",""17223""
""fullscreenenter"",""5"",""27736""
""blur"",""8"",""83920""
""focus"",""8"",""95007""
""blur"",""58"",""679257""
""focus"",""58"",""692578""
","""event"",""trial"",""time""
""blur"",""3"",""17222""
""blur"",""8"",""83920""
""blur"",""58"",""679257""
","""event"",""trial"",""time""
""focus"",""3"",""17223""
""focus"",""8"",""95007""
""focus"",""58"",""692578""
","""event"",""trial"",""time""
""fullscreenenter"",""5"",""27736""
","
",NA,images/earth.jpg,NA,NA,NA,NA,NA,NA,NA,NA,NA,NA,NA,NA,NA,fixation,NA,NA,NA,NA,NA,NA,sub148
d3-animate-choice,115,871317,0.0-61.0-0.18,TRUE,TRUE,FALSE,FALSE,"""event"",""trial"",""time""
""blur"",""3"",""17222""
""focus"",""3"",""17223""
""fullscreenenter"",""5"",""27736""
""blur"",""8"",""83920""
""focus"",""8"",""95007""
""blur"",""58"",""679257""
""focus"",""58"",""692578""
","""event"",""trial"",""time""
""blur"",""3"",""17222""
""blur"",""8"",""83920""
""blur"",""58"",""679257""
","""event"",""trial"",""time""
""focus"",""3"",""17223""
""focus"",""8"",""95007""
""focus"",""58"",""692578""
","""event"",""trial"",""time""
""fullscreenenter"",""5"",""27736""
","
",1077.2649999707937,NA,49,NA,NA,3000,1,NA,NA,images/earth.jpg,images/tutrocket2,images/tutrocket1,null,images/tutrocket1,NA,1,practice,null,1,NA,NA,NA,sub148
d3-animate-choice,116,875322,0.0-61.0-1.18,TRUE,TRUE,FALSE,FALSE,"""event"",""trial"",""time""
""blur"",""3"",""17222""
""focus"",""3"",""17223""
""fullscreenenter"",""5"",""27736""
""blur"",""8"",""83920""
""focus"",""8"",""95007""
""blur"",""58"",""679257""
""focus"",""58"",""692578""
","""event"",""trial"",""time""
""blur"",""3"",""17222""
""blur"",""8"",""83920""
""blur"",""58"",""679257""
","""event"",""trial"",""time""
""focus"",""3"",""17223""
""focus"",""8"",""95007""
""focus"",""58"",""692578""
","""event"",""trial"",""time""
""fullscreenenter"",""5"",""27736""
","
",null,NA,null,NA,NA,3000,0,NA,NA,images/tutgreenplanet.jpg,images/tutalien2,images/tutalien1,images/tutrocket1,NA,NA,2,practice,true,NA,common,0,2020-07-05T14:55:32Z,sub148
two-step-fixation,117,876325,0.0-61.0-2.18,TRUE,TRUE,FALSE,FALSE,"""event"",""trial"",""time""
""blur"",""3"",""17222""
""focus"",""3"",""17223""
""fullscreenenter"",""5"",""27736""
""blur"",""8"",""83920""
""focus"",""8"",""95007""
""blur"",""58"",""679257""
""focus"",""58"",""692578""
","""event"",""trial"",""time""
""blur"",""3"",""17222""
""blur"",""8"",""83920""
""blur"",""58"",""679257""
","""event"",""trial"",""time""
""focus"",""3"",""17223""
""focus"",""8"",""95007""
""focus"",""58"",""692578""
","""event"",""trial"",""time""
""fullscreenenter"",""5"",""27736""
","
",NA,images/earth.jpg,NA,NA,NA,NA,NA,NA,NA,NA,NA,NA,NA,NA,NA,fixation,NA,NA,NA,NA,NA,NA,sub148
d3-animate-choice,118,880330,0.0-61.0-0.19,TRUE,TRUE,FALSE,FALSE,"""event"",""trial"",""time""
""blur"",""3"",""17222""
""focus"",""3"",""17223""
""fullscreenenter"",""5"",""27736""
""blur"",""8"",""83920""
""focus"",""8"",""95007""
""blur"",""58"",""679257""
""focus"",""58"",""692578""
","""event"",""trial"",""time""
""blur"",""3"",""17222""
""blur"",""8"",""83920""
""blur"",""58"",""679257""
","""event"",""trial"",""time""
""focus"",""3"",""17223""
""focus"",""8"",""95007""
""focus"",""58"",""692578""
","""event"",""trial"",""time""
""fullscreenenter"",""5"",""27736""
","
",887.2449999907985,NA,96,NA,NA,3000,1,"1511.9449999765493,2280.3399999975227,2687.615000002552,3920.7850000238977",971443548,images/earth.jpg,images/tutrocket2,images/tutrocket1,null,images/tutrocket2,NA,1,practice,null,NA,NA,NA,NA,sub148
d3-animate-choice,119,884336,0.0-61.0-1.19,TRUE,TRUE,FALSE,FALSE,"""event"",""trial"",""time""
""blur"",""3"",""17222""
""focus"",""3"",""17223""
""fullscreenenter"",""5"",""27736""
""blur"",""8"",""83920""
""focus"",""8"",""95007""
""blur"",""58"",""679257""
""focus"",""58"",""692578""
","""event"",""trial"",""time""
""blur"",""3"",""17222""
""blur"",""8"",""83920""
""blur"",""58"",""679257""
","""event"",""trial"",""time""
""focus"",""3"",""17223""
""focus"",""8"",""95007""
""focus"",""58"",""692578""
","""event"",""trial"",""time""
""fullscreenenter"",""5"",""27736""
","
",null,NA,null,NA,NA,3000,0,NA,NA,images/tutyellowplanet.jpg,images/tutalien4,images/tutalien3,images/tutrocket2,NA,NA,2,practice,true,NA,common,0,2020-07-05T14:55:41Z,sub148
two-step-fixation,120,885341,0.0-61.0-2.19,TRUE,TRUE,FALSE,FALSE,"""event"",""trial"",""time""
""blur"",""3"",""17222""
""focus"",""3"",""17223""
""fullscreenenter"",""5"",""27736""
""blur"",""8"",""83920""
""focus"",""8"",""95007""
""blur"",""58"",""679257""
""focus"",""58"",""692578""
","""event"",""trial"",""time""
""blur"",""3"",""17222""
""blur"",""8"",""83920""
""blur"",""58"",""679257""
","""event"",""trial"",""time""
""focus"",""3"",""17223""
""focus"",""8"",""95007""
""focus"",""58"",""692578""
","""event"",""trial"",""time""
""fullscreenenter"",""5"",""27736""
","
",NA,images/earth.jpg,NA,NA,NA,NA,NA,NA,NA,NA,NA,NA,NA,NA,NA,fixation,NA,NA,NA,NA,NA,NA,sub148
d3-instructions,121,911625,0.0-62.0,TRUE,TRUE,FALSE,FALSE,"""event"",""trial"",""time""
""blur"",""3"",""17222""
""focus"",""3"",""17223""
""fullscreenenter"",""5"",""27736""
""blur"",""8"",""83920""
""focus"",""8"",""95007""
""blur"",""58"",""679257""
""focus"",""58"",""692578""
","""event"",""trial"",""time""
""blur"",""3"",""17222""
""blur"",""8"",""83920""
""blur"",""58"",""679257""
","""event"",""trial"",""time""
""focus"",""3"",""17223""
""focus"",""8"",""95007""
""focus"",""58"",""692578""
","""event"",""trial"",""time""
""fullscreenenter"",""5"",""27736""
","
",NA,NA,NA,NA,NA,NA,NA,NA,NA,NA,NA,NA,NA,NA,NA,NA,NA,NA,NA,NA,NA,NA,sub148
audio-keyboard-response,122,930635,0.0-63.0,TRUE,TRUE,FALSE,FALSE,"""event"",""trial"",""time""
""blur"",""3"",""17222""
""focus"",""3"",""17223""
""fullscreenenter"",""5"",""27736""
""blur"",""8"",""83920""
""focus"",""8"",""95007""
""blur"",""58"",""679257""
""focus"",""58"",""692578""
","""event"",""trial"",""time""
""blur"",""3"",""17222""
""blur"",""8"",""83920""
""blur"",""58"",""679257""
","""event"",""trial"",""time""
""focus"",""3"",""17223""
""focus"",""8"",""95007""
""focus"",""58"",""692578""
","""event"",""trial"",""time""
""fullscreenenter"",""5"",""27736""
","
",19017,audio/instructions/treasure_feedback.wav,32,NA,NA,NA,NA,NA,NA,NA,NA,NA,NA,NA,NA,NA,NA,NA,NA,NA,NA,NA,sub148
d3-instructions,123,952578,0.0-64.0,TRUE,TRUE,FALSE,FALSE,"""event"",""trial"",""time""
""blur"",""3"",""17222""
""focus"",""3"",""17223""
""fullscreenenter"",""5"",""27736""
""blur"",""8"",""83920""
""focus"",""8"",""95007""
""blur"",""58"",""679257""
""focus"",""58"",""692578""
","""event"",""trial"",""time""
""blur"",""3"",""17222""
""blur"",""8"",""83920""
""blur"",""58"",""679257""
","""event"",""trial"",""time""
""focus"",""3"",""17223""
""focus"",""8"",""95007""
""focus"",""58"",""692578""
","""event"",""trial"",""time""
""fullscreenenter"",""5"",""27736""
","
",NA,NA,NA,NA,NA,NA,NA,NA,NA,NA,NA,NA,NA,NA,NA,NA,NA,NA,NA,NA,NA,NA,sub148
d3-instructions,124,971409,0.0-65.0,TRUE,TRUE,FALSE,FALSE,"""event"",""trial"",""time""
""blur"",""3"",""17222""
""focus"",""3"",""17223""
""fullscreenenter"",""5"",""27736""
""blur"",""8"",""83920""
""focus"",""8"",""95007""
""blur"",""58"",""679257""
""focus"",""58"",""692578""
","""event"",""trial"",""time""
""blur"",""3"",""17222""
""blur"",""8"",""83920""
""blur"",""58"",""679257""
","""event"",""trial"",""time""
""focus"",""3"",""17223""
""focus"",""8"",""95007""
""focus"",""58"",""692578""
","""event"",""trial"",""time""
""fullscreenenter"",""5"",""27736""
","
",NA,NA,NA,NA,NA,NA,NA,NA,NA,NA,NA,NA,NA,NA,NA,NA,NA,NA,NA,NA,NA,NA,sub148
d3-instructions,125,998442,0.0-66.0,TRUE,TRUE,FALSE,FALSE,"""event"",""trial"",""time""
""blur"",""3"",""17222""
""focus"",""3"",""17223""
""fullscreenenter"",""5"",""27736""
""blur"",""8"",""83920""
""focus"",""8"",""95007""
""blur"",""58"",""679257""
""focus"",""58"",""692578""
","""event"",""trial"",""time""
""blur"",""3"",""17222""
""blur"",""8"",""83920""
""blur"",""58"",""679257""
","""event"",""trial"",""time""
""focus"",""3"",""17223""
""focus"",""8"",""95007""
""focus"",""58"",""692578""
","""event"",""trial"",""time""
""fullscreenenter"",""5"",""27736""
","
",NA,NA,NA,NA,NA,NA,NA,NA,NA,NA,NA,NA,NA,NA,NA,NA,NA,NA,NA,NA,NA,NA,sub148
d3-instructions,126,1017810,0.0-67.0,TRUE,TRUE,FALSE,FALSE,"""event"",""trial"",""time""
""blur"",""3"",""17222""
""focus"",""3"",""17223""
""fullscreenenter"",""5"",""27736""
""blur"",""8"",""83920""
""focus"",""8"",""95007""
""blur"",""58"",""679257""
""focus"",""58"",""692578""
","""event"",""trial"",""time""
""blur"",""3"",""17222""
""blur"",""8"",""83920""
""blur"",""58"",""679257""
","""event"",""trial"",""time""
""focus"",""3"",""17223""
""focus"",""8"",""95007""
""focus"",""58"",""692578""
","""event"",""trial"",""time""
""fullscreenenter"",""5"",""27736""
","
",NA,NA,NA,NA,NA,NA,NA,NA,NA,NA,NA,NA,NA,NA,NA,NA,NA,NA,NA,NA,NA,NA,sub148
d3-instructions,127,1026914,0.0-68.0,TRUE,TRUE,FALSE,FALSE,"""event"",""trial"",""time""
""blur"",""3"",""17222""
""focus"",""3"",""17223""
""fullscreenenter"",""5"",""27736""
""blur"",""8"",""83920""
""focus"",""8"",""95007""
""blur"",""58"",""679257""
""focus"",""58"",""692578""
","""event"",""trial"",""time""
""blur"",""3"",""17222""
""blur"",""8"",""83920""
""blur"",""58"",""679257""
","""event"",""trial"",""time""
""focus"",""3"",""17223""
""focus"",""8"",""95007""
""focus"",""58"",""692578""
","""event"",""trial"",""time""
""fullscreenenter"",""5"",""27736""
","
",NA,NA,NA,NA,NA,NA,NA,NA,NA,NA,NA,NA,NA,NA,NA,NA,NA,NA,NA,NA,NA,NA,sub148
instructions-quiz,128,1031907,0.0-69.0,TRUE,TRUE,FALSE,FALSE,"""event"",""trial"",""time""
""blur"",""3"",""17222""
""focus"",""3"",""17223""
""fullscreenenter"",""5"",""27736""
""blur"",""8"",""83920""
""focus"",""8"",""95007""
""blur"",""58"",""679257""
""focus"",""58"",""692578""
","""event"",""trial"",""time""
""blur"",""3"",""17222""
""blur"",""8"",""83920""
""blur"",""58"",""679257""
","""event"",""trial"",""time""
""focus"",""3"",""17223""
""focus"",""8"",""95007""
""focus"",""58"",""692578""
","""event"",""trial"",""time""
""fullscreenenter"",""5"",""27736""
","
",4989.70500001451,audio/quiz/Q1_Prompt.wav,NA,1,NA,NA,NA,NA,NA,NA,NA,NA,NA,NA,NA,NA,NA,NA,NA,NA,NA,NA,sub148
audio-keyboard-response,129,1041080,0.0-70.0,TRUE,TRUE,FALSE,FALSE,"""event"",""trial"",""time""
""blur"",""3"",""17222""
""focus"",""3"",""17223""
""fullscreenenter"",""5"",""27736""
""blur"",""8"",""83920""
""focus"",""8"",""95007""
""blur"",""58"",""679257""
""focus"",""58"",""692578""
","""event"",""trial"",""time""
""blur"",""3"",""17222""
""blur"",""8"",""83920""
""blur"",""58"",""679257""
","""event"",""trial"",""time""
""focus"",""3"",""17223""
""focus"",""8"",""95007""
""focus"",""58"",""692578""
","""event"",""trial"",""time""
""fullscreenenter"",""5"",""27736""
","
",null,audio/quiz/Q1_Correct.wav,null,NA,NA,NA,NA,NA,NA,NA,NA,NA,NA,NA,NA,NA,NA,NA,NA,NA,NA,NA,sub148
instructions-quiz,130,1055922,0.0-71.0,TRUE,TRUE,FALSE,FALSE,"""event"",""trial"",""time""
""blur"",""3"",""17222""
""focus"",""3"",""17223""
""fullscreenenter"",""5"",""27736""
""blur"",""8"",""83920""
""focus"",""8"",""95007""
""blur"",""58"",""679257""
""focus"",""58"",""692578""
","""event"",""trial"",""time""
""blur"",""3"",""17222""
""blur"",""8"",""83920""
""blur"",""58"",""679257""
","""event"",""trial"",""time""
""focus"",""3"",""17223""
""focus"",""8"",""95007""
""focus"",""58"",""692578""
","""event"",""trial"",""time""
""fullscreenenter"",""5"",""27736""
","
",14838.980000000447,audio/quiz/Q2_Prompt.wav,NA,0,NA,NA,NA,NA,NA,NA,NA,NA,NA,NA,NA,NA,NA,NA,NA,NA,NA,NA,sub148
audio-keyboard-response,131,1068790,0.0-72.0,TRUE,TRUE,FALSE,FALSE,"""event"",""trial"",""time""
""blur"",""3"",""17222""
""focus"",""3"",""17223""
""fullscreenenter"",""5"",""27736""
""blur"",""8"",""83920""
""focus"",""8"",""95007""
""blur"",""58"",""679257""
""focus"",""58"",""692578""
","""event"",""trial"",""time""
""blur"",""3"",""17222""
""blur"",""8"",""83920""
""blur"",""58"",""679257""
","""event"",""trial"",""time""
""focus"",""3"",""17223""
""focus"",""8"",""95007""
""focus"",""58"",""692578""
","""event"",""trial"",""time""
""fullscreenenter"",""5"",""27736""
","
",null,audio/quiz/Q2_Correct.wav,null,NA,NA,NA,NA,NA,NA,NA,NA,NA,NA,NA,NA,NA,NA,NA,NA,NA,NA,NA,sub148
instructions-quiz,132,1073586,0.0-73.0,TRUE,TRUE,FALSE,FALSE,"""event"",""trial"",""time""
""blur"",""3"",""17222""
""focus"",""3"",""17223""
""fullscreenenter"",""5"",""27736""
""blur"",""8"",""83920""
""focus"",""8"",""95007""
""blur"",""58"",""679257""
""focus"",""58"",""692578""
","""event"",""trial"",""time""
""blur"",""3"",""17222""
""blur"",""8"",""83920""
""blur"",""58"",""679257""
","""event"",""trial"",""time""
""focus"",""3"",""17223""
""focus"",""8"",""95007""
""focus"",""58"",""692578""
","""event"",""trial"",""time""
""fullscreenenter"",""5"",""27736""
","
",4793.230000010226,audio/quiz/Q3_Prompt.wav,NA,1,NA,NA,NA,NA,NA,NA,NA,NA,NA,NA,NA,NA,NA,NA,NA,NA,NA,NA,sub148
audio-keyboard-response,133,1079394,0.0-74.0,TRUE,TRUE,FALSE,FALSE,"""event"",""trial"",""time""
""blur"",""3"",""17222""
""focus"",""3"",""17223""
""fullscreenenter"",""5"",""27736""
""blur"",""8"",""83920""
""focus"",""8"",""95007""
""blur"",""58"",""679257""
""focus"",""58"",""692578""
","""event"",""trial"",""time""
""blur"",""3"",""17222""
""blur"",""8"",""83920""
""blur"",""58"",""679257""
","""event"",""trial"",""time""
""focus"",""3"",""17223""
""focus"",""8"",""95007""
""focus"",""58"",""692578""
","""event"",""trial"",""time""
""fullscreenenter"",""5"",""27736""
","
",null,audio/quiz/Q3_Correct.wav,null,NA,NA,NA,NA,NA,NA,NA,NA,NA,NA,NA,NA,NA,NA,NA,NA,NA,NA,NA,sub148
d3-instructions,134,1094946,0.0-75.0,TRUE,TRUE,FALSE,FALSE,"""event"",""trial"",""time""
""blur"",""3"",""17222""
""focus"",""3"",""17223""
""fullscreenenter"",""5"",""27736""
""blur"",""8"",""83920""
""focus"",""8"",""95007""
""blur"",""58"",""679257""
""focus"",""58"",""692578""
","""event"",""trial"",""time""
""blur"",""3"",""17222""
""blur"",""8"",""83920""
""blur"",""58"",""679257""
","""event"",""trial"",""time""
""focus"",""3"",""17223""
""focus"",""8"",""95007""
""focus"",""58"",""692578""
","""event"",""trial"",""time""
""fullscreenenter"",""5"",""27736""
","
",NA,NA,NA,NA,NA,NA,NA,NA,NA,NA,NA,NA,NA,NA,NA,NA,NA,NA,NA,NA,NA,NA,sub148
d3-animate-choice,135,1098952,0.0-76.0-0.0,TRUE,TRUE,FALSE,FALSE,"""event"",""trial"",""time""
""blur"",""3"",""17222""
""focus"",""3"",""17223""
""fullscreenenter"",""5"",""27736""
""blur"",""8"",""83920""
""focus"",""8"",""95007""
""blur"",""58"",""679257""
""focus"",""58"",""692578""
","""event"",""trial"",""time""
""blur"",""3"",""17222""
""blur"",""8"",""83920""
""blur"",""58"",""679257""
","""event"",""trial"",""time""
""focus"",""3"",""17223""
""focus"",""8"",""95007""
""focus"",""58"",""692578""
","""event"",""trial"",""time""
""fullscreenenter"",""5"",""27736""
","
",2234.5850000274368,NA,49,NA,NA,3000,1,NA,NA,images/earth.jpg,images/rocket2,images/rocket1,null,images/rocket1,NA,1,real,null,1,NA,NA,NA,sub148
d3-animate-choice,136,1102246,0.0-76.0-1.0,TRUE,TRUE,FALSE,FALSE,"""event"",""trial"",""time""
""blur"",""3"",""17222""
""focus"",""3"",""17223""
""fullscreenenter"",""5"",""27736""
""blur"",""8"",""83920""
""focus"",""8"",""95007""
""blur"",""58"",""679257""
""focus"",""58"",""692578""
","""event"",""trial"",""time""
""blur"",""3"",""17222""
""blur"",""8"",""83920""
""blur"",""58"",""679257""
","""event"",""trial"",""time""
""focus"",""3"",""17223""
""focus"",""8"",""95007""
""focus"",""58"",""692578""
","""event"",""trial"",""time""
""fullscreenenter"",""5"",""27736""
","
",1286.7850000038743,NA,49,NA,NA,3000,1,NA,NA,images/redplanet1.jpg,images/alien2,images/alien1,images/rocket1,images/alien1,images/nothing.png,2,real,true,1,common,0,2020-07-05T14:59:19Z,sub148
two-step-fixation,137,1103249,0.0-76.0-2.0,TRUE,TRUE,FALSE,FALSE,"""event"",""trial"",""time""
""blur"",""3"",""17222""
""focus"",""3"",""17223""
""fullscreenenter"",""5"",""27736""
""blur"",""8"",""83920""
""focus"",""8"",""95007""
""blur"",""58"",""679257""
""focus"",""58"",""692578""
","""event"",""trial"",""time""
""blur"",""3"",""17222""
""blur"",""8"",""83920""
""blur"",""58"",""679257""
","""event"",""trial"",""time""
""focus"",""3"",""17223""
""focus"",""8"",""95007""
""focus"",""58"",""692578""
","""event"",""trial"",""time""
""fullscreenenter"",""5"",""27736""
","
",NA,images/earth.jpg,NA,NA,NA,NA,NA,NA,NA,NA,NA,NA,NA,NA,NA,fixation,NA,NA,NA,NA,NA,NA,sub148
d3-animate-choice,138,1106253,0.0-76.0-0.1,TRUE,TRUE,FALSE,FALSE,"""event"",""trial"",""time""
""blur"",""3"",""17222""
""focus"",""3"",""17223""
""fullscreenenter"",""5"",""27736""
""blur"",""8"",""83920""
""focus"",""8"",""95007""
""blur"",""58"",""679257""
""focus"",""58"",""692578""
","""event"",""trial"",""time""
""blur"",""3"",""17222""
""blur"",""8"",""83920""
""blur"",""58"",""679257""
","""event"",""trial"",""time""
""focus"",""3"",""17223""
""focus"",""8"",""95007""
""focus"",""58"",""692578""
","""event"",""trial"",""time""
""fullscreenenter"",""5"",""27736""
","
",998.970000015106,NA,49,NA,NA,3000,1,NA,NA,images/earth.jpg,images/rocket2,images/rocket1,null,images/rocket1,NA,1,real,null,1,NA,NA,NA,sub148
d3-animate-choice,139,1110257,0.0-76.0-1.1,TRUE,TRUE,FALSE,FALSE,"""event"",""trial"",""time""
""blur"",""3"",""17222""
""focus"",""3"",""17223""
""fullscreenenter"",""5"",""27736""
""blur"",""8"",""83920""
""focus"",""8"",""95007""
""blur"",""58"",""679257""
""focus"",""58"",""692578""
","""event"",""trial"",""time""
""blur"",""3"",""17222""
""blur"",""8"",""83920""
""blur"",""58"",""679257""
","""event"",""trial"",""time""
""focus"",""3"",""17223""
""focus"",""8"",""95007""
""focus"",""58"",""692578""
","""event"",""trial"",""time""
""fullscreenenter"",""5"",""27736""
","
",1537.6650000107475,NA,57,NA,NA,3000,1,2497.990000003483,48,images/purpleplanet.jpg,images/alien4,images/alien3,images/rocket1,images/alien4,images/t.png,2,real,false,NA,rare,1,2020-07-05T14:59:27Z,sub148
two-step-fixation,140,1111262,0.0-76.0-2.1,TRUE,TRUE,FALSE,FALSE,"""event"",""trial"",""time""
""blur"",""3"",""17222""
""focus"",""3"",""17223""
""fullscreenenter"",""5"",""27736""
""blur"",""8"",""83920""
""focus"",""8"",""95007""
""blur"",""58"",""679257""
""focus"",""58"",""692578""
","""event"",""trial"",""time""
""blur"",""3"",""17222""
""blur"",""8"",""83920""
""blur"",""58"",""679257""
","""event"",""trial"",""time""
""focus"",""3"",""17223""
""focus"",""8"",""95007""
""focus"",""58"",""692578""
","""event"",""trial"",""time""
""fullscreenenter"",""5"",""27736""
","
",NA,images/earth.jpg,NA,NA,NA,NA,NA,NA,NA,NA,NA,NA,NA,NA,NA,fixation,NA,NA,NA,NA,NA,NA,sub148
d3-animate-choice,141,1115052,0.0-76.0-0.2,TRUE,TRUE,FALSE,FALSE,"""event"",""trial"",""time""
""blur"",""3"",""17222""
""focus"",""3"",""17223""
""fullscreenenter"",""5"",""27736""
""blur"",""8"",""83920""
""focus"",""8"",""95007""
""blur"",""58"",""679257""
""focus"",""58"",""692578""
","""event"",""trial"",""time""
""blur"",""3"",""17222""
""blur"",""8"",""83920""
""blur"",""58"",""679257""
","""event"",""trial"",""time""
""focus"",""3"",""17223""
""focus"",""8"",""95007""
""focus"",""58"",""692578""
","""event"",""trial"",""time""
""fullscreenenter"",""5"",""27736""
","
",1785.8150000101887,NA,48,NA,NA,3000,1,NA,NA,images/earth.jpg,images/rocket2,images/rocket1,null,images/rocket2,NA,1,real,null,2,NA,NA,NA,sub148
d3-animate-choice,142,1118292,0.0-76.0-1.2,TRUE,TRUE,FALSE,FALSE,"""event"",""trial"",""time""
""blur"",""3"",""17222""
""focus"",""3"",""17223""
""fullscreenenter"",""5"",""27736""
""blur"",""8"",""83920""
""focus"",""8"",""95007""
""blur"",""58"",""679257""
""focus"",""58"",""692578""
","""event"",""trial"",""time""
""blur"",""3"",""17222""
""blur"",""8"",""83920""
""blur"",""58"",""679257""
","""event"",""trial"",""time""
""focus"",""3"",""17223""
""focus"",""8"",""95007""
""focus"",""58"",""692578""
","""event"",""trial"",""time""
""fullscreenenter"",""5"",""27736""
","
",1235.7349999947473,NA,48,NA,NA,3000,1,NA,NA,images/purpleplanet.jpg,images/alien4,images/alien3,images/rocket2,images/alien4,images/nothing.png,2,real,true,2,common,0,2020-07-05T14:59:35Z,sub148
two-step-fixation,143,1119297,0.0-76.0-2.2,TRUE,TRUE,FALSE,FALSE,"""event"",""trial"",""time""
""blur"",""3"",""17222""
""focus"",""3"",""17223""
""fullscreenenter"",""5"",""27736""
""blur"",""8"",""83920""
""focus"",""8"",""95007""
""blur"",""58"",""679257""
""focus"",""58"",""692578""
","""event"",""trial"",""time""
""blur"",""3"",""17222""
""blur"",""8"",""83920""
""blur"",""58"",""679257""
","""event"",""trial"",""time""
""focus"",""3"",""17223""
""focus"",""8"",""95007""
""focus"",""58"",""692578""
","""event"",""trial"",""time""
""fullscreenenter"",""5"",""27736""
","
",NA,images/earth.jpg,NA,NA,NA,NA,NA,NA,NA,NA,NA,NA,NA,NA,NA,fixation,NA,NA,NA,NA,NA,NA,sub148
d3-animate-choice,144,1121948,0.0-76.0-0.3,TRUE,TRUE,FALSE,FALSE,"""event"",""trial"",""time""
""blur"",""3"",""17222""
""focus"",""3"",""17223""
""fullscreenenter"",""5"",""27736""
""blur"",""8"",""83920""
""focus"",""8"",""95007""
""blur"",""58"",""679257""
""focus"",""58"",""692578""
","""event"",""trial"",""time""
""blur"",""3"",""17222""
""blur"",""8"",""83920""
""blur"",""58"",""679257""
","""event"",""trial"",""time""
""focus"",""3"",""17223""
""focus"",""8"",""95007""
""focus"",""58"",""692578""
","""event"",""trial"",""time""
""fullscreenenter"",""5"",""27736""
","
",645.2200000057928,NA,48,NA,NA,3000,1,NA,NA,images/earth.jpg,images/rocket2,images/rocket1,null,images/rocket2,NA,1,real,null,2,NA,NA,NA,sub148
d3-animate-choice,145,1125123,0.0-76.0-1.3,TRUE,TRUE,FALSE,FALSE,"""event"",""trial"",""time""
""blur"",""3"",""17222""
""focus"",""3"",""17223""
""fullscreenenter"",""5"",""27736""
""blur"",""8"",""83920""
""focus"",""8"",""95007""
""blur"",""58"",""679257""
""focus"",""58"",""692578""
","""event"",""trial"",""time""
""blur"",""3"",""17222""
""blur"",""8"",""83920""
""blur"",""58"",""679257""
","""event"",""trial"",""time""
""focus"",""3"",""17223""
""focus"",""8"",""95007""
""focus"",""58"",""692578""
","""event"",""trial"",""time""
""fullscreenenter"",""5"",""27736""
","
",1170.3649999690242,NA,49,NA,NA,3000,1,NA,NA,images/purpleplanet.jpg,images/alien4,images/alien3,images/rocket2,images/alien3,images/nothing.png,2,real,true,1,common,0,2020-07-05T14:59:42Z,sub148
two-step-fixation,146,1126127,0.0-76.0-2.3,TRUE,TRUE,FALSE,FALSE,"""event"",""trial"",""time""
""blur"",""3"",""17222""
""focus"",""3"",""17223""
""fullscreenenter"",""5"",""27736""
""blur"",""8"",""83920""
""focus"",""8"",""95007""
""blur"",""58"",""679257""
""focus"",""58"",""692578""
","""event"",""trial"",""time""
""blur"",""3"",""17222""
""blur"",""8"",""83920""
""blur"",""58"",""679257""
","""event"",""trial"",""time""
""focus"",""3"",""17223""
""focus"",""8"",""95007""
""focus"",""58"",""692578""
","""event"",""trial"",""time""
""fullscreenenter"",""5"",""27736""
","
",NA,images/earth.jpg,NA,NA,NA,NA,NA,NA,NA,NA,NA,NA,NA,NA,NA,fixation,NA,NA,NA,NA,NA,NA,sub148
d3-animate-choice,147,1129358,0.0-76.0-0.4,TRUE,TRUE,FALSE,FALSE,"""event"",""trial"",""time""
""blur"",""3"",""17222""
""focus"",""3"",""17223""
""fullscreenenter"",""5"",""27736""
""blur"",""8"",""83920""
""focus"",""8"",""95007""
""blur"",""58"",""679257""
""focus"",""58"",""692578""
","""event"",""trial"",""time""
""blur"",""3"",""17222""
""blur"",""8"",""83920""
""blur"",""58"",""679257""
","""event"",""trial"",""time""
""focus"",""3"",""17223""
""focus"",""8"",""95007""
""focus"",""58"",""692578""
","""event"",""trial"",""time""
""fullscreenenter"",""5"",""27736""
","
",1225.1750000286847,NA,49,NA,NA,3000,1,NA,NA,images/earth.jpg,images/rocket2,images/rocket1,null,images/rocket1,NA,1,real,null,1,NA,NA,NA,sub148
d3-animate-choice,148,1132916,0.0-76.0-1.4,TRUE,TRUE,FALSE,FALSE,"""event"",""trial"",""time""
""blur"",""3"",""17222""
""focus"",""3"",""17223""
""fullscreenenter"",""5"",""27736""
""blur"",""8"",""83920""
""focus"",""8"",""95007""
""blur"",""58"",""679257""
""focus"",""58"",""692578""
","""event"",""trial"",""time""
""blur"",""3"",""17222""
""blur"",""8"",""83920""
""blur"",""58"",""679257""
","""event"",""trial"",""time""
""focus"",""3"",""17223""
""focus"",""8"",""95007""
""focus"",""58"",""692578""
