trial_type,trial_index,time_elapsed,internal_node_id,rocket_sides,red_planet_first_rocket,red_display_order,purple_display_order,interactions,blur_events,focus_events,fullscreenenter_events,fullscreenexit_events,rt,stimulus,key_press,button_pressed,success,duration,valid_pressed,rts,keys,planet_text,right_text,left_text,center_text,chosen_text,reward_text,trial_stage,practice_trial,transition_type,choice,transition,reward,timestamp,subject_id
pavlovia,0,4,0.0-0.0,FALSE,TRUE,FALSE,FALSE,"
","
","
","
","
",NA,NA,NA,NA,NA,NA,NA,NA,NA,NA,NA,NA,NA,NA,NA,NA,NA,NA,NA,NA,NA,NA,sub60
html-keyboard-response,1,1530,0.0-1.0,FALSE,TRUE,FALSE,FALSE,"
","
","
","
","
",1524.9000000003434,Welcome! Press the space bar to begin.,32,NA,NA,NA,NA,NA,NA,NA,NA,NA,NA,NA,NA,NA,NA,NA,NA,NA,NA,NA,sub60
audio-keyboard-response,2,6500,0.0-2.0,FALSE,TRUE,FALSE,FALSE,"
","
","
","
","
",4969,audio/beep_loop.wav,32,NA,NA,NA,NA,NA,NA,NA,NA,NA,NA,NA,NA,NA,NA,NA,NA,NA,NA,NA,sub60
audio-button-response,3,9564,0.0-3.0,FALSE,TRUE,FALSE,FALSE,"
","
","
","
","
",NaN,audio/fish.mp3,NA,1,NA,NA,NA,NA,NA,NA,NA,NA,NA,NA,NA,NA,NA,NA,NA,NA,NA,NA,sub60
audio-button-response,4,11997,0.0-4.0,FALSE,TRUE,FALSE,FALSE,"""event"",""trial"",""time""
""fullscreenenter"",""5"",""15667""
","
","
","""event"",""trial"",""time""
""fullscreenenter"",""5"",""15667""
","
",NaN,audio/tiger.mp3,NA,4,NA,NA,NA,NA,NA,NA,NA,NA,NA,NA,NA,NA,NA,NA,NA,NA,NA,NA,sub60
fullscreen,5,16649,0.0-5.0,FALSE,TRUE,FALSE,FALSE,"""event"",""trial"",""time""
""fullscreenenter"",""5"",""15667""
","
","
","""event"",""trial"",""time""
""fullscreenenter"",""5"",""15667""
","
",NA,NA,NA,NA,TRUE,NA,NA,NA,NA,NA,NA,NA,NA,NA,NA,NA,NA,NA,NA,NA,NA,NA,sub60
d3-instructions,6,29297,0.0-6.0,FALSE,TRUE,FALSE,FALSE,"""event"",""trial"",""time""
""fullscreenenter"",""5"",""15667""
","
","
","""event"",""trial"",""time""
""fullscreenenter"",""5"",""15667""
","
",NA,NA,NA,NA,NA,NA,NA,NA,NA,NA,NA,NA,NA,NA,NA,NA,NA,NA,NA,NA,NA,NA,sub60
d3-instructions,7,41926,0.0-7.0,FALSE,TRUE,FALSE,FALSE,"""event"",""trial"",""time""
""fullscreenenter"",""5"",""15667""
","
","
","""event"",""trial"",""time""
""fullscreenenter"",""5"",""15667""
","
",NA,NA,NA,NA,NA,NA,NA,NA,NA,NA,NA,NA,NA,NA,NA,NA,NA,NA,NA,NA,NA,NA,sub60
d3-instructions,8,51702,0.0-8.0,FALSE,TRUE,FALSE,FALSE,"""event"",""trial"",""time""
""fullscreenenter"",""5"",""15667""
","
","
","""event"",""trial"",""time""
""fullscreenenter"",""5"",""15667""
","
",NA,NA,NA,NA,NA,NA,NA,NA,NA,NA,NA,NA,NA,NA,NA,NA,NA,NA,NA,NA,NA,NA,sub60
d3-instructions,9,64058,0.0-9.0,FALSE,TRUE,FALSE,FALSE,"""event"",""trial"",""time""
""fullscreenenter"",""5"",""15667""
","
","
","""event"",""trial"",""time""
""fullscreenenter"",""5"",""15667""
","
",NA,NA,NA,NA,NA,NA,NA,NA,NA,NA,NA,NA,NA,NA,NA,NA,NA,NA,NA,NA,NA,NA,sub60
d3-instructions,10,76034,0.0-10.0,FALSE,TRUE,FALSE,FALSE,"""event"",""trial"",""time""
""fullscreenenter"",""5"",""15667""
","
","
","""event"",""trial"",""time""
""fullscreenenter"",""5"",""15667""
","
",NA,NA,NA,NA,NA,NA,NA,NA,NA,NA,NA,NA,NA,NA,NA,NA,NA,NA,NA,NA,NA,NA,sub60
d3-animate-choice,11,83951,0.0-11.0,FALSE,TRUE,FALSE,FALSE,"""event"",""trial"",""time""
""fullscreenenter"",""5"",""15667""
","
","
","""event"",""trial"",""time""
""fullscreenenter"",""5"",""15667""
","
",3976.780000000872,NA,32,NA,NA,3000,1,5909.299999999348,49,images/tutgreenplanet.jpg,images/tutalien1,images/tutalien2,null,images/tutalien2,NA,NA,practice,null,NA,NA,NA,NA,sub60
d3-animate-choice,12,87942,0.0-12.0,FALSE,TRUE,FALSE,FALSE,"""event"",""trial"",""time""
""fullscreenenter"",""5"",""15667""
","
","
","""event"",""trial"",""time""
""fullscreenenter"",""5"",""15667""
","
",1987.3550000011164,NA,48,NA,NA,3000,1,NA,NA,images/tutgreenplanet.jpg,images/tutalien1,images/tutalien2,null,images/tutalien1,NA,NA,practice,null,NA,NA,NA,NA,sub60
d3-animate-choice,13,92221,0.0-13.0,FALSE,TRUE,FALSE,FALSE,"""event"",""trial"",""time""
""fullscreenenter"",""5"",""15667""
","
","
","""event"",""trial"",""time""
""fullscreenenter"",""5"",""15667""
","
",2274.7249999993073,NA,49,NA,NA,3000,1,NA,NA,images/tutgreenplanet.jpg,images/tutalien1,images/tutalien2,null,images/tutalien2,NA,NA,practice,null,NA,NA,NA,NA,sub60
d3-animate-choice,14,94473,0.0-14.0,FALSE,TRUE,FALSE,FALSE,"""event"",""trial"",""time""
""fullscreenenter"",""5"",""15667""
","
","
","""event"",""trial"",""time""
""fullscreenenter"",""5"",""15667""
","
",247.91499999992084,NA,48,NA,NA,3000,1,NA,NA,images/tutgreenplanet.jpg,images/tutalien1,images/tutalien2,null,images/tutalien1,NA,NA,practice,null,NA,NA,NA,NA,sub60
d3-instructions,15,102483,0.0-15.0,FALSE,TRUE,FALSE,FALSE,"""event"",""trial"",""time""
""fullscreenenter"",""5"",""15667""
","
","
","""event"",""trial"",""time""
""fullscreenenter"",""5"",""15667""
","
",NA,NA,NA,NA,NA,NA,NA,NA,NA,NA,NA,NA,NA,NA,NA,NA,NA,NA,NA,NA,NA,NA,sub60
d3-instructions,16,107481,0.0-16.0,FALSE,TRUE,FALSE,FALSE,"""event"",""trial"",""time""
""fullscreenenter"",""5"",""15667""
","
","
","""event"",""trial"",""time""
""fullscreenenter"",""5"",""15667""
","
",NA,NA,NA,NA,NA,NA,NA,NA,NA,NA,NA,NA,NA,NA,NA,NA,NA,NA,NA,NA,NA,NA,sub60
d3-instructions,17,113335,0.0-17.0,FALSE,TRUE,FALSE,FALSE,"""event"",""trial"",""time""
""fullscreenenter"",""5"",""15667""
","
","
","""event"",""trial"",""time""
""fullscreenenter"",""5"",""15667""
","
",NA,NA,NA,NA,NA,NA,NA,NA,NA,NA,NA,NA,NA,NA,NA,NA,NA,NA,NA,NA,NA,NA,sub60
d3-instructions,18,123506,0.0-18.0,FALSE,TRUE,FALSE,FALSE,"""event"",""trial"",""time""
""fullscreenenter"",""5"",""15667""
","
","
","""event"",""trial"",""time""
""fullscreenenter"",""5"",""15667""
","
",NA,NA,NA,NA,NA,NA,NA,NA,NA,NA,NA,NA,NA,NA,NA,NA,NA,NA,NA,NA,NA,NA,sub60
d3-instructions,19,137662,0.0-19.0,FALSE,TRUE,FALSE,FALSE,"""event"",""trial"",""time""
""fullscreenenter"",""5"",""15667""
","
","
","""event"",""trial"",""time""
""fullscreenenter"",""5"",""15667""
","
",NA,NA,NA,NA,NA,NA,NA,NA,NA,NA,NA,NA,NA,NA,NA,NA,NA,NA,NA,NA,NA,NA,sub60
d3-animate-choice,20,140473,0.0-20.0,FALSE,TRUE,FALSE,FALSE,"""event"",""trial"",""time""
""fullscreenenter"",""5"",""15667""
","
","
","""event"",""trial"",""time""
""fullscreenenter"",""5"",""15667""
","
",805.6450000003679,NA,49,NA,NA,3000,1,1392.840000000433,49,images/tutyellowplanet.jpg,null,images/tutalien3,null,images/tutalien3,images/t.png,NA,practice,null,NA,NA,NA,NA,sub60
d3-animate-choice,21,142981,0.0-21.0,FALSE,TRUE,FALSE,FALSE,"""event"",""trial"",""time""
""fullscreenenter"",""5"",""15667""
","
","
","""event"",""trial"",""time""
""fullscreenenter"",""5"",""15667""
","
",500.67000000126427,NA,49,NA,NA,3000,1,NA,NA,images/tutyellowplanet.jpg,null,images/tutalien3,null,images/tutalien3,images/t.png,NA,practice,null,NA,NA,NA,NA,sub60
d3-animate-choice,22,145332,0.0-22.0,FALSE,TRUE,FALSE,FALSE,"""event"",""trial"",""time""
""fullscreenenter"",""5"",""15667""
","
","
","""event"",""trial"",""time""
""fullscreenenter"",""5"",""15667""
","
",344.0599999994447,NA,49,NA,NA,3000,1,NA,NA,images/tutyellowplanet.jpg,null,images/tutalien3,null,images/tutalien3,images/t.png,NA,practice,null,NA,NA,NA,NA,sub60
d3-animate-choice,23,147549,0.0-23.0,FALSE,TRUE,FALSE,FALSE,"""event"",""trial"",""time""
""fullscreenenter"",""5"",""15667""
","
","
","""event"",""trial"",""time""
""fullscreenenter"",""5"",""15667""
","
",212.52500000264263,NA,49,NA,NA,3000,1,NA,NA,images/tutyellowplanet.jpg,null,images/tutalien3,null,images/tutalien3,images/t.png,NA,practice,null,NA,NA,NA,NA,sub60
d3-animate-choice,24,149790,0.0-24.0,FALSE,TRUE,FALSE,FALSE,"""event"",""trial"",""time""
""fullscreenenter"",""5"",""15667""
","
","
","""event"",""trial"",""time""
""fullscreenenter"",""5"",""15667""
","
",235.73000000033062,NA,49,NA,NA,3000,1,NA,NA,images/tutyellowplanet.jpg,null,images/tutalien3,null,images/tutalien3,images/t.png,NA,practice,null,NA,NA,NA,NA,sub60
d3-animate-choice,25,152048,0.0-25.0,FALSE,TRUE,FALSE,FALSE,"""event"",""trial"",""time""
""fullscreenenter"",""5"",""15667""
","
","
","""event"",""trial"",""time""
""fullscreenenter"",""5"",""15667""
","
",251.3249999974505,NA,49,NA,NA,3000,1,NA,NA,images/tutyellowplanet.jpg,null,images/tutalien3,null,images/tutalien3,images/t.png,NA,practice,null,NA,NA,NA,NA,sub60
d3-animate-choice,26,154160,0.0-26.0,FALSE,TRUE,FALSE,FALSE,"""event"",""trial"",""time""
""fullscreenenter"",""5"",""15667""
","
","
","""event"",""trial"",""time""
""fullscreenenter"",""5"",""15667""
","
",107.68499999903725,NA,49,NA,NA,3000,1,NA,NA,images/tutyellowplanet.jpg,null,images/tutalien3,null,images/tutalien3,images/nothing.png,NA,practice,null,NA,NA,NA,NA,sub60
d3-animate-choice,27,156443,0.0-27.0,FALSE,TRUE,FALSE,FALSE,"""event"",""trial"",""time""
""fullscreenenter"",""5"",""15667""
","
","
","""event"",""trial"",""time""
""fullscreenenter"",""5"",""15667""
","
",278.41500000067754,NA,49,NA,NA,3000,1,NA,NA,images/tutyellowplanet.jpg,null,images/tutalien3,null,images/tutalien3,images/t.png,NA,practice,null,NA,NA,NA,NA,sub60
d3-animate-choice,28,158625,0.0-28.0,FALSE,TRUE,FALSE,FALSE,"""event"",""trial"",""time""
""fullscreenenter"",""5"",""15667""
","
","
","""event"",""trial"",""time""
""fullscreenenter"",""5"",""15667""
","
",175.3099999987171,NA,49,NA,NA,3000,1,NA,NA,images/tutyellowplanet.jpg,null,images/tutalien3,null,images/tutalien3,images/t.png,NA,practice,null,NA,NA,NA,NA,sub60
d3-animate-choice,29,161098,0.0-29.0,FALSE,TRUE,FALSE,FALSE,"""event"",""trial"",""time""
""fullscreenenter"",""5"",""15667""
","
","
","""event"",""trial"",""time""
""fullscreenenter"",""5"",""15667""
","
",470.40500000002794,NA,49,NA,NA,3000,1,NA,NA,images/tutyellowplanet.jpg,null,images/tutalien3,null,images/tutalien3,images/t.png,NA,practice,null,NA,NA,NA,NA,sub60
d3-instructions,30,167393,0.0-30.0,FALSE,TRUE,FALSE,FALSE,"""event"",""trial"",""time""
""fullscreenenter"",""5"",""15667""
","
","
","""event"",""trial"",""time""
""fullscreenenter"",""5"",""15667""
","
",NA,NA,NA,NA,NA,NA,NA,NA,NA,NA,NA,NA,NA,NA,NA,NA,NA,NA,NA,NA,NA,NA,sub60
d3-instructions,31,175781,0.0-31.0,FALSE,TRUE,FALSE,FALSE,"""event"",""trial"",""time""
""fullscreenenter"",""5"",""15667""
","
","
","""event"",""trial"",""time""
""fullscreenenter"",""5"",""15667""
","
",NA,NA,NA,NA,NA,NA,NA,NA,NA,NA,NA,NA,NA,NA,NA,NA,NA,NA,NA,NA,NA,NA,sub60
d3-instructions,32,187121,0.0-32.0,FALSE,TRUE,FALSE,FALSE,"""event"",""trial"",""time""
""fullscreenenter"",""5"",""15667""
","
","
","""event"",""trial"",""time""
""fullscreenenter"",""5"",""15667""
","
",NA,NA,NA,NA,NA,NA,NA,NA,NA,NA,NA,NA,NA,NA,NA,NA,NA,NA,NA,NA,NA,NA,sub60
d3-instructions,33,190990,0.0-33.0,FALSE,TRUE,FALSE,FALSE,"""event"",""trial"",""time""
""fullscreenenter"",""5"",""15667""
","
","
","""event"",""trial"",""time""
""fullscreenenter"",""5"",""15667""
","
",NA,NA,NA,NA,NA,NA,NA,NA,NA,NA,NA,NA,NA,NA,NA,NA,NA,NA,NA,NA,NA,NA,sub60
d3-animate-choice,34,194588,0.0-34.0,FALSE,TRUE,FALSE,FALSE,"""event"",""trial"",""time""
""fullscreenenter"",""5"",""15667""
","
","
","""event"",""trial"",""time""
""fullscreenenter"",""5"",""15667""
","
",1594.9999999975262,NA,48,NA,NA,3000,1,NA,NA,images/tutgreenplanet.jpg,images/tutalien1,images/tutalien2,null,images/tutalien1,images/nothing.png,NA,practice,null,NA,NA,NA,NA,sub60
d3-animate-choice,35,197038,0.0-35.0,FALSE,TRUE,FALSE,FALSE,"""event"",""trial"",""time""
""fullscreenenter"",""5"",""15667""
","
","
","""event"",""trial"",""time""
""fullscreenenter"",""5"",""15667""
","
",444.6550000029674,NA,49,NA,NA,3000,1,NA,NA,images/tutgreenplanet.jpg,images/tutalien1,images/tutalien2,null,images/tutalien2,images/t.png,NA,practice,null,NA,NA,NA,NA,sub60
d3-animate-choice,36,199273,0.0-36.0,FALSE,TRUE,FALSE,FALSE,"""event"",""trial"",""time""
""fullscreenenter"",""5"",""15667""
","
","
","""event"",""trial"",""time""
""fullscreenenter"",""5"",""15667""
","
",232.06000000209315,NA,49,NA,NA,3000,1,1875.6649999995716,49,images/tutgreenplanet.jpg,images/tutalien1,images/tutalien2,null,images/tutalien2,images/t.png,NA,practice,null,NA,NA,NA,NA,sub60
d3-animate-choice,37,201694,0.0-37.0,FALSE,TRUE,FALSE,FALSE,"""event"",""trial"",""time""
""fullscreenenter"",""5"",""15667""
","
","
","""event"",""trial"",""time""
""fullscreenenter"",""5"",""15667""
","
",415.6349999975646,NA,49,NA,NA,3000,1,2038.7999999984459,49,images/tutgreenplanet.jpg,images/tutalien1,images/tutalien2,null,images/tutalien2,images/t.png,NA,practice,null,NA,NA,NA,NA,sub60
d3-animate-choice,38,203783,0.0-38.0,FALSE,TRUE,FALSE,FALSE,"""event"",""trial"",""time""
""fullscreenenter"",""5"",""15667""
","
","
","""event"",""trial"",""time""
""fullscreenenter"",""5"",""15667""
","
",83.91499999925145,NA,49,NA,NA,3000,1,NA,NA,images/tutgreenplanet.jpg,images/tutalien1,images/tutalien2,null,images/tutalien2,images/t.png,NA,practice,null,NA,NA,NA,NA,sub60
d3-animate-choice,39,206065,0.0-39.0,FALSE,TRUE,FALSE,FALSE,"""event"",""trial"",""time""
""fullscreenenter"",""5"",""15667""
","
","
","""event"",""trial"",""time""
""fullscreenenter"",""5"",""15667""
","
",279.11000000312924,NA,49,NA,NA,3000,1,1824.5800000004238,49,images/tutgreenplanet.jpg,images/tutalien1,images/tutalien2,null,images/tutalien2,images/t.png,NA,practice,null,NA,NA,NA,NA,sub60
d3-animate-choice,40,208329,0.0-40.0,FALSE,TRUE,FALSE,FALSE,"""event"",""trial"",""time""
""fullscreenenter"",""5"",""15667""
","
","
","""event"",""trial"",""time""
""fullscreenenter"",""5"",""15667""
","
",260.23999999961234,NA,49,NA,NA,3000,1,1996.804999998858,49,images/tutgreenplanet.jpg,images/tutalien1,images/tutalien2,null,images/tutalien2,images/t.png,NA,practice,null,NA,NA,NA,NA,sub60
d3-animate-choice,41,210494,0.0-41.0,FALSE,TRUE,FALSE,FALSE,"""event"",""trial"",""time""
""fullscreenenter"",""5"",""15667""
","
","
","""event"",""trial"",""time""
""fullscreenenter"",""5"",""15667""
","
",161.86999999990803,NA,49,NA,NA,3000,1,NA,NA,images/tutgreenplanet.jpg,images/tutalien1,images/tutalien2,null,images/tutalien2,images/t.png,NA,practice,null,NA,NA,NA,NA,sub60
d3-animate-choice,42,212543,0.0-42.0,FALSE,TRUE,FALSE,FALSE,"""event"",""trial"",""time""
""fullscreenenter"",""5"",""15667""
","
","
","""event"",""trial"",""time""
""fullscreenenter"",""5"",""15667""
","
",45.07999999987078,NA,49,NA,NA,3000,1,NA,NA,images/tutgreenplanet.jpg,images/tutalien1,images/tutalien2,null,images/tutalien2,images/t.png,NA,practice,null,NA,NA,NA,NA,sub60
d3-animate-choice,43,214738,0.0-43.0,FALSE,TRUE,FALSE,FALSE,"""event"",""trial"",""time""
""fullscreenenter"",""5"",""15667""
","
","
","""event"",""trial"",""time""
""fullscreenenter"",""5"",""15667""
","
",190.93500000235508,NA,49,NA,NA,3000,1,NA,NA,images/tutgreenplanet.jpg,images/tutalien1,images/tutalien2,null,images/tutalien2,images/t.png,NA,practice,null,NA,NA,NA,NA,sub60
d3-instructions,44,223041,0.0-44.0,FALSE,TRUE,FALSE,FALSE,"""event"",""trial"",""time""
""fullscreenenter"",""5"",""15667""
","
","
","""event"",""trial"",""time""
""fullscreenenter"",""5"",""15667""
","
",NA,NA,NA,NA,NA,NA,NA,NA,NA,NA,NA,NA,NA,NA,NA,NA,NA,NA,NA,NA,NA,NA,sub60
d3-instructions,45,229937,0.0-45.0,FALSE,TRUE,FALSE,FALSE,"""event"",""trial"",""time""
""fullscreenenter"",""5"",""15667""
","
","
","""event"",""trial"",""time""
""fullscreenenter"",""5"",""15667""
","
",NA,NA,NA,NA,NA,NA,NA,NA,NA,NA,NA,NA,NA,NA,NA,NA,NA,NA,NA,NA,NA,NA,sub60
d3-instructions,46,234340,0.0-46.0,FALSE,TRUE,FALSE,FALSE,"""event"",""trial"",""time""
""fullscreenenter"",""5"",""15667""
","
","
","""event"",""trial"",""time""
""fullscreenenter"",""5"",""15667""
","
",NA,NA,NA,NA,NA,NA,NA,NA,NA,NA,NA,NA,NA,NA,NA,NA,NA,NA,NA,NA,NA,NA,sub60
d3-instructions,47,259434,0.0-47.0,FALSE,TRUE,FALSE,FALSE,"""event"",""trial"",""time""
""fullscreenenter"",""5"",""15667""
","
","
","""event"",""trial"",""time""
""fullscreenenter"",""5"",""15667""
","
",NA,NA,NA,NA,NA,NA,NA,NA,NA,NA,NA,NA,NA,NA,NA,NA,NA,NA,NA,NA,NA,NA,sub60
d3-instructions,48,266225,0.0-48.0,FALSE,TRUE,FALSE,FALSE,"""event"",""trial"",""time""
""fullscreenenter"",""5"",""15667""
","
","
","""event"",""trial"",""time""
""fullscreenenter"",""5"",""15667""
","
",NA,NA,NA,NA,NA,NA,NA,NA,NA,NA,NA,NA,NA,NA,NA,NA,NA,NA,NA,NA,NA,NA,sub60
d3-instructions,49,276442,0.0-49.0,FALSE,TRUE,FALSE,FALSE,"""event"",""trial"",""time""
""fullscreenenter"",""5"",""15667""
","
","
","""event"",""trial"",""time""
""fullscreenenter"",""5"",""15667""
","
",NA,NA,NA,NA,NA,NA,NA,NA,NA,NA,NA,NA,NA,NA,NA,NA,NA,NA,NA,NA,NA,NA,sub60
d3-instructions,50,283588,0.0-50.0,FALSE,TRUE,FALSE,FALSE,"""event"",""trial"",""time""
""fullscreenenter"",""5"",""15667""
","
","
","""event"",""trial"",""time""
""fullscreenenter"",""5"",""15667""
","
",NA,NA,NA,NA,NA,NA,NA,NA,NA,NA,NA,NA,NA,NA,NA,NA,NA,NA,NA,NA,NA,NA,sub60
d3-instructions,51,285661,0.0-51.0,FALSE,TRUE,FALSE,FALSE,"""event"",""trial"",""time""
""fullscreenenter"",""5"",""15667""
","
","
","""event"",""trial"",""time""
""fullscreenenter"",""5"",""15667""
","
",NA,NA,NA,NA,NA,NA,NA,NA,NA,NA,NA,NA,NA,NA,NA,NA,NA,NA,NA,NA,NA,NA,sub60
d3-instructions,52,289956,0.0-52.0,FALSE,TRUE,FALSE,FALSE,"""event"",""trial"",""time""
""fullscreenenter"",""5"",""15667""
","
","
","""event"",""trial"",""time""
""fullscreenenter"",""5"",""15667""
","
",NA,NA,NA,NA,NA,NA,NA,NA,NA,NA,NA,NA,NA,NA,NA,NA,NA,NA,NA,NA,NA,NA,sub60
d3-instructions,53,307640,0.0-53.0,FALSE,TRUE,FALSE,FALSE,"""event"",""trial"",""time""
""fullscreenenter"",""5"",""15667""
","
","
","""event"",""trial"",""time""
""fullscreenenter"",""5"",""15667""
","
",NA,NA,NA,NA,NA,NA,NA,NA,NA,NA,NA,NA,NA,NA,NA,NA,NA,NA,NA,NA,NA,NA,sub60
d3-instructions,54,323726,0.0-54.0,FALSE,TRUE,FALSE,FALSE,"""event"",""trial"",""time""
""fullscreenenter"",""5"",""15667""
","
","
","""event"",""trial"",""time""
""fullscreenenter"",""5"",""15667""
","
",NA,NA,NA,NA,NA,NA,NA,NA,NA,NA,NA,NA,NA,NA,NA,NA,NA,NA,NA,NA,NA,NA,sub60
d3-instructions,55,331116,0.0-55.0,FALSE,TRUE,FALSE,FALSE,"""event"",""trial"",""time""
""fullscreenenter"",""5"",""15667""
","
","
","""event"",""trial"",""time""
""fullscreenenter"",""5"",""15667""
","
",NA,NA,NA,NA,NA,NA,NA,NA,NA,NA,NA,NA,NA,NA,NA,NA,NA,NA,NA,NA,NA,NA,sub60
d3-instructions,56,339164,0.0-56.0,FALSE,TRUE,FALSE,FALSE,"""event"",""trial"",""time""
""fullscreenenter"",""5"",""15667""
","
","
","""event"",""trial"",""time""
""fullscreenenter"",""5"",""15667""
","
",NA,NA,NA,NA,NA,NA,NA,NA,NA,NA,NA,NA,NA,NA,NA,NA,NA,NA,NA,NA,NA,NA,sub60
d3-instructions,57,349854,0.0-57.0,FALSE,TRUE,FALSE,FALSE,"""event"",""trial"",""time""
""fullscreenenter"",""5"",""15667""
","
","
","""event"",""trial"",""time""
""fullscreenenter"",""5"",""15667""
","
",NA,NA,NA,NA,NA,NA,NA,NA,NA,NA,NA,NA,NA,NA,NA,NA,NA,NA,NA,NA,NA,NA,sub60
d3-instructions,58,361509,0.0-58.0,FALSE,TRUE,FALSE,FALSE,"""event"",""trial"",""time""
""fullscreenenter"",""5"",""15667""
","
","
","""event"",""trial"",""time""
""fullscreenenter"",""5"",""15667""
","
",NA,NA,NA,NA,NA,NA,NA,NA,NA,NA,NA,NA,NA,NA,NA,NA,NA,NA,NA,NA,NA,NA,sub60
d3-instructions,59,367309,0.0-59.0,FALSE,TRUE,FALSE,FALSE,"""event"",""trial"",""time""
""fullscreenenter"",""5"",""15667""
","
","
","""event"",""trial"",""time""
""fullscreenenter"",""5"",""15667""
","
",NA,NA,NA,NA,NA,NA,NA,NA,NA,NA,NA,NA,NA,NA,NA,NA,NA,NA,NA,NA,NA,NA,sub60
d3-instructions,60,370450,0.0-60.0,FALSE,TRUE,FALSE,FALSE,"""event"",""trial"",""time""
""fullscreenenter"",""5"",""15667""
","
","
","""event"",""trial"",""time""
""fullscreenenter"",""5"",""15667""
","
",NA,NA,NA,NA,NA,NA,NA,NA,NA,NA,NA,NA,NA,NA,NA,NA,NA,NA,NA,NA,NA,NA,sub60
d3-animate-choice,61,373810,0.0-61.0-0.0,FALSE,TRUE,FALSE,FALSE,"""event"",""trial"",""time""
""fullscreenenter"",""5"",""15667""
","
","
","""event"",""trial"",""time""
""fullscreenenter"",""5"",""15667""
","
",1356.2850000016624,NA,49,NA,NA,3000,1,NA,NA,images/earth.jpg,images/tutrocket2,images/tutrocket1,null,images/tutrocket1,NA,1,practice,null,1,NA,NA,NA,sub60
d3-animate-choice,62,377193,0.0-61.0-1.0,FALSE,TRUE,FALSE,FALSE,"""event"",""trial"",""time""
""fullscreenenter"",""5"",""15667""
","
","
","""event"",""trial"",""time""
""fullscreenenter"",""5"",""15667""
","
",1378.290000000503,NA,48,NA,NA,3000,1,NA,NA,images/tutgreenplanet.jpg,images/tutalien2,images/tutalien1,images/tutrocket1,images/tutalien2,images/nothing.png,2,practice,true,2,common,0,2020-06-13T16:21:25Z,sub60
two-step-fixation,63,378197,0.0-61.0-2.0,FALSE,TRUE,FALSE,FALSE,"""event"",""trial"",""time""
""fullscreenenter"",""5"",""15667""
","
","
","""event"",""trial"",""time""
""fullscreenenter"",""5"",""15667""
","
",NA,images/earth.jpg,NA,NA,NA,NA,NA,NA,NA,NA,NA,NA,NA,NA,NA,fixation,NA,NA,NA,NA,NA,NA,sub60
d3-animate-choice,64,381715,0.0-61.0-0.1,FALSE,TRUE,FALSE,FALSE,"""event"",""trial"",""time""
""fullscreenenter"",""5"",""15667""
","
","
","""event"",""trial"",""time""
""fullscreenenter"",""5"",""15667""
","
",1514.709999999497,NA,49,NA,NA,3000,1,NA,NA,images/earth.jpg,images/tutrocket2,images/tutrocket1,null,images/tutrocket1,NA,1,practice,null,1,NA,NA,NA,sub60
d3-animate-choice,65,384311,0.0-61.0-1.1,FALSE,TRUE,FALSE,FALSE,"""event"",""trial"",""time""
""fullscreenenter"",""5"",""15667""
","
","
","""event"",""trial"",""time""
""fullscreenenter"",""5"",""15667""
","
",590.4000000009546,NA,49,NA,NA,3000,1,NA,NA,images/tutgreenplanet.jpg,images/tutalien2,images/tutalien1,images/tutrocket1,images/tutalien1,images/nothing.png,2,practice,true,1,common,0,2020-06-13T16:21:33Z,sub60
two-step-fixation,66,385315,0.0-61.0-2.1,FALSE,TRUE,FALSE,FALSE,"""event"",""trial"",""time""
""fullscreenenter"",""5"",""15667""
","
","
","""event"",""trial"",""time""
""fullscreenenter"",""5"",""15667""
","
",NA,images/earth.jpg,NA,NA,NA,NA,NA,NA,NA,NA,NA,NA,NA,NA,NA,fixation,NA,NA,NA,NA,NA,NA,sub60
d3-animate-choice,67,388570,0.0-61.0-0.2,FALSE,TRUE,FALSE,FALSE,"""event"",""trial"",""time""
""fullscreenenter"",""5"",""15667""
","
","
","""event"",""trial"",""time""
""fullscreenenter"",""5"",""15667""
","
",1252.3099999998813,NA,48,NA,NA,3000,1,NA,NA,images/earth.jpg,images/tutrocket2,images/tutrocket1,null,images/tutrocket2,NA,1,practice,null,2,NA,NA,NA,sub60
d3-animate-choice,68,391538,0.0-61.0-1.2,FALSE,TRUE,FALSE,FALSE,"""event"",""trial"",""time""
""fullscreenenter"",""5"",""15667""
","
","
","""event"",""trial"",""time""
""fullscreenenter"",""5"",""15667""
","
",960.960000000312,NA,49,NA,NA,3000,1,NA,NA,images/tutgreenplanet.jpg,images/tutalien2,images/tutalien1,images/tutrocket2,images/tutalien1,images/nothing.png,2,practice,false,1,rare,0,2020-06-13T16:21:40Z,sub60
two-step-fixation,69,392543,0.0-61.0-2.2,FALSE,TRUE,FALSE,FALSE,"""event"",""trial"",""time""
""fullscreenenter"",""5"",""15667""
","
","
","""event"",""trial"",""time""
""fullscreenenter"",""5"",""15667""
","
",NA,images/earth.jpg,NA,NA,NA,NA,NA,NA,NA,NA,NA,NA,NA,NA,NA,fixation,NA,NA,NA,NA,NA,NA,sub60
d3-animate-choice,70,395238,0.0-61.0-0.3,FALSE,TRUE,FALSE,FALSE,"""event"",""trial"",""time""
""fullscreenenter"",""5"",""15667""
","
","
","""event"",""trial"",""time""
""fullscreenenter"",""5"",""15667""
","
",692.6700000003912,NA,48,NA,NA,3000,1,NA,NA,images/earth.jpg,images/tutrocket2,images/tutrocket1,null,images/tutrocket2,NA,1,practice,null,2,NA,NA,NA,sub60
d3-animate-choice,71,398325,0.0-61.0-1.3,FALSE,TRUE,FALSE,FALSE,"""event"",""trial"",""time""
""fullscreenenter"",""5"",""15667""
","
","
","""event"",""trial"",""time""
""fullscreenenter"",""5"",""15667""
","
",1078.9699999986333,NA,49,NA,NA,3000,1,NA,NA,images/tutyellowplanet.jpg,images/tutalien4,images/tutalien3,images/tutrocket2,images/tutalien3,images/nothing.png,2,practice,true,1,common,0,2020-06-13T16:21:47Z,sub60
two-step-fixation,72,399329,0.0-61.0-2.3,FALSE,TRUE,FALSE,FALSE,"""event"",""trial"",""time""
""fullscreenenter"",""5"",""15667""
","
","
","""event"",""trial"",""time""
""fullscreenenter"",""5"",""15667""
","
",NA,images/earth.jpg,NA,NA,NA,NA,NA,NA,NA,NA,NA,NA,NA,NA,NA,fixation,NA,NA,NA,NA,NA,NA,sub60
d3-animate-choice,73,401697,0.0-61.0-0.4,FALSE,TRUE,FALSE,FALSE,"""event"",""trial"",""time""
""fullscreenenter"",""5"",""15667""
","
","
","""event"",""trial"",""time""
""fullscreenenter"",""5"",""15667""
","
",364.079999999376,NA,48,NA,NA,3000,1,NA,NA,images/earth.jpg,images/tutrocket2,images/tutrocket1,null,images/tutrocket2,NA,1,practice,null,2,NA,NA,NA,sub60
d3-animate-choice,74,404079,0.0-61.0-1.4,FALSE,TRUE,FALSE,FALSE,"""event"",""trial"",""time""
""fullscreenenter"",""5"",""15667""
","
","
","""event"",""trial"",""time""
""fullscreenenter"",""5"",""15667""
","
",376.43000000022585,NA,48,NA,NA,3000,1,NA,NA,images/tutgreenplanet.jpg,images/tutalien2,images/tutalien1,images/tutrocket2,images/tutalien2,images/nothing.png,2,practice,false,2,rare,0,2020-06-13T16:21:52Z,sub60
two-step-fixation,75,405084,0.0-61.0-2.4,FALSE,TRUE,FALSE,FALSE,"""event"",""trial"",""time""
""fullscreenenter"",""5"",""15667""
","
","
","""event"",""trial"",""time""
""fullscreenenter"",""5"",""15667""
","
",NA,images/earth.jpg,NA,NA,NA,NA,NA,NA,NA,NA,NA,NA,NA,NA,NA,fixation,NA,NA,NA,NA,NA,NA,sub60
d3-animate-choice,76,407417,0.0-61.0-0.5,FALSE,TRUE,FALSE,FALSE,"""event"",""trial"",""time""
""fullscreenenter"",""5"",""15667""
","
","
","""event"",""trial"",""time""
""fullscreenenter"",""5"",""15667""
","
",330.31499999924563,NA,48,NA,NA,3000,1,494.35000000084983,48,images/earth.jpg,images/tutrocket2,images/tutrocket1,null,images/tutrocket2,NA,1,practice,null,2,NA,NA,NA,sub60
d3-animate-choice,77,409820,0.0-61.0-1.5,FALSE,TRUE,FALSE,FALSE,"""event"",""trial"",""time""
""fullscreenenter"",""5"",""15667""
","
","
","""event"",""trial"",""time""
""fullscreenenter"",""5"",""15667""
","
",396.50500000058673,NA,48,NA,NA,3000,1,NA,NA,images/tutyellowplanet.jpg,images/tutalien4,images/tutalien3,images/tutrocket2,images/tutalien4,images/t.png,2,practice,true,2,common,1,2020-06-13T16:21:58Z,sub60
two-step-fixation,78,410828,0.0-61.0-2.5,FALSE,TRUE,FALSE,FALSE,"""event"",""trial"",""time""
""fullscreenenter"",""5"",""15667""
","
","
","""event"",""trial"",""time""
""fullscreenenter"",""5"",""15667""
","
",NA,images/earth.jpg,NA,NA,NA,NA,NA,NA,NA,NA,NA,NA,NA,NA,NA,fixation,NA,NA,NA,NA,NA,NA,sub60
d3-animate-choice,79,413292,0.0-61.0-0.6,FALSE,TRUE,FALSE,FALSE,"""event"",""trial"",""time""
""fullscreenenter"",""5"",""15667""
","
","
","""event"",""trial"",""time""
""fullscreenenter"",""5"",""15667""
","
",457.9100000010221,NA,48,NA,NA,3000,1,NA,NA,images/earth.jpg,images/tutrocket2,images/tutrocket1,null,images/tutrocket2,NA,1,practice,null,2,NA,NA,NA,sub60
d3-animate-choice,80,415731,0.0-61.0-1.6,FALSE,TRUE,FALSE,FALSE,"""event"",""trial"",""time""
""fullscreenenter"",""5"",""15667""
","
","
","""event"",""trial"",""time""
""fullscreenenter"",""5"",""15667""
","
",435.53500000049826,NA,48,NA,NA,3000,1,NA,NA,images/tutgreenplanet.jpg,images/tutalien2,images/tutalien1,images/tutrocket2,images/tutalien2,images/nothing.png,2,practice,false,2,rare,0,2020-06-13T16:22:04Z,sub60
two-step-fixation,81,416734,0.0-61.0-2.6,FALSE,TRUE,FALSE,FALSE,"""event"",""trial"",""time""
""fullscreenenter"",""5"",""15667""
","
","
","""event"",""trial"",""time""
""fullscreenenter"",""5"",""15667""
","
",NA,images/earth.jpg,NA,NA,NA,NA,NA,NA,NA,NA,NA,NA,NA,NA,NA,fixation,NA,NA,NA,NA,NA,NA,sub60
d3-animate-choice,82,419126,0.0-61.0-0.7,FALSE,TRUE,FALSE,FALSE,"""event"",""trial"",""time""
""fullscreenenter"",""5"",""15667""
","
","
","""event"",""trial"",""time""
""fullscreenenter"",""5"",""15667""
","
",388.7200000026496,NA,49,NA,NA,3000,1,NA,NA,images/earth.jpg,images/tutrocket2,images/tutrocket1,null,images/tutrocket1,NA,1,practice,null,1,NA,NA,NA,sub60
d3-animate-choice,83,421541,0.0-61.0-1.7,FALSE,TRUE,FALSE,FALSE,"""event"",""trial"",""time""
""fullscreenenter"",""5"",""15667""
","
","
","""event"",""trial"",""time""
""fullscreenenter"",""5"",""15667""
","
",407.9600000004284,NA,48,NA,NA,3000,1,612.3850000003586,48,images/tutgreenplanet.jpg,images/tutalien2,images/tutalien1,images/tutrocket1,images/tutalien2,images/t.png,2,practice,true,2,common,1,2020-06-13T16:22:10Z,sub60
two-step-fixation,84,422549,0.0-61.0-2.7,FALSE,TRUE,FALSE,FALSE,"""event"",""trial"",""time""
""fullscreenenter"",""5"",""15667""
","
","
","""event"",""trial"",""time""
""fullscreenenter"",""5"",""15667""
","
",NA,images/earth.jpg,NA,NA,NA,NA,NA,NA,NA,NA,NA,NA,NA,NA,NA,fixation,NA,NA,NA,NA,NA,NA,sub60
d3-animate-choice,85,424843,0.0-61.0-0.8,FALSE,TRUE,FALSE,FALSE,"""event"",""trial"",""time""
""fullscreenenter"",""5"",""15667""
","
","
","""event"",""trial"",""time""
""fullscreenenter"",""5"",""15667""
","
",285.57500000169966,NA,49,NA,NA,3000,1,NA,NA,images/earth.jpg,images/tutrocket2,images/tutrocket1,null,images/tutrocket1,NA,1,practice,null,1,NA,NA,NA,sub60
d3-animate-choice,86,427239,0.0-61.0-1.8,FALSE,TRUE,FALSE,FALSE,"""event"",""trial"",""time""
""fullscreenenter"",""5"",""15667""
","
","
","""event"",""trial"",""time""
""fullscreenenter"",""5"",""15667""
","
",391.7600000022794,NA,48,NA,NA,3000,1,NA,NA,images/tutgreenplanet.jpg,images/tutalien2,images/tutalien1,images/tutrocket1,images/tutalien2,images/nothing.png,2,practice,true,2,common,0,2020-06-13T16:22:16Z,sub60
two-step-fixation,87,428243,0.0-61.0-2.8,FALSE,TRUE,FALSE,FALSE,"""event"",""trial"",""time""
""fullscreenenter"",""5"",""15667""
","
","
","""event"",""trial"",""time""
""fullscreenenter"",""5"",""15667""
","
",NA,images/earth.jpg,NA,NA,NA,NA,NA,NA,NA,NA,NA,NA,NA,NA,NA,fixation,NA,NA,NA,NA,NA,NA,sub60
d3-animate-choice,88,430893,0.0-61.0-0.9,FALSE,TRUE,FALSE,FALSE,"""event"",""trial"",""time""
""fullscreenenter"",""5"",""15667""
","
","
","""event"",""trial"",""time""
""fullscreenenter"",""5"",""15667""
","
",645.7850000006147,NA,49,NA,NA,3000,1,NA,NA,images/earth.jpg,images/tutrocket2,images/tutrocket1,null,images/tutrocket1,NA,1,practice,null,1,NA,NA,NA,sub60
d3-animate-choice,89,433316,0.0-61.0-1.9,FALSE,TRUE,FALSE,FALSE,"""event"",""trial"",""time""
""fullscreenenter"",""5"",""15667""
","
","
","""event"",""trial"",""time""
""fullscreenenter"",""5"",""15667""
","
",417.3899999987334,NA,48,NA,NA,3000,1,NA,NA,images/tutgreenplanet.jpg,images/tutalien2,images/tutalien1,images/tutrocket1,images/tutalien2,images/nothing.png,2,practice,true,2,common,0,2020-06-13T16:22:22Z,sub60
two-step-fixation,90,434321,0.0-61.0-2.9,FALSE,TRUE,FALSE,FALSE,"""event"",""trial"",""time""
""fullscreenenter"",""5"",""15667""
","
","
","""event"",""trial"",""time""
""fullscreenenter"",""5"",""15667""
","
",NA,images/earth.jpg,NA,NA,NA,NA,NA,NA,NA,NA,NA,NA,NA,NA,NA,fixation,NA,NA,NA,NA,NA,NA,sub60
d3-animate-choice,91,436471,0.0-61.0-0.10,FALSE,TRUE,FALSE,FALSE,"""event"",""trial"",""time""
""fullscreenenter"",""5"",""15667""
","
","
","""event"",""trial"",""time""
""fullscreenenter"",""5"",""15667""
","
",145.60500000155298,NA,49,NA,NA,3000,1,NA,NA,images/earth.jpg,images/tutrocket2,images/tutrocket1,null,images/tutrocket1,NA,1,practice,null,1,NA,NA,NA,sub60
d3-animate-choice,92,438863,0.0-61.0-1.10,FALSE,TRUE,FALSE,FALSE,"""event"",""trial"",""time""
""fullscreenenter"",""5"",""15667""
","
","
","""event"",""trial"",""time""
""fullscreenenter"",""5"",""15667""
","
",386.1850000030827,NA,49,NA,NA,3000,1,NA,NA,images/tutyellowplanet.jpg,images/tutalien4,images/tutalien3,images/tutrocket1,images/tutalien3,images/nothing.png,2,practice,false,1,rare,0,2020-06-13T16:22:27Z,sub60
two-step-fixation,93,439869,0.0-61.0-2.10,FALSE,TRUE,FALSE,FALSE,"""event"",""trial"",""time""
""fullscreenenter"",""5"",""15667""
","
","
","""event"",""trial"",""time""
""fullscreenenter"",""5"",""15667""
","
",NA,images/earth.jpg,NA,NA,NA,NA,NA,NA,NA,NA,NA,NA,NA,NA,NA,fixation,NA,NA,NA,NA,NA,NA,sub60
d3-animate-choice,94,441905,0.0-61.0-0.11,FALSE,TRUE,FALSE,FALSE,"""event"",""trial"",""time""
""fullscreenenter"",""5"",""15667""
","
","
","""event"",""trial"",""time""
""fullscreenenter"",""5"",""15667""
","
",32.165000000502914,NA,48,NA,NA,3000,1,NA,NA,images/earth.jpg,images/tutrocket2,images/tutrocket1,null,images/tutrocket2,NA,1,practice,null,2,NA,NA,NA,sub60
d3-animate-choice,95,444448,0.0-61.0-1.11,FALSE,TRUE,FALSE,FALSE,"""event"",""trial"",""time""
""fullscreenenter"",""5"",""15667""
","
","
","""event"",""trial"",""time""
""fullscreenenter"",""5"",""15667""
","
",537.5849999982165,NA,48,NA,NA,3000,1,NA,NA,images/tutyellowplanet.jpg,images/tutalien4,images/tutalien3,images/tutrocket2,images/tutalien4,images/t.png,2,practice,true,2,common,1,2020-06-13T16:22:33Z,sub60
two-step-fixation,96,445452,0.0-61.0-2.11,FALSE,TRUE,FALSE,FALSE,"""event"",""trial"",""time""
""fullscreenenter"",""5"",""15667""
","
","
","""event"",""trial"",""time""
""fullscreenenter"",""5"",""15667""
","
",NA,images/earth.jpg,NA,NA,NA,NA,NA,NA,NA,NA,NA,NA,NA,NA,NA,fixation,NA,NA,NA,NA,NA,NA,sub60
d3-animate-choice,97,447996,0.0-61.0-0.12,FALSE,TRUE,FALSE,FALSE,"""event"",""trial"",""time""
""fullscreenenter"",""5"",""15667""
","
","
","""event"",""trial"",""time""
""fullscreenenter"",""5"",""15667""
","
",539.890000000014,NA,48,NA,NA,3000,1,NA,NA,images/earth.jpg,images/tutrocket2,images/tutrocket1,null,images/tutrocket2,NA,1,practice,null,2,NA,NA,NA,sub60
d3-animate-choice,98,450375,0.0-61.0-1.12,FALSE,TRUE,FALSE,FALSE,"""event"",""trial"",""time""
""fullscreenenter"",""5"",""15667""
","
","
","""event"",""trial"",""time""
""fullscreenenter"",""5"",""15667""
","
",376.64500000025146,NA,49,NA,NA,3000,1,NA,NA,images/tutyellowplanet.jpg,images/tutalien4,images/tutalien3,images/tutrocket2,images/tutalien3,images/t.png,2,practice,true,1,common,1,2020-06-13T16:22:39Z,sub60
two-step-fixation,99,451379,0.0-61.0-2.12,FALSE,TRUE,FALSE,FALSE,"""event"",""trial"",""time""
""fullscreenenter"",""5"",""15667""
","
","
","""event"",""trial"",""time""
""fullscreenenter"",""5"",""15667""
","
",NA,images/earth.jpg,NA,NA,NA,NA,NA,NA,NA,NA,NA,NA,NA,NA,NA,fixation,NA,NA,NA,NA,NA,NA,sub60
d3-animate-choice,100,453664,0.0-61.0-0.13,FALSE,TRUE,FALSE,FALSE,"""event"",""trial"",""time""
""fullscreenenter"",""5"",""15667""
","
","
","""event"",""trial"",""time""
""fullscreenenter"",""5"",""15667""
","
",281.4650000000838,NA,49,NA,NA,3000,1,NA,NA,images/earth.jpg,images/tutrocket2,images/tutrocket1,null,images/tutrocket1,NA,1,practice,null,1,NA,NA,NA,sub60
d3-animate-choice,101,456182,0.0-61.0-1.13,FALSE,TRUE,FALSE,FALSE,"""event"",""trial"",""time""
""fullscreenenter"",""5"",""15667""
","
","
","""event"",""trial"",""time""
""fullscreenenter"",""5"",""15667""
","
",514.914999999688,NA,48,NA,NA,3000,1,NA,NA,images/tutgreenplanet.jpg,images/tutalien2,images/tutalien1,images/tutrocket1,images/tutalien2,images/t.png,2,practice,true,2,common,1,2020-06-13T16:22:44Z,sub60
two-step-fixation,102,457186,0.0-61.0-2.13,FALSE,TRUE,FALSE,FALSE,"""event"",""trial"",""time""
""fullscreenenter"",""5"",""15667""
","
","
","""event"",""trial"",""time""
""fullscreenenter"",""5"",""15667""
","
",NA,images/earth.jpg,NA,NA,NA,NA,NA,NA,NA,NA,NA,NA,NA,NA,NA,fixation,NA,NA,NA,NA,NA,NA,sub60
d3-animate-choice,103,459219,0.0-61.0-0.14,FALSE,TRUE,FALSE,FALSE,"""event"",""trial"",""time""
""fullscreenenter"",""5"",""15667""
","
","
","""event"",""trial"",""time""
""fullscreenenter"",""5"",""15667""
","
",28.70999999868218,NA,49,NA,NA,3000,1,NA,NA,images/earth.jpg,images/tutrocket2,images/tutrocket1,null,images/tutrocket1,NA,1,practice,null,1,NA,NA,NA,sub60
d3-animate-choice,104,461795,0.0-61.0-1.14,FALSE,TRUE,FALSE,FALSE,"""event"",""trial"",""time""
""fullscreenenter"",""5"",""15667""
","
","
","""event"",""trial"",""time""
""fullscreenenter"",""5"",""15667""
","
",572.3099999995902,NA,49,NA,NA,3000,1,NA,NA,images/tutgreenplanet.jpg,images/tutalien2,images/tutalien1,images/tutrocket1,images/tutalien1,images/nothing.png,2,practice,true,1,common,0,2020-06-13T16:22:50Z,sub60
two-step-fixation,105,462798,0.0-61.0-2.14,FALSE,TRUE,FALSE,FALSE,"""event"",""trial"",""time""
""fullscreenenter"",""5"",""15667""
","
","
","""event"",""trial"",""time""
""fullscreenenter"",""5"",""15667""
","
",NA,images/earth.jpg,NA,NA,NA,NA,NA,NA,NA,NA,NA,NA,NA,NA,NA,fixation,NA,NA,NA,NA,NA,NA,sub60
d3-animate-choice,106,465280,0.0-61.0-0.15,FALSE,TRUE,FALSE,FALSE,"""event"",""trial"",""time""
""fullscreenenter"",""5"",""15667""
","
","
","""event"",""trial"",""time""
""fullscreenenter"",""5"",""15667""
","
",478.6850000018021,NA,48,NA,NA,3000,1,NA,NA,images/earth.jpg,images/tutrocket2,images/tutrocket1,null,images/tutrocket2,NA,1,practice,null,2,NA,NA,NA,sub60
d3-animate-choice,107,467570,0.0-61.0-1.15,FALSE,TRUE,FALSE,FALSE,"""event"",""trial"",""time""
""fullscreenenter"",""5"",""15667""
","
","
","""event"",""trial"",""time""
""fullscreenenter"",""5"",""15667""
","
",287.2349999997532,NA,48,NA,NA,3000,1,NA,NA,images/tutyellowplanet.jpg,images/tutalien4,images/tutalien3,images/tutrocket2,images/tutalien4,images/nothing.png,2,practice,true,2,common,0,2020-06-13T16:22:56Z,sub60
two-step-fixation,108,468574,0.0-61.0-2.15,FALSE,TRUE,FALSE,FALSE,"""event"",""trial"",""time""
""fullscreenenter"",""5"",""15667""
","
","
","""event"",""trial"",""time""
""fullscreenenter"",""5"",""15667""
","
",NA,images/earth.jpg,NA,NA,NA,NA,NA,NA,NA,NA,NA,NA,NA,NA,NA,fixation,NA,NA,NA,NA,NA,NA,sub60
d3-animate-choice,109,470593,0.0-61.0-0.16,FALSE,TRUE,FALSE,FALSE,"""event"",""trial"",""time""
""fullscreenenter"",""5"",""15667""
","
","
","""event"",""trial"",""time""
""fullscreenenter"",""5"",""15667""
","
",15.015000000828877,NA,48,NA,NA,3000,1,NA,NA,images/earth.jpg,images/tutrocket2,images/tutrocket1,null,images/tutrocket2,NA,1,practice,null,2,NA,NA,NA,sub60
d3-animate-choice,110,473003,0.0-61.0-1.16,FALSE,TRUE,FALSE,FALSE,"""event"",""trial"",""time""
""fullscreenenter"",""5"",""15667""
","
","
","""event"",""trial"",""time""
""fullscreenenter"",""5"",""15667""
","
",405.74500000005355,NA,49,NA,NA,3000,1,NA,NA,images/tutyellowplanet.jpg,images/tutalien4,images/tutalien3,images/tutrocket2,images/tutalien3,images/nothing.png,2,practice,true,1,common,0,2020-06-13T16:23:01Z,sub60
two-step-fixation,111,474006,0.0-61.0-2.16,FALSE,TRUE,FALSE,FALSE,"""event"",""trial"",""time""
""fullscreenenter"",""5"",""15667""
","
","
","""event"",""trial"",""time""
""fullscreenenter"",""5"",""15667""
","
",NA,images/earth.jpg,NA,NA,NA,NA,NA,NA,NA,NA,NA,NA,NA,NA,NA,fixation,NA,NA,NA,NA,NA,NA,sub60
d3-animate-choice,112,476063,0.0-61.0-0.17,FALSE,TRUE,FALSE,FALSE,"""event"",""trial"",""time""
""fullscreenenter"",""5"",""15667""
","
","
","""event"",""trial"",""time""
""fullscreenenter"",""5"",""15667""
","
",50.94999999710126,NA,49,NA,NA,3000,1,NA,NA,images/earth.jpg,images/tutrocket2,images/tutrocket1,null,images/tutrocket1,NA,1,practice,null,1,NA,NA,NA,sub60
d3-animate-choice,113,478628,0.0-61.0-1.17,FALSE,TRUE,FALSE,FALSE,"""event"",""trial"",""time""
""fullscreenenter"",""5"",""15667""
","
","
","""event"",""trial"",""time""
""fullscreenenter"",""5"",""15667""
","
",559.9900000015041,NA,49,NA,NA,3000,1,NA,NA,images/tutgreenplanet.jpg,images/tutalien2,images/tutalien1,images/tutrocket1,images/tutalien1,images/t.png,2,practice,true,1,common,1,2020-06-13T16:23:07Z,sub60
two-step-fixation,114,479633,0.0-61.0-2.17,FALSE,TRUE,FALSE,FALSE,"""event"",""trial"",""time""
""fullscreenenter"",""5"",""15667""
","
","
","""event"",""trial"",""time""
""fullscreenenter"",""5"",""15667""
","
",NA,images/earth.jpg,NA,NA,NA,NA,NA,NA,NA,NA,NA,NA,NA,NA,NA,fixation,NA,NA,NA,NA,NA,NA,sub60
d3-animate-choice,115,481868,0.0-61.0-0.18,FALSE,TRUE,FALSE,FALSE,"""event"",""trial"",""time""
""fullscreenenter"",""5"",""15667""
","
","
","""event"",""trial"",""time""
""fullscreenenter"",""5"",""15667""
","
",232.07000000181142,NA,49,NA,NA,3000,1,2002.0650000005844,48,images/earth.jpg,images/tutrocket2,images/tutrocket1,null,images/tutrocket1,NA,1,practice,null,1,NA,NA,NA,sub60
d3-animate-choice,116,484171,0.0-61.0-1.18,FALSE,TRUE,FALSE,FALSE,"""event"",""trial"",""time""
""fullscreenenter"",""5"",""15667""
","
","
","""event"",""trial"",""time""
""fullscreenenter"",""5"",""15667""
","
",297.1449999968172,NA,48,NA,NA,3000,1,NA,NA,images/tutgreenplanet.jpg,images/tutalien2,images/tutalien1,images/tutrocket1,images/tutalien2,images/t.png,2,practice,true,2,common,1,2020-06-13T16:23:12Z,sub60
two-step-fixation,117,485177,0.0-61.0-2.18,FALSE,TRUE,FALSE,FALSE,"""event"",""trial"",""time""
""fullscreenenter"",""5"",""15667""
","
","
","""event"",""trial"",""time""
""fullscreenenter"",""5"",""15667""
","
",NA,images/earth.jpg,NA,NA,NA,NA,NA,NA,NA,NA,NA,NA,NA,NA,NA,fixation,NA,NA,NA,NA,NA,NA,sub60
d3-animate-choice,118,487579,0.0-61.0-0.19,FALSE,TRUE,FALSE,FALSE,"""event"",""trial"",""time""
""fullscreenenter"",""5"",""15667""
","
","
","""event"",""trial"",""time""
""fullscreenenter"",""5"",""15667""
","
",398.52500000048894,NA,48,NA,NA,3000,1,NA,NA,images/earth.jpg,images/tutrocket2,images/tutrocket1,null,images/tutrocket2,NA,1,practice,null,2,NA,NA,NA,sub60
d3-animate-choice,119,490227,0.0-61.0-1.19,FALSE,TRUE,FALSE,FALSE,"""event"",""trial"",""time""
""fullscreenenter"",""5"",""15667""
","
","
","""event"",""trial"",""time""
""fullscreenenter"",""5"",""15667""
","
",642.440000003262,NA,48,NA,NA,3000,1,NA,NA,images/tutyellowplanet.jpg,images/tutalien4,images/tutalien3,images/tutrocket2,images/tutalien4,images/nothing.png,2,practice,true,2,common,0,2020-06-13T16:23:19Z,sub60
two-step-fixation,120,491232,0.0-61.0-2.19,FALSE,TRUE,FALSE,FALSE,"""event"",""trial"",""time""
""fullscreenenter"",""5"",""15667""
","
","
","""event"",""trial"",""time""
""fullscreenenter"",""5"",""15667""
","
",NA,images/earth.jpg,NA,NA,NA,NA,NA,NA,NA,NA,NA,NA,NA,NA,NA,fixation,NA,NA,NA,NA,NA,NA,sub60
d3-instructions,121,496377,0.0-62.0,FALSE,TRUE,FALSE,FALSE,"""event"",""trial"",""time""
""fullscreenenter"",""5"",""15667""
","
","
","""event"",""trial"",""time""
""fullscreenenter"",""5"",""15667""
","
",NA,NA,NA,NA,NA,NA,NA,NA,NA,NA,NA,NA,NA,NA,NA,NA,NA,NA,NA,NA,NA,NA,sub60
audio-keyboard-response,122,499216,0.0-63.0,FALSE,TRUE,FALSE,FALSE,"""event"",""trial"",""time""
""fullscreenenter"",""5"",""15667""
","
","
","""event"",""trial"",""time""
""fullscreenenter"",""5"",""15667""
","
",2839,audio/instructions/treasure_feedback.wav,32,NA,NA,NA,NA,NA,NA,NA,NA,NA,NA,NA,NA,NA,NA,NA,NA,NA,NA,NA,sub60
d3-instructions,123,511440,0.0-64.0,FALSE,TRUE,FALSE,FALSE,"""event"",""trial"",""time""
""fullscreenenter"",""5"",""15667""
","
","
","""event"",""trial"",""time""
""fullscreenenter"",""5"",""15667""
","
",NA,NA,NA,NA,NA,NA,NA,NA,NA,NA,NA,NA,NA,NA,NA,NA,NA,NA,NA,NA,NA,NA,sub60
d3-instructions,124,528966,0.0-65.0,FALSE,TRUE,FALSE,FALSE,"""event"",""trial"",""time""
""fullscreenenter"",""5"",""15667""
","
","
","""event"",""trial"",""time""
""fullscreenenter"",""5"",""15667""
","
",NA,NA,NA,NA,NA,NA,NA,NA,NA,NA,NA,NA,NA,NA,NA,NA,NA,NA,NA,NA,NA,NA,sub60
d3-instructions,125,545753,0.0-66.0,FALSE,TRUE,FALSE,FALSE,"""event"",""trial"",""time""
""fullscreenenter"",""5"",""15667""
","
","
","""event"",""trial"",""time""
""fullscreenenter"",""5"",""15667""
","
",NA,NA,NA,NA,NA,NA,NA,NA,NA,NA,NA,NA,NA,NA,NA,NA,NA,NA,NA,NA,NA,NA,sub60
d3-instructions,126,558224,0.0-67.0,FALSE,TRUE,FALSE,FALSE,"""event"",""trial"",""time""
""fullscreenenter"",""5"",""15667""
","
","
","""event"",""trial"",""time""
""fullscreenenter"",""5"",""15667""
","
",NA,NA,NA,NA,NA,NA,NA,NA,NA,NA,NA,NA,NA,NA,NA,NA,NA,NA,NA,NA,NA,NA,sub60
d3-instructions,127,562459,0.0-68.0,FALSE,TRUE,FALSE,FALSE,"""event"",""trial"",""time""
""fullscreenenter"",""5"",""15667""
","
","
","""event"",""trial"",""time""
""fullscreenenter"",""5"",""15667""
","
",NA,NA,NA,NA,NA,NA,NA,NA,NA,NA,NA,NA,NA,NA,NA,NA,NA,NA,NA,NA,NA,NA,sub60
instructions-quiz,128,567560,0.0-69.0,FALSE,TRUE,FALSE,FALSE,"""event"",""trial"",""time""
""fullscreenenter"",""5"",""15667""
","
","
","""event"",""trial"",""time""
""fullscreenenter"",""5"",""15667""
","
",5099.259999998962,audio/quiz/Q1_Prompt.wav,NA,1,NA,NA,NA,NA,NA,NA,NA,NA,NA,NA,NA,NA,NA,NA,NA,NA,NA,NA,sub60
audio-keyboard-response,129,570021,0.0-70.0,FALSE,TRUE,FALSE,FALSE,"""event"",""trial"",""time""
""fullscreenenter"",""5"",""15667""
","
","
","""event"",""trial"",""time""
""fullscreenenter"",""5"",""15667""
","
",2461,audio/quiz/Q1_Correct.wav,32,NA,NA,NA,NA,NA,NA,NA,NA,NA,NA,NA,NA,NA,NA,NA,NA,NA,NA,NA,sub60
instructions-quiz,130,576951,0.0-71.0,FALSE,TRUE,FALSE,FALSE,"""event"",""trial"",""time""
""fullscreenenter"",""5"",""15667""
","
","
","""event"",""trial"",""time""
""fullscreenenter"",""5"",""15667""
","
",6929.564999998547,audio/quiz/Q2_Prompt.wav,NA,1,NA,NA,NA,NA,NA,NA,NA,NA,NA,NA,NA,NA,NA,NA,NA,NA,NA,NA,sub60
audio-keyboard-response,131,585907,0.0-72.0,FALSE,TRUE,FALSE,FALSE,"""event"",""trial"",""time""
""fullscreenenter"",""5"",""15667""
","
","
","""event"",""trial"",""time""
""fullscreenenter"",""5"",""15667""
","
",8957,audio/quiz/Q2_Incorrect.wav,32,NA,NA,NA,NA,NA,NA,NA,NA,NA,NA,NA,NA,NA,NA,NA,NA,NA,NA,NA,sub60
instructions-quiz,132,587874,0.0-73.0,FALSE,TRUE,FALSE,FALSE,"""event"",""trial"",""time""
""fullscreenenter"",""5"",""15667""
","
","
","""event"",""trial"",""time""
""fullscreenenter"",""5"",""15667""
","
",1966.3049999980722,audio/quiz/Q3_Prompt.wav,NA,1,NA,NA,NA,NA,NA,NA,NA,NA,NA,NA,NA,NA,NA,NA,NA,NA,NA,NA,sub60
audio-keyboard-response,133,588491,0.0-74.0,FALSE,TRUE,FALSE,FALSE,"""event"",""trial"",""time""
""fullscreenenter"",""5"",""15667""
","
","
","""event"",""trial"",""time""
""fullscreenenter"",""5"",""15667""
","
",615,audio/quiz/Q3_Correct.wav,32,NA,NA,NA,NA,NA,NA,NA,NA,NA,NA,NA,NA,NA,NA,NA,NA,NA,NA,NA,sub60
d3-instructions,134,607519,0.0-75.0,FALSE,TRUE,FALSE,FALSE,"""event"",""trial"",""time""
""fullscreenenter"",""5"",""15667""
","
","
","""event"",""trial"",""time""
""fullscreenenter"",""5"",""15667""
","
",NA,NA,NA,NA,NA,NA,NA,NA,NA,NA,NA,NA,NA,NA,NA,NA,NA,NA,NA,NA,NA,NA,sub60
d3-animate-choice,135,610920,0.0-76.0-0.0,FALSE,TRUE,FALSE,FALSE,"""event"",""trial"",""time""
""fullscreenenter"",""5"",""15667""
","
","
","""event"",""trial"",""time""
""fullscreenenter"",""5"",""15667""
","
",1397.9650000000838,NA,48,NA,NA,3000,1,NA,NA,images/earth.jpg,images/rocket1,images/rocket2,null,images/rocket1,NA,1,real,null,2,NA,NA,NA,sub60
d3-animate-choice,136,614142,0.0-76.0-1.0,FALSE,TRUE,FALSE,FALSE,"""event"",""trial"",""time""
""fullscreenenter"",""5"",""15667""
","
","
","""event"",""trial"",""time""
""fullscreenenter"",""5"",""15667""
","
",1216.980000001029,NA,48,NA,NA,3000,1,NA,NA,images/redplanet1.jpg,images/alien2,images/alien1,images/rocket1,images/alien2,images/nothing.png,2,real,true,2,common,0,2020-06-13T16:25:22Z,sub60
two-step-fixation,137,615145,0.0-76.0-2.0,FALSE,TRUE,FALSE,FALSE,"""event"",""trial"",""time""
""fullscreenenter"",""5"",""15667""
","
","
","""event"",""trial"",""time""
""fullscreenenter"",""5"",""15667""
","
",NA,images/earth.jpg,NA,NA,NA,NA,NA,NA,NA,NA,NA,NA,NA,NA,NA,fixation,NA,NA,NA,NA,NA,NA,sub60
d3-animate-choice,138,617625,0.0-76.0-0.1,FALSE,TRUE,FALSE,FALSE,"""event"",""trial"",""time""
""fullscreenenter"",""5"",""15667""
","
","
","""event"",""trial"",""time""
""fullscreenenter"",""5"",""15667""
","
",477.4649999999674,NA,49,NA,NA,3000,1,NA,NA,images/earth.jpg,images/rocket1,images/rocket2,null,images/rocket2,NA,1,real,null,1,NA,NA,NA,sub60
d3-animate-choice,139,620087,0.0-76.0-1.1,FALSE,TRUE,FALSE,FALSE,"""event"",""trial"",""time""
""fullscreenenter"",""5"",""15667""
","
","
","""event"",""trial"",""time""
""fullscreenenter"",""5"",""15667""
","
",453.32000000053085,NA,49,NA,NA,3000,1,NA,NA,images/purpleplanet.jpg,images/alien4,images/alien3,images/rocket2,images/alien3,images/t.png,2,real,true,1,common,1,2020-06-13T16:25:28Z,sub60
two-step-fixation,140,621090,0.0-76.0-2.1,FALSE,TRUE,FALSE,FALSE,"""event"",""trial"",""time""
""fullscreenenter"",""5"",""15667""
","
","
","""event"",""trial"",""time""
""fullscreenenter"",""5"",""15667""
","
",NA,images/earth.jpg,NA,NA,NA,NA,NA,NA,NA,NA,NA,NA,NA,NA,NA,fixation,NA,NA,NA,NA,NA,NA,sub60
d3-animate-choice,141,623230,0.0-76.0-0.2,FALSE,TRUE,FALSE,FALSE,"""event"",""trial"",""time""
""fullscreenenter"",""5"",""15667""
","
","
","""event"",""trial"",""time""
""fullscreenenter"",""5"",""15667""
","
",136.61500000301749,NA,49,NA,NA,3000,1,326.51500000059605,49,images/earth.jpg,images/rocket1,images/rocket2,null,images/rocket2,NA,1,real,null,1,NA,NA,NA,sub60
d3-animate-choice,142,625486,0.0-76.0-1.2,FALSE,TRUE,FALSE,FALSE,"""event"",""trial"",""time""
""fullscreenenter"",""5"",""15667""
","
","
","""event"",""trial"",""time""
""fullscreenenter"",""5"",""15667""
","
",251.34999999857973,NA,48,NA,NA,3000,1,NA,NA,images/purpleplanet.jpg,images/alien4,images/alien3,images/rocket2,images/alien4,images/t.png,2,real,true,2,common,1,2020-06-13T16:25:34Z,sub60
two-step-fixation,143,626490,0.0-76.0-2.2,FALSE,TRUE,FALSE,FALSE,"""event"",""trial"",""time""
""fullscreenenter"",""5"",""15667""
","
","
","""event"",""trial"",""time""
""fullscreenenter"",""5"",""15667""
","
",NA,images/earth.jpg,NA,NA,NA,NA,NA,NA,NA,NA,NA,NA,NA,NA,NA,fixation,NA,NA,NA,NA,NA,NA,sub60
d3-animate-choice,144,628684,0.0-76.0-0.3,FALSE,TRUE,FALSE,FALSE,"""event"",""trial"",""time""
""fullscreenenter"",""5"",""15667""
","
","
","""event"",""trial"",""time""
""fullscreenenter"",""5"",""15667""
","
",188.8250000011176,NA,49,NA,NA,3000,1,NA,NA,images/earth.jpg,images/rocket1,images/rocket2,null,images/rocket2,NA,1,real,null,1,NA,NA,NA,sub60
d3-animate-choice,145,631175,0.0-76.0-1.3,FALSE,TRUE,FALSE,FALSE,"""event"",""trial"",""time""
""fullscreenenter"",""5"",""15667""
","
","
","""event"",""trial"",""time""
""fullscreenenter"",""5"",""15667""
","
",487.70499999960884,NA,49,NA,NA,3000,1,NA,NA,images/purpleplanet.jpg,images/alien4,images/alien3,images/rocket2,images/alien3,images/nothing.png,2,real,true,1,common,0,2020-06-13T16:25:39Z,sub60
two-step-fixation,146,632177,0.0-76.0-2.3,FALSE,TRUE,FALSE,FALSE,"""event"",""trial"",""time""
""fullscreenenter"",""5"",""15667""
","
","
","""event"",""trial"",""time""
""fullscreenenter"",""5"",""15667""
","
",NA,images/earth.jpg,NA,NA,NA,NA,NA,NA,NA,NA,NA,NA,NA,NA,NA,fixation,NA,NA,NA,NA,NA,NA,sub60
d3-animate-choice,147,634476,0.0-76.0-0.4,FALSE,TRUE,FALSE,FALSE,"""event"",""trial"",""time""
""fullscreenenter"",""5"",""15667""
","
","
","""event"",""trial"",""time""
""fullscreenenter"",""5"",""15667""
","
",293.1700000007404,NA,49,NA,NA,3000,1,NA,NA,images/earth.jpg,images/rocket1,images/rocket2,null,images/rocket2,NA,1,real,null,1,NA,NA,NA,sub60
d3-animate-choice,148,637110,0.0-76.0-1.4,FALSE,TRUE,FALSE,FALSE,"""event"",""trial"",""time""
""fullscreenenter"",""5"",""15667""
","
","
","""event"",""trial"",""time""
""fullscreenenter"",""5"",""15667""
","
",628.899999999674,NA,48,NA,NA,3000,1,NA,NA,images/purpleplanet.jpg,images/alien4,images/alien3,images/rocket2,images/alien4,images/t.png,2,real,true,2,common,1,2020-06-13T16:25:45Z,sub60
two-step-fixation,149,638113,0.0-76.0-2.4,FALSE,TRUE,FALSE,FALSE,"""event"",""trial"",""time""
""fullscreenenter"",""5"",""15667""
","
","
","""event"",""trial"",""time""
""fullscreenenter"",""5"",""15667""
","
",NA,images/earth.jpg,NA,NA,NA,NA,NA,NA,NA,NA,NA,NA,NA,NA,NA,fixation,NA,NA,NA,NA,NA,NA,sub60
d3-animate-choice,150,640375,0.0-76.0-0.5,FALSE,TRUE,FALSE,FALSE,"""event"",""trial"",""time""
""fullscreenenter"",""5"",""15667""
","
","
","""event"",""trial"",""time""
""fullscreenenter"",""5"",""15667""
","
",256.89499999862164,NA,49,NA,NA,3000,1,NA,NA,images/earth.jpg,images/rocket1,images/rocket2,null,images/rocket2,NA,1,real,null,1,NA,NA,NA,sub60
d3-animate-choice,151,642856,0.0-76.0-1.5,FALSE,TRUE,FALSE,FALSE,"""event"",""trial"",""time""
""fullscreenenter"",""5"",""15667""
","
","
","""event"",""trial"",""time""
""fullscreenenter"",""5"",""15667""
","
",477.88500000024214,NA,49,NA,NA,3000,1,NA,NA,images/purpleplanet.jpg,images/alien4,images/alien3,images/rocket2,images/alien3,images/t.png,2,real,true,1,common,1,2020-06-13T16:25:51Z,sub60
two-step-fixation,152,643860,0.0-76.0-2.5,FALSE,TRUE,FALSE,FALSE,"""event"",""trial"",""time""
""fullscreenenter"",""5"",""15667""
","
","
","""event"",""trial"",""time""
""fullscreenenter"",""5"",""15667""
","
",NA,images/earth.jpg,NA,NA,NA,NA,NA,NA,NA,NA,NA,NA,NA,NA,NA,fixation,NA,NA,NA,NA,NA,NA,sub60
d3-animate-choice,153,646156,0.0-76.0-0.6,FALSE,TRUE,FALSE,FALSE,"""event"",""trial"",""time""
""fullscreenenter"",""5"",""15667""
","
","
","""event"",""trial"",""time""
""fullscreenenter"",""5"",""15667""
","
",291.78500000119675,NA,49,NA,NA,3000,1,NA,NA,images/earth.jpg,images/rocket1,images/rocket2,null,images/rocket2,NA,1,real,null,1,NA,NA,NA,sub60
d3-animate-choice,154,648693,0.0-76.0-1.6,FALSE,TRUE,FALSE,FALSE,"""event"",""trial"",""time""
""fullscreenenter"",""5"",""15667""
","
","
","""event"",""trial"",""time""
""fullscreenenter"",""5"",""15667""
","
",532.820000000298,NA,48,NA,NA,3000,1,NA,NA,images/purpleplanet.jpg,images/alien4,images/alien3,images/rocket2,images/alien4,images/t.png,2,real,true,2,common,1,2020-06-13T16:25:57Z,sub60
two-step-fixation,155,649698,0.0-76.0-2.6,FALSE,TRUE,FALSE,FALSE,"""event"",""trial"",""time""
""fullscreenenter"",""5"",""15667""
","
","
","""event"",""trial"",""time""
""fullscreenenter"",""5"",""15667""
","
",NA,images/earth.jpg,NA,NA,NA,NA,NA,NA,NA,NA,NA,NA,NA,NA,NA,fixation,NA,NA,NA,NA,NA,NA,sub60
d3-animate-choice,156,652090,0.0-76.0-0.7,FALSE,TRUE,FALSE,FALSE,"""event"",""trial"",""time""
""fullscreenenter"",""5"",""15667""
","
","
","""event"",""trial"",""time""
""fullscreenenter"",""5"",""15667""
","
",385.08500000159256,NA,49,NA,NA,3000,1,NA,NA,images/earth.jpg,images/rocket1,images/rocket2,null,images/rocket2,NA,1,real,null,1,NA,NA,NA,sub60
d3-animate-choice,157,654785,0.0-76.0-1.7,FALSE,TRUE,FALSE,FALSE,"""event"",""trial"",""time""
""fullscreenenter"",""5"",""15667""
","
","
","""event"",""trial"",""time""
""fullscreenenter"",""5"",""15667""
","
",687.7050000003073,NA,49,NA,NA,3000,1,NA,NA,images/purpleplanet.jpg,images/alien4,images/alien3,images/rocket2,images/alien3,images/nothing.png,2,real,true,1,common,0,2020-06-13T16:26:03Z,sub60
two-step-fixation,158,655790,0.0-76.0-2.7,FALSE,TRUE,FALSE,FALSE,"""event"",""trial"",""time""
""fullscreenenter"",""5"",""15667""
","
","
","""event"",""trial"",""time""
""fullscreenenter"",""5"",""15667""
","
",NA,images/earth.jpg,NA,NA,NA,NA,NA,NA,NA,NA,NA,NA,NA,NA,NA,fixation,NA,NA,NA,NA,NA,NA,sub60
d3-animate-choice,159,657961,0.0-76.0-0.8,FALSE,TRUE,FALSE,FALSE,"""event"",""trial"",""time""
""fullscreenenter"",""5"",""15667""
","
","
","""event"",""trial"",""time""
""fullscreenenter"",""5"",""15667""
","
",163.49999999871943,NA,49,NA,NA,3000,1,404.0500000009779,49,images/earth.jpg,images/rocket1,images/rocket2,null,images/rocket2,NA,1,real,null,1,NA,NA,NA,sub60
d3-animate-choice,160,660480,0.0-76.0-1.8,FALSE,TRUE,FALSE,FALSE,"""event"",""trial"",""time""
""fullscreenenter"",""5"",""15667""
","
","
","""event"",""trial"",""time""
""fullscreenenter"",""5"",""15667""
","
",512.0999999998603,NA,48,NA,NA,3000,1,NA,NA,images/purpleplanet.jpg,images/alien4,images/alien3,images/rocket2,images/alien4,images/t.png,2,real,true,2,common,1,2020-06-13T16:26:09Z,sub60
two-step-fixation,161,661484,0.0-76.0-2.8,FALSE,TRUE,FALSE,FALSE,"""event"",""trial"",""time""
""fullscreenenter"",""5"",""15667""
","
","
","""event"",""trial"",""time""
""fullscreenenter"",""5"",""15667""
","
",NA,images/earth.jpg,NA,NA,NA,NA,NA,NA,NA,NA,NA,NA,NA,NA,NA,fixation,NA,NA,NA,NA,NA,NA,sub60
d3-animate-choice,162,663812,0.0-76.0-0.9,FALSE,TRUE,FALSE,FALSE,"""event"",""trial"",""time""
""fullscreenenter"",""5"",""15667""
","
","
","""event"",""trial"",""time""
""fullscreenenter"",""5"",""15667""
","
",322.94499999983236,NA,49,NA,NA,3000,1,NA,NA,images/earth.jpg,images/rocket1,images/rocket2,null,images/rocket2,NA,1,real,null,1,NA,NA,NA,sub60
d3-animate-choice,163,666280,0.0-76.0-1.9,FALSE,TRUE,FALSE,FALSE,"""event"",""trial"",""time""
""fullscreenenter"",""5"",""15667""
","
","
","""event"",""trial"",""time""
""fullscreenenter"",""5"",""15667""
","
",463.87500000128057,NA,49,NA,NA,3000,1,NA,NA,images/purpleplanet.jpg,images/alien4,images/alien3,images/rocket2,images/alien3,images/nothing.png,2,real,true,1,common,0,2020-06-13T16:26:15Z,sub60
two-step-fixation,164,667283,0.0-76.0-2.9,FALSE,TRUE,FALSE,FALSE,"""event"",""trial"",""time""
""fullscreenenter"",""5"",""15667""
","
","
","""event"",""trial"",""time""
""fullscreenenter"",""5"",""15667""
","
",NA,images/earth.jpg,NA,NA,NA,NA,NA,NA,NA,NA,NA,NA,NA,NA,NA,fixation,NA,NA,NA,NA,NA,NA,sub60
d3-animate-choice,165,669502,0.0-76.0-0.10,FALSE,TRUE,FALSE,FALSE,"""event"",""trial"",""time""
""fullscreenenter"",""5"",""15667""
","
","
","""event"",""trial"",""time""
""fullscreenenter"",""5"",""15667""
","
",212.78499999968335,NA,49,NA,NA,3000,1,NA,NA,images/earth.jpg,images/rocket1,images/rocket2,null,images/rocket2,NA,1,real,null,1,NA,NA,NA,sub60
d3-animate-choice,166,672092,0.0-76.0-1.10,FALSE,TRUE,FALSE,FALSE,"""event"",""trial"",""time""
""fullscreenenter"",""5"",""15667""
","
","
","""event"",""trial"",""time""
""fullscreenenter"",""5"",""15667""
","
",582.5650000006426,NA,48,NA,NA,3000,1,NA,NA,images/purpleplanet.jpg,images/alien4,images/alien3,images/rocket2,images/alien4,images/t.png,2,real,true,2,common,1,2020-06-13T16:26:20Z,sub60
two-step-fixation,167,673094,0.0-76.0-2.10,FALSE,TRUE,FALSE,FALSE,"""event"",""trial"",""time""
""fullscreenenter"",""5"",""15667""
","
","
","""event"",""trial"",""time""
""fullscreenenter"",""5"",""15667""
","
",NA,images/earth.jpg,NA,NA,NA,NA,NA,NA,NA,NA,NA,NA,NA,NA,NA,fixation,NA,NA,NA,NA,NA,NA,sub60
d3-animate-choice,168,675416,0.0-76.0-0.11,FALSE,TRUE,FALSE,FALSE,"""event"",""trial"",""time""
""fullscreenenter"",""5"",""15667""
","
","
","""event"",""trial"",""time""
""fullscreenenter"",""5"",""15667""
","
",314.8849999997765,NA,49,NA,NA,3000,1,NA,NA,images/earth.jpg,images/rocket1,images/rocket2,null,images/rocket2,NA,1,real,null,1,NA,NA,NA,sub60
d3-animate-choice,169,678023,0.0-76.0-1.11,FALSE,TRUE,FALSE,FALSE,"""event"",""trial"",""time""
""fullscreenenter"",""5"",""15667""
","
","
","""event"",""trial"",""time""
""fullscreenenter"",""5"",""15667""
","
",598.425000000163,NA,48,NA,NA,3000,1,NA,NA,images/purpleplanet.jpg,images/alien4,images/alien3,images/rocket2,images/alien4,images/t.png,2,real,true,2,common,1,2020-06-13T16:26:26Z,sub60
two-step-fixation,170,679028,0.0-76.0-2.11,FALSE,TRUE,FALSE,FALSE,"""event"",""trial"",""time""
""fullscreenenter"",""5"",""15667""
","
","
","""event"",""trial"",""time""
""fullscreenenter"",""5"",""15667""
","
",NA,images/earth.jpg,NA,NA,NA,NA,NA,NA,NA,NA,NA,NA,NA,NA,NA,fixation,NA,NA,NA,NA,NA,NA,sub60
d3-animate-choice,171,681713,0.0-76.0-0.12,FALSE,TRUE,FALSE,FALSE,"""event"",""trial"",""time""
""fullscreenenter"",""5"",""15667""
","
","
","""event"",""trial"",""time""
""fullscreenenter"",""5"",""15667""
","
",680.1100000011502,NA,49,NA,NA,3000,1,"1439.0999999996275,1494.7449999999953",39187,images/earth.jpg,images/rocket1,images/rocket2,null,images/rocket2,NA,1,real,null,1,NA,NA,NA,sub60
d3-animate-choice,172,684021,0.0-76.0-1.12,FALSE,TRUE,FALSE,FALSE,"""event"",""trial"",""time""
""fullscreenenter"",""5"",""15667""
","
","
","""event"",""trial"",""time""
""fullscreenenter"",""5"",""15667""
","
",299.2400000002235,NA,48,NA,NA,3000,1,NA,NA,images/redplanet1.jpg,images/alien2,images/alien1,images/rocket2,images/alien2,images/nothing.png,2,real,false,2,rare,0,2020-06-13T16:26:32Z,sub60
two-step-fixation,173,685027,0.0-76.0-2.12,FALSE,TRUE,FALSE,FALSE,"""event"",""trial"",""time""
""fullscreenenter"",""5"",""15667""
","
","
","""event"",""trial"",""time""
""fullscreenenter"",""5"",""15667""
","
",NA,images/earth.jpg,NA,NA,NA,NA,NA,NA,NA,NA,NA,NA,NA,NA,NA,fixation,NA,NA,NA,NA,NA,NA,sub60
d3-animate-choice,174,687324,0.0-76.0-0.13,FALSE,TRUE,FALSE,FALSE,"""event"",""trial"",""time""
""fullscreenenter"",""5"",""15667""
","
","
","""event"",""trial"",""time""
""fullscreenenter"",""5"",""15667""
","
",288.35500000056345,NA,49,NA,NA,3000,1,NA,NA,images/earth.jpg,images/rocket1,images/rocket2,null,images/rocket2,NA,1,real,null,1,NA,NA,NA,sub60
d3-animate-choice,175,690669,0.0-76.0-1.13,FALSE,TRUE,FALSE,FALSE,"""event"",""trial"",""time""
""fullscreenenter"",""5"",""15667""
","
","
","""event"",""trial"",""time""
""fullscreenenter"",""5"",""15667""
","
",1341.485000000801,NA,49,NA,NA,3000,1,NA,NA,images/redplanet1.jpg,images/alien2,images/alien1,images/rocket2,images/alien1,images/nothing.png,2,real,false,1,rare,0,2020-06-13T16:26:39Z,sub60
two-step-fixation,176,691675,0.0-76.0-2.13,FALSE,TRUE,FALSE,FALSE,"""event"",""trial"",""time""
""fullscreenenter"",""5"",""15667""
","
","
","""event"",""trial"",""time""
""fullscreenenter"",""5"",""15667""
","
",NA,images/earth.jpg,NA,NA,NA,NA,NA,NA,NA,NA,NA,NA,NA,NA,NA,fixation,NA,NA,NA,NA,NA,NA,sub60
d3-animate-choice,177,694916,0.0-76.0-0.14,FALSE,TRUE,FALSE,FALSE,"""event"",""trial"",""time""
""fullscreenenter"",""5"",""15667""
","
","
","""event"",""trial"",""time""
""fullscreenenter"",""5"",""15667""
","
",1236.8600000009174,NA,48,NA,NA,3000,1,NA,NA,images/earth.jpg,images/rocket1,images/rocket2,null,images/rocket1,NA,1,real,null,2,NA,NA,NA,sub60
d3-animate-choice,178,697676,0.0-76.0-1.14,FALSE,TRUE,FALSE,FALSE,"""event"",""trial"",""time""
""fullscreenenter"",""5"",""15667""
","
","
","""event"",""trial"",""time""
""fullscreenenter"",""5"",""15667""
","
",756.5749999993714,NA,48,NA,NA,3000,1,NA,NA,images/redplanet1.jpg,images/alien2,images/alien1,images/rocket1,images/alien2,images/t.png,2,real,true,2,common,1,2020-06-13T16:26:46Z,sub60
two-step-fixation,179,698679,0.0-76.0-2.14,FALSE,TRUE,FALSE,FALSE,"""event"",""trial"",""time""
""fullscreenenter"",""5"",""15667""
","
","
","""event"",""trial"",""time""
""fullscreenenter"",""5"",""15667""
","
",NA,images/earth.jpg,NA,NA,NA,NA,NA,NA,NA,NA,NA,NA,NA,NA,NA,fixation,NA,NA,NA,NA,NA,NA,sub60
d3-animate-choice,180,701013,0.0-76.0-0.15,FALSE,TRUE,FALSE,FALSE,"""event"",""trial"",""time""
""fullscreenenter"",""5"",""15667""
","
","
","""event"",""trial"",""time""
""fullscreenenter"",""5"",""15667""
","
",327.3750000008149,NA,49,NA,NA,3000,1,NA,NA,images/earth.jpg,images/rocket1,images/rocket2,null,images/rocket2,NA,1,real,null,1,NA,NA,NA,sub60
d3-animate-choice,181,703434,0.0-76.0-1.15,FALSE,TRUE,FALSE,FALSE,"""event"",""trial"",""time""
""fullscreenenter"",""5"",""15667""
","
","
","""event"",""trial"",""time""
""fullscreenenter"",""5"",""15667""
","
",417.53000000247266,NA,48,NA,NA,3000,1,NA,NA,images/purpleplanet.jpg,images/alien4,images/alien3,images/rocket2,images/alien4,images/t.png,2,real,true,2,common,1,2020-06-13T16:26:52Z,sub60
two-step-fixation,182,704440,0.0-76.0-2.15,FALSE,TRUE,FALSE,FALSE,"""event"",""trial"",""time""
""fullscreenenter"",""5"",""15667""
","
","
","""event"",""trial"",""time""
""fullscreenenter"",""5"",""15667""
","
",NA,images/earth.jpg,NA,NA,NA,NA,NA,NA,NA,NA,NA,NA,NA,NA,NA,fixation,NA,NA,NA,NA,NA,NA,sub60
d3-animate-choice,183,706783,0.0-76.0-0.16,FALSE,TRUE,FALSE,FALSE,"""event"",""trial"",""time""
""fullscreenenter"",""5"",""15667""
","
","
","""event"",""trial"",""time""
""fullscreenenter"",""5"",""15667""
","
",334.5499999995809,NA,49,NA,NA,3000,1,NA,NA,images/earth.jpg,images/rocket1,images/rocket2,null,images/rocket2,NA,1,real,null,1,NA,NA,NA,sub60
d3-animate-choice,184,709349,0.0-76.0-1.16,FALSE,TRUE,FALSE,FALSE,"""event"",""trial"",""time""
""fullscreenenter"",""5"",""15667""
","
","
","""event"",""trial"",""time""
""fullscreenenter"",""5"",""15667""
","
",561.4750000021886,NA,48,NA,NA,3000,1,NA,NA,images/purpleplanet.jpg,images/alien4,images/alien3,images/rocket2,images/alien4,images/t.png,2,real,true,2,common,1,2020-06-13T16:26:58Z,sub60
two-step-fixation,185,710356,0.0-76.0-2.16,FALSE,TRUE,FALSE,FALSE,"""event"",""trial"",""time""
""fullscreenenter"",""5"",""15667""
","
","
","""event"",""trial"",""time""
""fullscreenenter"",""5"",""15667""
","
",NA,images/earth.jpg,NA,NA,NA,NA,NA,NA,NA,NA,NA,NA,NA,NA,NA,fixation,NA,NA,NA,NA,NA,NA,sub60
d3-animate-choice,186,712644,0.0-76.0-0.17,FALSE,TRUE,FALSE,FALSE,"""event"",""trial"",""time""
""fullscreenenter"",""5"",""15667""
","
","
","""event"",""trial"",""time""
""fullscreenenter"",""5"",""15667""
","
",284.22000000136904,NA,49,NA,NA,3000,1,NA,NA,images/earth.jpg,images/rocket1,images/rocket2,null,images/rocket2,NA,1,real,null,1,NA,NA,NA,sub60
d3-animate-choice,187,715258,0.0-76.0-1.17,FALSE,TRUE,FALSE,FALSE,"""event"",""trial"",""time""
""fullscreenenter"",""5"",""15667""
","
","
","""event"",""trial"",""time""
""fullscreenenter"",""5"",""15667""
","
",609.9750000030035,NA,48,NA,NA,3000,1,NA,NA,images/purpleplanet.jpg,images/alien4,images/alien3,images/rocket2,images/alien4,images/nothing.png,2,real,true,2,common,0,2020-06-13T16:27:04Z,sub60
two-step-fixation,188,716262,0.0-76.0-2.17,FALSE,TRUE,FALSE,FALSE,"""event"",""trial"",""time""
""fullscreenenter"",""5"",""15667""
","
","
","""event"",""trial"",""time""
""fullscreenenter"",""5"",""15667""
","
",NA,images/earth.jpg,NA,NA,NA,NA,NA,NA,NA,NA,NA,NA,NA,NA,NA,fixation,NA,NA,NA,NA,NA,NA,sub60
d3-animate-choice,189,718809,0.0-76.0-0.18,FALSE,TRUE,FALSE,FALSE,"""event"",""trial"",""time""
""fullscreenenter"",""5"",""15667""
","
","
","""event"",""trial"",""time""
""fullscreenenter"",""5"",""15667""
","
",540.675000000163,NA,49,NA,NA,3000,1,NA,NA,images/earth.jpg,images/rocket1,images/rocket2,null,images/rocket2,NA,1,real,null,1,NA,NA,NA,sub60
d3-animate-choice,190,721170,0.0-76.0-1.18,FALSE,TRUE,FALSE,FALSE,"""event"",""trial"",""time""
""fullscreenenter"",""5"",""15667""
","
","
","""event"",""trial"",""time""
""fullscreenenter"",""5"",""15667""
","
",357.3350000005448,NA,49,NA,NA,3000,1,NA,NA,images/redplanet1.jpg,images/alien2,images/alien1,images/rocket2,images/alien1,images/t.png,2,real,false,1,rare,1,2020-06-13T16:27:09Z,sub60
two-step-fixation,191,722175,0.0-76.0-2.18,FALSE,TRUE,FALSE,FALSE,"""event"",""trial"",""time""
""fullscreenenter"",""5"",""15667""
","
","
","""event"",""trial"",""time""
""fullscreenenter"",""5"",""15667""
","
",NA,images/earth.jpg,NA,NA,NA,NA,NA,NA,NA,NA,NA,NA,NA,NA,NA,fixation,NA,NA,NA,NA,NA,NA,sub60
d3-animate-choice,192,724349,0.0-76.0-0.19,FALSE,TRUE,FALSE,FALSE,"""event"",""trial"",""time""
""fullscreenenter"",""5"",""15667""
","
","
","""event"",""trial"",""time""
""fullscreenenter"",""5"",""15667""
","
",166.10500000033062,NA,49,NA,NA,3000,1,NA,NA,images/earth.jpg,images/rocket1,images/rocket2,null,images/rocket2,NA,1,real,null,1,NA,NA,NA,sub60
d3-animate-choice,193,727234,0.0-76.0-1.19,FALSE,TRUE,FALSE,FALSE,"""event"",""trial"",""time""
""fullscreenenter"",""5"",""15667""
","
","
","""event"",""trial"",""time""
""fullscreenenter"",""5"",""15667""
","
",882.6450000014156,NA,48,NA,NA,3000,1,NA,NA,images/redplanet1.jpg,images/alien2,images/alien1,images/rocket2,images/alien2,images/nothing.png,2,real,false,2,rare,0,2020-06-13T16:27:16Z,sub60
two-step-fixation,194,728238,0.0-76.0-2.19,FALSE,TRUE,FALSE,FALSE,"""event"",""trial"",""time""
""fullscreenenter"",""5"",""15667""
","
","
","""event"",""trial"",""time""
""fullscreenenter"",""5"",""15667""
","
",NA,images/earth.jpg,NA,NA,NA,NA,NA,NA,NA,NA,NA,NA,NA,NA,NA,fixation,NA,NA,NA,NA,NA,NA,sub60
d3-animate-choice,195,730465,0.0-76.0-0.20,FALSE,TRUE,FALSE,FALSE,"""event"",""trial"",""time""
""fullscreenenter"",""5"",""15667""
","
","
","""event"",""trial"",""time""
""fullscreenenter"",""5"",""15667""
","
",222.04499999864493,NA,49,NA,NA,3000,1,NA,NA,images/earth.jpg,images/rocket1,images/rocket2,null,images/rocket2,NA,1,real,null,1,NA,NA,NA,sub60
d3-animate-choice,196,733105,0.0-76.0-1.20,FALSE,TRUE,FALSE,FALSE,"""event"",""trial"",""time""
""fullscreenenter"",""5"",""15667""
","
","
","""event"",""trial"",""time""
""fullscreenenter"",""5"",""15667""
","
",634.1199999988312,NA,48,NA,NA,3000,1,NA,NA,images/purpleplanet.jpg,images/alien4,images/alien3,images/rocket2,images/alien4,images/t.png,2,real,true,2,common,1,2020-06-13T16:27:21Z,sub60
two-step-fixation,197,734109,0.0-76.0-2.20,FALSE,TRUE,FALSE,FALSE,"""event"",""trial"",""time""
""fullscreenenter"",""5"",""15667""
","
","
","""event"",""trial"",""time""
""fullscreenenter"",""5"",""15667""
","
",NA,images/earth.jpg,NA,NA,NA,NA,NA,NA,NA,NA,NA,NA,NA,NA,NA,fixation,NA,NA,NA,NA,NA,NA,sub60
d3-animate-choice,198,736347,0.0-76.0-0.21,FALSE,TRUE,FALSE,FALSE,"""event"",""trial"",""time""
""fullscreenenter"",""5"",""15667""
","
","
","""event"",""trial"",""time""
""fullscreenenter"",""5"",""15667""
","
",232.20499999658205,NA,49,NA,NA,3000,1,NA,NA,images/earth.jpg,images/rocket1,images/rocket2,null,images/rocket2,NA,1,real,null,1,NA,NA,NA,sub60
d3-animate-choice,199,739694,0.0-76.0-1.21,FALSE,TRUE,FALSE,FALSE,"""event"",""trial"",""time""
""fullscreenenter"",""5"",""15667""
","
","
","""event"",""trial"",""time""
""fullscreenenter"",""5"",""15667""
","
",1342.4850000010338,NA,48,NA,NA,3000,1,NA,NA,images/redplanet1.jpg,images/alien2,images/alien1,images/rocket2,images/alien2,images/nothing.png,2,real,false,2,rare,0,2020-06-13T16:27:28Z,sub60
two-step-fixation,200,740698,0.0-76.0-2.21,FALSE,TRUE,FALSE,FALSE,"""event"",""trial"",""time""
""fullscreenenter"",""5"",""15667""
","
","
","""event"",""trial"",""time""
""fullscreenenter"",""5"",""15667""
","
",NA,images/earth.jpg,NA,NA,NA,NA,NA,NA,NA,NA,NA,NA,NA,NA,NA,fixation,NA,NA,NA,NA,NA,NA,sub60
d3-animate-choice,201,742890,0.0-76.0-0.22,FALSE,TRUE,FALSE,FALSE,"""event"",""trial"",""time""
""fullscreenenter"",""5"",""15667""
","
","
","""event"",""trial"",""time""
""fullscreenenter"",""5"",""15667""
","
",183.57000000099652,NA,49,NA,NA,3000,1,NA,NA,images/earth.jpg,images/rocket1,images/rocket2,null,images/rocket2,NA,1,real,null,1,NA,NA,NA,sub60
d3-animate-choice,202,745592,0.0-76.0-1.22,FALSE,TRUE,FALSE,FALSE,"""event"",""trial"",""time""
""fullscreenenter"",""5"",""15667""
","
","
","""event"",""trial"",""time""
""fullscreenenter"",""5"",""15667""
","
",696.5000000018626,NA,49,NA,NA,3000,1,NA,NA,images/purpleplanet.jpg,images/alien4,images/alien3,images/rocket2,images/alien3,images/nothing.png,2,real,true,1,common,0,2020-06-13T16:27:34Z,sub60
two-step-fixation,203,746596,0.0-76.0-2.22,FALSE,TRUE,FALSE,FALSE,"""event"",""trial"",""time""
""fullscreenenter"",""5"",""15667""
","
","
","""event"",""trial"",""time""
""fullscreenenter"",""5"",""15667""
","
",NA,images/earth.jpg,NA,NA,NA,NA,NA,NA,NA,NA,NA,NA,NA,NA,NA,fixation,NA,NA,NA,NA,NA,NA,sub60
d3-animate-choice,204,748802,0.0-76.0-0.23,FALSE,TRUE,FALSE,FALSE,"""event"",""trial"",""time""
""fullscreenenter"",""5"",""15667""
","
","
","""event"",""trial"",""time""
""fullscreenenter"",""5"",""15667""
","
",201.74499999848194,NA,49,NA,NA,3000,1,NA,NA,images/earth.jpg,images/rocket1,images/rocket2,null,images/rocket2,NA,1,real,null,1,NA,NA,NA,sub60
d3-animate-choice,205,751273,0.0-76.0-1.23,FALSE,TRUE,FALSE,FALSE,"""event"",""trial"",""time""
""fullscreenenter"",""5"",""15667""
","
","
","""event"",""trial"",""time""
""fullscreenenter"",""5"",""15667""
","
",462.25000000046566,NA,48,NA,NA,3000,1,NA,NA,images/purpleplanet.jpg,images/alien4,images/alien3,images/rocket2,images/alien4,images/t.png,2,real,true,2,common,1,2020-06-13T16:27:40Z,sub60
two-step-fixation,206,752280,0.0-76.0-2.23,FALSE,TRUE,FALSE,FALSE,"""event"",""trial"",""time""
""fullscreenenter"",""5"",""15667""
","
","
","""event"",""trial"",""time""
""fullscreenenter"",""5"",""15667""
","
",NA,images/earth.jpg,NA,NA,NA,NA,NA,NA,NA,NA,NA,NA,NA,NA,NA,fixation,NA,NA,NA,NA,NA,NA,sub60
d3-animate-choice,207,754479,0.0-76.0-0.24,FALSE,TRUE,FALSE,FALSE,"""event"",""trial"",""time""
""fullscreenenter"",""5"",""15667""
","
","
","""event"",""trial"",""time""
""fullscreenenter"",""5"",""15667""
","
",194.64500000316184,NA,49,NA,NA,3000,1,NA,NA,images/earth.jpg,images/rocket1,images/rocket2,null,images/rocket2,NA,1,real,null,1,NA,NA,NA,sub60
d3-animate-choice,208,756787,0.0-76.0-1.24,FALSE,TRUE,FALSE,FALSE,"""event"",""trial"",""time""
""fullscreenenter"",""5"",""15667""
","
","
","""event"",""trial"",""time""
""fullscreenenter"",""5"",""15667""
","
",300.14999999909196,NA,48,NA,NA,3000,1,NA,NA,images/redplanet1.jpg,images/alien2,images/alien1,images/rocket2,images/alien2,images/t.png,2,real,false,2,rare,1,2020-06-13T16:27:45Z,sub60
two-step-fixation,209,757791,0.0-76.0-2.24,FALSE,TRUE,FALSE,FALSE,"""event"",""trial"",""time""
""fullscreenenter"",""5"",""15667""
","
","
","""event"",""trial"",""time""
""fullscreenenter"",""5"",""15667""
","
",NA,images/earth.jpg,NA,NA,NA,NA,NA,NA,NA,NA,NA,NA,NA,NA,NA,fixation,NA,NA,NA,NA,NA,NA,sub60
d3-animate-choice,210,760120,0.0-76.0-0.25,FALSE,TRUE,FALSE,FALSE,"""event"",""trial"",""time""
""fullscreenenter"",""5"",""15667""
","
","
","""event"",""trial"",""time""
""fullscreenenter"",""5"",""15667""
","
",325.3650000006892,NA,49,NA,NA,3000,1,NA,NA,images/earth.jpg,images/rocket1,images/rocket2,null,images/rocket2,NA,1,real,null,1,NA,NA,NA,sub60
d3-animate-choice,211,762644,0.0-76.0-1.25,FALSE,TRUE,FALSE,FALSE,"""event"",""trial"",""time""
""fullscreenenter"",""5"",""15667""
","
","
","""event"",""trial"",""time""
""fullscreenenter"",""5"",""15667""
","
",517.3299999987939,NA,48,NA,NA,3000,1,NA,NA,images/purpleplanet.jpg,images/alien4,images/alien3,images/rocket2,images/alien4,images/nothing.png,2,real,true,2,common,0,2020-06-13T16:27:51Z,sub60
two-step-fixation,212,763647,0.0-76.0-2.25,FALSE,TRUE,FALSE,FALSE,"""event"",""trial"",""time""
""fullscreenenter"",""5"",""15667""
","
","
","""event"",""trial"",""time""
""fullscreenenter"",""5"",""15667""
","
",NA,images/earth.jpg,NA,NA,NA,NA,NA,NA,NA,NA,NA,NA,NA,NA,NA,fixation,NA,NA,NA,NA,NA,NA,sub60
d3-animate-choice,213,765873,0.0-76.0-0.26,FALSE,TRUE,FALSE,FALSE,"""event"",""trial"",""time""
""fullscreenenter"",""5"",""15667""
","
","
","""event"",""trial"",""time""
""fullscreenenter"",""5"",""15667""
","
",221.0400000003865,NA,49,NA,NA,3000,1,NA,NA,images/earth.jpg,images/rocket1,images/rocket2,null,images/rocket2,NA,1,real,null,1,NA,NA,NA,sub60
d3-animate-choice,214,768563,0.0-76.0-1.26,FALSE,TRUE,FALSE,FALSE,"""event"",""trial"",""time""
""fullscreenenter"",""5"",""15667""
","
","
","""event"",""trial"",""time""
""fullscreenenter"",""5"",""15667""
","
",687.6200000005774,NA,48,NA,NA,3000,1,NA,NA,images/purpleplanet.jpg,images/alien4,images/alien3,images/rocket2,images/alien4,images/t.png,2,real,true,2,common,1,2020-06-13T16:27:57Z,sub60
two-step-fixation,215,769567,0.0-76.0-2.26,FALSE,TRUE,FALSE,FALSE,"""event"",""trial"",""time""
""fullscreenenter"",""5"",""15667""
","
","
","""event"",""trial"",""time""
""fullscreenenter"",""5"",""15667""
","
",NA,images/earth.jpg,NA,NA,NA,NA,NA,NA,NA,NA,NA,NA,NA,NA,NA,fixation,NA,NA,NA,NA,NA,NA,sub60
d3-animate-choice,216,771949,0.0-76.0-0.27,FALSE,TRUE,FALSE,FALSE,"""event"",""trial"",""time""
""fullscreenenter"",""5"",""15667""
","
","
","""event"",""trial"",""time""
""fullscreenenter"",""5"",""15667""
","
",378.48500000103377,NA,49,NA,NA,3000,1,2289.5400000015507,48,images/earth.jpg,images/rocket1,images/rocket2,null,images/rocket2,NA,1,real,null,1,NA,NA,NA,sub60
d3-animate-choice,217,774336,0.0-76.0-1.27,FALSE,TRUE,FALSE,FALSE,"""event"",""trial"",""time""
""fullscreenenter"",""5"",""15667""
","
","
","""event"",""trial"",""time""
""fullscreenenter"",""5"",""15667""
","
",383.4099999985192,NA,48,NA,NA,3000,1,NA,NA,images/redplanet1.jpg,images/alien2,images/alien1,images/rocket2,images/alien2,images/nothing.png,2,real,false,2,rare,0,2020-06-13T16:28:03Z,sub60
two-step-fixation,218,775340,0.0-76.0-2.27,FALSE,TRUE,FALSE,FALSE,"""event"",""trial"",""time""
""fullscreenenter"",""5"",""15667""
","
","
","""event"",""trial"",""time""
""fullscreenenter"",""5"",""15667""
","
",NA,images/earth.jpg,NA,NA,NA,NA,NA,NA,NA,NA,NA,NA,NA,NA,NA,fixation,NA,NA,NA,NA,NA,NA,sub60
d3-animate-choice,219,777381,0.0-76.0-0.28,FALSE,TRUE,FALSE,FALSE,"""event"",""trial"",""time""
""fullscreenenter"",""5"",""15667""
","
","
","""event"",""trial"",""time""
""fullscreenenter"",""5"",""15667""
","
",37.08499999996275,NA,49,NA,NA,3000,1,224.48499999882188,49,images/earth.jpg,images/rocket1,images/rocket2,null,images/rocket2,NA,1,real,null,1,NA,NA,NA,sub60
d3-animate-choice,220,780353,0.0-76.0-1.28,FALSE,TRUE,FALSE,FALSE,"""event"",""trial"",""time""
""fullscreenenter"",""5"",""15667""
","
","
","""event"",""trial"",""time""
""fullscreenenter"",""5"",""15667""
","
",966.1899999992456,NA,49,NA,NA,3000,1,NA,NA,images/redplanet1.jpg,images/alien2,images/alien1,images/rocket2,images/alien1,images/t.png,2,real,false,1,rare,1,2020-06-13T16:28:09Z,sub60
two-step-fixation,221,781361,0.0-76.0-2.28,FALSE,TRUE,FALSE,FALSE,"""event"",""trial"",""time""
""fullscreenenter"",""5"",""15667""
","
","
","""event"",""trial"",""time""
""fullscreenenter"",""5"",""15667""
","
",NA,images/earth.jpg,NA,NA,NA,NA,NA,NA,NA,NA,NA,NA,NA,NA,NA,fixation,NA,NA,NA,NA,NA,NA,sub60
d3-animate-choice,222,783528,0.0-76.0-0.29,FALSE,TRUE,FALSE,FALSE,"""event"",""trial"",""time""
""fullscreenenter"",""5"",""15667""
","
","
","""event"",""trial"",""time""
""fullscreenenter"",""5"",""15667""
","
",163.25500000314787,NA,49,NA,NA,3000,1,NA,NA,images/earth.jpg,images/rocket1,images/rocket2,null,images/rocket2,NA,1,real,null,1,NA,NA,NA,sub60
d3-animate-choice,223,786957,0.0-76.0-1.29,FALSE,TRUE,FALSE,FALSE,"""event"",""trial"",""time""
""fullscreenenter"",""5"",""15667""
","
","
","""event"",""trial"",""time""
""fullscreenenter"",""5"",""15667""
","
",1424.3950000017649,NA,49,NA,NA,3000,1,NA,NA,images/redplanet1.jpg,images/alien2,images/alien1,images/rocket2,images/alien1,images/t.png,2,real,false,1,rare,1,2020-06-13T16:28:15Z,sub60
two-step-fixation,224,787960,0.0-76.0-2.29,FALSE,TRUE,FALSE,FALSE,"""event"",""trial"",""time""
""fullscreenenter"",""5"",""15667""
","
","
","""event"",""trial"",""time""
""fullscreenenter"",""5"",""15667""
","
",NA,images/earth.jpg,NA,NA,NA,NA,NA,NA,NA,NA,NA,NA,NA,NA,NA,fixation,NA,NA,NA,NA,NA,NA,sub60
d3-animate-choice,225,790030,0.0-76.0-0.30,FALSE,TRUE,FALSE,FALSE,"""event"",""trial"",""time""
""fullscreenenter"",""5"",""15667""
","
","
","""event"",""trial"",""time""
""fullscreenenter"",""5"",""15667""
","
",66.26999999932013,NA,49,NA,NA,3000,1,NA,NA,images/earth.jpg,images/rocket1,images/rocket2,null,images/rocket2,NA,1,real,null,1,NA,NA,NA,sub60
d3-animate-choice,226,792543,0.0-76.0-1.30,FALSE,TRUE,FALSE,FALSE,"""event"",""trial"",""time""
""fullscreenenter"",""5"",""15667""
","
","
","""event"",""trial"",""time""
""fullscreenenter"",""5"",""15667""
","
",507.3000000010943,NA,48,NA,NA,3000,1,NA,NA,images/purpleplanet.jpg,images/alien4,images/alien3,images/rocket2,images/alien4,images/t.png,2,real,true,2,common,1,2020-06-13T16:28:21Z,sub60
two-step-fixation,227,793546,0.0-76.0-2.30,FALSE,TRUE,FALSE,FALSE,"""event"",""trial"",""time""
""fullscreenenter"",""5"",""15667""
","
","
","""event"",""trial"",""time""
""fullscreenenter"",""5"",""15667""
","
",NA,images/earth.jpg,NA,NA,NA,NA,NA,NA,NA,NA,NA,NA,NA,NA,NA,fixation,NA,NA,NA,NA,NA,NA,sub60
d3-animate-choice,228,795568,0.0-76.0-0.31,FALSE,TRUE,FALSE,FALSE,"""event"",""trial"",""time""
""fullscreenenter"",""5"",""15667""
","
","
","""event"",""trial"",""time""
""fullscreenenter"",""5"",""15667""
","
",16.05000000190921,NA,49,NA,NA,3000,1,292.3750000008149,49,images/earth.jpg,images/rocket1,images/rocket2,null,images/rocket2,NA,1,real,null,1,NA,NA,NA,sub60
d3-animate-choice,229,798583,0.0-76.0-1.31,FALSE,TRUE,FALSE,FALSE,"""event"",""trial"",""time""
""fullscreenenter"",""5"",""15667""
","
","
","""event"",""trial"",""time""
""fullscreenenter"",""5"",""15667""
","
",1009.9499999997206,NA,48,NA,NA,3000,1,NA,NA,images/purpleplanet.jpg,images/alien4,images/alien3,images/rocket2,images/alien4,images/t.png,2,real,true,2,common,1,2020-06-13T16:28:27Z,sub60
two-step-fixation,230,799586,0.0-76.0-2.31,FALSE,TRUE,FALSE,FALSE,"""event"",""trial"",""time""
""fullscreenenter"",""5"",""15667""
","
","
","""event"",""trial"",""time""
""fullscreenenter"",""5"",""15667""
","
",NA,images/earth.jpg,NA,NA,NA,NA,NA,NA,NA,NA,NA,NA,NA,NA,NA,fixation,NA,NA,NA,NA,NA,NA,sub60
d3-animate-choice,231,801795,0.0-76.0-0.32,FALSE,TRUE,FALSE,FALSE,"""event"",""trial"",""time""
""fullscreenenter"",""5"",""15667""
","
","
","""event"",""trial"",""time""
""fullscreenenter"",""5"",""15667""
","
",203.46499999868684,NA,49,NA,NA,3000,1,NA,NA,images/earth.jpg,images/rocket1,images/rocket2,null,images/rocket2,NA,1,real,null,1,NA,NA,NA,sub60
d3-animate-choice,232,804355,0.0-76.0-1.32,FALSE,TRUE,FALSE,FALSE,"""event"",""trial"",""time""
""fullscreenenter"",""5"",""15667""
","
","
","""event"",""trial"",""time""
""fullscreenenter"",""5"",""15667""
","
",557.4549999983283,NA,49,NA,NA,3000,1,NA,NA,images/redplanet1.jpg,images/alien2,images/alien1,images/rocket2,images/alien1,images/nothing.png,2,real,false,1,rare,0,2020-06-13T16:28:33Z,sub60
two-step-fixation,233,805362,0.0-76.0-2.32,FALSE,TRUE,FALSE,FALSE,"""event"",""trial"",""time""
""fullscreenenter"",""5"",""15667""
","
","
","""event"",""trial"",""time""
""fullscreenenter"",""5"",""15667""
","
",NA,images/earth.jpg,NA,NA,NA,NA,NA,NA,NA,NA,NA,NA,NA,NA,NA,fixation,NA,NA,NA,NA,NA,NA,sub60
d3-animate-choice,234,807505,0.0-76.0-0.33,FALSE,TRUE,FALSE,FALSE,"""event"",""trial"",""time""
""fullscreenenter"",""5"",""15667""
","
","
","""event"",""trial"",""time""
""fullscreenenter"",""5"",""15667""
","
",138.87500000058208,NA,49,NA,NA,3000,1,NA,NA,images/earth.jpg,images/rocket1,images/rocket2,null,images/rocket2,NA,1,real,null,1,NA,NA,NA,sub60
d3-animate-choice,235,810099,0.0-76.0-1.33,FALSE,TRUE,FALSE,FALSE,"""event"",""trial"",""time""
""fullscreenenter"",""5"",""15667""
","
","
","""event"",""trial"",""time""
""fullscreenenter"",""5"",""15667""
","
",590.6249999970896,NA,48,NA,NA,3000,1,NA,NA,images/purpleplanet.jpg,images/alien4,images/alien3,images/rocket2,images/alien4,images/t.png,2,real,true,2,common,1,2020-06-13T16:28:38Z,sub60
two-step-fixation,236,811103,0.0-76.0-2.33,FALSE,TRUE,FALSE,FALSE,"""event"",""trial"",""time""
""fullscreenenter"",""5"",""15667""
","
","
","""event"",""trial"",""time""
""fullscreenenter"",""5"",""15667""
","
",NA,images/earth.jpg,NA,NA,NA,NA,NA,NA,NA,NA,NA,NA,NA,NA,NA,fixation,NA,NA,NA,NA,NA,NA,sub60
d3-animate-choice,237,813144,0.0-76.0-0.34,FALSE,TRUE,FALSE,FALSE,"""event"",""trial"",""time""
""fullscreenenter"",""5"",""15667""
","
","
","""event"",""trial"",""time""
""fullscreenenter"",""5"",""15667""
","
",32.67500000225846,NA,49,NA,NA,3000,1,NA,NA,images/earth.jpg,images/rocket1,images/rocket2,null,images/rocket2,NA,1,real,null,1,NA,NA,NA,sub60
d3-animate-choice,238,815480,0.0-76.0-1.34,FALSE,TRUE,FALSE,FALSE,"""event"",""trial"",""time""
""fullscreenenter"",""5"",""15667""
","
","
","""event"",""trial"",""time""
""fullscreenenter"",""5"",""15667""
","
",331.3899999994319,NA,48,NA,NA,3000,1,NA,NA,images/purpleplanet.jpg,images/alien4,images/alien3,images/rocket2,images/alien4,images/t.png,2,real,true,2,common,1,2020-06-13T16:28:44Z,sub60
two-step-fixation,239,816485,0.0-76.0-2.34,FALSE,TRUE,FALSE,FALSE,"""event"",""trial"",""time""
""fullscreenenter"",""5"",""15667""
","
","
","""event"",""trial"",""time""
""fullscreenenter"",""5"",""15667""
","
",NA,images/earth.jpg,NA,NA,NA,NA,NA,NA,NA,NA,NA,NA,NA,NA,NA,fixation,NA,NA,NA,NA,NA,NA,sub60
d3-animate-choice,240,818782,0.0-76.0-0.35,FALSE,TRUE,FALSE,FALSE,"""event"",""trial"",""time""
""fullscreenenter"",""5"",""15667""
","
","
","""event"",""trial"",""time""
""fullscreenenter"",""5"",""15667""
","
",288.1849999977276,NA,49,NA,NA,3000,1,NA,NA,images/earth.jpg,images/rocket1,images/rocket2,null,images/rocket2,NA,1,real,null,1,NA,NA,NA,sub60
d3-animate-choice,241,821206,0.0-76.0-1.35,FALSE,TRUE,FALSE,FALSE,"""event"",""trial"",""time""
""fullscreenenter"",""5"",""15667""
","
","
","""event"",""trial"",""time""
""fullscreenenter"",""5"",""15667""
","
",420.1549999997951,NA,48,NA,NA,3000,1,NA,NA,images/redplanet1.jpg,images/alien2,images/alien1,images/rocket2,images/alien2,images/nothing.png,2,real,false,2,rare,0,2020-06-13T16:28:50Z,sub60
two-step-fixation,242,822210,0.0-76.0-2.35,FALSE,TRUE,FALSE,FALSE,"""event"",""trial"",""time""
""fullscreenenter"",""5"",""15667""
","
","
","""event"",""trial"",""time""
""fullscreenenter"",""5"",""15667""
","
",NA,images/earth.jpg,NA,NA,NA,NA,NA,NA,NA,NA,NA,NA,NA,NA,NA,fixation,NA,NA,NA,NA,NA,NA,sub60
d3-animate-choice,243,825028,0.0-76.0-0.36,FALSE,TRUE,FALSE,FALSE,"""event"",""trial"",""time""
""fullscreenenter"",""5"",""15667""
","
","
","""event"",""trial"",""time""
""fullscreenenter"",""5"",""15667""
","
",814.7299999982351,NA,49,NA,NA,3000,1,NA,NA,images/earth.jpg,images/rocket1,images/rocket2,null,images/rocket2,NA,1,real,null,1,NA,NA,NA,sub60
d3-animate-choice,244,827949,0.0-76.0-1.36,FALSE,TRUE,FALSE,FALSE,"""event"",""trial"",""time""
""fullscreenenter"",""5"",""15667""
","
","
","""event"",""trial"",""time""
""fullscreenenter"",""5"",""15667""
","
",916.6250000016298,NA,49,NA,NA,3000,1,NA,NA,images/redplanet1.jpg,images/alien2,images/alien1,images/rocket2,images/alien1,images/nothing.png,2,real,false,1,rare,0,2020-06-13T16:28:56Z,sub60
two-step-fixation,245,828953,0.0-76.0-2.36,FALSE,TRUE,FALSE,FALSE,"""event"",""trial"",""time""
""fullscreenenter"",""5"",""15667""
","
","
","""event"",""trial"",""time""
""fullscreenenter"",""5"",""15667""
","
",NA,images/earth.jpg,NA,NA,NA,NA,NA,NA,NA,NA,NA,NA,NA,NA,NA,fixation,NA,NA,NA,NA,NA,NA,sub60
d3-animate-choice,246,832010,0.0-76.0-0.37,FALSE,TRUE,FALSE,FALSE,"""event"",""trial"",""time""
""fullscreenenter"",""5"",""15667""
","
","
","""event"",""trial"",""time""
""fullscreenenter"",""5"",""15667""
","
",311.59500000288244,NA,50,NA,NA,3000,1,1050.0600000014529,49,images/earth.jpg,images/rocket1,images/rocket2,null,images/rocket2,NA,1,real,null,NA,NA,NA,NA,sub60
d3-animate-choice,247,834667,0.0-76.0-1.37,FALSE,TRUE,FALSE,FALSE,"""event"",""trial"",""time""
""fullscreenenter"",""5"",""15667""
","
","
","""event"",""trial"",""time""
""fullscreenenter"",""5"",""15667""
","
",652.1250000005821,NA,48,NA,NA,3000,1,NA,NA,images/purpleplanet.jpg,images/alien4,images/alien3,images/rocket2,images/alien4,images/t.png,2,real,true,2,common,1,2020-06-13T16:29:03Z,sub60
two-step-fixation,248,835670,0.0-76.0-2.37,FALSE,TRUE,FALSE,FALSE,"""event"",""trial"",""time""
""fullscreenenter"",""5"",""15667""
","
","
","""event"",""trial"",""time""
""fullscreenenter"",""5"",""15667""
","
",NA,images/earth.jpg,NA,NA,NA,NA,NA,NA,NA,NA,NA,NA,NA,NA,NA,fixation,NA,NA,NA,NA,NA,NA,sub60
d3-animate-choice,249,838042,0.0-76.0-0.38,FALSE,TRUE,FALSE,FALSE,"""event"",""trial"",""time""
""fullscreenenter"",""5"",""15667""
","
","
","""event"",""trial"",""time""
""fullscreenenter"",""5"",""15667""
","
",368.4099999991013,NA,49,NA,NA,3000,1,NA,NA,images/earth.jpg,images/rocket1,images/rocket2,null,images/rocket2,NA,1,real,null,1,NA,NA,NA,sub60
d3-animate-choice,250,840645,0.0-76.0-1.38,FALSE,TRUE,FALSE,FALSE,"""event"",""trial"",""time""
""fullscreenenter"",""5"",""15667""
","
","
","""event"",""trial"",""time""
""fullscreenenter"",""5"",""15667""
","
",598.4949999983655,NA,49,NA,NA,3000,1,NA,NA,images/purpleplanet.jpg,images/alien4,images/alien3,images/rocket2,images/alien3,images/nothing.png,2,real,true,1,common,0,2020-06-13T16:29:09Z,sub60
two-step-fixation,251,841651,0.0-76.0-2.38,FALSE,TRUE,FALSE,FALSE,"""event"",""trial"",""time""
""fullscreenenter"",""5"",""15667""
","
","
","""event"",""trial"",""time""
""fullscreenenter"",""5"",""15667""
","
",NA,images/earth.jpg,NA,NA,NA,NA,NA,NA,NA,NA,NA,NA,NA,NA,NA,fixation,NA,NA,NA,NA,NA,NA,sub60
d3-animate-choice,252,844410,0.0-76.0-0.39,FALSE,TRUE,FALSE,FALSE,"""event"",""trial"",""time""
""fullscreenenter"",""5"",""15667""
","
","
","""event"",""trial"",""time""
""fullscreenenter"",""5"",""15667""
","
",755.5450000000419,NA,49,NA,NA,3000,1,NA,NA,images/earth.jpg,images/rocket1,images/rocket2,null,images/rocket2,NA,1,real,null,1,NA,NA,NA,sub60
d3-animate-choice,253,847272,0.0-76.0-1.39,FALSE,TRUE,FALSE,FALSE,"""event"",""trial"",""time""
""fullscreenenter"",""5"",""15667""
","
","
","""event"",""trial"",""time""
""fullscreenenter"",""5"",""15667""
","
",855.8499999999767,NA,49,NA,NA,3000,1,NA,NA,images/redplanet1.jpg,images/alien2,images/alien1,images/rocket2,images/alien1,images/t.png,2,real,false,1,rare,1,2020-06-13T16:29:16Z,sub60
two-step-fixation,254,848278,0.0-76.0-2.39,FALSE,TRUE,FALSE,FALSE,"""event"",""trial"",""time""
""fullscreenenter"",""5"",""15667""
","
","
","""event"",""trial"",""time""
""fullscreenenter"",""5"",""15667""
","
",NA,images/earth.jpg,NA,NA,NA,NA,NA,NA,NA,NA,NA,NA,NA,NA,NA,fixation,NA,NA,NA,NA,NA,NA,sub60
d3-animate-choice,255,850424,0.0-76.0-0.40,FALSE,TRUE,FALSE,FALSE,"""event"",""trial"",""time""
""fullscreenenter"",""5"",""15667""
","
","
","""event"",""trial"",""time""
""fullscreenenter"",""5"",""15667""
","
",140.43000000307802,NA,49,NA,NA,3000,1,NA,NA,images/earth.jpg,images/rocket1,images/rocket2,null,images/rocket2,NA,1,real,null,1,NA,NA,NA,sub60
d3-animate-choice,256,853152,0.0-76.0-1.40,FALSE,TRUE,FALSE,FALSE,"""event"",""trial"",""time""
""fullscreenenter"",""5"",""15667""
","
","
","""event"",""trial"",""time""
""fullscreenenter"",""5"",""15667""
","
",723.2949999998091,NA,48,NA,NA,3000,1,NA,NA,images/redplanet1.jpg,images/alien2,images/alien1,images/rocket2,images/alien2,images/t.png,2,real,false,2,rare,1,2020-06-13T16:29:21Z,sub60
two-step-fixation,257,854157,0.0-76.0-2.40,FALSE,TRUE,FALSE,FALSE,"""event"",""trial"",""time""
""fullscreenenter"",""5"",""15667""
","
","
","""event"",""trial"",""time""
""fullscreenenter"",""5"",""15667""
","
",NA,images/earth.jpg,NA,NA,NA,NA,NA,NA,NA,NA,NA,NA,NA,NA,NA,fixation,NA,NA,NA,NA,NA,NA,sub60
d3-animate-choice,258,856869,0.0-76.0-0.41,FALSE,TRUE,FALSE,FALSE,"""event"",""trial"",""time""
""fullscreenenter"",""5"",""15667""
","
","
","""event"",""trial"",""time""
""fullscreenenter"",""5"",""15667""
","
",708.1450000004843,NA,49,NA,NA,3000,1,NA,NA,images/earth.jpg,images/rocket1,images/rocket2,null,images/rocket2,NA,1,real,null,1,NA,NA,NA,sub60
d3-animate-choice,259,859567,0.0-76.0-1.41,FALSE,TRUE,FALSE,FALSE,"""event"",""trial"",""time""
""fullscreenenter"",""5"",""15667""
","
","
","""event"",""trial"",""time""
""fullscreenenter"",""5"",""15667""
","
",692.2949999971315,NA,49,NA,NA,3000,1,NA,NA,images/redplanet1.jpg,images/alien2,images/alien1,images/rocket2,images/alien1,images/t.png,2,real,false,1,rare,1,2020-06-13T16:29:28Z,sub60
two-step-fixation,260,860570,0.0-76.0-2.41,FALSE,TRUE,FALSE,FALSE,"""event"",""trial"",""time""
""fullscreenenter"",""5"",""15667""
","
","
","""event"",""trial"",""time""
""fullscreenenter"",""5"",""15667""
","
",NA,images/earth.jpg,NA,NA,NA,NA,NA,NA,NA,NA,NA,NA,NA,NA,NA,fixation,NA,NA,NA,NA,NA,NA,sub60
d3-animate-choice,261,862818,0.0-76.0-0.42,FALSE,TRUE,FALSE,FALSE,"""event"",""trial"",""time""
""fullscreenenter"",""5"",""15667""
","
","
","""event"",""trial"",""time""
""fullscreenenter"",""5"",""15667""
","
",244.5999999982305,NA,49,NA,NA,3000,1,NA,NA,images/earth.jpg,images/rocket1,images/rocket2,null,images/rocket2,NA,1,real,null,1,NA,NA,NA,sub60
d3-animate-choice,262,865476,0.0-76.0-1.42,FALSE,TRUE,FALSE,FALSE,"""event"",""trial"",""time""
""fullscreenenter"",""5"",""15667""
","
","
","""event"",""trial"",""time""
""fullscreenenter"",""5"",""15667""
","
",651.9349999980768,NA,49,NA,NA,3000,1,NA,NA,images/redplanet1.jpg,images/alien2,images/alien1,images/rocket2,images/alien1,images/t.png,2,real,false,1,rare,1,2020-06-13T16:29:34Z,sub60
two-step-fixation,263,866479,0.0-76.0-2.42,FALSE,TRUE,FALSE,FALSE,"""event"",""trial"",""time""
""fullscreenenter"",""5"",""15667""
","
","
","""event"",""trial"",""time""
""fullscreenenter"",""5"",""15667""
","
",NA,images/earth.jpg,NA,NA,NA,NA,NA,NA,NA,NA,NA,NA,NA,NA,NA,fixation,NA,NA,NA,NA,NA,NA,sub60
d3-animate-choice,264,868541,0.0-76.0-0.43,FALSE,TRUE,FALSE,FALSE,"""event"",""trial"",""time""
""fullscreenenter"",""5"",""15667""
","
","
","""event"",""trial"",""time""
""fullscreenenter"",""5"",""15667""
","
",56.49000000266824,NA,49,NA,NA,3000,1,NA,NA,images/earth.jpg,images/rocket1,images/rocket2,null,images/rocket2,NA,1,real,null,1,NA,NA,NA,sub60
d3-animate-choice,265,871025,0.0-76.0-1.43,FALSE,TRUE,FALSE,FALSE,"""event"",""trial"",""time""
""fullscreenenter"",""5"",""15667""
","
","
","""event"",""trial"",""time""
""fullscreenenter"",""5"",""15667""
","
",479.7949999993434,NA,48,NA,NA,3000,1,NA,NA,images/purpleplanet.jpg,images/alien4,images/alien3,images/rocket2,images/alien4,images/nothing.png,2,real,true,2,common,0,2020-06-13T16:29:39Z,sub60
two-step-fixation,266,872028,0.0-76.0-2.43,FALSE,TRUE,FALSE,FALSE,"""event"",""trial"",""time""
""fullscreenenter"",""5"",""15667""
","
","
","""event"",""trial"",""time""
""fullscreenenter"",""5"",""15667""
","
",NA,images/earth.jpg,NA,NA,NA,NA,NA,NA,NA,NA,NA,NA,NA,NA,NA,fixation,NA,NA,NA,NA,NA,NA,sub60
d3-animate-choice,267,874057,0.0-76.0-0.44,FALSE,TRUE,FALSE,FALSE,"""event"",""trial"",""time""
""fullscreenenter"",""5"",""15667""
","
","
","""event"",""trial"",""time""
""fullscreenenter"",""5"",""15667""
","
",25.70499999995809,NA,49,NA,NA,3000,1,NA,NA,images/earth.jpg,images/rocket1,images/rocket2,null,images/rocket2,NA,1,real,null,1,NA,NA,NA,sub60
d3-animate-choice,268,876836,0.0-76.0-1.44,FALSE,TRUE,FALSE,FALSE,"""event"",""trial"",""time""
""fullscreenenter"",""5"",""15667""
","
","
","""event"",""trial"",""time""
""fullscreenenter"",""5"",""15667""
","
",773.9199999996927,NA,48,NA,NA,3000,1,NA,NA,images/redplanet1.jpg,images/alien2,images/alien1,images/rocket2,images/alien2,images/t.png,2,real,false,2,rare,1,2020-06-13T16:29:45Z,sub60
two-step-fixation,269,877839,0.0-76.0-2.44,FALSE,TRUE,FALSE,FALSE,"""event"",""trial"",""time""
""fullscreenenter"",""5"",""15667""
","
","
","""event"",""trial"",""time""
""fullscreenenter"",""5"",""15667""
","
",NA,images/earth.jpg,NA,NA,NA,NA,NA,NA,NA,NA,NA,NA,NA,NA,NA,fixation,NA,NA,NA,NA,NA,NA,sub60
d3-animate-choice,270,879939,0.0-76.0-0.45,FALSE,TRUE,FALSE,FALSE,"""event"",""trial"",""time""
""fullscreenenter"",""5"",""15667""
","
","
","""event"",""trial"",""time""
""fullscreenenter"",""5"",""15667""
","
",96.36500000127126,NA,49,NA,NA,3000,1,NA,NA,images/earth.jpg,images/rocket1,images/rocket2,null,images/rocket2,NA,1,real,null,1,NA,NA,NA,sub60
d3-animate-choice,271,882434,0.0-76.0-1.45,FALSE,TRUE,FALSE,FALSE,"""event"",""trial"",""time""
""fullscreenenter"",""5"",""15667""
","
","
","""event"",""trial"",""time""
""fullscreenenter"",""5"",""15667""
","
",488.9450000009965,NA,48,NA,NA,3000,1,NA,NA,images/purpleplanet.jpg,images/alien4,images/alien3,images/rocket2,images/alien4,images/t.png,2,real,true,2,common,1,2020-06-13T16:29:51Z,sub60
two-step-fixation,272,883438,0.0-76.0-2.45,FALSE,TRUE,FALSE,FALSE,"""event"",""trial"",""time""
""fullscreenenter"",""5"",""15667""
","
","
","""event"",""trial"",""time""
""fullscreenenter"",""5"",""15667""
","
",NA,images/earth.jpg,NA,NA,NA,NA,NA,NA,NA,NA,NA,NA,NA,NA,NA,fixation,NA,NA,NA,NA,NA,NA,sub60
d3-animate-choice,273,885537,0.0-76.0-0.46,FALSE,TRUE,FALSE,FALSE,"""event"",""trial"",""time""
""fullscreenenter"",""5"",""15667""
","
","
","""event"",""trial"",""time""
""fullscreenenter"",""5"",""15667""
","
",96.23000000289176,NA,49,NA,NA,3000,1,NA,NA,images/earth.jpg,images/rocket1,images/rocket2,null,images/rocket2,NA,1,real,null,1,NA,NA,NA,sub60
d3-animate-choice,274,888080,0.0-76.0-1.46,FALSE,TRUE,FALSE,FALSE,"""event"",""trial"",""time""
""fullscreenenter"",""5"",""15667""
","
","
","""event"",""trial"",""time""
""fullscreenenter"",""5"",""15667""
","
",538.394999999553,NA,48,NA,NA,3000,1,NA,NA,images/purpleplanet.jpg,images/alien4,images/alien3,images/rocket2,images/alien4,images/t.png,2,real,true,2,common,1,2020-06-13T16:29:56Z,sub60
two-step-fixation,275,889083,0.0-76.0-2.46,FALSE,TRUE,FALSE,FALSE,"""event"",""trial"",""time""
""fullscreenenter"",""5"",""15667""
","
","
","""event"",""trial"",""time""
""fullscreenenter"",""5"",""15667""
","
",NA,images/earth.jpg,NA,NA,NA,NA,NA,NA,NA,NA,NA,NA,NA,NA,NA,fixation,NA,NA,NA,NA,NA,NA,sub60
d3-animate-choice,276,891855,0.0-76.0-0.47,FALSE,TRUE,FALSE,FALSE,"""event"",""trial"",""time""
""fullscreenenter"",""5"",""15667""
","
","
","""event"",""trial"",""time""
""fullscreenenter"",""5"",""15667""
","
",249.4299999998184,NA,50,NA,NA,3000,1,766.9600000008941,49,images/earth.jpg,images/rocket1,images/rocket2,null,images/rocket2,NA,1,real,null,NA,NA,NA,NA,sub60
d3-animate-choice,277,894313,0.0-76.0-1.47,FALSE,TRUE,FALSE,FALSE,"""event"",""trial"",""time""
""fullscreenenter"",""5"",""15667""
","
","
","""event"",""trial"",""time""
""fullscreenenter"",""5"",""15667""
","
",449.48999999905936,NA,48,NA,NA,3000,1,NA,NA,images/purpleplanet.jpg,images/alien4,images/alien3,images/rocket2,images/alien4,images/nothing.png,2,real,true,2,common,0,2020-06-13T16:30:03Z,sub60
two-step-fixation,278,895321,0.0-76.0-2.47,FALSE,TRUE,FALSE,FALSE,"""event"",""trial"",""time""
""fullscreenenter"",""5"",""15667""
","
","
","""event"",""trial"",""time""
""fullscreenenter"",""5"",""15667""
","
",NA,images/earth.jpg,NA,NA,NA,NA,NA,NA,NA,NA,NA,NA,NA,NA,NA,fixation,NA,NA,NA,NA,NA,NA,sub60
d3-animate-choice,279,897678,0.0-76.0-0.48,FALSE,TRUE,FALSE,FALSE,"""event"",""trial"",""time""
""fullscreenenter"",""5"",""15667""
","
","
","""event"",""trial"",""time""
""fullscreenenter"",""5"",""15667""
","
",352.6449999990873,NA,49,NA,NA,3000,1,NA,NA,images/earth.jpg,images/rocket1,images/rocket2,null,images/rocket2,NA,1,real,null,1,NA,NA,NA,sub60
d3-animate-choice,280,901085,0.0-76.0-1.48,FALSE,TRUE,FALSE,FALSE,"""event"",""trial"",""time""
""fullscreenenter"",""5"",""15667""
","
","
","""event"",""trial"",""time""
""fullscreenenter"",""5"",""15667""
","
",1401.0400000006193,NA,49,NA,NA,3000,1,NA,NA,images/redplanet1.jpg,images/alien2,images/alien1,images/rocket2,images/alien1,images/t.png,2,real,false,1,rare,1,2020-06-13T16:30:09Z,sub60
two-step-fixation,281,902089,0.0-76.0-2.48,FALSE,TRUE,FALSE,FALSE,"""event"",""trial"",""time""
""fullscreenenter"",""5"",""15667""
","
","
","""event"",""trial"",""time""
""fullscreenenter"",""5"",""15667""
","
",NA,images/earth.jpg,NA,NA,NA,NA,NA,NA,NA,NA,NA,NA,NA,NA,NA,fixation,NA,NA,NA,NA,NA,NA,sub60
d3-animate-choice,282,904153,0.0-76.0-0.49,FALSE,TRUE,FALSE,FALSE,"""event"",""trial"",""time""
""fullscreenenter"",""5"",""15667""
","
","
","""event"",""trial"",""time""
""fullscreenenter"",""5"",""15667""
","
