trial_type,trial_index,time_elapsed,internal_node_id,rocket_sides,red_planet_first_rocket,red_display_order,purple_display_order,interactions,blur_events,focus_events,fullscreenenter_events,fullscreenexit_events,rt,stimulus,key_press,button_pressed,success,duration,valid_pressed,rts,keys,planet_text,right_text,left_text,center_text,chosen_text,reward_text,trial_stage,practice_trial,transition_type,choice,transition,reward,timestamp,subject_id
pavlovia,0,8,0.0-0.0,TRUE,TRUE,FALSE,TRUE,"""event"",""trial"",""time""
""blur"",""0"",""0""
""focus"",""0"",""0""
""blur"",""0"",""0""
""focus"",""0"",""0""
""blur"",""0"",""0""
""focus"",""0"",""0""
""blur"",""0"",""0""
""focus"",""1"",""1374""
","""event"",""trial"",""time""
""blur"",""0"",""0""
""blur"",""0"",""0""
""blur"",""0"",""0""
""blur"",""0"",""0""
","""event"",""trial"",""time""
""focus"",""0"",""0""
""focus"",""0"",""0""
""focus"",""0"",""0""
""focus"",""1"",""1374""
","
","
",NA,NA,NA,NA,NA,NA,NA,NA,NA,NA,NA,NA,NA,NA,NA,NA,NA,NA,NA,NA,NA,NA,sub144
html-keyboard-response,1,2719,0.0-1.0,TRUE,TRUE,FALSE,TRUE,"""event"",""trial"",""time""
""blur"",""0"",""0""
""focus"",""0"",""0""
""blur"",""0"",""0""
""focus"",""0"",""0""
""blur"",""0"",""0""
""focus"",""0"",""0""
""blur"",""0"",""0""
""focus"",""1"",""1374""
""blur"",""2"",""4673""
""focus"",""2"",""6366""
","""event"",""trial"",""time""
""blur"",""0"",""0""
""blur"",""0"",""0""
""blur"",""0"",""0""
""blur"",""0"",""0""
""blur"",""2"",""4673""
","""event"",""trial"",""time""
""focus"",""0"",""0""
""focus"",""0"",""0""
""focus"",""0"",""0""
""focus"",""1"",""1374""
""focus"",""2"",""6366""
","
","
",2710.2150000009715,Welcome! Press the space bar to begin.,32,NA,NA,NA,NA,NA,NA,NA,NA,NA,NA,NA,NA,NA,NA,NA,NA,NA,NA,NA,sub144
audio-keyboard-response,2,6592,0.0-2.0,TRUE,TRUE,FALSE,TRUE,"""event"",""trial"",""time""
""blur"",""0"",""0""
""focus"",""0"",""0""
""blur"",""0"",""0""
""focus"",""0"",""0""
""blur"",""0"",""0""
""focus"",""0"",""0""
""blur"",""0"",""0""
""focus"",""1"",""1374""
""blur"",""2"",""4673""
""focus"",""2"",""6366""
","""event"",""trial"",""time""
""blur"",""0"",""0""
""blur"",""0"",""0""
""blur"",""0"",""0""
""blur"",""0"",""0""
""blur"",""2"",""4673""
","""event"",""trial"",""time""
""focus"",""0"",""0""
""focus"",""0"",""0""
""focus"",""0"",""0""
""focus"",""1"",""1374""
""focus"",""2"",""6366""
","
","
",3824,audio/beep_loop.wav,32,NA,NA,NA,NA,NA,NA,NA,NA,NA,NA,NA,NA,NA,NA,NA,NA,NA,NA,NA,sub144
audio-button-response,3,9772,0.0-3.0,TRUE,TRUE,FALSE,TRUE,"""event"",""trial"",""time""
""blur"",""0"",""0""
""focus"",""0"",""0""
""blur"",""0"",""0""
""focus"",""0"",""0""
""blur"",""0"",""0""
""focus"",""0"",""0""
""blur"",""0"",""0""
""focus"",""1"",""1374""
""blur"",""2"",""4673""
""focus"",""2"",""6366""
","""event"",""trial"",""time""
""blur"",""0"",""0""
""blur"",""0"",""0""
""blur"",""0"",""0""
""blur"",""0"",""0""
""blur"",""2"",""4673""
","""event"",""trial"",""time""
""focus"",""0"",""0""
""focus"",""0"",""0""
""focus"",""0"",""0""
""focus"",""1"",""1374""
""focus"",""2"",""6366""
","
","
",NaN,audio/fish.mp3,NA,1,NA,NA,NA,NA,NA,NA,NA,NA,NA,NA,NA,NA,NA,NA,NA,NA,NA,NA,sub144
audio-button-response,4,12848,0.0-4.0,TRUE,TRUE,FALSE,TRUE,"""event"",""trial"",""time""
""blur"",""0"",""0""
""focus"",""0"",""0""
""blur"",""0"",""0""
""focus"",""0"",""0""
""blur"",""0"",""0""
""focus"",""0"",""0""
""blur"",""0"",""0""
""focus"",""1"",""1374""
""blur"",""2"",""4673""
""focus"",""2"",""6366""
""blur"",""5"",""14126""
""focus"",""5"",""17765""
""fullscreenenter"",""5"",""20143""
","""event"",""trial"",""time""
""blur"",""0"",""0""
""blur"",""0"",""0""
""blur"",""0"",""0""
""blur"",""0"",""0""
""blur"",""2"",""4673""
""blur"",""5"",""14126""
","""event"",""trial"",""time""
""focus"",""0"",""0""
""focus"",""0"",""0""
""focus"",""0"",""0""
""focus"",""1"",""1374""
""focus"",""2"",""6366""
""focus"",""5"",""17765""
","""event"",""trial"",""time""
""fullscreenenter"",""5"",""20143""
","
",NaN,audio/tiger.mp3,NA,4,NA,NA,NA,NA,NA,NA,NA,NA,NA,NA,NA,NA,NA,NA,NA,NA,NA,NA,sub144
fullscreen,5,21062,0.0-5.0,TRUE,TRUE,FALSE,TRUE,"""event"",""trial"",""time""
""blur"",""0"",""0""
""focus"",""0"",""0""
""blur"",""0"",""0""
""focus"",""0"",""0""
""blur"",""0"",""0""
""focus"",""0"",""0""
""blur"",""0"",""0""
""focus"",""1"",""1374""
""blur"",""2"",""4673""
""focus"",""2"",""6366""
""blur"",""5"",""14126""
""focus"",""5"",""17765""
""fullscreenenter"",""5"",""20143""
","""event"",""trial"",""time""
""blur"",""0"",""0""
""blur"",""0"",""0""
""blur"",""0"",""0""
""blur"",""0"",""0""
""blur"",""2"",""4673""
""blur"",""5"",""14126""
","""event"",""trial"",""time""
""focus"",""0"",""0""
""focus"",""0"",""0""
""focus"",""0"",""0""
""focus"",""1"",""1374""
""focus"",""2"",""6366""
""focus"",""5"",""17765""
","""event"",""trial"",""time""
""fullscreenenter"",""5"",""20143""
","
",NA,NA,NA,NA,TRUE,NA,NA,NA,NA,NA,NA,NA,NA,NA,NA,NA,NA,NA,NA,NA,NA,NA,sub144
d3-instructions,6,31279,0.0-6.0,TRUE,TRUE,FALSE,TRUE,"""event"",""trial"",""time""
""blur"",""0"",""0""
""focus"",""0"",""0""
""blur"",""0"",""0""
""focus"",""0"",""0""
""blur"",""0"",""0""
""focus"",""0"",""0""
""blur"",""0"",""0""
""focus"",""1"",""1374""
""blur"",""2"",""4673""
""focus"",""2"",""6366""
""blur"",""5"",""14126""
""focus"",""5"",""17765""
""fullscreenenter"",""5"",""20143""
","""event"",""trial"",""time""
""blur"",""0"",""0""
""blur"",""0"",""0""
""blur"",""0"",""0""
""blur"",""0"",""0""
""blur"",""2"",""4673""
""blur"",""5"",""14126""
","""event"",""trial"",""time""
""focus"",""0"",""0""
""focus"",""0"",""0""
""focus"",""0"",""0""
""focus"",""1"",""1374""
""focus"",""2"",""6366""
""focus"",""5"",""17765""
","""event"",""trial"",""time""
""fullscreenenter"",""5"",""20143""
","
",NA,NA,NA,NA,NA,NA,NA,NA,NA,NA,NA,NA,NA,NA,NA,NA,NA,NA,NA,NA,NA,NA,sub144
d3-instructions,7,38176,0.0-7.0,TRUE,TRUE,FALSE,TRUE,"""event"",""trial"",""time""
""blur"",""0"",""0""
""focus"",""0"",""0""
""blur"",""0"",""0""
""focus"",""0"",""0""
""blur"",""0"",""0""
""focus"",""0"",""0""
""blur"",""0"",""0""
""focus"",""1"",""1374""
""blur"",""2"",""4673""
""focus"",""2"",""6366""
""blur"",""5"",""14126""
""focus"",""5"",""17765""
""fullscreenenter"",""5"",""20143""
","""event"",""trial"",""time""
""blur"",""0"",""0""
""blur"",""0"",""0""
""blur"",""0"",""0""
""blur"",""0"",""0""
""blur"",""2"",""4673""
""blur"",""5"",""14126""
","""event"",""trial"",""time""
""focus"",""0"",""0""
""focus"",""0"",""0""
""focus"",""0"",""0""
""focus"",""1"",""1374""
""focus"",""2"",""6366""
""focus"",""5"",""17765""
","""event"",""trial"",""time""
""fullscreenenter"",""5"",""20143""
","
",NA,NA,NA,NA,NA,NA,NA,NA,NA,NA,NA,NA,NA,NA,NA,NA,NA,NA,NA,NA,NA,NA,sub144
d3-instructions,8,43982,0.0-8.0,TRUE,TRUE,FALSE,TRUE,"""event"",""trial"",""time""
""blur"",""0"",""0""
""focus"",""0"",""0""
""blur"",""0"",""0""
""focus"",""0"",""0""
""blur"",""0"",""0""
""focus"",""0"",""0""
""blur"",""0"",""0""
""focus"",""1"",""1374""
""blur"",""2"",""4673""
""focus"",""2"",""6366""
""blur"",""5"",""14126""
""focus"",""5"",""17765""
""fullscreenenter"",""5"",""20143""
","""event"",""trial"",""time""
""blur"",""0"",""0""
""blur"",""0"",""0""
""blur"",""0"",""0""
""blur"",""0"",""0""
""blur"",""2"",""4673""
""blur"",""5"",""14126""
","""event"",""trial"",""time""
""focus"",""0"",""0""
""focus"",""0"",""0""
""focus"",""0"",""0""
""focus"",""1"",""1374""
""focus"",""2"",""6366""
""focus"",""5"",""17765""
","""event"",""trial"",""time""
""fullscreenenter"",""5"",""20143""
","
",NA,NA,NA,NA,NA,NA,NA,NA,NA,NA,NA,NA,NA,NA,NA,NA,NA,NA,NA,NA,NA,NA,sub144
d3-instructions,9,53046,0.0-9.0,TRUE,TRUE,FALSE,TRUE,"""event"",""trial"",""time""
""blur"",""0"",""0""
""focus"",""0"",""0""
""blur"",""0"",""0""
""focus"",""0"",""0""
""blur"",""0"",""0""
""focus"",""0"",""0""
""blur"",""0"",""0""
""focus"",""1"",""1374""
""blur"",""2"",""4673""
""focus"",""2"",""6366""
""blur"",""5"",""14126""
""focus"",""5"",""17765""
""fullscreenenter"",""5"",""20143""
","""event"",""trial"",""time""
""blur"",""0"",""0""
""blur"",""0"",""0""
""blur"",""0"",""0""
""blur"",""0"",""0""
""blur"",""2"",""4673""
""blur"",""5"",""14126""
","""event"",""trial"",""time""
""focus"",""0"",""0""
""focus"",""0"",""0""
""focus"",""0"",""0""
""focus"",""1"",""1374""
""focus"",""2"",""6366""
""focus"",""5"",""17765""
","""event"",""trial"",""time""
""fullscreenenter"",""5"",""20143""
","
",NA,NA,NA,NA,NA,NA,NA,NA,NA,NA,NA,NA,NA,NA,NA,NA,NA,NA,NA,NA,NA,NA,sub144
d3-instructions,10,63439,0.0-10.0,TRUE,TRUE,FALSE,TRUE,"""event"",""trial"",""time""
""blur"",""0"",""0""
""focus"",""0"",""0""
""blur"",""0"",""0""
""focus"",""0"",""0""
""blur"",""0"",""0""
""focus"",""0"",""0""
""blur"",""0"",""0""
""focus"",""1"",""1374""
""blur"",""2"",""4673""
""focus"",""2"",""6366""
""blur"",""5"",""14126""
""focus"",""5"",""17765""
""fullscreenenter"",""5"",""20143""
","""event"",""trial"",""time""
""blur"",""0"",""0""
""blur"",""0"",""0""
""blur"",""0"",""0""
""blur"",""0"",""0""
""blur"",""2"",""4673""
""blur"",""5"",""14126""
","""event"",""trial"",""time""
""focus"",""0"",""0""
""focus"",""0"",""0""
""focus"",""0"",""0""
""focus"",""1"",""1374""
""focus"",""2"",""6366""
""focus"",""5"",""17765""
","""event"",""trial"",""time""
""fullscreenenter"",""5"",""20143""
","
",NA,NA,NA,NA,NA,NA,NA,NA,NA,NA,NA,NA,NA,NA,NA,NA,NA,NA,NA,NA,NA,NA,sub144
d3-animate-choice,11,66483,0.0-11.0,TRUE,TRUE,FALSE,TRUE,"""event"",""trial"",""time""
""blur"",""0"",""0""
""focus"",""0"",""0""
""blur"",""0"",""0""
""focus"",""0"",""0""
""blur"",""0"",""0""
""focus"",""0"",""0""
""blur"",""0"",""0""
""focus"",""1"",""1374""
""blur"",""2"",""4673""
""focus"",""2"",""6366""
""blur"",""5"",""14126""
""focus"",""5"",""17765""
""fullscreenenter"",""5"",""20143""
","""event"",""trial"",""time""
""blur"",""0"",""0""
""blur"",""0"",""0""
""blur"",""0"",""0""
""blur"",""0"",""0""
""blur"",""2"",""4673""
""blur"",""5"",""14126""
","""event"",""trial"",""time""
""focus"",""0"",""0""
""focus"",""0"",""0""
""focus"",""0"",""0""
""focus"",""1"",""1374""
""focus"",""2"",""6366""
""focus"",""5"",""17765""
","""event"",""trial"",""time""
""fullscreenenter"",""5"",""20143""
","
",1035.6250000004366,NA,49,NA,NA,3000,1,2723.695000000589,48,images/tutgreenplanet.jpg,images/tutalien1,images/tutalien2,null,images/tutalien2,NA,NA,practice,null,NA,NA,NA,NA,sub144
d3-animate-choice,12,69923,0.0-12.0,TRUE,TRUE,FALSE,TRUE,"""event"",""trial"",""time""
""blur"",""0"",""0""
""focus"",""0"",""0""
""blur"",""0"",""0""
""focus"",""0"",""0""
""blur"",""0"",""0""
""focus"",""0"",""0""
""blur"",""0"",""0""
""focus"",""1"",""1374""
""blur"",""2"",""4673""
""focus"",""2"",""6366""
""blur"",""5"",""14126""
""focus"",""5"",""17765""
""fullscreenenter"",""5"",""20143""
","""event"",""trial"",""time""
""blur"",""0"",""0""
""blur"",""0"",""0""
""blur"",""0"",""0""
""blur"",""0"",""0""
""blur"",""2"",""4673""
""blur"",""5"",""14126""
","""event"",""trial"",""time""
""focus"",""0"",""0""
""focus"",""0"",""0""
""focus"",""0"",""0""
""focus"",""1"",""1374""
""focus"",""2"",""6366""
""focus"",""5"",""17765""
","""event"",""trial"",""time""
""fullscreenenter"",""5"",""20143""
","
",1432.2750000010274,NA,48,NA,NA,3000,1,2784.3900000007125,32,images/tutgreenplanet.jpg,images/tutalien1,images/tutalien2,null,images/tutalien1,NA,NA,practice,null,NA,NA,NA,NA,sub144
d3-animate-choice,13,72872,0.0-13.0,TRUE,TRUE,FALSE,TRUE,"""event"",""trial"",""time""
""blur"",""0"",""0""
""focus"",""0"",""0""
""blur"",""0"",""0""
""focus"",""0"",""0""
""blur"",""0"",""0""
""focus"",""0"",""0""
""blur"",""0"",""0""
""focus"",""1"",""1374""
""blur"",""2"",""4673""
""focus"",""2"",""6366""
""blur"",""5"",""14126""
""focus"",""5"",""17765""
""fullscreenenter"",""5"",""20143""
","""event"",""trial"",""time""
""blur"",""0"",""0""
""blur"",""0"",""0""
""blur"",""0"",""0""
""blur"",""0"",""0""
""blur"",""2"",""4673""
""blur"",""5"",""14126""
","""event"",""trial"",""time""
""focus"",""0"",""0""
""focus"",""0"",""0""
""focus"",""0"",""0""
""focus"",""1"",""1374""
""focus"",""2"",""6366""
""focus"",""5"",""17765""
","""event"",""trial"",""time""
""fullscreenenter"",""5"",""20143""
","
",944.8249999986729,NA,49,NA,NA,3000,1,NA,NA,images/tutgreenplanet.jpg,images/tutalien1,images/tutalien2,null,images/tutalien2,NA,NA,practice,null,NA,NA,NA,NA,sub144
d3-animate-choice,14,75160,0.0-14.0,TRUE,TRUE,FALSE,TRUE,"""event"",""trial"",""time""
""blur"",""0"",""0""
""focus"",""0"",""0""
""blur"",""0"",""0""
""focus"",""0"",""0""
""blur"",""0"",""0""
""focus"",""0"",""0""
""blur"",""0"",""0""
""focus"",""1"",""1374""
""blur"",""2"",""4673""
""focus"",""2"",""6366""
""blur"",""5"",""14126""
""focus"",""5"",""17765""
""fullscreenenter"",""5"",""20143""
","""event"",""trial"",""time""
""blur"",""0"",""0""
""blur"",""0"",""0""
""blur"",""0"",""0""
""blur"",""0"",""0""
""blur"",""2"",""4673""
""blur"",""5"",""14126""
","""event"",""trial"",""time""
""focus"",""0"",""0""
""focus"",""0"",""0""
""focus"",""0"",""0""
""focus"",""1"",""1374""
""focus"",""2"",""6366""
""focus"",""5"",""17765""
","""event"",""trial"",""time""
""fullscreenenter"",""5"",""20143""
","
",283.3599999994476,NA,48,NA,NA,3000,1,NA,NA,images/tutgreenplanet.jpg,images/tutalien1,images/tutalien2,null,images/tutalien1,NA,NA,practice,null,NA,NA,NA,NA,sub144
d3-instructions,15,81662,0.0-15.0,TRUE,TRUE,FALSE,TRUE,"""event"",""trial"",""time""
""blur"",""0"",""0""
""focus"",""0"",""0""
""blur"",""0"",""0""
""focus"",""0"",""0""
""blur"",""0"",""0""
""focus"",""0"",""0""
""blur"",""0"",""0""
""focus"",""1"",""1374""
""blur"",""2"",""4673""
""focus"",""2"",""6366""
""blur"",""5"",""14126""
""focus"",""5"",""17765""
""fullscreenenter"",""5"",""20143""
","""event"",""trial"",""time""
""blur"",""0"",""0""
""blur"",""0"",""0""
""blur"",""0"",""0""
""blur"",""0"",""0""
""blur"",""2"",""4673""
""blur"",""5"",""14126""
","""event"",""trial"",""time""
""focus"",""0"",""0""
""focus"",""0"",""0""
""focus"",""0"",""0""
""focus"",""1"",""1374""
""focus"",""2"",""6366""
""focus"",""5"",""17765""
","""event"",""trial"",""time""
""fullscreenenter"",""5"",""20143""
","
",NA,NA,NA,NA,NA,NA,NA,NA,NA,NA,NA,NA,NA,NA,NA,NA,NA,NA,NA,NA,NA,NA,sub144
d3-instructions,16,83661,0.0-16.0,TRUE,TRUE,FALSE,TRUE,"""event"",""trial"",""time""
""blur"",""0"",""0""
""focus"",""0"",""0""
""blur"",""0"",""0""
""focus"",""0"",""0""
""blur"",""0"",""0""
""focus"",""0"",""0""
""blur"",""0"",""0""
""focus"",""1"",""1374""
""blur"",""2"",""4673""
""focus"",""2"",""6366""
""blur"",""5"",""14126""
""focus"",""5"",""17765""
""fullscreenenter"",""5"",""20143""
","""event"",""trial"",""time""
""blur"",""0"",""0""
""blur"",""0"",""0""
""blur"",""0"",""0""
""blur"",""0"",""0""
""blur"",""2"",""4673""
""blur"",""5"",""14126""
","""event"",""trial"",""time""
""focus"",""0"",""0""
""focus"",""0"",""0""
""focus"",""0"",""0""
""focus"",""1"",""1374""
""focus"",""2"",""6366""
""focus"",""5"",""17765""
","""event"",""trial"",""time""
""fullscreenenter"",""5"",""20143""
","
",NA,NA,NA,NA,NA,NA,NA,NA,NA,NA,NA,NA,NA,NA,NA,NA,NA,NA,NA,NA,NA,NA,sub144
d3-instructions,17,89589,0.0-17.0,TRUE,TRUE,FALSE,TRUE,"""event"",""trial"",""time""
""blur"",""0"",""0""
""focus"",""0"",""0""
""blur"",""0"",""0""
""focus"",""0"",""0""
""blur"",""0"",""0""
""focus"",""0"",""0""
""blur"",""0"",""0""
""focus"",""1"",""1374""
""blur"",""2"",""4673""
""focus"",""2"",""6366""
""blur"",""5"",""14126""
""focus"",""5"",""17765""
""fullscreenenter"",""5"",""20143""
","""event"",""trial"",""time""
""blur"",""0"",""0""
""blur"",""0"",""0""
""blur"",""0"",""0""
""blur"",""0"",""0""
""blur"",""2"",""4673""
""blur"",""5"",""14126""
","""event"",""trial"",""time""
""focus"",""0"",""0""
""focus"",""0"",""0""
""focus"",""0"",""0""
""focus"",""1"",""1374""
""focus"",""2"",""6366""
""focus"",""5"",""17765""
","""event"",""trial"",""time""
""fullscreenenter"",""5"",""20143""
","
",NA,NA,NA,NA,NA,NA,NA,NA,NA,NA,NA,NA,NA,NA,NA,NA,NA,NA,NA,NA,NA,NA,sub144
d3-instructions,18,99709,0.0-18.0,TRUE,TRUE,FALSE,TRUE,"""event"",""trial"",""time""
""blur"",""0"",""0""
""focus"",""0"",""0""
""blur"",""0"",""0""
""focus"",""0"",""0""
""blur"",""0"",""0""
""focus"",""0"",""0""
""blur"",""0"",""0""
""focus"",""1"",""1374""
""blur"",""2"",""4673""
""focus"",""2"",""6366""
""blur"",""5"",""14126""
""focus"",""5"",""17765""
""fullscreenenter"",""5"",""20143""
","""event"",""trial"",""time""
""blur"",""0"",""0""
""blur"",""0"",""0""
""blur"",""0"",""0""
""blur"",""0"",""0""
""blur"",""2"",""4673""
""blur"",""5"",""14126""
","""event"",""trial"",""time""
""focus"",""0"",""0""
""focus"",""0"",""0""
""focus"",""0"",""0""
""focus"",""1"",""1374""
""focus"",""2"",""6366""
""focus"",""5"",""17765""
","""event"",""trial"",""time""
""fullscreenenter"",""5"",""20143""
","
",NA,NA,NA,NA,NA,NA,NA,NA,NA,NA,NA,NA,NA,NA,NA,NA,NA,NA,NA,NA,NA,NA,sub144
d3-instructions,19,107997,0.0-19.0,TRUE,TRUE,FALSE,TRUE,"""event"",""trial"",""time""
""blur"",""0"",""0""
""focus"",""0"",""0""
""blur"",""0"",""0""
""focus"",""0"",""0""
""blur"",""0"",""0""
""focus"",""0"",""0""
""blur"",""0"",""0""
""focus"",""1"",""1374""
""blur"",""2"",""4673""
""focus"",""2"",""6366""
""blur"",""5"",""14126""
""focus"",""5"",""17765""
""fullscreenenter"",""5"",""20143""
","""event"",""trial"",""time""
""blur"",""0"",""0""
""blur"",""0"",""0""
""blur"",""0"",""0""
""blur"",""0"",""0""
""blur"",""2"",""4673""
""blur"",""5"",""14126""
","""event"",""trial"",""time""
""focus"",""0"",""0""
""focus"",""0"",""0""
""focus"",""0"",""0""
""focus"",""1"",""1374""
""focus"",""2"",""6366""
""focus"",""5"",""17765""
","""event"",""trial"",""time""
""fullscreenenter"",""5"",""20143""
","
",NA,NA,NA,NA,NA,NA,NA,NA,NA,NA,NA,NA,NA,NA,NA,NA,NA,NA,NA,NA,NA,NA,sub144
d3-animate-choice,20,110526,0.0-20.0,TRUE,TRUE,FALSE,TRUE,"""event"",""trial"",""time""
""blur"",""0"",""0""
""focus"",""0"",""0""
""blur"",""0"",""0""
""focus"",""0"",""0""
""blur"",""0"",""0""
""focus"",""0"",""0""
""blur"",""0"",""0""
""focus"",""1"",""1374""
""blur"",""2"",""4673""
""focus"",""2"",""6366""
""blur"",""5"",""14126""
""focus"",""5"",""17765""
""fullscreenenter"",""5"",""20143""
","""event"",""trial"",""time""
""blur"",""0"",""0""
""blur"",""0"",""0""
""blur"",""0"",""0""
""blur"",""0"",""0""
""blur"",""2"",""4673""
""blur"",""5"",""14126""
","""event"",""trial"",""time""
""focus"",""0"",""0""
""focus"",""0"",""0""
""focus"",""0"",""0""
""focus"",""1"",""1374""
""focus"",""2"",""6366""
""focus"",""5"",""17765""
","""event"",""trial"",""time""
""fullscreenenter"",""5"",""20143""
","
",525.499999999709,NA,49,NA,NA,3000,1,"901.3049999994109,1389.4949999994133,2337.165000000794",494949,images/tutyellowplanet.jpg,null,images/tutalien3,null,images/tutalien3,images/nothing.png,NA,practice,null,NA,NA,NA,NA,sub144
d3-animate-choice,21,112663,0.0-21.0,TRUE,TRUE,FALSE,TRUE,"""event"",""trial"",""time""
""blur"",""0"",""0""
""focus"",""0"",""0""
""blur"",""0"",""0""
""focus"",""0"",""0""
""blur"",""0"",""0""
""focus"",""0"",""0""
""blur"",""0"",""0""
""focus"",""1"",""1374""
""blur"",""2"",""4673""
""focus"",""2"",""6366""
""blur"",""5"",""14126""
""focus"",""5"",""17765""
""fullscreenenter"",""5"",""20143""
","""event"",""trial"",""time""
""blur"",""0"",""0""
""blur"",""0"",""0""
""blur"",""0"",""0""
""blur"",""0"",""0""
""blur"",""2"",""4673""
""blur"",""5"",""14126""
","""event"",""trial"",""time""
""focus"",""0"",""0""
""focus"",""0"",""0""
""focus"",""0"",""0""
""focus"",""1"",""1374""
""focus"",""2"",""6366""
""focus"",""5"",""17765""
","""event"",""trial"",""time""
""fullscreenenter"",""5"",""20143""
","
",132.4199999999255,NA,49,NA,NA,3000,1,"477.42499999911524,804.9699999992154,1092.9449999984936,1380.8899999985588,1904.2099999987986",4949494949,images/tutyellowplanet.jpg,null,images/tutalien3,null,images/tutalien3,images/t.png,NA,practice,null,NA,NA,NA,NA,sub144
d3-animate-choice,22,114722,0.0-22.0,TRUE,TRUE,FALSE,TRUE,"""event"",""trial"",""time""
""blur"",""0"",""0""
""focus"",""0"",""0""
""blur"",""0"",""0""
""focus"",""0"",""0""
""blur"",""0"",""0""
""focus"",""0"",""0""
""blur"",""0"",""0""
""focus"",""1"",""1374""
""blur"",""2"",""4673""
""focus"",""2"",""6366""
""blur"",""5"",""14126""
""focus"",""5"",""17765""
""fullscreenenter"",""5"",""20143""
","""event"",""trial"",""time""
""blur"",""0"",""0""
""blur"",""0"",""0""
""blur"",""0"",""0""
""blur"",""0"",""0""
""blur"",""2"",""4673""
""blur"",""5"",""14126""
","""event"",""trial"",""time""
""focus"",""0"",""0""
""focus"",""0"",""0""
""focus"",""0"",""0""
""focus"",""1"",""1374""
""focus"",""2"",""6366""
""focus"",""5"",""17765""
","""event"",""trial"",""time""
""fullscreenenter"",""5"",""20143""
","
",52.47000000055414,NA,49,NA,NA,3000,1,"324.32999999949243,812.1100000007718,1108.3149999995076,1380.3850000004168,1652.2299999996903,1940.3750000001455",494949494949,images/tutyellowplanet.jpg,null,images/tutalien3,null,images/tutalien3,images/t.png,NA,practice,null,NA,NA,NA,NA,sub144
d3-animate-choice,23,116882,0.0-23.0,TRUE,TRUE,FALSE,TRUE,"""event"",""trial"",""time""
""blur"",""0"",""0""
""focus"",""0"",""0""
""blur"",""0"",""0""
""focus"",""0"",""0""
""blur"",""0"",""0""
""focus"",""0"",""0""
""blur"",""0"",""0""
""focus"",""1"",""1374""
""blur"",""2"",""4673""
""focus"",""2"",""6366""
""blur"",""5"",""14126""
""focus"",""5"",""17765""
""fullscreenenter"",""5"",""20143""
","""event"",""trial"",""time""
""blur"",""0"",""0""
""blur"",""0"",""0""
""blur"",""0"",""0""
""blur"",""0"",""0""
""blur"",""2"",""4673""
""blur"",""5"",""14126""
","""event"",""trial"",""time""
""focus"",""0"",""0""
""focus"",""0"",""0""
""focus"",""0"",""0""
""focus"",""1"",""1374""
""focus"",""2"",""6366""
""focus"",""5"",""17765""
","""event"",""trial"",""time""
""fullscreenenter"",""5"",""20143""
","
",153.3500000005006,NA,49,NA,NA,3000,1,"408.91499999997905,680.650000000227,952.9199999996927,1184.3399999997928,1497.1199999999953,1752.9400000002934,2008.7700000003679",49494949494949,images/tutyellowplanet.jpg,null,images/tutalien3,null,images/tutalien3,images/nothing.png,NA,practice,null,NA,NA,NA,NA,sub144
d3-animate-choice,24,119025,0.0-24.0,TRUE,TRUE,FALSE,TRUE,"""event"",""trial"",""time""
""blur"",""0"",""0""
""focus"",""0"",""0""
""blur"",""0"",""0""
""focus"",""0"",""0""
""blur"",""0"",""0""
""focus"",""0"",""0""
""blur"",""0"",""0""
""focus"",""1"",""1374""
""blur"",""2"",""4673""
""focus"",""2"",""6366""
""blur"",""5"",""14126""
""focus"",""5"",""17765""
""fullscreenenter"",""5"",""20143""
","""event"",""trial"",""time""
""blur"",""0"",""0""
""blur"",""0"",""0""
""blur"",""0"",""0""
""blur"",""0"",""0""
""blur"",""2"",""4673""
""blur"",""5"",""14126""
","""event"",""trial"",""time""
""focus"",""0"",""0""
""focus"",""0"",""0""
""focus"",""0"",""0""
""focus"",""1"",""1374""
""focus"",""2"",""6366""
""focus"",""5"",""17765""
","""event"",""trial"",""time""
""fullscreenenter"",""5"",""20143""
","
",137.14000000074157,NA,49,NA,NA,3000,1,"385.270000000688,649.1550000009884,928.8699999997625,1169.1650000011723,1409.069999999716,1656.9600000002538,1913.300000000163",49494949494949,images/tutyellowplanet.jpg,null,images/tutalien3,null,images/tutalien3,images/nothing.png,NA,practice,null,NA,NA,NA,NA,sub144
d3-animate-choice,25,121073,0.0-25.0,TRUE,TRUE,FALSE,TRUE,"""event"",""trial"",""time""
""blur"",""0"",""0""
""focus"",""0"",""0""
""blur"",""0"",""0""
""focus"",""0"",""0""
""blur"",""0"",""0""
""focus"",""0"",""0""
""blur"",""0"",""0""
""focus"",""1"",""1374""
""blur"",""2"",""4673""
""focus"",""2"",""6366""
""blur"",""5"",""14126""
""focus"",""5"",""17765""
""fullscreenenter"",""5"",""20143""
","""event"",""trial"",""time""
""blur"",""0"",""0""
""blur"",""0"",""0""
""blur"",""0"",""0""
""blur"",""0"",""0""
""blur"",""2"",""4673""
""blur"",""5"",""14126""
","""event"",""trial"",""time""
""focus"",""0"",""0""
""focus"",""0"",""0""
""focus"",""0"",""0""
""focus"",""1"",""1374""
""focus"",""2"",""6366""
""focus"",""5"",""17765""
","""event"",""trial"",""time""
""fullscreenenter"",""5"",""20143""
","
",41.18999999988591,NA,49,NA,NA,3000,1,"305.03500000119675,560.8549999996903,825.2449999999953,1113.3349999999919,1360.715000000695,1641.2199999995064,1888.8050000004878",49494949494949,images/tutyellowplanet.jpg,null,images/tutalien3,null,images/tutalien3,images/t.png,NA,practice,null,NA,NA,NA,NA,sub144
d3-animate-choice,26,123175,0.0-26.0,TRUE,TRUE,FALSE,TRUE,"""event"",""trial"",""time""
""blur"",""0"",""0""
""focus"",""0"",""0""
""blur"",""0"",""0""
""focus"",""0"",""0""
""blur"",""0"",""0""
""focus"",""0"",""0""
""blur"",""0"",""0""
""focus"",""1"",""1374""
""blur"",""2"",""4673""
""focus"",""2"",""6366""
""blur"",""5"",""14126""
""focus"",""5"",""17765""
""fullscreenenter"",""5"",""20143""
","""event"",""trial"",""time""
""blur"",""0"",""0""
""blur"",""0"",""0""
""blur"",""0"",""0""
""blur"",""0"",""0""
""blur"",""2"",""4673""
""blur"",""5"",""14126""
","""event"",""trial"",""time""
""focus"",""0"",""0""
""focus"",""0"",""0""
""focus"",""0"",""0""
""focus"",""1"",""1374""
""focus"",""2"",""6366""
""focus"",""5"",""17765""
","""event"",""trial"",""time""
""fullscreenenter"",""5"",""20143""
","
",96.73999999905936,NA,49,NA,NA,3000,1,"320.83499999862397,576.7099999993807,833.1500000004016,1088.51499999949,1304.8099999996484,1529.1049999996321,1744.8750000003492,1968.974999999802",4949494949494949,images/tutyellowplanet.jpg,null,images/tutalien3,null,images/tutalien3,images/t.png,NA,practice,null,NA,NA,NA,NA,sub144
d3-animate-choice,27,125266,0.0-27.0,TRUE,TRUE,FALSE,TRUE,"""event"",""trial"",""time""
""blur"",""0"",""0""
""focus"",""0"",""0""
""blur"",""0"",""0""
""focus"",""0"",""0""
""blur"",""0"",""0""
""focus"",""0"",""0""
""blur"",""0"",""0""
""focus"",""1"",""1374""
""blur"",""2"",""4673""
""focus"",""2"",""6366""
""blur"",""5"",""14126""
""focus"",""5"",""17765""
""fullscreenenter"",""5"",""20143""
","""event"",""trial"",""time""
""blur"",""0"",""0""
""blur"",""0"",""0""
""blur"",""0"",""0""
""blur"",""0"",""0""
""blur"",""2"",""4673""
""blur"",""5"",""14126""
","""event"",""trial"",""time""
""focus"",""0"",""0""
""focus"",""0"",""0""
""focus"",""0"",""0""
""focus"",""1"",""1374""
""focus"",""2"",""6366""
""focus"",""5"",""17765""
","""event"",""trial"",""time""
""fullscreenenter"",""5"",""20143""
","
",83.36500000039814,NA,49,NA,NA,3000,1,"315.40000000130385,523.4950000012759,723.60000000117,947.6599999997998,1131.2600000001257,1371.3800000004994,1563.280000000319,1771.3249999997206,2019.585000000021",494949494949494900,images/tutyellowplanet.jpg,null,images/tutalien3,null,images/tutalien3,images/nothing.png,NA,practice,null,NA,NA,NA,NA,sub144
d3-animate-choice,28,127441,0.0-28.0,TRUE,TRUE,FALSE,TRUE,"""event"",""trial"",""time""
""blur"",""0"",""0""
""focus"",""0"",""0""
""blur"",""0"",""0""
""focus"",""0"",""0""
""blur"",""0"",""0""
""focus"",""0"",""0""
""blur"",""0"",""0""
""focus"",""1"",""1374""
""blur"",""2"",""4673""
""focus"",""2"",""6366""
""blur"",""5"",""14126""
""focus"",""5"",""17765""
""fullscreenenter"",""5"",""20143""
","""event"",""trial"",""time""
""blur"",""0"",""0""
""blur"",""0"",""0""
""blur"",""0"",""0""
""blur"",""0"",""0""
""blur"",""2"",""4673""
""blur"",""5"",""14126""
","""event"",""trial"",""time""
""focus"",""0"",""0""
""focus"",""0"",""0""
""focus"",""0"",""0""
""focus"",""1"",""1374""
""focus"",""2"",""6366""
""focus"",""5"",""17765""
","""event"",""trial"",""time""
""fullscreenenter"",""5"",""20143""
","
",168.63000000012107,NA,49,NA,NA,3000,1,"376.70000000071013,584.5850000005157,816.4850000011793,1016.4750000003551,1232.5000000000873,1472.3100000010163,1672.6650000000664,1872.3800000007031,2096.4299999996147",494949494949494900,images/tutyellowplanet.jpg,null,images/tutalien3,null,images/tutalien3,images/t.png,NA,practice,null,NA,NA,NA,NA,sub144
d3-animate-choice,29,129574,0.0-29.0,TRUE,TRUE,FALSE,TRUE,"""event"",""trial"",""time""
""blur"",""0"",""0""
""focus"",""0"",""0""
""blur"",""0"",""0""
""focus"",""0"",""0""
""blur"",""0"",""0""
""focus"",""0"",""0""
""blur"",""0"",""0""
""focus"",""1"",""1374""
""blur"",""2"",""4673""
""focus"",""2"",""6366""
""blur"",""5"",""14126""
""focus"",""5"",""17765""
""fullscreenenter"",""5"",""20143""
","""event"",""trial"",""time""
""blur"",""0"",""0""
""blur"",""0"",""0""
""blur"",""0"",""0""
""blur"",""0"",""0""
""blur"",""2"",""4673""
""blur"",""5"",""14126""
","""event"",""trial"",""time""
""focus"",""0"",""0""
""focus"",""0"",""0""
""focus"",""0"",""0""
""focus"",""1"",""1374""
""focus"",""2"",""6366""
""focus"",""5"",""17765""
","""event"",""trial"",""time""
""fullscreenenter"",""5"",""20143""
","
",127.62000000113039,NA,49,NA,NA,3000,1,"367.4800000007963,631.1600000008184,855.745000000752,1207.8750000000582,1367.670000001468,1623.5250000008673,1879.8350000015635,2119.7250000004715",4949494949494949,images/tutyellowplanet.jpg,null,images/tutalien3,null,images/tutalien3,images/t.png,NA,practice,null,NA,NA,NA,NA,sub144
d3-instructions,30,131932,0.0-30.0,TRUE,TRUE,FALSE,TRUE,"""event"",""trial"",""time""
""blur"",""0"",""0""
""focus"",""0"",""0""
""blur"",""0"",""0""
""focus"",""0"",""0""
""blur"",""0"",""0""
""focus"",""0"",""0""
""blur"",""0"",""0""
""focus"",""1"",""1374""
""blur"",""2"",""4673""
""focus"",""2"",""6366""
""blur"",""5"",""14126""
""focus"",""5"",""17765""
""fullscreenenter"",""5"",""20143""
","""event"",""trial"",""time""
""blur"",""0"",""0""
""blur"",""0"",""0""
""blur"",""0"",""0""
""blur"",""0"",""0""
""blur"",""2"",""4673""
""blur"",""5"",""14126""
","""event"",""trial"",""time""
""focus"",""0"",""0""
""focus"",""0"",""0""
""focus"",""0"",""0""
""focus"",""1"",""1374""
""focus"",""2"",""6366""
""focus"",""5"",""17765""
","""event"",""trial"",""time""
""fullscreenenter"",""5"",""20143""
","
",NA,NA,NA,NA,NA,NA,NA,NA,NA,NA,NA,NA,NA,NA,NA,NA,NA,NA,NA,NA,NA,NA,sub144
d3-instructions,31,137125,0.0-31.0,TRUE,TRUE,FALSE,TRUE,"""event"",""trial"",""time""
""blur"",""0"",""0""
""focus"",""0"",""0""
""blur"",""0"",""0""
""focus"",""0"",""0""
""blur"",""0"",""0""
""focus"",""0"",""0""
""blur"",""0"",""0""
""focus"",""1"",""1374""
""blur"",""2"",""4673""
""focus"",""2"",""6366""
""blur"",""5"",""14126""
""focus"",""5"",""17765""
""fullscreenenter"",""5"",""20143""
","""event"",""trial"",""time""
""blur"",""0"",""0""
""blur"",""0"",""0""
""blur"",""0"",""0""
""blur"",""0"",""0""
""blur"",""2"",""4673""
""blur"",""5"",""14126""
","""event"",""trial"",""time""
""focus"",""0"",""0""
""focus"",""0"",""0""
""focus"",""0"",""0""
""focus"",""1"",""1374""
""focus"",""2"",""6366""
""focus"",""5"",""17765""
","""event"",""trial"",""time""
""fullscreenenter"",""5"",""20143""
","
",NA,NA,NA,NA,NA,NA,NA,NA,NA,NA,NA,NA,NA,NA,NA,NA,NA,NA,NA,NA,NA,NA,sub144
d3-instructions,32,140468,0.0-32.0,TRUE,TRUE,FALSE,TRUE,"""event"",""trial"",""time""
""blur"",""0"",""0""
""focus"",""0"",""0""
""blur"",""0"",""0""
""focus"",""0"",""0""
""blur"",""0"",""0""
""focus"",""0"",""0""
""blur"",""0"",""0""
""focus"",""1"",""1374""
""blur"",""2"",""4673""
""focus"",""2"",""6366""
""blur"",""5"",""14126""
""focus"",""5"",""17765""
""fullscreenenter"",""5"",""20143""
","""event"",""trial"",""time""
""blur"",""0"",""0""
""blur"",""0"",""0""
""blur"",""0"",""0""
""blur"",""0"",""0""
""blur"",""2"",""4673""
""blur"",""5"",""14126""
","""event"",""trial"",""time""
""focus"",""0"",""0""
""focus"",""0"",""0""
""focus"",""0"",""0""
""focus"",""1"",""1374""
""focus"",""2"",""6366""
""focus"",""5"",""17765""
","""event"",""trial"",""time""
""fullscreenenter"",""5"",""20143""
","
",NA,NA,NA,NA,NA,NA,NA,NA,NA,NA,NA,NA,NA,NA,NA,NA,NA,NA,NA,NA,NA,NA,sub144
d3-instructions,33,142588,0.0-33.0,TRUE,TRUE,FALSE,TRUE,"""event"",""trial"",""time""
""blur"",""0"",""0""
""focus"",""0"",""0""
""blur"",""0"",""0""
""focus"",""0"",""0""
""blur"",""0"",""0""
""focus"",""0"",""0""
""blur"",""0"",""0""
""focus"",""1"",""1374""
""blur"",""2"",""4673""
""focus"",""2"",""6366""
""blur"",""5"",""14126""
""focus"",""5"",""17765""
""fullscreenenter"",""5"",""20143""
","""event"",""trial"",""time""
""blur"",""0"",""0""
""blur"",""0"",""0""
""blur"",""0"",""0""
""blur"",""0"",""0""
""blur"",""2"",""4673""
""blur"",""5"",""14126""
","""event"",""trial"",""time""
""focus"",""0"",""0""
""focus"",""0"",""0""
""focus"",""0"",""0""
""focus"",""1"",""1374""
""focus"",""2"",""6366""
""focus"",""5"",""17765""
","""event"",""trial"",""time""
""fullscreenenter"",""5"",""20143""
","
",NA,NA,NA,NA,NA,NA,NA,NA,NA,NA,NA,NA,NA,NA,NA,NA,NA,NA,NA,NA,NA,NA,sub144
d3-animate-choice,34,145551,0.0-34.0,TRUE,TRUE,FALSE,TRUE,"""event"",""trial"",""time""
""blur"",""0"",""0""
""focus"",""0"",""0""
""blur"",""0"",""0""
""focus"",""0"",""0""
""blur"",""0"",""0""
""focus"",""0"",""0""
""blur"",""0"",""0""
""focus"",""1"",""1374""
""blur"",""2"",""4673""
""focus"",""2"",""6366""
""blur"",""5"",""14126""
""focus"",""5"",""17765""
""fullscreenenter"",""5"",""20143""
","""event"",""trial"",""time""
""blur"",""0"",""0""
""blur"",""0"",""0""
""blur"",""0"",""0""
""blur"",""0"",""0""
""blur"",""2"",""4673""
""blur"",""5"",""14126""
","""event"",""trial"",""time""
""focus"",""0"",""0""
""focus"",""0"",""0""
""focus"",""0"",""0""
""focus"",""1"",""1374""
""focus"",""2"",""6366""
""focus"",""5"",""17765""
","""event"",""trial"",""time""
""fullscreenenter"",""5"",""20143""
","
",957.8799999999464,NA,49,NA,NA,3000,1,NA,NA,images/tutgreenplanet.jpg,images/tutalien1,images/tutalien2,null,images/tutalien2,images/t.png,NA,practice,null,NA,NA,NA,NA,sub144
d3-animate-choice,35,148017,0.0-35.0,TRUE,TRUE,FALSE,TRUE,"""event"",""trial"",""time""
""blur"",""0"",""0""
""focus"",""0"",""0""
""blur"",""0"",""0""
""focus"",""0"",""0""
""blur"",""0"",""0""
""focus"",""0"",""0""
""blur"",""0"",""0""
""focus"",""1"",""1374""
""blur"",""2"",""4673""
""focus"",""2"",""6366""
""blur"",""5"",""14126""
""focus"",""5"",""17765""
""fullscreenenter"",""5"",""20143""
","""event"",""trial"",""time""
""blur"",""0"",""0""
""blur"",""0"",""0""
""blur"",""0"",""0""
""blur"",""0"",""0""
""blur"",""2"",""4673""
""blur"",""5"",""14126""
","""event"",""trial"",""time""
""focus"",""0"",""0""
""focus"",""0"",""0""
""focus"",""0"",""0""
""focus"",""1"",""1374""
""focus"",""2"",""6366""
""focus"",""5"",""17765""
","""event"",""trial"",""time""
""fullscreenenter"",""5"",""20143""
","
",458.7000000010594,NA,48,NA,NA,3000,1,NA,NA,images/tutgreenplanet.jpg,images/tutalien1,images/tutalien2,null,images/tutalien1,images/nothing.png,NA,practice,null,NA,NA,NA,NA,sub144
d3-animate-choice,36,150278,0.0-36.0,TRUE,TRUE,FALSE,TRUE,"""event"",""trial"",""time""
""blur"",""0"",""0""
""focus"",""0"",""0""
""blur"",""0"",""0""
""focus"",""0"",""0""
""blur"",""0"",""0""
""focus"",""0"",""0""
""blur"",""0"",""0""
""focus"",""1"",""1374""
""blur"",""2"",""4673""
""focus"",""2"",""6366""
""blur"",""5"",""14126""
""focus"",""5"",""17765""
""fullscreenenter"",""5"",""20143""
","""event"",""trial"",""time""
""blur"",""0"",""0""
""blur"",""0"",""0""
""blur"",""0"",""0""
""blur"",""0"",""0""
""blur"",""2"",""4673""
""blur"",""5"",""14126""
","""event"",""trial"",""time""
""focus"",""0"",""0""
""focus"",""0"",""0""
""focus"",""0"",""0""
""focus"",""1"",""1374""
""focus"",""2"",""6366""
""focus"",""5"",""17765""
","""event"",""trial"",""time""
""fullscreenenter"",""5"",""20143""
","
",256.8499999997439,NA,49,NA,NA,3000,1,2177.4199999999837,48,images/tutgreenplanet.jpg,images/tutalien1,images/tutalien2,null,images/tutalien2,images/nothing.png,NA,practice,null,NA,NA,NA,NA,sub144
d3-animate-choice,37,152865,0.0-37.0,TRUE,TRUE,FALSE,TRUE,"""event"",""trial"",""time""
""blur"",""0"",""0""
""focus"",""0"",""0""
""blur"",""0"",""0""
""focus"",""0"",""0""
""blur"",""0"",""0""
""focus"",""0"",""0""
""blur"",""0"",""0""
""focus"",""1"",""1374""
""blur"",""2"",""4673""
""focus"",""2"",""6366""
""blur"",""5"",""14126""
""focus"",""5"",""17765""
""fullscreenenter"",""5"",""20143""
","""event"",""trial"",""time""
""blur"",""0"",""0""
""blur"",""0"",""0""
""blur"",""0"",""0""
""blur"",""0"",""0""
""blur"",""2"",""4673""
""blur"",""5"",""14126""
","""event"",""trial"",""time""
""focus"",""0"",""0""
""focus"",""0"",""0""
""focus"",""0"",""0""
""focus"",""1"",""1374""
""focus"",""2"",""6366""
""focus"",""5"",""17765""
","""event"",""trial"",""time""
""fullscreenenter"",""5"",""20143""
","
",579.7000000002154,NA,48,NA,NA,3000,1,NA,NA,images/tutgreenplanet.jpg,images/tutalien1,images/tutalien2,null,images/tutalien1,images/nothing.png,NA,practice,null,NA,NA,NA,NA,sub144
d3-animate-choice,38,155117,0.0-38.0,TRUE,TRUE,FALSE,TRUE,"""event"",""trial"",""time""
""blur"",""0"",""0""
""focus"",""0"",""0""
""blur"",""0"",""0""
""focus"",""0"",""0""
""blur"",""0"",""0""
""focus"",""0"",""0""
""blur"",""0"",""0""
""focus"",""1"",""1374""
""blur"",""2"",""4673""
""focus"",""2"",""6366""
""blur"",""5"",""14126""
""focus"",""5"",""17765""
""fullscreenenter"",""5"",""20143""
","""event"",""trial"",""time""
""blur"",""0"",""0""
""blur"",""0"",""0""
""blur"",""0"",""0""
""blur"",""0"",""0""
""blur"",""2"",""4673""
""blur"",""5"",""14126""
","""event"",""trial"",""time""
""focus"",""0"",""0""
""focus"",""0"",""0""
""focus"",""0"",""0""
""focus"",""1"",""1374""
""focus"",""2"",""6366""
""focus"",""5"",""17765""
","""event"",""trial"",""time""
""fullscreenenter"",""5"",""20143""
","
",249.98999999844818,NA,49,NA,NA,3000,1,NA,NA,images/tutgreenplanet.jpg,images/tutalien1,images/tutalien2,null,images/tutalien2,images/nothing.png,NA,practice,null,NA,NA,NA,NA,sub144
d3-animate-choice,39,157521,0.0-39.0,TRUE,TRUE,FALSE,TRUE,"""event"",""trial"",""time""
""blur"",""0"",""0""
""focus"",""0"",""0""
""blur"",""0"",""0""
""focus"",""0"",""0""
""blur"",""0"",""0""
""focus"",""0"",""0""
""blur"",""0"",""0""
""focus"",""1"",""1374""
""blur"",""2"",""4673""
""focus"",""2"",""6366""
""blur"",""5"",""14126""
""focus"",""5"",""17765""
""fullscreenenter"",""5"",""20143""
","""event"",""trial"",""time""
""blur"",""0"",""0""
""blur"",""0"",""0""
""blur"",""0"",""0""
""blur"",""0"",""0""
""blur"",""2"",""4673""
""blur"",""5"",""14126""
","""event"",""trial"",""time""
""focus"",""0"",""0""
""focus"",""0"",""0""
""focus"",""0"",""0""
""focus"",""1"",""1374""
""focus"",""2"",""6366""
""focus"",""5"",""17765""
","""event"",""trial"",""time""
""fullscreenenter"",""5"",""20143""
","
",396.29500000044936,NA,48,NA,NA,3000,1,2323.9200000007113,49,images/tutgreenplanet.jpg,images/tutalien1,images/tutalien2,null,images/tutalien1,images/nothing.png,NA,practice,null,NA,NA,NA,NA,sub144
d3-animate-choice,40,159830,0.0-40.0,TRUE,TRUE,FALSE,TRUE,"""event"",""trial"",""time""
""blur"",""0"",""0""
""focus"",""0"",""0""
""blur"",""0"",""0""
""focus"",""0"",""0""
""blur"",""0"",""0""
""focus"",""0"",""0""
""blur"",""0"",""0""
""focus"",""1"",""1374""
""blur"",""2"",""4673""
""focus"",""2"",""6366""
""blur"",""5"",""14126""
""focus"",""5"",""17765""
""fullscreenenter"",""5"",""20143""
","""event"",""trial"",""time""
""blur"",""0"",""0""
""blur"",""0"",""0""
""blur"",""0"",""0""
""blur"",""0"",""0""
""blur"",""2"",""4673""
""blur"",""5"",""14126""
","""event"",""trial"",""time""
""focus"",""0"",""0""
""focus"",""0"",""0""
""focus"",""0"",""0""
""focus"",""1"",""1374""
""focus"",""2"",""6366""
""focus"",""5"",""17765""
","""event"",""trial"",""time""
""fullscreenenter"",""5"",""20143""
","
",304.8300000009476,NA,49,NA,NA,3000,1,NA,NA,images/tutgreenplanet.jpg,images/tutalien1,images/tutalien2,null,images/tutalien2,images/t.png,NA,practice,null,NA,NA,NA,NA,sub144
d3-animate-choice,41,162102,0.0-41.0,TRUE,TRUE,FALSE,TRUE,"""event"",""trial"",""time""
""blur"",""0"",""0""
""focus"",""0"",""0""
""blur"",""0"",""0""
""focus"",""0"",""0""
""blur"",""0"",""0""
""focus"",""0"",""0""
""blur"",""0"",""0""
""focus"",""1"",""1374""
""blur"",""2"",""4673""
""focus"",""2"",""6366""
""blur"",""5"",""14126""
""focus"",""5"",""17765""
""fullscreenenter"",""5"",""20143""
","""event"",""trial"",""time""
""blur"",""0"",""0""
""blur"",""0"",""0""
""blur"",""0"",""0""
""blur"",""0"",""0""
""blur"",""2"",""4673""
""blur"",""5"",""14126""
","""event"",""trial"",""time""
""focus"",""0"",""0""
""focus"",""0"",""0""
""focus"",""0"",""0""
""focus"",""1"",""1374""
""focus"",""2"",""6366""
""focus"",""5"",""17765""
","""event"",""trial"",""time""
""fullscreenenter"",""5"",""20143""
","
",268.86000000016065,NA,49,NA,NA,3000,1,1731.7800000000861,49,images/tutgreenplanet.jpg,images/tutalien1,images/tutalien2,null,images/tutalien2,images/t.png,NA,practice,null,NA,NA,NA,NA,sub144
d3-animate-choice,42,164246,0.0-42.0,TRUE,TRUE,FALSE,TRUE,"""event"",""trial"",""time""
""blur"",""0"",""0""
""focus"",""0"",""0""
""blur"",""0"",""0""
""focus"",""0"",""0""
""blur"",""0"",""0""
""focus"",""0"",""0""
""blur"",""0"",""0""
""focus"",""1"",""1374""
""blur"",""2"",""4673""
""focus"",""2"",""6366""
""blur"",""5"",""14126""
""focus"",""5"",""17765""
""fullscreenenter"",""5"",""20143""
","""event"",""trial"",""time""
""blur"",""0"",""0""
""blur"",""0"",""0""
""blur"",""0"",""0""
""blur"",""0"",""0""
""blur"",""2"",""4673""
""blur"",""5"",""14126""
","""event"",""trial"",""time""
""focus"",""0"",""0""
""focus"",""0"",""0""
""focus"",""0"",""0""
""focus"",""1"",""1374""
""focus"",""2"",""6366""
""focus"",""5"",""17765""
","""event"",""trial"",""time""
""fullscreenenter"",""5"",""20143""
","
",138.94499999878462,NA,49,NA,NA,3000,1,NA,NA,images/tutgreenplanet.jpg,images/tutalien1,images/tutalien2,null,images/tutalien2,images/t.png,NA,practice,null,NA,NA,NA,NA,sub144
d3-animate-choice,43,166500,0.0-43.0,TRUE,TRUE,FALSE,TRUE,"""event"",""trial"",""time""
""blur"",""0"",""0""
""focus"",""0"",""0""
""blur"",""0"",""0""
""focus"",""0"",""0""
""blur"",""0"",""0""
""focus"",""0"",""0""
""blur"",""0"",""0""
""focus"",""1"",""1374""
""blur"",""2"",""4673""
""focus"",""2"",""6366""
""blur"",""5"",""14126""
""focus"",""5"",""17765""
""fullscreenenter"",""5"",""20143""
","""event"",""trial"",""time""
""blur"",""0"",""0""
""blur"",""0"",""0""
""blur"",""0"",""0""
""blur"",""0"",""0""
""blur"",""2"",""4673""
""blur"",""5"",""14126""
","""event"",""trial"",""time""
""focus"",""0"",""0""
""focus"",""0"",""0""
""focus"",""0"",""0""
""focus"",""1"",""1374""
""focus"",""2"",""6366""
""focus"",""5"",""17765""
","""event"",""trial"",""time""
""fullscreenenter"",""5"",""20143""
","
",251.81500000145752,NA,49,NA,NA,3000,1,1862.0650000011665,49,images/tutgreenplanet.jpg,images/tutalien1,images/tutalien2,null,images/tutalien2,images/t.png,NA,practice,null,NA,NA,NA,NA,sub144
d3-instructions,44,179388,0.0-44.0,TRUE,TRUE,FALSE,TRUE,"""event"",""trial"",""time""
""blur"",""0"",""0""
""focus"",""0"",""0""
""blur"",""0"",""0""
""focus"",""0"",""0""
""blur"",""0"",""0""
""focus"",""0"",""0""
""blur"",""0"",""0""
""focus"",""1"",""1374""
""blur"",""2"",""4673""
""focus"",""2"",""6366""
""blur"",""5"",""14126""
""focus"",""5"",""17765""
""fullscreenenter"",""5"",""20143""
","""event"",""trial"",""time""
""blur"",""0"",""0""
""blur"",""0"",""0""
""blur"",""0"",""0""
""blur"",""0"",""0""
""blur"",""2"",""4673""
""blur"",""5"",""14126""
","""event"",""trial"",""time""
""focus"",""0"",""0""
""focus"",""0"",""0""
""focus"",""0"",""0""
""focus"",""1"",""1374""
""focus"",""2"",""6366""
""focus"",""5"",""17765""
","""event"",""trial"",""time""
""fullscreenenter"",""5"",""20143""
","
",NA,NA,NA,NA,NA,NA,NA,NA,NA,NA,NA,NA,NA,NA,NA,NA,NA,NA,NA,NA,NA,NA,sub144
d3-instructions,45,187458,0.0-45.0,TRUE,TRUE,FALSE,TRUE,"""event"",""trial"",""time""
""blur"",""0"",""0""
""focus"",""0"",""0""
""blur"",""0"",""0""
""focus"",""0"",""0""
""blur"",""0"",""0""
""focus"",""0"",""0""
""blur"",""0"",""0""
""focus"",""1"",""1374""
""blur"",""2"",""4673""
""focus"",""2"",""6366""
""blur"",""5"",""14126""
""focus"",""5"",""17765""
""fullscreenenter"",""5"",""20143""
","""event"",""trial"",""time""
""blur"",""0"",""0""
""blur"",""0"",""0""
""blur"",""0"",""0""
""blur"",""0"",""0""
""blur"",""2"",""4673""
""blur"",""5"",""14126""
","""event"",""trial"",""time""
""focus"",""0"",""0""
""focus"",""0"",""0""
""focus"",""0"",""0""
""focus"",""1"",""1374""
""focus"",""2"",""6366""
""focus"",""5"",""17765""
","""event"",""trial"",""time""
""fullscreenenter"",""5"",""20143""
","
",NA,NA,NA,NA,NA,NA,NA,NA,NA,NA,NA,NA,NA,NA,NA,NA,NA,NA,NA,NA,NA,NA,sub144
d3-instructions,46,190420,0.0-46.0,TRUE,TRUE,FALSE,TRUE,"""event"",""trial"",""time""
""blur"",""0"",""0""
""focus"",""0"",""0""
""blur"",""0"",""0""
""focus"",""0"",""0""
""blur"",""0"",""0""
""focus"",""0"",""0""
""blur"",""0"",""0""
""focus"",""1"",""1374""
""blur"",""2"",""4673""
""focus"",""2"",""6366""
""blur"",""5"",""14126""
""focus"",""5"",""17765""
""fullscreenenter"",""5"",""20143""
","""event"",""trial"",""time""
""blur"",""0"",""0""
""blur"",""0"",""0""
""blur"",""0"",""0""
""blur"",""0"",""0""
""blur"",""2"",""4673""
""blur"",""5"",""14126""
","""event"",""trial"",""time""
""focus"",""0"",""0""
""focus"",""0"",""0""
""focus"",""0"",""0""
""focus"",""1"",""1374""
""focus"",""2"",""6366""
""focus"",""5"",""17765""
","""event"",""trial"",""time""
""fullscreenenter"",""5"",""20143""
","
",NA,NA,NA,NA,NA,NA,NA,NA,NA,NA,NA,NA,NA,NA,NA,NA,NA,NA,NA,NA,NA,NA,sub144
d3-instructions,47,203395,0.0-47.0,TRUE,TRUE,FALSE,TRUE,"""event"",""trial"",""time""
""blur"",""0"",""0""
""focus"",""0"",""0""
""blur"",""0"",""0""
""focus"",""0"",""0""
""blur"",""0"",""0""
""focus"",""0"",""0""
""blur"",""0"",""0""
""focus"",""1"",""1374""
""blur"",""2"",""4673""
""focus"",""2"",""6366""
""blur"",""5"",""14126""
""focus"",""5"",""17765""
""fullscreenenter"",""5"",""20143""
","""event"",""trial"",""time""
""blur"",""0"",""0""
""blur"",""0"",""0""
""blur"",""0"",""0""
""blur"",""0"",""0""
""blur"",""2"",""4673""
""blur"",""5"",""14126""
","""event"",""trial"",""time""
""focus"",""0"",""0""
""focus"",""0"",""0""
""focus"",""0"",""0""
""focus"",""1"",""1374""
""focus"",""2"",""6366""
""focus"",""5"",""17765""
","""event"",""trial"",""time""
""fullscreenenter"",""5"",""20143""
","
",NA,NA,NA,NA,NA,NA,NA,NA,NA,NA,NA,NA,NA,NA,NA,NA,NA,NA,NA,NA,NA,NA,sub144
d3-instructions,48,206842,0.0-48.0,TRUE,TRUE,FALSE,TRUE,"""event"",""trial"",""time""
""blur"",""0"",""0""
""focus"",""0"",""0""
""blur"",""0"",""0""
""focus"",""0"",""0""
""blur"",""0"",""0""
""focus"",""0"",""0""
""blur"",""0"",""0""
""focus"",""1"",""1374""
""blur"",""2"",""4673""
""focus"",""2"",""6366""
""blur"",""5"",""14126""
""focus"",""5"",""17765""
""fullscreenenter"",""5"",""20143""
","""event"",""trial"",""time""
""blur"",""0"",""0""
""blur"",""0"",""0""
""blur"",""0"",""0""
""blur"",""0"",""0""
""blur"",""2"",""4673""
""blur"",""5"",""14126""
","""event"",""trial"",""time""
""focus"",""0"",""0""
""focus"",""0"",""0""
""focus"",""0"",""0""
""focus"",""1"",""1374""
""focus"",""2"",""6366""
""focus"",""5"",""17765""
","""event"",""trial"",""time""
""fullscreenenter"",""5"",""20143""
","
",NA,NA,NA,NA,NA,NA,NA,NA,NA,NA,NA,NA,NA,NA,NA,NA,NA,NA,NA,NA,NA,NA,sub144
d3-instructions,49,215698,0.0-49.0,TRUE,TRUE,FALSE,TRUE,"""event"",""trial"",""time""
""blur"",""0"",""0""
""focus"",""0"",""0""
""blur"",""0"",""0""
""focus"",""0"",""0""
""blur"",""0"",""0""
""focus"",""0"",""0""
""blur"",""0"",""0""
""focus"",""1"",""1374""
""blur"",""2"",""4673""
""focus"",""2"",""6366""
""blur"",""5"",""14126""
""focus"",""5"",""17765""
""fullscreenenter"",""5"",""20143""
","""event"",""trial"",""time""
""blur"",""0"",""0""
""blur"",""0"",""0""
""blur"",""0"",""0""
""blur"",""0"",""0""
""blur"",""2"",""4673""
""blur"",""5"",""14126""
","""event"",""trial"",""time""
""focus"",""0"",""0""
""focus"",""0"",""0""
""focus"",""0"",""0""
""focus"",""1"",""1374""
""focus"",""2"",""6366""
""focus"",""5"",""17765""
","""event"",""trial"",""time""
""fullscreenenter"",""5"",""20143""
","
",NA,NA,NA,NA,NA,NA,NA,NA,NA,NA,NA,NA,NA,NA,NA,NA,NA,NA,NA,NA,NA,NA,sub144
d3-instructions,50,220002,0.0-50.0,TRUE,TRUE,FALSE,TRUE,"""event"",""trial"",""time""
""blur"",""0"",""0""
""focus"",""0"",""0""
""blur"",""0"",""0""
""focus"",""0"",""0""
""blur"",""0"",""0""
""focus"",""0"",""0""
""blur"",""0"",""0""
""focus"",""1"",""1374""
""blur"",""2"",""4673""
""focus"",""2"",""6366""
""blur"",""5"",""14126""
""focus"",""5"",""17765""
""fullscreenenter"",""5"",""20143""
","""event"",""trial"",""time""
""blur"",""0"",""0""
""blur"",""0"",""0""
""blur"",""0"",""0""
""blur"",""0"",""0""
""blur"",""2"",""4673""
""blur"",""5"",""14126""
","""event"",""trial"",""time""
""focus"",""0"",""0""
""focus"",""0"",""0""
""focus"",""0"",""0""
""focus"",""1"",""1374""
""focus"",""2"",""6366""
""focus"",""5"",""17765""
","""event"",""trial"",""time""
""fullscreenenter"",""5"",""20143""
","
",NA,NA,NA,NA,NA,NA,NA,NA,NA,NA,NA,NA,NA,NA,NA,NA,NA,NA,NA,NA,NA,NA,sub144
d3-instructions,51,222108,0.0-51.0,TRUE,TRUE,FALSE,TRUE,"""event"",""trial"",""time""
""blur"",""0"",""0""
""focus"",""0"",""0""
""blur"",""0"",""0""
""focus"",""0"",""0""
""blur"",""0"",""0""
""focus"",""0"",""0""
""blur"",""0"",""0""
""focus"",""1"",""1374""
""blur"",""2"",""4673""
""focus"",""2"",""6366""
""blur"",""5"",""14126""
""focus"",""5"",""17765""
""fullscreenenter"",""5"",""20143""
","""event"",""trial"",""time""
""blur"",""0"",""0""
""blur"",""0"",""0""
""blur"",""0"",""0""
""blur"",""0"",""0""
""blur"",""2"",""4673""
""blur"",""5"",""14126""
","""event"",""trial"",""time""
""focus"",""0"",""0""
""focus"",""0"",""0""
""focus"",""0"",""0""
""focus"",""1"",""1374""
""focus"",""2"",""6366""
""focus"",""5"",""17765""
","""event"",""trial"",""time""
""fullscreenenter"",""5"",""20143""
","
",NA,NA,NA,NA,NA,NA,NA,NA,NA,NA,NA,NA,NA,NA,NA,NA,NA,NA,NA,NA,NA,NA,sub144
d3-instructions,52,223882,0.0-52.0,TRUE,TRUE,FALSE,TRUE,"""event"",""trial"",""time""
""blur"",""0"",""0""
""focus"",""0"",""0""
""blur"",""0"",""0""
""focus"",""0"",""0""
""blur"",""0"",""0""
""focus"",""0"",""0""
""blur"",""0"",""0""
""focus"",""1"",""1374""
""blur"",""2"",""4673""
""focus"",""2"",""6366""
""blur"",""5"",""14126""
""focus"",""5"",""17765""
""fullscreenenter"",""5"",""20143""
","""event"",""trial"",""time""
""blur"",""0"",""0""
""blur"",""0"",""0""
""blur"",""0"",""0""
""blur"",""0"",""0""
""blur"",""2"",""4673""
""blur"",""5"",""14126""
","""event"",""trial"",""time""
""focus"",""0"",""0""
""focus"",""0"",""0""
""focus"",""0"",""0""
""focus"",""1"",""1374""
""focus"",""2"",""6366""
""focus"",""5"",""17765""
","""event"",""trial"",""time""
""fullscreenenter"",""5"",""20143""
","
",NA,NA,NA,NA,NA,NA,NA,NA,NA,NA,NA,NA,NA,NA,NA,NA,NA,NA,NA,NA,NA,NA,sub144
d3-instructions,53,232369,0.0-53.0,TRUE,TRUE,FALSE,TRUE,"""event"",""trial"",""time""
""blur"",""0"",""0""
""focus"",""0"",""0""
""blur"",""0"",""0""
""focus"",""0"",""0""
""blur"",""0"",""0""
""focus"",""0"",""0""
""blur"",""0"",""0""
""focus"",""1"",""1374""
""blur"",""2"",""4673""
""focus"",""2"",""6366""
""blur"",""5"",""14126""
""focus"",""5"",""17765""
""fullscreenenter"",""5"",""20143""
","""event"",""trial"",""time""
""blur"",""0"",""0""
""blur"",""0"",""0""
""blur"",""0"",""0""
""blur"",""0"",""0""
""blur"",""2"",""4673""
""blur"",""5"",""14126""
","""event"",""trial"",""time""
""focus"",""0"",""0""
""focus"",""0"",""0""
""focus"",""0"",""0""
""focus"",""1"",""1374""
""focus"",""2"",""6366""
""focus"",""5"",""17765""
","""event"",""trial"",""time""
""fullscreenenter"",""5"",""20143""
","
",NA,NA,NA,NA,NA,NA,NA,NA,NA,NA,NA,NA,NA,NA,NA,NA,NA,NA,NA,NA,NA,NA,sub144
d3-instructions,54,242506,0.0-54.0,TRUE,TRUE,FALSE,TRUE,"""event"",""trial"",""time""
""blur"",""0"",""0""
""focus"",""0"",""0""
""blur"",""0"",""0""
""focus"",""0"",""0""
""blur"",""0"",""0""
""focus"",""0"",""0""
""blur"",""0"",""0""
""focus"",""1"",""1374""
""blur"",""2"",""4673""
""focus"",""2"",""6366""
""blur"",""5"",""14126""
""focus"",""5"",""17765""
""fullscreenenter"",""5"",""20143""
","""event"",""trial"",""time""
""blur"",""0"",""0""
""blur"",""0"",""0""
""blur"",""0"",""0""
""blur"",""0"",""0""
""blur"",""2"",""4673""
""blur"",""5"",""14126""
","""event"",""trial"",""time""
""focus"",""0"",""0""
""focus"",""0"",""0""
""focus"",""0"",""0""
""focus"",""1"",""1374""
""focus"",""2"",""6366""
""focus"",""5"",""17765""
","""event"",""trial"",""time""
""fullscreenenter"",""5"",""20143""
","
",NA,NA,NA,NA,NA,NA,NA,NA,NA,NA,NA,NA,NA,NA,NA,NA,NA,NA,NA,NA,NA,NA,sub144
d3-instructions,55,245985,0.0-55.0,TRUE,TRUE,FALSE,TRUE,"""event"",""trial"",""time""
""blur"",""0"",""0""
""focus"",""0"",""0""
""blur"",""0"",""0""
""focus"",""0"",""0""
""blur"",""0"",""0""
""focus"",""0"",""0""
""blur"",""0"",""0""
""focus"",""1"",""1374""
""blur"",""2"",""4673""
""focus"",""2"",""6366""
""blur"",""5"",""14126""
""focus"",""5"",""17765""
""fullscreenenter"",""5"",""20143""
","""event"",""trial"",""time""
""blur"",""0"",""0""
""blur"",""0"",""0""
""blur"",""0"",""0""
""blur"",""0"",""0""
""blur"",""2"",""4673""
""blur"",""5"",""14126""
","""event"",""trial"",""time""
""focus"",""0"",""0""
""focus"",""0"",""0""
""focus"",""0"",""0""
""focus"",""1"",""1374""
""focus"",""2"",""6366""
""focus"",""5"",""17765""
","""event"",""trial"",""time""
""fullscreenenter"",""5"",""20143""
","
",NA,NA,NA,NA,NA,NA,NA,NA,NA,NA,NA,NA,NA,NA,NA,NA,NA,NA,NA,NA,NA,NA,sub144
d3-instructions,56,250122,0.0-56.0,TRUE,TRUE,FALSE,TRUE,"""event"",""trial"",""time""
""blur"",""0"",""0""
""focus"",""0"",""0""
""blur"",""0"",""0""
""focus"",""0"",""0""
""blur"",""0"",""0""
""focus"",""0"",""0""
""blur"",""0"",""0""
""focus"",""1"",""1374""
""blur"",""2"",""4673""
""focus"",""2"",""6366""
""blur"",""5"",""14126""
""focus"",""5"",""17765""
""fullscreenenter"",""5"",""20143""
","""event"",""trial"",""time""
""blur"",""0"",""0""
""blur"",""0"",""0""
""blur"",""0"",""0""
""blur"",""0"",""0""
""blur"",""2"",""4673""
""blur"",""5"",""14126""
","""event"",""trial"",""time""
""focus"",""0"",""0""
""focus"",""0"",""0""
""focus"",""0"",""0""
""focus"",""1"",""1374""
""focus"",""2"",""6366""
""focus"",""5"",""17765""
","""event"",""trial"",""time""
""fullscreenenter"",""5"",""20143""
","
",NA,NA,NA,NA,NA,NA,NA,NA,NA,NA,NA,NA,NA,NA,NA,NA,NA,NA,NA,NA,NA,NA,sub144
d3-instructions,57,256009,0.0-57.0,TRUE,TRUE,FALSE,TRUE,"""event"",""trial"",""time""
""blur"",""0"",""0""
""focus"",""0"",""0""
""blur"",""0"",""0""
""focus"",""0"",""0""
""blur"",""0"",""0""
""focus"",""0"",""0""
""blur"",""0"",""0""
""focus"",""1"",""1374""
""blur"",""2"",""4673""
""focus"",""2"",""6366""
""blur"",""5"",""14126""
""focus"",""5"",""17765""
""fullscreenenter"",""5"",""20143""
","""event"",""trial"",""time""
""blur"",""0"",""0""
""blur"",""0"",""0""
""blur"",""0"",""0""
""blur"",""0"",""0""
""blur"",""2"",""4673""
""blur"",""5"",""14126""
","""event"",""trial"",""time""
""focus"",""0"",""0""
""focus"",""0"",""0""
""focus"",""0"",""0""
""focus"",""1"",""1374""
""focus"",""2"",""6366""
""focus"",""5"",""17765""
","""event"",""trial"",""time""
""fullscreenenter"",""5"",""20143""
","
",NA,NA,NA,NA,NA,NA,NA,NA,NA,NA,NA,NA,NA,NA,NA,NA,NA,NA,NA,NA,NA,NA,sub144
d3-instructions,58,259353,0.0-58.0,TRUE,TRUE,FALSE,TRUE,"""event"",""trial"",""time""
""blur"",""0"",""0""
""focus"",""0"",""0""
""blur"",""0"",""0""
""focus"",""0"",""0""
""blur"",""0"",""0""
""focus"",""0"",""0""
""blur"",""0"",""0""
""focus"",""1"",""1374""
""blur"",""2"",""4673""
""focus"",""2"",""6366""
""blur"",""5"",""14126""
""focus"",""5"",""17765""
""fullscreenenter"",""5"",""20143""
","""event"",""trial"",""time""
""blur"",""0"",""0""
""blur"",""0"",""0""
""blur"",""0"",""0""
""blur"",""0"",""0""
""blur"",""2"",""4673""
""blur"",""5"",""14126""
","""event"",""trial"",""time""
""focus"",""0"",""0""
""focus"",""0"",""0""
""focus"",""0"",""0""
""focus"",""1"",""1374""
""focus"",""2"",""6366""
""focus"",""5"",""17765""
","""event"",""trial"",""time""
""fullscreenenter"",""5"",""20143""
","
",NA,NA,NA,NA,NA,NA,NA,NA,NA,NA,NA,NA,NA,NA,NA,NA,NA,NA,NA,NA,NA,NA,sub144
d3-instructions,59,260969,0.0-59.0,TRUE,TRUE,FALSE,TRUE,"""event"",""trial"",""time""
""blur"",""0"",""0""
""focus"",""0"",""0""
""blur"",""0"",""0""
""focus"",""0"",""0""
""blur"",""0"",""0""
""focus"",""0"",""0""
""blur"",""0"",""0""
""focus"",""1"",""1374""
""blur"",""2"",""4673""
""focus"",""2"",""6366""
""blur"",""5"",""14126""
""focus"",""5"",""17765""
""fullscreenenter"",""5"",""20143""
","""event"",""trial"",""time""
""blur"",""0"",""0""
""blur"",""0"",""0""
""blur"",""0"",""0""
""blur"",""0"",""0""
""blur"",""2"",""4673""
""blur"",""5"",""14126""
","""event"",""trial"",""time""
""focus"",""0"",""0""
""focus"",""0"",""0""
""focus"",""0"",""0""
""focus"",""1"",""1374""
""focus"",""2"",""6366""
""focus"",""5"",""17765""
","""event"",""trial"",""time""
""fullscreenenter"",""5"",""20143""
","
",NA,NA,NA,NA,NA,NA,NA,NA,NA,NA,NA,NA,NA,NA,NA,NA,NA,NA,NA,NA,NA,NA,sub144
d3-instructions,60,262262,0.0-60.0,TRUE,TRUE,FALSE,TRUE,"""event"",""trial"",""time""
""blur"",""0"",""0""
""focus"",""0"",""0""
""blur"",""0"",""0""
""focus"",""0"",""0""
""blur"",""0"",""0""
""focus"",""0"",""0""
""blur"",""0"",""0""
""focus"",""1"",""1374""
""blur"",""2"",""4673""
""focus"",""2"",""6366""
""blur"",""5"",""14126""
""focus"",""5"",""17765""
""fullscreenenter"",""5"",""20143""
","""event"",""trial"",""time""
""blur"",""0"",""0""
""blur"",""0"",""0""
""blur"",""0"",""0""
""blur"",""0"",""0""
""blur"",""2"",""4673""
""blur"",""5"",""14126""
","""event"",""trial"",""time""
""focus"",""0"",""0""
""focus"",""0"",""0""
""focus"",""0"",""0""
""focus"",""1"",""1374""
""focus"",""2"",""6366""
""focus"",""5"",""17765""
","""event"",""trial"",""time""
""fullscreenenter"",""5"",""20143""
","
",NA,NA,NA,NA,NA,NA,NA,NA,NA,NA,NA,NA,NA,NA,NA,NA,NA,NA,NA,NA,NA,NA,sub144
d3-animate-choice,61,265980,0.0-61.0-0.0,TRUE,TRUE,FALSE,TRUE,"""event"",""trial"",""time""
""blur"",""0"",""0""
""focus"",""0"",""0""
""blur"",""0"",""0""
""focus"",""0"",""0""
""blur"",""0"",""0""
""focus"",""0"",""0""
""blur"",""0"",""0""
""focus"",""1"",""1374""
""blur"",""2"",""4673""
""focus"",""2"",""6366""
""blur"",""5"",""14126""
""focus"",""5"",""17765""
""fullscreenenter"",""5"",""20143""
","""event"",""trial"",""time""
""blur"",""0"",""0""
""blur"",""0"",""0""
""blur"",""0"",""0""
""blur"",""0"",""0""
""blur"",""2"",""4673""
""blur"",""5"",""14126""
","""event"",""trial"",""time""
""focus"",""0"",""0""
""focus"",""0"",""0""
""focus"",""0"",""0""
""focus"",""1"",""1374""
""focus"",""2"",""6366""
""focus"",""5"",""17765""
","""event"",""trial"",""time""
""fullscreenenter"",""5"",""20143""
","
",1711.830000000191,NA,49,NA,NA,3000,1,NA,NA,images/earth.jpg,images/tutrocket1,images/tutrocket2,null,images/tutrocket2,NA,1,practice,null,1,NA,NA,NA,sub144
d3-animate-choice,62,269502,0.0-61.0-1.0,TRUE,TRUE,FALSE,TRUE,"""event"",""trial"",""time""
""blur"",""0"",""0""
""focus"",""0"",""0""
""blur"",""0"",""0""
""focus"",""0"",""0""
""blur"",""0"",""0""
""focus"",""0"",""0""
""blur"",""0"",""0""
""focus"",""1"",""1374""
""blur"",""2"",""4673""
""focus"",""2"",""6366""
""blur"",""5"",""14126""
""focus"",""5"",""17765""
""fullscreenenter"",""5"",""20143""
","""event"",""trial"",""time""
""blur"",""0"",""0""
""blur"",""0"",""0""
""blur"",""0"",""0""
""blur"",""0"",""0""
""blur"",""2"",""4673""
""blur"",""5"",""14126""
","""event"",""trial"",""time""
""focus"",""0"",""0""
""focus"",""0"",""0""
""focus"",""0"",""0""
""focus"",""1"",""1374""
""focus"",""2"",""6366""
""focus"",""5"",""17765""
","""event"",""trial"",""time""
""fullscreenenter"",""5"",""20143""
","
",1512.6749999999302,NA,49,NA,NA,3000,1,NA,NA,images/tutyellowplanet.jpg,images/tutalien4,images/tutalien3,images/tutrocket2,images/tutalien3,images/nothing.png,2,practice,true,1,common,0,2020-06-29T02:11:07Z,sub144
two-step-fixation,63,270511,0.0-61.0-2.0,TRUE,TRUE,FALSE,TRUE,"""event"",""trial"",""time""
""blur"",""0"",""0""
""focus"",""0"",""0""
""blur"",""0"",""0""
""focus"",""0"",""0""
""blur"",""0"",""0""
""focus"",""0"",""0""
""blur"",""0"",""0""
""focus"",""1"",""1374""
""blur"",""2"",""4673""
""focus"",""2"",""6366""
""blur"",""5"",""14126""
""focus"",""5"",""17765""
""fullscreenenter"",""5"",""20143""
","""event"",""trial"",""time""
""blur"",""0"",""0""
""blur"",""0"",""0""
""blur"",""0"",""0""
""blur"",""0"",""0""
""blur"",""2"",""4673""
""blur"",""5"",""14126""
","""event"",""trial"",""time""
""focus"",""0"",""0""
""focus"",""0"",""0""
""focus"",""0"",""0""
""focus"",""1"",""1374""
""focus"",""2"",""6366""
""focus"",""5"",""17765""
","""event"",""trial"",""time""
""fullscreenenter"",""5"",""20143""
","
",NA,images/earth.jpg,NA,NA,NA,NA,NA,NA,NA,NA,NA,NA,NA,NA,NA,fixation,NA,NA,NA,NA,NA,NA,sub144
d3-animate-choice,64,273163,0.0-61.0-0.1,TRUE,TRUE,FALSE,TRUE,"""event"",""trial"",""time""
""blur"",""0"",""0""
""focus"",""0"",""0""
""blur"",""0"",""0""
""focus"",""0"",""0""
""blur"",""0"",""0""
""focus"",""0"",""0""
""blur"",""0"",""0""
""focus"",""1"",""1374""
""blur"",""2"",""4673""
""focus"",""2"",""6366""
""blur"",""5"",""14126""
""focus"",""5"",""17765""
""fullscreenenter"",""5"",""20143""
","""event"",""trial"",""time""
""blur"",""0"",""0""
""blur"",""0"",""0""
""blur"",""0"",""0""
""blur"",""0"",""0""
""blur"",""2"",""4673""
""blur"",""5"",""14126""
","""event"",""trial"",""time""
""focus"",""0"",""0""
""focus"",""0"",""0""
""focus"",""0"",""0""
""focus"",""1"",""1374""
""focus"",""2"",""6366""
""focus"",""5"",""17765""
","""event"",""trial"",""time""
""fullscreenenter"",""5"",""20143""
","
",647.910000001546,NA,48,NA,NA,3000,1,NA,NA,images/earth.jpg,images/tutrocket1,images/tutrocket2,null,images/tutrocket1,NA,1,practice,null,2,NA,NA,NA,sub144
d3-animate-choice,65,275854,0.0-61.0-1.1,TRUE,TRUE,FALSE,TRUE,"""event"",""trial"",""time""
""blur"",""0"",""0""
""focus"",""0"",""0""
""blur"",""0"",""0""
""focus"",""0"",""0""
""blur"",""0"",""0""
""focus"",""0"",""0""
""blur"",""0"",""0""
""focus"",""1"",""1374""
""blur"",""2"",""4673""
""focus"",""2"",""6366""
""blur"",""5"",""14126""
""focus"",""5"",""17765""
""fullscreenenter"",""5"",""20143""
","""event"",""trial"",""time""
""blur"",""0"",""0""
""blur"",""0"",""0""
""blur"",""0"",""0""
""blur"",""0"",""0""
""blur"",""2"",""4673""
""blur"",""5"",""14126""
","""event"",""trial"",""time""
""focus"",""0"",""0""
""focus"",""0"",""0""
""focus"",""0"",""0""
""focus"",""1"",""1374""
""focus"",""2"",""6366""
""focus"",""5"",""17765""
","""event"",""trial"",""time""
""fullscreenenter"",""5"",""20143""
","
",682.7250000005588,NA,48,NA,NA,3000,1,NA,NA,images/tutyellowplanet.jpg,images/tutalien4,images/tutalien3,images/tutrocket1,images/tutalien4,images/t.png,2,practice,false,2,rare,1,2020-06-29T02:11:14Z,sub144
two-step-fixation,66,276857,0.0-61.0-2.1,TRUE,TRUE,FALSE,TRUE,"""event"",""trial"",""time""
""blur"",""0"",""0""
""focus"",""0"",""0""
""blur"",""0"",""0""
""focus"",""0"",""0""
""blur"",""0"",""0""
""focus"",""0"",""0""
""blur"",""0"",""0""
""focus"",""1"",""1374""
""blur"",""2"",""4673""
""focus"",""2"",""6366""
""blur"",""5"",""14126""
""focus"",""5"",""17765""
""fullscreenenter"",""5"",""20143""
","""event"",""trial"",""time""
""blur"",""0"",""0""
""blur"",""0"",""0""
""blur"",""0"",""0""
""blur"",""0"",""0""
""blur"",""2"",""4673""
""blur"",""5"",""14126""
","""event"",""trial"",""time""
""focus"",""0"",""0""
""focus"",""0"",""0""
""focus"",""0"",""0""
""focus"",""1"",""1374""
""focus"",""2"",""6366""
""focus"",""5"",""17765""
","""event"",""trial"",""time""
""fullscreenenter"",""5"",""20143""
","
",NA,images/earth.jpg,NA,NA,NA,NA,NA,NA,NA,NA,NA,NA,NA,NA,NA,fixation,NA,NA,NA,NA,NA,NA,sub144
d3-animate-choice,67,279411,0.0-61.0-0.2,TRUE,TRUE,FALSE,TRUE,"""event"",""trial"",""time""
""blur"",""0"",""0""
""focus"",""0"",""0""
""blur"",""0"",""0""
""focus"",""0"",""0""
""blur"",""0"",""0""
""focus"",""0"",""0""
""blur"",""0"",""0""
""focus"",""1"",""1374""
""blur"",""2"",""4673""
""focus"",""2"",""6366""
""blur"",""5"",""14126""
""focus"",""5"",""17765""
""fullscreenenter"",""5"",""20143""
","""event"",""trial"",""time""
""blur"",""0"",""0""
""blur"",""0"",""0""
""blur"",""0"",""0""
""blur"",""0"",""0""
""blur"",""2"",""4673""
""blur"",""5"",""14126""
","""event"",""trial"",""time""
""focus"",""0"",""0""
""focus"",""0"",""0""
""focus"",""0"",""0""
""focus"",""1"",""1374""
""focus"",""2"",""6366""
""focus"",""5"",""17765""
","""event"",""trial"",""time""
""fullscreenenter"",""5"",""20143""
","
",550.1100000001024,NA,48,NA,NA,3000,1,NA,NA,images/earth.jpg,images/tutrocket1,images/tutrocket2,null,images/tutrocket1,NA,1,practice,null,2,NA,NA,NA,sub144
d3-animate-choice,68,282242,0.0-61.0-1.2,TRUE,TRUE,FALSE,TRUE,"""event"",""trial"",""time""
""blur"",""0"",""0""
""focus"",""0"",""0""
""blur"",""0"",""0""
""focus"",""0"",""0""
""blur"",""0"",""0""
""focus"",""0"",""0""
""blur"",""0"",""0""
""focus"",""1"",""1374""
""blur"",""2"",""4673""
""focus"",""2"",""6366""
""blur"",""5"",""14126""
""focus"",""5"",""17765""
""fullscreenenter"",""5"",""20143""
","""event"",""trial"",""time""
""blur"",""0"",""0""
""blur"",""0"",""0""
""blur"",""0"",""0""
""blur"",""0"",""0""
""blur"",""2"",""4673""
""blur"",""5"",""14126""
","""event"",""trial"",""time""
""focus"",""0"",""0""
""focus"",""0"",""0""
""focus"",""0"",""0""
""focus"",""1"",""1374""
""focus"",""2"",""6366""
""focus"",""5"",""17765""
","""event"",""trial"",""time""
""fullscreenenter"",""5"",""20143""
","
",826.6800000001094,NA,49,NA,NA,3000,1,NA,NA,images/tutgreenplanet.jpg,images/tutalien2,images/tutalien1,images/tutrocket1,images/tutalien1,images/t.png,2,practice,true,1,common,1,2020-06-29T02:11:20Z,sub144
two-step-fixation,69,283245,0.0-61.0-2.2,TRUE,TRUE,FALSE,TRUE,"""event"",""trial"",""time""
""blur"",""0"",""0""
""focus"",""0"",""0""
""blur"",""0"",""0""
""focus"",""0"",""0""
""blur"",""0"",""0""
""focus"",""0"",""0""
""blur"",""0"",""0""
""focus"",""1"",""1374""
""blur"",""2"",""4673""
""focus"",""2"",""6366""
""blur"",""5"",""14126""
""focus"",""5"",""17765""
""fullscreenenter"",""5"",""20143""
","""event"",""trial"",""time""
""blur"",""0"",""0""
""blur"",""0"",""0""
""blur"",""0"",""0""
""blur"",""0"",""0""
""blur"",""2"",""4673""
""blur"",""5"",""14126""
","""event"",""trial"",""time""
""focus"",""0"",""0""
""focus"",""0"",""0""
""focus"",""0"",""0""
""focus"",""1"",""1374""
""focus"",""2"",""6366""
""focus"",""5"",""17765""
","""event"",""trial"",""time""
""fullscreenenter"",""5"",""20143""
","
",NA,images/earth.jpg,NA,NA,NA,NA,NA,NA,NA,NA,NA,NA,NA,NA,NA,fixation,NA,NA,NA,NA,NA,NA,sub144
d3-animate-choice,70,285937,0.0-61.0-0.3,TRUE,TRUE,FALSE,TRUE,"""event"",""trial"",""time""
""blur"",""0"",""0""
""focus"",""0"",""0""
""blur"",""0"",""0""
""focus"",""0"",""0""
""blur"",""0"",""0""
""focus"",""0"",""0""
""blur"",""0"",""0""
""focus"",""1"",""1374""
""blur"",""2"",""4673""
""focus"",""2"",""6366""
""blur"",""5"",""14126""
""focus"",""5"",""17765""
""fullscreenenter"",""5"",""20143""
","""event"",""trial"",""time""
""blur"",""0"",""0""
""blur"",""0"",""0""
""blur"",""0"",""0""
""blur"",""0"",""0""
""blur"",""2"",""4673""
""blur"",""5"",""14126""
","""event"",""trial"",""time""
""focus"",""0"",""0""
""focus"",""0"",""0""
""focus"",""0"",""0""
""focus"",""1"",""1374""
""focus"",""2"",""6366""
""focus"",""5"",""17765""
","""event"",""trial"",""time""
""fullscreenenter"",""5"",""20143""
","
",687.9649999991525,NA,48,NA,NA,3000,1,NA,NA,images/earth.jpg,images/tutrocket1,images/tutrocket2,null,images/tutrocket1,NA,1,practice,null,2,NA,NA,NA,sub144
d3-animate-choice,71,288876,0.0-61.0-1.3,TRUE,TRUE,FALSE,TRUE,"""event"",""trial"",""time""
""blur"",""0"",""0""
""focus"",""0"",""0""
""blur"",""0"",""0""
""focus"",""0"",""0""
""blur"",""0"",""0""
""focus"",""0"",""0""
""blur"",""0"",""0""
""focus"",""1"",""1374""
""blur"",""2"",""4673""
""focus"",""2"",""6366""
""blur"",""5"",""14126""
""focus"",""5"",""17765""
""fullscreenenter"",""5"",""20143""
","""event"",""trial"",""time""
""blur"",""0"",""0""
""blur"",""0"",""0""
""blur"",""0"",""0""
""blur"",""0"",""0""
""blur"",""2"",""4673""
""blur"",""5"",""14126""
","""event"",""trial"",""time""
""focus"",""0"",""0""
""focus"",""0"",""0""
""focus"",""0"",""0""
""focus"",""1"",""1374""
""focus"",""2"",""6366""
""focus"",""5"",""17765""
","""event"",""trial"",""time""
""fullscreenenter"",""5"",""20143""
","
",931.9850000010338,NA,49,NA,NA,3000,1,NA,NA,images/tutyellowplanet.jpg,images/tutalien4,images/tutalien3,images/tutrocket1,images/tutalien3,images/nothing.png,2,practice,false,1,rare,0,2020-06-29T02:11:27Z,sub144
two-step-fixation,72,289884,0.0-61.0-2.3,TRUE,TRUE,FALSE,TRUE,"""event"",""trial"",""time""
""blur"",""0"",""0""
""focus"",""0"",""0""
""blur"",""0"",""0""
""focus"",""0"",""0""
""blur"",""0"",""0""
""focus"",""0"",""0""
""blur"",""0"",""0""
""focus"",""1"",""1374""
""blur"",""2"",""4673""
""focus"",""2"",""6366""
""blur"",""5"",""14126""
""focus"",""5"",""17765""
""fullscreenenter"",""5"",""20143""
","""event"",""trial"",""time""
""blur"",""0"",""0""
""blur"",""0"",""0""
""blur"",""0"",""0""
""blur"",""0"",""0""
""blur"",""2"",""4673""
""blur"",""5"",""14126""
","""event"",""trial"",""time""
""focus"",""0"",""0""
""focus"",""0"",""0""
""focus"",""0"",""0""
""focus"",""1"",""1374""
""focus"",""2"",""6366""
""focus"",""5"",""17765""
","""event"",""trial"",""time""
""fullscreenenter"",""5"",""20143""
","
",NA,images/earth.jpg,NA,NA,NA,NA,NA,NA,NA,NA,NA,NA,NA,NA,NA,fixation,NA,NA,NA,NA,NA,NA,sub144
d3-animate-choice,73,292147,0.0-61.0-0.4,TRUE,TRUE,FALSE,TRUE,"""event"",""trial"",""time""
""blur"",""0"",""0""
""focus"",""0"",""0""
""blur"",""0"",""0""
""focus"",""0"",""0""
""blur"",""0"",""0""
""focus"",""0"",""0""
""blur"",""0"",""0""
""focus"",""1"",""1374""
""blur"",""2"",""4673""
""focus"",""2"",""6366""
""blur"",""5"",""14126""
""focus"",""5"",""17765""
""fullscreenenter"",""5"",""20143""
","""event"",""trial"",""time""
""blur"",""0"",""0""
""blur"",""0"",""0""
""blur"",""0"",""0""
""blur"",""0"",""0""
""blur"",""2"",""4673""
""blur"",""5"",""14126""
","""event"",""trial"",""time""
""focus"",""0"",""0""
""focus"",""0"",""0""
""focus"",""0"",""0""
""focus"",""1"",""1374""
""focus"",""2"",""6366""
""focus"",""5"",""17765""
","""event"",""trial"",""time""
""fullscreenenter"",""5"",""20143""
","
",257.17500000062864,NA,48,NA,NA,3000,1,NA,NA,images/earth.jpg,images/tutrocket1,images/tutrocket2,null,images/tutrocket1,NA,1,practice,null,2,NA,NA,NA,sub144
d3-animate-choice,74,294922,0.0-61.0-1.4,TRUE,TRUE,FALSE,TRUE,"""event"",""trial"",""time""
""blur"",""0"",""0""
""focus"",""0"",""0""
""blur"",""0"",""0""
""focus"",""0"",""0""
""blur"",""0"",""0""
""focus"",""0"",""0""
""blur"",""0"",""0""
""focus"",""1"",""1374""
""blur"",""2"",""4673""
""focus"",""2"",""6366""
""blur"",""5"",""14126""
""focus"",""5"",""17765""
""fullscreenenter"",""5"",""20143""
","""event"",""trial"",""time""
""blur"",""0"",""0""
""blur"",""0"",""0""
""blur"",""0"",""0""
""blur"",""0"",""0""
""blur"",""2"",""4673""
""blur"",""5"",""14126""
","""event"",""trial"",""time""
""focus"",""0"",""0""
""focus"",""0"",""0""
""focus"",""0"",""0""
""focus"",""1"",""1374""
""focus"",""2"",""6366""
""focus"",""5"",""17765""
","""event"",""trial"",""time""
""fullscreenenter"",""5"",""20143""
","
",770.9350000004633,NA,49,NA,NA,3000,1,NA,NA,images/tutgreenplanet.jpg,images/tutalien2,images/tutalien1,images/tutrocket1,images/tutalien1,images/nothing.png,2,practice,true,1,common,0,2020-06-29T02:11:33Z,sub144
two-step-fixation,75,295929,0.0-61.0-2.4,TRUE,TRUE,FALSE,TRUE,"""event"",""trial"",""time""
""blur"",""0"",""0""
""focus"",""0"",""0""
""blur"",""0"",""0""
""focus"",""0"",""0""
""blur"",""0"",""0""
""focus"",""0"",""0""
""blur"",""0"",""0""
""focus"",""1"",""1374""
""blur"",""2"",""4673""
""focus"",""2"",""6366""
""blur"",""5"",""14126""
""focus"",""5"",""17765""
""fullscreenenter"",""5"",""20143""
","""event"",""trial"",""time""
""blur"",""0"",""0""
""blur"",""0"",""0""
""blur"",""0"",""0""
""blur"",""0"",""0""
""blur"",""2"",""4673""
""blur"",""5"",""14126""
","""event"",""trial"",""time""
""focus"",""0"",""0""
""focus"",""0"",""0""
""focus"",""0"",""0""
""focus"",""1"",""1374""
""focus"",""2"",""6366""
""focus"",""5"",""17765""
","""event"",""trial"",""time""
""fullscreenenter"",""5"",""20143""
","
",NA,images/earth.jpg,NA,NA,NA,NA,NA,NA,NA,NA,NA,NA,NA,NA,NA,fixation,NA,NA,NA,NA,NA,NA,sub144
d3-animate-choice,76,298250,0.0-61.0-0.5,TRUE,TRUE,FALSE,TRUE,"""event"",""trial"",""time""
""blur"",""0"",""0""
""focus"",""0"",""0""
""blur"",""0"",""0""
""focus"",""0"",""0""
""blur"",""0"",""0""
""focus"",""0"",""0""
""blur"",""0"",""0""
""focus"",""1"",""1374""
""blur"",""2"",""4673""
""focus"",""2"",""6366""
""blur"",""5"",""14126""
""focus"",""5"",""17765""
""fullscreenenter"",""5"",""20143""
","""event"",""trial"",""time""
""blur"",""0"",""0""
""blur"",""0"",""0""
""blur"",""0"",""0""
""blur"",""0"",""0""
""blur"",""2"",""4673""
""blur"",""5"",""14126""
","""event"",""trial"",""time""
""focus"",""0"",""0""
""focus"",""0"",""0""
""focus"",""0"",""0""
""focus"",""1"",""1374""
""focus"",""2"",""6366""
""focus"",""5"",""17765""
","""event"",""trial"",""time""
""fullscreenenter"",""5"",""20143""
","
",317.14500000089174,NA,48,NA,NA,3000,1,NA,NA,images/earth.jpg,images/tutrocket1,images/tutrocket2,null,images/tutrocket1,NA,1,practice,null,2,NA,NA,NA,sub144
d3-animate-choice,77,301268,0.0-61.0-1.5,TRUE,TRUE,FALSE,TRUE,"""event"",""trial"",""time""
""blur"",""0"",""0""
""focus"",""0"",""0""
""blur"",""0"",""0""
""focus"",""0"",""0""
""blur"",""0"",""0""
""focus"",""0"",""0""
""blur"",""0"",""0""
""focus"",""1"",""1374""
""blur"",""2"",""4673""
""focus"",""2"",""6366""
""blur"",""5"",""14126""
""focus"",""5"",""17765""
""fullscreenenter"",""5"",""20143""
","""event"",""trial"",""time""
""blur"",""0"",""0""
""blur"",""0"",""0""
""blur"",""0"",""0""
""blur"",""0"",""0""
""blur"",""2"",""4673""
""blur"",""5"",""14126""
","""event"",""trial"",""time""
""focus"",""0"",""0""
""focus"",""0"",""0""
""focus"",""0"",""0""
""focus"",""1"",""1374""
""focus"",""2"",""6366""
""focus"",""5"",""17765""
","""event"",""trial"",""time""
""fullscreenenter"",""5"",""20143""
","
",1011.819999999716,NA,49,NA,NA,3000,1,NA,NA,images/tutgreenplanet.jpg,images/tutalien2,images/tutalien1,images/tutrocket1,images/tutalien1,images/nothing.png,2,practice,true,1,common,0,2020-06-29T02:11:39Z,sub144
two-step-fixation,78,302272,0.0-61.0-2.5,TRUE,TRUE,FALSE,TRUE,"""event"",""trial"",""time""
""blur"",""0"",""0""
""focus"",""0"",""0""
""blur"",""0"",""0""
""focus"",""0"",""0""
""blur"",""0"",""0""
""focus"",""0"",""0""
""blur"",""0"",""0""
""focus"",""1"",""1374""
""blur"",""2"",""4673""
""focus"",""2"",""6366""
""blur"",""5"",""14126""
""focus"",""5"",""17765""
""fullscreenenter"",""5"",""20143""
","""event"",""trial"",""time""
""blur"",""0"",""0""
""blur"",""0"",""0""
""blur"",""0"",""0""
""blur"",""0"",""0""
""blur"",""2"",""4673""
""blur"",""5"",""14126""
","""event"",""trial"",""time""
""focus"",""0"",""0""
""focus"",""0"",""0""
""focus"",""0"",""0""
""focus"",""1"",""1374""
""focus"",""2"",""6366""
""focus"",""5"",""17765""
","""event"",""trial"",""time""
""fullscreenenter"",""5"",""20143""
","
",NA,images/earth.jpg,NA,NA,NA,NA,NA,NA,NA,NA,NA,NA,NA,NA,NA,fixation,NA,NA,NA,NA,NA,NA,sub144
d3-animate-choice,79,304553,0.0-61.0-0.6,TRUE,TRUE,FALSE,TRUE,"""event"",""trial"",""time""
""blur"",""0"",""0""
""focus"",""0"",""0""
""blur"",""0"",""0""
""focus"",""0"",""0""
""blur"",""0"",""0""
""focus"",""0"",""0""
""blur"",""0"",""0""
""focus"",""1"",""1374""
""blur"",""2"",""4673""
""focus"",""2"",""6366""
""blur"",""5"",""14126""
""focus"",""5"",""17765""
""fullscreenenter"",""5"",""20143""
""fullscreenexit"",""80"",""306939""
","""event"",""trial"",""time""
""blur"",""0"",""0""
""blur"",""0"",""0""
""blur"",""0"",""0""
""blur"",""0"",""0""
""blur"",""2"",""4673""
""blur"",""5"",""14126""
","""event"",""trial"",""time""
""focus"",""0"",""0""
""focus"",""0"",""0""
""focus"",""0"",""0""
""focus"",""1"",""1374""
""focus"",""2"",""6366""
""focus"",""5"",""17765""
","""event"",""trial"",""time""
""fullscreenenter"",""5"",""20143""
","""event"",""trial"",""time""
""fullscreenexit"",""80"",""306939""
",277.5000000001746,NA,49,NA,NA,3000,1,NA,NA,images/earth.jpg,images/tutrocket1,images/tutrocket2,null,images/tutrocket2,NA,1,practice,null,1,NA,NA,NA,sub144
d3-animate-choice,80,307458,0.0-61.0-1.6,TRUE,TRUE,FALSE,TRUE,"""event"",""trial"",""time""
""blur"",""0"",""0""
""focus"",""0"",""0""
""blur"",""0"",""0""
""focus"",""0"",""0""
""blur"",""0"",""0""
""focus"",""0"",""0""
""blur"",""0"",""0""
""focus"",""1"",""1374""
""blur"",""2"",""4673""
""focus"",""2"",""6366""
""blur"",""5"",""14126""
""focus"",""5"",""17765""
""fullscreenenter"",""5"",""20143""
""fullscreenexit"",""80"",""306939""
""blur"",""81"",""308417""
","""event"",""trial"",""time""
""blur"",""0"",""0""
""blur"",""0"",""0""
""blur"",""0"",""0""
""blur"",""0"",""0""
""blur"",""2"",""4673""
""blur"",""5"",""14126""
""blur"",""81"",""308417""
","""event"",""trial"",""time""
""focus"",""0"",""0""
""focus"",""0"",""0""
""focus"",""0"",""0""
""focus"",""1"",""1374""
""focus"",""2"",""6366""
""focus"",""5"",""17765""
","""event"",""trial"",""time""
""fullscreenenter"",""5"",""20143""
","""event"",""trial"",""time""
""fullscreenexit"",""80"",""306939""
",516.1200000002282,NA,48,NA,NA,3000,1,NA,NA,images/tutyellowplanet.jpg,images/tutalien4,images/tutalien3,images/tutrocket2,images/tutalien4,images/nothing.png,2,practice,true,2,common,0,2020-06-29T02:11:45Z,sub144
two-step-fixation,81,309048,0.0-61.0-2.6,TRUE,TRUE,FALSE,TRUE,"""event"",""trial"",""time""
""blur"",""0"",""0""
""focus"",""0"",""0""
""blur"",""0"",""0""
""focus"",""0"",""0""
""blur"",""0"",""0""
""focus"",""0"",""0""
""blur"",""0"",""0""
""focus"",""1"",""1374""
""blur"",""2"",""4673""
""focus"",""2"",""6366""
""blur"",""5"",""14126""
""focus"",""5"",""17765""
""fullscreenenter"",""5"",""20143""
""fullscreenexit"",""80"",""306939""
""blur"",""81"",""308417""
""focus"",""82"",""312827""
","""event"",""trial"",""time""
""blur"",""0"",""0""
""blur"",""0"",""0""
""blur"",""0"",""0""
""blur"",""0"",""0""
""blur"",""2"",""4673""
""blur"",""5"",""14126""
""blur"",""81"",""308417""
","""event"",""trial"",""time""
""focus"",""0"",""0""
""focus"",""0"",""0""
""focus"",""0"",""0""
""focus"",""1"",""1374""
""focus"",""2"",""6366""
""focus"",""5"",""17765""
""focus"",""82"",""312827""
","""event"",""trial"",""time""
""fullscreenenter"",""5"",""20143""
","""event"",""trial"",""time""
""fullscreenexit"",""80"",""306939""
",NA,images/earth.jpg,NA,NA,NA,NA,NA,NA,NA,NA,NA,NA,NA,NA,NA,fixation,NA,NA,NA,NA,NA,NA,sub144
d3-animate-choice,82,313055,0.0-61.0-0.7,TRUE,TRUE,FALSE,TRUE,"""event"",""trial"",""time""
""blur"",""0"",""0""
""focus"",""0"",""0""
""blur"",""0"",""0""
""focus"",""0"",""0""
""blur"",""0"",""0""
""focus"",""0"",""0""
""blur"",""0"",""0""
""focus"",""1"",""1374""
""blur"",""2"",""4673""
""focus"",""2"",""6366""
""blur"",""5"",""14126""
""focus"",""5"",""17765""
""fullscreenenter"",""5"",""20143""
""fullscreenexit"",""80"",""306939""
""blur"",""81"",""308417""
""focus"",""82"",""312827""
","""event"",""trial"",""time""
""blur"",""0"",""0""
""blur"",""0"",""0""
""blur"",""0"",""0""
""blur"",""0"",""0""
""blur"",""2"",""4673""
""blur"",""5"",""14126""
""blur"",""81"",""308417""
","""event"",""trial"",""time""
""focus"",""0"",""0""
""focus"",""0"",""0""
""focus"",""0"",""0""
""focus"",""1"",""1374""
""focus"",""2"",""6366""
""focus"",""5"",""17765""
""focus"",""82"",""312827""
","""event"",""trial"",""time""
""fullscreenenter"",""5"",""20143""
","""event"",""trial"",""time""
""fullscreenexit"",""80"",""306939""
",null,NA,null,NA,NA,3000,0,NA,NA,images/earth.jpg,images/tutrocket1,images/tutrocket2,null,NA,NA,1,practice,null,NA,NA,NA,NA,sub144
d3-animate-choice,83,314063,0.0-61.0-1.7,TRUE,TRUE,FALSE,TRUE,"""event"",""trial"",""time""
""blur"",""0"",""0""
""focus"",""0"",""0""
""blur"",""0"",""0""
""focus"",""0"",""0""
""blur"",""0"",""0""
""focus"",""0"",""0""
""blur"",""0"",""0""
""focus"",""1"",""1374""
""blur"",""2"",""4673""
""focus"",""2"",""6366""
""blur"",""5"",""14126""
""focus"",""5"",""17765""
""fullscreenenter"",""5"",""20143""
""fullscreenexit"",""80"",""306939""
""blur"",""81"",""308417""
""focus"",""82"",""312827""
","""event"",""trial"",""time""
""blur"",""0"",""0""
""blur"",""0"",""0""
""blur"",""0"",""0""
""blur"",""0"",""0""
""blur"",""2"",""4673""
""blur"",""5"",""14126""
""blur"",""81"",""308417""
","""event"",""trial"",""time""
""focus"",""0"",""0""
""focus"",""0"",""0""
""focus"",""0"",""0""
""focus"",""1"",""1374""
""focus"",""2"",""6366""
""focus"",""5"",""17765""
""focus"",""82"",""312827""
","""event"",""trial"",""time""
""fullscreenenter"",""5"",""20143""
","""event"",""trial"",""time""
""fullscreenexit"",""80"",""306939""
",154.48999999900116,NA,49,NA,NA,0,0,NA,NA,images/earth.jpg,images/tutrocket1,images/tutrocket2,null,NA,NA,2,practice,null,1,NA,0,2020-06-29T02:11:52Z,sub144
two-step-fixation,84,315067,0.0-61.0-2.7,TRUE,TRUE,FALSE,TRUE,"""event"",""trial"",""time""
""blur"",""0"",""0""
""focus"",""0"",""0""
""blur"",""0"",""0""
""focus"",""0"",""0""
""blur"",""0"",""0""
""focus"",""0"",""0""
""blur"",""0"",""0""
""focus"",""1"",""1374""
""blur"",""2"",""4673""
""focus"",""2"",""6366""
""blur"",""5"",""14126""
""focus"",""5"",""17765""
""fullscreenenter"",""5"",""20143""
""fullscreenexit"",""80"",""306939""
""blur"",""81"",""308417""
""focus"",""82"",""312827""
","""event"",""trial"",""time""
""blur"",""0"",""0""
""blur"",""0"",""0""
""blur"",""0"",""0""
""blur"",""0"",""0""
""blur"",""2"",""4673""
""blur"",""5"",""14126""
""blur"",""81"",""308417""
","""event"",""trial"",""time""
""focus"",""0"",""0""
""focus"",""0"",""0""
""focus"",""0"",""0""
""focus"",""1"",""1374""
""focus"",""2"",""6366""
""focus"",""5"",""17765""
""focus"",""82"",""312827""
","""event"",""trial"",""time""
""fullscreenenter"",""5"",""20143""
","""event"",""trial"",""time""
""fullscreenexit"",""80"",""306939""
",NA,images/earth.jpg,NA,NA,NA,NA,NA,NA,NA,NA,NA,NA,NA,NA,NA,fixation,NA,NA,NA,NA,NA,NA,sub144
d3-animate-choice,85,318799,0.0-61.0-0.8,TRUE,TRUE,FALSE,TRUE,"""event"",""trial"",""time""
""blur"",""0"",""0""
""focus"",""0"",""0""
""blur"",""0"",""0""
""focus"",""0"",""0""
""blur"",""0"",""0""
""focus"",""0"",""0""
""blur"",""0"",""0""
""focus"",""1"",""1374""
""blur"",""2"",""4673""
""focus"",""2"",""6366""
""blur"",""5"",""14126""
""focus"",""5"",""17765""
""fullscreenenter"",""5"",""20143""
""fullscreenexit"",""80"",""306939""
""blur"",""81"",""308417""
""focus"",""82"",""312827""
","""event"",""trial"",""time""
""blur"",""0"",""0""
""blur"",""0"",""0""
""blur"",""0"",""0""
""blur"",""0"",""0""
""blur"",""2"",""4673""
""blur"",""5"",""14126""
""blur"",""81"",""308417""
","""event"",""trial"",""time""
""focus"",""0"",""0""
""focus"",""0"",""0""
""focus"",""0"",""0""
""focus"",""1"",""1374""
""focus"",""2"",""6366""
""focus"",""5"",""17765""
""focus"",""82"",""312827""
","""event"",""trial"",""time""
""fullscreenenter"",""5"",""20143""
","""event"",""trial"",""time""
""fullscreenexit"",""80"",""306939""
",1290.2900000008522,NA,49,NA,NA,3000,1,NA,NA,images/earth.jpg,images/tutrocket1,images/tutrocket2,null,images/tutrocket2,NA,1,practice,null,1,NA,NA,NA,sub144
d3-animate-choice,86,322293,0.0-61.0-1.8,TRUE,TRUE,FALSE,TRUE,"""event"",""trial"",""time""
""blur"",""0"",""0""
""focus"",""0"",""0""
""blur"",""0"",""0""
""focus"",""0"",""0""
""blur"",""0"",""0""
""focus"",""0"",""0""
""blur"",""0"",""0""
""focus"",""1"",""1374""
""blur"",""2"",""4673""
""focus"",""2"",""6366""
""blur"",""5"",""14126""
""focus"",""5"",""17765""
""fullscreenenter"",""5"",""20143""
""fullscreenexit"",""80"",""306939""
""blur"",""81"",""308417""
""focus"",""82"",""312827""
","""event"",""trial"",""time""
""blur"",""0"",""0""
""blur"",""0"",""0""
""blur"",""0"",""0""
""blur"",""0"",""0""
""blur"",""2"",""4673""
""blur"",""5"",""14126""
""blur"",""81"",""308417""
","""event"",""trial"",""time""
""focus"",""0"",""0""
""focus"",""0"",""0""
""focus"",""0"",""0""
""focus"",""1"",""1374""
""focus"",""2"",""6366""
""focus"",""5"",""17765""
""focus"",""82"",""312827""
","""event"",""trial"",""time""
""fullscreenenter"",""5"",""20143""
","""event"",""trial"",""time""
""fullscreenexit"",""80"",""306939""
",1485.6499999987427,NA,49,NA,NA,3000,1,NA,NA,images/tutgreenplanet.jpg,images/tutalien2,images/tutalien1,images/tutrocket2,images/tutalien1,images/nothing.png,2,practice,false,1,rare,0,2020-06-29T02:12:00Z,sub144
two-step-fixation,87,323299,0.0-61.0-2.8,TRUE,TRUE,FALSE,TRUE,"""event"",""trial"",""time""
""blur"",""0"",""0""
""focus"",""0"",""0""
""blur"",""0"",""0""
""focus"",""0"",""0""
""blur"",""0"",""0""
""focus"",""0"",""0""
""blur"",""0"",""0""
""focus"",""1"",""1374""
""blur"",""2"",""4673""
""focus"",""2"",""6366""
""blur"",""5"",""14126""
""focus"",""5"",""17765""
""fullscreenenter"",""5"",""20143""
""fullscreenexit"",""80"",""306939""
""blur"",""81"",""308417""
""focus"",""82"",""312827""
","""event"",""trial"",""time""
""blur"",""0"",""0""
""blur"",""0"",""0""
""blur"",""0"",""0""
""blur"",""0"",""0""
""blur"",""2"",""4673""
""blur"",""5"",""14126""
""blur"",""81"",""308417""
","""event"",""trial"",""time""
""focus"",""0"",""0""
""focus"",""0"",""0""
""focus"",""0"",""0""
""focus"",""1"",""1374""
""focus"",""2"",""6366""
""focus"",""5"",""17765""
""focus"",""82"",""312827""
","""event"",""trial"",""time""
""fullscreenenter"",""5"",""20143""
","""event"",""trial"",""time""
""fullscreenexit"",""80"",""306939""
",NA,images/earth.jpg,NA,NA,NA,NA,NA,NA,NA,NA,NA,NA,NA,NA,NA,fixation,NA,NA,NA,NA,NA,NA,sub144
d3-animate-choice,88,325761,0.0-61.0-0.9,TRUE,TRUE,FALSE,TRUE,"""event"",""trial"",""time""
""blur"",""0"",""0""
""focus"",""0"",""0""
""blur"",""0"",""0""
""focus"",""0"",""0""
""blur"",""0"",""0""
""focus"",""0"",""0""
""blur"",""0"",""0""
""focus"",""1"",""1374""
""blur"",""2"",""4673""
""focus"",""2"",""6366""
""blur"",""5"",""14126""
""focus"",""5"",""17765""
""fullscreenenter"",""5"",""20143""
""fullscreenexit"",""80"",""306939""
""blur"",""81"",""308417""
""focus"",""82"",""312827""
","""event"",""trial"",""time""
""blur"",""0"",""0""
""blur"",""0"",""0""
""blur"",""0"",""0""
""blur"",""0"",""0""
""blur"",""2"",""4673""
""blur"",""5"",""14126""
""blur"",""81"",""308417""
","""event"",""trial"",""time""
""focus"",""0"",""0""
""focus"",""0"",""0""
""focus"",""0"",""0""
""focus"",""1"",""1374""
""focus"",""2"",""6366""
""focus"",""5"",""17765""
""focus"",""82"",""312827""
","""event"",""trial"",""time""
""fullscreenenter"",""5"",""20143""
","""event"",""trial"",""time""
""fullscreenexit"",""80"",""306939""
",456.89000000129454,NA,49,NA,NA,3000,1,NA,NA,images/earth.jpg,images/tutrocket1,images/tutrocket2,null,images/tutrocket2,NA,1,practice,null,1,NA,NA,NA,sub144
d3-animate-choice,89,328530,0.0-61.0-1.9,TRUE,TRUE,FALSE,TRUE,"""event"",""trial"",""time""
""blur"",""0"",""0""
""focus"",""0"",""0""
""blur"",""0"",""0""
""focus"",""0"",""0""
""blur"",""0"",""0""
""focus"",""0"",""0""
""blur"",""0"",""0""
""focus"",""1"",""1374""
""blur"",""2"",""4673""
""focus"",""2"",""6366""
""blur"",""5"",""14126""
""focus"",""5"",""17765""
""fullscreenenter"",""5"",""20143""
""fullscreenexit"",""80"",""306939""
""blur"",""81"",""308417""
""focus"",""82"",""312827""
","""event"",""trial"",""time""
""blur"",""0"",""0""
""blur"",""0"",""0""
""blur"",""0"",""0""
""blur"",""0"",""0""
""blur"",""2"",""4673""
""blur"",""5"",""14126""
""blur"",""81"",""308417""
","""event"",""trial"",""time""
""focus"",""0"",""0""
""focus"",""0"",""0""
""focus"",""0"",""0""
""focus"",""1"",""1374""
""focus"",""2"",""6366""
""focus"",""5"",""17765""
""focus"",""82"",""312827""
","""event"",""trial"",""time""
""fullscreenenter"",""5"",""20143""
","""event"",""trial"",""time""
""fullscreenexit"",""80"",""306939""
",763.9949999993551,NA,49,NA,NA,3000,1,NA,NA,images/tutyellowplanet.jpg,images/tutalien4,images/tutalien3,images/tutrocket2,images/tutalien3,images/nothing.png,2,practice,true,1,common,0,2020-06-29T02:12:06Z,sub144
two-step-fixation,90,329534,0.0-61.0-2.9,TRUE,TRUE,FALSE,TRUE,"""event"",""trial"",""time""
""blur"",""0"",""0""
""focus"",""0"",""0""
""blur"",""0"",""0""
""focus"",""0"",""0""
""blur"",""0"",""0""
""focus"",""0"",""0""
""blur"",""0"",""0""
""focus"",""1"",""1374""
""blur"",""2"",""4673""
""focus"",""2"",""6366""
""blur"",""5"",""14126""
""focus"",""5"",""17765""
""fullscreenenter"",""5"",""20143""
""fullscreenexit"",""80"",""306939""
""blur"",""81"",""308417""
""focus"",""82"",""312827""
","""event"",""trial"",""time""
""blur"",""0"",""0""
""blur"",""0"",""0""
""blur"",""0"",""0""
""blur"",""0"",""0""
""blur"",""2"",""4673""
""blur"",""5"",""14126""
""blur"",""81"",""308417""
","""event"",""trial"",""time""
""focus"",""0"",""0""
""focus"",""0"",""0""
""focus"",""0"",""0""
""focus"",""1"",""1374""
""focus"",""2"",""6366""
""focus"",""5"",""17765""
""focus"",""82"",""312827""
","""event"",""trial"",""time""
""fullscreenenter"",""5"",""20143""
","""event"",""trial"",""time""
""fullscreenexit"",""80"",""306939""
",NA,images/earth.jpg,NA,NA,NA,NA,NA,NA,NA,NA,NA,NA,NA,NA,NA,fixation,NA,NA,NA,NA,NA,NA,sub144
d3-animate-choice,91,331555,0.0-61.0-0.10,TRUE,TRUE,FALSE,TRUE,"""event"",""trial"",""time""
""blur"",""0"",""0""
""focus"",""0"",""0""
""blur"",""0"",""0""
""focus"",""0"",""0""
""blur"",""0"",""0""
""focus"",""0"",""0""
""blur"",""0"",""0""
""focus"",""1"",""1374""
""blur"",""2"",""4673""
""focus"",""2"",""6366""
""blur"",""5"",""14126""
""focus"",""5"",""17765""
""fullscreenenter"",""5"",""20143""
""fullscreenexit"",""80"",""306939""
""blur"",""81"",""308417""
""focus"",""82"",""312827""
","""event"",""trial"",""time""
""blur"",""0"",""0""
""blur"",""0"",""0""
""blur"",""0"",""0""
""blur"",""0"",""0""
""blur"",""2"",""4673""
""blur"",""5"",""14126""
""blur"",""81"",""308417""
","""event"",""trial"",""time""
""focus"",""0"",""0""
""focus"",""0"",""0""
""focus"",""0"",""0""
""focus"",""1"",""1374""
""focus"",""2"",""6366""
""focus"",""5"",""17765""
""focus"",""82"",""312827""
","""event"",""trial"",""time""
""fullscreenenter"",""5"",""20143""
","""event"",""trial"",""time""
""fullscreenexit"",""80"",""306939""
",14.880000000586733,NA,48,NA,NA,3000,1,NA,NA,images/earth.jpg,images/tutrocket1,images/tutrocket2,null,images/tutrocket1,NA,1,practice,null,2,NA,NA,NA,sub144
d3-animate-choice,92,334122,0.0-61.0-1.10,TRUE,TRUE,FALSE,TRUE,"""event"",""trial"",""time""
""blur"",""0"",""0""
""focus"",""0"",""0""
""blur"",""0"",""0""
""focus"",""0"",""0""
""blur"",""0"",""0""
""focus"",""0"",""0""
""blur"",""0"",""0""
""focus"",""1"",""1374""
""blur"",""2"",""4673""
""focus"",""2"",""6366""
""blur"",""5"",""14126""
""focus"",""5"",""17765""
""fullscreenenter"",""5"",""20143""
""fullscreenexit"",""80"",""306939""
""blur"",""81"",""308417""
""focus"",""82"",""312827""
","""event"",""trial"",""time""
""blur"",""0"",""0""
""blur"",""0"",""0""
""blur"",""0"",""0""
""blur"",""0"",""0""
""blur"",""2"",""4673""
""blur"",""5"",""14126""
""blur"",""81"",""308417""
","""event"",""trial"",""time""
""focus"",""0"",""0""
""focus"",""0"",""0""
""focus"",""0"",""0""
""focus"",""1"",""1374""
""focus"",""2"",""6366""
""focus"",""5"",""17765""
""focus"",""82"",""312827""
","""event"",""trial"",""time""
""fullscreenenter"",""5"",""20143""
","""event"",""trial"",""time""
""fullscreenexit"",""80"",""306939""
",562.6750000010943,NA,49,NA,NA,3000,1,NA,NA,images/tutgreenplanet.jpg,images/tutalien2,images/tutalien1,images/tutrocket1,images/tutalien1,images/t.png,2,practice,true,1,common,1,2020-06-29T02:12:12Z,sub144
two-step-fixation,93,335127,0.0-61.0-2.10,TRUE,TRUE,FALSE,TRUE,"""event"",""trial"",""time""
""blur"",""0"",""0""
""focus"",""0"",""0""
""blur"",""0"",""0""
""focus"",""0"",""0""
""blur"",""0"",""0""
""focus"",""0"",""0""
""blur"",""0"",""0""
""focus"",""1"",""1374""
""blur"",""2"",""4673""
""focus"",""2"",""6366""
""blur"",""5"",""14126""
""focus"",""5"",""17765""
""fullscreenenter"",""5"",""20143""
""fullscreenexit"",""80"",""306939""
""blur"",""81"",""308417""
""focus"",""82"",""312827""
","""event"",""trial"",""time""
""blur"",""0"",""0""
""blur"",""0"",""0""
""blur"",""0"",""0""
""blur"",""0"",""0""
""blur"",""2"",""4673""
""blur"",""5"",""14126""
""blur"",""81"",""308417""
","""event"",""trial"",""time""
""focus"",""0"",""0""
""focus"",""0"",""0""
""focus"",""0"",""0""
""focus"",""1"",""1374""
""focus"",""2"",""6366""
""focus"",""5"",""17765""
""focus"",""82"",""312827""
","""event"",""trial"",""time""
""fullscreenenter"",""5"",""20143""
","""event"",""trial"",""time""
""fullscreenexit"",""80"",""306939""
",NA,images/earth.jpg,NA,NA,NA,NA,NA,NA,NA,NA,NA,NA,NA,NA,NA,fixation,NA,NA,NA,NA,NA,NA,sub144
d3-animate-choice,94,337587,0.0-61.0-0.11,TRUE,TRUE,FALSE,TRUE,"""event"",""trial"",""time""
""blur"",""0"",""0""
""focus"",""0"",""0""
""blur"",""0"",""0""
""focus"",""0"",""0""
""blur"",""0"",""0""
""focus"",""0"",""0""
""blur"",""0"",""0""
""focus"",""1"",""1374""
""blur"",""2"",""4673""
""focus"",""2"",""6366""
""blur"",""5"",""14126""
""focus"",""5"",""17765""
""fullscreenenter"",""5"",""20143""
""fullscreenexit"",""80"",""306939""
""blur"",""81"",""308417""
""focus"",""82"",""312827""
","""event"",""trial"",""time""
""blur"",""0"",""0""
""blur"",""0"",""0""
""blur"",""0"",""0""
""blur"",""0"",""0""
""blur"",""2"",""4673""
""blur"",""5"",""14126""
""blur"",""81"",""308417""
","""event"",""trial"",""time""
""focus"",""0"",""0""
""focus"",""0"",""0""
""focus"",""0"",""0""
""focus"",""1"",""1374""
""focus"",""2"",""6366""
""focus"",""5"",""17765""
""focus"",""82"",""312827""
","""event"",""trial"",""time""
""fullscreenenter"",""5"",""20143""
","""event"",""trial"",""time""
""fullscreenexit"",""80"",""306939""
",454.0500000002794,NA,49,NA,NA,3000,1,NA,NA,images/earth.jpg,images/tutrocket1,images/tutrocket2,null,images/tutrocket2,NA,1,practice,null,1,NA,NA,NA,sub144
d3-animate-choice,95,340300,0.0-61.0-1.11,TRUE,TRUE,FALSE,TRUE,"""event"",""trial"",""time""
""blur"",""0"",""0""
""focus"",""0"",""0""
""blur"",""0"",""0""
""focus"",""0"",""0""
""blur"",""0"",""0""
""focus"",""0"",""0""
""blur"",""0"",""0""
""focus"",""1"",""1374""
""blur"",""2"",""4673""
""focus"",""2"",""6366""
""blur"",""5"",""14126""
""focus"",""5"",""17765""
""fullscreenenter"",""5"",""20143""
""fullscreenexit"",""80"",""306939""
""blur"",""81"",""308417""
""focus"",""82"",""312827""
","""event"",""trial"",""time""
""blur"",""0"",""0""
""blur"",""0"",""0""
""blur"",""0"",""0""
""blur"",""0"",""0""
""blur"",""2"",""4673""
""blur"",""5"",""14126""
""blur"",""81"",""308417""
","""event"",""trial"",""time""
""focus"",""0"",""0""
""focus"",""0"",""0""
""focus"",""0"",""0""
""focus"",""1"",""1374""
""focus"",""2"",""6366""
""focus"",""5"",""17765""
""focus"",""82"",""312827""
","""event"",""trial"",""time""
""fullscreenenter"",""5"",""20143""
","""event"",""trial"",""time""
""fullscreenexit"",""80"",""306939""
",706.5299999994459,NA,48,NA,NA,3000,1,NA,NA,images/tutyellowplanet.jpg,images/tutalien4,images/tutalien3,images/tutrocket2,images/tutalien4,images/t.png,2,practice,true,2,common,1,2020-06-29T02:12:18Z,sub144
two-step-fixation,96,341303,0.0-61.0-2.11,TRUE,TRUE,FALSE,TRUE,"""event"",""trial"",""time""
""blur"",""0"",""0""
""focus"",""0"",""0""
""blur"",""0"",""0""
""focus"",""0"",""0""
""blur"",""0"",""0""
""focus"",""0"",""0""
""blur"",""0"",""0""
""focus"",""1"",""1374""
""blur"",""2"",""4673""
""focus"",""2"",""6366""
""blur"",""5"",""14126""
""focus"",""5"",""17765""
""fullscreenenter"",""5"",""20143""
""fullscreenexit"",""80"",""306939""
""blur"",""81"",""308417""
""focus"",""82"",""312827""
","""event"",""trial"",""time""
""blur"",""0"",""0""
""blur"",""0"",""0""
""blur"",""0"",""0""
""blur"",""0"",""0""
""blur"",""2"",""4673""
""blur"",""5"",""14126""
""blur"",""81"",""308417""
","""event"",""trial"",""time""
""focus"",""0"",""0""
""focus"",""0"",""0""
""focus"",""0"",""0""
""focus"",""1"",""1374""
""focus"",""2"",""6366""
""focus"",""5"",""17765""
""focus"",""82"",""312827""
","""event"",""trial"",""time""
""fullscreenenter"",""5"",""20143""
","""event"",""trial"",""time""
""fullscreenexit"",""80"",""306939""
",NA,images/earth.jpg,NA,NA,NA,NA,NA,NA,NA,NA,NA,NA,NA,NA,NA,fixation,NA,NA,NA,NA,NA,NA,sub144
d3-animate-choice,97,344097,0.0-61.0-0.12,TRUE,TRUE,FALSE,TRUE,"""event"",""trial"",""time""
""blur"",""0"",""0""
""focus"",""0"",""0""
""blur"",""0"",""0""
""focus"",""0"",""0""
""blur"",""0"",""0""
""focus"",""0"",""0""
""blur"",""0"",""0""
""focus"",""1"",""1374""
""blur"",""2"",""4673""
""focus"",""2"",""6366""
""blur"",""5"",""14126""
""focus"",""5"",""17765""
""fullscreenenter"",""5"",""20143""
""fullscreenexit"",""80"",""306939""
""blur"",""81"",""308417""
""focus"",""82"",""312827""
","""event"",""trial"",""time""
""blur"",""0"",""0""
""blur"",""0"",""0""
""blur"",""0"",""0""
""blur"",""0"",""0""
""blur"",""2"",""4673""
""blur"",""5"",""14126""
""blur"",""81"",""308417""
","""event"",""trial"",""time""
""focus"",""0"",""0""
""focus"",""0"",""0""
""focus"",""0"",""0""
""focus"",""1"",""1374""
""focus"",""2"",""6366""
""focus"",""5"",""17765""
""focus"",""82"",""312827""
","""event"",""trial"",""time""
""fullscreenenter"",""5"",""20143""
","""event"",""trial"",""time""
""fullscreenexit"",""80"",""306939""
