trial_type,trial_index,time_elapsed,internal_node_id,rocket_sides,red_planet_first_rocket,red_display_order,purple_display_order,interactions,blur_events,focus_events,fullscreenenter_events,fullscreenexit_events,rt,stimulus,key_press,button_pressed,success,duration,valid_pressed,rts,keys,planet_text,right_text,left_text,center_text,chosen_text,reward_text,trial_stage,practice_trial,transition_type,choice,transition,reward,timestamp,subject_id
pavlovia,0,13,0.0-0.0,TRUE,TRUE,FALSE,FALSE,"
","
","
","
","
",NA,NA,NA,NA,NA,NA,NA,NA,NA,NA,NA,NA,NA,NA,NA,NA,NA,NA,NA,NA,NA,NA,sub100
html-keyboard-response,1,1265,0.0-1.0,TRUE,TRUE,FALSE,FALSE,"
","
","
","
","
",1247.0200000025216,Welcome! Press the space bar to begin.,32,NA,NA,NA,NA,NA,NA,NA,NA,NA,NA,NA,NA,NA,NA,NA,NA,NA,NA,NA,sub100
audio-keyboard-response,2,5595,0.0-2.0,TRUE,TRUE,FALSE,FALSE,"
","
","
","
","
",4213,audio/beep_loop.wav,32,NA,NA,NA,NA,NA,NA,NA,NA,NA,NA,NA,NA,NA,NA,NA,NA,NA,NA,NA,sub100
audio-button-response,3,8339,0.0-3.0,TRUE,TRUE,FALSE,FALSE,"
","
","
","
","
",NaN,audio/fish.mp3,NA,1,NA,NA,NA,NA,NA,NA,NA,NA,NA,NA,NA,NA,NA,NA,NA,NA,NA,NA,sub100
audio-button-response,4,11290,0.0-4.0,TRUE,TRUE,FALSE,FALSE,"""event"",""trial"",""time""
""fullscreenenter"",""5"",""15844""
","
","
","""event"",""trial"",""time""
""fullscreenenter"",""5"",""15844""
","
",NaN,audio/tiger.mp3,NA,4,NA,NA,NA,NA,NA,NA,NA,NA,NA,NA,NA,NA,NA,NA,NA,NA,NA,NA,sub100
fullscreen,5,16835,0.0-5.0,TRUE,TRUE,FALSE,FALSE,"""event"",""trial"",""time""
""fullscreenenter"",""5"",""15844""
","
","
","""event"",""trial"",""time""
""fullscreenenter"",""5"",""15844""
","
",NA,NA,NA,NA,TRUE,NA,NA,NA,NA,NA,NA,NA,NA,NA,NA,NA,NA,NA,NA,NA,NA,NA,sub100
d3-instructions,6,30464,0.0-6.0,TRUE,TRUE,FALSE,FALSE,"""event"",""trial"",""time""
""fullscreenenter"",""5"",""15844""
","
","
","""event"",""trial"",""time""
""fullscreenenter"",""5"",""15844""
","
",NA,NA,NA,NA,NA,NA,NA,NA,NA,NA,NA,NA,NA,NA,NA,NA,NA,NA,NA,NA,NA,NA,sub100
d3-instructions,7,39761,0.0-7.0,TRUE,TRUE,FALSE,FALSE,"""event"",""trial"",""time""
""fullscreenenter"",""5"",""15844""
","
","
","""event"",""trial"",""time""
""fullscreenenter"",""5"",""15844""
","
",NA,NA,NA,NA,NA,NA,NA,NA,NA,NA,NA,NA,NA,NA,NA,NA,NA,NA,NA,NA,NA,NA,sub100
d3-instructions,8,46817,0.0-8.0,TRUE,TRUE,FALSE,FALSE,"""event"",""trial"",""time""
""fullscreenenter"",""5"",""15844""
","
","
","""event"",""trial"",""time""
""fullscreenenter"",""5"",""15844""
","
",NA,NA,NA,NA,NA,NA,NA,NA,NA,NA,NA,NA,NA,NA,NA,NA,NA,NA,NA,NA,NA,NA,sub100
d3-instructions,9,60348,0.0-9.0,TRUE,TRUE,FALSE,FALSE,"""event"",""trial"",""time""
""fullscreenenter"",""5"",""15844""
","
","
","""event"",""trial"",""time""
""fullscreenenter"",""5"",""15844""
","
",NA,NA,NA,NA,NA,NA,NA,NA,NA,NA,NA,NA,NA,NA,NA,NA,NA,NA,NA,NA,NA,NA,sub100
d3-instructions,10,79105,0.0-10.0,TRUE,TRUE,FALSE,FALSE,"""event"",""trial"",""time""
""fullscreenenter"",""5"",""15844""
","
","
","""event"",""trial"",""time""
""fullscreenenter"",""5"",""15844""
","
",NA,NA,NA,NA,NA,NA,NA,NA,NA,NA,NA,NA,NA,NA,NA,NA,NA,NA,NA,NA,NA,NA,sub100
d3-animate-choice,11,82520,0.0-11.0,TRUE,TRUE,FALSE,FALSE,"""event"",""trial"",""time""
""fullscreenenter"",""5"",""15844""
","
","
","""event"",""trial"",""time""
""fullscreenenter"",""5"",""15844""
","
",1394.1849999973783,NA,48,NA,NA,3000,1,2611.174999998184,49,images/tutgreenplanet.jpg,images/tutalien1,images/tutalien2,null,images/tutalien1,NA,NA,practice,null,NA,NA,NA,NA,sub100
d3-animate-choice,12,84665,0.0-12.0,TRUE,TRUE,FALSE,FALSE,"""event"",""trial"",""time""
""fullscreenenter"",""5"",""15844""
","
","
","""event"",""trial"",""time""
""fullscreenenter"",""5"",""15844""
","
",132.92500000170548,NA,49,NA,NA,3000,1,853.979999999865,48,images/tutgreenplanet.jpg,images/tutalien1,images/tutalien2,null,images/tutalien2,NA,NA,practice,null,NA,NA,NA,NA,sub100
d3-animate-choice,13,86746,0.0-13.0,TRUE,TRUE,FALSE,FALSE,"""event"",""trial"",""time""
""fullscreenenter"",""5"",""15844""
","
","
","""event"",""trial"",""time""
""fullscreenenter"",""5"",""15844""
","
",69.53499999872292,NA,48,NA,NA,3000,1,NA,NA,images/tutgreenplanet.jpg,images/tutalien1,images/tutalien2,null,images/tutalien1,NA,NA,practice,null,NA,NA,NA,NA,sub100
d3-animate-choice,14,92693,0.0-14.0,TRUE,TRUE,FALSE,FALSE,"""event"",""trial"",""time""
""fullscreenenter"",""5"",""15844""
","
","
","""event"",""trial"",""time""
""fullscreenenter"",""5"",""15844""
","
",3938.190000000759,NA,49,NA,NA,3000,1,"4311.620000000403,5111.3100000002305",4848,images/tutgreenplanet.jpg,images/tutalien1,images/tutalien2,null,images/tutalien2,NA,NA,practice,null,NA,NA,NA,NA,sub100
d3-instructions,15,99275,0.0-15.0,TRUE,TRUE,FALSE,FALSE,"""event"",""trial"",""time""
""fullscreenenter"",""5"",""15844""
","
","
","""event"",""trial"",""time""
""fullscreenenter"",""5"",""15844""
","
",NA,NA,NA,NA,NA,NA,NA,NA,NA,NA,NA,NA,NA,NA,NA,NA,NA,NA,NA,NA,NA,NA,sub100
d3-instructions,16,107503,0.0-16.0,TRUE,TRUE,FALSE,FALSE,"""event"",""trial"",""time""
""fullscreenenter"",""5"",""15844""
","
","
","""event"",""trial"",""time""
""fullscreenenter"",""5"",""15844""
","
",NA,NA,NA,NA,NA,NA,NA,NA,NA,NA,NA,NA,NA,NA,NA,NA,NA,NA,NA,NA,NA,NA,sub100
d3-instructions,17,115576,0.0-17.0,TRUE,TRUE,FALSE,FALSE,"""event"",""trial"",""time""
""fullscreenenter"",""5"",""15844""
","
","
","""event"",""trial"",""time""
""fullscreenenter"",""5"",""15844""
","
",NA,NA,NA,NA,NA,NA,NA,NA,NA,NA,NA,NA,NA,NA,NA,NA,NA,NA,NA,NA,NA,NA,sub100
d3-instructions,18,128182,0.0-18.0,TRUE,TRUE,FALSE,FALSE,"""event"",""trial"",""time""
""fullscreenenter"",""5"",""15844""
","
","
","""event"",""trial"",""time""
""fullscreenenter"",""5"",""15844""
","
",NA,NA,NA,NA,NA,NA,NA,NA,NA,NA,NA,NA,NA,NA,NA,NA,NA,NA,NA,NA,NA,NA,sub100
d3-instructions,19,140719,0.0-19.0,TRUE,TRUE,FALSE,FALSE,"""event"",""trial"",""time""
""fullscreenenter"",""5"",""15844""
","
","
","""event"",""trial"",""time""
""fullscreenenter"",""5"",""15844""
","
",NA,NA,NA,NA,NA,NA,NA,NA,NA,NA,NA,NA,NA,NA,NA,NA,NA,NA,NA,NA,NA,NA,sub100
d3-animate-choice,20,144107,0.0-20.0,TRUE,TRUE,FALSE,FALSE,"""event"",""trial"",""time""
""fullscreenenter"",""5"",""15844""
","
","
","""event"",""trial"",""time""
""fullscreenenter"",""5"",""15844""
","
",1380.4949999976088,NA,49,NA,NA,3000,1,"1701.4449999987846,2142.9749999988417",4949,images/tutyellowplanet.jpg,null,images/tutalien3,null,images/tutalien3,images/nothing.png,NA,practice,null,NA,NA,NA,NA,sub100
d3-animate-choice,21,146502,0.0-21.0,TRUE,TRUE,FALSE,FALSE,"""event"",""trial"",""time""
""fullscreenenter"",""5"",""15844""
","
","
","""event"",""trial"",""time""
""fullscreenenter"",""5"",""15844""
","
",387.0500000011816,NA,49,NA,NA,3000,1,2027.0850000015344,49,images/tutyellowplanet.jpg,null,images/tutalien3,null,images/tutalien3,images/t.png,NA,practice,null,NA,NA,NA,NA,sub100
d3-animate-choice,22,149009,0.0-22.0,TRUE,TRUE,FALSE,FALSE,"""event"",""trial"",""time""
""fullscreenenter"",""5"",""15844""
","
","
","""event"",""trial"",""time""
""fullscreenenter"",""5"",""15844""
","
",497.9249999996682,NA,49,NA,NA,3000,1,2055.0899999980174,49,images/tutyellowplanet.jpg,null,images/tutalien3,null,images/tutalien3,images/t.png,NA,practice,null,NA,NA,NA,NA,sub100
d3-animate-choice,23,151401,0.0-23.0,TRUE,TRUE,FALSE,FALSE,"""event"",""trial"",""time""
""fullscreenenter"",""5"",""15844""
","
","
","""event"",""trial"",""time""
""fullscreenenter"",""5"",""15844""
","
",384.6049999992829,NA,49,NA,NA,3000,1,1886.3299999975425,49,images/tutyellowplanet.jpg,null,images/tutalien3,null,images/tutalien3,images/t.png,NA,practice,null,NA,NA,NA,NA,sub100
d3-animate-choice,24,153772,0.0-24.0,TRUE,TRUE,FALSE,FALSE,"""event"",""trial"",""time""
""fullscreenenter"",""5"",""15844""
","
","
","""event"",""trial"",""time""
""fullscreenenter"",""5"",""15844""
","
",363.00499999924796,NA,49,NA,NA,3000,1,1777.3350000024948,49,images/tutyellowplanet.jpg,null,images/tutalien3,null,images/tutalien3,images/nothing.png,NA,practice,null,NA,NA,NA,NA,sub100
d3-animate-choice,25,156499,0.0-25.0,TRUE,TRUE,FALSE,FALSE,"""event"",""trial"",""time""
""fullscreenenter"",""5"",""15844""
","
","
","""event"",""trial"",""time""
""fullscreenenter"",""5"",""15844""
","
",717.2800000007555,NA,49,NA,NA,3000,1,2300.2100000012433,49,images/tutyellowplanet.jpg,null,images/tutalien3,null,images/tutalien3,images/t.png,NA,practice,null,NA,NA,NA,NA,sub100
d3-animate-choice,26,159240,0.0-26.0,TRUE,TRUE,FALSE,FALSE,"""event"",""trial"",""time""
""fullscreenenter"",""5"",""15844""
","
","
","""event"",""trial"",""time""
""fullscreenenter"",""5"",""15844""
","
",732.0199999994657,NA,49,NA,NA,3000,1,NA,NA,images/tutyellowplanet.jpg,null,images/tutalien3,null,images/tutalien3,images/t.png,NA,practice,null,NA,NA,NA,NA,sub100
d3-animate-choice,27,161433,0.0-27.0,TRUE,TRUE,FALSE,FALSE,"""event"",""trial"",""time""
""fullscreenenter"",""5"",""15844""
","
","
","""event"",""trial"",""time""
""fullscreenenter"",""5"",""15844""
","
",179.6600000016042,NA,49,NA,NA,3000,1,2000.8699999998498,49,images/tutyellowplanet.jpg,null,images/tutalien3,null,images/tutalien3,images/t.png,NA,practice,null,NA,NA,NA,NA,sub100
d3-animate-choice,28,165911,0.0-28.0,TRUE,TRUE,FALSE,FALSE,"""event"",""trial"",""time""
""fullscreenenter"",""5"",""15844""
","
","
","""event"",""trial"",""time""
""fullscreenenter"",""5"",""15844""
","
",2468.1149999996705,NA,49,NA,NA,3000,1,NA,NA,images/tutyellowplanet.jpg,null,images/tutalien3,null,images/tutalien3,images/t.png,NA,practice,null,NA,NA,NA,NA,sub100
d3-animate-choice,29,168731,0.0-29.0,TRUE,TRUE,FALSE,FALSE,"""event"",""trial"",""time""
""fullscreenenter"",""5"",""15844""
","
","
","""event"",""trial"",""time""
""fullscreenenter"",""5"",""15844""
","
",810.3249999985565,NA,49,NA,NA,3000,1,NA,NA,images/tutyellowplanet.jpg,null,images/tutalien3,null,images/tutalien3,images/t.png,NA,practice,null,NA,NA,NA,NA,sub100
d3-instructions,30,179650,0.0-30.0,TRUE,TRUE,FALSE,FALSE,"""event"",""trial"",""time""
""fullscreenenter"",""5"",""15844""
","
","
","""event"",""trial"",""time""
""fullscreenenter"",""5"",""15844""
","
",NA,NA,NA,NA,NA,NA,NA,NA,NA,NA,NA,NA,NA,NA,NA,NA,NA,NA,NA,NA,NA,NA,sub100
d3-instructions,31,192574,0.0-31.0,TRUE,TRUE,FALSE,FALSE,"""event"",""trial"",""time""
""fullscreenenter"",""5"",""15844""
","
","
","""event"",""trial"",""time""
""fullscreenenter"",""5"",""15844""
","
",NA,NA,NA,NA,NA,NA,NA,NA,NA,NA,NA,NA,NA,NA,NA,NA,NA,NA,NA,NA,NA,NA,sub100
d3-instructions,32,206169,0.0-32.0,TRUE,TRUE,FALSE,FALSE,"""event"",""trial"",""time""
""fullscreenenter"",""5"",""15844""
","
","
","""event"",""trial"",""time""
""fullscreenenter"",""5"",""15844""
","
",NA,NA,NA,NA,NA,NA,NA,NA,NA,NA,NA,NA,NA,NA,NA,NA,NA,NA,NA,NA,NA,NA,sub100
d3-instructions,33,218751,0.0-33.0,TRUE,TRUE,FALSE,FALSE,"""event"",""trial"",""time""
""fullscreenenter"",""5"",""15844""
","
","
","""event"",""trial"",""time""
""fullscreenenter"",""5"",""15844""
","
",NA,NA,NA,NA,NA,NA,NA,NA,NA,NA,NA,NA,NA,NA,NA,NA,NA,NA,NA,NA,NA,NA,sub100
d3-animate-choice,34,225052,0.0-34.0,TRUE,TRUE,FALSE,FALSE,"""event"",""trial"",""time""
""fullscreenenter"",""5"",""15844""
","
","
","""event"",""trial"",""time""
""fullscreenenter"",""5"",""15844""
","
",4293.9599999990605,NA,48,NA,NA,3000,1,NA,NA,images/tutgreenplanet.jpg,images/tutalien1,images/tutalien2,null,images/tutalien1,images/nothing.png,NA,practice,null,NA,NA,NA,NA,sub100
d3-animate-choice,35,227881,0.0-35.0,TRUE,TRUE,FALSE,FALSE,"""event"",""trial"",""time""
""fullscreenenter"",""5"",""15844""
","
","
","""event"",""trial"",""time""
""fullscreenenter"",""5"",""15844""
","
",821.0399999989022,NA,49,NA,NA,3000,1,NA,NA,images/tutgreenplanet.jpg,images/tutalien1,images/tutalien2,null,images/tutalien2,images/nothing.png,NA,practice,null,NA,NA,NA,NA,sub100
d3-animate-choice,36,230178,0.0-36.0,TRUE,TRUE,FALSE,FALSE,"""event"",""trial"",""time""
""fullscreenenter"",""5"",""15844""
","
","
","""event"",""trial"",""time""
""fullscreenenter"",""5"",""15844""
","
",290.7550000018091,NA,48,NA,NA,3000,1,NA,NA,images/tutgreenplanet.jpg,images/tutalien1,images/tutalien2,null,images/tutalien1,images/nothing.png,NA,practice,null,NA,NA,NA,NA,sub100
d3-animate-choice,37,232368,0.0-37.0,TRUE,TRUE,FALSE,FALSE,"""event"",""trial"",""time""
""fullscreenenter"",""5"",""15844""
","
","
","""event"",""trial"",""time""
""fullscreenenter"",""5"",""15844""
","
",180.90500000107568,NA,49,NA,NA,3000,1,1778.9300000004005,48,images/tutgreenplanet.jpg,images/tutalien1,images/tutalien2,null,images/tutalien2,images/nothing.png,NA,practice,null,NA,NA,NA,NA,sub100
d3-animate-choice,38,234737,0.0-38.0,TRUE,TRUE,FALSE,FALSE,"""event"",""trial"",""time""
""fullscreenenter"",""5"",""15844""
","
","
","""event"",""trial"",""time""
""fullscreenenter"",""5"",""15844""
","
",361.3900000018475,NA,48,NA,NA,3000,1,2065.4800000011164,48,images/tutgreenplanet.jpg,images/tutalien1,images/tutalien2,null,images/tutalien1,images/nothing.png,NA,practice,null,NA,NA,NA,NA,sub100
d3-animate-choice,39,236823,0.0-39.0,TRUE,TRUE,FALSE,FALSE,"""event"",""trial"",""time""
""fullscreenenter"",""5"",""15844""
","
","
","""event"",""trial"",""time""
""fullscreenenter"",""5"",""15844""
","
",75.05999999921187,NA,49,NA,NA,3000,1,NA,NA,images/tutgreenplanet.jpg,images/tutalien1,images/tutalien2,null,images/tutalien2,images/t.png,NA,practice,null,NA,NA,NA,NA,sub100
d3-animate-choice,40,238846,0.0-40.0,TRUE,TRUE,FALSE,FALSE,"""event"",""trial"",""time""
""fullscreenenter"",""5"",""15844""
","
","
","""event"",""trial"",""time""
""fullscreenenter"",""5"",""15844""
","
",18.080000001646113,NA,49,NA,NA,3000,1,1644.785000000411,49,images/tutgreenplanet.jpg,images/tutalien1,images/tutalien2,null,images/tutalien2,images/t.png,NA,practice,null,NA,NA,NA,NA,sub100
d3-animate-choice,41,241290,0.0-41.0,TRUE,TRUE,FALSE,FALSE,"""event"",""trial"",""time""
""fullscreenenter"",""5"",""15844""
","
","
","""event"",""trial"",""time""
""fullscreenenter"",""5"",""15844""
","
",435.8800000009069,NA,49,NA,NA,3000,1,2001.3900000012654,49,images/tutgreenplanet.jpg,images/tutalien1,images/tutalien2,null,images/tutalien2,images/t.png,NA,practice,null,NA,NA,NA,NA,sub100
d3-animate-choice,42,243817,0.0-42.0,TRUE,TRUE,FALSE,FALSE,"""event"",""trial"",""time""
""fullscreenenter"",""5"",""15844""
","
","
","""event"",""trial"",""time""
""fullscreenenter"",""5"",""15844""
","
",518.0149999978312,NA,49,NA,NA,3000,1,1970.9149999980582,49,images/tutgreenplanet.jpg,images/tutalien1,images/tutalien2,null,images/tutalien2,images/t.png,NA,practice,null,NA,NA,NA,NA,sub100
d3-animate-choice,43,246199,0.0-43.0,TRUE,TRUE,FALSE,FALSE,"""event"",""trial"",""time""
""fullscreenenter"",""5"",""15844""
","
","
","""event"",""trial"",""time""
""fullscreenenter"",""5"",""15844""
","
",370.1949999995122,NA,49,NA,NA,3000,1,1996.0200000023178,49,images/tutgreenplanet.jpg,images/tutalien1,images/tutalien2,null,images/tutalien2,images/t.png,NA,practice,null,NA,NA,NA,NA,sub100
d3-instructions,44,258275,0.0-44.0,TRUE,TRUE,FALSE,FALSE,"""event"",""trial"",""time""
""fullscreenenter"",""5"",""15844""
","
","
","""event"",""trial"",""time""
""fullscreenenter"",""5"",""15844""
","
",NA,NA,NA,NA,NA,NA,NA,NA,NA,NA,NA,NA,NA,NA,NA,NA,NA,NA,NA,NA,NA,NA,sub100
d3-instructions,45,266996,0.0-45.0,TRUE,TRUE,FALSE,FALSE,"""event"",""trial"",""time""
""fullscreenenter"",""5"",""15844""
","
","
","""event"",""trial"",""time""
""fullscreenenter"",""5"",""15844""
","
",NA,NA,NA,NA,NA,NA,NA,NA,NA,NA,NA,NA,NA,NA,NA,NA,NA,NA,NA,NA,NA,NA,sub100
d3-instructions,46,274692,0.0-46.0,TRUE,TRUE,FALSE,FALSE,"""event"",""trial"",""time""
""fullscreenenter"",""5"",""15844""
","
","
","""event"",""trial"",""time""
""fullscreenenter"",""5"",""15844""
","
",NA,NA,NA,NA,NA,NA,NA,NA,NA,NA,NA,NA,NA,NA,NA,NA,NA,NA,NA,NA,NA,NA,sub100
d3-instructions,47,287205,0.0-47.0,TRUE,TRUE,FALSE,FALSE,"""event"",""trial"",""time""
""fullscreenenter"",""5"",""15844""
","
","
","""event"",""trial"",""time""
""fullscreenenter"",""5"",""15844""
","
",NA,NA,NA,NA,NA,NA,NA,NA,NA,NA,NA,NA,NA,NA,NA,NA,NA,NA,NA,NA,NA,NA,sub100
d3-instructions,48,296824,0.0-48.0,TRUE,TRUE,FALSE,FALSE,"""event"",""trial"",""time""
""fullscreenenter"",""5"",""15844""
","
","
","""event"",""trial"",""time""
""fullscreenenter"",""5"",""15844""
","
",NA,NA,NA,NA,NA,NA,NA,NA,NA,NA,NA,NA,NA,NA,NA,NA,NA,NA,NA,NA,NA,NA,sub100
d3-instructions,49,304967,0.0-49.0,TRUE,TRUE,FALSE,FALSE,"""event"",""trial"",""time""
""fullscreenenter"",""5"",""15844""
","
","
","""event"",""trial"",""time""
""fullscreenenter"",""5"",""15844""
","
",NA,NA,NA,NA,NA,NA,NA,NA,NA,NA,NA,NA,NA,NA,NA,NA,NA,NA,NA,NA,NA,NA,sub100
d3-instructions,50,315539,0.0-50.0,TRUE,TRUE,FALSE,FALSE,"""event"",""trial"",""time""
""fullscreenenter"",""5"",""15844""
","
","
","""event"",""trial"",""time""
""fullscreenenter"",""5"",""15844""
","
",NA,NA,NA,NA,NA,NA,NA,NA,NA,NA,NA,NA,NA,NA,NA,NA,NA,NA,NA,NA,NA,NA,sub100
d3-instructions,51,319492,0.0-51.0,TRUE,TRUE,FALSE,FALSE,"""event"",""trial"",""time""
""fullscreenenter"",""5"",""15844""
","
","
","""event"",""trial"",""time""
""fullscreenenter"",""5"",""15844""
","
",NA,NA,NA,NA,NA,NA,NA,NA,NA,NA,NA,NA,NA,NA,NA,NA,NA,NA,NA,NA,NA,NA,sub100
d3-instructions,52,327303,0.0-52.0,TRUE,TRUE,FALSE,FALSE,"""event"",""trial"",""time""
""fullscreenenter"",""5"",""15844""
","
","
","""event"",""trial"",""time""
""fullscreenenter"",""5"",""15844""
","
",NA,NA,NA,NA,NA,NA,NA,NA,NA,NA,NA,NA,NA,NA,NA,NA,NA,NA,NA,NA,NA,NA,sub100
d3-instructions,53,338814,0.0-53.0,TRUE,TRUE,FALSE,FALSE,"""event"",""trial"",""time""
""fullscreenenter"",""5"",""15844""
","
","
","""event"",""trial"",""time""
""fullscreenenter"",""5"",""15844""
","
",NA,NA,NA,NA,NA,NA,NA,NA,NA,NA,NA,NA,NA,NA,NA,NA,NA,NA,NA,NA,NA,NA,sub100
d3-instructions,54,353274,0.0-54.0,TRUE,TRUE,FALSE,FALSE,"""event"",""trial"",""time""
""fullscreenenter"",""5"",""15844""
","
","
","""event"",""trial"",""time""
""fullscreenenter"",""5"",""15844""
","
",NA,NA,NA,NA,NA,NA,NA,NA,NA,NA,NA,NA,NA,NA,NA,NA,NA,NA,NA,NA,NA,NA,sub100
d3-instructions,55,367223,0.0-55.0,TRUE,TRUE,FALSE,FALSE,"""event"",""trial"",""time""
""fullscreenenter"",""5"",""15844""
","
","
","""event"",""trial"",""time""
""fullscreenenter"",""5"",""15844""
","
",NA,NA,NA,NA,NA,NA,NA,NA,NA,NA,NA,NA,NA,NA,NA,NA,NA,NA,NA,NA,NA,NA,sub100
d3-instructions,56,369481,0.0-56.0,TRUE,TRUE,FALSE,FALSE,"""event"",""trial"",""time""
""fullscreenenter"",""5"",""15844""
","
","
","""event"",""trial"",""time""
""fullscreenenter"",""5"",""15844""
","
",NA,NA,NA,NA,NA,NA,NA,NA,NA,NA,NA,NA,NA,NA,NA,NA,NA,NA,NA,NA,NA,NA,sub100
d3-instructions,57,372407,0.0-57.0,TRUE,TRUE,FALSE,FALSE,"""event"",""trial"",""time""
""fullscreenenter"",""5"",""15844""
","
","
","""event"",""trial"",""time""
""fullscreenenter"",""5"",""15844""
","
",NA,NA,NA,NA,NA,NA,NA,NA,NA,NA,NA,NA,NA,NA,NA,NA,NA,NA,NA,NA,NA,NA,sub100
d3-instructions,58,384013,0.0-58.0,TRUE,TRUE,FALSE,FALSE,"""event"",""trial"",""time""
""fullscreenenter"",""5"",""15844""
","
","
","""event"",""trial"",""time""
""fullscreenenter"",""5"",""15844""
","
",NA,NA,NA,NA,NA,NA,NA,NA,NA,NA,NA,NA,NA,NA,NA,NA,NA,NA,NA,NA,NA,NA,sub100
d3-instructions,59,388926,0.0-59.0,TRUE,TRUE,FALSE,FALSE,"""event"",""trial"",""time""
""fullscreenenter"",""5"",""15844""
","
","
","""event"",""trial"",""time""
""fullscreenenter"",""5"",""15844""
","
",NA,NA,NA,NA,NA,NA,NA,NA,NA,NA,NA,NA,NA,NA,NA,NA,NA,NA,NA,NA,NA,NA,sub100
d3-instructions,60,394025,0.0-60.0,TRUE,TRUE,FALSE,FALSE,"""event"",""trial"",""time""
""fullscreenenter"",""5"",""15844""
","
","
","""event"",""trial"",""time""
""fullscreenenter"",""5"",""15844""
","
",NA,NA,NA,NA,NA,NA,NA,NA,NA,NA,NA,NA,NA,NA,NA,NA,NA,NA,NA,NA,NA,NA,sub100
d3-animate-choice,61,396571,0.0-61.0-0.0,TRUE,TRUE,FALSE,FALSE,"""event"",""trial"",""time""
""fullscreenenter"",""5"",""15844""
","
","
","""event"",""trial"",""time""
""fullscreenenter"",""5"",""15844""
","
",535.1700000028359,NA,49,NA,NA,3000,1,NA,NA,images/earth.jpg,images/tutrocket1,images/tutrocket2,null,images/tutrocket2,NA,1,practice,null,1,NA,NA,NA,sub100
d3-animate-choice,62,400580,0.0-61.0-1.0,TRUE,TRUE,FALSE,FALSE,"""event"",""trial"",""time""
""fullscreenenter"",""5"",""15844""
","
","
","""event"",""trial"",""time""
""fullscreenenter"",""5"",""15844""
","
",2942.2300000005635,NA,48,NA,NA,3000,1,NA,NA,images/tutgreenplanet.jpg,images/tutalien2,images/tutalien1,images/tutrocket2,images/tutalien2,NA,2,practice,false,2,rare,0,2020-07-01T14:11:15Z,sub100
two-step-fixation,63,401594,0.0-61.0-2.0,TRUE,TRUE,FALSE,FALSE,"""event"",""trial"",""time""
""fullscreenenter"",""5"",""15844""
","
","
","""event"",""trial"",""time""
""fullscreenenter"",""5"",""15844""
","
",NA,images/earth.jpg,NA,NA,NA,NA,NA,NA,NA,NA,NA,NA,NA,NA,NA,fixation,NA,NA,NA,NA,NA,NA,sub100
d3-animate-choice,64,404967,0.0-61.0-0.1,TRUE,TRUE,FALSE,FALSE,"""event"",""trial"",""time""
""fullscreenenter"",""5"",""15844""
","
","
","""event"",""trial"",""time""
""fullscreenenter"",""5"",""15844""
","
",1364.3099999972037,NA,49,NA,NA,3000,1,NA,NA,images/earth.jpg,images/tutrocket1,images/tutrocket2,null,images/tutrocket2,NA,1,practice,null,1,NA,NA,NA,sub100
d3-animate-choice,65,407449,0.0-61.0-1.1,TRUE,TRUE,FALSE,FALSE,"""event"",""trial"",""time""
""fullscreenenter"",""5"",""15844""
","
","
","""event"",""trial"",""time""
""fullscreenenter"",""5"",""15844""
","
",470.40999999805354,NA,49,NA,NA,3000,1,NA,NA,images/tutyellowplanet.jpg,images/tutalien4,images/tutalien3,images/tutrocket2,images/tutalien3,images/t.png,2,practice,true,1,common,1,2020-07-01T14:11:22Z,sub100
two-step-fixation,66,408463,0.0-61.0-2.1,TRUE,TRUE,FALSE,FALSE,"""event"",""trial"",""time""
""fullscreenenter"",""5"",""15844""
","
","
","""event"",""trial"",""time""
""fullscreenenter"",""5"",""15844""
","
",NA,images/earth.jpg,NA,NA,NA,NA,NA,NA,NA,NA,NA,NA,NA,NA,NA,fixation,NA,NA,NA,NA,NA,NA,sub100
d3-animate-choice,67,412229,0.0-61.0-0.2,TRUE,TRUE,FALSE,FALSE,"""event"",""trial"",""time""
""fullscreenenter"",""5"",""15844""
","
","
","""event"",""trial"",""time""
""fullscreenenter"",""5"",""15844""
","
",1756.130000001518,NA,48,NA,NA,3000,1,NA,NA,images/earth.jpg,images/tutrocket1,images/tutrocket2,null,images/tutrocket1,NA,1,practice,null,2,NA,NA,NA,sub100
d3-animate-choice,68,414681,0.0-61.0-1.2,TRUE,TRUE,FALSE,FALSE,"""event"",""trial"",""time""
""fullscreenenter"",""5"",""15844""
","
","
","""event"",""trial"",""time""
""fullscreenenter"",""5"",""15844""
","
",441.464999999851,NA,49,NA,NA,3000,1,NA,NA,images/tutyellowplanet.jpg,images/tutalien4,images/tutalien3,images/tutrocket1,images/tutalien3,images/nothing.png,2,practice,false,1,rare,0,2020-07-01T14:11:29Z,sub100
two-step-fixation,69,415692,0.0-61.0-2.2,TRUE,TRUE,FALSE,FALSE,"""event"",""trial"",""time""
""fullscreenenter"",""5"",""15844""
","
","
","""event"",""trial"",""time""
""fullscreenenter"",""5"",""15844""
","
",NA,images/earth.jpg,NA,NA,NA,NA,NA,NA,NA,NA,NA,NA,NA,NA,NA,fixation,NA,NA,NA,NA,NA,NA,sub100
d3-animate-choice,70,418552,0.0-61.0-0.3,TRUE,TRUE,FALSE,FALSE,"""event"",""trial"",""time""
""fullscreenenter"",""5"",""15844""
","
","
","""event"",""trial"",""time""
""fullscreenenter"",""5"",""15844""
","
",848.9000000008964,NA,49,NA,NA,3000,1,NA,NA,images/earth.jpg,images/tutrocket1,images/tutrocket2,null,images/tutrocket2,NA,1,practice,null,1,NA,NA,NA,sub100
d3-animate-choice,71,420883,0.0-61.0-1.3,TRUE,TRUE,FALSE,FALSE,"""event"",""trial"",""time""
""fullscreenenter"",""5"",""15844""
","
","
","""event"",""trial"",""time""
""fullscreenenter"",""5"",""15844""
","
",316.4950000027311,NA,49,NA,NA,3000,1,NA,NA,images/tutyellowplanet.jpg,images/tutalien4,images/tutalien3,images/tutrocket2,images/tutalien3,images/nothing.png,2,practice,true,1,common,0,2020-07-01T14:11:35Z,sub100
two-step-fixation,72,421889,0.0-61.0-2.3,TRUE,TRUE,FALSE,FALSE,"""event"",""trial"",""time""
""fullscreenenter"",""5"",""15844""
","
","
","""event"",""trial"",""time""
""fullscreenenter"",""5"",""15844""
","
",NA,images/earth.jpg,NA,NA,NA,NA,NA,NA,NA,NA,NA,NA,NA,NA,NA,fixation,NA,NA,NA,NA,NA,NA,sub100
d3-animate-choice,73,424416,0.0-61.0-0.4,TRUE,TRUE,FALSE,FALSE,"""event"",""trial"",""time""
""fullscreenenter"",""5"",""15844""
","
","
","""event"",""trial"",""time""
""fullscreenenter"",""5"",""15844""
","
",517.6150000006892,NA,48,NA,NA,3000,1,NA,NA,images/earth.jpg,images/tutrocket1,images/tutrocket2,null,images/tutrocket1,NA,1,practice,null,2,NA,NA,NA,sub100
d3-animate-choice,74,426765,0.0-61.0-1.4,TRUE,TRUE,FALSE,FALSE,"""event"",""trial"",""time""
""fullscreenenter"",""5"",""15844""
","
","
","""event"",""trial"",""time""
""fullscreenenter"",""5"",""15844""
","
",337.6800000005169,NA,48,NA,NA,3000,1,NA,NA,images/tutgreenplanet.jpg,images/tutalien2,images/tutalien1,images/tutrocket1,images/tutalien2,images/t.png,2,practice,true,2,common,1,2020-07-01T14:11:41Z,sub100
two-step-fixation,75,427776,0.0-61.0-2.4,TRUE,TRUE,FALSE,FALSE,"""event"",""trial"",""time""
""fullscreenenter"",""5"",""15844""
","
","
","""event"",""trial"",""time""
""fullscreenenter"",""5"",""15844""
","
",NA,images/earth.jpg,NA,NA,NA,NA,NA,NA,NA,NA,NA,NA,NA,NA,NA,fixation,NA,NA,NA,NA,NA,NA,sub100
d3-animate-choice,76,430273,0.0-61.0-0.5,TRUE,TRUE,FALSE,FALSE,"""event"",""trial"",""time""
""fullscreenenter"",""5"",""15844""
","
","
","""event"",""trial"",""time""
""fullscreenenter"",""5"",""15844""
","
",481.115000002319,NA,49,NA,NA,3000,1,NA,NA,images/earth.jpg,images/tutrocket1,images/tutrocket2,null,images/tutrocket2,NA,1,practice,null,1,NA,NA,NA,sub100
d3-animate-choice,77,432673,0.0-61.0-1.5,TRUE,TRUE,FALSE,FALSE,"""event"",""trial"",""time""
""fullscreenenter"",""5"",""15844""
","
","
","""event"",""trial"",""time""
""fullscreenenter"",""5"",""15844""
","
",385.2000000006519,NA,48,NA,NA,3000,1,NA,NA,images/tutyellowplanet.jpg,images/tutalien4,images/tutalien3,images/tutrocket2,images/tutalien4,images/nothing.png,2,practice,true,2,common,0,2020-07-01T14:11:47Z,sub100
two-step-fixation,78,433685,0.0-61.0-2.5,TRUE,TRUE,FALSE,FALSE,"""event"",""trial"",""time""
""fullscreenenter"",""5"",""15844""
","
","
","""event"",""trial"",""time""
""fullscreenenter"",""5"",""15844""
","
",NA,images/earth.jpg,NA,NA,NA,NA,NA,NA,NA,NA,NA,NA,NA,NA,NA,fixation,NA,NA,NA,NA,NA,NA,sub100
d3-animate-choice,79,436070,0.0-61.0-0.6,TRUE,TRUE,FALSE,FALSE,"""event"",""trial"",""time""
""fullscreenenter"",""5"",""15844""
","
","
","""event"",""trial"",""time""
""fullscreenenter"",""5"",""15844""
","
",372.3200000022771,NA,48,NA,NA,3000,1,NA,NA,images/earth.jpg,images/tutrocket1,images/tutrocket2,null,images/tutrocket1,NA,1,practice,null,2,NA,NA,NA,sub100
d3-animate-choice,80,438385,0.0-61.0-1.6,TRUE,TRUE,FALSE,FALSE,"""event"",""trial"",""time""
""fullscreenenter"",""5"",""15844""
","
","
","""event"",""trial"",""time""
""fullscreenenter"",""5"",""15844""
","
",302.1100000005099,NA,49,NA,NA,3000,1,NA,NA,images/tutyellowplanet.jpg,images/tutalien4,images/tutalien3,images/tutrocket1,images/tutalien3,images/nothing.png,2,practice,false,1,rare,0,2020-07-01T14:11:53Z,sub100
two-step-fixation,81,439396,0.0-61.0-2.6,TRUE,TRUE,FALSE,FALSE,"""event"",""trial"",""time""
""fullscreenenter"",""5"",""15844""
","
","
","""event"",""trial"",""time""
""fullscreenenter"",""5"",""15844""
","
",NA,images/earth.jpg,NA,NA,NA,NA,NA,NA,NA,NA,NA,NA,NA,NA,NA,fixation,NA,NA,NA,NA,NA,NA,sub100
d3-animate-choice,82,441692,0.0-61.0-0.7,TRUE,TRUE,FALSE,FALSE,"""event"",""trial"",""time""
""fullscreenenter"",""5"",""15844""
","
","
","""event"",""trial"",""time""
""fullscreenenter"",""5"",""15844""
","
",284.48500000016065,NA,49,NA,NA,3000,1,NA,NA,images/earth.jpg,images/tutrocket1,images/tutrocket2,null,images/tutrocket2,NA,1,practice,null,1,NA,NA,NA,sub100
d3-animate-choice,83,444035,0.0-61.0-1.7,TRUE,TRUE,FALSE,FALSE,"""event"",""trial"",""time""
""fullscreenenter"",""5"",""15844""
","
","
","""event"",""trial"",""time""
""fullscreenenter"",""5"",""15844""
","
",335.06000000127824,NA,49,NA,NA,3000,1,NA,NA,images/tutyellowplanet.jpg,images/tutalien4,images/tutalien3,images/tutrocket2,images/tutalien3,images/t.png,2,practice,true,1,common,1,2020-07-01T14:11:58Z,sub100
two-step-fixation,84,445047,0.0-61.0-2.7,TRUE,TRUE,FALSE,FALSE,"""event"",""trial"",""time""
""fullscreenenter"",""5"",""15844""
","
","
","""event"",""trial"",""time""
""fullscreenenter"",""5"",""15844""
","
",NA,images/earth.jpg,NA,NA,NA,NA,NA,NA,NA,NA,NA,NA,NA,NA,NA,fixation,NA,NA,NA,NA,NA,NA,sub100
d3-animate-choice,85,447394,0.0-61.0-0.8,TRUE,TRUE,FALSE,FALSE,"""event"",""trial"",""time""
""fullscreenenter"",""5"",""15844""
","
","
","""event"",""trial"",""time""
""fullscreenenter"",""5"",""15844""
","
",333.69500000122935,NA,48,NA,NA,3000,1,NA,NA,images/earth.jpg,images/tutrocket1,images/tutrocket2,null,images/tutrocket1,NA,1,practice,null,2,NA,NA,NA,sub100
d3-animate-choice,86,449750,0.0-61.0-1.8,TRUE,TRUE,FALSE,FALSE,"""event"",""trial"",""time""
""fullscreenenter"",""5"",""15844""
","
","
","""event"",""trial"",""time""
""fullscreenenter"",""5"",""15844""
","
",347.2650000003632,NA,48,NA,NA,3000,1,NA,NA,images/tutgreenplanet.jpg,images/tutalien2,images/tutalien1,images/tutrocket1,images/tutalien2,images/t.png,2,practice,true,2,common,1,2020-07-01T14:12:04Z,sub100
two-step-fixation,87,450761,0.0-61.0-2.8,TRUE,TRUE,FALSE,FALSE,"""event"",""trial"",""time""
""fullscreenenter"",""5"",""15844""
","
","
","""event"",""trial"",""time""
""fullscreenenter"",""5"",""15844""
","
",NA,images/earth.jpg,NA,NA,NA,NA,NA,NA,NA,NA,NA,NA,NA,NA,NA,fixation,NA,NA,NA,NA,NA,NA,sub100
d3-animate-choice,88,453901,0.0-61.0-0.9,TRUE,TRUE,FALSE,FALSE,"""event"",""trial"",""time""
""fullscreenenter"",""5"",""15844""
","
","
","""event"",""trial"",""time""
""fullscreenenter"",""5"",""15844""
","
",1125.2150000000256,NA,49,NA,NA,3000,1,NA,NA,images/earth.jpg,images/tutrocket1,images/tutrocket2,null,images/tutrocket2,NA,1,practice,null,1,NA,NA,NA,sub100
d3-animate-choice,89,456276,0.0-61.0-1.9,TRUE,TRUE,FALSE,FALSE,"""event"",""trial"",""time""
""fullscreenenter"",""5"",""15844""
","
","
","""event"",""trial"",""time""
""fullscreenenter"",""5"",""15844""
","
",364.50000000337604,NA,48,NA,NA,3000,1,NA,NA,images/tutyellowplanet.jpg,images/tutalien4,images/tutalien3,images/tutrocket2,images/tutalien4,images/t.png,2,practice,true,2,common,1,2020-07-01T14:12:11Z,sub100
two-step-fixation,90,457284,0.0-61.0-2.9,TRUE,TRUE,FALSE,FALSE,"""event"",""trial"",""time""
""fullscreenenter"",""5"",""15844""
","
","
","""event"",""trial"",""time""
""fullscreenenter"",""5"",""15844""
","
",NA,images/earth.jpg,NA,NA,NA,NA,NA,NA,NA,NA,NA,NA,NA,NA,NA,fixation,NA,NA,NA,NA,NA,NA,sub100
d3-animate-choice,91,459839,0.0-61.0-0.10,TRUE,TRUE,FALSE,FALSE,"""event"",""trial"",""time""
""fullscreenenter"",""5"",""15844""
","
","
","""event"",""trial"",""time""
""fullscreenenter"",""5"",""15844""
","
",543.9900000019697,NA,49,NA,NA,3000,1,1202.3499999996275,48,images/earth.jpg,images/tutrocket1,images/tutrocket2,null,images/tutrocket2,NA,1,practice,null,1,NA,NA,NA,sub100
d3-animate-choice,92,462521,0.0-61.0-1.10,TRUE,TRUE,FALSE,FALSE,"""event"",""trial"",""time""
""fullscreenenter"",""5"",""15844""
","
","
","""event"",""trial"",""time""
""fullscreenenter"",""5"",""15844""
","
",672.2899999985821,NA,49,NA,NA,3000,1,NA,NA,images/tutgreenplanet.jpg,images/tutalien2,images/tutalien1,images/tutrocket2,images/tutalien1,images/nothing.png,2,practice,false,1,rare,0,2020-07-01T14:12:17Z,sub100
two-step-fixation,93,463529,0.0-61.0-2.10,TRUE,TRUE,FALSE,FALSE,"""event"",""trial"",""time""
""fullscreenenter"",""5"",""15844""
","
","
","""event"",""trial"",""time""
""fullscreenenter"",""5"",""15844""
","
",NA,images/earth.jpg,NA,NA,NA,NA,NA,NA,NA,NA,NA,NA,NA,NA,NA,fixation,NA,NA,NA,NA,NA,NA,sub100
d3-animate-choice,94,466986,0.0-61.0-0.11,TRUE,TRUE,FALSE,FALSE,"""event"",""trial"",""time""
""fullscreenenter"",""5"",""15844""
","
","
","""event"",""trial"",""time""
""fullscreenenter"",""5"",""15844""
","
",1449.2100000024657,NA,49,NA,NA,3000,1,NA,NA,images/earth.jpg,images/tutrocket1,images/tutrocket2,null,images/tutrocket2,NA,1,practice,null,1,NA,NA,NA,sub100
d3-animate-choice,95,469330,0.0-61.0-1.11,TRUE,TRUE,FALSE,FALSE,"""event"",""trial"",""time""
""fullscreenenter"",""5"",""15844""
","
","
","""event"",""trial"",""time""
""fullscreenenter"",""5"",""15844""
","
",336.11999999999534,NA,48,NA,NA,3000,1,2268.5099999980885,49,images/tutyellowplanet.jpg,images/tutalien4,images/tutalien3,images/tutrocket2,images/tutalien4,images/nothing.png,2,practice,true,2,common,0,2020-07-01T14:12:24Z,sub100
two-step-fixation,96,470336,0.0-61.0-2.11,TRUE,TRUE,FALSE,FALSE,"""event"",""trial"",""time""
""fullscreenenter"",""5"",""15844""
","
","
","""event"",""trial"",""time""
""fullscreenenter"",""5"",""15844""
","
",NA,images/earth.jpg,NA,NA,NA,NA,NA,NA,NA,NA,NA,NA,NA,NA,NA,fixation,NA,NA,NA,NA,NA,NA,sub100
d3-animate-choice,97,472592,0.0-61.0-0.12,TRUE,TRUE,FALSE,FALSE,"""event"",""trial"",""time""
""fullscreenenter"",""5"",""15844""
","
","
","""event"",""trial"",""time""
""fullscreenenter"",""5"",""15844""
","
",241.8249999973341,NA,49,NA,NA,3000,1,NA,NA,images/earth.jpg,images/tutrocket1,images/tutrocket2,null,images/tutrocket2,NA,1,practice,null,1,NA,NA,NA,sub100
d3-animate-choice,98,475144,0.0-61.0-1.12,TRUE,TRUE,FALSE,FALSE,"""event"",""trial"",""time""
""fullscreenenter"",""5"",""15844""
","
","
","""event"",""trial"",""time""
""fullscreenenter"",""5"",""15844""
","
",544.3249999989639,NA,49,NA,NA,3000,1,NA,NA,images/tutyellowplanet.jpg,images/tutalien4,images/tutalien3,images/tutrocket2,images/tutalien3,images/nothing.png,2,practice,true,1,common,0,2020-07-01T14:12:29Z,sub100
two-step-fixation,99,476152,0.0-61.0-2.12,TRUE,TRUE,FALSE,FALSE,"""event"",""trial"",""time""
""fullscreenenter"",""5"",""15844""
","
","
","""event"",""trial"",""time""
""fullscreenenter"",""5"",""15844""
","
",NA,images/earth.jpg,NA,NA,NA,NA,NA,NA,NA,NA,NA,NA,NA,NA,NA,fixation,NA,NA,NA,NA,NA,NA,sub100
d3-animate-choice,100,478906,0.0-61.0-0.13,TRUE,TRUE,FALSE,FALSE,"""event"",""trial"",""time""
""fullscreenenter"",""5"",""15844""
","
","
","""event"",""trial"",""time""
""fullscreenenter"",""5"",""15844""
","
",740.5650000000605,NA,48,NA,NA,3000,1,NA,NA,images/earth.jpg,images/tutrocket1,images/tutrocket2,null,images/tutrocket1,NA,1,practice,null,2,NA,NA,NA,sub100
d3-animate-choice,101,481296,0.0-61.0-1.13,TRUE,TRUE,FALSE,FALSE,"""event"",""trial"",""time""
""fullscreenenter"",""5"",""15844""
","
","
","""event"",""trial"",""time""
""fullscreenenter"",""5"",""15844""
","
",381.1249999998836,NA,48,NA,NA,3000,1,NA,NA,images/tutyellowplanet.jpg,images/tutalien4,images/tutalien3,images/tutrocket1,images/tutalien4,images/nothing.png,2,practice,false,2,rare,0,2020-07-01T14:12:36Z,sub100
two-step-fixation,102,482302,0.0-61.0-2.13,TRUE,TRUE,FALSE,FALSE,"""event"",""trial"",""time""
""fullscreenenter"",""5"",""15844""
","
","
","""event"",""trial"",""time""
""fullscreenenter"",""5"",""15844""
","
",NA,images/earth.jpg,NA,NA,NA,NA,NA,NA,NA,NA,NA,NA,NA,NA,NA,fixation,NA,NA,NA,NA,NA,NA,sub100
d3-animate-choice,103,485646,0.0-61.0-0.14,TRUE,TRUE,FALSE,FALSE,"""event"",""trial"",""time""
""fullscreenenter"",""5"",""15844""
","
","
","""event"",""trial"",""time""
""fullscreenenter"",""5"",""15844""
","
",1332.7599999974482,NA,49,NA,NA,3000,1,1503.000000000582,48,images/earth.jpg,images/tutrocket1,images/tutrocket2,null,images/tutrocket2,NA,1,practice,null,1,NA,NA,NA,sub100
d3-animate-choice,104,488082,0.0-61.0-1.14,TRUE,TRUE,FALSE,FALSE,"""event"",""trial"",""time""
""fullscreenenter"",""5"",""15844""
","
","
","""event"",""trial"",""time""
""fullscreenenter"",""5"",""15844""
","
",428.8200000009965,NA,48,NA,NA,3000,1,NA,NA,images/tutgreenplanet.jpg,images/tutalien2,images/tutalien1,images/tutrocket2,images/tutalien2,images/nothing.png,2,practice,false,2,rare,0,2020-07-01T14:12:42Z,sub100
two-step-fixation,105,489090,0.0-61.0-2.14,TRUE,TRUE,FALSE,FALSE,"""event"",""trial"",""time""
""fullscreenenter"",""5"",""15844""
","
","
","""event"",""trial"",""time""
""fullscreenenter"",""5"",""15844""
","
",NA,images/earth.jpg,NA,NA,NA,NA,NA,NA,NA,NA,NA,NA,NA,NA,NA,fixation,NA,NA,NA,NA,NA,NA,sub100
d3-animate-choice,106,493102,0.0-61.0-0.15,TRUE,TRUE,FALSE,FALSE,"""event"",""trial"",""time""
""fullscreenenter"",""5"",""15844""
","
","
","""event"",""trial"",""time""
""fullscreenenter"",""5"",""15844""
","
",2009.8099999995902,NA,49,NA,NA,3000,1,NA,NA,images/earth.jpg,images/tutrocket1,images/tutrocket2,null,images/tutrocket2,NA,1,practice,null,1,NA,NA,NA,sub100
d3-animate-choice,107,495601,0.0-61.0-1.15,TRUE,TRUE,FALSE,FALSE,"""event"",""trial"",""time""
""fullscreenenter"",""5"",""15844""
","
","
","""event"",""trial"",""time""
""fullscreenenter"",""5"",""15844""
","
",488.01000000094064,NA,48,NA,NA,3000,1,NA,NA,images/tutyellowplanet.jpg,images/tutalien4,images/tutalien3,images/tutrocket2,images/tutalien4,images/t.png,2,practice,true,2,common,1,2020-07-01T14:12:50Z,sub100
two-step-fixation,108,496608,0.0-61.0-2.15,TRUE,TRUE,FALSE,FALSE,"""event"",""trial"",""time""
""fullscreenenter"",""5"",""15844""
","
","
","""event"",""trial"",""time""
""fullscreenenter"",""5"",""15844""
","
",NA,images/earth.jpg,NA,NA,NA,NA,NA,NA,NA,NA,NA,NA,NA,NA,NA,fixation,NA,NA,NA,NA,NA,NA,sub100
d3-animate-choice,109,498620,0.0-61.0-0.16,TRUE,TRUE,FALSE,FALSE,"""event"",""trial"",""time""
""fullscreenenter"",""5"",""15844""
","
","
","""event"",""trial"",""time""
""fullscreenenter"",""5"",""15844""
","
",0.415000002249144,NA,49,NA,NA,3000,1,1738.3699999991804,48,images/earth.jpg,images/tutrocket1,images/tutrocket2,null,images/tutrocket2,NA,1,practice,null,1,NA,NA,NA,sub100
d3-animate-choice,110,502629,0.0-61.0-1.16,TRUE,TRUE,FALSE,FALSE,"""event"",""trial"",""time""
""fullscreenenter"",""5"",""15844""
","
","
","""event"",""trial"",""time""
""fullscreenenter"",""5"",""15844""
","
",2310.1800000004005,NA,48,NA,NA,3000,1,NA,NA,images/tutgreenplanet.jpg,images/tutalien2,images/tutalien1,images/tutrocket2,images/tutalien2,images/nothing.png,2,practice,false,2,rare,0,2020-07-01T14:12:57Z,sub100
two-step-fixation,111,503637,0.0-61.0-2.16,TRUE,TRUE,FALSE,FALSE,"""event"",""trial"",""time""
""fullscreenenter"",""5"",""15844""
","
","
","""event"",""trial"",""time""
""fullscreenenter"",""5"",""15844""
","
",NA,images/earth.jpg,NA,NA,NA,NA,NA,NA,NA,NA,NA,NA,NA,NA,NA,fixation,NA,NA,NA,NA,NA,NA,sub100
d3-animate-choice,112,506403,0.0-61.0-0.17,TRUE,TRUE,FALSE,FALSE,"""event"",""trial"",""time""
""fullscreenenter"",""5"",""15844""
","
","
","""event"",""trial"",""time""
""fullscreenenter"",""5"",""15844""
","
",754.1700000001583,NA,49,NA,NA,3000,1,NA,NA,images/earth.jpg,images/tutrocket1,images/tutrocket2,null,images/tutrocket2,NA,1,practice,null,1,NA,NA,NA,sub100
d3-animate-choice,113,509631,0.0-61.0-1.17,TRUE,TRUE,FALSE,FALSE,"""event"",""trial"",""time""
""fullscreenenter"",""5"",""15844""
","
","
","""event"",""trial"",""time""
""fullscreenenter"",""5"",""15844""
","
",1214.1650000012014,NA,48,NA,NA,3000,1,NA,NA,images/tutgreenplanet.jpg,images/tutalien2,images/tutalien1,images/tutrocket2,images/tutalien2,images/t.png,2,practice,false,2,rare,1,2020-07-01T14:13:04Z,sub100
two-step-fixation,114,510643,0.0-61.0-2.17,TRUE,TRUE,FALSE,FALSE,"""event"",""trial"",""time""
""fullscreenenter"",""5"",""15844""
","
","
","""event"",""trial"",""time""
""fullscreenenter"",""5"",""15844""
","
",NA,images/earth.jpg,NA,NA,NA,NA,NA,NA,NA,NA,NA,NA,NA,NA,NA,fixation,NA,NA,NA,NA,NA,NA,sub100
d3-animate-choice,115,513460,0.0-61.0-0.18,TRUE,TRUE,FALSE,FALSE,"""event"",""trial"",""time""
""fullscreenenter"",""5"",""15844""
","
","
","""event"",""trial"",""time""
""fullscreenenter"",""5"",""15844""
","
",807.280000000901,NA,49,NA,NA,3000,1,NA,NA,images/earth.jpg,images/tutrocket1,images/tutrocket2,null,images/tutrocket2,NA,1,practice,null,1,NA,NA,NA,sub100
d3-animate-choice,116,517038,0.0-61.0-1.18,TRUE,TRUE,FALSE,FALSE,"""event"",""trial"",""time""
""fullscreenenter"",""5"",""15844""
","
","
","""event"",""trial"",""time""
""fullscreenenter"",""5"",""15844""
","
",1563.5249999978114,NA,48,NA,NA,3000,1,NA,NA,images/tutyellowplanet.jpg,images/tutalien4,images/tutalien3,images/tutrocket2,images/tutalien4,images/t.png,2,practice,true,2,common,1,2020-07-01T14:13:11Z,sub100
two-step-fixation,117,518043,0.0-61.0-2.18,TRUE,TRUE,FALSE,FALSE,"""event"",""trial"",""time""
""fullscreenenter"",""5"",""15844""
","
","
","""event"",""trial"",""time""
""fullscreenenter"",""5"",""15844""
","
",NA,images/earth.jpg,NA,NA,NA,NA,NA,NA,NA,NA,NA,NA,NA,NA,NA,fixation,NA,NA,NA,NA,NA,NA,sub100
d3-animate-choice,118,520780,0.0-61.0-0.19,TRUE,TRUE,FALSE,FALSE,"""event"",""trial"",""time""
""fullscreenenter"",""5"",""15844""
","
","
","""event"",""trial"",""time""
""fullscreenenter"",""5"",""15844""
","
",725.8150000016904,NA,49,NA,NA,3000,1,NA,NA,images/earth.jpg,images/tutrocket1,images/tutrocket2,null,images/tutrocket2,NA,1,practice,null,1,NA,NA,NA,sub100
d3-animate-choice,119,523848,0.0-61.0-1.19,TRUE,TRUE,FALSE,FALSE,"""event"",""trial"",""time""
""fullscreenenter"",""5"",""15844""
","
","
","""event"",""trial"",""time""
""fullscreenenter"",""5"",""15844""
","
",1054.8049999998184,NA,49,NA,NA,3000,1,NA,NA,images/tutgreenplanet.jpg,images/tutalien2,images/tutalien1,images/tutrocket2,images/tutalien1,images/t.png,2,practice,false,1,rare,1,2020-07-01T14:13:18Z,sub100
two-step-fixation,120,524856,0.0-61.0-2.19,TRUE,TRUE,FALSE,FALSE,"""event"",""trial"",""time""
""fullscreenenter"",""5"",""15844""
","
","
","""event"",""trial"",""time""
""fullscreenenter"",""5"",""15844""
","
",NA,images/earth.jpg,NA,NA,NA,NA,NA,NA,NA,NA,NA,NA,NA,NA,NA,fixation,NA,NA,NA,NA,NA,NA,sub100
d3-instructions,121,528244,0.0-62.0,TRUE,TRUE,FALSE,FALSE,"""event"",""trial"",""time""
""fullscreenenter"",""5"",""15844""
","
","
","""event"",""trial"",""time""
""fullscreenenter"",""5"",""15844""
","
",NA,NA,NA,NA,NA,NA,NA,NA,NA,NA,NA,NA,NA,NA,NA,NA,NA,NA,NA,NA,NA,NA,sub100
audio-keyboard-response,122,531461,0.0-63.0,TRUE,TRUE,FALSE,FALSE,"""event"",""trial"",""time""
""fullscreenenter"",""5"",""15844""
","
","
","""event"",""trial"",""time""
""fullscreenenter"",""5"",""15844""
","
",3211,audio/instructions/treasure_feedback.wav,32,NA,NA,NA,NA,NA,NA,NA,NA,NA,NA,NA,NA,NA,NA,NA,NA,NA,NA,NA,sub100
d3-instructions,123,536861,0.0-64.0,TRUE,TRUE,FALSE,FALSE,"""event"",""trial"",""time""
""fullscreenenter"",""5"",""15844""
","
","
","""event"",""trial"",""time""
""fullscreenenter"",""5"",""15844""
","
",NA,NA,NA,NA,NA,NA,NA,NA,NA,NA,NA,NA,NA,NA,NA,NA,NA,NA,NA,NA,NA,NA,sub100
d3-instructions,124,540717,0.0-65.0,TRUE,TRUE,FALSE,FALSE,"""event"",""trial"",""time""
""fullscreenenter"",""5"",""15844""
","
","
","""event"",""trial"",""time""
""fullscreenenter"",""5"",""15844""
","
",NA,NA,NA,NA,NA,NA,NA,NA,NA,NA,NA,NA,NA,NA,NA,NA,NA,NA,NA,NA,NA,NA,sub100
d3-instructions,125,543790,0.0-66.0,TRUE,TRUE,FALSE,FALSE,"""event"",""trial"",""time""
""fullscreenenter"",""5"",""15844""
","
","
","""event"",""trial"",""time""
""fullscreenenter"",""5"",""15844""
","
",NA,NA,NA,NA,NA,NA,NA,NA,NA,NA,NA,NA,NA,NA,NA,NA,NA,NA,NA,NA,NA,NA,sub100
d3-instructions,126,545202,0.0-67.0,TRUE,TRUE,FALSE,FALSE,"""event"",""trial"",""time""
""fullscreenenter"",""5"",""15844""
","
","
","""event"",""trial"",""time""
""fullscreenenter"",""5"",""15844""
","
",NA,NA,NA,NA,NA,NA,NA,NA,NA,NA,NA,NA,NA,NA,NA,NA,NA,NA,NA,NA,NA,NA,sub100
d3-instructions,127,549396,0.0-68.0,TRUE,TRUE,FALSE,FALSE,"""event"",""trial"",""time""
""fullscreenenter"",""5"",""15844""
","
","
","""event"",""trial"",""time""
""fullscreenenter"",""5"",""15844""
","
",NA,NA,NA,NA,NA,NA,NA,NA,NA,NA,NA,NA,NA,NA,NA,NA,NA,NA,NA,NA,NA,NA,sub100
instructions-quiz,128,553099,0.0-69.0,TRUE,TRUE,FALSE,FALSE,"""event"",""trial"",""time""
""fullscreenenter"",""5"",""15844""
","
","
","""event"",""trial"",""time""
""fullscreenenter"",""5"",""15844""
","
",3699.0949999998556,audio/quiz/Q1_Prompt.wav,NA,1,NA,NA,NA,NA,NA,NA,NA,NA,NA,NA,NA,NA,NA,NA,NA,NA,NA,NA,sub100
audio-keyboard-response,129,562270,0.0-70.0,TRUE,TRUE,FALSE,FALSE,"""event"",""trial"",""time""
""fullscreenenter"",""5"",""15844""
","
","
","""event"",""trial"",""time""
""fullscreenenter"",""5"",""15844""
","
",null,audio/quiz/Q1_Correct.wav,null,NA,NA,NA,NA,NA,NA,NA,NA,NA,NA,NA,NA,NA,NA,NA,NA,NA,NA,NA,sub100
instructions-quiz,130,567465,0.0-71.0,TRUE,TRUE,FALSE,FALSE,"""event"",""trial"",""time""
""fullscreenenter"",""5"",""15844""
","
","
","""event"",""trial"",""time""
""fullscreenenter"",""5"",""15844""
","
",5192.069999997271,audio/quiz/Q2_Prompt.wav,NA,0,NA,NA,NA,NA,NA,NA,NA,NA,NA,NA,NA,NA,NA,NA,NA,NA,NA,NA,sub100
audio-keyboard-response,131,580340,0.0-72.0,TRUE,TRUE,FALSE,FALSE,"""event"",""trial"",""time""
""fullscreenenter"",""5"",""15844""
","
","
","""event"",""trial"",""time""
""fullscreenenter"",""5"",""15844""
","
",null,audio/quiz/Q2_Correct.wav,null,NA,NA,NA,NA,NA,NA,NA,NA,NA,NA,NA,NA,NA,NA,NA,NA,NA,NA,NA,sub100
instructions-quiz,132,585714,0.0-73.0,TRUE,TRUE,FALSE,FALSE,"""event"",""trial"",""time""
""fullscreenenter"",""5"",""15844""
","
","
","""event"",""trial"",""time""
""fullscreenenter"",""5"",""15844""
","
",5367.040000000969,audio/quiz/Q3_Prompt.wav,NA,1,NA,NA,NA,NA,NA,NA,NA,NA,NA,NA,NA,NA,NA,NA,NA,NA,NA,NA,sub100
audio-keyboard-response,133,591517,0.0-74.0,TRUE,TRUE,FALSE,FALSE,"""event"",""trial"",""time""
""fullscreenenter"",""5"",""15844""
""fullscreenexit"",""134"",""610083""
""blur"",""134"",""610089""
""focus"",""134"",""611548""
","""event"",""trial"",""time""
""blur"",""134"",""610089""
","""event"",""trial"",""time""
""focus"",""134"",""611548""
","""event"",""trial"",""time""
""fullscreenenter"",""5"",""15844""
","""event"",""trial"",""time""
""fullscreenexit"",""134"",""610083""
",null,audio/quiz/Q3_Correct.wav,null,NA,NA,NA,NA,NA,NA,NA,NA,NA,NA,NA,NA,NA,NA,NA,NA,NA,NA,NA,sub100
d3-instructions,134,613940,0.0-75.0,TRUE,TRUE,FALSE,FALSE,"""event"",""trial"",""time""
""fullscreenenter"",""5"",""15844""
""fullscreenexit"",""134"",""610083""
""blur"",""134"",""610089""
""focus"",""134"",""611548""
","""event"",""trial"",""time""
""blur"",""134"",""610089""
","""event"",""trial"",""time""
""focus"",""134"",""611548""
","""event"",""trial"",""time""
""fullscreenenter"",""5"",""15844""
","""event"",""trial"",""time""
""fullscreenexit"",""134"",""610083""
",NA,NA,NA,NA,NA,NA,NA,NA,NA,NA,NA,NA,NA,NA,NA,NA,NA,NA,NA,NA,NA,NA,sub100
d3-animate-choice,135,617438,0.0-76.0-0.0,TRUE,TRUE,FALSE,FALSE,"""event"",""trial"",""time""
""fullscreenenter"",""5"",""15844""
""fullscreenexit"",""134"",""610083""
""blur"",""134"",""610089""
""focus"",""134"",""611548""
","""event"",""trial"",""time""
""blur"",""134"",""610089""
","""event"",""trial"",""time""
""focus"",""134"",""611548""
","""event"",""trial"",""time""
""fullscreenenter"",""5"",""15844""
","""event"",""trial"",""time""
""fullscreenexit"",""134"",""610083""
",1490.1050000007963,NA,49,NA,NA,3000,1,NA,NA,images/earth.jpg,images/rocket2,images/rocket1,null,images/rocket1,NA,1,real,null,1,NA,NA,NA,sub100
d3-animate-choice,136,619955,0.0-76.0-1.0,TRUE,TRUE,FALSE,FALSE,"""event"",""trial"",""time""
""fullscreenenter"",""5"",""15844""
""fullscreenexit"",""134"",""610083""
""blur"",""134"",""610089""
""focus"",""134"",""611548""
","""event"",""trial"",""time""
""blur"",""134"",""610089""
","""event"",""trial"",""time""
""focus"",""134"",""611548""
","""event"",""trial"",""time""
""fullscreenenter"",""5"",""15844""
","""event"",""trial"",""time""
""fullscreenexit"",""134"",""610083""
",507.16499999910593,NA,48,NA,NA,3000,1,NA,NA,images/purpleplanet.jpg,images/alien4,images/alien3,images/rocket1,images/alien4,images/t.png,2,real,false,2,rare,1,2020-07-01T14:14:54Z,sub100
two-step-fixation,137,620966,0.0-76.0-2.0,TRUE,TRUE,FALSE,FALSE,"""event"",""trial"",""time""
""fullscreenenter"",""5"",""15844""
""fullscreenexit"",""134"",""610083""
""blur"",""134"",""610089""
""focus"",""134"",""611548""
","""event"",""trial"",""time""
""blur"",""134"",""610089""
","""event"",""trial"",""time""
""focus"",""134"",""611548""
","""event"",""trial"",""time""
""fullscreenenter"",""5"",""15844""
","""event"",""trial"",""time""
""fullscreenexit"",""134"",""610083""
",NA,images/earth.jpg,NA,NA,NA,NA,NA,NA,NA,NA,NA,NA,NA,NA,NA,fixation,NA,NA,NA,NA,NA,NA,sub100
d3-animate-choice,138,623699,0.0-76.0-0.1,TRUE,TRUE,FALSE,FALSE,"""event"",""trial"",""time""
""fullscreenenter"",""5"",""15844""
""fullscreenexit"",""134"",""610083""
""blur"",""134"",""610089""
""focus"",""134"",""611548""
","""event"",""trial"",""time""
""blur"",""134"",""610089""
","""event"",""trial"",""time""
""focus"",""134"",""611548""
","""event"",""trial"",""time""
""fullscreenenter"",""5"",""15844""
","""event"",""trial"",""time""
""fullscreenexit"",""134"",""610083""
",721.1050000005635,NA,49,NA,NA,3000,1,NA,NA,images/earth.jpg,images/rocket2,images/rocket1,null,images/rocket1,NA,1,real,null,1,NA,NA,NA,sub100
d3-animate-choice,139,626162,0.0-76.0-1.1,TRUE,TRUE,FALSE,FALSE,"""event"",""trial"",""time""
""fullscreenenter"",""5"",""15844""
""fullscreenexit"",""134"",""610083""
""blur"",""134"",""610089""
""focus"",""134"",""611548""
","""event"",""trial"",""time""
""blur"",""134"",""610089""
","""event"",""trial"",""time""
""focus"",""134"",""611548""
","""event"",""trial"",""time""
""fullscreenenter"",""5"",""15844""
","""event"",""trial"",""time""
""fullscreenexit"",""134"",""610083""
",451.9350000008708,NA,48,NA,NA,3000,1,NA,NA,images/redplanet1.jpg,images/alien2,images/alien1,images/rocket1,images/alien2,images/t.png,2,real,true,2,common,1,2020-07-01T14:15:00Z,sub100
two-step-fixation,140,627172,0.0-76.0-2.1,TRUE,TRUE,FALSE,FALSE,"""event"",""trial"",""time""
""fullscreenenter"",""5"",""15844""
""fullscreenexit"",""134"",""610083""
""blur"",""134"",""610089""
""focus"",""134"",""611548""
","""event"",""trial"",""time""
""blur"",""134"",""610089""
","""event"",""trial"",""time""
""focus"",""134"",""611548""
","""event"",""trial"",""time""
""fullscreenenter"",""5"",""15844""
","""event"",""trial"",""time""
""fullscreenexit"",""134"",""610083""
",NA,images/earth.jpg,NA,NA,NA,NA,NA,NA,NA,NA,NA,NA,NA,NA,NA,fixation,NA,NA,NA,NA,NA,NA,sub100
d3-animate-choice,141,629493,0.0-76.0-0.2,TRUE,TRUE,FALSE,FALSE,"""event"",""trial"",""time""
""fullscreenenter"",""5"",""15844""
""fullscreenexit"",""134"",""610083""
""blur"",""134"",""610089""
""focus"",""134"",""611548""
","""event"",""trial"",""time""
""blur"",""134"",""610089""
","""event"",""trial"",""time""
""focus"",""134"",""611548""
","""event"",""trial"",""time""
""fullscreenenter"",""5"",""15844""
","""event"",""trial"",""time""
""fullscreenexit"",""134"",""610083""
",309.9599999986822,NA,48,NA,NA,3000,1,1856.499999998021,49,images/earth.jpg,images/rocket2,images/rocket1,null,images/rocket2,NA,1,real,null,2,NA,NA,NA,sub100
d3-animate-choice,142,631909,0.0-76.0-1.2,TRUE,TRUE,FALSE,FALSE,"""event"",""trial"",""time""
""fullscreenenter"",""5"",""15844""
""fullscreenexit"",""134"",""610083""
""blur"",""134"",""610089""
""focus"",""134"",""611548""
","""event"",""trial"",""time""
""blur"",""134"",""610089""
","""event"",""trial"",""time""
""focus"",""134"",""611548""
","""event"",""trial"",""time""
""fullscreenenter"",""5"",""15844""
","""event"",""trial"",""time""
""fullscreenexit"",""134"",""610083""
",407.15500000072643,NA,49,NA,NA,3000,1,NA,NA,images/purpleplanet.jpg,images/alien4,images/alien3,images/rocket2,images/alien3,images/nothing.png,2,real,true,1,common,0,2020-07-01T14:15:06Z,sub100
two-step-fixation,143,632920,0.0-76.0-2.2,TRUE,TRUE,FALSE,FALSE,"""event"",""trial"",""time""
""fullscreenenter"",""5"",""15844""
""fullscreenexit"",""134"",""610083""
""blur"",""134"",""610089""
""focus"",""134"",""611548""
","""event"",""trial"",""time""
""blur"",""134"",""610089""
","""event"",""trial"",""time""
""focus"",""134"",""611548""
","""event"",""trial"",""time""
""fullscreenenter"",""5"",""15844""
","""event"",""trial"",""time""
""fullscreenexit"",""134"",""610083""
",NA,images/earth.jpg,NA,NA,NA,NA,NA,NA,NA,NA,NA,NA,NA,NA,NA,fixation,NA,NA,NA,NA,NA,NA,sub100
d3-animate-choice,144,635401,0.0-76.0-0.3,TRUE,TRUE,FALSE,FALSE,"""event"",""trial"",""time""
""fullscreenenter"",""5"",""15844""
""fullscreenexit"",""134"",""610083""
""blur"",""134"",""610089""
""focus"",""134"",""611548""
","""event"",""trial"",""time""
""blur"",""134"",""610089""
","""event"",""trial"",""time""
""focus"",""134"",""611548""
","""event"",""trial"",""time""
""fullscreenenter"",""5"",""15844""
","""event"",""trial"",""time""
""fullscreenexit"",""134"",""610083""
",470.39999999839347,NA,48,NA,NA,3000,1,NA,NA,images/earth.jpg,images/rocket2,images/rocket1,null,images/rocket2,NA,1,real,null,2,NA,NA,NA,sub100
d3-animate-choice,145,637781,0.0-76.0-1.3,TRUE,TRUE,FALSE,FALSE,"""event"",""trial"",""time""
""fullscreenenter"",""5"",""15844""
""fullscreenexit"",""134"",""610083""
""blur"",""134"",""610089""
""focus"",""134"",""611548""
","""event"",""trial"",""time""
""blur"",""134"",""610089""
","""event"",""trial"",""time""
""focus"",""134"",""611548""
","""event"",""trial"",""time""
""fullscreenenter"",""5"",""15844""
","""event"",""trial"",""time""
""fullscreenexit"",""134"",""610083""
",370.0199999985052,NA,49,NA,NA,3000,1,NA,NA,images/redplanet1.jpg,images/alien2,images/alien1,images/rocket2,images/alien1,images/nothing.png,2,real,false,1,rare,0,2020-07-01T14:15:12Z,sub100
two-step-fixation,146,638793,0.0-76.0-2.3,TRUE,TRUE,FALSE,FALSE,"""event"",""trial"",""time""
""fullscreenenter"",""5"",""15844""
""fullscreenexit"",""134"",""610083""
""blur"",""134"",""610089""
""focus"",""134"",""611548""
","""event"",""trial"",""time""
""blur"",""134"",""610089""
","""event"",""trial"",""time""
""focus"",""134"",""611548""
","""event"",""trial"",""time""
""fullscreenenter"",""5"",""15844""
","""event"",""trial"",""time""
""fullscreenexit"",""134"",""610083""
",NA,images/earth.jpg,NA,NA,NA,NA,NA,NA,NA,NA,NA,NA,NA,NA,NA,fixation,NA,NA,NA,NA,NA,NA,sub100
d3-animate-choice,147,641188,0.0-76.0-0.4,TRUE,TRUE,FALSE,FALSE,"""event"",""trial"",""time""
""fullscreenenter"",""5"",""15844""
""fullscreenexit"",""134"",""610083""
""blur"",""134"",""610089""
""focus"",""134"",""611548""
","""event"",""trial"",""time""
""blur"",""134"",""610089""
","""event"",""trial"",""time""
""focus"",""134"",""611548""
","""event"",""trial"",""time""
""fullscreenenter"",""5"",""15844""
","""event"",""trial"",""time""
""fullscreenexit"",""134"",""610083""
",386.5850000001956,NA,49,NA,NA,3000,1,2280.815000001923,48,images/earth.jpg,images/rocket2,images/rocket1,null,images/rocket1,NA,1,real,null,1,NA,NA,NA,sub100
d3-animate-choice,148,643697,0.0-76.0-1.4,TRUE,TRUE,FALSE,FALSE,"""event"",""trial"",""time""
""fullscreenenter"",""5"",""15844""
""fullscreenexit"",""134"",""610083""
""blur"",""134"",""610089""
""focus"",""134"",""611548""
","""event"",""trial"",""time""
""blur"",""134"",""610089""
","""event"",""trial"",""time""
""focus"",""134"",""611548""
","""event"",""trial"",""time""
""fullscreenenter"",""5"",""15844""
","""event"",""trial"",""time""
""fullscreenexit"",""134"",""610083""
",499.2500000008149,NA,48,NA,NA,3000,1,NA,NA,images/redplanet1.jpg,images/alien2,images/alien1,images/rocket1,images/alien2,images/nothing.png,2,real,true,2,common,0,2020-07-01T14:15:18Z,sub100
two-step-fixation,149,644703,0.0-76.0-2.4,TRUE,TRUE,FALSE,FALSE,"""event"",""trial"",""time""
""fullscreenenter"",""5"",""15844""
""fullscreenexit"",""134"",""610083""
""blur"",""134"",""610089""
""focus"",""134"",""611548""
","""event"",""trial"",""time""
""blur"",""134"",""610089""
","""event"",""trial"",""time""
""focus"",""134"",""611548""
","""event"",""trial"",""time""
""fullscreenenter"",""5"",""15844""
","""event"",""trial"",""time""
""fullscreenexit"",""134"",""610083""
",NA,images/earth.jpg,NA,NA,NA,NA,NA,NA,NA,NA,NA,NA,NA,NA,NA,fixation,NA,NA,NA,NA,NA,NA,sub100
d3-animate-choice,150,647075,0.0-76.0-0.5,TRUE,TRUE,FALSE,FALSE,"""event"",""trial"",""time""
""fullscreenenter"",""5"",""15844""
""fullscreenexit"",""134"",""610083""
""blur"",""134"",""610089""
""focus"",""134"",""611548""
","""event"",""trial"",""time""
""blur"",""134"",""610089""
","""event"",""trial"",""time""
""focus"",""134"",""611548""
","""event"",""trial"",""time""
""fullscreenenter"",""5"",""15844""
","""event"",""trial"",""time""
""fullscreenexit"",""134"",""610083""
",360.98999999742955,NA,49,NA,NA,3000,1,NA,NA,images/earth.jpg,images/rocket2,images/rocket1,null,images/rocket1,NA,1,real,null,1,NA,NA,NA,sub100
d3-animate-choice,151,649416,0.0-76.0-1.5,TRUE,TRUE,FALSE,FALSE,"""event"",""trial"",""time""
""fullscreenenter"",""5"",""15844""
""fullscreenexit"",""134"",""610083""
""blur"",""134"",""610089""
""focus"",""134"",""611548""
","""event"",""trial"",""time""
""blur"",""134"",""610089""
","""event"",""trial"",""time""
""focus"",""134"",""611548""
","""event"",""trial"",""time""
""fullscreenenter"",""5"",""15844""
","""event"",""trial"",""time""
""fullscreenexit"",""134"",""610083""
",329.8300000024028,NA,48,NA,NA,3000,1,NA,NA,images/redplanet1.jpg,images/alien2,images/alien1,images/rocket1,images/alien2,images/t.png,2,real,true,2,common,1,2020-07-01T14:15:24Z,sub100
two-step-fixation,152,650424,0.0-76.0-2.5,TRUE,TRUE,FALSE,FALSE,"""event"",""trial"",""time""
""fullscreenenter"",""5"",""15844""
""fullscreenexit"",""134"",""610083""
""blur"",""134"",""610089""
""focus"",""134"",""611548""
","""event"",""trial"",""time""
""blur"",""134"",""610089""
","""event"",""trial"",""time""
""focus"",""134"",""611548""
","""event"",""trial"",""time""
""fullscreenenter"",""5"",""15844""
","""event"",""trial"",""time""
""fullscreenexit"",""134"",""610083""
",NA,images/earth.jpg,NA,NA,NA,NA,NA,NA,NA,NA,NA,NA,NA,NA,NA,fixation,NA,NA,NA,NA,NA,NA,sub100
d3-animate-choice,153,652994,0.0-76.0-0.6,TRUE,TRUE,FALSE,FALSE,"""event"",""trial"",""time""
""fullscreenenter"",""5"",""15844""
""fullscreenexit"",""134"",""610083""
""blur"",""134"",""610089""
""focus"",""134"",""611548""
","""event"",""trial"",""time""
""blur"",""134"",""610089""
","""event"",""trial"",""time""
""focus"",""134"",""611548""
","""event"",""trial"",""time""
""fullscreenenter"",""5"",""15844""
","""event"",""trial"",""time""
""fullscreenexit"",""134"",""610083""
",561.9200000000419,NA,49,NA,NA,3000,1,NA,NA,images/earth.jpg,images/rocket2,images/rocket1,null,images/rocket1,NA,1,real,null,1,NA,NA,NA,sub100
d3-animate-choice,154,655446,0.0-76.0-1.6,TRUE,TRUE,FALSE,FALSE,"""event"",""trial"",""time""
""fullscreenenter"",""5"",""15844""
""fullscreenexit"",""134"",""610083""
""blur"",""134"",""610089""
""focus"",""134"",""611548""
","""event"",""trial"",""time""
""blur"",""134"",""610089""
","""event"",""trial"",""time""
""focus"",""134"",""611548""
","""event"",""trial"",""time""
""fullscreenenter"",""5"",""15844""
","""event"",""trial"",""time""
""fullscreenexit"",""134"",""610083""
",441.7749999993248,NA,48,NA,NA,3000,1,NA,NA,images/redplanet1.jpg,images/alien2,images/alien1,images/rocket1,images/alien2,images/t.png,2,real,true,2,common,1,2020-07-01T14:15:30Z,sub100
two-step-fixation,155,656456,0.0-76.0-2.6,TRUE,TRUE,FALSE,FALSE,"""event"",""trial"",""time""
""fullscreenenter"",""5"",""15844""
""fullscreenexit"",""134"",""610083""
""blur"",""134"",""610089""
""focus"",""134"",""611548""
","""event"",""trial"",""time""
""blur"",""134"",""610089""
","""event"",""trial"",""time""
""focus"",""134"",""611548""
","""event"",""trial"",""time""
""fullscreenenter"",""5"",""15844""
","""event"",""trial"",""time""
""fullscreenexit"",""134"",""610083""
",NA,images/earth.jpg,NA,NA,NA,NA,NA,NA,NA,NA,NA,NA,NA,NA,NA,fixation,NA,NA,NA,NA,NA,NA,sub100
d3-animate-choice,156,658885,0.0-76.0-0.7,TRUE,TRUE,FALSE,FALSE,"""event"",""trial"",""time""
""fullscreenenter"",""5"",""15844""
""fullscreenexit"",""134"",""610083""
""blur"",""134"",""610089""
""focus"",""134"",""611548""
","""event"",""trial"",""time""
""blur"",""134"",""610089""
","""event"",""trial"",""time""
""focus"",""134"",""611548""
","""event"",""trial"",""time""
""fullscreenenter"",""5"",""15844""
","""event"",""trial"",""time""
""fullscreenexit"",""134"",""610083""
",418.4849999983562,NA,49,NA,NA,3000,1,726.1049999978859,48,images/earth.jpg,images/rocket2,images/rocket1,null,images/rocket1,NA,1,real,null,1,NA,NA,NA,sub100
d3-animate-choice,157,661160,0.0-76.0-1.7,TRUE,TRUE,FALSE,FALSE,"""event"",""trial"",""time""
""fullscreenenter"",""5"",""15844""
""fullscreenexit"",""134"",""610083""
""blur"",""134"",""610089""
""focus"",""134"",""611548""
","""event"",""trial"",""time""
""blur"",""134"",""610089""
","""event"",""trial"",""time""
""focus"",""134"",""611548""
","""event"",""trial"",""time""
""fullscreenenter"",""5"",""15844""
","""event"",""trial"",""time""
""fullscreenexit"",""134"",""610083""
",263.9749999981141,NA,48,NA,NA,3000,1,NA,NA,images/redplanet1.jpg,images/alien2,images/alien1,images/rocket1,images/alien2,images/t.png,2,real,true,2,common,1,2020-07-01T14:15:35Z,sub100
two-step-fixation,158,662171,0.0-76.0-2.7,TRUE,TRUE,FALSE,FALSE,"""event"",""trial"",""time""
""fullscreenenter"",""5"",""15844""
""fullscreenexit"",""134"",""610083""
""blur"",""134"",""610089""
""focus"",""134"",""611548""
","""event"",""trial"",""time""
""blur"",""134"",""610089""
","""event"",""trial"",""time""
""focus"",""134"",""611548""
","""event"",""trial"",""time""
""fullscreenenter"",""5"",""15844""
","""event"",""trial"",""time""
""fullscreenexit"",""134"",""610083""
",NA,images/earth.jpg,NA,NA,NA,NA,NA,NA,NA,NA,NA,NA,NA,NA,NA,fixation,NA,NA,NA,NA,NA,NA,sub100
d3-animate-choice,159,664525,0.0-76.0-0.8,TRUE,TRUE,FALSE,FALSE,"""event"",""trial"",""time""
""fullscreenenter"",""5"",""15844""
""fullscreenexit"",""134"",""610083""
""blur"",""134"",""610089""
""focus"",""134"",""611548""
","""event"",""trial"",""time""
""blur"",""134"",""610089""
","""event"",""trial"",""time""
""focus"",""134"",""611548""
","""event"",""trial"",""time""
""fullscreenenter"",""5"",""15844""
","""event"",""trial"",""time""
""fullscreenexit"",""134"",""610083""
",337.1049999987008,NA,49,NA,NA,3000,1,NA,NA,images/earth.jpg,images/rocket2,images/rocket1,null,images/rocket1,NA,1,real,null,1,NA,NA,NA,sub100
d3-animate-choice,160,667268,0.0-76.0-1.8,TRUE,TRUE,FALSE,FALSE,"""event"",""trial"",""time""
""fullscreenenter"",""5"",""15844""
""fullscreenexit"",""134"",""610083""
""blur"",""134"",""610089""
""focus"",""134"",""611548""
","""event"",""trial"",""time""
""blur"",""134"",""610089""
","""event"",""trial"",""time""
""focus"",""134"",""611548""
","""event"",""trial"",""time""
""fullscreenenter"",""5"",""15844""
","""event"",""trial"",""time""
""fullscreenexit"",""134"",""610083""
",731.5200000011828,NA,48,NA,NA,3000,1,NA,NA,images/purpleplanet.jpg,images/alien4,images/alien3,images/rocket1,images/alien4,images/t.png,2,real,false,2,rare,1,2020-07-01T14:15:42Z,sub100
two-step-fixation,161,668274,0.0-76.0-2.8,TRUE,TRUE,FALSE,FALSE,"""event"",""trial"",""time""
""fullscreenenter"",""5"",""15844""
""fullscreenexit"",""134"",""610083""
""blur"",""134"",""610089""
""focus"",""134"",""611548""
","""event"",""trial"",""time""
""blur"",""134"",""610089""
","""event"",""trial"",""time""
""focus"",""134"",""611548""
","""event"",""trial"",""time""
""fullscreenenter"",""5"",""15844""
","""event"",""trial"",""time""
""fullscreenexit"",""134"",""610083""
",NA,images/earth.jpg,NA,NA,NA,NA,NA,NA,NA,NA,NA,NA,NA,NA,NA,fixation,NA,NA,NA,NA,NA,NA,sub100
d3-animate-choice,162,670319,0.0-76.0-0.9,TRUE,TRUE,FALSE,FALSE,"""event"",""trial"",""time""
""fullscreenenter"",""5"",""15844""
""fullscreenexit"",""134"",""610083""
""blur"",""134"",""610089""
""focus"",""134"",""611548""
","""event"",""trial"",""time""
""blur"",""134"",""610089""
","""event"",""trial"",""time""
""focus"",""134"",""611548""
","""event"",""trial"",""time""
""fullscreenenter"",""5"",""15844""
","""event"",""trial"",""time""
""fullscreenexit"",""134"",""610083""
",31.975000001722947,NA,49,NA,NA,3000,1,"649.0000000012806,1575.4850000011502",4848,images/earth.jpg,images/rocket2,images/rocket1,null,images/rocket1,NA,1,real,null,1,NA,NA,NA,sub100
d3-animate-choice,163,672701,0.0-76.0-1.9,TRUE,TRUE,FALSE,FALSE,"""event"",""trial"",""time""
""fullscreenenter"",""5"",""15844""
""fullscreenexit"",""134"",""610083""
""blur"",""134"",""610089""
""focus"",""134"",""611548""
","""event"",""trial"",""time""
""blur"",""134"",""610089""
","""event"",""trial"",""time""
""focus"",""134"",""611548""
","""event"",""trial"",""time""
""fullscreenenter"",""5"",""15844""
","""event"",""trial"",""time""
""fullscreenexit"",""134"",""610083""
",368.5200000000186,NA,48,NA,NA,3000,1,NA,NA,images/purpleplanet.jpg,images/alien4,images/alien3,images/rocket1,images/alien4,images/t.png,2,real,false,2,rare,1,2020-07-01T14:15:47Z,sub100
two-step-fixation,164,673713,0.0-76.0-2.9,TRUE,TRUE,FALSE,FALSE,"""event"",""trial"",""time""
""fullscreenenter"",""5"",""15844""
""fullscreenexit"",""134"",""610083""
""blur"",""134"",""610089""
""focus"",""134"",""611548""
","""event"",""trial"",""time""
""blur"",""134"",""610089""
","""event"",""trial"",""time""
""focus"",""134"",""611548""
","""event"",""trial"",""time""
""fullscreenenter"",""5"",""15844""
","""event"",""trial"",""time""
""fullscreenexit"",""134"",""610083""
",NA,images/earth.jpg,NA,NA,NA,NA,NA,NA,NA,NA,NA,NA,NA,NA,NA,fixation,NA,NA,NA,NA,NA,NA,sub100
d3-animate-choice,165,675780,0.0-76.0-0.10,TRUE,TRUE,FALSE,FALSE,"""event"",""trial"",""time""
""fullscreenenter"",""5"",""15844""
""fullscreenexit"",""134"",""610083""
""blur"",""134"",""610089""
""focus"",""134"",""611548""
","""event"",""trial"",""time""
""blur"",""134"",""610089""
","""event"",""trial"",""time""
""focus"",""134"",""611548""
","""event"",""trial"",""time""
""fullscreenenter"",""5"",""15844""
","""event"",""trial"",""time""
""fullscreenexit"",""134"",""610083""
",53.30999999935739,NA,49,NA,NA,3000,1,NA,NA,images/earth.jpg,images/rocket2,images/rocket1,null,images/rocket1,NA,1,real,null,1,NA,NA,NA,sub100
d3-animate-choice,166,678060,0.0-76.0-1.10,TRUE,TRUE,FALSE,FALSE,"""event"",""trial"",""time""
""fullscreenenter"",""5"",""15844""
""fullscreenexit"",""134"",""610083""
""blur"",""134"",""610089""
""focus"",""134"",""611548""
","""event"",""trial"",""time""
""blur"",""134"",""610089""
","""event"",""trial"",""time""
""focus"",""134"",""611548""
","""event"",""trial"",""time""
""fullscreenenter"",""5"",""15844""
","""event"",""trial"",""time""
""fullscreenexit"",""134"",""610083""
",272.95500000042375,NA,48,NA,NA,3000,1,NA,NA,images/redplanet1.jpg,images/alien2,images/alien1,images/rocket1,images/alien2,images/t.png,2,real,true,2,common,1,2020-07-01T14:15:52Z,sub100
two-step-fixation,167,679067,0.0-76.0-2.10,TRUE,TRUE,FALSE,FALSE,"""event"",""trial"",""time""
""fullscreenenter"",""5"",""15844""
""fullscreenexit"",""134"",""610083""
""blur"",""134"",""610089""
""focus"",""134"",""611548""
","""event"",""trial"",""time""
""blur"",""134"",""610089""
","""event"",""trial"",""time""
""focus"",""134"",""611548""
","""event"",""trial"",""time""
""fullscreenenter"",""5"",""15844""
","""event"",""trial"",""time""
""fullscreenexit"",""134"",""610083""
",NA,images/earth.jpg,NA,NA,NA,NA,NA,NA,NA,NA,NA,NA,NA,NA,NA,fixation,NA,NA,NA,NA,NA,NA,sub100
d3-animate-choice,168,681666,0.0-76.0-0.11,TRUE,TRUE,FALSE,FALSE,"""event"",""trial"",""time""
""fullscreenenter"",""5"",""15844""
""fullscreenexit"",""134"",""610083""
""blur"",""134"",""610089""
""focus"",""134"",""611548""
","""event"",""trial"",""time""
""blur"",""134"",""610089""
","""event"",""trial"",""time""
""focus"",""134"",""611548""
","""event"",""trial"",""time""
""fullscreenenter"",""5"",""15844""
","""event"",""trial"",""time""
""fullscreenexit"",""134"",""610083""
",589.5549999986542,NA,49,NA,NA,3000,1,1137.2349999982398,48,images/earth.jpg,images/rocket2,images/rocket1,null,images/rocket1,NA,1,real,null,1,NA,NA,NA,sub100
d3-animate-choice,169,684165,0.0-76.0-1.11,TRUE,TRUE,FALSE,FALSE,"""event"",""trial"",""time""
""fullscreenenter"",""5"",""15844""
""fullscreenexit"",""134"",""610083""
""blur"",""134"",""610089""
""focus"",""134"",""611548""
","""event"",""trial"",""time""
""blur"",""134"",""610089""
","""event"",""trial"",""time""
""focus"",""134"",""611548""
","""event"",""trial"",""time""
""fullscreenenter"",""5"",""15844""
","""event"",""trial"",""time""
""fullscreenexit"",""134"",""610083""
",485.4249999988824,NA,48,NA,NA,3000,1,NA,NA,images/redplanet1.jpg,images/alien2,images/alien1,images/rocket1,images/alien2,images/t.png,2,real,true,2,common,1,2020-07-01T14:15:58Z,sub100
two-step-fixation,170,685173,0.0-76.0-2.11,TRUE,TRUE,FALSE,FALSE,"""event"",""trial"",""time""
""fullscreenenter"",""5"",""15844""
""fullscreenexit"",""134"",""610083""
""blur"",""134"",""610089""
""focus"",""134"",""611548""
","""event"",""trial"",""time""
""blur"",""134"",""610089""
","""event"",""trial"",""time""
""focus"",""134"",""611548""
","""event"",""trial"",""time""
""fullscreenenter"",""5"",""15844""
","""event"",""trial"",""time""
""fullscreenexit"",""134"",""610083""
",NA,images/earth.jpg,NA,NA,NA,NA,NA,NA,NA,NA,NA,NA,NA,NA,NA,fixation,NA,NA,NA,NA,NA,NA,sub100
d3-animate-choice,171,687526,0.0-76.0-0.12,TRUE,TRUE,FALSE,FALSE,"""event"",""trial"",""time""
""fullscreenenter"",""5"",""15844""
""fullscreenexit"",""134"",""610083""
""blur"",""134"",""610089""
""focus"",""134"",""611548""
","""event"",""trial"",""time""
""blur"",""134"",""610089""
","""event"",""trial"",""time""
""focus"",""134"",""611548""
","""event"",""trial"",""time""
""fullscreenenter"",""5"",""15844""
","""event"",""trial"",""time""
""fullscreenexit"",""134"",""610083""
",339.80000000155997,NA,49,NA,NA,3000,1,682.1899999995949,48,images/earth.jpg,images/rocket2,images/rocket1,null,images/rocket1,NA,1,real,null,1,NA,NA,NA,sub100
d3-animate-choice,172,690408,0.0-76.0-1.12,TRUE,TRUE,FALSE,FALSE,"""event"",""trial"",""time""
""fullscreenenter"",""5"",""15844""
""fullscreenexit"",""134"",""610083""
""blur"",""134"",""610089""
""focus"",""134"",""611548""
","""event"",""trial"",""time""
""blur"",""134"",""610089""
","""event"",""trial"",""time""
""focus"",""134"",""611548""
","""event"",""trial"",""time""
""fullscreenenter"",""5"",""15844""
","""event"",""trial"",""time""
""fullscreenexit"",""134"",""610083""
",869.7799999973504,NA,48,NA,NA,3000,1,NA,NA,images/purpleplanet.jpg,images/alien4,images/alien3,images/rocket1,images/alien4,images/t.png,2,real,false,2,rare,1,2020-07-01T14:16:05Z,sub100
two-step-fixation,173,691418,0.0-76.0-2.12,TRUE,TRUE,FALSE,FALSE,"""event"",""trial"",""time""
""fullscreenenter"",""5"",""15844""
""fullscreenexit"",""134"",""610083""
""blur"",""134"",""610089""
""focus"",""134"",""611548""
","""event"",""trial"",""time""
""blur"",""134"",""610089""
","""event"",""trial"",""time""
""focus"",""134"",""611548""
","""event"",""trial"",""time""
""fullscreenenter"",""5"",""15844""
","""event"",""trial"",""time""
""fullscreenexit"",""134"",""610083""
",NA,images/earth.jpg,NA,NA,NA,NA,NA,NA,NA,NA,NA,NA,NA,NA,NA,fixation,NA,NA,NA,NA,NA,NA,sub100
d3-animate-choice,174,693899,0.0-76.0-0.13,TRUE,TRUE,FALSE,FALSE,"""event"",""trial"",""time""
""fullscreenenter"",""5"",""15844""
""fullscreenexit"",""134"",""610083""
""blur"",""134"",""610089""
""focus"",""134"",""611548""
","""event"",""trial"",""time""
""blur"",""134"",""610089""
","""event"",""trial"",""time""
""focus"",""134"",""611548""
","""event"",""trial"",""time""
""fullscreenenter"",""5"",""15844""
","""event"",""trial"",""time""
""fullscreenexit"",""134"",""610083""
",470.7349999989383,NA,49,NA,NA,3000,1,"1032.4399999990128,1643.5700000001816",4848,images/earth.jpg,images/rocket2,images/rocket1,null,images/rocket1,NA,1,real,null,1,NA,NA,NA,sub100
d3-animate-choice,175,697115,0.0-76.0-1.13,TRUE,TRUE,FALSE,FALSE,"""event"",""trial"",""time""
""fullscreenenter"",""5"",""15844""
""fullscreenexit"",""134"",""610083""
""blur"",""134"",""610089""
""focus"",""134"",""611548""
","""event"",""trial"",""time""
""blur"",""134"",""610089""
","""event"",""trial"",""time""
""focus"",""134"",""611548""
","""event"",""trial"",""time""
""fullscreenenter"",""5"",""15844""
","""event"",""trial"",""time""
""fullscreenexit"",""134"",""610083""
",1204.685000000638,NA,49,NA,NA,3000,1,NA,NA,images/redplanet1.jpg,images/alien2,images/alien1,images/rocket1,images/alien1,images/nothing.png,2,real,true,1,common,0,2020-07-01T14:16:11Z,sub100
two-step-fixation,176,698124,0.0-76.0-2.13,TRUE,TRUE,FALSE,FALSE,"""event"",""trial"",""time""
""fullscreenenter"",""5"",""15844""
""fullscreenexit"",""134"",""610083""
""blur"",""134"",""610089""
""focus"",""134"",""611548""
","""event"",""trial"",""time""
""blur"",""134"",""610089""
","""event"",""trial"",""time""
""focus"",""134"",""611548""
","""event"",""trial"",""time""
""fullscreenenter"",""5"",""15844""
","""event"",""trial"",""time""
""fullscreenexit"",""134"",""610083""
",NA,images/earth.jpg,NA,NA,NA,NA,NA,NA,NA,NA,NA,NA,NA,NA,NA,fixation,NA,NA,NA,NA,NA,NA,sub100
d3-animate-choice,177,700554,0.0-76.0-0.14,TRUE,TRUE,FALSE,FALSE,"""event"",""trial"",""time""
""fullscreenenter"",""5"",""15844""
""fullscreenexit"",""134"",""610083""
""blur"",""134"",""610089""
""focus"",""134"",""611548""
","""event"",""trial"",""time""
""blur"",""134"",""610089""
","""event"",""trial"",""time""
""focus"",""134"",""611548""
","""event"",""trial"",""time""
""fullscreenenter"",""5"",""15844""
","""event"",""trial"",""time""
""fullscreenexit"",""134"",""610083""
",421.45000000169966,NA,49,NA,NA,3000,1,"734.9649999996182,1520.220000002184",4848,images/earth.jpg,images/rocket2,images/rocket1,null,images/rocket1,NA,1,real,null,1,NA,NA,NA,sub100
d3-animate-choice,178,702810,0.0-76.0-1.14,TRUE,TRUE,FALSE,FALSE,"""event"",""trial"",""time""
""fullscreenenter"",""5"",""15844""
""fullscreenexit"",""134"",""610083""
""blur"",""134"",""610089""
""focus"",""134"",""611548""
","""event"",""trial"",""time""
""blur"",""134"",""610089""
","""event"",""trial"",""time""
""focus"",""134"",""611548""
","""event"",""trial"",""time""
""fullscreenenter"",""5"",""15844""
","""event"",""trial"",""time""
""fullscreenexit"",""134"",""610083""
",242.6800000029616,NA,48,NA,NA,3000,1,NA,NA,images/purpleplanet.jpg,images/alien4,images/alien3,images/rocket1,images/alien4,images/t.png,2,real,false,2,rare,1,2020-07-01T14:16:17Z,sub100
two-step-fixation,179,703818,0.0-76.0-2.14,TRUE,TRUE,FALSE,FALSE,"""event"",""trial"",""time""
""fullscreenenter"",""5"",""15844""
""fullscreenexit"",""134"",""610083""
""blur"",""134"",""610089""
""focus"",""134"",""611548""
","""event"",""trial"",""time""
""blur"",""134"",""610089""
","""event"",""trial"",""time""
""focus"",""134"",""611548""
","""event"",""trial"",""time""
""fullscreenenter"",""5"",""15844""
","""event"",""trial"",""time""
""fullscreenexit"",""134"",""610083""
",NA,images/earth.jpg,NA,NA,NA,NA,NA,NA,NA,NA,NA,NA,NA,NA,NA,fixation,NA,NA,NA,NA,NA,NA,sub100
d3-animate-choice,180,706705,0.0-76.0-0.15,TRUE,TRUE,FALSE,FALSE,"""event"",""trial"",""time""
""fullscreenenter"",""5"",""15844""
""fullscreenexit"",""134"",""610083""
""blur"",""134"",""610089""
""focus"",""134"",""611548""
","""event"",""trial"",""time""
""blur"",""134"",""610089""
","""event"",""trial"",""time""
""focus"",""134"",""611548""
","""event"",""trial"",""time""
""fullscreenenter"",""5"",""15844""
","""event"",""trial"",""time""
""fullscreenexit"",""134"",""610083""
",873.6900000004098,NA,49,NA,NA,3000,1,"1157.9149999998044,2614.854999999865",4848,images/earth.jpg,images/rocket2,images/rocket1,null,images/rocket1,NA,1,real,null,1,NA,NA,NA,sub100
d3-animate-choice,181,709524,0.0-76.0-1.15,TRUE,TRUE,FALSE,FALSE,"""event"",""trial"",""time""
""fullscreenenter"",""5"",""15844""
""fullscreenexit"",""134"",""610083""
""blur"",""134"",""610089""
""focus"",""134"",""611548""
","""event"",""trial"",""time""
""blur"",""134"",""610089""
","""event"",""trial"",""time""
""focus"",""134"",""611548""
","""event"",""trial"",""time""
""fullscreenenter"",""5"",""15844""
","""event"",""trial"",""time""
""fullscreenexit"",""134"",""610083""
",810.4400000011083,NA,48,NA,NA,3000,1,NA,NA,images/redplanet1.jpg,images/alien2,images/alien1,images/rocket1,images/alien2,images/t.png,2,real,true,2,common,1,2020-07-01T14:16:24Z,sub100
two-step-fixation,182,710530,0.0-76.0-2.15,TRUE,TRUE,FALSE,FALSE,"""event"",""trial"",""time""
""fullscreenenter"",""5"",""15844""
""fullscreenexit"",""134"",""610083""
""blur"",""134"",""610089""
""focus"",""134"",""611548""
","""event"",""trial"",""time""
""blur"",""134"",""610089""
","""event"",""trial"",""time""
""focus"",""134"",""611548""
","""event"",""trial"",""time""
""fullscreenenter"",""5"",""15844""
","""event"",""trial"",""time""
""fullscreenexit"",""134"",""610083""
",NA,images/earth.jpg,NA,NA,NA,NA,NA,NA,NA,NA,NA,NA,NA,NA,NA,fixation,NA,NA,NA,NA,NA,NA,sub100
d3-animate-choice,183,713473,0.0-76.0-0.16,TRUE,TRUE,FALSE,FALSE,"""event"",""trial"",""time""
""fullscreenenter"",""5"",""15844""
""fullscreenexit"",""134"",""610083""
""blur"",""134"",""610089""
""focus"",""134"",""611548""
","""event"",""trial"",""time""
""blur"",""134"",""610089""
","""event"",""trial"",""time""
""focus"",""134"",""611548""
","""event"",""trial"",""time""
""fullscreenenter"",""5"",""15844""
","""event"",""trial"",""time""
""fullscreenexit"",""134"",""610083""
",925.5950000005541,NA,49,NA,NA,3000,1,"1256.7950000010896,2491.555000000517",4848,images/earth.jpg,images/rocket2,images/rocket1,null,images/rocket1,NA,1,real,null,1,NA,NA,NA,sub100
d3-animate-choice,184,715820,0.0-76.0-1.16,TRUE,TRUE,FALSE,FALSE,"""event"",""trial"",""time""
""fullscreenenter"",""5"",""15844""
""fullscreenexit"",""134"",""610083""
""blur"",""134"",""610089""
""focus"",""134"",""611548""
","""event"",""trial"",""time""
""blur"",""134"",""610089""
","""event"",""trial"",""time""
""focus"",""134"",""611548""
","""event"",""trial"",""time""
""fullscreenenter"",""5"",""15844""
","""event"",""trial"",""time""
""fullscreenexit"",""134"",""610083""
",334.05999999749474,NA,48,NA,NA,3000,1,NA,NA,images/redplanet1.jpg,images/alien2,images/alien1,images/rocket1,images/alien2,images/t.png,2,real,true,2,common,1,2020-07-01T14:16:30Z,sub100
two-step-fixation,185,716830,0.0-76.0-2.16,TRUE,TRUE,FALSE,FALSE,"""event"",""trial"",""time""
""fullscreenenter"",""5"",""15844""
""fullscreenexit"",""134"",""610083""
""blur"",""134"",""610089""
""focus"",""134"",""611548""
","""event"",""trial"",""time""
""blur"",""134"",""610089""
","""event"",""trial"",""time""
""focus"",""134"",""611548""
","""event"",""trial"",""time""
""fullscreenenter"",""5"",""15844""
","""event"",""trial"",""time""
""fullscreenexit"",""134"",""610083""
",NA,images/earth.jpg,NA,NA,NA,NA,NA,NA,NA,NA,NA,NA,NA,NA,NA,fixation,NA,NA,NA,NA,NA,NA,sub100
d3-animate-choice,186,718992,0.0-76.0-0.17,TRUE,TRUE,FALSE,FALSE,"""event"",""trial"",""time""
""fullscreenenter"",""5"",""15844""
""fullscreenexit"",""134"",""610083""
""blur"",""134"",""610089""
""focus"",""134"",""611548""
","""event"",""trial"",""time""
""blur"",""134"",""610089""
","""event"",""trial"",""time""
""focus"",""134"",""611548""
","""event"",""trial"",""time""
""fullscreenenter"",""5"",""15844""
","""event"",""trial"",""time""
""fullscreenexit"",""134"",""610083""
",147.2700000012992,NA,49,NA,NA,3000,1,1653.8199999994831,48,images/earth.jpg,images/rocket2,images/rocket1,null,images/rocket1,NA,1,real,null,1,NA,NA,NA,sub100
d3-animate-choice,187,721745,0.0-76.0-1.17,TRUE,TRUE,FALSE,FALSE,"""event"",""trial"",""time""
""fullscreenenter"",""5"",""15844""
""fullscreenexit"",""134"",""610083""
""blur"",""134"",""610089""
""focus"",""134"",""611548""
","""event"",""trial"",""time""
""blur"",""134"",""610089""
","""event"",""trial"",""time""
""focus"",""134"",""611548""
","""event"",""trial"",""time""
""fullscreenenter"",""5"",""15844""
","""event"",""trial"",""time""
""fullscreenexit"",""134"",""610083""
",739.1600000009639,NA,48,NA,NA,3000,1,NA,NA,images/redplanet1.jpg,images/alien2,images/alien1,images/rocket1,images/alien2,images/t.png,2,real,true,2,common,1,2020-07-01T14:16:36Z,sub100
two-step-fixation,188,722755,0.0-76.0-2.17,TRUE,TRUE,FALSE,FALSE,"""event"",""trial"",""time""
""fullscreenenter"",""5"",""15844""
""fullscreenexit"",""134"",""610083""
""blur"",""134"",""610089""
""focus"",""134"",""611548""
","""event"",""trial"",""time""
""blur"",""134"",""610089""
","""event"",""trial"",""time""
""focus"",""134"",""611548""
","""event"",""trial"",""time""
""fullscreenenter"",""5"",""15844""
","""event"",""trial"",""time""
""fullscreenexit"",""134"",""610083""
",NA,images/earth.jpg,NA,NA,NA,NA,NA,NA,NA,NA,NA,NA,NA,NA,NA,fixation,NA,NA,NA,NA,NA,NA,sub100
d3-animate-choice,189,725048,0.0-76.0-0.18,TRUE,TRUE,FALSE,FALSE,"""event"",""trial"",""time""
""fullscreenenter"",""5"",""15844""
""fullscreenexit"",""134"",""610083""
""blur"",""134"",""610089""
""focus"",""134"",""611548""
","""event"",""trial"",""time""
""blur"",""134"",""610089""
","""event"",""trial"",""time""
""focus"",""134"",""611548""
","""event"",""trial"",""time""
""fullscreenenter"",""5"",""15844""
","""event"",""trial"",""time""
""fullscreenexit"",""134"",""610083""
",278.3999999992084,NA,49,NA,NA,3000,1,"587.8999999986263,2026.480000000447",4849,images/earth.jpg,images/rocket2,images/rocket1,null,images/rocket1,NA,1,real,null,1,NA,NA,NA,sub100
d3-animate-choice,190,727464,0.0-76.0-1.18,TRUE,TRUE,FALSE,FALSE,"""event"",""trial"",""time""
""fullscreenenter"",""5"",""15844""
""fullscreenexit"",""134"",""610083""
""blur"",""134"",""610089""
""focus"",""134"",""611548""
","""event"",""trial"",""time""
""blur"",""134"",""610089""
","""event"",""trial"",""time""
""focus"",""134"",""611548""
","""event"",""trial"",""time""
""fullscreenenter"",""5"",""15844""
","""event"",""trial"",""time""
""fullscreenexit"",""134"",""610083""
",406.3349999997299,NA,48,NA,NA,3000,1,NA,NA,images/redplanet1.jpg,images/alien2,images/alien1,images/rocket1,images/alien2,images/t.png,2,real,true,2,common,1,2020-07-01T14:16:42Z,sub100
two-step-fixation,191,728475,0.0-76.0-2.18,TRUE,TRUE,FALSE,FALSE,"""event"",""trial"",""time""
""fullscreenenter"",""5"",""15844""
""fullscreenexit"",""134"",""610083""
""blur"",""134"",""610089""
""focus"",""134"",""611548""
","""event"",""trial"",""time""
""blur"",""134"",""610089""
","""event"",""trial"",""time""
""focus"",""134"",""611548""
","""event"",""trial"",""time""
""fullscreenenter"",""5"",""15844""
","""event"",""trial"",""time""
""fullscreenexit"",""134"",""610083""
",NA,images/earth.jpg,NA,NA,NA,NA,NA,NA,NA,NA,NA,NA,NA,NA,NA,fixation,NA,NA,NA,NA,NA,NA,sub100
d3-animate-choice,192,732224,0.0-76.0-0.19,TRUE,TRUE,FALSE,FALSE,"""event"",""trial"",""time""
""fullscreenenter"",""5"",""15844""
""fullscreenexit"",""134"",""610083""
""blur"",""134"",""610089""
""focus"",""134"",""611548""
","""event"",""trial"",""time""
""blur"",""134"",""610089""
","""event"",""trial"",""time""
""focus"",""134"",""611548""
","""event"",""trial"",""time""
""fullscreenenter"",""5"",""15844""
","""event"",""trial"",""time""
""fullscreenexit"",""134"",""610083""
",1737.619999999879,NA,49,NA,NA,3000,1,2131.4949999977835,48,images/earth.jpg,images/rocket2,images/rocket1,null,images/rocket1,NA,1,real,null,1,NA,NA,NA,sub100
d3-animate-choice,193,734730,0.0-76.0-1.19,TRUE,TRUE,FALSE,FALSE,"""event"",""trial"",""time""
""fullscreenenter"",""5"",""15844""
""fullscreenexit"",""134"",""610083""
""blur"",""134"",""610089""
""focus"",""134"",""611548""
","""event"",""trial"",""time""
""blur"",""134"",""610089""
","""event"",""trial"",""time""
""focus"",""134"",""611548""
","""event"",""trial"",""time""
""fullscreenenter"",""5"",""15844""
","""event"",""trial"",""time""
""fullscreenexit"",""134"",""610083""
",494.21500000252854,NA,49,NA,NA,3000,1,1074.820000001695,48,images/redplanet1.jpg,images/alien2,images/alien1,images/rocket1,images/alien1,images/t.png,2,real,true,1,common,1,2020-07-01T14:16:49Z,sub100
two-step-fixation,194,735743,0.0-76.0-2.19,TRUE,TRUE,FALSE,FALSE,"""event"",""trial"",""time""
""fullscreenenter"",""5"",""15844""
""fullscreenexit"",""134"",""610083""
""blur"",""134"",""610089""
""focus"",""134"",""611548""
","""event"",""trial"",""time""
""blur"",""134"",""610089""
","""event"",""trial"",""time""
""focus"",""134"",""611548""
","""event"",""trial"",""time""
""fullscreenenter"",""5"",""15844""
","""event"",""trial"",""time""
""fullscreenexit"",""134"",""610083""
",NA,images/earth.jpg,NA,NA,NA,NA,NA,NA,NA,NA,NA,NA,NA,NA,NA,fixation,NA,NA,NA,NA,NA,NA,sub100
d3-animate-choice,195,738224,0.0-76.0-0.20,TRUE,TRUE,FALSE,FALSE,"""event"",""trial"",""time""
""fullscreenenter"",""5"",""15844""
""fullscreenexit"",""134"",""610083""
""blur"",""134"",""610089""
""focus"",""134"",""611548""
","""event"",""trial"",""time""
""blur"",""134"",""610089""
","""event"",""trial"",""time""
""focus"",""134"",""611548""
","""event"",""trial"",""time""
""fullscreenenter"",""5"",""15844""
","""event"",""trial"",""time""
""fullscreenexit"",""134"",""610083""
",467.97499999962747,NA,49,NA,NA,3000,1,"836.690000000177,1343.8050000005169,1767.5300000010757,2222.395000000717",48494849,images/earth.jpg,images/rocket2,images/rocket1,null,images/rocket1,NA,1,real,null,1,NA,NA,NA,sub100
d3-animate-choice,196,740245,0.0-76.0-1.20,TRUE,TRUE,FALSE,FALSE,"""event"",""trial"",""time""
""fullscreenenter"",""5"",""15844""
""fullscreenexit"",""134"",""610083""
""blur"",""134"",""610089""
""focus"",""134"",""611548""
","""event"",""trial"",""time""
""blur"",""134"",""610089""
","""event"",""trial"",""time""
""focus"",""134"",""611548""
","""event"",""trial"",""time""
""fullscreenenter"",""5"",""15844""
","""event"",""trial"",""time""
""fullscreenexit"",""134"",""610083""
",12.05000000121072,NA,48,NA,NA,3000,1,"228.7450000003446,498.3199999987846,687.4050000004936,749.5999999991618,951.580000000773,1025.854999999865,1148.0400000000373,1240.8050000012154,1342.3399999991525,1539.884999998263",4948494848494849e4,images/redplanet1.jpg,images/alien2,images/alien1,images/rocket1,images/alien2,images/nothing.png,2,real,true,2,common,0,2020-07-01T14:16:54Z,sub100
two-step-fixation,197,741251,0.0-76.0-2.20,TRUE,TRUE,FALSE,FALSE,"""event"",""trial"",""time""
""fullscreenenter"",""5"",""15844""
""fullscreenexit"",""134"",""610083""
""blur"",""134"",""610089""
""focus"",""134"",""611548""
","""event"",""trial"",""time""
""blur"",""134"",""610089""
","""event"",""trial"",""time""
""focus"",""134"",""611548""
","""event"",""trial"",""time""
""fullscreenenter"",""5"",""15844""
","""event"",""trial"",""time""
""fullscreenexit"",""134"",""610083""
",NA,images/earth.jpg,NA,NA,NA,NA,NA,NA,NA,NA,NA,NA,NA,NA,NA,fixation,NA,NA,NA,NA,NA,NA,sub100
d3-animate-choice,198,744187,0.0-76.0-0.21,TRUE,TRUE,FALSE,FALSE,"""event"",""trial"",""time""
""fullscreenenter"",""5"",""15844""
""fullscreenexit"",""134"",""610083""
""blur"",""134"",""610089""
""focus"",""134"",""611548""
","""event"",""trial"",""time""
""blur"",""134"",""610089""
","""event"",""trial"",""time""
""focus"",""134"",""611548""
","""event"",""trial"",""time""
""fullscreenenter"",""5"",""15844""
","""event"",""trial"",""time""
""fullscreenexit"",""134"",""610083""
",927.1649999973597,NA,49,NA,NA,3000,1,NA,NA,images/earth.jpg,images/rocket2,images/rocket1,null,images/rocket1,NA,1,real,null,1,NA,NA,NA,sub100
d3-animate-choice,199,748196,0.0-76.0-1.21,TRUE,TRUE,FALSE,FALSE,"""event"",""trial"",""time""
""fullscreenenter"",""5"",""15844""
""fullscreenexit"",""134"",""610083""
""blur"",""134"",""610089""
""focus"",""134"",""611548""
","""event"",""trial"",""time""
""blur"",""134"",""610089""
","""event"",""trial"",""time""
""focus"",""134"",""611548""
","""event"",""trial"",""time""
""fullscreenenter"",""5"",""15844""
","""event"",""trial"",""time""
""fullscreenexit"",""134"",""610083""
",2205.0850000013597,NA,49,NA,NA,3000,1,"2366.930000000051,3773.0750000008848",4848,images/purpleplanet.jpg,images/alien4,images/alien3,images/rocket1,images/alien3,images/nothing.png,2,real,false,1,rare,0,2020-07-01T14:17:02Z,sub100
two-step-fixation,200,749206,0.0-76.0-2.21,TRUE,TRUE,FALSE,FALSE,"""event"",""trial"",""time""
""fullscreenenter"",""5"",""15844""
""fullscreenexit"",""134"",""610083""
""blur"",""134"",""610089""
""focus"",""134"",""611548""
","""event"",""trial"",""time""
""blur"",""134"",""610089""
","""event"",""trial"",""time""
""focus"",""134"",""611548""
","""event"",""trial"",""time""
""fullscreenenter"",""5"",""15844""
","""event"",""trial"",""time""
""fullscreenexit"",""134"",""610083""
",NA,images/earth.jpg,NA,NA,NA,NA,NA,NA,NA,NA,NA,NA,NA,NA,NA,fixation,NA,NA,NA,NA,NA,NA,sub100
d3-animate-choice,201,752281,0.0-76.0-0.22,TRUE,TRUE,FALSE,FALSE,"""event"",""trial"",""time""
""fullscreenenter"",""5"",""15844""
""fullscreenexit"",""134"",""610083""
""blur"",""134"",""610089""
""focus"",""134"",""611548""
","""event"",""trial"",""time""
""blur"",""134"",""610089""
","""event"",""trial"",""time""
""focus"",""134"",""611548""
","""event"",""trial"",""time""
""fullscreenenter"",""5"",""15844""
","""event"",""trial"",""time""
""fullscreenexit"",""134"",""610083""
",1063.1149999971967,NA,49,NA,NA,3000,1,1521.2799999971176,48,images/earth.jpg,images/rocket2,images/rocket1,null,images/rocket1,NA,1,real,null,1,NA,NA,NA,sub100
d3-animate-choice,202,755811,0.0-76.0-1.22,TRUE,TRUE,FALSE,FALSE,"""event"",""trial"",""time""
""fullscreenenter"",""5"",""15844""
""fullscreenexit"",""134"",""610083""
""blur"",""134"",""610089""
""focus"",""134"",""611548""
","""event"",""trial"",""time""
""blur"",""134"",""610089""
","""event"",""trial"",""time""
""focus"",""134"",""611548""
","""event"",""trial"",""time""
""fullscreenenter"",""5"",""15844""
","""event"",""trial"",""time""
""fullscreenexit"",""134"",""610083""
",1520.7799999988638,NA,49,NA,NA,3000,1,"1929.6399999983842,2789.7200000006706",4848,images/purpleplanet.jpg,images/alien4,images/alien3,images/rocket1,images/alien3,images/nothing.png,2,real,false,1,rare,0,2020-07-01T14:17:10Z,sub100
two-step-fixation,203,756816,0.0-76.0-2.22,TRUE,TRUE,FALSE,FALSE,"""event"",""trial"",""time""
""fullscreenenter"",""5"",""15844""
""fullscreenexit"",""134"",""610083""
""blur"",""134"",""610089""
""focus"",""134"",""611548""
","""event"",""trial"",""time""
""blur"",""134"",""610089""
","""event"",""trial"",""time""
""focus"",""134"",""611548""
","""event"",""trial"",""time""
""fullscreenenter"",""5"",""15844""
","""event"",""trial"",""time""
""fullscreenexit"",""134"",""610083""
",NA,images/earth.jpg,NA,NA,NA,NA,NA,NA,NA,NA,NA,NA,NA,NA,NA,fixation,NA,NA,NA,NA,NA,NA,sub100
d3-animate-choice,204,759175,0.0-76.0-0.23,TRUE,TRUE,FALSE,FALSE,"""event"",""trial"",""time""
""fullscreenenter"",""5"",""15844""
""fullscreenexit"",""134"",""610083""
""blur"",""134"",""610089""
""focus"",""134"",""611548""
","""event"",""trial"",""time""
""blur"",""134"",""610089""
","""event"",""trial"",""time""
""focus"",""134"",""611548""
","""event"",""trial"",""time""
""fullscreenenter"",""5"",""15844""
","""event"",""trial"",""time""
""fullscreenexit"",""134"",""610083""
",349.6099999975413,NA,48,NA,NA,3000,1,NA,NA,images/earth.jpg,images/rocket2,images/rocket1,null,images/rocket2,NA,1,real,null,2,NA,NA,NA,sub100
d3-animate-choice,205,761507,0.0-76.0-1.23,TRUE,TRUE,FALSE,FALSE,"""event"",""trial"",""time""
""fullscreenenter"",""5"",""15844""
""fullscreenexit"",""134"",""610083""
""blur"",""134"",""610089""
""focus"",""134"",""611548""
","""event"",""trial"",""time""
""blur"",""134"",""610089""
","""event"",""trial"",""time""
""focus"",""134"",""611548""
","""event"",""trial"",""time""
""fullscreenenter"",""5"",""15844""
","""event"",""trial"",""time""
""fullscreenexit"",""134"",""610083""
",322.0500000024913,NA,49,NA,NA,3000,1,NA,NA,images/redplanet1.jpg,images/alien2,images/alien1,images/rocket2,images/alien1,images/t.png,2,real,false,1,rare,1,2020-07-01T14:17:16Z,sub100
two-step-fixation,206,762513,0.0-76.0-2.23,TRUE,TRUE,FALSE,FALSE,"""event"",""trial"",""time""
""fullscreenenter"",""5"",""15844""
""fullscreenexit"",""134"",""610083""
""blur"",""134"",""610089""
""focus"",""134"",""611548""
","""event"",""trial"",""time""
""blur"",""134"",""610089""
","""event"",""trial"",""time""
""focus"",""134"",""611548""
","""event"",""trial"",""time""
""fullscreenenter"",""5"",""15844""
","""event"",""trial"",""time""
""fullscreenexit"",""134"",""610083""
",NA,images/earth.jpg,NA,NA,NA,NA,NA,NA,NA,NA,NA,NA,NA,NA,NA,fixation,NA,NA,NA,NA,NA,NA,sub100
d3-animate-choice,207,764975,0.0-76.0-0.24,TRUE,TRUE,FALSE,FALSE,"""event"",""trial"",""time""
""fullscreenenter"",""5"",""15844""
""fullscreenexit"",""134"",""610083""
""blur"",""134"",""610089""
""focus"",""134"",""611548""
","""event"",""trial"",""time""
""blur"",""134"",""610089""
","""event"",""trial"",""time""
""focus"",""134"",""611548""
","""event"",""trial"",""time""
""fullscreenenter"",""5"",""15844""
","""event"",""trial"",""time""
""fullscreenexit"",""134"",""610083""
",451.36000000278,NA,49,NA,NA,3000,1,NA,NA,images/earth.jpg,images/rocket2,images/rocket1,null,images/rocket1,NA,1,real,null,1,NA,NA,NA,sub100
d3-animate-choice,208,768258,0.0-76.0-1.24,TRUE,TRUE,FALSE,FALSE,"""event"",""trial"",""time""
""fullscreenenter"",""5"",""15844""
""fullscreenexit"",""134"",""610083""
""blur"",""134"",""610089""
""focus"",""134"",""611548""
","""event"",""trial"",""time""
""blur"",""134"",""610089""
","""event"",""trial"",""time""
""focus"",""134"",""611548""
","""event"",""trial"",""time""
""fullscreenenter"",""5"",""15844""
","""event"",""trial"",""time""
""fullscreenexit"",""134"",""610083""
",1274.7850000014296,NA,48,NA,NA,3000,1,NA,NA,images/redplanet1.jpg,images/alien2,images/alien1,images/rocket1,images/alien2,images/t.png,2,real,true,2,common,1,2020-07-01T14:17:23Z,sub100
two-step-fixation,209,769263,0.0-76.0-2.24,TRUE,TRUE,FALSE,FALSE,"""event"",""trial"",""time""
""fullscreenenter"",""5"",""15844""
""fullscreenexit"",""134"",""610083""
""blur"",""134"",""610089""
""focus"",""134"",""611548""
","""event"",""trial"",""time""
""blur"",""134"",""610089""
","""event"",""trial"",""time""
""focus"",""134"",""611548""
","""event"",""trial"",""time""
""fullscreenenter"",""5"",""15844""
","""event"",""trial"",""time""
""fullscreenexit"",""134"",""610083""
",NA,images/earth.jpg,NA,NA,NA,NA,NA,NA,NA,NA,NA,NA,NA,NA,NA,fixation,NA,NA,NA,NA,NA,NA,sub100
d3-animate-choice,210,771669,0.0-76.0-0.25,TRUE,TRUE,FALSE,FALSE,"""event"",""trial"",""time""
""fullscreenenter"",""5"",""15844""
""fullscreenexit"",""134"",""610083""
""blur"",""134"",""610089""
""focus"",""134"",""611548""
","""event"",""trial"",""time""
""blur"",""134"",""610089""
","""event"",""trial"",""time""
""focus"",""134"",""611548""
","""event"",""trial"",""time""
""fullscreenenter"",""5"",""15844""
","""event"",""trial"",""time""
""fullscreenexit"",""134"",""610083""
",396.3149999980815,NA,49,NA,NA,3000,1,1857.4650000008987,48,images/earth.jpg,images/rocket2,images/rocket1,null,images/rocket1,NA,1,real,null,1,NA,NA,NA,sub100
d3-animate-choice,211,774232,0.0-76.0-1.25,TRUE,TRUE,FALSE,FALSE,"""event"",""trial"",""time""
""fullscreenenter"",""5"",""15844""
""fullscreenexit"",""134"",""610083""
""blur"",""134"",""610089""
""focus"",""134"",""611548""
","""event"",""trial"",""time""
""blur"",""134"",""610089""
","""event"",""trial"",""time""
""focus"",""134"",""611548""
","""event"",""trial"",""time""
""fullscreenenter"",""5"",""15844""
","""event"",""trial"",""time""
""fullscreenexit"",""134"",""610083""
",554.5549999987707,NA,48,NA,NA,3000,1,NA,NA,images/redplanet1.jpg,images/alien2,images/alien1,images/rocket1,images/alien2,images/t.png,2,real,true,2,common,1,2020-07-01T14:17:28Z,sub100
two-step-fixation,212,775244,0.0-76.0-2.25,TRUE,TRUE,FALSE,FALSE,"""event"",""trial"",""time""
""fullscreenenter"",""5"",""15844""
""fullscreenexit"",""134"",""610083""
""blur"",""134"",""610089""
""focus"",""134"",""611548""
","""event"",""trial"",""time""
""blur"",""134"",""610089""
","""event"",""trial"",""time""
""focus"",""134"",""611548""
","""event"",""trial"",""time""
""fullscreenenter"",""5"",""15844""
","""event"",""trial"",""time""
""fullscreenexit"",""134"",""610083""
",NA,images/earth.jpg,NA,NA,NA,NA,NA,NA,NA,NA,NA,NA,NA,NA,NA,fixation,NA,NA,NA,NA,NA,NA,sub100
d3-animate-choice,213,777504,0.0-76.0-0.26,TRUE,TRUE,FALSE,FALSE,"""event"",""trial"",""time""
""fullscreenenter"",""5"",""15844""
""fullscreenexit"",""134"",""610083""
""blur"",""134"",""610089""
""focus"",""134"",""611548""
","""event"",""trial"",""time""
""blur"",""134"",""610089""
","""event"",""trial"",""time""
""focus"",""134"",""611548""
","""event"",""trial"",""time""
""fullscreenenter"",""5"",""15844""
","""event"",""trial"",""time""
""fullscreenexit"",""134"",""610083""
",248.82499999867287,NA,49,NA,NA,3000,1,598.2499999990687,48,images/earth.jpg,images/rocket2,images/rocket1,null,images/rocket1,NA,1,real,null,1,NA,NA,NA,sub100
d3-animate-choice,214,779611,0.0-76.0-1.26,TRUE,TRUE,FALSE,FALSE,"""event"",""trial"",""time""
""fullscreenenter"",""5"",""15844""
""fullscreenexit"",""134"",""610083""
""blur"",""134"",""610089""
""focus"",""134"",""611548""
","""event"",""trial"",""time""
""blur"",""134"",""610089""
","""event"",""trial"",""time""
""focus"",""134"",""611548""
","""event"",""trial"",""time""
""fullscreenenter"",""5"",""15844""
","""event"",""trial"",""time""
""fullscreenexit"",""134"",""610083""
",96.92999999970198,NA,48,NA,NA,3000,1,NA,NA,images/purpleplanet.jpg,images/alien4,images/alien3,images/rocket1,images/alien4,images/nothing.png,2,real,false,2,rare,0,2020-07-01T14:17:34Z,sub100
two-step-fixation,215,780618,0.0-76.0-2.26,TRUE,TRUE,FALSE,FALSE,"""event"",""trial"",""time""
""fullscreenenter"",""5"",""15844""
""fullscreenexit"",""134"",""610083""
""blur"",""134"",""610089""
""focus"",""134"",""611548""
","""event"",""trial"",""time""
""blur"",""134"",""610089""
","""event"",""trial"",""time""
""focus"",""134"",""611548""
","""event"",""trial"",""time""
""fullscreenenter"",""5"",""15844""
","""event"",""trial"",""time""
""fullscreenexit"",""134"",""610083""
",NA,images/earth.jpg,NA,NA,NA,NA,NA,NA,NA,NA,NA,NA,NA,NA,NA,fixation,NA,NA,NA,NA,NA,NA,sub100
