trial_type,trial_index,time_elapsed,internal_node_id,rocket_sides,red_planet_first_rocket,red_display_order,purple_display_order,interactions,blur_events,focus_events,fullscreenenter_events,fullscreenexit_events,rt,stimulus,key_press,button_pressed,success,duration,valid_pressed,rts,keys,planet_text,right_text,left_text,center_text,chosen_text,reward_text,trial_stage,practice_trial,transition_type,choice,transition,reward,timestamp,subject_id
pavlovia,0,30,0.0-0.0,TRUE,TRUE,FALSE,TRUE,"
","
","
","
","
",NA,NA,NA,NA,NA,NA,NA,NA,NA,NA,NA,NA,NA,NA,NA,NA,NA,NA,NA,NA,NA,NA,sub49
html-keyboard-response,1,1877,0.0-1.0,TRUE,TRUE,FALSE,TRUE,"
","
","
","
","
",1843.9999999999964,Welcome! Press the space bar to begin.,32,NA,NA,NA,NA,NA,NA,NA,NA,NA,NA,NA,NA,NA,NA,NA,NA,NA,NA,NA,sub49
audio-keyboard-response,2,6284,0.0-2.0,TRUE,TRUE,FALSE,TRUE,"
","
","
","
","
",4238,audio/beep_loop.wav,32,NA,NA,NA,NA,NA,NA,NA,NA,NA,NA,NA,NA,NA,NA,NA,NA,NA,NA,NA,sub49
audio-button-response,3,9778,0.0-3.0,TRUE,TRUE,FALSE,TRUE,"
","
","
","
","
",NaN,audio/fish.mp3,NA,1,NA,NA,NA,NA,NA,NA,NA,NA,NA,NA,NA,NA,NA,NA,NA,NA,NA,NA,sub49
audio-button-response,4,13252,0.0-4.0,TRUE,TRUE,FALSE,TRUE,"""event"",""trial"",""time""
""fullscreenenter"",""5"",""18862""
","
","
","""event"",""trial"",""time""
""fullscreenenter"",""5"",""18862""
","
",NaN,audio/tiger.mp3,NA,4,NA,NA,NA,NA,NA,NA,NA,NA,NA,NA,NA,NA,NA,NA,NA,NA,NA,NA,sub49
fullscreen,5,19781,0.0-5.0,TRUE,TRUE,FALSE,TRUE,"""event"",""trial"",""time""
""fullscreenenter"",""5"",""18862""
","
","
","""event"",""trial"",""time""
""fullscreenenter"",""5"",""18862""
","
",NA,NA,NA,NA,TRUE,NA,NA,NA,NA,NA,NA,NA,NA,NA,NA,NA,NA,NA,NA,NA,NA,NA,sub49
d3-instructions,6,34503,0.0-6.0,TRUE,TRUE,FALSE,TRUE,"""event"",""trial"",""time""
""fullscreenenter"",""5"",""18862""
","
","
","""event"",""trial"",""time""
""fullscreenenter"",""5"",""18862""
","
",NA,NA,NA,NA,NA,NA,NA,NA,NA,NA,NA,NA,NA,NA,NA,NA,NA,NA,NA,NA,NA,NA,sub49
d3-instructions,7,48219,0.0-7.0,TRUE,TRUE,FALSE,TRUE,"""event"",""trial"",""time""
""fullscreenenter"",""5"",""18862""
","
","
","""event"",""trial"",""time""
""fullscreenenter"",""5"",""18862""
","
",NA,NA,NA,NA,NA,NA,NA,NA,NA,NA,NA,NA,NA,NA,NA,NA,NA,NA,NA,NA,NA,NA,sub49
d3-instructions,8,56214,0.0-8.0,TRUE,TRUE,FALSE,TRUE,"""event"",""trial"",""time""
""fullscreenenter"",""5"",""18862""
","
","
","""event"",""trial"",""time""
""fullscreenenter"",""5"",""18862""
","
",NA,NA,NA,NA,NA,NA,NA,NA,NA,NA,NA,NA,NA,NA,NA,NA,NA,NA,NA,NA,NA,NA,sub49
d3-instructions,9,67906,0.0-9.0,TRUE,TRUE,FALSE,TRUE,"""event"",""trial"",""time""
""fullscreenenter"",""5"",""18862""
","
","
","""event"",""trial"",""time""
""fullscreenenter"",""5"",""18862""
","
",NA,NA,NA,NA,NA,NA,NA,NA,NA,NA,NA,NA,NA,NA,NA,NA,NA,NA,NA,NA,NA,NA,sub49
d3-instructions,10,87517,0.0-10.0,TRUE,TRUE,FALSE,TRUE,"""event"",""trial"",""time""
""fullscreenenter"",""5"",""18862""
","
","
","""event"",""trial"",""time""
""fullscreenenter"",""5"",""18862""
","
",NA,NA,NA,NA,NA,NA,NA,NA,NA,NA,NA,NA,NA,NA,NA,NA,NA,NA,NA,NA,NA,NA,sub49
d3-animate-choice,11,91228,0.0-11.0,TRUE,TRUE,FALSE,TRUE,"""event"",""trial"",""time""
""fullscreenenter"",""5"",""18862""
","
","
","""event"",""trial"",""time""
""fullscreenenter"",""5"",""18862""
","
",1695.0000000000146,NA,49,NA,NA,3000,1,NA,NA,images/tutgreenplanet.jpg,images/tutalien1,images/tutalien2,null,images/tutalien2,NA,NA,practice,null,NA,NA,NA,NA,sub49
d3-animate-choice,12,94196,0.0-12.0,TRUE,TRUE,FALSE,TRUE,"""event"",""trial"",""time""
""fullscreenenter"",""5"",""18862""
","
","
","""event"",""trial"",""time""
""fullscreenenter"",""5"",""18862""
","
",775,NA,39,NA,NA,3000,1,962.0000000000146,4848,images/tutgreenplanet.jpg,images/tutalien1,images/tutalien2,null,images/tutalien1,NA,NA,practice,null,NA,NA,NA,NA,sub49
d3-animate-choice,13,96848,0.0-13.0,TRUE,TRUE,FALSE,TRUE,"""event"",""trial"",""time""
""fullscreenenter"",""5"",""18862""
","
","
","""event"",""trial"",""time""
""fullscreenenter"",""5"",""18862""
","
",647.0000000000146,NA,49,NA,NA,3000,1,NA,NA,images/tutgreenplanet.jpg,images/tutalien1,images/tutalien2,null,images/tutalien2,NA,NA,practice,null,NA,NA,NA,NA,sub49
d3-animate-choice,14,99705,0.0-14.0,TRUE,TRUE,FALSE,TRUE,"""event"",""trial"",""time""
""fullscreenenter"",""5"",""18862""
","
","
","""event"",""trial"",""time""
""fullscreenenter"",""5"",""18862""
","
",853,NA,49,NA,NA,3000,1,NA,NA,images/tutgreenplanet.jpg,images/tutalien1,images/tutalien2,null,images/tutalien2,NA,NA,practice,null,NA,NA,NA,NA,sub49
d3-instructions,15,107579,0.0-15.0,TRUE,TRUE,FALSE,TRUE,"""event"",""trial"",""time""
""fullscreenenter"",""5"",""18862""
","
","
","""event"",""trial"",""time""
""fullscreenenter"",""5"",""18862""
","
",NA,NA,NA,NA,NA,NA,NA,NA,NA,NA,NA,NA,NA,NA,NA,NA,NA,NA,NA,NA,NA,NA,sub49
d3-instructions,16,114553,0.0-16.0,TRUE,TRUE,FALSE,TRUE,"""event"",""trial"",""time""
""fullscreenenter"",""5"",""18862""
","
","
","""event"",""trial"",""time""
""fullscreenenter"",""5"",""18862""
","
",NA,NA,NA,NA,NA,NA,NA,NA,NA,NA,NA,NA,NA,NA,NA,NA,NA,NA,NA,NA,NA,NA,sub49
d3-instructions,17,125135,0.0-17.0,TRUE,TRUE,FALSE,TRUE,"""event"",""trial"",""time""
""fullscreenenter"",""5"",""18862""
","
","
","""event"",""trial"",""time""
""fullscreenenter"",""5"",""18862""
","
",NA,NA,NA,NA,NA,NA,NA,NA,NA,NA,NA,NA,NA,NA,NA,NA,NA,NA,NA,NA,NA,NA,sub49
d3-instructions,18,139972,0.0-18.0,TRUE,TRUE,FALSE,TRUE,"""event"",""trial"",""time""
""fullscreenenter"",""5"",""18862""
","
","
","""event"",""trial"",""time""
""fullscreenenter"",""5"",""18862""
","
",NA,NA,NA,NA,NA,NA,NA,NA,NA,NA,NA,NA,NA,NA,NA,NA,NA,NA,NA,NA,NA,NA,sub49
d3-instructions,19,157675,0.0-19.0,TRUE,TRUE,FALSE,TRUE,"""event"",""trial"",""time""
""fullscreenenter"",""5"",""18862""
","
","
","""event"",""trial"",""time""
""fullscreenenter"",""5"",""18862""
","
",NA,NA,NA,NA,NA,NA,NA,NA,NA,NA,NA,NA,NA,NA,NA,NA,NA,NA,NA,NA,NA,NA,sub49
d3-animate-choice,20,160867,0.0-20.0,TRUE,TRUE,FALSE,TRUE,"""event"",""trial"",""time""
""fullscreenenter"",""5"",""18862""
","
","
","""event"",""trial"",""time""
""fullscreenenter"",""5"",""18862""
","
",1187,NA,49,NA,NA,3000,1,NA,NA,images/tutyellowplanet.jpg,null,images/tutalien3,null,images/tutalien3,images/t.png,NA,practice,null,NA,NA,NA,NA,sub49
d3-animate-choice,21,163376,0.0-21.0,TRUE,TRUE,FALSE,TRUE,"""event"",""trial"",""time""
""fullscreenenter"",""5"",""18862""
","
","
","""event"",""trial"",""time""
""fullscreenenter"",""5"",""18862""
","
",506,NA,49,NA,NA,3000,1,NA,NA,images/tutyellowplanet.jpg,null,images/tutalien3,null,images/tutalien3,images/t.png,NA,practice,null,NA,NA,NA,NA,sub49
d3-animate-choice,22,165655,0.0-22.0,TRUE,TRUE,FALSE,TRUE,"""event"",""trial"",""time""
""fullscreenenter"",""5"",""18862""
","
","
","""event"",""trial"",""time""
""fullscreenenter"",""5"",""18862""
","
",275,NA,49,NA,NA,3000,1,NA,NA,images/tutyellowplanet.jpg,null,images/tutalien3,null,images/tutalien3,images/t.png,NA,practice,null,NA,NA,NA,NA,sub49
d3-animate-choice,23,167875,0.0-23.0,TRUE,TRUE,FALSE,TRUE,"""event"",""trial"",""time""
""fullscreenenter"",""5"",""18862""
","
","
","""event"",""trial"",""time""
""fullscreenenter"",""5"",""18862""
","
",217,NA,49,NA,NA,3000,1,NA,NA,images/tutyellowplanet.jpg,null,images/tutalien3,null,images/tutalien3,images/t.png,NA,practice,null,NA,NA,NA,NA,sub49
d3-animate-choice,24,170000,0.0-24.0,TRUE,TRUE,FALSE,TRUE,"""event"",""trial"",""time""
""fullscreenenter"",""5"",""18862""
","
","
","""event"",""trial"",""time""
""fullscreenenter"",""5"",""18862""
","
",121,NA,49,NA,NA,3000,1,NA,NA,images/tutyellowplanet.jpg,null,images/tutalien3,null,images/tutalien3,images/t.png,NA,practice,null,NA,NA,NA,NA,sub49
d3-animate-choice,25,172290,0.0-25.0,TRUE,TRUE,FALSE,TRUE,"""event"",""trial"",""time""
""fullscreenenter"",""5"",""18862""
","
","
","""event"",""trial"",""time""
""fullscreenenter"",""5"",""18862""
","
",286.9999999999709,NA,49,NA,NA,3000,1,NA,NA,images/tutyellowplanet.jpg,null,images/tutalien3,null,images/tutalien3,images/nothing.png,NA,practice,null,NA,NA,NA,NA,sub49
d3-animate-choice,26,174608,0.0-26.0,TRUE,TRUE,FALSE,TRUE,"""event"",""trial"",""time""
""fullscreenenter"",""5"",""18862""
","
","
","""event"",""trial"",""time""
""fullscreenenter"",""5"",""18862""
","
",315,NA,49,NA,NA,3000,1,NA,NA,images/tutyellowplanet.jpg,null,images/tutalien3,null,images/tutalien3,images/t.png,NA,practice,null,NA,NA,NA,NA,sub49
d3-animate-choice,27,177114,0.0-27.0,TRUE,TRUE,FALSE,TRUE,"""event"",""trial"",""time""
""fullscreenenter"",""5"",""18862""
","
","
","""event"",""trial"",""time""
""fullscreenenter"",""5"",""18862""
","
",503,NA,49,NA,NA,3000,1,NA,NA,images/tutyellowplanet.jpg,null,images/tutalien3,null,images/tutalien3,images/t.png,NA,practice,null,NA,NA,NA,NA,sub49
d3-animate-choice,28,179511,0.0-28.0,TRUE,TRUE,FALSE,TRUE,"""event"",""trial"",""time""
""fullscreenenter"",""5"",""18862""
","
","
","""event"",""trial"",""time""
""fullscreenenter"",""5"",""18862""
","
",394,NA,49,NA,NA,3000,1,NA,NA,images/tutyellowplanet.jpg,null,images/tutalien3,null,images/tutalien3,images/t.png,NA,practice,null,NA,NA,NA,NA,sub49
d3-animate-choice,29,182016,0.0-29.0,TRUE,TRUE,FALSE,TRUE,"""event"",""trial"",""time""
""fullscreenenter"",""5"",""18862""
","
","
","""event"",""trial"",""time""
""fullscreenenter"",""5"",""18862""
","
",502,NA,49,NA,NA,3000,1,NA,NA,images/tutyellowplanet.jpg,null,images/tutalien3,null,images/tutalien3,images/t.png,NA,practice,null,NA,NA,NA,NA,sub49
d3-instructions,30,189127,0.0-30.0,TRUE,TRUE,FALSE,TRUE,"""event"",""trial"",""time""
""fullscreenenter"",""5"",""18862""
","
","
","""event"",""trial"",""time""
""fullscreenenter"",""5"",""18862""
","
",NA,NA,NA,NA,NA,NA,NA,NA,NA,NA,NA,NA,NA,NA,NA,NA,NA,NA,NA,NA,NA,NA,sub49
d3-instructions,31,200753,0.0-31.0,TRUE,TRUE,FALSE,TRUE,"""event"",""trial"",""time""
""fullscreenenter"",""5"",""18862""
""blur"",""32"",""204149""
""focus"",""32"",""206625""
","""event"",""trial"",""time""
""blur"",""32"",""204149""
","""event"",""trial"",""time""
""focus"",""32"",""206625""
","""event"",""trial"",""time""
""fullscreenenter"",""5"",""18862""
","
",NA,NA,NA,NA,NA,NA,NA,NA,NA,NA,NA,NA,NA,NA,NA,NA,NA,NA,NA,NA,NA,NA,sub49
d3-instructions,32,211309,0.0-32.0,TRUE,TRUE,FALSE,TRUE,"""event"",""trial"",""time""
""fullscreenenter"",""5"",""18862""
""blur"",""32"",""204149""
""focus"",""32"",""206625""
","""event"",""trial"",""time""
""blur"",""32"",""204149""
","""event"",""trial"",""time""
""focus"",""32"",""206625""
","""event"",""trial"",""time""
""fullscreenenter"",""5"",""18862""
","
",NA,NA,NA,NA,NA,NA,NA,NA,NA,NA,NA,NA,NA,NA,NA,NA,NA,NA,NA,NA,NA,NA,sub49
d3-instructions,33,222405,0.0-33.0,TRUE,TRUE,FALSE,TRUE,"""event"",""trial"",""time""
""fullscreenenter"",""5"",""18862""
""blur"",""32"",""204149""
""focus"",""32"",""206625""
","""event"",""trial"",""time""
""blur"",""32"",""204149""
","""event"",""trial"",""time""
""focus"",""32"",""206625""
","""event"",""trial"",""time""
""fullscreenenter"",""5"",""18862""
","
",NA,NA,NA,NA,NA,NA,NA,NA,NA,NA,NA,NA,NA,NA,NA,NA,NA,NA,NA,NA,NA,NA,sub49
d3-animate-choice,34,226338,0.0-34.0,TRUE,TRUE,FALSE,TRUE,"""event"",""trial"",""time""
""fullscreenenter"",""5"",""18862""
""blur"",""32"",""204149""
""focus"",""32"",""206625""
","""event"",""trial"",""time""
""blur"",""32"",""204149""
","""event"",""trial"",""time""
""focus"",""32"",""206625""
","""event"",""trial"",""time""
""fullscreenenter"",""5"",""18862""
","
",1929,NA,49,NA,NA,3000,1,NA,NA,images/tutgreenplanet.jpg,images/tutalien1,images/tutalien2,null,images/tutalien2,images/t.png,NA,practice,null,NA,NA,NA,NA,sub49
d3-animate-choice,35,229952,0.0-35.0,TRUE,TRUE,FALSE,TRUE,"""event"",""trial"",""time""
""fullscreenenter"",""5"",""18862""
""blur"",""32"",""204149""
""focus"",""32"",""206625""
","""event"",""trial"",""time""
""blur"",""32"",""204149""
","""event"",""trial"",""time""
""focus"",""32"",""206625""
","""event"",""trial"",""time""
""fullscreenenter"",""5"",""18862""
","
",1611,NA,48,NA,NA,3000,1,NA,NA,images/tutgreenplanet.jpg,images/tutalien1,images/tutalien2,null,images/tutalien1,images/nothing.png,NA,practice,null,NA,NA,NA,NA,sub49
d3-animate-choice,36,234127,0.0-36.0,TRUE,TRUE,FALSE,TRUE,"""event"",""trial"",""time""
""fullscreenenter"",""5"",""18862""
""blur"",""32"",""204149""
""focus"",""32"",""206625""
","""event"",""trial"",""time""
""blur"",""32"",""204149""
","""event"",""trial"",""time""
""focus"",""32"",""206625""
","""event"",""trial"",""time""
""fullscreenenter"",""5"",""18862""
","
",2171,NA,49,NA,NA,3000,1,NA,NA,images/tutgreenplanet.jpg,images/tutalien1,images/tutalien2,null,images/tutalien2,images/t.png,NA,practice,null,NA,NA,NA,NA,sub49
d3-animate-choice,37,236515,0.0-37.0,TRUE,TRUE,FALSE,TRUE,"""event"",""trial"",""time""
""fullscreenenter"",""5"",""18862""
""blur"",""32"",""204149""
""focus"",""32"",""206625""
","""event"",""trial"",""time""
""blur"",""32"",""204149""
","""event"",""trial"",""time""
""focus"",""32"",""206625""
","""event"",""trial"",""time""
""fullscreenenter"",""5"",""18862""
","
",384.9999999999709,NA,48,NA,NA,3000,1,NA,NA,images/tutgreenplanet.jpg,images/tutalien1,images/tutalien2,null,images/tutalien1,images/nothing.png,NA,practice,null,NA,NA,NA,NA,sub49
d3-animate-choice,38,238861,0.0-38.0,TRUE,TRUE,FALSE,TRUE,"""event"",""trial"",""time""
""fullscreenenter"",""5"",""18862""
""blur"",""32"",""204149""
""focus"",""32"",""206625""
","""event"",""trial"",""time""
""blur"",""32"",""204149""
","""event"",""trial"",""time""
""focus"",""32"",""206625""
","""event"",""trial"",""time""
""fullscreenenter"",""5"",""18862""
","
",341.9999999999709,NA,49,NA,NA,3000,1,NA,NA,images/tutgreenplanet.jpg,images/tutalien1,images/tutalien2,null,images/tutalien2,images/nothing.png,NA,practice,null,NA,NA,NA,NA,sub49
d3-animate-choice,39,241130,0.0-39.0,TRUE,TRUE,FALSE,TRUE,"""event"",""trial"",""time""
""fullscreenenter"",""5"",""18862""
""blur"",""32"",""204149""
""focus"",""32"",""206625""
","""event"",""trial"",""time""
""blur"",""32"",""204149""
","""event"",""trial"",""time""
""focus"",""32"",""206625""
","""event"",""trial"",""time""
""fullscreenenter"",""5"",""18862""
","
",265.9999999999709,NA,49,NA,NA,3000,1,NA,NA,images/tutgreenplanet.jpg,images/tutalien1,images/tutalien2,null,images/tutalien2,images/t.png,NA,practice,null,NA,NA,NA,NA,sub49
d3-animate-choice,40,243264,0.0-40.0,TRUE,TRUE,FALSE,TRUE,"""event"",""trial"",""time""
""fullscreenenter"",""5"",""18862""
""blur"",""32"",""204149""
""focus"",""32"",""206625""
","""event"",""trial"",""time""
""blur"",""32"",""204149""
","""event"",""trial"",""time""
""focus"",""32"",""206625""
","""event"",""trial"",""time""
""fullscreenenter"",""5"",""18862""
","
",130,NA,49,NA,NA,3000,1,NA,NA,images/tutgreenplanet.jpg,images/tutalien1,images/tutalien2,null,images/tutalien2,images/t.png,NA,practice,null,NA,NA,NA,NA,sub49
d3-animate-choice,41,245476,0.0-41.0,TRUE,TRUE,FALSE,TRUE,"""event"",""trial"",""time""
""fullscreenenter"",""5"",""18862""
""blur"",""32"",""204149""
""focus"",""32"",""206625""
","""event"",""trial"",""time""
""blur"",""32"",""204149""
","""event"",""trial"",""time""
""focus"",""32"",""206625""
","""event"",""trial"",""time""
""fullscreenenter"",""5"",""18862""
","
",209,NA,49,NA,NA,3000,1,NA,NA,images/tutgreenplanet.jpg,images/tutalien1,images/tutalien2,null,images/tutalien2,images/t.png,NA,practice,null,NA,NA,NA,NA,sub49
d3-animate-choice,42,247663,0.0-42.0,TRUE,TRUE,FALSE,TRUE,"""event"",""trial"",""time""
""fullscreenenter"",""5"",""18862""
""blur"",""32"",""204149""
""focus"",""32"",""206625""
","""event"",""trial"",""time""
""blur"",""32"",""204149""
","""event"",""trial"",""time""
""focus"",""32"",""206625""
","""event"",""trial"",""time""
""fullscreenenter"",""5"",""18862""
","
",183.9999999999418,NA,49,NA,NA,3000,1,NA,NA,images/tutgreenplanet.jpg,images/tutalien1,images/tutalien2,null,images/tutalien2,images/t.png,NA,practice,null,NA,NA,NA,NA,sub49
d3-animate-choice,43,249854,0.0-43.0,TRUE,TRUE,FALSE,TRUE,"""event"",""trial"",""time""
""fullscreenenter"",""5"",""18862""
""blur"",""32"",""204149""
""focus"",""32"",""206625""
","""event"",""trial"",""time""
""blur"",""32"",""204149""
","""event"",""trial"",""time""
""focus"",""32"",""206625""
","""event"",""trial"",""time""
""fullscreenenter"",""5"",""18862""
","
",187.0000000000582,NA,49,NA,NA,3000,1,NA,NA,images/tutgreenplanet.jpg,images/tutalien1,images/tutalien2,null,images/tutalien2,images/t.png,NA,practice,null,NA,NA,NA,NA,sub49
d3-instructions,44,263919,0.0-44.0,TRUE,TRUE,FALSE,TRUE,"""event"",""trial"",""time""
""fullscreenenter"",""5"",""18862""
""blur"",""32"",""204149""
""focus"",""32"",""206625""
","""event"",""trial"",""time""
""blur"",""32"",""204149""
","""event"",""trial"",""time""
""focus"",""32"",""206625""
","""event"",""trial"",""time""
""fullscreenenter"",""5"",""18862""
","
",NA,NA,NA,NA,NA,NA,NA,NA,NA,NA,NA,NA,NA,NA,NA,NA,NA,NA,NA,NA,NA,NA,sub49
d3-instructions,45,270516,0.0-45.0,TRUE,TRUE,FALSE,TRUE,"""event"",""trial"",""time""
""fullscreenenter"",""5"",""18862""
""blur"",""32"",""204149""
""focus"",""32"",""206625""
","""event"",""trial"",""time""
""blur"",""32"",""204149""
","""event"",""trial"",""time""
""focus"",""32"",""206625""
","""event"",""trial"",""time""
""fullscreenenter"",""5"",""18862""
","
",NA,NA,NA,NA,NA,NA,NA,NA,NA,NA,NA,NA,NA,NA,NA,NA,NA,NA,NA,NA,NA,NA,sub49
d3-instructions,46,275684,0.0-46.0,TRUE,TRUE,FALSE,TRUE,"""event"",""trial"",""time""
""fullscreenenter"",""5"",""18862""
""blur"",""32"",""204149""
""focus"",""32"",""206625""
","""event"",""trial"",""time""
""blur"",""32"",""204149""
","""event"",""trial"",""time""
""focus"",""32"",""206625""
","""event"",""trial"",""time""
""fullscreenenter"",""5"",""18862""
","
",NA,NA,NA,NA,NA,NA,NA,NA,NA,NA,NA,NA,NA,NA,NA,NA,NA,NA,NA,NA,NA,NA,sub49
d3-instructions,47,292453,0.0-47.0,TRUE,TRUE,FALSE,TRUE,"""event"",""trial"",""time""
""fullscreenenter"",""5"",""18862""
""blur"",""32"",""204149""
""focus"",""32"",""206625""
","""event"",""trial"",""time""
""blur"",""32"",""204149""
","""event"",""trial"",""time""
""focus"",""32"",""206625""
","""event"",""trial"",""time""
""fullscreenenter"",""5"",""18862""
","
",NA,NA,NA,NA,NA,NA,NA,NA,NA,NA,NA,NA,NA,NA,NA,NA,NA,NA,NA,NA,NA,NA,sub49
d3-instructions,48,302096,0.0-48.0,TRUE,TRUE,FALSE,TRUE,"""event"",""trial"",""time""
""fullscreenenter"",""5"",""18862""
""blur"",""32"",""204149""
""focus"",""32"",""206625""
","""event"",""trial"",""time""
""blur"",""32"",""204149""
","""event"",""trial"",""time""
""focus"",""32"",""206625""
","""event"",""trial"",""time""
""fullscreenenter"",""5"",""18862""
","
",NA,NA,NA,NA,NA,NA,NA,NA,NA,NA,NA,NA,NA,NA,NA,NA,NA,NA,NA,NA,NA,NA,sub49
d3-instructions,49,313208,0.0-49.0,TRUE,TRUE,FALSE,TRUE,"""event"",""trial"",""time""
""fullscreenenter"",""5"",""18862""
""blur"",""32"",""204149""
""focus"",""32"",""206625""
","""event"",""trial"",""time""
""blur"",""32"",""204149""
","""event"",""trial"",""time""
""focus"",""32"",""206625""
","""event"",""trial"",""time""
""fullscreenenter"",""5"",""18862""
","
",NA,NA,NA,NA,NA,NA,NA,NA,NA,NA,NA,NA,NA,NA,NA,NA,NA,NA,NA,NA,NA,NA,sub49
d3-instructions,50,322027,0.0-50.0,TRUE,TRUE,FALSE,TRUE,"""event"",""trial"",""time""
""fullscreenenter"",""5"",""18862""
""blur"",""32"",""204149""
""focus"",""32"",""206625""
","""event"",""trial"",""time""
""blur"",""32"",""204149""
","""event"",""trial"",""time""
""focus"",""32"",""206625""
","""event"",""trial"",""time""
""fullscreenenter"",""5"",""18862""
","
",NA,NA,NA,NA,NA,NA,NA,NA,NA,NA,NA,NA,NA,NA,NA,NA,NA,NA,NA,NA,NA,NA,sub49
d3-instructions,51,324594,0.0-51.0,TRUE,TRUE,FALSE,TRUE,"""event"",""trial"",""time""
""fullscreenenter"",""5"",""18862""
""blur"",""32"",""204149""
""focus"",""32"",""206625""
","""event"",""trial"",""time""
""blur"",""32"",""204149""
","""event"",""trial"",""time""
""focus"",""32"",""206625""
","""event"",""trial"",""time""
""fullscreenenter"",""5"",""18862""
","
",NA,NA,NA,NA,NA,NA,NA,NA,NA,NA,NA,NA,NA,NA,NA,NA,NA,NA,NA,NA,NA,NA,sub49
d3-instructions,52,327655,0.0-52.0,TRUE,TRUE,FALSE,TRUE,"""event"",""trial"",""time""
""fullscreenenter"",""5"",""18862""
""blur"",""32"",""204149""
""focus"",""32"",""206625""
","""event"",""trial"",""time""
""blur"",""32"",""204149""
","""event"",""trial"",""time""
""focus"",""32"",""206625""
","""event"",""trial"",""time""
""fullscreenenter"",""5"",""18862""
","
",NA,NA,NA,NA,NA,NA,NA,NA,NA,NA,NA,NA,NA,NA,NA,NA,NA,NA,NA,NA,NA,NA,sub49
d3-instructions,53,339594,0.0-53.0,TRUE,TRUE,FALSE,TRUE,"""event"",""trial"",""time""
""fullscreenenter"",""5"",""18862""
""blur"",""32"",""204149""
""focus"",""32"",""206625""
","""event"",""trial"",""time""
""blur"",""32"",""204149""
","""event"",""trial"",""time""
""focus"",""32"",""206625""
","""event"",""trial"",""time""
""fullscreenenter"",""5"",""18862""
","
",NA,NA,NA,NA,NA,NA,NA,NA,NA,NA,NA,NA,NA,NA,NA,NA,NA,NA,NA,NA,NA,NA,sub49
d3-instructions,54,354328,0.0-54.0,TRUE,TRUE,FALSE,TRUE,"""event"",""trial"",""time""
""fullscreenenter"",""5"",""18862""
""blur"",""32"",""204149""
""focus"",""32"",""206625""
","""event"",""trial"",""time""
""blur"",""32"",""204149""
","""event"",""trial"",""time""
""focus"",""32"",""206625""
","""event"",""trial"",""time""
""fullscreenenter"",""5"",""18862""
","
",NA,NA,NA,NA,NA,NA,NA,NA,NA,NA,NA,NA,NA,NA,NA,NA,NA,NA,NA,NA,NA,NA,sub49
d3-instructions,55,364486,0.0-55.0,TRUE,TRUE,FALSE,TRUE,"""event"",""trial"",""time""
""fullscreenenter"",""5"",""18862""
""blur"",""32"",""204149""
""focus"",""32"",""206625""
","""event"",""trial"",""time""
""blur"",""32"",""204149""
","""event"",""trial"",""time""
""focus"",""32"",""206625""
","""event"",""trial"",""time""
""fullscreenenter"",""5"",""18862""
","
",NA,NA,NA,NA,NA,NA,NA,NA,NA,NA,NA,NA,NA,NA,NA,NA,NA,NA,NA,NA,NA,NA,sub49
d3-instructions,56,374679,0.0-56.0,TRUE,TRUE,FALSE,TRUE,"""event"",""trial"",""time""
""fullscreenenter"",""5"",""18862""
""blur"",""32"",""204149""
""focus"",""32"",""206625""
","""event"",""trial"",""time""
""blur"",""32"",""204149""
","""event"",""trial"",""time""
""focus"",""32"",""206625""
","""event"",""trial"",""time""
""fullscreenenter"",""5"",""18862""
","
",NA,NA,NA,NA,NA,NA,NA,NA,NA,NA,NA,NA,NA,NA,NA,NA,NA,NA,NA,NA,NA,NA,sub49
d3-instructions,57,384609,0.0-57.0,TRUE,TRUE,FALSE,TRUE,"""event"",""trial"",""time""
""fullscreenenter"",""5"",""18862""
""blur"",""32"",""204149""
""focus"",""32"",""206625""
","""event"",""trial"",""time""
""blur"",""32"",""204149""
","""event"",""trial"",""time""
""focus"",""32"",""206625""
","""event"",""trial"",""time""
""fullscreenenter"",""5"",""18862""
","
",NA,NA,NA,NA,NA,NA,NA,NA,NA,NA,NA,NA,NA,NA,NA,NA,NA,NA,NA,NA,NA,NA,sub49
d3-instructions,58,394681,0.0-58.0,TRUE,TRUE,FALSE,TRUE,"""event"",""trial"",""time""
""fullscreenenter"",""5"",""18862""
""blur"",""32"",""204149""
""focus"",""32"",""206625""
","""event"",""trial"",""time""
""blur"",""32"",""204149""
","""event"",""trial"",""time""
""focus"",""32"",""206625""
","""event"",""trial"",""time""
""fullscreenenter"",""5"",""18862""
","
",NA,NA,NA,NA,NA,NA,NA,NA,NA,NA,NA,NA,NA,NA,NA,NA,NA,NA,NA,NA,NA,NA,sub49
d3-instructions,59,399546,0.0-59.0,TRUE,TRUE,FALSE,TRUE,"""event"",""trial"",""time""
""fullscreenenter"",""5"",""18862""
""blur"",""32"",""204149""
""focus"",""32"",""206625""
","""event"",""trial"",""time""
""blur"",""32"",""204149""
","""event"",""trial"",""time""
""focus"",""32"",""206625""
","""event"",""trial"",""time""
""fullscreenenter"",""5"",""18862""
","
",NA,NA,NA,NA,NA,NA,NA,NA,NA,NA,NA,NA,NA,NA,NA,NA,NA,NA,NA,NA,NA,NA,sub49
d3-instructions,60,408262,0.0-60.0,TRUE,TRUE,FALSE,TRUE,"""event"",""trial"",""time""
""fullscreenenter"",""5"",""18862""
""blur"",""32"",""204149""
""focus"",""32"",""206625""
","""event"",""trial"",""time""
""blur"",""32"",""204149""
","""event"",""trial"",""time""
""focus"",""32"",""206625""
","""event"",""trial"",""time""
""fullscreenenter"",""5"",""18862""
","
",NA,NA,NA,NA,NA,NA,NA,NA,NA,NA,NA,NA,NA,NA,NA,NA,NA,NA,NA,NA,NA,NA,sub49
d3-animate-choice,61,411583,0.0-61.0-0.0,TRUE,TRUE,FALSE,TRUE,"""event"",""trial"",""time""
""fullscreenenter"",""5"",""18862""
""blur"",""32"",""204149""
""focus"",""32"",""206625""
","""event"",""trial"",""time""
""blur"",""32"",""204149""
","""event"",""trial"",""time""
""focus"",""32"",""206625""
","""event"",""trial"",""time""
""fullscreenenter"",""5"",""18862""
","
",1315,NA,49,NA,NA,3000,1,NA,NA,images/earth.jpg,images/tutrocket1,images/tutrocket2,null,images/tutrocket2,NA,1,practice,null,1,NA,NA,NA,sub49
d3-animate-choice,62,414774,0.0-61.0-1.0,TRUE,TRUE,FALSE,TRUE,"""event"",""trial"",""time""
""fullscreenenter"",""5"",""18862""
""blur"",""32"",""204149""
""focus"",""32"",""206625""
","""event"",""trial"",""time""
""blur"",""32"",""204149""
","""event"",""trial"",""time""
""focus"",""32"",""206625""
","""event"",""trial"",""time""
""fullscreenenter"",""5"",""18862""
","
",1181.9999999999418,NA,49,NA,NA,3000,1,NA,NA,images/tutyellowplanet.jpg,images/tutalien4,images/tutalien3,images/tutrocket2,images/tutalien3,images/t.png,2,practice,true,1,common,1,2020-06-23T17:28:14Z,sub49
two-step-fixation,63,415779,0.0-61.0-2.0,TRUE,TRUE,FALSE,TRUE,"""event"",""trial"",""time""
""fullscreenenter"",""5"",""18862""
""blur"",""32"",""204149""
""focus"",""32"",""206625""
","""event"",""trial"",""time""
""blur"",""32"",""204149""
","""event"",""trial"",""time""
""focus"",""32"",""206625""
","""event"",""trial"",""time""
""fullscreenenter"",""5"",""18862""
","
",NA,images/earth.jpg,NA,NA,NA,NA,NA,NA,NA,NA,NA,NA,NA,NA,NA,fixation,NA,NA,NA,NA,NA,NA,sub49
d3-animate-choice,64,419217,0.0-61.0-0.1,TRUE,TRUE,FALSE,TRUE,"""event"",""trial"",""time""
""fullscreenenter"",""5"",""18862""
""blur"",""32"",""204149""
""focus"",""32"",""206625""
","""event"",""trial"",""time""
""blur"",""32"",""204149""
","""event"",""trial"",""time""
""focus"",""32"",""206625""
","""event"",""trial"",""time""
""fullscreenenter"",""5"",""18862""
","
",1434.0000000000582,NA,48,NA,NA,3000,1,NA,NA,images/earth.jpg,images/tutrocket1,images/tutrocket2,null,images/tutrocket1,NA,1,practice,null,2,NA,NA,NA,sub49
d3-animate-choice,65,422478,0.0-61.0-1.1,TRUE,TRUE,FALSE,TRUE,"""event"",""trial"",""time""
""fullscreenenter"",""5"",""18862""
""blur"",""32"",""204149""
""focus"",""32"",""206625""
","""event"",""trial"",""time""
""blur"",""32"",""204149""
","""event"",""trial"",""time""
""focus"",""32"",""206625""
","""event"",""trial"",""time""
""fullscreenenter"",""5"",""18862""
","
",1258.0000000000582,NA,48,NA,NA,3000,1,NA,NA,images/tutyellowplanet.jpg,images/tutalien4,images/tutalien3,images/tutrocket1,images/tutalien4,images/t.png,2,practice,false,2,rare,1,2020-06-23T17:28:22Z,sub49
two-step-fixation,66,423481,0.0-61.0-2.1,TRUE,TRUE,FALSE,TRUE,"""event"",""trial"",""time""
""fullscreenenter"",""5"",""18862""
""blur"",""32"",""204149""
""focus"",""32"",""206625""
","""event"",""trial"",""time""
""blur"",""32"",""204149""
","""event"",""trial"",""time""
""focus"",""32"",""206625""
","""event"",""trial"",""time""
""fullscreenenter"",""5"",""18862""
","
",NA,images/earth.jpg,NA,NA,NA,NA,NA,NA,NA,NA,NA,NA,NA,NA,NA,fixation,NA,NA,NA,NA,NA,NA,sub49
d3-animate-choice,67,426016,0.0-61.0-0.2,TRUE,TRUE,FALSE,TRUE,"""event"",""trial"",""time""
""fullscreenenter"",""5"",""18862""
""blur"",""32"",""204149""
""focus"",""32"",""206625""
","""event"",""trial"",""time""
""blur"",""32"",""204149""
","""event"",""trial"",""time""
""focus"",""32"",""206625""
","""event"",""trial"",""time""
""fullscreenenter"",""5"",""18862""
","
",530.9999999999418,NA,49,NA,NA,3000,1,NA,NA,images/earth.jpg,images/tutrocket1,images/tutrocket2,null,images/tutrocket2,NA,1,practice,null,1,NA,NA,NA,sub49
d3-animate-choice,68,429186,0.0-61.0-1.2,TRUE,TRUE,FALSE,TRUE,"""event"",""trial"",""time""
""fullscreenenter"",""5"",""18862""
""blur"",""32"",""204149""
""focus"",""32"",""206625""
","""event"",""trial"",""time""
""blur"",""32"",""204149""
","""event"",""trial"",""time""
""focus"",""32"",""206625""
","""event"",""trial"",""time""
""fullscreenenter"",""5"",""18862""
","
",1167.0000000000582,NA,49,NA,NA,3000,1,NA,NA,images/tutgreenplanet.jpg,images/tutalien2,images/tutalien1,images/tutrocket2,images/tutalien1,images/nothing.png,2,practice,false,1,rare,0,2020-06-23T17:28:29Z,sub49
two-step-fixation,69,430188,0.0-61.0-2.2,TRUE,TRUE,FALSE,TRUE,"""event"",""trial"",""time""
""fullscreenenter"",""5"",""18862""
""blur"",""32"",""204149""
""focus"",""32"",""206625""
","""event"",""trial"",""time""
""blur"",""32"",""204149""
","""event"",""trial"",""time""
""focus"",""32"",""206625""
","""event"",""trial"",""time""
""fullscreenenter"",""5"",""18862""
","
",NA,images/earth.jpg,NA,NA,NA,NA,NA,NA,NA,NA,NA,NA,NA,NA,NA,fixation,NA,NA,NA,NA,NA,NA,sub49
d3-animate-choice,70,433839,0.0-61.0-0.3,TRUE,TRUE,FALSE,TRUE,"""event"",""trial"",""time""
""fullscreenenter"",""5"",""18862""
""blur"",""32"",""204149""
""focus"",""32"",""206625""
","""event"",""trial"",""time""
""blur"",""32"",""204149""
","""event"",""trial"",""time""
""focus"",""32"",""206625""
","""event"",""trial"",""time""
""fullscreenenter"",""5"",""18862""
","
",1647,NA,49,NA,NA,3000,1,NA,NA,images/earth.jpg,images/tutrocket1,images/tutrocket2,null,images/tutrocket2,NA,1,practice,null,1,NA,NA,NA,sub49
d3-animate-choice,71,437197,0.0-61.0-1.3,TRUE,TRUE,FALSE,TRUE,"""event"",""trial"",""time""
""fullscreenenter"",""5"",""18862""
""blur"",""32"",""204149""
""focus"",""32"",""206625""
","""event"",""trial"",""time""
""blur"",""32"",""204149""
","""event"",""trial"",""time""
""focus"",""32"",""206625""
","""event"",""trial"",""time""
""fullscreenenter"",""5"",""18862""
","
",1354.9999999999418,NA,49,NA,NA,3000,1,NA,NA,images/tutyellowplanet.jpg,images/tutalien4,images/tutalien3,images/tutrocket2,images/tutalien3,images/nothing.png,2,practice,true,1,common,0,2020-06-23T17:28:37Z,sub49
two-step-fixation,72,438199,0.0-61.0-2.3,TRUE,TRUE,FALSE,TRUE,"""event"",""trial"",""time""
""fullscreenenter"",""5"",""18862""
""blur"",""32"",""204149""
""focus"",""32"",""206625""
","""event"",""trial"",""time""
""blur"",""32"",""204149""
","""event"",""trial"",""time""
""focus"",""32"",""206625""
","""event"",""trial"",""time""
""fullscreenenter"",""5"",""18862""
","
",NA,images/earth.jpg,NA,NA,NA,NA,NA,NA,NA,NA,NA,NA,NA,NA,NA,fixation,NA,NA,NA,NA,NA,NA,sub49
d3-animate-choice,73,440973,0.0-61.0-0.4,TRUE,TRUE,FALSE,TRUE,"""event"",""trial"",""time""
""fullscreenenter"",""5"",""18862""
""blur"",""32"",""204149""
""focus"",""32"",""206625""
","""event"",""trial"",""time""
""blur"",""32"",""204149""
","""event"",""trial"",""time""
""focus"",""32"",""206625""
","""event"",""trial"",""time""
""fullscreenenter"",""5"",""18862""
","
",772,NA,49,NA,NA,3000,1,NA,NA,images/earth.jpg,images/tutrocket1,images/tutrocket2,null,images/tutrocket2,NA,1,practice,null,1,NA,NA,NA,sub49
d3-animate-choice,74,443676,0.0-61.0-1.4,TRUE,TRUE,FALSE,TRUE,"""event"",""trial"",""time""
""fullscreenenter"",""5"",""18862""
""blur"",""32"",""204149""
""focus"",""32"",""206625""
","""event"",""trial"",""time""
""blur"",""32"",""204149""
","""event"",""trial"",""time""
""focus"",""32"",""206625""
","""event"",""trial"",""time""
""fullscreenenter"",""5"",""18862""
","
",700,NA,48,NA,NA,3000,1,NA,NA,images/tutyellowplanet.jpg,images/tutalien4,images/tutalien3,images/tutrocket2,images/tutalien4,images/nothing.png,2,practice,true,2,common,0,2020-06-23T17:28:43Z,sub49
two-step-fixation,75,444678,0.0-61.0-2.4,TRUE,TRUE,FALSE,TRUE,"""event"",""trial"",""time""
""fullscreenenter"",""5"",""18862""
""blur"",""32"",""204149""
""focus"",""32"",""206625""
","""event"",""trial"",""time""
""blur"",""32"",""204149""
","""event"",""trial"",""time""
""focus"",""32"",""206625""
","""event"",""trial"",""time""
""fullscreenenter"",""5"",""18862""
","
",NA,images/earth.jpg,NA,NA,NA,NA,NA,NA,NA,NA,NA,NA,NA,NA,NA,fixation,NA,NA,NA,NA,NA,NA,sub49
d3-animate-choice,76,447231,0.0-61.0-0.5,TRUE,TRUE,FALSE,TRUE,"""event"",""trial"",""time""
""fullscreenenter"",""5"",""18862""
""blur"",""32"",""204149""
""focus"",""32"",""206625""
","""event"",""trial"",""time""
""blur"",""32"",""204149""
","""event"",""trial"",""time""
""focus"",""32"",""206625""
","""event"",""trial"",""time""
""fullscreenenter"",""5"",""18862""
","
",549.9999999999418,NA,49,NA,NA,3000,1,NA,NA,images/earth.jpg,images/tutrocket1,images/tutrocket2,null,images/tutrocket2,NA,1,practice,null,1,NA,NA,NA,sub49
d3-animate-choice,77,449684,0.0-61.0-1.5,TRUE,TRUE,FALSE,TRUE,"""event"",""trial"",""time""
""fullscreenenter"",""5"",""18862""
""blur"",""32"",""204149""
""focus"",""32"",""206625""
","""event"",""trial"",""time""
""blur"",""32"",""204149""
","""event"",""trial"",""time""
""focus"",""32"",""206625""
","""event"",""trial"",""time""
""fullscreenenter"",""5"",""18862""
","
",448.9999999999418,NA,48,NA,NA,3000,1,NA,NA,images/tutyellowplanet.jpg,images/tutalien4,images/tutalien3,images/tutrocket2,images/tutalien4,images/nothing.png,2,practice,true,2,common,0,2020-06-23T17:28:49Z,sub49
two-step-fixation,78,450685,0.0-61.0-2.5,TRUE,TRUE,FALSE,TRUE,"""event"",""trial"",""time""
""fullscreenenter"",""5"",""18862""
""blur"",""32"",""204149""
""focus"",""32"",""206625""
","""event"",""trial"",""time""
""blur"",""32"",""204149""
","""event"",""trial"",""time""
""focus"",""32"",""206625""
","""event"",""trial"",""time""
""fullscreenenter"",""5"",""18862""
","
",NA,images/earth.jpg,NA,NA,NA,NA,NA,NA,NA,NA,NA,NA,NA,NA,NA,fixation,NA,NA,NA,NA,NA,NA,sub49
d3-animate-choice,79,453579,0.0-61.0-0.6,TRUE,TRUE,FALSE,TRUE,"""event"",""trial"",""time""
""fullscreenenter"",""5"",""18862""
""blur"",""32"",""204149""
""focus"",""32"",""206625""
","""event"",""trial"",""time""
""blur"",""32"",""204149""
","""event"",""trial"",""time""
""focus"",""32"",""206625""
","""event"",""trial"",""time""
""fullscreenenter"",""5"",""18862""
","
",890,NA,48,NA,NA,3000,1,NA,NA,images/earth.jpg,images/tutrocket1,images/tutrocket2,null,images/tutrocket1,NA,1,practice,null,2,NA,NA,NA,sub49
d3-animate-choice,80,456246,0.0-61.0-1.6,TRUE,TRUE,FALSE,TRUE,"""event"",""trial"",""time""
""fullscreenenter"",""5"",""18862""
""blur"",""32"",""204149""
""focus"",""32"",""206625""
","""event"",""trial"",""time""
""blur"",""32"",""204149""
","""event"",""trial"",""time""
""focus"",""32"",""206625""
","""event"",""trial"",""time""
""fullscreenenter"",""5"",""18862""
","
",663,NA,49,NA,NA,3000,1,NA,NA,images/tutyellowplanet.jpg,images/tutalien4,images/tutalien3,images/tutrocket1,images/tutalien3,images/t.png,2,practice,false,1,rare,1,2020-06-23T17:28:56Z,sub49
two-step-fixation,81,457248,0.0-61.0-2.6,TRUE,TRUE,FALSE,TRUE,"""event"",""trial"",""time""
""fullscreenenter"",""5"",""18862""
""blur"",""32"",""204149""
""focus"",""32"",""206625""
","""event"",""trial"",""time""
""blur"",""32"",""204149""
","""event"",""trial"",""time""
""focus"",""32"",""206625""
","""event"",""trial"",""time""
""fullscreenenter"",""5"",""18862""
","
",NA,images/earth.jpg,NA,NA,NA,NA,NA,NA,NA,NA,NA,NA,NA,NA,NA,fixation,NA,NA,NA,NA,NA,NA,sub49
d3-animate-choice,82,459622,0.0-61.0-0.7,TRUE,TRUE,FALSE,TRUE,"""event"",""trial"",""time""
""fullscreenenter"",""5"",""18862""
""blur"",""32"",""204149""
""focus"",""32"",""206625""
","""event"",""trial"",""time""
""blur"",""32"",""204149""
","""event"",""trial"",""time""
""focus"",""32"",""206625""
","""event"",""trial"",""time""
""fullscreenenter"",""5"",""18862""
","
",371.0000000000582,NA,48,NA,NA,3000,1,NA,NA,images/earth.jpg,images/tutrocket1,images/tutrocket2,null,images/tutrocket1,NA,1,practice,null,2,NA,NA,NA,sub49
d3-animate-choice,83,462406,0.0-61.0-1.7,TRUE,TRUE,FALSE,TRUE,"""event"",""trial"",""time""
""fullscreenenter"",""5"",""18862""
""blur"",""32"",""204149""
""focus"",""32"",""206625""
","""event"",""trial"",""time""
""blur"",""32"",""204149""
","""event"",""trial"",""time""
""focus"",""32"",""206625""
","""event"",""trial"",""time""
""fullscreenenter"",""5"",""18862""
","
",782,NA,49,NA,NA,3000,1,NA,NA,images/tutgreenplanet.jpg,images/tutalien2,images/tutalien1,images/tutrocket1,images/tutalien1,images/nothing.png,2,practice,true,1,common,0,2020-06-23T17:29:02Z,sub49
two-step-fixation,84,463408,0.0-61.0-2.7,TRUE,TRUE,FALSE,TRUE,"""event"",""trial"",""time""
""fullscreenenter"",""5"",""18862""
""blur"",""32"",""204149""
""focus"",""32"",""206625""
","""event"",""trial"",""time""
""blur"",""32"",""204149""
","""event"",""trial"",""time""
""focus"",""32"",""206625""
","""event"",""trial"",""time""
""fullscreenenter"",""5"",""18862""
","
",NA,images/earth.jpg,NA,NA,NA,NA,NA,NA,NA,NA,NA,NA,NA,NA,NA,fixation,NA,NA,NA,NA,NA,NA,sub49
d3-animate-choice,85,465505,0.0-61.0-0.8,TRUE,TRUE,FALSE,TRUE,"""event"",""trial"",""time""
""fullscreenenter"",""5"",""18862""
""blur"",""32"",""204149""
""focus"",""32"",""206625""
","""event"",""trial"",""time""
""blur"",""32"",""204149""
","""event"",""trial"",""time""
""focus"",""32"",""206625""
","""event"",""trial"",""time""
""fullscreenenter"",""5"",""18862""
","
",93.00000000005821,NA,49,NA,NA,3000,1,NA,NA,images/earth.jpg,images/tutrocket1,images/tutrocket2,null,images/tutrocket2,NA,1,practice,null,1,NA,NA,NA,sub49
d3-animate-choice,86,467868,0.0-61.0-1.8,TRUE,TRUE,FALSE,TRUE,"""event"",""trial"",""time""
""fullscreenenter"",""5"",""18862""
""blur"",""32"",""204149""
""focus"",""32"",""206625""
","""event"",""trial"",""time""
""blur"",""32"",""204149""
","""event"",""trial"",""time""
""focus"",""32"",""206625""
","""event"",""trial"",""time""
""fullscreenenter"",""5"",""18862""
","
",361,NA,49,NA,NA,3000,1,NA,NA,images/tutyellowplanet.jpg,images/tutalien4,images/tutalien3,images/tutrocket2,images/tutalien3,images/nothing.png,2,practice,true,1,common,0,2020-06-23T17:29:08Z,sub49
two-step-fixation,87,468870,0.0-61.0-2.8,TRUE,TRUE,FALSE,TRUE,"""event"",""trial"",""time""
""fullscreenenter"",""5"",""18862""
""blur"",""32"",""204149""
""focus"",""32"",""206625""
","""event"",""trial"",""time""
""blur"",""32"",""204149""
","""event"",""trial"",""time""
""focus"",""32"",""206625""
","""event"",""trial"",""time""
""fullscreenenter"",""5"",""18862""
","
",NA,images/earth.jpg,NA,NA,NA,NA,NA,NA,NA,NA,NA,NA,NA,NA,NA,fixation,NA,NA,NA,NA,NA,NA,sub49
d3-animate-choice,88,471211,0.0-61.0-0.9,TRUE,TRUE,FALSE,TRUE,"""event"",""trial"",""time""
""fullscreenenter"",""5"",""18862""
""blur"",""32"",""204149""
""focus"",""32"",""206625""
","""event"",""trial"",""time""
""blur"",""32"",""204149""
","""event"",""trial"",""time""
""focus"",""32"",""206625""
","""event"",""trial"",""time""
""fullscreenenter"",""5"",""18862""
","
",337,NA,49,NA,NA,3000,1,1441,49,images/earth.jpg,images/tutrocket1,images/tutrocket2,null,images/tutrocket2,NA,1,practice,null,1,NA,NA,NA,sub49
d3-animate-choice,89,473700,0.0-61.0-1.9,TRUE,TRUE,FALSE,TRUE,"""event"",""trial"",""time""
""fullscreenenter"",""5"",""18862""
""blur"",""32"",""204149""
""focus"",""32"",""206625""
","""event"",""trial"",""time""
""blur"",""32"",""204149""
","""event"",""trial"",""time""
""focus"",""32"",""206625""
","""event"",""trial"",""time""
""fullscreenenter"",""5"",""18862""
","
",486,NA,49,NA,NA,3000,1,NA,NA,images/tutyellowplanet.jpg,images/tutalien4,images/tutalien3,images/tutrocket2,images/tutalien3,images/nothing.png,2,practice,true,1,common,0,2020-06-23T17:29:13Z,sub49
two-step-fixation,90,474703,0.0-61.0-2.9,TRUE,TRUE,FALSE,TRUE,"""event"",""trial"",""time""
""fullscreenenter"",""5"",""18862""
""blur"",""32"",""204149""
""focus"",""32"",""206625""
","""event"",""trial"",""time""
""blur"",""32"",""204149""
","""event"",""trial"",""time""
""focus"",""32"",""206625""
","""event"",""trial"",""time""
""fullscreenenter"",""5"",""18862""
","
",NA,images/earth.jpg,NA,NA,NA,NA,NA,NA,NA,NA,NA,NA,NA,NA,NA,fixation,NA,NA,NA,NA,NA,NA,sub49
d3-animate-choice,91,477055,0.0-61.0-0.10,TRUE,TRUE,FALSE,TRUE,"""event"",""trial"",""time""
""fullscreenenter"",""5"",""18862""
""blur"",""32"",""204149""
""focus"",""32"",""206625""
","""event"",""trial"",""time""
""blur"",""32"",""204149""
","""event"",""trial"",""time""
""focus"",""32"",""206625""
","""event"",""trial"",""time""
""fullscreenenter"",""5"",""18862""
","
",348.9999999999418,NA,48,NA,NA,3000,1,NA,NA,images/earth.jpg,images/tutrocket1,images/tutrocket2,null,images/tutrocket1,NA,1,practice,null,2,NA,NA,NA,sub49
d3-animate-choice,92,480332,0.0-61.0-1.10,TRUE,TRUE,FALSE,TRUE,"""event"",""trial"",""time""
""fullscreenenter"",""5"",""18862""
""blur"",""32"",""204149""
""focus"",""32"",""206625""
","""event"",""trial"",""time""
""blur"",""32"",""204149""
","""event"",""trial"",""time""
""focus"",""32"",""206625""
","""event"",""trial"",""time""
""fullscreenenter"",""5"",""18862""
","
",1274,NA,49,NA,NA,3000,1,NA,NA,images/tutyellowplanet.jpg,images/tutalien4,images/tutalien3,images/tutrocket1,images/tutalien3,images/nothing.png,2,practice,false,1,rare,0,2020-06-23T17:29:20Z,sub49
two-step-fixation,93,481334,0.0-61.0-2.10,TRUE,TRUE,FALSE,TRUE,"""event"",""trial"",""time""
""fullscreenenter"",""5"",""18862""
""blur"",""32"",""204149""
""focus"",""32"",""206625""
","""event"",""trial"",""time""
""blur"",""32"",""204149""
","""event"",""trial"",""time""
""focus"",""32"",""206625""
","""event"",""trial"",""time""
""fullscreenenter"",""5"",""18862""
","
",NA,images/earth.jpg,NA,NA,NA,NA,NA,NA,NA,NA,NA,NA,NA,NA,NA,fixation,NA,NA,NA,NA,NA,NA,sub49
d3-animate-choice,94,483962,0.0-61.0-0.11,TRUE,TRUE,FALSE,TRUE,"""event"",""trial"",""time""
""fullscreenenter"",""5"",""18862""
""blur"",""32"",""204149""
""focus"",""32"",""206625""
","""event"",""trial"",""time""
""blur"",""32"",""204149""
","""event"",""trial"",""time""
""focus"",""32"",""206625""
","""event"",""trial"",""time""
""fullscreenenter"",""5"",""18862""
","
",625,NA,48,NA,NA,3000,1,NA,NA,images/earth.jpg,images/tutrocket1,images/tutrocket2,null,images/tutrocket1,NA,1,practice,null,2,NA,NA,NA,sub49
d3-animate-choice,95,487011,0.0-61.0-1.11,TRUE,TRUE,FALSE,TRUE,"""event"",""trial"",""time""
""fullscreenenter"",""5"",""18862""
""blur"",""32"",""204149""
""focus"",""32"",""206625""
","""event"",""trial"",""time""
""blur"",""32"",""204149""
","""event"",""trial"",""time""
""focus"",""32"",""206625""
","""event"",""trial"",""time""
""fullscreenenter"",""5"",""18862""
","
",1046,NA,48,NA,NA,3000,1,NA,NA,images/tutgreenplanet.jpg,images/tutalien2,images/tutalien1,images/tutrocket1,images/tutalien2,images/t.png,2,practice,true,2,common,1,2020-06-23T17:29:27Z,sub49
two-step-fixation,96,488014,0.0-61.0-2.11,TRUE,TRUE,FALSE,TRUE,"""event"",""trial"",""time""
""fullscreenenter"",""5"",""18862""
""blur"",""32"",""204149""
""focus"",""32"",""206625""
","""event"",""trial"",""time""
""blur"",""32"",""204149""
","""event"",""trial"",""time""
""focus"",""32"",""206625""
","""event"",""trial"",""time""
""fullscreenenter"",""5"",""18862""
","
",NA,images/earth.jpg,NA,NA,NA,NA,NA,NA,NA,NA,NA,NA,NA,NA,NA,fixation,NA,NA,NA,NA,NA,NA,sub49
d3-animate-choice,97,490465,0.0-61.0-0.12,TRUE,TRUE,FALSE,TRUE,"""event"",""trial"",""time""
""fullscreenenter"",""5"",""18862""
""blur"",""32"",""204149""
""focus"",""32"",""206625""
","""event"",""trial"",""time""
""blur"",""32"",""204149""
","""event"",""trial"",""time""
""focus"",""32"",""206625""
","""event"",""trial"",""time""
""fullscreenenter"",""5"",""18862""
","
",447.9999999999418,NA,49,NA,NA,3000,1,NA,NA,images/earth.jpg,images/tutrocket1,images/tutrocket2,null,images/tutrocket2,NA,1,practice,null,1,NA,NA,NA,sub49
d3-animate-choice,98,493016,0.0-61.0-1.12,TRUE,TRUE,FALSE,TRUE,"""event"",""trial"",""time""
""fullscreenenter"",""5"",""18862""
""blur"",""32"",""204149""
""focus"",""32"",""206625""
","""event"",""trial"",""time""
""blur"",""32"",""204149""
","""event"",""trial"",""time""
""focus"",""32"",""206625""
","""event"",""trial"",""time""
""fullscreenenter"",""5"",""18862""
","
",547,NA,48,NA,NA,3000,1,NA,NA,images/tutyellowplanet.jpg,images/tutalien4,images/tutalien3,images/tutrocket2,images/tutalien4,images/t.png,2,practice,true,2,common,1,2020-06-23T17:29:33Z,sub49
two-step-fixation,99,494018,0.0-61.0-2.12,TRUE,TRUE,FALSE,TRUE,"""event"",""trial"",""time""
""fullscreenenter"",""5"",""18862""
""blur"",""32"",""204149""
""focus"",""32"",""206625""
","""event"",""trial"",""time""
""blur"",""32"",""204149""
","""event"",""trial"",""time""
""focus"",""32"",""206625""
","""event"",""trial"",""time""
""fullscreenenter"",""5"",""18862""
","
",NA,images/earth.jpg,NA,NA,NA,NA,NA,NA,NA,NA,NA,NA,NA,NA,NA,fixation,NA,NA,NA,NA,NA,NA,sub49
d3-animate-choice,100,496440,0.0-61.0-0.13,TRUE,TRUE,FALSE,TRUE,"""event"",""trial"",""time""
""fullscreenenter"",""5"",""18862""
""blur"",""32"",""204149""
""focus"",""32"",""206625""
","""event"",""trial"",""time""
""blur"",""32"",""204149""
","""event"",""trial"",""time""
""focus"",""32"",""206625""
","""event"",""trial"",""time""
""fullscreenenter"",""5"",""18862""
","
",419.9999999999418,NA,48,NA,NA,3000,1,NA,NA,images/earth.jpg,images/tutrocket1,images/tutrocket2,null,images/tutrocket1,NA,1,practice,null,2,NA,NA,NA,sub49
d3-animate-choice,101,499764,0.0-61.0-1.13,TRUE,TRUE,FALSE,TRUE,"""event"",""trial"",""time""
""fullscreenenter"",""5"",""18862""
""blur"",""32"",""204149""
""focus"",""32"",""206625""
","""event"",""trial"",""time""
""blur"",""32"",""204149""
","""event"",""trial"",""time""
""focus"",""32"",""206625""
","""event"",""trial"",""time""
""fullscreenenter"",""5"",""18862""
","
",1319.9999999999418,NA,48,NA,NA,3000,1,NA,NA,images/tutgreenplanet.jpg,images/tutalien2,images/tutalien1,images/tutrocket1,images/tutalien2,images/t.png,2,practice,true,2,common,1,2020-06-23T17:29:39Z,sub49
two-step-fixation,102,500766,0.0-61.0-2.13,TRUE,TRUE,FALSE,TRUE,"""event"",""trial"",""time""
""fullscreenenter"",""5"",""18862""
""blur"",""32"",""204149""
""focus"",""32"",""206625""
","""event"",""trial"",""time""
""blur"",""32"",""204149""
","""event"",""trial"",""time""
""focus"",""32"",""206625""
","""event"",""trial"",""time""
""fullscreenenter"",""5"",""18862""
","
",NA,images/earth.jpg,NA,NA,NA,NA,NA,NA,NA,NA,NA,NA,NA,NA,NA,fixation,NA,NA,NA,NA,NA,NA,sub49
d3-animate-choice,103,503097,0.0-61.0-0.14,TRUE,TRUE,FALSE,TRUE,"""event"",""trial"",""time""
""fullscreenenter"",""5"",""18862""
""blur"",""32"",""204149""
""focus"",""32"",""206625""
","""event"",""trial"",""time""
""blur"",""32"",""204149""
","""event"",""trial"",""time""
""focus"",""32"",""206625""
","""event"",""trial"",""time""
""fullscreenenter"",""5"",""18862""
","
",327.9999999999418,NA,48,NA,NA,3000,1,NA,NA,images/earth.jpg,images/tutrocket1,images/tutrocket2,null,images/tutrocket1,NA,1,practice,null,2,NA,NA,NA,sub49
d3-animate-choice,104,505849,0.0-61.0-1.14,TRUE,TRUE,FALSE,TRUE,"""event"",""trial"",""time""
""fullscreenenter"",""5"",""18862""
""blur"",""32"",""204149""
""focus"",""32"",""206625""
","""event"",""trial"",""time""
""blur"",""32"",""204149""
","""event"",""trial"",""time""
""focus"",""32"",""206625""
","""event"",""trial"",""time""
""fullscreenenter"",""5"",""18862""
","
",747.9999999998836,NA,48,NA,NA,3000,1,NA,NA,images/tutgreenplanet.jpg,images/tutalien2,images/tutalien1,images/tutrocket1,images/tutalien2,images/t.png,2,practice,true,2,common,1,2020-06-23T17:29:46Z,sub49
two-step-fixation,105,506851,0.0-61.0-2.14,TRUE,TRUE,FALSE,TRUE,"""event"",""trial"",""time""
""fullscreenenter"",""5"",""18862""
""blur"",""32"",""204149""
""focus"",""32"",""206625""
","""event"",""trial"",""time""
""blur"",""32"",""204149""
","""event"",""trial"",""time""
""focus"",""32"",""206625""
","""event"",""trial"",""time""
""fullscreenenter"",""5"",""18862""
","
",NA,images/earth.jpg,NA,NA,NA,NA,NA,NA,NA,NA,NA,NA,NA,NA,NA,fixation,NA,NA,NA,NA,NA,NA,sub49
d3-animate-choice,106,509497,0.0-61.0-0.15,TRUE,TRUE,FALSE,TRUE,"""event"",""trial"",""time""
""fullscreenenter"",""5"",""18862""
""blur"",""32"",""204149""
""focus"",""32"",""206625""
","""event"",""trial"",""time""
""blur"",""32"",""204149""
","""event"",""trial"",""time""
""focus"",""32"",""206625""
","""event"",""trial"",""time""
""fullscreenenter"",""5"",""18862""
","
",644,NA,48,NA,NA,3000,1,NA,NA,images/earth.jpg,images/tutrocket1,images/tutrocket2,null,images/tutrocket1,NA,1,practice,null,2,NA,NA,NA,sub49
d3-animate-choice,107,513070,0.0-61.0-1.15,TRUE,TRUE,FALSE,TRUE,"""event"",""trial"",""time""
""fullscreenenter"",""5"",""18862""
""blur"",""32"",""204149""
""focus"",""32"",""206625""
","""event"",""trial"",""time""
""blur"",""32"",""204149""
","""event"",""trial"",""time""
""focus"",""32"",""206625""
","""event"",""trial"",""time""
""fullscreenenter"",""5"",""18862""
","
",1570,NA,48,NA,NA,3000,1,NA,NA,images/tutgreenplanet.jpg,images/tutalien2,images/tutalien1,images/tutrocket1,images/tutalien2,images/nothing.png,2,practice,true,2,common,0,2020-06-23T17:29:53Z,sub49
two-step-fixation,108,514072,0.0-61.0-2.15,TRUE,TRUE,FALSE,TRUE,"""event"",""trial"",""time""
""fullscreenenter"",""5"",""18862""
""blur"",""32"",""204149""
""focus"",""32"",""206625""
","""event"",""trial"",""time""
""blur"",""32"",""204149""
","""event"",""trial"",""time""
""focus"",""32"",""206625""
","""event"",""trial"",""time""
""fullscreenenter"",""5"",""18862""
","
",NA,images/earth.jpg,NA,NA,NA,NA,NA,NA,NA,NA,NA,NA,NA,NA,NA,fixation,NA,NA,NA,NA,NA,NA,sub49
d3-animate-choice,109,516400,0.0-61.0-0.16,TRUE,TRUE,FALSE,TRUE,"""event"",""trial"",""time""
""fullscreenenter"",""5"",""18862""
""blur"",""32"",""204149""
""focus"",""32"",""206625""
","""event"",""trial"",""time""
""blur"",""32"",""204149""
","""event"",""trial"",""time""
""focus"",""32"",""206625""
","""event"",""trial"",""time""
""fullscreenenter"",""5"",""18862""
","
",326,NA,49,NA,NA,3000,1,378,9,images/earth.jpg,images/tutrocket1,images/tutrocket2,null,images/tutrocket2,NA,1,practice,null,1,NA,NA,NA,sub49
d3-animate-choice,110,518819,0.0-61.0-1.16,TRUE,TRUE,FALSE,TRUE,"""event"",""trial"",""time""
""fullscreenenter"",""5"",""18862""
""blur"",""32"",""204149""
""focus"",""32"",""206625""
","""event"",""trial"",""time""
""blur"",""32"",""204149""
","""event"",""trial"",""time""
""focus"",""32"",""206625""
","""event"",""trial"",""time""
""fullscreenenter"",""5"",""18862""
","
",414.9999999998836,NA,48,NA,NA,3000,1,NA,NA,images/tutyellowplanet.jpg,images/tutalien4,images/tutalien3,images/tutrocket2,images/tutalien4,images/nothing.png,2,practice,true,2,common,0,2020-06-23T17:29:58Z,sub49
two-step-fixation,111,519821,0.0-61.0-2.16,TRUE,TRUE,FALSE,TRUE,"""event"",""trial"",""time""
""fullscreenenter"",""5"",""18862""
""blur"",""32"",""204149""
""focus"",""32"",""206625""
","""event"",""trial"",""time""
""blur"",""32"",""204149""
","""event"",""trial"",""time""
""focus"",""32"",""206625""
","""event"",""trial"",""time""
""fullscreenenter"",""5"",""18862""
","
",NA,images/earth.jpg,NA,NA,NA,NA,NA,NA,NA,NA,NA,NA,NA,NA,NA,fixation,NA,NA,NA,NA,NA,NA,sub49
d3-animate-choice,112,522150,0.0-61.0-0.17,TRUE,TRUE,FALSE,TRUE,"""event"",""trial"",""time""
""fullscreenenter"",""5"",""18862""
""blur"",""32"",""204149""
""focus"",""32"",""206625""
","""event"",""trial"",""time""
""blur"",""32"",""204149""
","""event"",""trial"",""time""
""focus"",""32"",""206625""
","""event"",""trial"",""time""
""fullscreenenter"",""5"",""18862""
","
",326,NA,48,NA,NA,3000,1,NA,NA,images/earth.jpg,images/tutrocket1,images/tutrocket2,null,images/tutrocket1,NA,1,practice,null,2,NA,NA,NA,sub49
d3-animate-choice,113,524884,0.0-61.0-1.17,TRUE,TRUE,FALSE,TRUE,"""event"",""trial"",""time""
""fullscreenenter"",""5"",""18862""
""blur"",""32"",""204149""
""focus"",""32"",""206625""
","""event"",""trial"",""time""
""blur"",""32"",""204149""
","""event"",""trial"",""time""
""focus"",""32"",""206625""
","""event"",""trial"",""time""
""fullscreenenter"",""5"",""18862""
","
",730,NA,48,NA,NA,3000,1,NA,NA,images/tutgreenplanet.jpg,images/tutalien2,images/tutalien1,images/tutrocket1,images/tutalien2,images/nothing.png,2,practice,true,2,common,0,2020-06-23T17:30:05Z,sub49
two-step-fixation,114,525887,0.0-61.0-2.17,TRUE,TRUE,FALSE,TRUE,"""event"",""trial"",""time""
""fullscreenenter"",""5"",""18862""
""blur"",""32"",""204149""
""focus"",""32"",""206625""
","""event"",""trial"",""time""
""blur"",""32"",""204149""
","""event"",""trial"",""time""
""focus"",""32"",""206625""
","""event"",""trial"",""time""
""fullscreenenter"",""5"",""18862""
","
",NA,images/earth.jpg,NA,NA,NA,NA,NA,NA,NA,NA,NA,NA,NA,NA,NA,fixation,NA,NA,NA,NA,NA,NA,sub49
d3-animate-choice,115,528246,0.0-61.0-0.18,TRUE,TRUE,FALSE,TRUE,"""event"",""trial"",""time""
""fullscreenenter"",""5"",""18862""
""blur"",""32"",""204149""
""focus"",""32"",""206625""
","""event"",""trial"",""time""
""blur"",""32"",""204149""
","""event"",""trial"",""time""
""focus"",""32"",""206625""
","""event"",""trial"",""time""
""fullscreenenter"",""5"",""18862""
","
",354,NA,48,NA,NA,3000,1,NA,NA,images/earth.jpg,images/tutrocket1,images/tutrocket2,null,images/tutrocket1,NA,1,practice,null,2,NA,NA,NA,sub49
d3-animate-choice,116,530856,0.0-61.0-1.18,TRUE,TRUE,FALSE,TRUE,"""event"",""trial"",""time""
""fullscreenenter"",""5"",""18862""
""blur"",""32"",""204149""
""focus"",""32"",""206625""
","""event"",""trial"",""time""
""blur"",""32"",""204149""
","""event"",""trial"",""time""
""focus"",""32"",""206625""
","""event"",""trial"",""time""
""fullscreenenter"",""5"",""18862""
","
",606.0000000001164,NA,49,NA,NA,3000,1,NA,NA,images/tutgreenplanet.jpg,images/tutalien2,images/tutalien1,images/tutrocket1,images/tutalien1,images/t.png,2,practice,true,1,common,1,2020-06-23T17:30:11Z,sub49
two-step-fixation,117,531859,0.0-61.0-2.18,TRUE,TRUE,FALSE,TRUE,"""event"",""trial"",""time""
""fullscreenenter"",""5"",""18862""
""blur"",""32"",""204149""
""focus"",""32"",""206625""
","""event"",""trial"",""time""
""blur"",""32"",""204149""
","""event"",""trial"",""time""
""focus"",""32"",""206625""
","""event"",""trial"",""time""
""fullscreenenter"",""5"",""18862""
","
",NA,images/earth.jpg,NA,NA,NA,NA,NA,NA,NA,NA,NA,NA,NA,NA,NA,fixation,NA,NA,NA,NA,NA,NA,sub49
d3-animate-choice,118,534420,0.0-61.0-0.19,TRUE,TRUE,FALSE,TRUE,"""event"",""trial"",""time""
""fullscreenenter"",""5"",""18862""
""blur"",""32"",""204149""
""focus"",""32"",""206625""
","""event"",""trial"",""time""
""blur"",""32"",""204149""
","""event"",""trial"",""time""
""focus"",""32"",""206625""
","""event"",""trial"",""time""
""fullscreenenter"",""5"",""18862""
","
",557.9999999998836,NA,48,NA,NA,3000,1,NA,NA,images/earth.jpg,images/tutrocket1,images/tutrocket2,null,images/tutrocket1,NA,1,practice,null,2,NA,NA,NA,sub49
d3-animate-choice,119,536964,0.0-61.0-1.19,TRUE,TRUE,FALSE,TRUE,"""event"",""trial"",""time""
""fullscreenenter"",""5"",""18862""
""blur"",""32"",""204149""
""focus"",""32"",""206625""
","""event"",""trial"",""time""
""blur"",""32"",""204149""
","""event"",""trial"",""time""
""focus"",""32"",""206625""
","""event"",""trial"",""time""
""fullscreenenter"",""5"",""18862""
","
",539,NA,49,NA,NA,3000,1,NA,NA,images/tutyellowplanet.jpg,images/tutalien4,images/tutalien3,images/tutrocket1,images/tutalien3,images/nothing.png,2,practice,false,1,rare,0,2020-06-23T17:30:17Z,sub49
two-step-fixation,120,537965,0.0-61.0-2.19,TRUE,TRUE,FALSE,TRUE,"""event"",""trial"",""time""
""fullscreenenter"",""5"",""18862""
""blur"",""32"",""204149""
""focus"",""32"",""206625""
","""event"",""trial"",""time""
""blur"",""32"",""204149""
","""event"",""trial"",""time""
""focus"",""32"",""206625""
","""event"",""trial"",""time""
""fullscreenenter"",""5"",""18862""
","
",NA,images/earth.jpg,NA,NA,NA,NA,NA,NA,NA,NA,NA,NA,NA,NA,NA,fixation,NA,NA,NA,NA,NA,NA,sub49
d3-instructions,121,544526,0.0-62.0,TRUE,TRUE,FALSE,TRUE,"""event"",""trial"",""time""
""fullscreenenter"",""5"",""18862""
""blur"",""32"",""204149""
""focus"",""32"",""206625""
","""event"",""trial"",""time""
""blur"",""32"",""204149""
","""event"",""trial"",""time""
""focus"",""32"",""206625""
","""event"",""trial"",""time""
""fullscreenenter"",""5"",""18862""
","
",NA,NA,NA,NA,NA,NA,NA,NA,NA,NA,NA,NA,NA,NA,NA,NA,NA,NA,NA,NA,NA,NA,sub49
audio-keyboard-response,122,548447,0.0-63.0,TRUE,TRUE,FALSE,TRUE,"""event"",""trial"",""time""
""fullscreenenter"",""5"",""18862""
""blur"",""32"",""204149""
""focus"",""32"",""206625""
","""event"",""trial"",""time""
""blur"",""32"",""204149""
","""event"",""trial"",""time""
""focus"",""32"",""206625""
","""event"",""trial"",""time""
""fullscreenenter"",""5"",""18862""
","
",3918,audio/instructions/treasure_feedback.wav,32,NA,NA,NA,NA,NA,NA,NA,NA,NA,NA,NA,NA,NA,NA,NA,NA,NA,NA,NA,sub49
d3-instructions,123,567770,0.0-64.0,TRUE,TRUE,FALSE,TRUE,"""event"",""trial"",""time""
""fullscreenenter"",""5"",""18862""
""blur"",""32"",""204149""
""focus"",""32"",""206625""
","""event"",""trial"",""time""
""blur"",""32"",""204149""
","""event"",""trial"",""time""
""focus"",""32"",""206625""
","""event"",""trial"",""time""
""fullscreenenter"",""5"",""18862""
","
",NA,NA,NA,NA,NA,NA,NA,NA,NA,NA,NA,NA,NA,NA,NA,NA,NA,NA,NA,NA,NA,NA,sub49
d3-instructions,124,582397,0.0-65.0,TRUE,TRUE,FALSE,TRUE,"""event"",""trial"",""time""
""fullscreenenter"",""5"",""18862""
""blur"",""32"",""204149""
""focus"",""32"",""206625""
","""event"",""trial"",""time""
""blur"",""32"",""204149""
","""event"",""trial"",""time""
""focus"",""32"",""206625""
","""event"",""trial"",""time""
""fullscreenenter"",""5"",""18862""
","
",NA,NA,NA,NA,NA,NA,NA,NA,NA,NA,NA,NA,NA,NA,NA,NA,NA,NA,NA,NA,NA,NA,sub49
d3-instructions,125,608866,0.0-66.0,TRUE,TRUE,FALSE,TRUE,"""event"",""trial"",""time""
""fullscreenenter"",""5"",""18862""
""blur"",""32"",""204149""
""focus"",""32"",""206625""
","""event"",""trial"",""time""
""blur"",""32"",""204149""
","""event"",""trial"",""time""
""focus"",""32"",""206625""
","""event"",""trial"",""time""
""fullscreenenter"",""5"",""18862""
","
",NA,NA,NA,NA,NA,NA,NA,NA,NA,NA,NA,NA,NA,NA,NA,NA,NA,NA,NA,NA,NA,NA,sub49
d3-instructions,126,625077,0.0-67.0,TRUE,TRUE,FALSE,TRUE,"""event"",""trial"",""time""
""fullscreenenter"",""5"",""18862""
""blur"",""32"",""204149""
""focus"",""32"",""206625""
","""event"",""trial"",""time""
""blur"",""32"",""204149""
","""event"",""trial"",""time""
""focus"",""32"",""206625""
","""event"",""trial"",""time""
""fullscreenenter"",""5"",""18862""
","
",NA,NA,NA,NA,NA,NA,NA,NA,NA,NA,NA,NA,NA,NA,NA,NA,NA,NA,NA,NA,NA,NA,sub49
d3-instructions,127,636215,0.0-68.0,TRUE,TRUE,FALSE,TRUE,"""event"",""trial"",""time""
""fullscreenenter"",""5"",""18862""
""blur"",""32"",""204149""
""focus"",""32"",""206625""
","""event"",""trial"",""time""
""blur"",""32"",""204149""
","""event"",""trial"",""time""
""focus"",""32"",""206625""
","""event"",""trial"",""time""
""fullscreenenter"",""5"",""18862""
","
",NA,NA,NA,NA,NA,NA,NA,NA,NA,NA,NA,NA,NA,NA,NA,NA,NA,NA,NA,NA,NA,NA,sub49
instructions-quiz,128,641239,0.0-69.0,TRUE,TRUE,FALSE,TRUE,"""event"",""trial"",""time""
""fullscreenenter"",""5"",""18862""
""blur"",""32"",""204149""
""focus"",""32"",""206625""
","""event"",""trial"",""time""
""blur"",""32"",""204149""
","""event"",""trial"",""time""
""focus"",""32"",""206625""
","""event"",""trial"",""time""
""fullscreenenter"",""5"",""18862""
","
",5022,audio/quiz/Q1_Prompt.wav,NA,1,NA,NA,NA,NA,NA,NA,NA,NA,NA,NA,NA,NA,NA,NA,NA,NA,NA,NA,sub49
audio-keyboard-response,129,650408,0.0-70.0,TRUE,TRUE,FALSE,TRUE,"""event"",""trial"",""time""
""fullscreenenter"",""5"",""18862""
""blur"",""32"",""204149""
""focus"",""32"",""206625""
","""event"",""trial"",""time""
""blur"",""32"",""204149""
","""event"",""trial"",""time""
""focus"",""32"",""206625""
","""event"",""trial"",""time""
""fullscreenenter"",""5"",""18862""
","
",null,audio/quiz/Q1_Correct.wav,null,NA,NA,NA,NA,NA,NA,NA,NA,NA,NA,NA,NA,NA,NA,NA,NA,NA,NA,NA,sub49
instructions-quiz,130,655413,0.0-71.0,TRUE,TRUE,FALSE,TRUE,"""event"",""trial"",""time""
""fullscreenenter"",""5"",""18862""
""blur"",""32"",""204149""
""focus"",""32"",""206625""
","""event"",""trial"",""time""
""blur"",""32"",""204149""
","""event"",""trial"",""time""
""focus"",""32"",""206625""
","""event"",""trial"",""time""
""fullscreenenter"",""5"",""18862""
","
",5004,audio/quiz/Q2_Prompt.wav,NA,0,NA,NA,NA,NA,NA,NA,NA,NA,NA,NA,NA,NA,NA,NA,NA,NA,NA,NA,sub49
audio-keyboard-response,131,668183,0.0-72.0,TRUE,TRUE,FALSE,TRUE,"""event"",""trial"",""time""
""fullscreenenter"",""5"",""18862""
""blur"",""32"",""204149""
""focus"",""32"",""206625""
","""event"",""trial"",""time""
""blur"",""32"",""204149""
","""event"",""trial"",""time""
""focus"",""32"",""206625""
","""event"",""trial"",""time""
""fullscreenenter"",""5"",""18862""
","
",12765,audio/quiz/Q2_Correct.wav,32,NA,NA,NA,NA,NA,NA,NA,NA,NA,NA,NA,NA,NA,NA,NA,NA,NA,NA,NA,sub49
instructions-quiz,132,671464,0.0-73.0,TRUE,TRUE,FALSE,TRUE,"""event"",""trial"",""time""
""fullscreenenter"",""5"",""18862""
""blur"",""32"",""204149""
""focus"",""32"",""206625""
","""event"",""trial"",""time""
""blur"",""32"",""204149""
","""event"",""trial"",""time""
""focus"",""32"",""206625""
","""event"",""trial"",""time""
""fullscreenenter"",""5"",""18862""
","
",3279.0000000001164,audio/quiz/Q3_Prompt.wav,NA,1,NA,NA,NA,NA,NA,NA,NA,NA,NA,NA,NA,NA,NA,NA,NA,NA,NA,NA,sub49
audio-keyboard-response,133,677262,0.0-74.0,TRUE,TRUE,FALSE,TRUE,"""event"",""trial"",""time""
""fullscreenenter"",""5"",""18862""
""blur"",""32"",""204149""
""focus"",""32"",""206625""
","""event"",""trial"",""time""
""blur"",""32"",""204149""
","""event"",""trial"",""time""
""focus"",""32"",""206625""
","""event"",""trial"",""time""
""fullscreenenter"",""5"",""18862""
","
",null,audio/quiz/Q3_Correct.wav,null,NA,NA,NA,NA,NA,NA,NA,NA,NA,NA,NA,NA,NA,NA,NA,NA,NA,NA,NA,sub49
d3-instructions,134,691823,0.0-75.0,TRUE,TRUE,FALSE,TRUE,"""event"",""trial"",""time""
""fullscreenenter"",""5"",""18862""
""blur"",""32"",""204149""
""focus"",""32"",""206625""
","""event"",""trial"",""time""
""blur"",""32"",""204149""
","""event"",""trial"",""time""
""focus"",""32"",""206625""
","""event"",""trial"",""time""
""fullscreenenter"",""5"",""18862""
","
",NA,NA,NA,NA,NA,NA,NA,NA,NA,NA,NA,NA,NA,NA,NA,NA,NA,NA,NA,NA,NA,NA,sub49
d3-animate-choice,135,694747,0.0-76.0-0.0,TRUE,TRUE,FALSE,TRUE,"""event"",""trial"",""time""
""fullscreenenter"",""5"",""18862""
""blur"",""32"",""204149""
""focus"",""32"",""206625""
","""event"",""trial"",""time""
""blur"",""32"",""204149""
","""event"",""trial"",""time""
""focus"",""32"",""206625""
","""event"",""trial"",""time""
""fullscreenenter"",""5"",""18862""
","
",921,NA,49,NA,NA,3000,1,NA,NA,images/earth.jpg,images/rocket2,images/rocket1,null,images/rocket1,NA,1,real,null,1,NA,NA,NA,sub49
d3-animate-choice,136,697698,0.0-76.0-1.0,TRUE,TRUE,FALSE,TRUE,"""event"",""trial"",""time""
""fullscreenenter"",""5"",""18862""
""blur"",""32"",""204149""
""focus"",""32"",""206625""
","""event"",""trial"",""time""
""blur"",""32"",""204149""
","""event"",""trial"",""time""
""focus"",""32"",""206625""
","""event"",""trial"",""time""
""fullscreenenter"",""5"",""18862""
","
",948,NA,49,NA,NA,3000,1,NA,NA,images/redplanet1.jpg,images/alien2,images/alien1,images/rocket1,images/alien1,images/nothing.png,2,real,true,1,common,0,2020-06-23T17:32:57Z,sub49
two-step-fixation,137,698700,0.0-76.0-2.0,TRUE,TRUE,FALSE,TRUE,"""event"",""trial"",""time""
""fullscreenenter"",""5"",""18862""
""blur"",""32"",""204149""
""focus"",""32"",""206625""
","""event"",""trial"",""time""
""blur"",""32"",""204149""
","""event"",""trial"",""time""
""focus"",""32"",""206625""
","""event"",""trial"",""time""
""fullscreenenter"",""5"",""18862""
","
",NA,images/earth.jpg,NA,NA,NA,NA,NA,NA,NA,NA,NA,NA,NA,NA,NA,fixation,NA,NA,NA,NA,NA,NA,sub49
d3-animate-choice,138,701331,0.0-76.0-0.1,TRUE,TRUE,FALSE,TRUE,"""event"",""trial"",""time""
""fullscreenenter"",""5"",""18862""
""blur"",""32"",""204149""
""focus"",""32"",""206625""
","""event"",""trial"",""time""
""blur"",""32"",""204149""
","""event"",""trial"",""time""
""focus"",""32"",""206625""
","""event"",""trial"",""time""
""fullscreenenter"",""5"",""18862""
","
",628,NA,49,NA,NA,3000,1,NA,NA,images/earth.jpg,images/rocket2,images/rocket1,null,images/rocket1,NA,1,real,null,1,NA,NA,NA,sub49
d3-animate-choice,139,703716,0.0-76.0-1.1,TRUE,TRUE,FALSE,TRUE,"""event"",""trial"",""time""
""fullscreenenter"",""5"",""18862""
""blur"",""32"",""204149""
""focus"",""32"",""206625""
","""event"",""trial"",""time""
""blur"",""32"",""204149""
","""event"",""trial"",""time""
""focus"",""32"",""206625""
","""event"",""trial"",""time""
""fullscreenenter"",""5"",""18862""
","
",382.0000000001164,NA,49,NA,NA,3000,1,NA,NA,images/purpleplanet.jpg,images/alien4,images/alien3,images/rocket1,images/alien3,images/t.png,2,real,false,1,rare,1,2020-06-23T17:33:03Z,sub49
two-step-fixation,140,704718,0.0-76.0-2.1,TRUE,TRUE,FALSE,TRUE,"""event"",""trial"",""time""
""fullscreenenter"",""5"",""18862""
""blur"",""32"",""204149""
""focus"",""32"",""206625""
","""event"",""trial"",""time""
""blur"",""32"",""204149""
","""event"",""trial"",""time""
""focus"",""32"",""206625""
","""event"",""trial"",""time""
""fullscreenenter"",""5"",""18862""
","
",NA,images/earth.jpg,NA,NA,NA,NA,NA,NA,NA,NA,NA,NA,NA,NA,NA,fixation,NA,NA,NA,NA,NA,NA,sub49
d3-animate-choice,141,707763,0.0-76.0-0.2,TRUE,TRUE,FALSE,TRUE,"""event"",""trial"",""time""
""fullscreenenter"",""5"",""18862""
""blur"",""32"",""204149""
""focus"",""32"",""206625""
","""event"",""trial"",""time""
""blur"",""32"",""204149""
","""event"",""trial"",""time""
""focus"",""32"",""206625""
","""event"",""trial"",""time""
""fullscreenenter"",""5"",""18862""
","
",1043,NA,48,NA,NA,3000,1,NA,NA,images/earth.jpg,images/rocket2,images/rocket1,null,images/rocket2,NA,1,real,null,2,NA,NA,NA,sub49
d3-animate-choice,142,710368,0.0-76.0-1.2,TRUE,TRUE,FALSE,TRUE,"""event"",""trial"",""time""
""fullscreenenter"",""5"",""18862""
""blur"",""32"",""204149""
""focus"",""32"",""206625""
","""event"",""trial"",""time""
""blur"",""32"",""204149""
","""event"",""trial"",""time""
""focus"",""32"",""206625""
","""event"",""trial"",""time""
""fullscreenenter"",""5"",""18862""
","
",602,NA,49,NA,NA,3000,1,NA,NA,images/purpleplanet.jpg,images/alien4,images/alien3,images/rocket2,images/alien3,images/nothing.png,2,real,true,1,common,0,2020-06-23T17:33:10Z,sub49
two-step-fixation,143,711371,0.0-76.0-2.2,TRUE,TRUE,FALSE,TRUE,"""event"",""trial"",""time""
""fullscreenenter"",""5"",""18862""
""blur"",""32"",""204149""
""focus"",""32"",""206625""
","""event"",""trial"",""time""
""blur"",""32"",""204149""
","""event"",""trial"",""time""
""focus"",""32"",""206625""
","""event"",""trial"",""time""
""fullscreenenter"",""5"",""18862""
","
",NA,images/earth.jpg,NA,NA,NA,NA,NA,NA,NA,NA,NA,NA,NA,NA,NA,fixation,NA,NA,NA,NA,NA,NA,sub49
d3-animate-choice,144,713741,0.0-76.0-0.3,TRUE,TRUE,FALSE,TRUE,"""event"",""trial"",""time""
""fullscreenenter"",""5"",""18862""
""blur"",""32"",""204149""
""focus"",""32"",""206625""
","""event"",""trial"",""time""
""blur"",""32"",""204149""
","""event"",""trial"",""time""
""focus"",""32"",""206625""
","""event"",""trial"",""time""
""fullscreenenter"",""5"",""18862""
","
",367,NA,48,NA,NA,3000,1,NA,NA,images/earth.jpg,images/rocket2,images/rocket1,null,images/rocket2,NA,1,real,null,2,NA,NA,NA,sub49
d3-animate-choice,145,717001,0.0-76.0-1.3,TRUE,TRUE,FALSE,TRUE,"""event"",""trial"",""time""
""fullscreenenter"",""5"",""18862""
""blur"",""32"",""204149""
""focus"",""32"",""206625""
","""event"",""trial"",""time""
""blur"",""32"",""204149""
","""event"",""trial"",""time""
""focus"",""32"",""206625""
","""event"",""trial"",""time""
""fullscreenenter"",""5"",""18862""
","
",1258,NA,49,NA,NA,3000,1,NA,NA,images/redplanet1.jpg,images/alien2,images/alien1,images/rocket2,images/alien1,images/nothing.png,2,real,false,1,rare,0,2020-06-23T17:33:17Z,sub49
two-step-fixation,146,718003,0.0-76.0-2.3,TRUE,TRUE,FALSE,TRUE,"""event"",""trial"",""time""
""fullscreenenter"",""5"",""18862""
""blur"",""32"",""204149""
""focus"",""32"",""206625""
","""event"",""trial"",""time""
""blur"",""32"",""204149""
","""event"",""trial"",""time""
""focus"",""32"",""206625""
","""event"",""trial"",""time""
""fullscreenenter"",""5"",""18862""
","
",NA,images/earth.jpg,NA,NA,NA,NA,NA,NA,NA,NA,NA,NA,NA,NA,NA,fixation,NA,NA,NA,NA,NA,NA,sub49
d3-animate-choice,147,720734,0.0-76.0-0.4,TRUE,TRUE,FALSE,TRUE,"""event"",""trial"",""time""
""fullscreenenter"",""5"",""18862""
""blur"",""32"",""204149""
""focus"",""32"",""206625""
","""event"",""trial"",""time""
""blur"",""32"",""204149""
","""event"",""trial"",""time""
""focus"",""32"",""206625""
","""event"",""trial"",""time""
""fullscreenenter"",""5"",""18862""
","
",728,NA,49,NA,NA,3000,1,NA,NA,images/earth.jpg,images/rocket2,images/rocket1,null,images/rocket1,NA,1,real,null,1,NA,NA,NA,sub49
d3-animate-choice,148,723293,0.0-76.0-1.4,TRUE,TRUE,FALSE,TRUE,"""event"",""trial"",""time""
""fullscreenenter"",""5"",""18862""
""blur"",""32"",""204149""
""focus"",""32"",""206625""
","""event"",""trial"",""time""
""blur"",""32"",""204149""
","""event"",""trial"",""time""
""focus"",""32"",""206625""
","""event"",""trial"",""time""
""fullscreenenter"",""5"",""18862""
","
",556.0000000001164,NA,48,NA,NA,3000,1,NA,NA,images/redplanet1.jpg,images/alien2,images/alien1,images/rocket1,images/alien2,images/nothing.png,2,real,true,2,common,0,2020-06-23T17:33:23Z,sub49
two-step-fixation,149,724296,0.0-76.0-2.4,TRUE,TRUE,FALSE,TRUE,"""event"",""trial"",""time""
""fullscreenenter"",""5"",""18862""
""blur"",""32"",""204149""
""focus"",""32"",""206625""
","""event"",""trial"",""time""
""blur"",""32"",""204149""
","""event"",""trial"",""time""
""focus"",""32"",""206625""
","""event"",""trial"",""time""
""fullscreenenter"",""5"",""18862""
","
",NA,images/earth.jpg,NA,NA,NA,NA,NA,NA,NA,NA,NA,NA,NA,NA,NA,fixation,NA,NA,NA,NA,NA,NA,sub49
d3-animate-choice,150,726434,0.0-76.0-0.5,TRUE,TRUE,FALSE,TRUE,"""event"",""trial"",""time""
""fullscreenenter"",""5"",""18862""
""blur"",""32"",""204149""
""focus"",""32"",""206625""
","""event"",""trial"",""time""
""blur"",""32"",""204149""
","""event"",""trial"",""time""
""focus"",""32"",""206625""
","""event"",""trial"",""time""
""fullscreenenter"",""5"",""18862""
","
",135.99999999988358,NA,49,NA,NA,3000,1,NA,NA,images/earth.jpg,images/rocket2,images/rocket1,null,images/rocket1,NA,1,real,null,1,NA,NA,NA,sub49
d3-animate-choice,151,728873,0.0-76.0-1.5,TRUE,TRUE,FALSE,TRUE,"""event"",""trial"",""time""
""fullscreenenter"",""5"",""18862""
""blur"",""32"",""204149""
""focus"",""32"",""206625""
","""event"",""trial"",""time""
""blur"",""32"",""204149""
","""event"",""trial"",""time""
""focus"",""32"",""206625""
","""event"",""trial"",""time""
""fullscreenenter"",""5"",""18862""
","
",436,NA,48,NA,NA,3000,1,NA,NA,images/purpleplanet.jpg,images/alien4,images/alien3,images/rocket1,images/alien4,images/t.png,2,real,false,2,rare,1,2020-06-23T17:33:29Z,sub49
two-step-fixation,152,729875,0.0-76.0-2.5,TRUE,TRUE,FALSE,TRUE,"""event"",""trial"",""time""
""fullscreenenter"",""5"",""18862""
""blur"",""32"",""204149""
""focus"",""32"",""206625""
","""event"",""trial"",""time""
""blur"",""32"",""204149""
","""event"",""trial"",""time""
""focus"",""32"",""206625""
","""event"",""trial"",""time""
""fullscreenenter"",""5"",""18862""
","
",NA,images/earth.jpg,NA,NA,NA,NA,NA,NA,NA,NA,NA,NA,NA,NA,NA,fixation,NA,NA,NA,NA,NA,NA,sub49
d3-animate-choice,153,732468,0.0-76.0-0.6,TRUE,TRUE,FALSE,TRUE,"""event"",""trial"",""time""
""fullscreenenter"",""5"",""18862""
""blur"",""32"",""204149""
""focus"",""32"",""206625""
","""event"",""trial"",""time""
""blur"",""32"",""204149""
","""event"",""trial"",""time""
""focus"",""32"",""206625""
","""event"",""trial"",""time""
""fullscreenenter"",""5"",""18862""
","
",590,NA,49,NA,NA,3000,1,NA,NA,images/earth.jpg,images/rocket2,images/rocket1,null,images/rocket1,NA,1,real,null,1,NA,NA,NA,sub49
d3-animate-choice,154,735156,0.0-76.0-1.6,TRUE,TRUE,FALSE,TRUE,"""event"",""trial"",""time""
""fullscreenenter"",""5"",""18862""
""blur"",""32"",""204149""
""focus"",""32"",""206625""
","""event"",""trial"",""time""
""blur"",""32"",""204149""
","""event"",""trial"",""time""
""focus"",""32"",""206625""
","""event"",""trial"",""time""
""fullscreenenter"",""5"",""18862""
","
",683.9999999998836,NA,48,NA,NA,3000,1,NA,NA,images/redplanet1.jpg,images/alien2,images/alien1,images/rocket1,images/alien2,images/t.png,2,real,true,2,common,1,2020-06-23T17:33:35Z,sub49
two-step-fixation,155,736159,0.0-76.0-2.6,TRUE,TRUE,FALSE,TRUE,"""event"",""trial"",""time""
""fullscreenenter"",""5"",""18862""
""blur"",""32"",""204149""
""focus"",""32"",""206625""
","""event"",""trial"",""time""
""blur"",""32"",""204149""
","""event"",""trial"",""time""
""focus"",""32"",""206625""
","""event"",""trial"",""time""
""fullscreenenter"",""5"",""18862""
","
",NA,images/earth.jpg,NA,NA,NA,NA,NA,NA,NA,NA,NA,NA,NA,NA,NA,fixation,NA,NA,NA,NA,NA,NA,sub49
d3-animate-choice,156,739276,0.0-76.0-0.7,TRUE,TRUE,FALSE,TRUE,"""event"",""trial"",""time""
""fullscreenenter"",""5"",""18862""
""blur"",""32"",""204149""
""focus"",""32"",""206625""
","""event"",""trial"",""time""
""blur"",""32"",""204149""
","""event"",""trial"",""time""
""focus"",""32"",""206625""
","""event"",""trial"",""time""
""fullscreenenter"",""5"",""18862""
","
",1115,NA,49,NA,NA,3000,1,NA,NA,images/earth.jpg,images/rocket2,images/rocket1,null,images/rocket1,NA,1,real,null,1,NA,NA,NA,sub49
d3-animate-choice,157,741990,0.0-76.0-1.7,TRUE,TRUE,FALSE,TRUE,"""event"",""trial"",""time""
""fullscreenenter"",""5"",""18862""
""blur"",""32"",""204149""
""focus"",""32"",""206625""
","""event"",""trial"",""time""
""blur"",""32"",""204149""
","""event"",""trial"",""time""
""focus"",""32"",""206625""
","""event"",""trial"",""time""
""fullscreenenter"",""5"",""18862""
","
",712.0000000001164,NA,48,NA,NA,3000,1,NA,NA,images/purpleplanet.jpg,images/alien4,images/alien3,images/rocket1,images/alien4,images/nothing.png,2,real,false,2,rare,0,2020-06-23T17:33:42Z,sub49
two-step-fixation,158,742992,0.0-76.0-2.7,TRUE,TRUE,FALSE,TRUE,"""event"",""trial"",""time""
""fullscreenenter"",""5"",""18862""
""blur"",""32"",""204149""
""focus"",""32"",""206625""
","""event"",""trial"",""time""
""blur"",""32"",""204149""
","""event"",""trial"",""time""
""focus"",""32"",""206625""
","""event"",""trial"",""time""
""fullscreenenter"",""5"",""18862""
","
",NA,images/earth.jpg,NA,NA,NA,NA,NA,NA,NA,NA,NA,NA,NA,NA,NA,fixation,NA,NA,NA,NA,NA,NA,sub49
d3-animate-choice,159,745620,0.0-76.0-0.8,TRUE,TRUE,FALSE,TRUE,"""event"",""trial"",""time""
""fullscreenenter"",""5"",""18862""
""blur"",""32"",""204149""
""focus"",""32"",""206625""
","""event"",""trial"",""time""
""blur"",""32"",""204149""
","""event"",""trial"",""time""
""focus"",""32"",""206625""
","""event"",""trial"",""time""
""fullscreenenter"",""5"",""18862""
","
",625,NA,49,NA,NA,3000,1,NA,NA,images/earth.jpg,images/rocket2,images/rocket1,null,images/rocket1,NA,1,real,null,1,NA,NA,NA,sub49
d3-animate-choice,160,748172,0.0-76.0-1.8,TRUE,TRUE,FALSE,TRUE,"""event"",""trial"",""time""
""fullscreenenter"",""5"",""18862""
""blur"",""32"",""204149""
""focus"",""32"",""206625""
","""event"",""trial"",""time""
""blur"",""32"",""204149""
","""event"",""trial"",""time""
""focus"",""32"",""206625""
","""event"",""trial"",""time""
""fullscreenenter"",""5"",""18862""
","
",549,NA,48,NA,NA,3000,1,NA,NA,images/redplanet1.jpg,images/alien2,images/alien1,images/rocket1,images/alien2,images/nothing.png,2,real,true,2,common,0,2020-06-23T17:33:48Z,sub49
two-step-fixation,161,749174,0.0-76.0-2.8,TRUE,TRUE,FALSE,TRUE,"""event"",""trial"",""time""
""fullscreenenter"",""5"",""18862""
""blur"",""32"",""204149""
""focus"",""32"",""206625""
","""event"",""trial"",""time""
""blur"",""32"",""204149""
","""event"",""trial"",""time""
""focus"",""32"",""206625""
","""event"",""trial"",""time""
""fullscreenenter"",""5"",""18862""
","
",NA,images/earth.jpg,NA,NA,NA,NA,NA,NA,NA,NA,NA,NA,NA,NA,NA,fixation,NA,NA,NA,NA,NA,NA,sub49
d3-animate-choice,162,751484,0.0-76.0-0.9,TRUE,TRUE,FALSE,TRUE,"""event"",""trial"",""time""
""fullscreenenter"",""5"",""18862""
""blur"",""32"",""204149""
""focus"",""32"",""206625""
","""event"",""trial"",""time""
""blur"",""32"",""204149""
","""event"",""trial"",""time""
""focus"",""32"",""206625""
","""event"",""trial"",""time""
""fullscreenenter"",""5"",""18862""
","
",308,NA,48,NA,NA,3000,1,NA,NA,images/earth.jpg,images/rocket2,images/rocket1,null,images/rocket2,NA,1,real,null,2,NA,NA,NA,sub49
d3-animate-choice,163,753919,0.0-76.0-1.9,TRUE,TRUE,FALSE,TRUE,"""event"",""trial"",""time""
""fullscreenenter"",""5"",""18862""
""blur"",""32"",""204149""
""focus"",""32"",""206625""
","""event"",""trial"",""time""
""blur"",""32"",""204149""
","""event"",""trial"",""time""
""focus"",""32"",""206625""
","""event"",""trial"",""time""
""fullscreenenter"",""5"",""18862""
","
",432.0000000001164,NA,49,NA,NA,3000,1,NA,NA,images/purpleplanet.jpg,images/alien4,images/alien3,images/rocket2,images/alien3,images/t.png,2,real,true,1,common,1,2020-06-23T17:33:54Z,sub49
two-step-fixation,164,754921,0.0-76.0-2.9,TRUE,TRUE,FALSE,TRUE,"""event"",""trial"",""time""
""fullscreenenter"",""5"",""18862""
""blur"",""32"",""204149""
""focus"",""32"",""206625""
","""event"",""trial"",""time""
""blur"",""32"",""204149""
","""event"",""trial"",""time""
""focus"",""32"",""206625""
","""event"",""trial"",""time""
""fullscreenenter"",""5"",""18862""
","
",NA,images/earth.jpg,NA,NA,NA,NA,NA,NA,NA,NA,NA,NA,NA,NA,NA,fixation,NA,NA,NA,NA,NA,NA,sub49
d3-animate-choice,165,757421,0.0-76.0-0.10,TRUE,TRUE,FALSE,TRUE,"""event"",""trial"",""time""
""fullscreenenter"",""5"",""18862""
""blur"",""32"",""204149""
""focus"",""32"",""206625""
","""event"",""trial"",""time""
""blur"",""32"",""204149""
","""event"",""trial"",""time""
""focus"",""32"",""206625""
","""event"",""trial"",""time""
""fullscreenenter"",""5"",""18862""
","
",497.9999999998836,NA,48,NA,NA,3000,1,NA,NA,images/earth.jpg,images/rocket2,images/rocket1,null,images/rocket2,NA,1,real,null,2,NA,NA,NA,sub49
d3-animate-choice,166,760057,0.0-76.0-1.10,TRUE,TRUE,FALSE,TRUE,"""event"",""trial"",""time""
""fullscreenenter"",""5"",""18862""
""blur"",""32"",""204149""
""focus"",""32"",""206625""
","""event"",""trial"",""time""
""blur"",""32"",""204149""
","""event"",""trial"",""time""
""focus"",""32"",""206625""
","""event"",""trial"",""time""
""fullscreenenter"",""5"",""18862""
","
",632.9999999998836,NA,49,NA,NA,3000,1,NA,NA,images/redplanet1.jpg,images/alien2,images/alien1,images/rocket2,images/alien1,images/t.png,2,real,false,1,rare,1,2020-06-23T17:34:00Z,sub49
two-step-fixation,167,761060,0.0-76.0-2.10,TRUE,TRUE,FALSE,TRUE,"""event"",""trial"",""time""
""fullscreenenter"",""5"",""18862""
""blur"",""32"",""204149""
""focus"",""32"",""206625""
","""event"",""trial"",""time""
""blur"",""32"",""204149""
","""event"",""trial"",""time""
""focus"",""32"",""206625""
","""event"",""trial"",""time""
""fullscreenenter"",""5"",""18862""
","
",NA,images/earth.jpg,NA,NA,NA,NA,NA,NA,NA,NA,NA,NA,NA,NA,NA,fixation,NA,NA,NA,NA,NA,NA,sub49
d3-animate-choice,168,763492,0.0-76.0-0.11,TRUE,TRUE,FALSE,TRUE,"""event"",""trial"",""time""
""fullscreenenter"",""5"",""18862""
""blur"",""32"",""204149""
""focus"",""32"",""206625""
","""event"",""trial"",""time""
""blur"",""32"",""204149""
","""event"",""trial"",""time""
""focus"",""32"",""206625""
","""event"",""trial"",""time""
""fullscreenenter"",""5"",""18862""
","
",428.9999999998836,NA,48,NA,NA,3000,1,NA,NA,images/earth.jpg,images/rocket2,images/rocket1,null,images/rocket2,NA,1,real,null,2,NA,NA,NA,sub49
d3-animate-choice,169,765999,0.0-76.0-1.11,TRUE,TRUE,FALSE,TRUE,"""event"",""trial"",""time""
""fullscreenenter"",""5"",""18862""
""blur"",""32"",""204149""
""focus"",""32"",""206625""
","""event"",""trial"",""time""
""blur"",""32"",""204149""
","""event"",""trial"",""time""
""focus"",""32"",""206625""
","""event"",""trial"",""time""
""fullscreenenter"",""5"",""18862""
","
",504,NA,49,NA,NA,3000,1,NA,NA,images/purpleplanet.jpg,images/alien4,images/alien3,images/rocket2,images/alien3,images/nothing.png,2,real,true,1,common,0,2020-06-23T17:34:06Z,sub49
two-step-fixation,170,767001,0.0-76.0-2.11,TRUE,TRUE,FALSE,TRUE,"""event"",""trial"",""time""
""fullscreenenter"",""5"",""18862""
""blur"",""32"",""204149""
""focus"",""32"",""206625""
","""event"",""trial"",""time""
""blur"",""32"",""204149""
","""event"",""trial"",""time""
""focus"",""32"",""206625""
","""event"",""trial"",""time""
""fullscreenenter"",""5"",""18862""
","
",NA,images/earth.jpg,NA,NA,NA,NA,NA,NA,NA,NA,NA,NA,NA,NA,NA,fixation,NA,NA,NA,NA,NA,NA,sub49
d3-animate-choice,171,769410,0.0-76.0-0.12,TRUE,TRUE,FALSE,TRUE,"""event"",""trial"",""time""
""fullscreenenter"",""5"",""18862""
""blur"",""32"",""204149""
""focus"",""32"",""206625""
","""event"",""trial"",""time""
""blur"",""32"",""204149""
","""event"",""trial"",""time""
""focus"",""32"",""206625""
","""event"",""trial"",""time""
""fullscreenenter"",""5"",""18862""
","
",405,NA,49,NA,NA,3000,1,NA,NA,images/earth.jpg,images/rocket2,images/rocket1,null,images/rocket1,NA,1,real,null,1,NA,NA,NA,sub49
d3-animate-choice,172,772051,0.0-76.0-1.12,TRUE,TRUE,FALSE,TRUE,"""event"",""trial"",""time""
""fullscreenenter"",""5"",""18862""
""blur"",""32"",""204149""
""focus"",""32"",""206625""
","""event"",""trial"",""time""
""blur"",""32"",""204149""
","""event"",""trial"",""time""
""focus"",""32"",""206625""
","""event"",""trial"",""time""
""fullscreenenter"",""5"",""18862""
","
",638,NA,49,NA,NA,3000,1,NA,NA,images/redplanet1.jpg,images/alien2,images/alien1,images/rocket1,images/alien1,images/t.png,2,real,true,1,common,1,2020-06-23T17:34:12Z,sub49
two-step-fixation,173,773053,0.0-76.0-2.12,TRUE,TRUE,FALSE,TRUE,"""event"",""trial"",""time""
""fullscreenenter"",""5"",""18862""
""blur"",""32"",""204149""
""focus"",""32"",""206625""
","""event"",""trial"",""time""
""blur"",""32"",""204149""
","""event"",""trial"",""time""
""focus"",""32"",""206625""
","""event"",""trial"",""time""
""fullscreenenter"",""5"",""18862""
","
",NA,images/earth.jpg,NA,NA,NA,NA,NA,NA,NA,NA,NA,NA,NA,NA,NA,fixation,NA,NA,NA,NA,NA,NA,sub49
d3-animate-choice,174,775456,0.0-76.0-0.13,TRUE,TRUE,FALSE,TRUE,"""event"",""trial"",""time""
""fullscreenenter"",""5"",""18862""
""blur"",""32"",""204149""
""focus"",""32"",""206625""
","""event"",""trial"",""time""
""blur"",""32"",""204149""
","""event"",""trial"",""time""
""focus"",""32"",""206625""
","""event"",""trial"",""time""
""fullscreenenter"",""5"",""18862""
","
",400,NA,49,NA,NA,3000,1,NA,NA,images/earth.jpg,images/rocket2,images/rocket1,null,images/rocket1,NA,1,real,null,1,NA,NA,NA,sub49
d3-animate-choice,175,777975,0.0-76.0-1.13,TRUE,TRUE,FALSE,TRUE,"""event"",""trial"",""time""
""fullscreenenter"",""5"",""18862""
""blur"",""32"",""204149""
""focus"",""32"",""206625""
","""event"",""trial"",""time""
""blur"",""32"",""204149""
","""event"",""trial"",""time""
""focus"",""32"",""206625""
","""event"",""trial"",""time""
""fullscreenenter"",""5"",""18862""
","
",516,NA,49,NA,NA,3000,1,NA,NA,images/redplanet1.jpg,images/alien2,images/alien1,images/rocket1,images/alien1,images/t.png,2,real,true,1,common,1,2020-06-23T17:34:18Z,sub49
two-step-fixation,176,778978,0.0-76.0-2.13,TRUE,TRUE,FALSE,TRUE,"""event"",""trial"",""time""
""fullscreenenter"",""5"",""18862""
""blur"",""32"",""204149""
""focus"",""32"",""206625""
","""event"",""trial"",""time""
""blur"",""32"",""204149""
","""event"",""trial"",""time""
""focus"",""32"",""206625""
","""event"",""trial"",""time""
""fullscreenenter"",""5"",""18862""
","
",NA,images/earth.jpg,NA,NA,NA,NA,NA,NA,NA,NA,NA,NA,NA,NA,NA,fixation,NA,NA,NA,NA,NA,NA,sub49
d3-animate-choice,177,781497,0.0-76.0-0.14,TRUE,TRUE,FALSE,TRUE,"""event"",""trial"",""time""
""fullscreenenter"",""5"",""18862""
""blur"",""32"",""204149""
""focus"",""32"",""206625""
","""event"",""trial"",""time""
""blur"",""32"",""204149""
","""event"",""trial"",""time""
""focus"",""32"",""206625""
","""event"",""trial"",""time""
""fullscreenenter"",""5"",""18862""
","
",516.0000000001164,NA,49,NA,NA,3000,1,NA,NA,images/earth.jpg,images/rocket2,images/rocket1,null,images/rocket1,NA,1,real,null,1,NA,NA,NA,sub49
d3-animate-choice,178,785288,0.0-76.0-1.14,TRUE,TRUE,FALSE,TRUE,"""event"",""trial"",""time""
""fullscreenenter"",""5"",""18862""
""blur"",""32"",""204149""
""focus"",""32"",""206625""
","""event"",""trial"",""time""
""blur"",""32"",""204149""
","""event"",""trial"",""time""
""focus"",""32"",""206625""
","""event"",""trial"",""time""
""fullscreenenter"",""5"",""18862""
","
",1788,NA,48,NA,NA,3000,1,NA,NA,images/purpleplanet.jpg,images/alien4,images/alien3,images/rocket1,images/alien4,images/nothing.png,2,real,false,2,rare,0,2020-06-23T17:34:25Z,sub49
two-step-fixation,179,786289,0.0-76.0-2.14,TRUE,TRUE,FALSE,TRUE,"""event"",""trial"",""time""
""fullscreenenter"",""5"",""18862""
""blur"",""32"",""204149""
""focus"",""32"",""206625""
","""event"",""trial"",""time""
""blur"",""32"",""204149""
","""event"",""trial"",""time""
""focus"",""32"",""206625""
","""event"",""trial"",""time""
""fullscreenenter"",""5"",""18862""
","
",NA,images/earth.jpg,NA,NA,NA,NA,NA,NA,NA,NA,NA,NA,NA,NA,NA,fixation,NA,NA,NA,NA,NA,NA,sub49
d3-animate-choice,180,788884,0.0-76.0-0.15,TRUE,TRUE,FALSE,TRUE,"""event"",""trial"",""time""
""fullscreenenter"",""5"",""18862""
""blur"",""32"",""204149""
""focus"",""32"",""206625""
","""event"",""trial"",""time""
""blur"",""32"",""204149""
","""event"",""trial"",""time""
""focus"",""32"",""206625""
","""event"",""trial"",""time""
""fullscreenenter"",""5"",""18862""
","
",593,NA,49,NA,NA,3000,1,NA,NA,images/earth.jpg,images/rocket2,images/rocket1,null,images/rocket1,NA,1,real,null,1,NA,NA,NA,sub49
d3-animate-choice,181,791441,0.0-76.0-1.15,TRUE,TRUE,FALSE,TRUE,"""event"",""trial"",""time""
""fullscreenenter"",""5"",""18862""
""blur"",""32"",""204149""
""focus"",""32"",""206625""
","""event"",""trial"",""time""
""blur"",""32"",""204149""
","""event"",""trial"",""time""
""focus"",""32"",""206625""
","""event"",""trial"",""time""
""fullscreenenter"",""5"",""18862""
","
",555,NA,49,NA,NA,3000,1,NA,NA,images/redplanet1.jpg,images/alien2,images/alien1,images/rocket1,images/alien1,images/nothing.png,2,real,true,1,common,0,2020-06-23T17:34:31Z,sub49
two-step-fixation,182,792443,0.0-76.0-2.15,TRUE,TRUE,FALSE,TRUE,"""event"",""trial"",""time""
""fullscreenenter"",""5"",""18862""
""blur"",""32"",""204149""
""focus"",""32"",""206625""
","""event"",""trial"",""time""
""blur"",""32"",""204149""
","""event"",""trial"",""time""
""focus"",""32"",""206625""
","""event"",""trial"",""time""
""fullscreenenter"",""5"",""18862""
","
",NA,images/earth.jpg,NA,NA,NA,NA,NA,NA,NA,NA,NA,NA,NA,NA,NA,fixation,NA,NA,NA,NA,NA,NA,sub49
d3-animate-choice,183,794835,0.0-76.0-0.16,TRUE,TRUE,FALSE,TRUE,"""event"",""trial"",""time""
""fullscreenenter"",""5"",""18862""
""blur"",""32"",""204149""
""focus"",""32"",""206625""
","""event"",""trial"",""time""
""blur"",""32"",""204149""
","""event"",""trial"",""time""
""focus"",""32"",""206625""
","""event"",""trial"",""time""
""fullscreenenter"",""5"",""18862""
","
",391,NA,49,NA,NA,3000,1,NA,NA,images/earth.jpg,images/rocket2,images/rocket1,null,images/rocket1,NA,1,real,null,1,NA,NA,NA,sub49
d3-animate-choice,184,797335,0.0-76.0-1.16,TRUE,TRUE,FALSE,TRUE,"""event"",""trial"",""time""
""fullscreenenter"",""5"",""18862""
""blur"",""32"",""204149""
""focus"",""32"",""206625""
","""event"",""trial"",""time""
""blur"",""32"",""204149""
","""event"",""trial"",""time""
""focus"",""32"",""206625""
","""event"",""trial"",""time""
""fullscreenenter"",""5"",""18862""
","
",496.9999999998836,NA,49,NA,NA,3000,1,NA,NA,images/redplanet1.jpg,images/alien2,images/alien1,images/rocket1,images/alien1,images/nothing.png,2,real,true,1,common,0,2020-06-23T17:34:37Z,sub49
two-step-fixation,185,798338,0.0-76.0-2.16,TRUE,TRUE,FALSE,TRUE,"""event"",""trial"",""time""
""fullscreenenter"",""5"",""18862""
""blur"",""32"",""204149""
""focus"",""32"",""206625""
","""event"",""trial"",""time""
""blur"",""32"",""204149""
","""event"",""trial"",""time""
""focus"",""32"",""206625""
","""event"",""trial"",""time""
""fullscreenenter"",""5"",""18862""
","
",NA,images/earth.jpg,NA,NA,NA,NA,NA,NA,NA,NA,NA,NA,NA,NA,NA,fixation,NA,NA,NA,NA,NA,NA,sub49
d3-animate-choice,186,800451,0.0-76.0-0.17,TRUE,TRUE,FALSE,TRUE,"""event"",""trial"",""time""
""fullscreenenter"",""5"",""18862""
""blur"",""32"",""204149""
""focus"",""32"",""206625""
","""event"",""trial"",""time""
""blur"",""32"",""204149""
","""event"",""trial"",""time""
""focus"",""32"",""206625""
","""event"",""trial"",""time""
""fullscreenenter"",""5"",""18862""
","
",110,NA,49,NA,NA,3000,1,NA,NA,images/earth.jpg,images/rocket2,images/rocket1,null,images/rocket1,NA,1,real,null,1,NA,NA,NA,sub49
d3-animate-choice,187,802835,0.0-76.0-1.17,TRUE,TRUE,FALSE,TRUE,"""event"",""trial"",""time""
""fullscreenenter"",""5"",""18862""
""blur"",""32"",""204149""
""focus"",""32"",""206625""
","""event"",""trial"",""time""
""blur"",""32"",""204149""
","""event"",""trial"",""time""
""focus"",""32"",""206625""
","""event"",""trial"",""time""
""fullscreenenter"",""5"",""18862""
","
",382,NA,49,NA,NA,3000,1,NA,NA,images/purpleplanet.jpg,images/alien4,images/alien3,images/rocket1,images/alien3,images/t.png,2,real,false,1,rare,1,2020-06-23T17:34:43Z,sub49
two-step-fixation,188,803838,0.0-76.0-2.17,TRUE,TRUE,FALSE,TRUE,"""event"",""trial"",""time""
""fullscreenenter"",""5"",""18862""
""blur"",""32"",""204149""
""focus"",""32"",""206625""
","""event"",""trial"",""time""
""blur"",""32"",""204149""
","""event"",""trial"",""time""
""focus"",""32"",""206625""
","""event"",""trial"",""time""
""fullscreenenter"",""5"",""18862""
","
",NA,images/earth.jpg,NA,NA,NA,NA,NA,NA,NA,NA,NA,NA,NA,NA,NA,fixation,NA,NA,NA,NA,NA,NA,sub49
d3-animate-choice,189,806247,0.0-76.0-0.18,TRUE,TRUE,FALSE,TRUE,"""event"",""trial"",""time""
""fullscreenenter"",""5"",""18862""
""blur"",""32"",""204149""
""focus"",""32"",""206625""
","""event"",""trial"",""time""
""blur"",""32"",""204149""
","""event"",""trial"",""time""
""focus"",""32"",""206625""
","""event"",""trial"",""time""
""fullscreenenter"",""5"",""18862""
","
",407.0000000001164,NA,49,NA,NA,3000,1,NA,NA,images/earth.jpg,images/rocket2,images/rocket1,null,images/rocket1,NA,1,real,null,1,NA,NA,NA,sub49
d3-animate-choice,190,809019,0.0-76.0-1.18,TRUE,TRUE,FALSE,TRUE,"""event"",""trial"",""time""
""fullscreenenter"",""5"",""18862""
""blur"",""32"",""204149""
""focus"",""32"",""206625""
","""event"",""trial"",""time""
""blur"",""32"",""204149""
","""event"",""trial"",""time""
""focus"",""32"",""206625""
","""event"",""trial"",""time""
""fullscreenenter"",""5"",""18862""
","
",769,NA,49,NA,NA,3000,1,NA,NA,images/redplanet1.jpg,images/alien2,images/alien1,images/rocket1,images/alien1,images/t.png,2,real,true,1,common,1,2020-06-23T17:34:49Z,sub49
two-step-fixation,191,810021,0.0-76.0-2.18,TRUE,TRUE,FALSE,TRUE,"""event"",""trial"",""time""
""fullscreenenter"",""5"",""18862""
""blur"",""32"",""204149""
""focus"",""32"",""206625""
","""event"",""trial"",""time""
""blur"",""32"",""204149""
","""event"",""trial"",""time""
""focus"",""32"",""206625""
","""event"",""trial"",""time""
""fullscreenenter"",""5"",""18862""
","
",NA,images/earth.jpg,NA,NA,NA,NA,NA,NA,NA,NA,NA,NA,NA,NA,NA,fixation,NA,NA,NA,NA,NA,NA,sub49
d3-animate-choice,192,812662,0.0-76.0-0.19,TRUE,TRUE,FALSE,TRUE,"""event"",""trial"",""time""
""fullscreenenter"",""5"",""18862""
""blur"",""32"",""204149""
""focus"",""32"",""206625""
","""event"",""trial"",""time""
""blur"",""32"",""204149""
","""event"",""trial"",""time""
""focus"",""32"",""206625""
","""event"",""trial"",""time""
""fullscreenenter"",""5"",""18862""
","
",638,NA,49,NA,NA,3000,1,NA,NA,images/earth.jpg,images/rocket2,images/rocket1,null,images/rocket1,NA,1,real,null,1,NA,NA,NA,sub49
d3-animate-choice,193,815494,0.0-76.0-1.19,TRUE,TRUE,FALSE,TRUE,"""event"",""trial"",""time""
""fullscreenenter"",""5"",""18862""
""blur"",""32"",""204149""
""focus"",""32"",""206625""
","""event"",""trial"",""time""
""blur"",""32"",""204149""
","""event"",""trial"",""time""
""focus"",""32"",""206625""
","""event"",""trial"",""time""
""fullscreenenter"",""5"",""18862""
","
",829,NA,49,NA,NA,3000,1,NA,NA,images/redplanet1.jpg,images/alien2,images/alien1,images/rocket1,images/alien1,images/t.png,2,real,true,1,common,1,2020-06-23T17:34:55Z,sub49
two-step-fixation,194,816496,0.0-76.0-2.19,TRUE,TRUE,FALSE,TRUE,"""event"",""trial"",""time""
""fullscreenenter"",""5"",""18862""
""blur"",""32"",""204149""
""focus"",""32"",""206625""
","""event"",""trial"",""time""
""blur"",""32"",""204149""
","""event"",""trial"",""time""
""focus"",""32"",""206625""
","""event"",""trial"",""time""
""fullscreenenter"",""5"",""18862""
","
",NA,images/earth.jpg,NA,NA,NA,NA,NA,NA,NA,NA,NA,NA,NA,NA,NA,fixation,NA,NA,NA,NA,NA,NA,sub49
d3-animate-choice,195,818897,0.0-76.0-0.20,TRUE,TRUE,FALSE,TRUE,"""event"",""trial"",""time""
""fullscreenenter"",""5"",""18862""
""blur"",""32"",""204149""
""focus"",""32"",""206625""
","""event"",""trial"",""time""
""blur"",""32"",""204149""
","""event"",""trial"",""time""
""focus"",""32"",""206625""
","""event"",""trial"",""time""
""fullscreenenter"",""5"",""18862""
","
",398.0000000001164,NA,49,NA,NA,3000,1,NA,NA,images/earth.jpg,images/rocket2,images/rocket1,null,images/rocket1,NA,1,real,null,1,NA,NA,NA,sub49
d3-animate-choice,196,821439,0.0-76.0-1.20,TRUE,TRUE,FALSE,TRUE,"""event"",""trial"",""time""
""fullscreenenter"",""5"",""18862""
""blur"",""32"",""204149""
""focus"",""32"",""206625""
","""event"",""trial"",""time""
""blur"",""32"",""204149""
","""event"",""trial"",""time""
""focus"",""32"",""206625""
","""event"",""trial"",""time""
""fullscreenenter"",""5"",""18862""
","
",541.0000000001164,NA,49,NA,NA,3000,1,NA,NA,images/redplanet1.jpg,images/alien2,images/alien1,images/rocket1,images/alien1,images/nothing.png,2,real,true,1,common,0,2020-06-23T17:35:01Z,sub49
two-step-fixation,197,822441,0.0-76.0-2.20,TRUE,TRUE,FALSE,TRUE,"""event"",""trial"",""time""
""fullscreenenter"",""5"",""18862""
""blur"",""32"",""204149""
""focus"",""32"",""206625""
","""event"",""trial"",""time""
""blur"",""32"",""204149""
","""event"",""trial"",""time""
""focus"",""32"",""206625""
","""event"",""trial"",""time""
""fullscreenenter"",""5"",""18862""
","
",NA,images/earth.jpg,NA,NA,NA,NA,NA,NA,NA,NA,NA,NA,NA,NA,NA,fixation,NA,NA,NA,NA,NA,NA,sub49
d3-animate-choice,198,825030,0.0-76.0-0.21,TRUE,TRUE,FALSE,TRUE,"""event"",""trial"",""time""
""fullscreenenter"",""5"",""18862""
""blur"",""32"",""204149""
""focus"",""32"",""206625""
","""event"",""trial"",""time""
""blur"",""32"",""204149""
","""event"",""trial"",""time""
""focus"",""32"",""206625""
","""event"",""trial"",""time""
""fullscreenenter"",""5"",""18862""
","
",585,NA,48,NA,NA,3000,1,NA,NA,images/earth.jpg,images/rocket2,images/rocket1,null,images/rocket2,NA,1,real,null,2,NA,NA,NA,sub49
d3-animate-choice,199,828167,0.0-76.0-1.21,TRUE,TRUE,FALSE,TRUE,"""event"",""trial"",""time""
""fullscreenenter"",""5"",""18862""
""blur"",""32"",""204149""
""focus"",""32"",""206625""
","""event"",""trial"",""time""
""blur"",""32"",""204149""
","""event"",""trial"",""time""
""focus"",""32"",""206625""
","""event"",""trial"",""time""
""fullscreenenter"",""5"",""18862""
","
",1135,NA,48,NA,NA,3000,1,NA,NA,images/purpleplanet.jpg,images/alien4,images/alien3,images/rocket2,images/alien4,images/nothing.png,2,real,true,2,common,0,2020-06-23T17:35:08Z,sub49
two-step-fixation,200,829169,0.0-76.0-2.21,TRUE,TRUE,FALSE,TRUE,"""event"",""trial"",""time""
""fullscreenenter"",""5"",""18862""
""blur"",""32"",""204149""
""focus"",""32"",""206625""
","""event"",""trial"",""time""
""blur"",""32"",""204149""
","""event"",""trial"",""time""
""focus"",""32"",""206625""
","""event"",""trial"",""time""
""fullscreenenter"",""5"",""18862""
","
",NA,images/earth.jpg,NA,NA,NA,NA,NA,NA,NA,NA,NA,NA,NA,NA,NA,fixation,NA,NA,NA,NA,NA,NA,sub49
d3-animate-choice,201,831813,0.0-76.0-0.22,TRUE,TRUE,FALSE,TRUE,"""event"",""trial"",""time""
""fullscreenenter"",""5"",""18862""
""blur"",""32"",""204149""
""focus"",""32"",""206625""
","""event"",""trial"",""time""
""blur"",""32"",""204149""
","""event"",""trial"",""time""
""focus"",""32"",""206625""
","""event"",""trial"",""time""
""fullscreenenter"",""5"",""18862""
","
",641,NA,49,NA,NA,3000,1,NA,NA,images/earth.jpg,images/rocket2,images/rocket1,null,images/rocket1,NA,1,real,null,1,NA,NA,NA,sub49
d3-animate-choice,202,834448,0.0-76.0-1.22,TRUE,TRUE,FALSE,TRUE,"""event"",""trial"",""time""
""fullscreenenter"",""5"",""18862""
""blur"",""32"",""204149""
""focus"",""32"",""206625""
","""event"",""trial"",""time""
""blur"",""32"",""204149""
","""event"",""trial"",""time""
""focus"",""32"",""206625""
","""event"",""trial"",""time""
""fullscreenenter"",""5"",""18862""
","
",631,NA,49,NA,NA,3000,1,NA,NA,images/redplanet1.jpg,images/alien2,images/alien1,images/rocket1,images/alien1,images/t.png,2,real,true,1,common,1,2020-06-23T17:35:14Z,sub49
two-step-fixation,203,835450,0.0-76.0-2.22,TRUE,TRUE,FALSE,TRUE,"""event"",""trial"",""time""
""fullscreenenter"",""5"",""18862""
""blur"",""32"",""204149""
""focus"",""32"",""206625""
","""event"",""trial"",""time""
""blur"",""32"",""204149""
","""event"",""trial"",""time""
""focus"",""32"",""206625""
","""event"",""trial"",""time""
""fullscreenenter"",""5"",""18862""
","
",NA,images/earth.jpg,NA,NA,NA,NA,NA,NA,NA,NA,NA,NA,NA,NA,NA,fixation,NA,NA,NA,NA,NA,NA,sub49
d3-animate-choice,204,837832,0.0-76.0-0.23,TRUE,TRUE,FALSE,TRUE,"""event"",""trial"",""time""
""fullscreenenter"",""5"",""18862""
""blur"",""32"",""204149""
""focus"",""32"",""206625""
","""event"",""trial"",""time""
""blur"",""32"",""204149""
","""event"",""trial"",""time""
""focus"",""32"",""206625""
","""event"",""trial"",""time""
""fullscreenenter"",""5"",""18862""
","
",379,NA,49,NA,NA,3000,1,NA,NA,images/earth.jpg,images/rocket2,images/rocket1,null,images/rocket1,NA,1,real,null,1,NA,NA,NA,sub49
d3-animate-choice,205,841598,0.0-76.0-1.23,TRUE,TRUE,FALSE,TRUE,"""event"",""trial"",""time""
""fullscreenenter"",""5"",""18862""
""blur"",""32"",""204149""
