trial_type,trial_index,time_elapsed,internal_node_id,rocket_sides,red_planet_first_rocket,red_display_order,purple_display_order,interactions,blur_events,focus_events,fullscreenenter_events,fullscreenexit_events,rt,stimulus,key_press,button_pressed,success,duration,valid_pressed,rts,keys,planet_text,right_text,left_text,center_text,chosen_text,reward_text,trial_stage,practice_trial,transition_type,choice,transition,reward,timestamp,subject_id
pavlovia,0,5,0.0-0.0,TRUE,FALSE,TRUE,TRUE,"
","
","
","
","
",NA,NA,NA,NA,NA,NA,NA,NA,NA,NA,NA,NA,NA,NA,NA,NA,NA,NA,NA,NA,NA,NA,sub41
html-keyboard-response,1,1865,0.0-1.0,TRUE,FALSE,TRUE,TRUE,"
","
","
","
","
",1858.5999999995693,Welcome! Press the space bar to begin.,32,NA,NA,NA,NA,NA,NA,NA,NA,NA,NA,NA,NA,NA,NA,NA,NA,NA,NA,NA,sub41
audio-keyboard-response,2,5227,0.0-2.0,TRUE,FALSE,TRUE,TRUE,"
","
","
","
","
",3245,audio/beep_loop.wav,32,NA,NA,NA,NA,NA,NA,NA,NA,NA,NA,NA,NA,NA,NA,NA,NA,NA,NA,NA,sub41
audio-button-response,3,8256,0.0-3.0,TRUE,FALSE,TRUE,TRUE,"
","
","
","
","
",NaN,audio/fish.mp3,NA,1,NA,NA,NA,NA,NA,NA,NA,NA,NA,NA,NA,NA,NA,NA,NA,NA,NA,NA,sub41
audio-button-response,4,11437,0.0-4.0,TRUE,FALSE,TRUE,TRUE,"""event"",""trial"",""time""
""fullscreenenter"",""5"",""16529""
","
","
","""event"",""trial"",""time""
""fullscreenenter"",""5"",""16529""
","
",NaN,audio/tiger.mp3,NA,4,NA,NA,NA,NA,NA,NA,NA,NA,NA,NA,NA,NA,NA,NA,NA,NA,NA,NA,sub41
fullscreen,5,17513,0.0-5.0,TRUE,FALSE,TRUE,TRUE,"""event"",""trial"",""time""
""fullscreenenter"",""5"",""16529""
","
","
","""event"",""trial"",""time""
""fullscreenenter"",""5"",""16529""
","
",NA,NA,NA,NA,TRUE,NA,NA,NA,NA,NA,NA,NA,NA,NA,NA,NA,NA,NA,NA,NA,NA,NA,sub41
d3-instructions,6,35949,0.0-6.0,TRUE,FALSE,TRUE,TRUE,"""event"",""trial"",""time""
""fullscreenenter"",""5"",""16529""
","
","
","""event"",""trial"",""time""
""fullscreenenter"",""5"",""16529""
","
",NA,NA,NA,NA,NA,NA,NA,NA,NA,NA,NA,NA,NA,NA,NA,NA,NA,NA,NA,NA,NA,NA,sub41
d3-instructions,7,43224,0.0-7.0,TRUE,FALSE,TRUE,TRUE,"""event"",""trial"",""time""
""fullscreenenter"",""5"",""16529""
","
","
","""event"",""trial"",""time""
""fullscreenenter"",""5"",""16529""
","
",NA,NA,NA,NA,NA,NA,NA,NA,NA,NA,NA,NA,NA,NA,NA,NA,NA,NA,NA,NA,NA,NA,sub41
d3-instructions,8,50455,0.0-8.0,TRUE,FALSE,TRUE,TRUE,"""event"",""trial"",""time""
""fullscreenenter"",""5"",""16529""
","
","
","""event"",""trial"",""time""
""fullscreenenter"",""5"",""16529""
","
",NA,NA,NA,NA,NA,NA,NA,NA,NA,NA,NA,NA,NA,NA,NA,NA,NA,NA,NA,NA,NA,NA,sub41
d3-instructions,9,61087,0.0-9.0,TRUE,FALSE,TRUE,TRUE,"""event"",""trial"",""time""
""fullscreenenter"",""5"",""16529""
","
","
","""event"",""trial"",""time""
""fullscreenenter"",""5"",""16529""
","
",NA,NA,NA,NA,NA,NA,NA,NA,NA,NA,NA,NA,NA,NA,NA,NA,NA,NA,NA,NA,NA,NA,sub41
d3-instructions,10,75595,0.0-10.0,TRUE,FALSE,TRUE,TRUE,"""event"",""trial"",""time""
""fullscreenenter"",""5"",""16529""
","
","
","""event"",""trial"",""time""
""fullscreenenter"",""5"",""16529""
","
",NA,NA,NA,NA,NA,NA,NA,NA,NA,NA,NA,NA,NA,NA,NA,NA,NA,NA,NA,NA,NA,NA,sub41
d3-animate-choice,11,85468,0.0-11.0,TRUE,FALSE,TRUE,TRUE,"""event"",""trial"",""time""
""fullscreenenter"",""5"",""16529""
","
","
","""event"",""trial"",""time""
""fullscreenenter"",""5"",""16529""
","
",4102.29999999865,NA,32,NA,NA,3000,1,7861.719999998968,49,images/tutgreenplanet.jpg,images/tutalien1,images/tutalien2,null,images/tutalien2,NA,NA,practice,null,NA,NA,NA,NA,sub41
d3-animate-choice,12,88876,0.0-12.0,TRUE,FALSE,TRUE,TRUE,"""event"",""trial"",""time""
""fullscreenenter"",""5"",""16529""
","
","
","""event"",""trial"",""time""
""fullscreenenter"",""5"",""16529""
","
",1399.8200000005454,NA,48,NA,NA,3000,1,NA,NA,images/tutgreenplanet.jpg,images/tutalien1,images/tutalien2,null,images/tutalien1,NA,NA,practice,null,NA,NA,NA,NA,sub41
d3-animate-choice,13,92759,0.0-13.0,TRUE,FALSE,TRUE,TRUE,"""event"",""trial"",""time""
""fullscreenenter"",""5"",""16529""
","
","
","""event"",""trial"",""time""
""fullscreenenter"",""5"",""16529""
","
",1878.8750000003347,NA,49,NA,NA,3000,1,NA,NA,images/tutgreenplanet.jpg,images/tutalien1,images/tutalien2,null,images/tutalien2,NA,NA,practice,null,NA,NA,NA,NA,sub41
d3-animate-choice,14,97235,0.0-14.0,TRUE,FALSE,TRUE,TRUE,"""event"",""trial"",""time""
""fullscreenenter"",""5"",""16529""
","
","
","""event"",""trial"",""time""
""fullscreenenter"",""5"",""16529""
","
",2472.279999999955,NA,49,NA,NA,3000,1,NA,NA,images/tutgreenplanet.jpg,images/tutalien1,images/tutalien2,null,images/tutalien2,NA,NA,practice,null,NA,NA,NA,NA,sub41
d3-instructions,15,104632,0.0-15.0,TRUE,FALSE,TRUE,TRUE,"""event"",""trial"",""time""
""fullscreenenter"",""5"",""16529""
","
","
","""event"",""trial"",""time""
""fullscreenenter"",""5"",""16529""
","
",NA,NA,NA,NA,NA,NA,NA,NA,NA,NA,NA,NA,NA,NA,NA,NA,NA,NA,NA,NA,NA,NA,sub41
d3-instructions,16,111141,0.0-16.0,TRUE,FALSE,TRUE,TRUE,"""event"",""trial"",""time""
""fullscreenenter"",""5"",""16529""
","
","
","""event"",""trial"",""time""
""fullscreenenter"",""5"",""16529""
","
",NA,NA,NA,NA,NA,NA,NA,NA,NA,NA,NA,NA,NA,NA,NA,NA,NA,NA,NA,NA,NA,NA,sub41
d3-instructions,17,119250,0.0-17.0,TRUE,FALSE,TRUE,TRUE,"""event"",""trial"",""time""
""fullscreenenter"",""5"",""16529""
","
","
","""event"",""trial"",""time""
""fullscreenenter"",""5"",""16529""
","
",NA,NA,NA,NA,NA,NA,NA,NA,NA,NA,NA,NA,NA,NA,NA,NA,NA,NA,NA,NA,NA,NA,sub41
d3-instructions,18,132913,0.0-18.0,TRUE,FALSE,TRUE,TRUE,"""event"",""trial"",""time""
""fullscreenenter"",""5"",""16529""
","
","
","""event"",""trial"",""time""
""fullscreenenter"",""5"",""16529""
","
",NA,NA,NA,NA,NA,NA,NA,NA,NA,NA,NA,NA,NA,NA,NA,NA,NA,NA,NA,NA,NA,NA,sub41
d3-instructions,19,142215,0.0-19.0,TRUE,FALSE,TRUE,TRUE,"""event"",""trial"",""time""
""fullscreenenter"",""5"",""16529""
","
","
","""event"",""trial"",""time""
""fullscreenenter"",""5"",""16529""
","
",NA,NA,NA,NA,NA,NA,NA,NA,NA,NA,NA,NA,NA,NA,NA,NA,NA,NA,NA,NA,NA,NA,sub41
d3-animate-choice,20,146045,0.0-20.0,TRUE,FALSE,TRUE,TRUE,"""event"",""trial"",""time""
""fullscreenenter"",""5"",""16529""
","
","
","""event"",""trial"",""time""
""fullscreenenter"",""5"",""16529""
","
",1821.234999999433,NA,49,NA,NA,3000,1,NA,NA,images/tutyellowplanet.jpg,null,images/tutalien3,null,images/tutalien3,images/nothing.png,NA,practice,null,NA,NA,NA,NA,sub41
d3-animate-choice,21,148862,0.0-21.0,TRUE,FALSE,TRUE,TRUE,"""event"",""trial"",""time""
""fullscreenenter"",""5"",""16529""
","
","
","""event"",""trial"",""time""
""fullscreenenter"",""5"",""16529""
","
",813.1150000008347,NA,49,NA,NA,3000,1,NA,NA,images/tutyellowplanet.jpg,null,images/tutalien3,null,images/tutalien3,images/t.png,NA,practice,null,NA,NA,NA,NA,sub41
d3-animate-choice,22,151785,0.0-22.0,TRUE,FALSE,TRUE,TRUE,"""event"",""trial"",""time""
""fullscreenenter"",""5"",""16529""
","
","
","""event"",""trial"",""time""
""fullscreenenter"",""5"",""16529""
","
",919.8800000012852,NA,49,NA,NA,3000,1,NA,NA,images/tutyellowplanet.jpg,null,images/tutalien3,null,images/tutalien3,images/t.png,NA,practice,null,NA,NA,NA,NA,sub41
d3-animate-choice,23,154161,0.0-23.0,TRUE,FALSE,TRUE,TRUE,"""event"",""trial"",""time""
""fullscreenenter"",""5"",""16529""
","
","
","""event"",""trial"",""time""
""fullscreenenter"",""5"",""16529""
","
",368.8250000013795,NA,49,NA,NA,3000,1,NA,NA,images/tutyellowplanet.jpg,null,images/tutalien3,null,images/tutalien3,images/t.png,NA,practice,null,NA,NA,NA,NA,sub41
d3-animate-choice,24,156523,0.0-24.0,TRUE,FALSE,TRUE,TRUE,"""event"",""trial"",""time""
""fullscreenenter"",""5"",""16529""
","
","
","""event"",""trial"",""time""
""fullscreenenter"",""5"",""16529""
","
",358.82000000128755,NA,49,NA,NA,3000,1,NA,NA,images/tutyellowplanet.jpg,null,images/tutalien3,null,images/tutalien3,images/t.png,NA,practice,null,NA,NA,NA,NA,sub41
d3-animate-choice,25,158895,0.0-25.0,TRUE,FALSE,TRUE,TRUE,"""event"",""trial"",""time""
""fullscreenenter"",""5"",""16529""
","
","
","""event"",""trial"",""time""
""fullscreenenter"",""5"",""16529""
","
",367.5699999985227,NA,49,NA,NA,3000,1,NA,NA,images/tutyellowplanet.jpg,null,images/tutalien3,null,images/tutalien3,images/nothing.png,NA,practice,null,NA,NA,NA,NA,sub41
d3-animate-choice,26,161214,0.0-26.0,TRUE,FALSE,TRUE,TRUE,"""event"",""trial"",""time""
""fullscreenenter"",""5"",""16529""
","
","
","""event"",""trial"",""time""
""fullscreenenter"",""5"",""16529""
","
",313.88499999957276,NA,49,NA,NA,3000,1,NA,NA,images/tutyellowplanet.jpg,null,images/tutalien3,null,images/tutalien3,images/t.png,NA,practice,null,NA,NA,NA,NA,sub41
d3-animate-choice,27,163530,0.0-27.0,TRUE,FALSE,TRUE,TRUE,"""event"",""trial"",""time""
""fullscreenenter"",""5"",""16529""
","
","
","""event"",""trial"",""time""
""fullscreenenter"",""5"",""16529""
","
",312.3749999977008,NA,49,NA,NA,3000,1,NA,NA,images/tutyellowplanet.jpg,null,images/tutalien3,null,images/tutalien3,images/t.png,NA,practice,null,NA,NA,NA,NA,sub41
d3-animate-choice,28,166206,0.0-28.0,TRUE,FALSE,TRUE,TRUE,"""event"",""trial"",""time""
""fullscreenenter"",""5"",""16529""
","
","
","""event"",""trial"",""time""
""fullscreenenter"",""5"",""16529""
","
",670.4400000016904,NA,49,NA,NA,3000,1,NA,NA,images/tutyellowplanet.jpg,null,images/tutalien3,null,images/tutalien3,images/nothing.png,NA,practice,null,NA,NA,NA,NA,sub41
d3-animate-choice,29,168480,0.0-29.0,TRUE,FALSE,TRUE,TRUE,"""event"",""trial"",""time""
""fullscreenenter"",""5"",""16529""
","
","
","""event"",""trial"",""time""
""fullscreenenter"",""5"",""16529""
","
",271.76500000132364,NA,49,NA,NA,3000,1,NA,NA,images/tutyellowplanet.jpg,null,images/tutalien3,null,images/tutalien3,images/nothing.png,NA,practice,null,NA,NA,NA,NA,sub41
d3-instructions,30,174602,0.0-30.0,TRUE,FALSE,TRUE,TRUE,"""event"",""trial"",""time""
""fullscreenenter"",""5"",""16529""
","
","
","""event"",""trial"",""time""
""fullscreenenter"",""5"",""16529""
","
",NA,NA,NA,NA,NA,NA,NA,NA,NA,NA,NA,NA,NA,NA,NA,NA,NA,NA,NA,NA,NA,NA,sub41
d3-instructions,31,184111,0.0-31.0,TRUE,FALSE,TRUE,TRUE,"""event"",""trial"",""time""
""fullscreenenter"",""5"",""16529""
","
","
","""event"",""trial"",""time""
""fullscreenenter"",""5"",""16529""
","
",NA,NA,NA,NA,NA,NA,NA,NA,NA,NA,NA,NA,NA,NA,NA,NA,NA,NA,NA,NA,NA,NA,sub41
d3-instructions,32,195358,0.0-32.0,TRUE,FALSE,TRUE,TRUE,"""event"",""trial"",""time""
""fullscreenenter"",""5"",""16529""
","
","
","""event"",""trial"",""time""
""fullscreenenter"",""5"",""16529""
","
",NA,NA,NA,NA,NA,NA,NA,NA,NA,NA,NA,NA,NA,NA,NA,NA,NA,NA,NA,NA,NA,NA,sub41
d3-instructions,33,202766,0.0-33.0,TRUE,FALSE,TRUE,TRUE,"""event"",""trial"",""time""
""fullscreenenter"",""5"",""16529""
","
","
","""event"",""trial"",""time""
""fullscreenenter"",""5"",""16529""
","
",NA,NA,NA,NA,NA,NA,NA,NA,NA,NA,NA,NA,NA,NA,NA,NA,NA,NA,NA,NA,NA,NA,sub41
d3-animate-choice,34,207004,0.0-34.0,TRUE,FALSE,TRUE,TRUE,"""event"",""trial"",""time""
""fullscreenenter"",""5"",""16529""
","
","
","""event"",""trial"",""time""
""fullscreenenter"",""5"",""16529""
","
",2229.7550000002957,NA,49,NA,NA,3000,1,NA,NA,images/tutgreenplanet.jpg,images/tutalien1,images/tutalien2,null,images/tutalien2,images/t.png,NA,practice,null,NA,NA,NA,NA,sub41
d3-animate-choice,35,209733,0.0-35.0,TRUE,FALSE,TRUE,TRUE,"""event"",""trial"",""time""
""fullscreenenter"",""5"",""16529""
","
","
","""event"",""trial"",""time""
""fullscreenenter"",""5"",""16529""
","
",722.7549999988696,NA,48,NA,NA,3000,1,2661.614999997255,49,images/tutgreenplanet.jpg,images/tutalien1,images/tutalien2,null,images/tutalien1,images/nothing.png,NA,practice,null,NA,NA,NA,NA,sub41
d3-animate-choice,36,212671,0.0-36.0,TRUE,FALSE,TRUE,TRUE,"""event"",""trial"",""time""
""fullscreenenter"",""5"",""16529""
","
","
","""event"",""trial"",""time""
""fullscreenenter"",""5"",""16529""
","
",934.754999998404,NA,48,NA,NA,3000,1,NA,NA,images/tutgreenplanet.jpg,images/tutalien1,images/tutalien2,null,images/tutalien1,images/nothing.png,NA,practice,null,NA,NA,NA,NA,sub41
d3-animate-choice,37,214732,0.0-37.0,TRUE,FALSE,TRUE,TRUE,"""event"",""trial"",""time""
""fullscreenenter"",""5"",""16529""
","
","
","""event"",""trial"",""time""
""fullscreenenter"",""5"",""16529""
","
",54.18999999892549,NA,49,NA,NA,3000,1,NA,NA,images/tutgreenplanet.jpg,images/tutalien1,images/tutalien2,null,images/tutalien2,images/t.png,NA,practice,null,NA,NA,NA,NA,sub41
d3-animate-choice,38,216972,0.0-38.0,TRUE,FALSE,TRUE,TRUE,"""event"",""trial"",""time""
""fullscreenenter"",""5"",""16529""
","
","
","""event"",""trial"",""time""
""fullscreenenter"",""5"",""16529""
","
",234.29500000202097,NA,49,NA,NA,3000,1,NA,NA,images/tutgreenplanet.jpg,images/tutalien1,images/tutalien2,null,images/tutalien2,images/t.png,NA,practice,null,NA,NA,NA,NA,sub41
d3-animate-choice,39,219225,0.0-39.0,TRUE,FALSE,TRUE,TRUE,"""event"",""trial"",""time""
""fullscreenenter"",""5"",""16529""
","
","
","""event"",""trial"",""time""
""fullscreenenter"",""5"",""16529""
","
",249.01000000318163,NA,48,NA,NA,3000,1,NA,NA,images/tutgreenplanet.jpg,images/tutalien1,images/tutalien2,null,images/tutalien1,images/nothing.png,NA,practice,null,NA,NA,NA,NA,sub41
d3-animate-choice,40,221257,0.0-40.0,TRUE,FALSE,TRUE,TRUE,"""event"",""trial"",""time""
""fullscreenenter"",""5"",""16529""
","
","
","""event"",""trial"",""time""
""fullscreenenter"",""5"",""16529""
","
",24.894999998650746,NA,49,NA,NA,3000,1,NA,NA,images/tutgreenplanet.jpg,images/tutalien1,images/tutalien2,null,images/tutalien2,images/t.png,NA,practice,null,NA,NA,NA,NA,sub41
d3-animate-choice,41,223439,0.0-41.0,TRUE,FALSE,TRUE,TRUE,"""event"",""trial"",""time""
""fullscreenenter"",""5"",""16529""
","
","
","""event"",""trial"",""time""
""fullscreenenter"",""5"",""16529""
","
",179.3599999982689,NA,49,NA,NA,3000,1,1708.1249999973807,49,images/tutgreenplanet.jpg,images/tutalien1,images/tutalien2,null,images/tutalien2,images/t.png,NA,practice,null,NA,NA,NA,NA,sub41
d3-animate-choice,42,225471,0.0-42.0,TRUE,FALSE,TRUE,TRUE,"""event"",""trial"",""time""
""fullscreenenter"",""5"",""16529""
","
","
","""event"",""trial"",""time""
""fullscreenenter"",""5"",""16529""
","
",27.399999999033753,NA,49,NA,NA,3000,1,1589.1799999990326,49,images/tutgreenplanet.jpg,images/tutalien1,images/tutalien2,null,images/tutalien2,images/t.png,NA,practice,null,NA,NA,NA,NA,sub41
d3-animate-choice,43,227549,0.0-43.0,TRUE,FALSE,TRUE,TRUE,"""event"",""trial"",""time""
""fullscreenenter"",""5"",""16529""
","
","
","""event"",""trial"",""time""
""fullscreenenter"",""5"",""16529""
","
",74.55999999729102,NA,49,NA,NA,3000,1,1781.9499999968684,49,images/tutgreenplanet.jpg,images/tutalien1,images/tutalien2,null,images/tutalien2,images/t.png,NA,practice,null,NA,NA,NA,NA,sub41
d3-instructions,44,241673,0.0-44.0,TRUE,FALSE,TRUE,TRUE,"""event"",""trial"",""time""
""fullscreenenter"",""5"",""16529""
","
","
","""event"",""trial"",""time""
""fullscreenenter"",""5"",""16529""
","
",NA,NA,NA,NA,NA,NA,NA,NA,NA,NA,NA,NA,NA,NA,NA,NA,NA,NA,NA,NA,NA,NA,sub41
d3-instructions,45,246683,0.0-45.0,TRUE,FALSE,TRUE,TRUE,"""event"",""trial"",""time""
""fullscreenenter"",""5"",""16529""
","
","
","""event"",""trial"",""time""
""fullscreenenter"",""5"",""16529""
","
",NA,NA,NA,NA,NA,NA,NA,NA,NA,NA,NA,NA,NA,NA,NA,NA,NA,NA,NA,NA,NA,NA,sub41
d3-instructions,46,252478,0.0-46.0,TRUE,FALSE,TRUE,TRUE,"""event"",""trial"",""time""
""fullscreenenter"",""5"",""16529""
","
","
","""event"",""trial"",""time""
""fullscreenenter"",""5"",""16529""
","
",NA,NA,NA,NA,NA,NA,NA,NA,NA,NA,NA,NA,NA,NA,NA,NA,NA,NA,NA,NA,NA,NA,sub41
d3-instructions,47,269069,0.0-47.0,TRUE,FALSE,TRUE,TRUE,"""event"",""trial"",""time""
""fullscreenenter"",""5"",""16529""
","
","
","""event"",""trial"",""time""
""fullscreenenter"",""5"",""16529""
","
",NA,NA,NA,NA,NA,NA,NA,NA,NA,NA,NA,NA,NA,NA,NA,NA,NA,NA,NA,NA,NA,NA,sub41
d3-instructions,48,274780,0.0-48.0,TRUE,FALSE,TRUE,TRUE,"""event"",""trial"",""time""
""fullscreenenter"",""5"",""16529""
","
","
","""event"",""trial"",""time""
""fullscreenenter"",""5"",""16529""
","
",NA,NA,NA,NA,NA,NA,NA,NA,NA,NA,NA,NA,NA,NA,NA,NA,NA,NA,NA,NA,NA,NA,sub41
d3-instructions,49,285070,0.0-49.0,TRUE,FALSE,TRUE,TRUE,"""event"",""trial"",""time""
""fullscreenenter"",""5"",""16529""
","
","
","""event"",""trial"",""time""
""fullscreenenter"",""5"",""16529""
","
",NA,NA,NA,NA,NA,NA,NA,NA,NA,NA,NA,NA,NA,NA,NA,NA,NA,NA,NA,NA,NA,NA,sub41
d3-instructions,50,293326,0.0-50.0,TRUE,FALSE,TRUE,TRUE,"""event"",""trial"",""time""
""fullscreenenter"",""5"",""16529""
","
","
","""event"",""trial"",""time""
""fullscreenenter"",""5"",""16529""
","
",NA,NA,NA,NA,NA,NA,NA,NA,NA,NA,NA,NA,NA,NA,NA,NA,NA,NA,NA,NA,NA,NA,sub41
d3-instructions,51,295831,0.0-51.0,TRUE,FALSE,TRUE,TRUE,"""event"",""trial"",""time""
""fullscreenenter"",""5"",""16529""
","
","
","""event"",""trial"",""time""
""fullscreenenter"",""5"",""16529""
","
",NA,NA,NA,NA,NA,NA,NA,NA,NA,NA,NA,NA,NA,NA,NA,NA,NA,NA,NA,NA,NA,NA,sub41
d3-instructions,52,298936,0.0-52.0,TRUE,FALSE,TRUE,TRUE,"""event"",""trial"",""time""
""fullscreenenter"",""5"",""16529""
","
","
","""event"",""trial"",""time""
""fullscreenenter"",""5"",""16529""
","
",NA,NA,NA,NA,NA,NA,NA,NA,NA,NA,NA,NA,NA,NA,NA,NA,NA,NA,NA,NA,NA,NA,sub41
d3-instructions,53,311432,0.0-53.0,TRUE,FALSE,TRUE,TRUE,"""event"",""trial"",""time""
""fullscreenenter"",""5"",""16529""
","
","
","""event"",""trial"",""time""
""fullscreenenter"",""5"",""16529""
","
",NA,NA,NA,NA,NA,NA,NA,NA,NA,NA,NA,NA,NA,NA,NA,NA,NA,NA,NA,NA,NA,NA,sub41
d3-instructions,54,323081,0.0-54.0,TRUE,FALSE,TRUE,TRUE,"""event"",""trial"",""time""
""fullscreenenter"",""5"",""16529""
","
","
","""event"",""trial"",""time""
""fullscreenenter"",""5"",""16529""
","
",NA,NA,NA,NA,NA,NA,NA,NA,NA,NA,NA,NA,NA,NA,NA,NA,NA,NA,NA,NA,NA,NA,sub41
d3-instructions,55,333130,0.0-55.0,TRUE,FALSE,TRUE,TRUE,"""event"",""trial"",""time""
""fullscreenenter"",""5"",""16529""
","
","
","""event"",""trial"",""time""
""fullscreenenter"",""5"",""16529""
","
",NA,NA,NA,NA,NA,NA,NA,NA,NA,NA,NA,NA,NA,NA,NA,NA,NA,NA,NA,NA,NA,NA,sub41
d3-instructions,56,342066,0.0-56.0,TRUE,FALSE,TRUE,TRUE,"""event"",""trial"",""time""
""fullscreenenter"",""5"",""16529""
","
","
","""event"",""trial"",""time""
""fullscreenenter"",""5"",""16529""
","
",NA,NA,NA,NA,NA,NA,NA,NA,NA,NA,NA,NA,NA,NA,NA,NA,NA,NA,NA,NA,NA,NA,sub41
d3-instructions,57,351738,0.0-57.0,TRUE,FALSE,TRUE,TRUE,"""event"",""trial"",""time""
""fullscreenenter"",""5"",""16529""
","
","
","""event"",""trial"",""time""
""fullscreenenter"",""5"",""16529""
","
",NA,NA,NA,NA,NA,NA,NA,NA,NA,NA,NA,NA,NA,NA,NA,NA,NA,NA,NA,NA,NA,NA,sub41
d3-instructions,58,362530,0.0-58.0,TRUE,FALSE,TRUE,TRUE,"""event"",""trial"",""time""
""fullscreenenter"",""5"",""16529""
","
","
","""event"",""trial"",""time""
""fullscreenenter"",""5"",""16529""
","
",NA,NA,NA,NA,NA,NA,NA,NA,NA,NA,NA,NA,NA,NA,NA,NA,NA,NA,NA,NA,NA,NA,sub41
d3-instructions,59,367287,0.0-59.0,TRUE,FALSE,TRUE,TRUE,"""event"",""trial"",""time""
""fullscreenenter"",""5"",""16529""
","
","
","""event"",""trial"",""time""
""fullscreenenter"",""5"",""16529""
","
",NA,NA,NA,NA,NA,NA,NA,NA,NA,NA,NA,NA,NA,NA,NA,NA,NA,NA,NA,NA,NA,NA,sub41
d3-instructions,60,373798,0.0-60.0,TRUE,FALSE,TRUE,TRUE,"""event"",""trial"",""time""
""fullscreenenter"",""5"",""16529""
","
","
","""event"",""trial"",""time""
""fullscreenenter"",""5"",""16529""
","
",NA,NA,NA,NA,NA,NA,NA,NA,NA,NA,NA,NA,NA,NA,NA,NA,NA,NA,NA,NA,NA,NA,sub41
d3-animate-choice,61,376321,0.0-61.0-0.0,TRUE,FALSE,TRUE,TRUE,"""event"",""trial"",""time""
""fullscreenenter"",""5"",""16529""
","
","
","""event"",""trial"",""time""
""fullscreenenter"",""5"",""16529""
","
",518.595000001369,NA,48,NA,NA,3000,1,NA,NA,images/earth.jpg,images/tutrocket2,images/tutrocket1,null,images/tutrocket2,NA,1,practice,null,2,NA,NA,NA,sub41
d3-animate-choice,62,380326,0.0-61.0-1.0,TRUE,FALSE,TRUE,TRUE,"""event"",""trial"",""time""
""fullscreenenter"",""5"",""16529""
","
","
","""event"",""trial"",""time""
""fullscreenenter"",""5"",""16529""
","
",2565.709999998915,NA,49,NA,NA,3000,1,NA,NA,images/tutyellowplanet.jpg,images/tutalien4,images/tutalien3,images/tutrocket2,images/tutalien3,images/nothing.png,2,practice,false,1,rare,0,2020-06-18T20:05:08Z,sub41
two-step-fixation,63,381330,0.0-61.0-2.0,TRUE,FALSE,TRUE,TRUE,"""event"",""trial"",""time""
""fullscreenenter"",""5"",""16529""
","
","
","""event"",""trial"",""time""
""fullscreenenter"",""5"",""16529""
","
",NA,images/earth.jpg,NA,NA,NA,NA,NA,NA,NA,NA,NA,NA,NA,NA,NA,fixation,NA,NA,NA,NA,NA,NA,sub41
d3-animate-choice,64,384848,0.0-61.0-0.1,TRUE,FALSE,TRUE,TRUE,"""event"",""trial"",""time""
""fullscreenenter"",""5"",""16529""
","
","
","""event"",""trial"",""time""
""fullscreenenter"",""5"",""16529""
","
",1515.1700000023702,NA,48,NA,NA,3000,1,NA,NA,images/earth.jpg,images/tutrocket2,images/tutrocket1,null,images/tutrocket2,NA,1,practice,null,2,NA,NA,NA,sub41
d3-animate-choice,65,387312,0.0-61.0-1.1,TRUE,FALSE,TRUE,TRUE,"""event"",""trial"",""time""
""fullscreenenter"",""5"",""16529""
","
","
","""event"",""trial"",""time""
""fullscreenenter"",""5"",""16529""
","
",460.8750000006985,NA,48,NA,NA,3000,1,NA,NA,images/tutgreenplanet.jpg,images/tutalien2,images/tutalien1,images/tutrocket2,images/tutalien2,images/nothing.png,2,practice,true,2,common,0,2020-06-18T20:05:15Z,sub41
two-step-fixation,66,388317,0.0-61.0-2.1,TRUE,FALSE,TRUE,TRUE,"""event"",""trial"",""time""
""fullscreenenter"",""5"",""16529""
","
","
","""event"",""trial"",""time""
""fullscreenenter"",""5"",""16529""
","
",NA,images/earth.jpg,NA,NA,NA,NA,NA,NA,NA,NA,NA,NA,NA,NA,NA,fixation,NA,NA,NA,NA,NA,NA,sub41
d3-animate-choice,67,391830,0.0-61.0-0.2,TRUE,FALSE,TRUE,TRUE,"""event"",""trial"",""time""
""fullscreenenter"",""5"",""16529""
","
","
","""event"",""trial"",""time""
""fullscreenenter"",""5"",""16529""
","
",1507.3349999984493,NA,49,NA,NA,3000,1,NA,NA,images/earth.jpg,images/tutrocket2,images/tutrocket1,null,images/tutrocket1,NA,1,practice,null,1,NA,NA,NA,sub41
d3-animate-choice,68,394587,0.0-61.0-1.2,TRUE,FALSE,TRUE,TRUE,"""event"",""trial"",""time""
""fullscreenenter"",""5"",""16529""
","
","
","""event"",""trial"",""time""
""fullscreenenter"",""5"",""16529""
","
",751.7599999991944,NA,49,NA,NA,3000,1,NA,NA,images/tutgreenplanet.jpg,images/tutalien2,images/tutalien1,images/tutrocket1,images/tutalien1,images/nothing.png,2,practice,false,1,rare,0,2020-06-18T20:05:22Z,sub41
two-step-fixation,69,395593,0.0-61.0-2.2,TRUE,FALSE,TRUE,TRUE,"""event"",""trial"",""time""
""fullscreenenter"",""5"",""16529""
","
","
","""event"",""trial"",""time""
""fullscreenenter"",""5"",""16529""
","
",NA,images/earth.jpg,NA,NA,NA,NA,NA,NA,NA,NA,NA,NA,NA,NA,NA,fixation,NA,NA,NA,NA,NA,NA,sub41
d3-animate-choice,70,398494,0.0-61.0-0.3,TRUE,FALSE,TRUE,TRUE,"""event"",""trial"",""time""
""fullscreenenter"",""5"",""16529""
","
","
","""event"",""trial"",""time""
""fullscreenenter"",""5"",""16529""
","
",896.055000001099,NA,48,NA,NA,3000,1,NA,NA,images/earth.jpg,images/tutrocket2,images/tutrocket1,null,images/tutrocket2,NA,1,practice,null,2,NA,NA,NA,sub41
d3-animate-choice,71,400792,0.0-61.0-1.3,TRUE,FALSE,TRUE,TRUE,"""event"",""trial"",""time""
""fullscreenenter"",""5"",""16529""
","
","
","""event"",""trial"",""time""
""fullscreenenter"",""5"",""16529""
","
",293.4850000019651,NA,49,NA,NA,3000,1,NA,NA,images/tutgreenplanet.jpg,images/tutalien2,images/tutalien1,images/tutrocket2,images/tutalien1,images/t.png,2,practice,true,1,common,1,2020-06-18T20:05:28Z,sub41
two-step-fixation,72,401796,0.0-61.0-2.3,TRUE,FALSE,TRUE,TRUE,"""event"",""trial"",""time""
""fullscreenenter"",""5"",""16529""
","
","
","""event"",""trial"",""time""
""fullscreenenter"",""5"",""16529""
","
",NA,images/earth.jpg,NA,NA,NA,NA,NA,NA,NA,NA,NA,NA,NA,NA,NA,fixation,NA,NA,NA,NA,NA,NA,sub41
d3-animate-choice,73,404308,0.0-61.0-0.4,TRUE,FALSE,TRUE,TRUE,"""event"",""trial"",""time""
""fullscreenenter"",""5"",""16529""
","
","
","""event"",""trial"",""time""
""fullscreenenter"",""5"",""16529""
","
",508.2000000002445,NA,49,NA,NA,3000,1,NA,NA,images/earth.jpg,images/tutrocket2,images/tutrocket1,null,images/tutrocket1,NA,1,practice,null,1,NA,NA,NA,sub41
d3-animate-choice,74,406898,0.0-61.0-1.4,TRUE,FALSE,TRUE,TRUE,"""event"",""trial"",""time""
""fullscreenenter"",""5"",""16529""
","
","
","""event"",""trial"",""time""
""fullscreenenter"",""5"",""16529""
","
",582.9500000000116,NA,49,NA,NA,3000,1,NA,NA,images/tutyellowplanet.jpg,images/tutalien4,images/tutalien3,images/tutrocket1,images/tutalien3,images/nothing.png,2,practice,true,1,common,0,2020-06-18T20:05:35Z,sub41
two-step-fixation,75,407904,0.0-61.0-2.4,TRUE,FALSE,TRUE,TRUE,"""event"",""trial"",""time""
""fullscreenenter"",""5"",""16529""
","
","
","""event"",""trial"",""time""
""fullscreenenter"",""5"",""16529""
","
",NA,images/earth.jpg,NA,NA,NA,NA,NA,NA,NA,NA,NA,NA,NA,NA,NA,fixation,NA,NA,NA,NA,NA,NA,sub41
d3-animate-choice,76,410661,0.0-61.0-0.5,TRUE,FALSE,TRUE,TRUE,"""event"",""trial"",""time""
""fullscreenenter"",""5"",""16529""
","
","
","""event"",""trial"",""time""
""fullscreenenter"",""5"",""16529""
","
",751.4999999984866,NA,49,NA,NA,3000,1,NA,NA,images/earth.jpg,images/tutrocket2,images/tutrocket1,null,images/tutrocket1,NA,1,practice,null,1,NA,NA,NA,sub41
d3-animate-choice,77,413523,0.0-61.0-1.5,TRUE,FALSE,TRUE,TRUE,"""event"",""trial"",""time""
""fullscreenenter"",""5"",""16529""
","
","
","""event"",""trial"",""time""
""fullscreenenter"",""5"",""16529""
","
",853.4300000028452,NA,48,NA,NA,3000,1,NA,NA,images/tutyellowplanet.jpg,images/tutalien4,images/tutalien3,images/tutrocket1,images/tutalien4,images/t.png,2,practice,true,2,common,1,2020-06-18T20:05:41Z,sub41
two-step-fixation,78,414530,0.0-61.0-2.5,TRUE,FALSE,TRUE,TRUE,"""event"",""trial"",""time""
""fullscreenenter"",""5"",""16529""
","
","
","""event"",""trial"",""time""
""fullscreenenter"",""5"",""16529""
","
",NA,images/earth.jpg,NA,NA,NA,NA,NA,NA,NA,NA,NA,NA,NA,NA,NA,fixation,NA,NA,NA,NA,NA,NA,sub41
d3-animate-choice,79,416774,0.0-61.0-0.6,TRUE,FALSE,TRUE,TRUE,"""event"",""trial"",""time""
""fullscreenenter"",""5"",""16529""
","
","
","""event"",""trial"",""time""
""fullscreenenter"",""5"",""16529""
","
",238.67500000051223,NA,49,NA,NA,3000,1,NA,NA,images/earth.jpg,images/tutrocket2,images/tutrocket1,null,images/tutrocket1,NA,1,practice,null,1,NA,NA,NA,sub41
d3-animate-choice,80,419398,0.0-61.0-1.6,TRUE,FALSE,TRUE,TRUE,"""event"",""trial"",""time""
""fullscreenenter"",""5"",""16529""
","
","
","""event"",""trial"",""time""
""fullscreenenter"",""5"",""16529""
","
",616.1749999992317,NA,48,NA,NA,3000,1,NA,NA,images/tutyellowplanet.jpg,images/tutalien4,images/tutalien3,images/tutrocket1,images/tutalien4,images/nothing.png,2,practice,true,2,common,0,2020-06-18T20:05:47Z,sub41
two-step-fixation,81,420402,0.0-61.0-2.6,TRUE,FALSE,TRUE,TRUE,"""event"",""trial"",""time""
""fullscreenenter"",""5"",""16529""
","
","
","""event"",""trial"",""time""
""fullscreenenter"",""5"",""16529""
","
",NA,images/earth.jpg,NA,NA,NA,NA,NA,NA,NA,NA,NA,NA,NA,NA,NA,fixation,NA,NA,NA,NA,NA,NA,sub41
d3-animate-choice,82,423743,0.0-61.0-0.7,TRUE,FALSE,TRUE,TRUE,"""event"",""trial"",""time""
""fullscreenenter"",""5"",""16529""
","
","
","""event"",""trial"",""time""
""fullscreenenter"",""5"",""16529""
","
",1336.9149999998626,NA,49,NA,NA,3000,1,NA,NA,images/earth.jpg,images/tutrocket2,images/tutrocket1,null,images/tutrocket1,NA,1,practice,null,1,NA,NA,NA,sub41
d3-animate-choice,83,426846,0.0-61.0-1.7,TRUE,FALSE,TRUE,TRUE,"""event"",""trial"",""time""
""fullscreenenter"",""5"",""16529""
","
","
","""event"",""trial"",""time""
""fullscreenenter"",""5"",""16529""
","
",1094.6899999980815,NA,48,NA,NA,3000,1,NA,NA,images/tutgreenplanet.jpg,images/tutalien2,images/tutalien1,images/tutrocket1,images/tutalien2,images/t.png,2,practice,false,2,rare,1,2020-06-18T20:05:55Z,sub41
two-step-fixation,84,427850,0.0-61.0-2.7,TRUE,FALSE,TRUE,TRUE,"""event"",""trial"",""time""
""fullscreenenter"",""5"",""16529""
","
","
","""event"",""trial"",""time""
""fullscreenenter"",""5"",""16529""
","
",NA,images/earth.jpg,NA,NA,NA,NA,NA,NA,NA,NA,NA,NA,NA,NA,NA,fixation,NA,NA,NA,NA,NA,NA,sub41
d3-animate-choice,85,430634,0.0-61.0-0.8,TRUE,FALSE,TRUE,TRUE,"""event"",""trial"",""time""
""fullscreenenter"",""5"",""16529""
","
","
","""event"",""trial"",""time""
""fullscreenenter"",""5"",""16529""
","
",777.3650000017369,NA,49,NA,NA,3000,1,NA,NA,images/earth.jpg,images/tutrocket2,images/tutrocket1,null,images/tutrocket1,NA,1,practice,null,1,NA,NA,NA,sub41
d3-animate-choice,86,433263,0.0-61.0-1.8,TRUE,FALSE,TRUE,TRUE,"""event"",""trial"",""time""
""fullscreenenter"",""5"",""16529""
","
","
","""event"",""trial"",""time""
""fullscreenenter"",""5"",""16529""
","
",622.1650000007357,NA,48,NA,NA,3000,1,NA,NA,images/tutyellowplanet.jpg,images/tutalien4,images/tutalien3,images/tutrocket1,images/tutalien4,images/t.png,2,practice,true,2,common,1,2020-06-18T20:06:01Z,sub41
two-step-fixation,87,434267,0.0-61.0-2.8,TRUE,FALSE,TRUE,TRUE,"""event"",""trial"",""time""
""fullscreenenter"",""5"",""16529""
","
","
","""event"",""trial"",""time""
""fullscreenenter"",""5"",""16529""
","
",NA,images/earth.jpg,NA,NA,NA,NA,NA,NA,NA,NA,NA,NA,NA,NA,NA,fixation,NA,NA,NA,NA,NA,NA,sub41
d3-animate-choice,88,436329,0.0-61.0-0.9,TRUE,FALSE,TRUE,TRUE,"""event"",""trial"",""time""
""fullscreenenter"",""5"",""16529""
","
","
","""event"",""trial"",""time""
""fullscreenenter"",""5"",""16529""
","
",56.85499999887543,NA,48,NA,NA,3000,1,1936.5249999973457,49,images/earth.jpg,images/tutrocket2,images/tutrocket1,null,images/tutrocket2,NA,1,practice,null,2,NA,NA,NA,sub41
d3-animate-choice,89,439260,0.0-61.0-1.9,TRUE,FALSE,TRUE,TRUE,"""event"",""trial"",""time""
""fullscreenenter"",""5"",""16529""
","
","
","""event"",""trial"",""time""
""fullscreenenter"",""5"",""16529""
","
",926.2950000010896,NA,49,NA,NA,3000,1,NA,NA,images/tutyellowplanet.jpg,images/tutalien4,images/tutalien3,images/tutrocket2,images/tutalien3,images/t.png,2,practice,false,1,rare,1,2020-06-18T20:06:07Z,sub41
two-step-fixation,90,440263,0.0-61.0-2.9,TRUE,FALSE,TRUE,TRUE,"""event"",""trial"",""time""
""fullscreenenter"",""5"",""16529""
","
","
","""event"",""trial"",""time""
""fullscreenenter"",""5"",""16529""
","
",NA,images/earth.jpg,NA,NA,NA,NA,NA,NA,NA,NA,NA,NA,NA,NA,NA,fixation,NA,NA,NA,NA,NA,NA,sub41
d3-animate-choice,91,442825,0.0-61.0-0.10,TRUE,FALSE,TRUE,TRUE,"""event"",""trial"",""time""
""fullscreenenter"",""5"",""16529""
","
","
","""event"",""trial"",""time""
""fullscreenenter"",""5"",""16529""
","
",553.6649999994552,NA,48,NA,NA,3000,1,NA,NA,images/earth.jpg,images/tutrocket2,images/tutrocket1,null,images/tutrocket2,NA,1,practice,null,2,NA,NA,NA,sub41
d3-animate-choice,92,445863,0.0-61.0-1.10,TRUE,FALSE,TRUE,TRUE,"""event"",""trial"",""time""
""fullscreenenter"",""5"",""16529""
","
","
","""event"",""trial"",""time""
""fullscreenenter"",""5"",""16529""
","
",1033.630000001751,NA,49,NA,NA,3000,1,NA,NA,images/tutgreenplanet.jpg,images/tutalien2,images/tutalien1,images/tutrocket2,images/tutalien1,images/nothing.png,2,practice,true,1,common,0,2020-06-18T20:06:14Z,sub41
two-step-fixation,93,446868,0.0-61.0-2.10,TRUE,FALSE,TRUE,TRUE,"""event"",""trial"",""time""
""fullscreenenter"",""5"",""16529""
","
","
","""event"",""trial"",""time""
""fullscreenenter"",""5"",""16529""
","
",NA,images/earth.jpg,NA,NA,NA,NA,NA,NA,NA,NA,NA,NA,NA,NA,NA,fixation,NA,NA,NA,NA,NA,NA,sub41
d3-animate-choice,94,449678,0.0-61.0-0.11,TRUE,FALSE,TRUE,TRUE,"""event"",""trial"",""time""
""fullscreenenter"",""5"",""16529""
","
","
","""event"",""trial"",""time""
""fullscreenenter"",""5"",""16529""
","
",802.2349999992293,NA,48,NA,NA,3000,1,NA,NA,images/earth.jpg,images/tutrocket2,images/tutrocket1,null,images/tutrocket2,NA,1,practice,null,2,NA,NA,NA,sub41
d3-animate-choice,95,453096,0.0-61.0-1.11,TRUE,FALSE,TRUE,TRUE,"""event"",""trial"",""time""
""fullscreenenter"",""5"",""16529""
","
","
","""event"",""trial"",""time""
""fullscreenenter"",""5"",""16529""
","
",1410.8300000007148,NA,49,NA,NA,3000,1,3313.7949999982375,48,images/tutgreenplanet.jpg,images/tutalien2,images/tutalien1,images/tutrocket2,images/tutalien1,images/nothing.png,2,practice,true,1,common,0,2020-06-18T20:06:21Z,sub41
two-step-fixation,96,454099,0.0-61.0-2.11,TRUE,FALSE,TRUE,TRUE,"""event"",""trial"",""time""
""fullscreenenter"",""5"",""16529""
","
","
","""event"",""trial"",""time""
""fullscreenenter"",""5"",""16529""
","
",NA,images/earth.jpg,NA,NA,NA,NA,NA,NA,NA,NA,NA,NA,NA,NA,NA,fixation,NA,NA,NA,NA,NA,NA,sub41
d3-animate-choice,97,457327,0.0-61.0-0.12,TRUE,FALSE,TRUE,TRUE,"""event"",""trial"",""time""
""fullscreenenter"",""5"",""16529""
","
","
","""event"",""trial"",""time""
""fullscreenenter"",""5"",""16529""
","
",1222.5250000010128,NA,49,NA,NA,3000,1,2713.804999999411,48,images/earth.jpg,images/tutrocket2,images/tutrocket1,null,images/tutrocket1,NA,1,practice,null,1,NA,NA,NA,sub41
d3-animate-choice,98,460224,0.0-61.0-1.12,TRUE,FALSE,TRUE,TRUE,"""event"",""trial"",""time""
""fullscreenenter"",""5"",""16529""
","
","
","""event"",""trial"",""time""
""fullscreenenter"",""5"",""16529""
","
",890.6749999987078,NA,48,NA,NA,3000,1,NA,NA,images/tutyellowplanet.jpg,images/tutalien4,images/tutalien3,images/tutrocket1,images/tutalien4,images/t.png,2,practice,true,2,common,1,2020-06-18T20:06:28Z,sub41
two-step-fixation,99,461229,0.0-61.0-2.12,TRUE,FALSE,TRUE,TRUE,"""event"",""trial"",""time""
""fullscreenenter"",""5"",""16529""
","
","
","""event"",""trial"",""time""
""fullscreenenter"",""5"",""16529""
","
",NA,images/earth.jpg,NA,NA,NA,NA,NA,NA,NA,NA,NA,NA,NA,NA,NA,fixation,NA,NA,NA,NA,NA,NA,sub41
d3-animate-choice,100,463934,0.0-61.0-0.13,TRUE,FALSE,TRUE,TRUE,"""event"",""trial"",""time""
""fullscreenenter"",""5"",""16529""
","
","
","""event"",""trial"",""time""
""fullscreenenter"",""5"",""16529""
","
",697.1100000009174,NA,49,NA,NA,3000,1,NA,NA,images/earth.jpg,images/tutrocket2,images/tutrocket1,null,images/tutrocket1,NA,1,practice,null,1,NA,NA,NA,sub41
d3-animate-choice,101,466809,0.0-61.0-1.13,TRUE,FALSE,TRUE,TRUE,"""event"",""trial"",""time""
""fullscreenenter"",""5"",""16529""
","
","
","""event"",""trial"",""time""
""fullscreenenter"",""5"",""16529""
","
",865.5800000015297,NA,48,NA,NA,3000,1,NA,NA,images/tutgreenplanet.jpg,images/tutalien2,images/tutalien1,images/tutrocket1,images/tutalien2,images/nothing.png,2,practice,false,2,rare,0,2020-06-18T20:06:35Z,sub41
two-step-fixation,102,467812,0.0-61.0-2.13,TRUE,FALSE,TRUE,TRUE,"""event"",""trial"",""time""
""fullscreenenter"",""5"",""16529""
","
","
","""event"",""trial"",""time""
""fullscreenenter"",""5"",""16529""
","
",NA,images/earth.jpg,NA,NA,NA,NA,NA,NA,NA,NA,NA,NA,NA,NA,NA,fixation,NA,NA,NA,NA,NA,NA,sub41
d3-animate-choice,103,470337,0.0-61.0-0.14,TRUE,FALSE,TRUE,TRUE,"""event"",""trial"",""time""
""fullscreenenter"",""5"",""16529""
","
","
","""event"",""trial"",""time""
""fullscreenenter"",""5"",""16529""
","
",520.3199999996577,NA,49,NA,NA,3000,1,NA,NA,images/earth.jpg,images/tutrocket2,images/tutrocket1,null,images/tutrocket1,NA,1,practice,null,1,NA,NA,NA,sub41
d3-animate-choice,104,473124,0.0-61.0-1.14,TRUE,FALSE,TRUE,TRUE,"""event"",""trial"",""time""
""fullscreenenter"",""5"",""16529""
","
","
","""event"",""trial"",""time""
""fullscreenenter"",""5"",""16529""
","
",779.5549999973737,NA,48,NA,NA,3000,1,NA,NA,images/tutyellowplanet.jpg,images/tutalien4,images/tutalien3,images/tutrocket1,images/tutalien4,images/t.png,2,practice,true,2,common,1,2020-06-18T20:06:41Z,sub41
two-step-fixation,105,474127,0.0-61.0-2.14,TRUE,FALSE,TRUE,TRUE,"""event"",""trial"",""time""
""fullscreenenter"",""5"",""16529""
","
","
","""event"",""trial"",""time""
""fullscreenenter"",""5"",""16529""
","
",NA,images/earth.jpg,NA,NA,NA,NA,NA,NA,NA,NA,NA,NA,NA,NA,NA,fixation,NA,NA,NA,NA,NA,NA,sub41
d3-animate-choice,106,476376,0.0-61.0-0.15,TRUE,FALSE,TRUE,TRUE,"""event"",""trial"",""time""
""fullscreenenter"",""5"",""16529""
","
","
","""event"",""trial"",""time""
""fullscreenenter"",""5"",""16529""
","
",243.33000000112224,NA,48,NA,NA,3000,1,NA,NA,images/earth.jpg,images/tutrocket2,images/tutrocket1,null,images/tutrocket2,NA,1,practice,null,2,NA,NA,NA,sub41
d3-animate-choice,107,478797,0.0-61.0-1.15,TRUE,FALSE,TRUE,TRUE,"""event"",""trial"",""time""
""fullscreenenter"",""5"",""16529""
","
","
","""event"",""trial"",""time""
""fullscreenenter"",""5"",""16529""
","
",411.7200000000885,NA,48,NA,NA,3000,1,NA,NA,images/tutyellowplanet.jpg,images/tutalien4,images/tutalien3,images/tutrocket2,images/tutalien4,images/nothing.png,2,practice,false,2,rare,0,2020-06-18T20:06:47Z,sub41
two-step-fixation,108,479803,0.0-61.0-2.15,TRUE,FALSE,TRUE,TRUE,"""event"",""trial"",""time""
""fullscreenenter"",""5"",""16529""
","
","
","""event"",""trial"",""time""
""fullscreenenter"",""5"",""16529""
","
",NA,images/earth.jpg,NA,NA,NA,NA,NA,NA,NA,NA,NA,NA,NA,NA,NA,fixation,NA,NA,NA,NA,NA,NA,sub41
d3-animate-choice,109,482122,0.0-61.0-0.16,TRUE,FALSE,TRUE,TRUE,"""event"",""trial"",""time""
""fullscreenenter"",""5"",""16529""
","
","
","""event"",""trial"",""time""
""fullscreenenter"",""5"",""16529""
","
",310.075000001234,NA,48,NA,NA,3000,1,NA,NA,images/earth.jpg,images/tutrocket2,images/tutrocket1,null,images/tutrocket2,NA,1,practice,null,2,NA,NA,NA,sub41
d3-animate-choice,110,484306,0.0-61.0-1.16,TRUE,FALSE,TRUE,TRUE,"""event"",""trial"",""time""
""fullscreenenter"",""5"",""16529""
","
","
","""event"",""trial"",""time""
""fullscreenenter"",""5"",""16529""
","
",179.02500000124564,NA,48,NA,NA,3000,1,NA,NA,images/tutgreenplanet.jpg,images/tutalien2,images/tutalien1,images/tutrocket2,images/tutalien2,images/t.png,2,practice,true,2,common,1,2020-06-18T20:06:52Z,sub41
two-step-fixation,111,485309,0.0-61.0-2.16,TRUE,FALSE,TRUE,TRUE,"""event"",""trial"",""time""
""fullscreenenter"",""5"",""16529""
","
","
","""event"",""trial"",""time""
""fullscreenenter"",""5"",""16529""
","
",NA,images/earth.jpg,NA,NA,NA,NA,NA,NA,NA,NA,NA,NA,NA,NA,NA,fixation,NA,NA,NA,NA,NA,NA,sub41
d3-animate-choice,112,487884,0.0-61.0-0.17,TRUE,FALSE,TRUE,TRUE,"""event"",""trial"",""time""
""fullscreenenter"",""5"",""16529""
","
","
","""event"",""trial"",""time""
""fullscreenenter"",""5"",""16529""
","
",570.2949999977136,NA,48,NA,NA,3000,1,NA,NA,images/earth.jpg,images/tutrocket2,images/tutrocket1,null,images/tutrocket2,NA,1,practice,null,2,NA,NA,NA,sub41
d3-animate-choice,113,489942,0.0-61.0-1.17,TRUE,FALSE,TRUE,TRUE,"""event"",""trial"",""time""
""fullscreenenter"",""5"",""16529""
","
","
","""event"",""trial"",""time""
""fullscreenenter"",""5"",""16529""
","
",51.8999999986263,NA,49,NA,NA,3000,1,NA,NA,images/tutgreenplanet.jpg,images/tutalien2,images/tutalien1,images/tutrocket2,images/tutalien1,images/nothing.png,2,practice,true,1,common,0,2020-06-18T20:06:58Z,sub41
two-step-fixation,114,490945,0.0-61.0-2.17,TRUE,FALSE,TRUE,TRUE,"""event"",""trial"",""time""
""fullscreenenter"",""5"",""16529""
","
","
","""event"",""trial"",""time""
""fullscreenenter"",""5"",""16529""
","
",NA,images/earth.jpg,NA,NA,NA,NA,NA,NA,NA,NA,NA,NA,NA,NA,NA,fixation,NA,NA,NA,NA,NA,NA,sub41
d3-animate-choice,115,493025,0.0-61.0-0.18,TRUE,FALSE,TRUE,TRUE,"""event"",""trial"",""time""
""fullscreenenter"",""5"",""16529""
","
","
","""event"",""trial"",""time""
""fullscreenenter"",""5"",""16529""
","
",73.1950000008801,NA,48,NA,NA,3000,1,1892.925000000163,49,images/earth.jpg,images/tutrocket2,images/tutrocket1,null,images/tutrocket2,NA,1,practice,null,2,NA,NA,NA,sub41
d3-animate-choice,116,495555,0.0-61.0-1.18,TRUE,FALSE,TRUE,TRUE,"""event"",""trial"",""time""
""fullscreenenter"",""5"",""16529""
","
","
","""event"",""trial"",""time""
""fullscreenenter"",""5"",""16529""
","
",521.919999999227,NA,49,NA,NA,3000,1,NA,NA,images/tutgreenplanet.jpg,images/tutalien2,images/tutalien1,images/tutrocket2,images/tutalien1,images/t.png,2,practice,true,1,common,1,2020-06-18T20:07:03Z,sub41
two-step-fixation,117,496562,0.0-61.0-2.18,TRUE,FALSE,TRUE,TRUE,"""event"",""trial"",""time""
""fullscreenenter"",""5"",""16529""
","
","
","""event"",""trial"",""time""
""fullscreenenter"",""5"",""16529""
","
",NA,images/earth.jpg,NA,NA,NA,NA,NA,NA,NA,NA,NA,NA,NA,NA,NA,fixation,NA,NA,NA,NA,NA,NA,sub41
d3-animate-choice,118,499184,0.0-61.0-0.19,TRUE,FALSE,TRUE,TRUE,"""event"",""trial"",""time""
""fullscreenenter"",""5"",""16529""
","
","
","""event"",""trial"",""time""
""fullscreenenter"",""5"",""16529""
","
",616.5750000000698,NA,48,NA,NA,3000,1,NA,NA,images/earth.jpg,images/tutrocket2,images/tutrocket1,null,images/tutrocket2,NA,1,practice,null,2,NA,NA,NA,sub41
d3-animate-choice,119,501847,0.0-61.0-1.19,TRUE,FALSE,TRUE,TRUE,"""event"",""trial"",""time""
""fullscreenenter"",""5"",""16529""
","
","
","""event"",""trial"",""time""
""fullscreenenter"",""5"",""16529""
","
",654.0050000002375,NA,49,NA,NA,3000,1,NA,NA,images/tutgreenplanet.jpg,images/tutalien2,images/tutalien1,images/tutrocket2,images/tutalien1,images/nothing.png,2,practice,true,1,common,0,2020-06-18T20:07:10Z,sub41
two-step-fixation,120,502852,0.0-61.0-2.19,TRUE,FALSE,TRUE,TRUE,"""event"",""trial"",""time""
""fullscreenenter"",""5"",""16529""
","
","
","""event"",""trial"",""time""
""fullscreenenter"",""5"",""16529""
","
",NA,images/earth.jpg,NA,NA,NA,NA,NA,NA,NA,NA,NA,NA,NA,NA,NA,fixation,NA,NA,NA,NA,NA,NA,sub41
d3-instructions,121,510368,0.0-62.0,TRUE,FALSE,TRUE,TRUE,"""event"",""trial"",""time""
""fullscreenenter"",""5"",""16529""
","
","
","""event"",""trial"",""time""
""fullscreenenter"",""5"",""16529""
","
",NA,NA,NA,NA,NA,NA,NA,NA,NA,NA,NA,NA,NA,NA,NA,NA,NA,NA,NA,NA,NA,NA,sub41
audio-keyboard-response,122,514798,0.0-63.0,TRUE,FALSE,TRUE,TRUE,"""event"",""trial"",""time""
""fullscreenenter"",""5"",""16529""
","
","
","""event"",""trial"",""time""
""fullscreenenter"",""5"",""16529""
","
",4429,audio/instructions/treasure_feedback.wav,32,NA,NA,NA,NA,NA,NA,NA,NA,NA,NA,NA,NA,NA,NA,NA,NA,NA,NA,NA,sub41
d3-instructions,123,533805,0.0-64.0,TRUE,FALSE,TRUE,TRUE,"""event"",""trial"",""time""
""fullscreenenter"",""5"",""16529""
","
","
","""event"",""trial"",""time""
""fullscreenenter"",""5"",""16529""
","
",NA,NA,NA,NA,NA,NA,NA,NA,NA,NA,NA,NA,NA,NA,NA,NA,NA,NA,NA,NA,NA,NA,sub41
d3-instructions,124,548280,0.0-65.0,TRUE,FALSE,TRUE,TRUE,"""event"",""trial"",""time""
""fullscreenenter"",""5"",""16529""
","
","
","""event"",""trial"",""time""
""fullscreenenter"",""5"",""16529""
","
",NA,NA,NA,NA,NA,NA,NA,NA,NA,NA,NA,NA,NA,NA,NA,NA,NA,NA,NA,NA,NA,NA,sub41
d3-instructions,125,574428,0.0-66.0,TRUE,FALSE,TRUE,TRUE,"""event"",""trial"",""time""
""fullscreenenter"",""5"",""16529""
","
","
","""event"",""trial"",""time""
""fullscreenenter"",""5"",""16529""
","
",NA,NA,NA,NA,NA,NA,NA,NA,NA,NA,NA,NA,NA,NA,NA,NA,NA,NA,NA,NA,NA,NA,sub41
d3-instructions,126,589953,0.0-67.0,TRUE,FALSE,TRUE,TRUE,"""event"",""trial"",""time""
""fullscreenenter"",""5"",""16529""
","
","
","""event"",""trial"",""time""
""fullscreenenter"",""5"",""16529""
","
",NA,NA,NA,NA,NA,NA,NA,NA,NA,NA,NA,NA,NA,NA,NA,NA,NA,NA,NA,NA,NA,NA,sub41
d3-instructions,127,599088,0.0-68.0,TRUE,FALSE,TRUE,TRUE,"""event"",""trial"",""time""
""fullscreenenter"",""5"",""16529""
","
","
","""event"",""trial"",""time""
""fullscreenenter"",""5"",""16529""
","
",NA,NA,NA,NA,NA,NA,NA,NA,NA,NA,NA,NA,NA,NA,NA,NA,NA,NA,NA,NA,NA,NA,sub41
instructions-quiz,128,604005,0.0-69.0,TRUE,FALSE,TRUE,TRUE,"""event"",""trial"",""time""
""fullscreenenter"",""5"",""16529""
","
","
","""event"",""trial"",""time""
""fullscreenenter"",""5"",""16529""
","
",4914.774999997462,audio/quiz/Q1_Prompt.wav,NA,1,NA,NA,NA,NA,NA,NA,NA,NA,NA,NA,NA,NA,NA,NA,NA,NA,NA,NA,sub41
audio-keyboard-response,129,613178,0.0-70.0,TRUE,FALSE,TRUE,TRUE,"""event"",""trial"",""time""
""fullscreenenter"",""5"",""16529""
","
","
","""event"",""trial"",""time""
""fullscreenenter"",""5"",""16529""
","
",null,audio/quiz/Q1_Correct.wav,null,NA,NA,NA,NA,NA,NA,NA,NA,NA,NA,NA,NA,NA,NA,NA,NA,NA,NA,NA,sub41
instructions-quiz,130,620273,0.0-71.0,TRUE,FALSE,TRUE,TRUE,"""event"",""trial"",""time""
""fullscreenenter"",""5"",""16529""
","
","
","""event"",""trial"",""time""
""fullscreenenter"",""5"",""16529""
","
",7093.424999999115,audio/quiz/Q2_Prompt.wav,NA,0,NA,NA,NA,NA,NA,NA,NA,NA,NA,NA,NA,NA,NA,NA,NA,NA,NA,NA,sub41
audio-keyboard-response,131,632769,0.0-72.0,TRUE,FALSE,TRUE,TRUE,"""event"",""trial"",""time""
""fullscreenenter"",""5"",""16529""
","
","
","""event"",""trial"",""time""
""fullscreenenter"",""5"",""16529""
","
",12492,audio/quiz/Q2_Correct.wav,32,NA,NA,NA,NA,NA,NA,NA,NA,NA,NA,NA,NA,NA,NA,NA,NA,NA,NA,NA,sub41
instructions-quiz,132,638013,0.0-73.0,TRUE,FALSE,TRUE,TRUE,"""event"",""trial"",""time""
""fullscreenenter"",""5"",""16529""
","
","
","""event"",""trial"",""time""
""fullscreenenter"",""5"",""16529""
","
",5243.120000002789,audio/quiz/Q3_Prompt.wav,NA,1,NA,NA,NA,NA,NA,NA,NA,NA,NA,NA,NA,NA,NA,NA,NA,NA,NA,NA,sub41
audio-keyboard-response,133,643639,0.0-74.0,TRUE,FALSE,TRUE,TRUE,"""event"",""trial"",""time""
""fullscreenenter"",""5"",""16529""
","
","
","""event"",""trial"",""time""
""fullscreenenter"",""5"",""16529""
","
",5625,audio/quiz/Q3_Correct.wav,32,NA,NA,NA,NA,NA,NA,NA,NA,NA,NA,NA,NA,NA,NA,NA,NA,NA,NA,NA,sub41
d3-instructions,134,657560,0.0-75.0,TRUE,FALSE,TRUE,TRUE,"""event"",""trial"",""time""
""fullscreenenter"",""5"",""16529""
","
","
","""event"",""trial"",""time""
""fullscreenenter"",""5"",""16529""
","
",NA,NA,NA,NA,NA,NA,NA,NA,NA,NA,NA,NA,NA,NA,NA,NA,NA,NA,NA,NA,NA,NA,sub41
d3-animate-choice,135,661325,0.0-76.0-0.0,TRUE,FALSE,TRUE,TRUE,"""event"",""trial"",""time""
""fullscreenenter"",""5"",""16529""
","
","
","""event"",""trial"",""time""
""fullscreenenter"",""5"",""16529""
","
",1759.5600000022678,NA,49,NA,NA,3000,1,1898.414999999688,49,images/earth.jpg,images/rocket2,images/rocket1,null,images/rocket1,NA,1,real,null,1,NA,NA,NA,sub41
d3-animate-choice,136,664803,0.0-76.0-1.0,TRUE,FALSE,TRUE,TRUE,"""event"",""trial"",""time""
""fullscreenenter"",""5"",""16529""
","
","
","""event"",""trial"",""time""
""fullscreenenter"",""5"",""16529""
","
",1475.1450000003679,NA,48,NA,NA,3000,1,NA,NA,images/purpleplanet.jpg,images/alien4,images/alien3,images/rocket1,images/alien4,images/t.png,2,real,true,2,common,1,2020-06-18T20:09:53Z,sub41
two-step-fixation,137,665808,0.0-76.0-2.0,TRUE,FALSE,TRUE,TRUE,"""event"",""trial"",""time""
""fullscreenenter"",""5"",""16529""
","
","
","""event"",""trial"",""time""
""fullscreenenter"",""5"",""16529""
","
",NA,images/earth.jpg,NA,NA,NA,NA,NA,NA,NA,NA,NA,NA,NA,NA,NA,fixation,NA,NA,NA,NA,NA,NA,sub41
d3-animate-choice,138,668646,0.0-76.0-0.1,TRUE,FALSE,TRUE,TRUE,"""event"",""trial"",""time""
""fullscreenenter"",""5"",""16529""
","
","
","""event"",""trial"",""time""
""fullscreenenter"",""5"",""16529""
","
",835.2349999987055,NA,49,NA,NA,3000,1,NA,NA,images/earth.jpg,images/rocket2,images/rocket1,null,images/rocket1,NA,1,real,null,1,NA,NA,NA,sub41
d3-animate-choice,139,671061,0.0-76.0-1.1,TRUE,FALSE,TRUE,TRUE,"""event"",""trial"",""time""
""fullscreenenter"",""5"",""16529""
","
","
","""event"",""trial"",""time""
""fullscreenenter"",""5"",""16529""
","
",407.3449999996228,NA,48,NA,NA,3000,1,NA,NA,images/purpleplanet.jpg,images/alien4,images/alien3,images/rocket1,images/alien4,images/t.png,2,real,true,2,common,1,2020-06-18T20:09:59Z,sub41
two-step-fixation,140,672066,0.0-76.0-2.1,TRUE,FALSE,TRUE,TRUE,"""event"",""trial"",""time""
""fullscreenenter"",""5"",""16529""
","
","
","""event"",""trial"",""time""
""fullscreenenter"",""5"",""16529""
","
",NA,images/earth.jpg,NA,NA,NA,NA,NA,NA,NA,NA,NA,NA,NA,NA,NA,fixation,NA,NA,NA,NA,NA,NA,sub41
d3-animate-choice,141,674571,0.0-76.0-0.2,TRUE,FALSE,TRUE,TRUE,"""event"",""trial"",""time""
""fullscreenenter"",""5"",""16529""
","
","
","""event"",""trial"",""time""
""fullscreenenter"",""5"",""16529""
","
",500.45999999926426,NA,49,NA,NA,3000,1,NA,NA,images/earth.jpg,images/rocket2,images/rocket1,null,images/rocket1,NA,1,real,null,1,NA,NA,NA,sub41
d3-animate-choice,142,676907,0.0-76.0-1.2,TRUE,FALSE,TRUE,TRUE,"""event"",""trial"",""time""
""fullscreenenter"",""5"",""16529""
","
","
","""event"",""trial"",""time""
""fullscreenenter"",""5"",""16529""
","
",329.9750000005588,NA,48,NA,NA,3000,1,NA,NA,images/purpleplanet.jpg,images/alien4,images/alien3,images/rocket1,images/alien4,images/t.png,2,real,true,2,common,1,2020-06-18T20:10:05Z,sub41
two-step-fixation,143,677912,0.0-76.0-2.2,TRUE,FALSE,TRUE,TRUE,"""event"",""trial"",""time""
""fullscreenenter"",""5"",""16529""
","
","
","""event"",""trial"",""time""
""fullscreenenter"",""5"",""16529""
","
",NA,images/earth.jpg,NA,NA,NA,NA,NA,NA,NA,NA,NA,NA,NA,NA,NA,fixation,NA,NA,NA,NA,NA,NA,sub41
d3-animate-choice,144,680896,0.0-76.0-0.3,TRUE,FALSE,TRUE,TRUE,"""event"",""trial"",""time""
""fullscreenenter"",""5"",""16529""
","
","
","""event"",""trial"",""time""
""fullscreenenter"",""5"",""16529""
","
",981.145000001532,NA,49,NA,NA,3000,1,NA,NA,images/earth.jpg,images/rocket2,images/rocket1,null,images/rocket1,NA,1,real,null,1,NA,NA,NA,sub41
d3-animate-choice,145,683659,0.0-76.0-1.3,TRUE,FALSE,TRUE,TRUE,"""event"",""trial"",""time""
""fullscreenenter"",""5"",""16529""
","
","
","""event"",""trial"",""time""
""fullscreenenter"",""5"",""16529""
","
",759.7999999998137,NA,48,NA,NA,3000,1,NA,NA,images/redplanet1.jpg,images/alien2,images/alien1,images/rocket1,images/alien2,images/nothing.png,2,real,false,2,rare,0,2020-06-18T20:10:11Z,sub41
two-step-fixation,146,684663,0.0-76.0-2.3,TRUE,FALSE,TRUE,TRUE,"""event"",""trial"",""time""
""fullscreenenter"",""5"",""16529""
","
","
","""event"",""trial"",""time""
""fullscreenenter"",""5"",""16529""
","
",NA,images/earth.jpg,NA,NA,NA,NA,NA,NA,NA,NA,NA,NA,NA,NA,NA,fixation,NA,NA,NA,NA,NA,NA,sub41
d3-animate-choice,147,687368,0.0-76.0-0.4,TRUE,FALSE,TRUE,TRUE,"""event"",""trial"",""time""
""fullscreenenter"",""5"",""16529""
","
","
","""event"",""trial"",""time""
""fullscreenenter"",""5"",""16529""
","
",701.0850000006612,NA,48,NA,NA,3000,1,NA,NA,images/earth.jpg,images/rocket2,images/rocket1,null,images/rocket2,NA,1,real,null,2,NA,NA,NA,sub41
d3-animate-choice,148,690077,0.0-76.0-1.4,TRUE,FALSE,TRUE,TRUE,"""event"",""trial"",""time""
""fullscreenenter"",""5"",""16529""
","
","
","""event"",""trial"",""time""
""fullscreenenter"",""5"",""16529""
","
",703.3000000009779,NA,49,NA,NA,3000,1,NA,NA,images/redplanet1.jpg,images/alien2,images/alien1,images/rocket2,images/alien1,images/t.png,2,real,true,1,common,1,2020-06-18T20:10:18Z,sub41
two-step-fixation,149,691082,0.0-76.0-2.4,TRUE,FALSE,TRUE,TRUE,"""event"",""trial"",""time""
""fullscreenenter"",""5"",""16529""
","
","
","""event"",""trial"",""time""
""fullscreenenter"",""5"",""16529""
","
",NA,images/earth.jpg,NA,NA,NA,NA,NA,NA,NA,NA,NA,NA,NA,NA,NA,fixation,NA,NA,NA,NA,NA,NA,sub41
d3-animate-choice,150,695088,0.0-76.0-0.5,TRUE,FALSE,TRUE,TRUE,"""event"",""trial"",""time""
""fullscreenenter"",""5"",""16529""
","
","
","""event"",""trial"",""time""
""fullscreenenter"",""5"",""16529""
","
",2100.8649999966146,NA,48,NA,NA,3000,1,NA,NA,images/earth.jpg,images/rocket2,images/rocket1,null,images/rocket2,NA,1,real,null,2,NA,NA,NA,sub41
d3-animate-choice,151,697523,0.0-76.0-1.5,TRUE,FALSE,TRUE,TRUE,"""event"",""trial"",""time""
""fullscreenenter"",""5"",""16529""
","
","
","""event"",""trial"",""time""
""fullscreenenter"",""5"",""16529""
","
",425.3949999983888,NA,49,NA,NA,3000,1,NA,NA,images/purpleplanet.jpg,images/alien4,images/alien3,images/rocket2,images/alien3,images/t.png,2,real,false,1,rare,1,2020-06-18T20:10:25Z,sub41
two-step-fixation,152,698531,0.0-76.0-2.5,TRUE,FALSE,TRUE,TRUE,"""event"",""trial"",""time""
""fullscreenenter"",""5"",""16529""
","
","
","""event"",""trial"",""time""
""fullscreenenter"",""5"",""16529""
","
",NA,images/earth.jpg,NA,NA,NA,NA,NA,NA,NA,NA,NA,NA,NA,NA,NA,fixation,NA,NA,NA,NA,NA,NA,sub41
d3-animate-choice,153,700948,0.0-76.0-0.6,TRUE,FALSE,TRUE,TRUE,"""event"",""trial"",""time""
""fullscreenenter"",""5"",""16529""
","
","
","""event"",""trial"",""time""
""fullscreenenter"",""5"",""16529""
","
",410.4250000019092,NA,48,NA,NA,3000,1,NA,NA,images/earth.jpg,images/rocket2,images/rocket1,null,images/rocket2,NA,1,real,null,2,NA,NA,NA,sub41
d3-animate-choice,154,703560,0.0-76.0-1.6,TRUE,FALSE,TRUE,TRUE,"""event"",""trial"",""time""
""fullscreenenter"",""5"",""16529""
","
","
","""event"",""trial"",""time""
""fullscreenenter"",""5"",""16529""
","
",604.1350000014063,NA,49,NA,NA,3000,1,NA,NA,images/redplanet1.jpg,images/alien2,images/alien1,images/rocket2,images/alien1,images/nothing.png,2,real,true,1,common,0,2020-06-18T20:10:31Z,sub41
two-step-fixation,155,704567,0.0-76.0-2.6,TRUE,FALSE,TRUE,TRUE,"""event"",""trial"",""time""
""fullscreenenter"",""5"",""16529""
","
","
","""event"",""trial"",""time""
""fullscreenenter"",""5"",""16529""
","
",NA,images/earth.jpg,NA,NA,NA,NA,NA,NA,NA,NA,NA,NA,NA,NA,NA,fixation,NA,NA,NA,NA,NA,NA,sub41
d3-animate-choice,156,706682,0.0-76.0-0.7,TRUE,FALSE,TRUE,TRUE,"""event"",""trial"",""time""
""fullscreenenter"",""5"",""16529""
","
","
","""event"",""trial"",""time""
""fullscreenenter"",""5"",""16529""
","
",107.88500000117347,NA,48,NA,NA,3000,1,NA,NA,images/earth.jpg,images/rocket2,images/rocket1,null,images/rocket2,NA,1,real,null,2,NA,NA,NA,sub41
d3-animate-choice,157,708998,0.0-76.0-1.7,TRUE,FALSE,TRUE,TRUE,"""event"",""trial"",""time""
""fullscreenenter"",""5"",""16529""
","
","
","""event"",""trial"",""time""
""fullscreenenter"",""5"",""16529""
","
",306.1600000000326,NA,48,NA,NA,3000,1,NA,NA,images/purpleplanet.jpg,images/alien4,images/alien3,images/rocket2,images/alien4,images/t.png,2,real,false,2,rare,1,2020-06-18T20:10:37Z,sub41
two-step-fixation,158,710004,0.0-76.0-2.7,TRUE,FALSE,TRUE,TRUE,"""event"",""trial"",""time""
""fullscreenenter"",""5"",""16529""
","
","
","""event"",""trial"",""time""
""fullscreenenter"",""5"",""16529""
","
",NA,images/earth.jpg,NA,NA,NA,NA,NA,NA,NA,NA,NA,NA,NA,NA,NA,fixation,NA,NA,NA,NA,NA,NA,sub41
d3-animate-choice,159,712693,0.0-76.0-0.8,TRUE,FALSE,TRUE,TRUE,"""event"",""trial"",""time""
""fullscreenenter"",""5"",""16529""
","
","
","""event"",""trial"",""time""
""fullscreenenter"",""5"",""16529""
","
",682.5449999996927,NA,49,NA,NA,3000,1,NA,NA,images/earth.jpg,images/rocket2,images/rocket1,null,images/rocket1,NA,1,real,null,1,NA,NA,NA,sub41
d3-animate-choice,160,715194,0.0-76.0-1.8,TRUE,FALSE,TRUE,TRUE,"""event"",""trial"",""time""
""fullscreenenter"",""5"",""16529""
","
","
","""event"",""trial"",""time""
""fullscreenenter"",""5"",""16529""
","
",494.65000000060536,NA,48,NA,NA,3000,1,NA,NA,images/purpleplanet.jpg,images/alien4,images/alien3,images/rocket1,images/alien4,images/nothing.png,2,real,true,2,common,0,2020-06-18T20:10:43Z,sub41
two-step-fixation,161,716199,0.0-76.0-2.8,TRUE,FALSE,TRUE,TRUE,"""event"",""trial"",""time""
""fullscreenenter"",""5"",""16529""
","
","
","""event"",""trial"",""time""
""fullscreenenter"",""5"",""16529""
","
",NA,images/earth.jpg,NA,NA,NA,NA,NA,NA,NA,NA,NA,NA,NA,NA,NA,fixation,NA,NA,NA,NA,NA,NA,sub41
d3-animate-choice,162,718392,0.0-76.0-0.9,TRUE,FALSE,TRUE,TRUE,"""event"",""trial"",""time""
""fullscreenenter"",""5"",""16529""
","
","
","""event"",""trial"",""time""
""fullscreenenter"",""5"",""16529""
","
",184.30000000074506,NA,49,NA,NA,3000,1,NA,NA,images/earth.jpg,images/rocket2,images/rocket1,null,images/rocket1,NA,1,real,null,1,NA,NA,NA,sub41
d3-animate-choice,163,720849,0.0-76.0-1.9,TRUE,FALSE,TRUE,TRUE,"""event"",""trial"",""time""
""fullscreenenter"",""5"",""16529""
","
","
","""event"",""trial"",""time""
""fullscreenenter"",""5"",""16529""
","
",448.6299999989569,NA,49,NA,NA,3000,1,NA,NA,images/purpleplanet.jpg,images/alien4,images/alien3,images/rocket1,images/alien3,images/nothing.png,2,real,true,1,common,0,2020-06-18T20:10:49Z,sub41
two-step-fixation,164,721852,0.0-76.0-2.9,TRUE,FALSE,TRUE,TRUE,"""event"",""trial"",""time""
""fullscreenenter"",""5"",""16529""
","
","
","""event"",""trial"",""time""
""fullscreenenter"",""5"",""16529""
","
",NA,images/earth.jpg,NA,NA,NA,NA,NA,NA,NA,NA,NA,NA,NA,NA,NA,fixation,NA,NA,NA,NA,NA,NA,sub41
d3-animate-choice,165,724058,0.0-76.0-0.10,TRUE,FALSE,TRUE,TRUE,"""event"",""trial"",""time""
""fullscreenenter"",""5"",""16529""
","
","
","""event"",""trial"",""time""
""fullscreenenter"",""5"",""16529""
","
",199.59000000008382,NA,48,NA,NA,3000,1,NA,NA,images/earth.jpg,images/rocket2,images/rocket1,null,images/rocket2,NA,1,real,null,2,NA,NA,NA,sub41
d3-animate-choice,166,726417,0.0-76.0-1.10,TRUE,FALSE,TRUE,TRUE,"""event"",""trial"",""time""
""fullscreenenter"",""5"",""16529""
","
","
","""event"",""trial"",""time""
""fullscreenenter"",""5"",""16529""
","
",354.26000000012573,NA,48,NA,NA,3000,1,NA,NA,images/redplanet1.jpg,images/alien2,images/alien1,images/rocket2,images/alien2,images/t.png,2,real,true,2,common,1,2020-06-18T20:10:54Z,sub41
two-step-fixation,167,727419,0.0-76.0-2.10,TRUE,FALSE,TRUE,TRUE,"""event"",""trial"",""time""
""fullscreenenter"",""5"",""16529""
","
","
","""event"",""trial"",""time""
""fullscreenenter"",""5"",""16529""
","
",NA,images/earth.jpg,NA,NA,NA,NA,NA,NA,NA,NA,NA,NA,NA,NA,NA,fixation,NA,NA,NA,NA,NA,NA,sub41
d3-animate-choice,168,729962,0.0-76.0-0.11,TRUE,FALSE,TRUE,TRUE,"""event"",""trial"",""time""
""fullscreenenter"",""5"",""16529""
","
","
","""event"",""trial"",""time""
""fullscreenenter"",""5"",""16529""
","
",537.9350000002887,NA,49,NA,NA,3000,1,NA,NA,images/earth.jpg,images/rocket2,images/rocket1,null,images/rocket1,NA,1,real,null,1,NA,NA,NA,sub41
d3-animate-choice,169,732822,0.0-76.0-1.11,TRUE,FALSE,TRUE,TRUE,"""event"",""trial"",""time""
""fullscreenenter"",""5"",""16529""
","
","
","""event"",""trial"",""time""
""fullscreenenter"",""5"",""16529""
","
",854.1650000006193,NA,48,NA,NA,3000,1,NA,NA,images/redplanet1.jpg,images/alien2,images/alien1,images/rocket1,images/alien2,images/nothing.png,2,real,false,2,rare,0,2020-06-18T20:11:01Z,sub41
two-step-fixation,170,733825,0.0-76.0-2.11,TRUE,FALSE,TRUE,TRUE,"""event"",""trial"",""time""
""fullscreenenter"",""5"",""16529""
","
","
","""event"",""trial"",""time""
""fullscreenenter"",""5"",""16529""
","
",NA,images/earth.jpg,NA,NA,NA,NA,NA,NA,NA,NA,NA,NA,NA,NA,NA,fixation,NA,NA,NA,NA,NA,NA,sub41
d3-animate-choice,171,736030,0.0-76.0-0.12,TRUE,FALSE,TRUE,TRUE,"""event"",""trial"",""time""
""fullscreenenter"",""5"",""16529""
","
","
","""event"",""trial"",""time""
""fullscreenenter"",""5"",""16529""
","
",195.2099999979837,NA,48,NA,NA,3000,1,"597.1900000004098,961.0999999968335,1187.2599999987287,1404.2950000002747,1649.089999999036",4948484848,images/earth.jpg,images/rocket2,images/rocket1,null,images/rocket2,NA,1,real,null,2,NA,NA,NA,sub41
d3-animate-choice,172,738452,0.0-76.0-1.12,TRUE,FALSE,TRUE,TRUE,"""event"",""trial"",""time""
""fullscreenenter"",""5"",""16529""
","
","
","""event"",""trial"",""time""
""fullscreenenter"",""5"",""16529""
","
",416.8549999993993,NA,48,NA,NA,3000,1,NA,NA,images/redplanet1.jpg,images/alien2,images/alien1,images/rocket2,images/alien2,images/t.png,2,real,true,2,common,1,2020-06-18T20:11:06Z,sub41
two-step-fixation,173,739455,0.0-76.0-2.12,TRUE,FALSE,TRUE,TRUE,"""event"",""trial"",""time""
""fullscreenenter"",""5"",""16529""
","
","
","""event"",""trial"",""time""
""fullscreenenter"",""5"",""16529""
","
",NA,images/earth.jpg,NA,NA,NA,NA,NA,NA,NA,NA,NA,NA,NA,NA,NA,fixation,NA,NA,NA,NA,NA,NA,sub41
d3-animate-choice,174,741922,0.0-76.0-0.13,TRUE,FALSE,TRUE,TRUE,"""event"",""trial"",""time""
""fullscreenenter"",""5"",""16529""
","
","
","""event"",""trial"",""time""
""fullscreenenter"",""5"",""16529""
","
",459.275000001071,NA,49,NA,NA,3000,1,NA,NA,images/earth.jpg,images/rocket2,images/rocket1,null,images/rocket1,NA,1,real,null,1,NA,NA,NA,sub41
d3-animate-choice,175,744544,0.0-76.0-1.13,TRUE,FALSE,TRUE,TRUE,"""event"",""trial"",""time""
""fullscreenenter"",""5"",""16529""
","
","
","""event"",""trial"",""time""
""fullscreenenter"",""5"",""16529""
","
",616.7600000007078,NA,48,NA,NA,3000,1,NA,NA,images/purpleplanet.jpg,images/alien4,images/alien3,images/rocket1,images/alien4,images/t.png,2,real,true,2,common,1,2020-06-18T20:11:12Z,sub41
two-step-fixation,176,745548,0.0-76.0-2.13,TRUE,FALSE,TRUE,TRUE,"""event"",""trial"",""time""
""fullscreenenter"",""5"",""16529""
","
","
","""event"",""trial"",""time""
""fullscreenenter"",""5"",""16529""
","
",NA,images/earth.jpg,NA,NA,NA,NA,NA,NA,NA,NA,NA,NA,NA,NA,NA,fixation,NA,NA,NA,NA,NA,NA,sub41
d3-animate-choice,177,747563,0.0-76.0-0.14,TRUE,FALSE,TRUE,TRUE,"""event"",""trial"",""time""
""fullscreenenter"",""5"",""16529""
","
","
","""event"",""trial"",""time""
""fullscreenenter"",""5"",""16529""
","
",8.695000000530854,NA,49,NA,NA,3000,1,NA,NA,images/earth.jpg,images/rocket2,images/rocket1,null,images/rocket1,NA,1,real,null,1,NA,NA,NA,sub41
d3-animate-choice,178,750063,0.0-76.0-1.14,TRUE,FALSE,TRUE,TRUE,"""event"",""trial"",""time""
""fullscreenenter"",""5"",""16529""
","
","
","""event"",""trial"",""time""
""fullscreenenter"",""5"",""16529""
","
",492.6900000028545,NA,48,NA,NA,3000,1,NA,NA,images/redplanet1.jpg,images/alien2,images/alien1,images/rocket1,images/alien2,images/t.png,2,real,false,2,rare,1,2020-06-18T20:11:18Z,sub41
two-step-fixation,179,751070,0.0-76.0-2.14,TRUE,FALSE,TRUE,TRUE,"""event"",""trial"",""time""
""fullscreenenter"",""5"",""16529""
","
","
","""event"",""trial"",""time""
""fullscreenenter"",""5"",""16529""
","
",NA,images/earth.jpg,NA,NA,NA,NA,NA,NA,NA,NA,NA,NA,NA,NA,NA,fixation,NA,NA,NA,NA,NA,NA,sub41
d3-animate-choice,180,753920,0.0-76.0-0.15,TRUE,FALSE,TRUE,TRUE,"""event"",""trial"",""time""
""fullscreenenter"",""5"",""16529""
","
","
","""event"",""trial"",""time""
""fullscreenenter"",""5"",""16529""
","
",842.9099999994505,NA,48,NA,NA,3000,1,NA,NA,images/earth.jpg,images/rocket2,images/rocket1,null,images/rocket2,NA,1,real,null,2,NA,NA,NA,sub41
d3-animate-choice,181,756416,0.0-76.0-1.15,TRUE,FALSE,TRUE,TRUE,"""event"",""trial"",""time""
""fullscreenenter"",""5"",""16529""
","
","
","""event"",""trial"",""time""
""fullscreenenter"",""5"",""16529""
","
",487.3250000018161,NA,49,NA,NA,3000,1,NA,NA,images/redplanet1.jpg,images/alien2,images/alien1,images/rocket2,images/alien1,images/nothing.png,2,real,true,1,common,0,2020-06-18T20:11:24Z,sub41
two-step-fixation,182,757418,0.0-76.0-2.15,TRUE,FALSE,TRUE,TRUE,"""event"",""trial"",""time""
""fullscreenenter"",""5"",""16529""
","
","
","""event"",""trial"",""time""
""fullscreenenter"",""5"",""16529""
","
",NA,images/earth.jpg,NA,NA,NA,NA,NA,NA,NA,NA,NA,NA,NA,NA,NA,fixation,NA,NA,NA,NA,NA,NA,sub41
d3-animate-choice,183,759777,0.0-76.0-0.16,TRUE,FALSE,TRUE,TRUE,"""event"",""trial"",""time""
""fullscreenenter"",""5"",""16529""
","
","
","""event"",""trial"",""time""
""fullscreenenter"",""5"",""16529""
","
",353.19499999971595,NA,48,NA,NA,3000,1,NA,NA,images/earth.jpg,images/rocket2,images/rocket1,null,images/rocket2,NA,1,real,null,2,NA,NA,NA,sub41
d3-animate-choice,184,762813,0.0-76.0-1.16,TRUE,FALSE,TRUE,TRUE,"""event"",""trial"",""time""
""fullscreenenter"",""5"",""16529""
","
","
","""event"",""trial"",""time""
""fullscreenenter"",""5"",""16529""
","
",1027.5749999999534,NA,48,NA,NA,3000,1,NA,NA,images/purpleplanet.jpg,images/alien4,images/alien3,images/rocket2,images/alien4,images/t.png,2,real,false,2,rare,1,2020-06-18T20:11:31Z,sub41
two-step-fixation,185,763821,0.0-76.0-2.16,TRUE,FALSE,TRUE,TRUE,"""event"",""trial"",""time""
""fullscreenenter"",""5"",""16529""
","
","
","""event"",""trial"",""time""
""fullscreenenter"",""5"",""16529""
","
",NA,images/earth.jpg,NA,NA,NA,NA,NA,NA,NA,NA,NA,NA,NA,NA,NA,fixation,NA,NA,NA,NA,NA,NA,sub41
d3-animate-choice,186,766915,0.0-76.0-0.17,TRUE,FALSE,TRUE,TRUE,"""event"",""trial"",""time""
""fullscreenenter"",""5"",""16529""
","
","
","""event"",""trial"",""time""
""fullscreenenter"",""5"",""16529""
","
",1087.395000002347,NA,48,NA,NA,3000,1,NA,NA,images/earth.jpg,images/rocket2,images/rocket1,null,images/rocket2,NA,1,real,null,2,NA,NA,NA,sub41
d3-animate-choice,187,769699,0.0-76.0-1.17,TRUE,FALSE,TRUE,TRUE,"""event"",""trial"",""time""
""fullscreenenter"",""5"",""16529""
","
","
","""event"",""trial"",""time""
""fullscreenenter"",""5"",""16529""
","
",779.1450000004843,NA,48,NA,NA,3000,1,2621.194999999716,49,images/purpleplanet.jpg,images/alien4,images/alien3,images/rocket2,images/alien4,images/t.png,2,real,false,2,rare,1,2020-06-18T20:11:37Z,sub41
two-step-fixation,188,770703,0.0-76.0-2.17,TRUE,FALSE,TRUE,TRUE,"""event"",""trial"",""time""
""fullscreenenter"",""5"",""16529""
","
","
","""event"",""trial"",""time""
""fullscreenenter"",""5"",""16529""
","
",NA,images/earth.jpg,NA,NA,NA,NA,NA,NA,NA,NA,NA,NA,NA,NA,NA,fixation,NA,NA,NA,NA,NA,NA,sub41
d3-animate-choice,189,773460,0.0-76.0-0.18,TRUE,FALSE,TRUE,TRUE,"""event"",""trial"",""time""
""fullscreenenter"",""5"",""16529""
","
","
","""event"",""trial"",""time""
""fullscreenenter"",""5"",""16529""
","
",752.9099999992177,NA,48,NA,NA,3000,1,NA,NA,images/earth.jpg,images/rocket2,images/rocket1,null,images/rocket2,NA,1,real,null,2,NA,NA,NA,sub41
d3-animate-choice,190,776056,0.0-76.0-1.18,TRUE,FALSE,TRUE,TRUE,"""event"",""trial"",""time""
""fullscreenenter"",""5"",""16529""
","
","
","""event"",""trial"",""time""
""fullscreenenter"",""5"",""16529""
","
",591.2100000024075,NA,48,NA,NA,3000,1,NA,NA,images/purpleplanet.jpg,images/alien4,images/alien3,images/rocket2,images/alien4,images/t.png,2,real,false,2,rare,1,2020-06-18T20:11:44Z,sub41
two-step-fixation,191,777058,0.0-76.0-2.18,TRUE,FALSE,TRUE,TRUE,"""event"",""trial"",""time""
""fullscreenenter"",""5"",""16529""
","
","
","""event"",""trial"",""time""
""fullscreenenter"",""5"",""16529""
","
",NA,images/earth.jpg,NA,NA,NA,NA,NA,NA,NA,NA,NA,NA,NA,NA,NA,fixation,NA,NA,NA,NA,NA,NA,sub41
d3-animate-choice,192,779507,0.0-76.0-0.19,TRUE,FALSE,TRUE,TRUE,"""event"",""trial"",""time""
""fullscreenenter"",""5"",""16529""
","
","
","""event"",""trial"",""time""
""fullscreenenter"",""5"",""16529""
","
",443.889999998617,NA,49,NA,NA,3000,1,NA,NA,images/earth.jpg,images/rocket2,images/rocket1,null,images/rocket1,NA,1,real,null,1,NA,NA,NA,sub41
d3-animate-choice,193,782047,0.0-76.0-1.19,TRUE,FALSE,TRUE,TRUE,"""event"",""trial"",""time""
""fullscreenenter"",""5"",""16529""
","
","
","""event"",""trial"",""time""
""fullscreenenter"",""5"",""16529""
","
",534.7900000015507,NA,48,NA,NA,3000,1,NA,NA,images/redplanet1.jpg,images/alien2,images/alien1,images/rocket1,images/alien2,images/nothing.png,2,real,false,2,rare,0,2020-06-18T20:11:50Z,sub41
two-step-fixation,194,783051,0.0-76.0-2.19,TRUE,FALSE,TRUE,TRUE,"""event"",""trial"",""time""
""fullscreenenter"",""5"",""16529""
","
","
","""event"",""trial"",""time""
""fullscreenenter"",""5"",""16529""
","
",NA,images/earth.jpg,NA,NA,NA,NA,NA,NA,NA,NA,NA,NA,NA,NA,NA,fixation,NA,NA,NA,NA,NA,NA,sub41
d3-animate-choice,195,785384,0.0-76.0-0.20,TRUE,FALSE,TRUE,TRUE,"""event"",""trial"",""time""
""fullscreenenter"",""5"",""16529""
","
","
","""event"",""trial"",""time""
""fullscreenenter"",""5"",""16529""
","
",326.5949999986915,NA,48,NA,NA,3000,1,NA,NA,images/earth.jpg,images/rocket2,images/rocket1,null,images/rocket2,NA,1,real,null,2,NA,NA,NA,sub41
d3-animate-choice,196,787954,0.0-76.0-1.20,TRUE,FALSE,TRUE,TRUE,"""event"",""trial"",""time""
""fullscreenenter"",""5"",""16529""
","
","
","""event"",""trial"",""time""
""fullscreenenter"",""5"",""16529""
","
",562.5399999991059,NA,48,NA,NA,3000,1,NA,NA,images/redplanet1.jpg,images/alien2,images/alien1,images/rocket2,images/alien2,images/t.png,2,real,true,2,common,1,2020-06-18T20:11:56Z,sub41
two-step-fixation,197,788957,0.0-76.0-2.20,TRUE,FALSE,TRUE,TRUE,"""event"",""trial"",""time""
""fullscreenenter"",""5"",""16529""
","
","
","""event"",""trial"",""time""
""fullscreenenter"",""5"",""16529""
","
",NA,images/earth.jpg,NA,NA,NA,NA,NA,NA,NA,NA,NA,NA,NA,NA,NA,fixation,NA,NA,NA,NA,NA,NA,sub41
d3-animate-choice,198,791393,0.0-76.0-0.21,TRUE,FALSE,TRUE,TRUE,"""event"",""trial"",""time""
""fullscreenenter"",""5"",""16529""
","
","
","""event"",""trial"",""time""
""fullscreenenter"",""5"",""16529""
","
",427.5100000012899,NA,48,NA,NA,3000,1,NA,NA,images/earth.jpg,images/rocket2,images/rocket1,null,images/rocket2,NA,1,real,null,2,NA,NA,NA,sub41
d3-animate-choice,199,793917,0.0-76.0-1.21,TRUE,FALSE,TRUE,TRUE,"""event"",""trial"",""time""
""fullscreenenter"",""5"",""16529""
","
","
","""event"",""trial"",""time""
""fullscreenenter"",""5"",""16529""
","
",518.1049999991665,NA,48,NA,NA,3000,1,NA,NA,images/redplanet1.jpg,images/alien2,images/alien1,images/rocket2,images/alien2,images/t.png,2,real,true,2,common,1,2020-06-18T20:12:02Z,sub41
two-step-fixation,200,794922,0.0-76.0-2.21,TRUE,FALSE,TRUE,TRUE,"""event"",""trial"",""time""
""fullscreenenter"",""5"",""16529""
","
","
","""event"",""trial"",""time""
""fullscreenenter"",""5"",""16529""
","
",NA,images/earth.jpg,NA,NA,NA,NA,NA,NA,NA,NA,NA,NA,NA,NA,NA,fixation,NA,NA,NA,NA,NA,NA,sub41
d3-animate-choice,201,797450,0.0-76.0-0.22,TRUE,FALSE,TRUE,TRUE,"""event"",""trial"",""time""
""fullscreenenter"",""5"",""16529""
","
","
","""event"",""trial"",""time""
""fullscreenenter"",""5"",""16529""
","
",522.1500000007218,NA,48,NA,NA,3000,1,NA,NA,images/earth.jpg,images/rocket2,images/rocket1,null,images/rocket2,NA,1,real,null,2,NA,NA,NA,sub41
d3-animate-choice,202,800037,0.0-76.0-1.22,TRUE,FALSE,TRUE,TRUE,"""event"",""trial"",""time""
""fullscreenenter"",""5"",""16529""
","
","
","""event"",""trial"",""time""
""fullscreenenter"",""5"",""16529""
","
",579.734999999404,NA,48,NA,NA,3000,1,NA,NA,images/redplanet1.jpg,images/alien2,images/alien1,images/rocket2,images/alien2,images/t.png,2,real,true,2,common,1,2020-06-18T20:12:08Z,sub41
two-step-fixation,203,801040,0.0-76.0-2.22,TRUE,FALSE,TRUE,TRUE,"""event"",""trial"",""time""
""fullscreenenter"",""5"",""16529""
","
","
","""event"",""trial"",""time""
""fullscreenenter"",""5"",""16529""
","
",NA,images/earth.jpg,NA,NA,NA,NA,NA,NA,NA,NA,NA,NA,NA,NA,NA,fixation,NA,NA,NA,NA,NA,NA,sub41
d3-animate-choice,204,803326,0.0-76.0-0.23,TRUE,FALSE,TRUE,TRUE,"""event"",""trial"",""time""
""fullscreenenter"",""5"",""16529""
","
","
","""event"",""trial"",""time""
""fullscreenenter"",""5"",""16529""
","
",281.26500000141095,NA,48,NA,NA,3000,1,NA,NA,images/earth.jpg,images/rocket2,images/rocket1,null,images/rocket2,NA,1,real,null,2,NA,NA,NA,sub41
d3-animate-choice,205,806035,0.0-76.0-1.23,TRUE,FALSE,TRUE,TRUE,"""event"",""trial"",""time""
""fullscreenenter"",""5"",""16529""
","
","
","""event"",""trial"",""time""
""fullscreenenter"",""5"",""16529""
","
",699.6049999980023,NA,48,NA,NA,3000,1,NA,NA,images/redplanet1.jpg,images/alien2,images/alien1,images/rocket2,images/alien2,images/nothing.png,2,real,true,2,common,0,2020-06-18T20:12:14Z,sub41
two-step-fixation,206,807038,0.0-76.0-2.23,TRUE,FALSE,TRUE,TRUE,"""event"",""trial"",""time""
""fullscreenenter"",""5"",""16529""
","
","
","""event"",""trial"",""time""
""fullscreenenter"",""5"",""16529""
","
",NA,images/earth.jpg,NA,NA,NA,NA,NA,NA,NA,NA,NA,NA,NA,NA,NA,fixation,NA,NA,NA,NA,NA,NA,sub41
d3-animate-choice,207,810236,0.0-76.0-0.24,TRUE,FALSE,TRUE,TRUE,"""event"",""trial"",""time""
""fullscreenenter"",""5"",""16529""
","
","
","""event"",""trial"",""time""
""fullscreenenter"",""5"",""16529""
","
",1191.8349999978673,NA,49,NA,NA,3000,1,NA,NA,images/earth.jpg,images/rocket2,images/rocket1,null,images/rocket1,NA,1,real,null,1,NA,NA,NA,sub41
d3-animate-choice,208,812693,0.0-76.0-1.24,TRUE,FALSE,TRUE,TRUE,"""event"",""trial"",""time""
""fullscreenenter"",""5"",""16529""
","
","
","""event"",""trial"",""time""
""fullscreenenter"",""5"",""16529""
","
",452.1050000003306,NA,48,NA,NA,3000,1,NA,NA,images/purpleplanet.jpg,images/alien4,images/alien3,images/rocket1,images/alien4,images/nothing.png,2,real,true,2,common,0,2020-06-18T20:12:20Z,sub41
two-step-fixation,209,813696,0.0-76.0-2.24,TRUE,FALSE,TRUE,TRUE,"""event"",""trial"",""time""
""fullscreenenter"",""5"",""16529""
","
","
","""event"",""trial"",""time""
""fullscreenenter"",""5"",""16529""
","
",NA,images/earth.jpg,NA,NA,NA,NA,NA,NA,NA,NA,NA,NA,NA,NA,NA,fixation,NA,NA,NA,NA,NA,NA,sub41
d3-animate-choice,210,816019,0.0-76.0-0.25,TRUE,FALSE,TRUE,TRUE,"""event"",""trial"",""time""
""fullscreenenter"",""5"",""16529""
","
","
","""event"",""trial"",""time""
""fullscreenenter"",""5"",""16529""
","
",318.11499999824446,NA,49,NA,NA,3000,1,"2034.299999999348,2150.4649999988033",4848,images/earth.jpg,images/rocket2,images/rocket1,null,images/rocket1,NA,1,real,null,1,NA,NA,NA,sub41
d3-animate-choice,211,818395,0.0-76.0-1.25,TRUE,FALSE,TRUE,TRUE,"""event"",""trial"",""time""
""fullscreenenter"",""5"",""16529""
","
","
","""event"",""trial"",""time""
""fullscreenenter"",""5"",""16529""
","
",371.175000000163,NA,48,NA,NA,3000,1,NA,NA,images/purpleplanet.jpg,images/alien4,images/alien3,images/rocket1,images/alien4,images/nothing.png,2,real,true,2,common,0,2020-06-18T20:12:26Z,sub41
two-step-fixation,212,819398,0.0-76.0-2.25,TRUE,FALSE,TRUE,TRUE,"""event"",""trial"",""time""
""fullscreenenter"",""5"",""16529""
","
","
","""event"",""trial"",""time""
""fullscreenenter"",""5"",""16529""
","
",NA,images/earth.jpg,NA,NA,NA,NA,NA,NA,NA,NA,NA,NA,NA,NA,NA,fixation,NA,NA,NA,NA,NA,NA,sub41
d3-animate-choice,213,821769,0.0-76.0-0.26,TRUE,FALSE,TRUE,TRUE,"""event"",""trial"",""time""
""fullscreenenter"",""5"",""16529""
","
","
","""event"",""trial"",""time""
""fullscreenenter"",""5"",""16529""
","
",366.35500000196043,NA,49,NA,NA,3000,1,NA,NA,images/earth.jpg,images/rocket2,images/rocket1,null,images/rocket1,NA,1,real,null,1,NA,NA,NA,sub41
d3-animate-choice,214,824099,0.0-76.0-1.26,TRUE,FALSE,TRUE,TRUE,"""event"",""trial"",""time""
""fullscreenenter"",""5"",""16529""
","
","
","""event"",""trial"",""time""
""fullscreenenter"",""5"",""16529""
","
",322.81999999762047,NA,49,NA,NA,3000,1,NA,NA,images/purpleplanet.jpg,images/alien4,images/alien3,images/rocket1,images/alien3,images/nothing.png,2,real,true,1,common,0,2020-06-18T20:12:32Z,sub41
two-step-fixation,215,825103,0.0-76.0-2.26,TRUE,FALSE,TRUE,TRUE,"""event"",""trial"",""time""
""fullscreenenter"",""5"",""16529""
","
","
","""event"",""trial"",""time""
""fullscreenenter"",""5"",""16529""
","
",NA,images/earth.jpg,NA,NA,NA,NA,NA,NA,NA,NA,NA,NA,NA,NA,NA,fixation,NA,NA,NA,NA,NA,NA,sub41
d3-animate-choice,216,827817,0.0-76.0-0.27,TRUE,FALSE,TRUE,TRUE,"""event"",""trial"",""time""
""fullscreenenter"",""5"",""16529""
","
","
","""event"",""trial"",""time""
""fullscreenenter"",""5"",""16529""
","
",703.6049999988172,NA,48,NA,NA,3000,1,"1263.5099999969825,1939.7049999970477,2395.440000000177,2674.5400000000373",49494949,images/earth.jpg,images/rocket2,images/rocket1,null,images/rocket2,NA,1,real,null,2,NA,NA,NA,sub41
d3-animate-choice,217,830134,0.0-76.0-1.27,TRUE,FALSE,TRUE,TRUE,"""event"",""trial"",""time""
""fullscreenenter"",""5"",""16529""
","
","
","""event"",""trial"",""time""
""fullscreenenter"",""5"",""16529""
","
",312.3100000011036,NA,49,NA,NA,3000,1,2235.384999999893,48,images/purpleplanet.jpg,images/alien4,images/alien3,images/rocket2,images/alien3,images/nothing.png,2,real,false,1,rare,0,2020-06-18T20:12:38Z,sub41
two-step-fixation,218,831139,0.0-76.0-2.27,TRUE,FALSE,TRUE,TRUE,"""event"",""trial"",""time""
""fullscreenenter"",""5"",""16529""
","
","
","""event"",""trial"",""time""
""fullscreenenter"",""5"",""16529""
","
",NA,images/earth.jpg,NA,NA,NA,NA,NA,NA,NA,NA,NA,NA,NA,NA,NA,fixation,NA,NA,NA,NA,NA,NA,sub41
d3-animate-choice,219,833154,0.0-76.0-0.28,TRUE,FALSE,TRUE,TRUE,"""event"",""trial"",""time""
""fullscreenenter"",""5"",""16529""
","
","
","""event"",""trial"",""time""
""fullscreenenter"",""5"",""16529""
","
",7.404999996651895,NA,48,NA,NA,3000,1,268.02499999757856,48,images/earth.jpg,images/rocket2,images/rocket1,null,images/rocket2,NA,1,real,null,2,NA,NA,NA,sub41
d3-animate-choice,220,835928,0.0-76.0-1.28,TRUE,FALSE,TRUE,TRUE,"""event"",""trial"",""time""
""fullscreenenter"",""5"",""16529""
","
","
","""event"",""trial"",""time""
""fullscreenenter"",""5"",""16529""
","
",769.8600000003353,NA,49,NA,NA,3000,1,NA,NA,images/purpleplanet.jpg,images/alien4,images/alien3,images/rocket2,images/alien3,images/nothing.png,2,real,false,1,rare,0,2020-06-18T20:12:44Z,sub41
two-step-fixation,221,836931,0.0-76.0-2.28,TRUE,FALSE,TRUE,TRUE,"""event"",""trial"",""time""
""fullscreenenter"",""5"",""16529""
","
","
","""event"",""trial"",""time""
""fullscreenenter"",""5"",""16529""
","
",NA,images/earth.jpg,NA,NA,NA,NA,NA,NA,NA,NA,NA,NA,NA,NA,NA,fixation,NA,NA,NA,NA,NA,NA,sub41
d3-animate-choice,222,838946,0.0-76.0-0.29,TRUE,FALSE,TRUE,TRUE,"""event"",""trial"",""time""
""fullscreenenter"",""5"",""16529""
","
","
","""event"",""trial"",""time""
""fullscreenenter"",""5"",""16529""
","
",10.054999998770654,NA,48,NA,NA,3000,1,"232.35999999812339,421.0849999981001,643.0899999977555,872.0949999988079,1101.9099999975879,1498.3399999982212,1943.0449999999255",48484848484848,images/earth.jpg,images/rocket2,images/rocket1,null,images/rocket2,NA,1,real,null,2,NA,NA,NA,sub41
d3-animate-choice,223,841136,0.0-76.0-1.29,TRUE,FALSE,TRUE,TRUE,"""event"",""trial"",""time""
""fullscreenenter"",""5"",""16529""
","
","
","""event"",""trial"",""time""
""fullscreenenter"",""5"",""16529""
","
",183.12999999755993,NA,48,NA,NA,3000,1,"429.24999999743886,685.0399999966612,909.9099999985192,1129.144999998971,1317.9599999967031,1566.334999999497,1809.0549999978393,2027.0549999986542",4848484848484848,images/redplanet1.jpg,images/alien2,images/alien1,images/rocket2,images/alien2,images/nothing.png,2,real,true,2,common,0,2020-06-18T20:12:49Z,sub41
two-step-fixation,224,842139,0.0-76.0-2.29,TRUE,FALSE,TRUE,TRUE,"""event"",""trial"",""time""
""fullscreenenter"",""5"",""16529""
","
","
","""event"",""trial"",""time""
""fullscreenenter"",""5"",""16529""
","
",NA,images/earth.jpg,NA,NA,NA,NA,NA,NA,NA,NA,NA,NA,NA,NA,NA,fixation,NA,NA,NA,NA,NA,NA,sub41
d3-animate-choice,225,844308,0.0-76.0-0.30,TRUE,FALSE,TRUE,TRUE,"""event"",""trial"",""time""
""fullscreenenter"",""5"",""16529""
","
","
","""event"",""trial"",""time""
""fullscreenenter"",""5"",""16529""
","
",162.6749999995809,NA,48,NA,NA,3000,1,"431.6499999986263,644.5299999976996,879.5800000006566,1124.3949999988545,1522.8299999980954",4848484848,images/earth.jpg,images/rocket2,images/rocket1,null,images/rocket2,NA,1,real,null,2,NA,NA,NA,sub41
d3-animate-choice,226,846326,0.0-76.0-1.30,TRUE,FALSE,TRUE,TRUE,"""event"",""trial"",""time""
""fullscreenenter"",""5"",""16529""
","
","
","""event"",""trial"",""time""
""fullscreenenter"",""5"",""16529""
","
",13.115000001620501,NA,48,NA,NA,3000,1,NA,NA,images/redplanet1.jpg,images/alien2,images/alien1,images/rocket2,images/alien2,images/t.png,2,real,true,2,common,1,2020-06-18T20:12:54Z,sub41
two-step-fixation,227,847330,0.0-76.0-2.30,TRUE,FALSE,TRUE,TRUE,"""event"",""trial"",""time""
""fullscreenenter"",""5"",""16529""
","
","
","""event"",""trial"",""time""
""fullscreenenter"",""5"",""16529""
","
",NA,images/earth.jpg,NA,NA,NA,NA,NA,NA,NA,NA,NA,NA,NA,NA,NA,fixation,NA,NA,NA,NA,NA,NA,sub41
d3-animate-choice,228,849757,0.0-76.0-0.31,TRUE,FALSE,TRUE,TRUE,"""event"",""trial"",""time""
""fullscreenenter"",""5"",""16529""
","
","
","""event"",""trial"",""time""
""fullscreenenter"",""5"",""16529""
","
",417.40999999828637,NA,48,NA,NA,3000,1,NA,NA,images/earth.jpg,images/rocket2,images/rocket1,null,images/rocket2,NA,1,real,null,2,NA,NA,NA,sub41
d3-animate-choice,229,852212,0.0-76.0-1.31,TRUE,FALSE,TRUE,TRUE,"""event"",""trial"",""time""
""fullscreenenter"",""5"",""16529""
","
","
","""event"",""trial"",""time""
""fullscreenenter"",""5"",""16529""
","
",447.82499999925494,NA,48,NA,NA,3000,1,2185.9450000009965,48,images/redplanet1.jpg,images/alien2,images/alien1,images/rocket2,images/alien2,images/nothing.png,2,real,true,2,common,0,2020-06-18T20:13:00Z,sub41
two-step-fixation,230,853214,0.0-76.0-2.31,TRUE,FALSE,TRUE,TRUE,"""event"",""trial"",""time""
""fullscreenenter"",""5"",""16529""
","
","
","""event"",""trial"",""time""
""fullscreenenter"",""5"",""16529""
","
",NA,images/earth.jpg,NA,NA,NA,NA,NA,NA,NA,NA,NA,NA,NA,NA,NA,fixation,NA,NA,NA,NA,NA,NA,sub41
d3-animate-choice,231,855540,0.0-76.0-0.32,TRUE,FALSE,TRUE,TRUE,"""event"",""trial"",""time""
""fullscreenenter"",""5"",""16529""
","
","
","""event"",""trial"",""time""
""fullscreenenter"",""5"",""16529""
","
",318.27999999944586,NA,49,NA,NA,3000,1,NA,NA,images/earth.jpg,images/rocket2,images/rocket1,null,images/rocket1,NA,1,real,null,1,NA,NA,NA,sub41
d3-animate-choice,232,857889,0.0-76.0-1.32,TRUE,FALSE,TRUE,TRUE,"""event"",""trial"",""time""
""fullscreenenter"",""5"",""16529""
","
","
","""event"",""trial"",""time""
""fullscreenenter"",""5"",""16529""
","
",344.7149999993853,NA,48,NA,NA,3000,1,"1358.6949999990175,2156.5300000002608",4848,images/purpleplanet.jpg,images/alien4,images/alien3,images/rocket1,images/alien4,images/t.png,2,real,true,2,common,1,2020-06-18T20:13:06Z,sub41
two-step-fixation,233,858892,0.0-76.0-2.32,TRUE,FALSE,TRUE,TRUE,"""event"",""trial"",""time""
""fullscreenenter"",""5"",""16529""
","
","
","""event"",""trial"",""time""
""fullscreenenter"",""5"",""16529""
","
",NA,images/earth.jpg,NA,NA,NA,NA,NA,NA,NA,NA,NA,NA,NA,NA,NA,fixation,NA,NA,NA,NA,NA,NA,sub41
d3-animate-choice,234,861347,0.0-76.0-0.33,TRUE,FALSE,TRUE,TRUE,"""event"",""trial"",""time""
""fullscreenenter"",""5"",""16529""
","
","
","""event"",""trial"",""time""
""fullscreenenter"",""5"",""16529""
","
",448.0600000025006,NA,48,NA,NA,3000,1,NA,NA,images/earth.jpg,images/rocket2,images/rocket1,null,images/rocket2,NA,1,real,null,2,NA,NA,NA,sub41
d3-animate-choice,235,864031,0.0-76.0-1.33,TRUE,FALSE,TRUE,TRUE,"""event"",""trial"",""time""
""fullscreenenter"",""5"",""16529""
","
","
","""event"",""trial"",""time""
""fullscreenenter"",""5"",""16529""
","
",676.769999998156,NA,48,NA,NA,3000,1,NA,NA,images/purpleplanet.jpg,images/alien4,images/alien3,images/rocket2,images/alien4,images/t.png,2,real,false,2,rare,1,2020-06-18T20:13:12Z,sub41
two-step-fixation,236,865033,0.0-76.0-2.33,TRUE,FALSE,TRUE,TRUE,"""event"",""trial"",""time""
""fullscreenenter"",""5"",""16529""
","
","
","""event"",""trial"",""time""
""fullscreenenter"",""5"",""16529""
","
",NA,images/earth.jpg,NA,NA,NA,NA,NA,NA,NA,NA,NA,NA,NA,NA,NA,fixation,NA,NA,NA,NA,NA,NA,sub41
d3-animate-choice,237,867252,0.0-76.0-0.34,TRUE,FALSE,TRUE,TRUE,"""event"",""trial"",""time""
""fullscreenenter"",""5"",""16529""
","
","
","""event"",""trial"",""time""
""fullscreenenter"",""5"",""16529""
","
",213.09499999927357,NA,49,NA,NA,3000,1,NA,NA,images/earth.jpg,images/rocket2,images/rocket1,null,images/rocket1,NA,1,real,null,1,NA,NA,NA,sub41
d3-animate-choice,238,870067,0.0-76.0-1.34,TRUE,FALSE,TRUE,TRUE,"""event"",""trial"",""time""
""fullscreenenter"",""5"",""16529""
","
","
","""event"",""trial"",""time""
""fullscreenenter"",""5"",""16529""
","
",810.5249999971129,NA,48,NA,NA,3000,1,NA,NA,images/redplanet1.jpg,images/alien2,images/alien1,images/rocket1,images/alien2,images/t.png,2,real,false,2,rare,1,2020-06-18T20:13:18Z,sub41
two-step-fixation,239,871070,0.0-76.0-2.34,TRUE,FALSE,TRUE,TRUE,"""event"",""trial"",""time""
""fullscreenenter"",""5"",""16529""
","
","
","""event"",""trial"",""time""
""fullscreenenter"",""5"",""16529""
","
",NA,images/earth.jpg,NA,NA,NA,NA,NA,NA,NA,NA,NA,NA,NA,NA,NA,fixation,NA,NA,NA,NA,NA,NA,sub41
d3-animate-choice,240,873372,0.0-76.0-0.35,TRUE,FALSE,TRUE,TRUE,"""event"",""trial"",""time""
""fullscreenenter"",""5"",""16529""
","
","
","""event"",""trial"",""time""
""fullscreenenter"",""5"",""16529""
","
",295.93000000016764,NA,49,NA,NA,3000,1,NA,NA,images/earth.jpg,images/rocket2,images/rocket1,null,images/rocket1,NA,1,real,null,1,NA,NA,NA,sub41
d3-animate-choice,241,875682,0.0-76.0-1.35,TRUE,FALSE,TRUE,TRUE,"""event"",""trial"",""time""
""fullscreenenter"",""5"",""16529""
","
","
","""event"",""trial"",""time""
""fullscreenenter"",""5"",""16529""
","
",302.1300000001211,NA,48,NA,NA,3000,1,NA,NA,images/purpleplanet.jpg,images/alien4,images/alien3,images/rocket1,images/alien4,images/t.png,2,real,true,2,common,1,2020-06-18T20:13:23Z,sub41
two-step-fixation,242,876684,0.0-76.0-2.35,TRUE,FALSE,TRUE,TRUE,"""event"",""trial"",""time""
""fullscreenenter"",""5"",""16529""
","
","
","""event"",""trial"",""time""
""fullscreenenter"",""5"",""16529""
","
",NA,images/earth.jpg,NA,NA,NA,NA,NA,NA,NA,NA,NA,NA,NA,NA,NA,fixation,NA,NA,NA,NA,NA,NA,sub41
d3-animate-choice,243,878859,0.0-76.0-0.36,TRUE,FALSE,TRUE,TRUE,"""event"",""trial"",""time""
""fullscreenenter"",""5"",""16529""
","
","
","""event"",""trial"",""time""
""fullscreenenter"",""5"",""16529""
","
",166.3750000006985,NA,48,NA,NA,3000,1,NA,NA,images/earth.jpg,images/rocket2,images/rocket1,null,images/rocket2,NA,1,real,null,2,NA,NA,NA,sub41
d3-animate-choice,244,881507,0.0-76.0-1.36,TRUE,FALSE,TRUE,TRUE,"""event"",""trial"",""time""
""fullscreenenter"",""5"",""16529""
","
","
","""event"",""trial"",""time""
""fullscreenenter"",""5"",""16529""
","
",643.6350000003586,NA,48,NA,NA,3000,1,NA,NA,images/redplanet1.jpg,images/alien2,images/alien1,images/rocket2,images/alien2,images/t.png,2,real,true,2,common,1,2020-06-18T20:13:29Z,sub41
two-step-fixation,245,882511,0.0-76.0-2.36,TRUE,FALSE,TRUE,TRUE,"""event"",""trial"",""time""
""fullscreenenter"",""5"",""16529""
","
","
","""event"",""trial"",""time""
""fullscreenenter"",""5"",""16529""
","
",NA,images/earth.jpg,NA,NA,NA,NA,NA,NA,NA,NA,NA,NA,NA,NA,NA,fixation,NA,NA,NA,NA,NA,NA,sub41
d3-animate-choice,246,885000,0.0-76.0-0.37,TRUE,FALSE,TRUE,TRUE,"""event"",""trial"",""time""
""fullscreenenter"",""5"",""16529""
","
","
","""event"",""trial"",""time""
""fullscreenenter"",""5"",""16529""
","
",481.88999999908265,NA,48,NA,NA,3000,1,NA,NA,images/earth.jpg,images/rocket2,images/rocket1,null,images/rocket2,NA,1,real,null,2,NA,NA,NA,sub41
d3-animate-choice,247,887259,0.0-76.0-1.37,TRUE,FALSE,TRUE,TRUE,"""event"",""trial"",""time""
""fullscreenenter"",""5"",""16529""
","
","
","""event"",""trial"",""time""
""fullscreenenter"",""5"",""16529""
","
",253.45999999996275,NA,48,NA,NA,3000,1,NA,NA,images/redplanet1.jpg,images/alien2,images/alien1,images/rocket2,images/alien2,images/nothing.png,2,real,true,2,common,0,2020-06-18T20:13:35Z,sub41
two-step-fixation,248,888263,0.0-76.0-2.37,TRUE,FALSE,TRUE,TRUE,"""event"",""trial"",""time""
""fullscreenenter"",""5"",""16529""
","
","
","""event"",""trial"",""time""
""fullscreenenter"",""5"",""16529""
","
",NA,images/earth.jpg,NA,NA,NA,NA,NA,NA,NA,NA,NA,NA,NA,NA,NA,fixation,NA,NA,NA,NA,NA,NA,sub41
d3-animate-choice,249,890444,0.0-76.0-0.38,TRUE,FALSE,TRUE,TRUE,"""event"",""trial"",""time""
""fullscreenenter"",""5"",""16529""
","
","
","""event"",""trial"",""time""
""fullscreenenter"",""5"",""16529""
","
",174.8200000001816,NA,48,NA,NA,3000,1,NA,NA,images/earth.jpg,images/rocket2,images/rocket1,null,images/rocket2,NA,1,real,null,2,NA,NA,NA,sub41
d3-animate-choice,250,893006,0.0-76.0-1.38,TRUE,FALSE,TRUE,TRUE,"""event"",""trial"",""time""
""fullscreenenter"",""5"",""16529""
","
","
","""event"",""trial"",""time""
""fullscreenenter"",""5"",""16529""
","
",556.5949999981094,NA,49,NA,NA,3000,1,NA,NA,images/purpleplanet.jpg,images/alien4,images/alien3,images/rocket2,images/alien3,images/nothing.png,2,real,false,1,rare,0,2020-06-18T20:13:41Z,sub41
two-step-fixation,251,894010,0.0-76.0-2.38,TRUE,FALSE,TRUE,TRUE,"""event"",""trial"",""time""
""fullscreenenter"",""5"",""16529""
","
","
","""event"",""trial"",""time""
""fullscreenenter"",""5"",""16529""
","
",NA,images/earth.jpg,NA,NA,NA,NA,NA,NA,NA,NA,NA,NA,NA,NA,NA,fixation,NA,NA,NA,NA,NA,NA,sub41
d3-animate-choice,252,896245,0.0-76.0-0.39,TRUE,FALSE,TRUE,TRUE,"""event"",""trial"",""time""
""fullscreenenter"",""5"",""16529""
","
","
","""event"",""trial"",""time""
""fullscreenenter"",""5"",""16529""
","
",228.6050000002142,NA,48,NA,NA,3000,1,602.3150000000605,32,images/earth.jpg,images/rocket2,images/rocket1,null,images/rocket2,NA,1,real,null,2,NA,NA,NA,sub41
d3-animate-choice,253,898693,0.0-76.0-1.39,TRUE,FALSE,TRUE,TRUE,"""event"",""trial"",""time""
""fullscreenenter"",""5"",""16529""
","
","
","""event"",""trial"",""time""
""fullscreenenter"",""5"",""16529""
","
",442.18499999982305,NA,48,NA,NA,3000,1,NA,NA,images/redplanet1.jpg,images/alien2,images/alien1,images/rocket2,images/alien2,images/nothing.png,2,real,true,2,common,0,2020-06-18T20:13:46Z,sub41
two-step-fixation,254,899698,0.0-76.0-2.39,TRUE,FALSE,TRUE,TRUE,"""event"",""trial"",""time""
""fullscreenenter"",""5"",""16529""
","
","
","""event"",""trial"",""time""
""fullscreenenter"",""5"",""16529""
","
",NA,images/earth.jpg,NA,NA,NA,NA,NA,NA,NA,NA,NA,NA,NA,NA,NA,fixation,NA,NA,NA,NA,NA,NA,sub41
d3-animate-choice,255,901862,0.0-76.0-0.40,TRUE,FALSE,TRUE,TRUE,"""event"",""trial"",""time""
""fullscreenenter"",""5"",""16529""
","
","
","""event"",""trial"",""time""
""fullscreenenter"",""5"",""16529""
","
",154.25999999931082,NA,48,NA,NA,3000,1,NA,NA,images/earth.jpg,images/rocket2,images/rocket1,null,images/rocket2,NA,1,real,null,2,NA,NA,NA,sub41
d3-animate-choice,256,904870,0.0-76.0-1.40,TRUE,FALSE,TRUE,TRUE,"""event"",""trial"",""time""
""fullscreenenter"",""5"",""16529""
","
","
","""event"",""trial"",""time""
""fullscreenenter"",""5"",""16529""
","
",1000.4850000005681,NA,49,NA,NA,3000,1,NA,NA,images/purpleplanet.jpg,images/alien4,images/alien3,images/rocket2,images/alien3,images/nothing.png,2,real,false,1,rare,0,2020-06-18T20:13:53Z,sub41
two-step-fixation,257,905873,0.0-76.0-2.40,TRUE,FALSE,TRUE,TRUE,"""event"",""trial"",""time""
""fullscreenenter"",""5"",""16529""
","
","
","""event"",""trial"",""time""
""fullscreenenter"",""5"",""16529""
","
",NA,images/earth.jpg,NA,NA,NA,NA,NA,NA,NA,NA,NA,NA,NA,NA,NA,fixation,NA,NA,NA,NA,NA,NA,sub41
d3-animate-choice,258,908408,0.0-76.0-0.41,TRUE,FALSE,TRUE,TRUE,"""event"",""trial"",""time""
""fullscreenenter"",""5"",""16529""
","
","
","""event"",""trial"",""time""
""fullscreenenter"",""5"",""16529""
","
",530.4700000014855,NA,48,NA,NA,3000,1,1283.2999999991152,48,images/earth.jpg,images/rocket2,images/rocket1,null,images/rocket2,NA,1,real,null,2,NA,NA,NA,sub41
d3-animate-choice,259,911797,0.0-76.0-1.41,TRUE,FALSE,TRUE,TRUE,"""event"",""trial"",""time""
""fullscreenenter"",""5"",""16529""
","
","
","""event"",""trial"",""time""
""fullscreenenter"",""5"",""16529""
","
",1383.5349999972386,NA,49,NA,NA,3000,1,NA,NA,images/redplanet1.jpg,images/alien2,images/alien1,images/rocket2,images/alien1,images/t.png,2,real,true,1,common,1,2020-06-18T20:14:00Z,sub41
two-step-fixation,260,912802,0.0-76.0-2.41,TRUE,FALSE,TRUE,TRUE,"""event"",""trial"",""time""
""fullscreenenter"",""5"",""16529""
","
","
","""event"",""trial"",""time""
""fullscreenenter"",""5"",""16529""
","
",NA,images/earth.jpg,NA,NA,NA,NA,NA,NA,NA,NA,NA,NA,NA,NA,NA,fixation,NA,NA,NA,NA,NA,NA,sub41
d3-animate-choice,261,915262,0.0-76.0-0.42,TRUE,FALSE,TRUE,TRUE,"""event"",""trial"",""time""
""fullscreenenter"",""5"",""16529""
","
","
","""event"",""trial"",""time""
""fullscreenenter"",""5"",""16529""
","
",453.85499999974854,NA,48,NA,NA,3000,1,NA,NA,images/earth.jpg,images/rocket2,images/rocket1,null,images/rocket2,NA,1,real,null,2,NA,NA,NA,sub41
d3-animate-choice,262,917614,0.0-76.0-1.42,TRUE,FALSE,TRUE,TRUE,"""event"",""trial"",""time""
""fullscreenenter"",""5"",""16529""
","
","
","""event"",""trial"",""time""
""fullscreenenter"",""5"",""16529""
","
",345.32000000041444,NA,48,NA,NA,3000,1,NA,NA,images/redplanet1.jpg,images/alien2,images/alien1,images/rocket2,images/alien2,images/nothing.png,2,real,true,2,common,0,2020-06-18T20:14:05Z,sub41
two-step-fixation,263,918616,0.0-76.0-2.42,TRUE,FALSE,TRUE,TRUE,"""event"",""trial"",""time""
""fullscreenenter"",""5"",""16529""
","
","
","""event"",""trial"",""time""
""fullscreenenter"",""5"",""16529""
","
",NA,images/earth.jpg,NA,NA,NA,NA,NA,NA,NA,NA,NA,NA,NA,NA,NA,fixation,NA,NA,NA,NA,NA,NA,sub41
d3-animate-choice,264,920653,0.0-76.0-0.43,TRUE,FALSE,TRUE,TRUE,"""event"",""trial"",""time""
""fullscreenenter"",""5"",""16529""
","
","
","""event"",""trial"",""time""
""fullscreenenter"",""5"",""16529""
","
",30.12999999918975,NA,49,NA,NA,3000,1,"235.34999999892898,1859.8000000019092",4949,images/earth.jpg,images/rocket2,images/rocket1,null,images/rocket1,NA,1,real,null,1,NA,NA,NA,sub41
d3-animate-choice,265,922832,0.0-76.0-1.43,TRUE,FALSE,TRUE,TRUE,"""event"",""trial"",""time""
""fullscreenenter"",""5"",""16529""
","
","
","""event"",""trial"",""time""
""fullscreenenter"",""5"",""16529""
","
",173.87999999837484,NA,49,NA,NA,3000,1,"364.54999999841675,707.3449999988079,1045.519999999553",484948,images/purpleplanet.jpg,images/alien4,images/alien3,images/rocket1,images/alien3,images/nothing.png,2,real,true,1,common,0,2020-06-18T20:14:11Z,sub41
two-step-fixation,266,923837,0.0-76.0-2.43,TRUE,FALSE,TRUE,TRUE,"""event"",""trial"",""time""
""fullscreenenter"",""5"",""16529""
","
","
","""event"",""trial"",""time""
""fullscreenenter"",""5"",""16529""
","
",NA,images/earth.jpg,NA,NA,NA,NA,NA,NA,NA,NA,NA,NA,NA,NA,NA,fixation,NA,NA,NA,NA,NA,NA,sub41
d3-animate-choice,267,926194,0.0-76.0-0.44,TRUE,FALSE,TRUE,TRUE,"""event"",""trial"",""time""
""fullscreenenter"",""5"",""16529""
","
","
","""event"",""trial"",""time""
""fullscreenenter"",""5"",""16529""
","
",352.97499999799766,NA,49,NA,NA,3000,1,NA,NA,images/earth.jpg,images/rocket2,images/rocket1,null,images/rocket1,NA,1,real,null,1,NA,NA,NA,sub41
d3-animate-choice,268,929050,0.0-76.0-1.44,TRUE,FALSE,TRUE,TRUE,"""event"",""trial"",""time""
""fullscreenenter"",""5"",""16529""
","
","
","""event"",""trial"",""time""
""fullscreenenter"",""5"",""16529""
","
",848.9049999988638,NA,48,NA,NA,3000,1,NA,NA,images/redplanet1.jpg,images/alien2,images/alien1,images/rocket1,images/alien2,images/nothing.png,2,real,false,2,rare,0,2020-06-18T20:14:17Z,sub41
two-step-fixation,269,930053,0.0-76.0-2.44,TRUE,FALSE,TRUE,TRUE,"""event"",""trial"",""time""
""fullscreenenter"",""5"",""16529""
","
","
","""event"",""trial"",""time""
""fullscreenenter"",""5"",""16529""
","
",NA,images/earth.jpg,NA,NA,NA,NA,NA,NA,NA,NA,NA,NA,NA,NA,NA,fixation,NA,NA,NA,NA,NA,NA,sub41
d3-animate-choice,270,932844,0.0-76.0-0.45,TRUE,FALSE,TRUE,TRUE,"""event"",""trial"",""time""
""fullscreenenter"",""5"",""16529""
","
","
","""event"",""trial"",""time""
""fullscreenenter"",""5"",""16529""
","
",784.6649999992223,NA,49,NA,NA,3000,1,NA,NA,images/earth.jpg,images/rocket2,images/rocket1,null,images/rocket1,NA,1,real,null,1,NA,NA,NA,sub41
d3-animate-choice,271,935496,0.0-76.0-1.45,TRUE,FALSE,TRUE,TRUE,"""event"",""trial"",""time""
""fullscreenenter"",""5"",""16529""
","
","
","""event"",""trial"",""time""
""fullscreenenter"",""5"",""16529""
","
",647.2250000005588,NA,48,NA,NA,3000,1,NA,NA,images/purpleplanet.jpg,images/alien4,images/alien3,images/rocket1,images/alien4,images/nothing.png,2,real,true,2,common,0,2020-06-18T20:14:23Z,sub41
two-step-fixation,272,936500,0.0-76.0-2.45,TRUE,FALSE,TRUE,TRUE,"""event"",""trial"",""time""
""fullscreenenter"",""5"",""16529""
","
","
","""event"",""trial"",""time""
""fullscreenenter"",""5"",""16529""
","
",NA,images/earth.jpg,NA,NA,NA,NA,NA,NA,NA,NA,NA,NA,NA,NA,NA,fixation,NA,NA,NA,NA,NA,NA,sub41
d3-animate-choice,273,938656,0.0-76.0-0.46,TRUE,FALSE,TRUE,TRUE,"""event"",""trial"",""time""
""fullscreenenter"",""5"",""16529""
","
","
","""event"",""trial"",""time""
""fullscreenenter"",""5"",""16529""
","
",149.70499999984168,NA,48,NA,NA,3000,1,NA,NA,images/earth.jpg,images/rocket2,images/rocket1,null,images/rocket2,NA,1,real,null,2,NA,NA,NA,sub41
d3-animate-choice,274,941372,0.0-76.0-1.46,TRUE,FALSE,TRUE,TRUE,"""event"",""trial"",""time""
""fullscreenenter"",""5"",""16529""
","
","
","""event"",""trial"",""time""
""fullscreenenter"",""5"",""16529""
","
",707.894999999553,NA,48,NA,NA,3000,1,NA,NA,images/redplanet1.jpg,images/alien2,images/alien1,images/rocket2,images/alien2,images/t.png,2,real,true,2,common,1,2020-06-18T20:14:29Z,sub41
two-step-fixation,275,942374,0.0-76.0-2.46,TRUE,FALSE,TRUE,TRUE,"""event"",""trial"",""time""
""fullscreenenter"",""5"",""16529""
","
","
","""event"",""trial"",""time""
""fullscreenenter"",""5"",""16529""
","
",NA,images/earth.jpg,NA,NA,NA,NA,NA,NA,NA,NA,NA,NA,NA,NA,NA,fixation,NA,NA,NA,NA,NA,NA,sub41
d3-animate-choice,276,945210,0.0-76.0-0.47,TRUE,FALSE,TRUE,TRUE,"""event"",""trial"",""time""
""fullscreenenter"",""5"",""16529""
","
","
","""event"",""trial"",""time""
""fullscreenenter"",""5"",""16529""
","
",830.7649999987334,NA,49,NA,NA,3000,1,NA,NA,images/earth.jpg,images/rocket2,images/rocket1,null,images/rocket1,NA,1,real,null,1,NA,NA,NA,sub41
d3-animate-choice,277,947652,0.0-76.0-1.47,TRUE,FALSE,TRUE,TRUE,"""event"",""trial"",""time""
""fullscreenenter"",""5"",""16529""
","
","
","""event"",""trial"",""time""
""fullscreenenter"",""5"",""16529""
","
",434.6350000014063,NA,48,NA,NA,3000,1,"2292.365000001155,2373.2100000015926",4948,images/redplanet1.jpg,images/alien2,images/alien1,images/rocket1,images/alien2,images/t.png,2,real,false,2,rare,1,2020-06-18T20:14:35Z,sub41
two-step-fixation,278,948656,0.0-76.0-2.47,TRUE,FALSE,TRUE,TRUE,"""event"",""trial"",""time""
""fullscreenenter"",""5"",""16529""
","
","
","""event"",""trial"",""time""
""fullscreenenter"",""5"",""16529""
","
",NA,images/earth.jpg,NA,NA,NA,NA,NA,NA,NA,NA,NA,NA,NA,NA,NA,fixation,NA,NA,NA,NA,NA,NA,sub41
d3-animate-choice,279,950801,0.0-76.0-0.48,TRUE,FALSE,TRUE,TRUE,"""event"",""trial"",""time""
""fullscreenenter"",""5"",""16529""
","
","
","""event"",""trial"",""time""
""fullscreenenter"",""5"",""16529""
","
",140.01500000082888,NA,48,NA,NA,3000,1,"855.455000000773,1749.1250000020955",4848,images/earth.jpg,images/rocket2,images/rocket1,null,images/rocket2,NA,1,real,null,2,NA,NA,NA,sub41
d3-animate-choice,280,953252,0.0-76.0-1.48,TRUE,FALSE,TRUE,TRUE,"""event"",""trial"",""time""
""fullscreenenter"",""5"",""16529""
","
","
","""event"",""trial"",""time""
""fullscreenenter"",""5"",""16529""
","
",443.9700000002049,NA,48,NA,NA,3000,1,NA,NA,images/purpleplanet.jpg,images/alien4,images/alien3,images/rocket2,images/alien4,images/t.png,2,real,false,2,rare,1,2020-06-18T20:14:41Z,sub41
two-step-fixation,281,954254,0.0-76.0-2.48,TRUE,FALSE,TRUE,TRUE,"""event"",""trial"",""time""
""fullscreenenter"",""5"",""16529""
","
","
","""event"",""trial"",""time""
""fullscreenenter"",""5"",""16529""
","
