trial_type,trial_index,time_elapsed,internal_node_id,rocket_sides,red_planet_first_rocket,red_display_order,purple_display_order,interactions,blur_events,focus_events,fullscreenenter_events,fullscreenexit_events,rt,stimulus,key_press,button_pressed,success,duration,valid_pressed,rts,keys,planet_text,right_text,left_text,center_text,chosen_text,reward_text,trial_stage,practice_trial,transition_type,choice,transition,reward,timestamp,subject_id
pavlovia,0,11,0.0-0.0,FALSE,FALSE,FALSE,TRUE,"
","
","
","
","
",NA,NA,NA,NA,NA,NA,NA,NA,NA,NA,NA,NA,NA,NA,NA,NA,NA,NA,NA,NA,NA,NA,sub46
html-keyboard-response,1,2339,0.0-1.0,FALSE,FALSE,FALSE,TRUE,"
","
","
","
","
",2319.7999999993044,Welcome! Press the space bar to begin.,32,NA,NA,NA,NA,NA,NA,NA,NA,NA,NA,NA,NA,NA,NA,NA,NA,NA,NA,NA,sub46
audio-keyboard-response,2,6376,0.0-2.0,FALSE,FALSE,FALSE,TRUE,"
","
","
","
","
",3829,audio/beep_loop.wav,32,NA,NA,NA,NA,NA,NA,NA,NA,NA,NA,NA,NA,NA,NA,NA,NA,NA,NA,NA,sub46
audio-button-response,3,9435,0.0-3.0,FALSE,FALSE,FALSE,TRUE,"
","
","
","
","
",NaN,audio/fish.mp3,NA,1,NA,NA,NA,NA,NA,NA,NA,NA,NA,NA,NA,NA,NA,NA,NA,NA,NA,NA,sub46
audio-button-response,4,13187,0.0-4.0,FALSE,FALSE,FALSE,TRUE,"""event"",""trial"",""time""
""fullscreenenter"",""5"",""16476""
","
","
","""event"",""trial"",""time""
""fullscreenenter"",""5"",""16476""
","
",NaN,audio/tiger.mp3,NA,4,NA,NA,NA,NA,NA,NA,NA,NA,NA,NA,NA,NA,NA,NA,NA,NA,NA,NA,sub46
fullscreen,5,17432,0.0-5.0,FALSE,FALSE,FALSE,TRUE,"""event"",""trial"",""time""
""fullscreenenter"",""5"",""16476""
","
","
","""event"",""trial"",""time""
""fullscreenenter"",""5"",""16476""
","
",NA,NA,NA,NA,TRUE,NA,NA,NA,NA,NA,NA,NA,NA,NA,NA,NA,NA,NA,NA,NA,NA,NA,sub46
d3-instructions,6,30601,0.0-6.0,FALSE,FALSE,FALSE,TRUE,"""event"",""trial"",""time""
""fullscreenenter"",""5"",""16476""
","
","
","""event"",""trial"",""time""
""fullscreenenter"",""5"",""16476""
","
",NA,NA,NA,NA,NA,NA,NA,NA,NA,NA,NA,NA,NA,NA,NA,NA,NA,NA,NA,NA,NA,NA,sub46
d3-instructions,7,53475,0.0-7.0,FALSE,FALSE,FALSE,TRUE,"""event"",""trial"",""time""
""fullscreenenter"",""5"",""16476""
","
","
","""event"",""trial"",""time""
""fullscreenenter"",""5"",""16476""
","
",NA,NA,NA,NA,NA,NA,NA,NA,NA,NA,NA,NA,NA,NA,NA,NA,NA,NA,NA,NA,NA,NA,sub46
d3-instructions,8,59444,0.0-8.0,FALSE,FALSE,FALSE,TRUE,"""event"",""trial"",""time""
""fullscreenenter"",""5"",""16476""
","
","
","""event"",""trial"",""time""
""fullscreenenter"",""5"",""16476""
","
",NA,NA,NA,NA,NA,NA,NA,NA,NA,NA,NA,NA,NA,NA,NA,NA,NA,NA,NA,NA,NA,NA,sub46
d3-instructions,9,77704,0.0-9.0,FALSE,FALSE,FALSE,TRUE,"""event"",""trial"",""time""
""fullscreenenter"",""5"",""16476""
","
","
","""event"",""trial"",""time""
""fullscreenenter"",""5"",""16476""
","
",NA,NA,NA,NA,NA,NA,NA,NA,NA,NA,NA,NA,NA,NA,NA,NA,NA,NA,NA,NA,NA,NA,sub46
d3-instructions,10,94297,0.0-10.0,FALSE,FALSE,FALSE,TRUE,"""event"",""trial"",""time""
""fullscreenenter"",""5"",""16476""
","
","
","""event"",""trial"",""time""
""fullscreenenter"",""5"",""16476""
","
",NA,NA,NA,NA,NA,NA,NA,NA,NA,NA,NA,NA,NA,NA,NA,NA,NA,NA,NA,NA,NA,NA,sub46
d3-animate-choice,11,113950,0.0-11.0,FALSE,FALSE,FALSE,TRUE,"""event"",""trial"",""time""
""fullscreenenter"",""5"",""16476""
","
","
","""event"",""trial"",""time""
""fullscreenenter"",""5"",""16476""
","
",4444.809999999052,NA,32,NA,NA,3000,1,"17631.80999999895,18915.77999999936",4949,images/tutgreenplanet.jpg,images/tutalien1,images/tutalien2,null,images/tutalien2,NA,NA,practice,null,NA,NA,NA,NA,sub46
d3-animate-choice,12,119032,0.0-12.0,FALSE,FALSE,FALSE,TRUE,"""event"",""trial"",""time""
""fullscreenenter"",""5"",""16476""
","
","
","""event"",""trial"",""time""
""fullscreenenter"",""5"",""16476""
","
",3066.6849999997794,NA,48,NA,NA,3000,1,NA,NA,images/tutgreenplanet.jpg,images/tutalien1,images/tutalien2,null,images/tutalien1,NA,NA,practice,null,NA,NA,NA,NA,sub46
d3-animate-choice,13,123087,0.0-13.0,FALSE,FALSE,FALSE,TRUE,"""event"",""trial"",""time""
""fullscreenenter"",""5"",""16476""
","
","
","""event"",""trial"",""time""
""fullscreenenter"",""5"",""16476""
","
",2040.2549999998882,NA,49,NA,NA,3000,1,NA,NA,images/tutgreenplanet.jpg,images/tutalien1,images/tutalien2,null,images/tutalien2,NA,NA,practice,null,NA,NA,NA,NA,sub46
d3-animate-choice,14,126283,0.0-14.0,FALSE,FALSE,FALSE,TRUE,"""event"",""trial"",""time""
""fullscreenenter"",""5"",""16476""
","
","
","""event"",""trial"",""time""
""fullscreenenter"",""5"",""16476""
","
",1181.9300000006333,NA,48,NA,NA,3000,1,1996.3549999992829,32,images/tutgreenplanet.jpg,images/tutalien1,images/tutalien2,null,images/tutalien1,NA,NA,practice,null,NA,NA,NA,NA,sub46
d3-instructions,15,136110,0.0-15.0,FALSE,FALSE,FALSE,TRUE,"""event"",""trial"",""time""
""fullscreenenter"",""5"",""16476""
","
","
","""event"",""trial"",""time""
""fullscreenenter"",""5"",""16476""
","
",NA,NA,NA,NA,NA,NA,NA,NA,NA,NA,NA,NA,NA,NA,NA,NA,NA,NA,NA,NA,NA,NA,sub46
d3-instructions,16,146945,0.0-16.0,FALSE,FALSE,FALSE,TRUE,"""event"",""trial"",""time""
""fullscreenenter"",""5"",""16476""
","
","
","""event"",""trial"",""time""
""fullscreenenter"",""5"",""16476""
","
",NA,NA,NA,NA,NA,NA,NA,NA,NA,NA,NA,NA,NA,NA,NA,NA,NA,NA,NA,NA,NA,NA,sub46
d3-instructions,17,157161,0.0-17.0,FALSE,FALSE,FALSE,TRUE,"""event"",""trial"",""time""
""fullscreenenter"",""5"",""16476""
","
","
","""event"",""trial"",""time""
""fullscreenenter"",""5"",""16476""
","
",NA,NA,NA,NA,NA,NA,NA,NA,NA,NA,NA,NA,NA,NA,NA,NA,NA,NA,NA,NA,NA,NA,sub46
d3-instructions,18,168052,0.0-18.0,FALSE,FALSE,FALSE,TRUE,"""event"",""trial"",""time""
""fullscreenenter"",""5"",""16476""
","
","
","""event"",""trial"",""time""
""fullscreenenter"",""5"",""16476""
","
",NA,NA,NA,NA,NA,NA,NA,NA,NA,NA,NA,NA,NA,NA,NA,NA,NA,NA,NA,NA,NA,NA,sub46
d3-instructions,19,220294,0.0-19.0,FALSE,FALSE,FALSE,TRUE,"""event"",""trial"",""time""
""fullscreenenter"",""5"",""16476""
","
","
","""event"",""trial"",""time""
""fullscreenenter"",""5"",""16476""
","
",NA,NA,NA,NA,NA,NA,NA,NA,NA,NA,NA,NA,NA,NA,NA,NA,NA,NA,NA,NA,NA,NA,sub46
d3-animate-choice,20,293353,0.0-20.0,FALSE,FALSE,FALSE,TRUE,"""event"",""trial"",""time""
""fullscreenenter"",""5"",""16476""
","
","
","""event"",""trial"",""time""
""fullscreenenter"",""5"",""16476""
","
",4247.13999999949,NA,32,NA,NA,3000,1,"8409.98000000036,9637.955000000162,9792.194999999978,13804.13500000033,14026.829999998881,14386.575000000448,14542.434999999386,16124.534999999014,16316.139999998995,69418.38999999888,69603.02500000034,69970.48499999984,70375.21000000017,71045.13500000027,72053.17499999909",32323239393939324e13,images/tutyellowplanet.jpg,null,images/tutalien3,null,images/tutalien3,images/t.png,NA,practice,null,NA,NA,NA,NA,sub46
d3-animate-choice,21,298332,0.0-21.0,FALSE,FALSE,FALSE,TRUE,"""event"",""trial"",""time""
""fullscreenenter"",""5"",""16476""
","
","
","""event"",""trial"",""time""
""fullscreenenter"",""5"",""16476""
","
",2964.974999998929,NA,49,NA,NA,3000,1,"3381.7500000004657,3824.7849999988684",4949,images/tutyellowplanet.jpg,null,images/tutalien3,null,images/tutalien3,images/nothing.png,NA,practice,null,NA,NA,NA,NA,sub46
d3-animate-choice,22,300995,0.0-22.0,FALSE,FALSE,FALSE,TRUE,"""event"",""trial"",""time""
""fullscreenenter"",""5"",""16476""
","
","
","""event"",""trial"",""time""
""fullscreenenter"",""5"",""16476""
","
",648.1800000001094,NA,49,NA,NA,3000,1,"1222.7700000003097,1642.959999999206",4949,images/tutyellowplanet.jpg,null,images/tutalien3,null,images/tutalien3,images/t.png,NA,practice,null,NA,NA,NA,NA,sub46
d3-animate-choice,23,307753,0.0-23.0,FALSE,FALSE,FALSE,TRUE,"""event"",""trial"",""time""
""fullscreenenter"",""5"",""16476""
","
","
","""event"",""trial"",""time""
""fullscreenenter"",""5"",""16476""
","
",1917.4949999997043,NA,48,NA,NA,3000,1,"2377.775000000838,2672.925000000745,2861.0600000010454,4744.76999999932,4993.765000001062,5204.900000000605",484848494949,images/tutyellowplanet.jpg,null,images/tutalien3,null,images/tutalien3,images/t.png,NA,practice,null,NA,NA,NA,NA,sub46
d3-animate-choice,24,310680,0.0-24.0,FALSE,FALSE,FALSE,TRUE,"""event"",""trial"",""time""
""fullscreenenter"",""5"",""16476""
","
","
","""event"",""trial"",""time""
""fullscreenenter"",""5"",""16476""
","
",915.659999998752,NA,49,NA,NA,3000,1,"1192.7450000002282,1425.4899999995832,1660.0699999998906,1866.8999999990338",49494949,images/tutyellowplanet.jpg,null,images/tutalien3,null,images/tutalien3,images/t.png,NA,practice,null,NA,NA,NA,NA,sub46
d3-animate-choice,25,313203,0.0-25.0,FALSE,FALSE,FALSE,TRUE,"""event"",""trial"",""time""
""fullscreenenter"",""5"",""16476""
","
","
","""event"",""trial"",""time""
""fullscreenenter"",""5"",""16476""
","
",508.40000000066357,NA,49,NA,NA,3000,1,"774.2699999999022,1028.2050000005402,1390.3100000006962,2307.6450000007753",49494949,images/tutyellowplanet.jpg,null,images/tutalien3,null,images/tutalien3,images/t.png,NA,practice,null,NA,NA,NA,NA,sub46
d3-animate-choice,26,315266,0.0-26.0,FALSE,FALSE,FALSE,TRUE,"""event"",""trial"",""time""
""fullscreenenter"",""5"",""16476""
","
","
","""event"",""trial"",""time""
""fullscreenenter"",""5"",""16476""
","
",45.13500000030035,NA,49,NA,NA,3000,1,"287.91500000079395,519.7200000002049,1152.6250000006403,1688.9900000005728",49493232,images/tutyellowplanet.jpg,null,images/tutalien3,null,images/tutalien3,images/t.png,NA,practice,null,NA,NA,NA,NA,sub46
d3-animate-choice,27,318475,0.0-27.0,FALSE,FALSE,FALSE,TRUE,"""event"",""trial"",""time""
""fullscreenenter"",""5"",""16476""
","
","
","""event"",""trial"",""time""
""fullscreenenter"",""5"",""16476""
","
",1193.3349999999045,NA,49,NA,NA,3000,1,"1405.0999999999185,1589.5349999991013",4949,images/tutyellowplanet.jpg,null,images/tutalien3,null,images/tutalien3,images/t.png,NA,practice,null,NA,NA,NA,NA,sub46
d3-animate-choice,28,322343,0.0-28.0,FALSE,FALSE,FALSE,TRUE,"""event"",""trial"",""time""
""fullscreenenter"",""5"",""16476""
","
","
","""event"",""trial"",""time""
""fullscreenenter"",""5"",""16476""
","
",859.3449999989243,NA,32,NA,NA,3000,1,"1091.37999999983,1856.7249999996275,2086.949999998964,2296.3049999998184",32494949,images/tutyellowplanet.jpg,null,images/tutalien3,null,images/tutalien3,images/t.png,NA,practice,null,NA,NA,NA,NA,sub46
d3-animate-choice,29,327895,0.0-29.0,FALSE,FALSE,FALSE,TRUE,"""event"",""trial"",""time""
""fullscreenenter"",""5"",""16476""
","
","
","""event"",""trial"",""time""
""fullscreenenter"",""5"",""16476""
","
",1967.4500000000698,NA,48,NA,NA,3000,1,"2124.1100000006845,3537.665000001667",4849,images/tutyellowplanet.jpg,null,images/tutalien3,null,images/tutalien3,images/nothing.png,NA,practice,null,NA,NA,NA,NA,sub46
d3-instructions,30,338588,0.0-30.0,FALSE,FALSE,FALSE,TRUE,"""event"",""trial"",""time""
""fullscreenenter"",""5"",""16476""
","
","
","""event"",""trial"",""time""
""fullscreenenter"",""5"",""16476""
","
",NA,NA,NA,NA,NA,NA,NA,NA,NA,NA,NA,NA,NA,NA,NA,NA,NA,NA,NA,NA,NA,NA,sub46
d3-instructions,31,351735,0.0-31.0,FALSE,FALSE,FALSE,TRUE,"""event"",""trial"",""time""
""fullscreenenter"",""5"",""16476""
","
","
","""event"",""trial"",""time""
""fullscreenenter"",""5"",""16476""
","
",NA,NA,NA,NA,NA,NA,NA,NA,NA,NA,NA,NA,NA,NA,NA,NA,NA,NA,NA,NA,NA,NA,sub46
d3-instructions,32,362261,0.0-32.0,FALSE,FALSE,FALSE,TRUE,"""event"",""trial"",""time""
""fullscreenenter"",""5"",""16476""
","
","
","""event"",""trial"",""time""
""fullscreenenter"",""5"",""16476""
","
",NA,NA,NA,NA,NA,NA,NA,NA,NA,NA,NA,NA,NA,NA,NA,NA,NA,NA,NA,NA,NA,NA,sub46
d3-instructions,33,367875,0.0-33.0,FALSE,FALSE,FALSE,TRUE,"""event"",""trial"",""time""
""fullscreenenter"",""5"",""16476""
","
","
","""event"",""trial"",""time""
""fullscreenenter"",""5"",""16476""
","
",NA,NA,NA,NA,NA,NA,NA,NA,NA,NA,NA,NA,NA,NA,NA,NA,NA,NA,NA,NA,NA,NA,sub46
d3-animate-choice,34,371592,0.0-34.0,FALSE,FALSE,FALSE,TRUE,"""event"",""trial"",""time""
""fullscreenenter"",""5"",""16476""
","
","
","""event"",""trial"",""time""
""fullscreenenter"",""5"",""16476""
","
",1705.9950000002282,NA,49,NA,NA,3000,1,"2159.560000000056,2673.1950000012293",4949,images/tutgreenplanet.jpg,images/tutalien1,images/tutalien2,null,images/tutalien2,images/t.png,NA,practice,null,NA,NA,NA,NA,sub46
d3-animate-choice,35,375449,0.0-35.0,FALSE,FALSE,FALSE,TRUE,"""event"",""trial"",""time""
""fullscreenenter"",""5"",""16476""
","
","
","""event"",""trial"",""time""
""fullscreenenter"",""5"",""16476""
","
",1845.879999998957,NA,48,NA,NA,3000,1,2254.2849999991013,48,images/tutgreenplanet.jpg,images/tutalien1,images/tutalien2,null,images/tutalien1,images/t.png,NA,practice,null,NA,NA,NA,NA,sub46
d3-animate-choice,36,378938,0.0-36.0,FALSE,FALSE,FALSE,TRUE,"""event"",""trial"",""time""
""fullscreenenter"",""5"",""16476""
","
","
","""event"",""trial"",""time""
""fullscreenenter"",""5"",""16476""
","
",1476.9099999993923,NA,48,NA,NA,3000,1,3097.2050000000163,32,images/tutgreenplanet.jpg,images/tutalien1,images/tutalien2,null,images/tutalien1,images/nothing.png,NA,practice,null,NA,NA,NA,NA,sub46
d3-animate-choice,37,383260,0.0-37.0,FALSE,FALSE,FALSE,TRUE,"""event"",""trial"",""time""
""fullscreenenter"",""5"",""16476""
","
","
","""event"",""trial"",""time""
""fullscreenenter"",""5"",""16476""
","
",2312.09999999922,NA,49,NA,NA,3000,1,"2540.1450000008917,2711.8150000005844,3436.7750000001397,3866.1449999999604",49493232,images/tutgreenplanet.jpg,images/tutalien1,images/tutalien2,null,images/tutalien2,images/t.png,NA,practice,null,NA,NA,NA,NA,sub46
d3-animate-choice,38,387936,0.0-38.0,FALSE,FALSE,FALSE,TRUE,"""event"",""trial"",""time""
""fullscreenenter"",""5"",""16476""
","
","
","""event"",""trial"",""time""
""fullscreenenter"",""5"",""16476""
","
",2662.9599999996717,NA,48,NA,NA,3000,1,"2920.8199999993667,3107.7949999999255,3831.285000000207",484832,images/tutgreenplanet.jpg,images/tutalien1,images/tutalien2,null,images/tutalien1,images/nothing.png,NA,practice,null,NA,NA,NA,NA,sub46
d3-animate-choice,39,390979,0.0-39.0,FALSE,FALSE,FALSE,TRUE,"""event"",""trial"",""time""
""fullscreenenter"",""5"",""16476""
","
","
","""event"",""trial"",""time""
""fullscreenenter"",""5"",""16476""
","
",1028.6150000010966,NA,48,NA,NA,3000,1,1314.8799999998882,48,images/tutgreenplanet.jpg,images/tutalien1,images/tutalien2,null,images/tutalien1,images/nothing.png,NA,practice,null,NA,NA,NA,NA,sub46
d3-animate-choice,40,393290,0.0-40.0,FALSE,FALSE,FALSE,TRUE,"""event"",""trial"",""time""
""fullscreenenter"",""5"",""16476""
","
","
","""event"",""trial"",""time""
""fullscreenenter"",""5"",""16476""
","
",300.00499999913154,NA,48,NA,NA,3000,1,"487.90999999979977,662.7499999994761,2116.289999999921",484849,images/tutgreenplanet.jpg,images/tutalien1,images/tutalien2,null,images/tutalien1,images/nothing.png,NA,practice,null,NA,NA,NA,NA,sub46
d3-animate-choice,41,395597,0.0-41.0,FALSE,FALSE,FALSE,TRUE,"""event"",""trial"",""time""
""fullscreenenter"",""5"",""16476""
","
","
","""event"",""trial"",""time""
""fullscreenenter"",""5"",""16476""
","
",296.61999999918044,NA,49,NA,NA,3000,1,"566.5250000001979,781.5549999995856,1045.0899999996182,1254.549999999639",49494949,images/tutgreenplanet.jpg,images/tutalien1,images/tutalien2,null,images/tutalien2,images/nothing.png,NA,practice,null,NA,NA,NA,NA,sub46
d3-animate-choice,42,397875,0.0-42.0,FALSE,FALSE,FALSE,TRUE,"""event"",""trial"",""time""
""fullscreenenter"",""5"",""16476""
","
","
","""event"",""trial"",""time""
""fullscreenenter"",""5"",""16476""
","
",263.3400000013062,NA,49,NA,NA,3000,1,541.0500000016182,49,images/tutgreenplanet.jpg,images/tutalien1,images/tutalien2,null,images/tutalien2,images/t.png,NA,practice,null,NA,NA,NA,NA,sub46
d3-animate-choice,43,400187,0.0-43.0,FALSE,FALSE,FALSE,TRUE,"""event"",""trial"",""time""
""fullscreenenter"",""5"",""16476""
","
","
","""event"",""trial"",""time""
""fullscreenenter"",""5"",""16476""
","
",302.2449999989476,NA,48,NA,NA,3000,1,"521.020000000135,705.4749999988708",4848,images/tutgreenplanet.jpg,images/tutalien1,images/tutalien2,null,images/tutalien1,images/nothing.png,NA,practice,null,NA,NA,NA,NA,sub46
d3-instructions,44,407190,0.0-44.0,FALSE,FALSE,FALSE,TRUE,"""event"",""trial"",""time""
""fullscreenenter"",""5"",""16476""
","
","
","""event"",""trial"",""time""
""fullscreenenter"",""5"",""16476""
","
",NA,NA,NA,NA,NA,NA,NA,NA,NA,NA,NA,NA,NA,NA,NA,NA,NA,NA,NA,NA,NA,NA,sub46
d3-instructions,45,414314,0.0-45.0,FALSE,FALSE,FALSE,TRUE,"""event"",""trial"",""time""
""fullscreenenter"",""5"",""16476""
","
","
","""event"",""trial"",""time""
""fullscreenenter"",""5"",""16476""
","
",NA,NA,NA,NA,NA,NA,NA,NA,NA,NA,NA,NA,NA,NA,NA,NA,NA,NA,NA,NA,NA,NA,sub46
d3-instructions,46,420256,0.0-46.0,FALSE,FALSE,FALSE,TRUE,"""event"",""trial"",""time""
""fullscreenenter"",""5"",""16476""
","
","
","""event"",""trial"",""time""
""fullscreenenter"",""5"",""16476""
","
",NA,NA,NA,NA,NA,NA,NA,NA,NA,NA,NA,NA,NA,NA,NA,NA,NA,NA,NA,NA,NA,NA,sub46
d3-instructions,47,439159,0.0-47.0,FALSE,FALSE,FALSE,TRUE,"""event"",""trial"",""time""
""fullscreenenter"",""5"",""16476""
","
","
","""event"",""trial"",""time""
""fullscreenenter"",""5"",""16476""
","
",NA,NA,NA,NA,NA,NA,NA,NA,NA,NA,NA,NA,NA,NA,NA,NA,NA,NA,NA,NA,NA,NA,sub46
d3-instructions,48,456317,0.0-48.0,FALSE,FALSE,FALSE,TRUE,"""event"",""trial"",""time""
""fullscreenenter"",""5"",""16476""
","
","
","""event"",""trial"",""time""
""fullscreenenter"",""5"",""16476""
","
",NA,NA,NA,NA,NA,NA,NA,NA,NA,NA,NA,NA,NA,NA,NA,NA,NA,NA,NA,NA,NA,NA,sub46
d3-instructions,49,464677,0.0-49.0,FALSE,FALSE,FALSE,TRUE,"""event"",""trial"",""time""
""fullscreenenter"",""5"",""16476""
","
","
","""event"",""trial"",""time""
""fullscreenenter"",""5"",""16476""
","
",NA,NA,NA,NA,NA,NA,NA,NA,NA,NA,NA,NA,NA,NA,NA,NA,NA,NA,NA,NA,NA,NA,sub46
d3-instructions,50,472536,0.0-50.0,FALSE,FALSE,FALSE,TRUE,"""event"",""trial"",""time""
""fullscreenenter"",""5"",""16476""
","
","
","""event"",""trial"",""time""
""fullscreenenter"",""5"",""16476""
","
",NA,NA,NA,NA,NA,NA,NA,NA,NA,NA,NA,NA,NA,NA,NA,NA,NA,NA,NA,NA,NA,NA,sub46
d3-instructions,51,476096,0.0-51.0,FALSE,FALSE,FALSE,TRUE,"""event"",""trial"",""time""
""fullscreenenter"",""5"",""16476""
","
","
","""event"",""trial"",""time""
""fullscreenenter"",""5"",""16476""
","
",NA,NA,NA,NA,NA,NA,NA,NA,NA,NA,NA,NA,NA,NA,NA,NA,NA,NA,NA,NA,NA,NA,sub46
d3-instructions,52,479292,0.0-52.0,FALSE,FALSE,FALSE,TRUE,"""event"",""trial"",""time""
""fullscreenenter"",""5"",""16476""
","
","
","""event"",""trial"",""time""
""fullscreenenter"",""5"",""16476""
","
",NA,NA,NA,NA,NA,NA,NA,NA,NA,NA,NA,NA,NA,NA,NA,NA,NA,NA,NA,NA,NA,NA,sub46
d3-instructions,53,490690,0.0-53.0,FALSE,FALSE,FALSE,TRUE,"""event"",""trial"",""time""
""fullscreenenter"",""5"",""16476""
","
","
","""event"",""trial"",""time""
""fullscreenenter"",""5"",""16476""
","
",NA,NA,NA,NA,NA,NA,NA,NA,NA,NA,NA,NA,NA,NA,NA,NA,NA,NA,NA,NA,NA,NA,sub46
d3-instructions,54,502384,0.0-54.0,FALSE,FALSE,FALSE,TRUE,"""event"",""trial"",""time""
""fullscreenenter"",""5"",""16476""
","
","
","""event"",""trial"",""time""
""fullscreenenter"",""5"",""16476""
","
",NA,NA,NA,NA,NA,NA,NA,NA,NA,NA,NA,NA,NA,NA,NA,NA,NA,NA,NA,NA,NA,NA,sub46
d3-instructions,55,511686,0.0-55.0,FALSE,FALSE,FALSE,TRUE,"""event"",""trial"",""time""
""fullscreenenter"",""5"",""16476""
","
","
","""event"",""trial"",""time""
""fullscreenenter"",""5"",""16476""
","
",NA,NA,NA,NA,NA,NA,NA,NA,NA,NA,NA,NA,NA,NA,NA,NA,NA,NA,NA,NA,NA,NA,sub46
d3-instructions,56,523057,0.0-56.0,FALSE,FALSE,FALSE,TRUE,"""event"",""trial"",""time""
""fullscreenenter"",""5"",""16476""
","
","
","""event"",""trial"",""time""
""fullscreenenter"",""5"",""16476""
","
",NA,NA,NA,NA,NA,NA,NA,NA,NA,NA,NA,NA,NA,NA,NA,NA,NA,NA,NA,NA,NA,NA,sub46
d3-instructions,57,532247,0.0-57.0,FALSE,FALSE,FALSE,TRUE,"""event"",""trial"",""time""
""fullscreenenter"",""5"",""16476""
","
","
","""event"",""trial"",""time""
""fullscreenenter"",""5"",""16476""
","
",NA,NA,NA,NA,NA,NA,NA,NA,NA,NA,NA,NA,NA,NA,NA,NA,NA,NA,NA,NA,NA,NA,sub46
d3-instructions,58,556700,0.0-58.0,FALSE,FALSE,FALSE,TRUE,"""event"",""trial"",""time""
""fullscreenenter"",""5"",""16476""
","
","
","""event"",""trial"",""time""
""fullscreenenter"",""5"",""16476""
","
",NA,NA,NA,NA,NA,NA,NA,NA,NA,NA,NA,NA,NA,NA,NA,NA,NA,NA,NA,NA,NA,NA,sub46
d3-instructions,59,568346,0.0-59.0,FALSE,FALSE,FALSE,TRUE,"""event"",""trial"",""time""
""fullscreenenter"",""5"",""16476""
","
","
","""event"",""trial"",""time""
""fullscreenenter"",""5"",""16476""
","
",NA,NA,NA,NA,NA,NA,NA,NA,NA,NA,NA,NA,NA,NA,NA,NA,NA,NA,NA,NA,NA,NA,sub46
d3-instructions,60,578019,0.0-60.0,FALSE,FALSE,FALSE,TRUE,"""event"",""trial"",""time""
""fullscreenenter"",""5"",""16476""
","
","
","""event"",""trial"",""time""
""fullscreenenter"",""5"",""16476""
","
",NA,NA,NA,NA,NA,NA,NA,NA,NA,NA,NA,NA,NA,NA,NA,NA,NA,NA,NA,NA,NA,NA,sub46
d3-animate-choice,61,581752,0.0-61.0-0.0,FALSE,FALSE,FALSE,TRUE,"""event"",""trial"",""time""
""fullscreenenter"",""5"",""16476""
","
","
","""event"",""trial"",""time""
""fullscreenenter"",""5"",""16476""
","
",1720.5800000011222,NA,48,NA,NA,3000,1,"2421.550000000978,2630.250000000233,2823.545000001206",484848,images/earth.jpg,images/tutrocket2,images/tutrocket1,null,images/tutrocket2,NA,1,practice,null,2,NA,NA,NA,sub46
d3-animate-choice,62,585770,0.0-61.0-1.0,FALSE,FALSE,FALSE,TRUE,"""event"",""trial"",""time""
""fullscreenenter"",""5"",""16476""
","
","
","""event"",""trial"",""time""
""fullscreenenter"",""5"",""16476""
","
",3105.1349999997765,NA,48,NA,NA,3000,0,3894.940000000177,48,images/tutyellowplanet.jpg,images/tutalien4,images/tutalien3,images/tutrocket2,NA,NA,2,practice,false,2,rare,0,2020-06-23T19:56:36Z,sub46
two-step-fixation,63,586787,0.0-61.0-2.0,FALSE,FALSE,FALSE,TRUE,"""event"",""trial"",""time""
""fullscreenenter"",""5"",""16476""
","
","
","""event"",""trial"",""time""
""fullscreenenter"",""5"",""16476""
","
",NA,images/earth.jpg,NA,NA,NA,NA,NA,NA,NA,NA,NA,NA,NA,NA,NA,fixation,NA,NA,NA,NA,NA,NA,sub46
d3-animate-choice,64,589446,0.0-61.0-0.1,FALSE,FALSE,FALSE,TRUE,"""event"",""trial"",""time""
""fullscreenenter"",""5"",""16476""
","
","
","""event"",""trial"",""time""
""fullscreenenter"",""5"",""16476""
","
",644.7950000001583,NA,48,NA,NA,3000,1,"1026.5049999997718,1261.7750000008382",4848,images/earth.jpg,images/tutrocket2,images/tutrocket1,null,images/tutrocket2,NA,1,practice,null,2,NA,NA,NA,sub46
d3-animate-choice,65,591910,0.0-61.0-1.1,FALSE,FALSE,FALSE,TRUE,"""event"",""trial"",""time""
""fullscreenenter"",""5"",""16476""
","
","
","""event"",""trial"",""time""
""fullscreenenter"",""5"",""16476""
","
",444.33500000007916,NA,49,NA,NA,3000,1,647.2649999995483,49,images/tutgreenplanet.jpg,images/tutalien2,images/tutalien1,images/tutrocket2,images/tutalien1,images/nothing.png,2,practice,true,1,common,0,2020-06-23T19:56:42Z,sub46
two-step-fixation,66,592918,0.0-61.0-2.1,FALSE,FALSE,FALSE,TRUE,"""event"",""trial"",""time""
""fullscreenenter"",""5"",""16476""
","
","
","""event"",""trial"",""time""
""fullscreenenter"",""5"",""16476""
","
",NA,images/earth.jpg,NA,NA,NA,NA,NA,NA,NA,NA,NA,NA,NA,NA,NA,fixation,NA,NA,NA,NA,NA,NA,sub46
d3-animate-choice,67,595945,0.0-61.0-0.2,FALSE,FALSE,FALSE,TRUE,"""event"",""trial"",""time""
""fullscreenenter"",""5"",""16476""
","
","
","""event"",""trial"",""time""
""fullscreenenter"",""5"",""16476""
","
",1014.0200000004843,NA,49,NA,NA,3000,1,NA,NA,images/earth.jpg,images/tutrocket2,images/tutrocket1,null,images/tutrocket1,NA,1,practice,null,1,NA,NA,NA,sub46
d3-animate-choice,68,598453,0.0-61.0-1.2,FALSE,FALSE,FALSE,TRUE,"""event"",""trial"",""time""
""fullscreenenter"",""5"",""16476""
","
","
","""event"",""trial"",""time""
""fullscreenenter"",""5"",""16476""
","
",496.0950000004377,NA,48,NA,NA,3000,1,NA,NA,images/tutyellowplanet.jpg,images/tutalien4,images/tutalien3,images/tutrocket1,images/tutalien4,images/t.png,2,practice,true,2,common,1,2020-06-23T19:56:49Z,sub46
two-step-fixation,69,599462,0.0-61.0-2.2,FALSE,FALSE,FALSE,TRUE,"""event"",""trial"",""time""
""fullscreenenter"",""5"",""16476""
","
","
","""event"",""trial"",""time""
""fullscreenenter"",""5"",""16476""
","
",NA,images/earth.jpg,NA,NA,NA,NA,NA,NA,NA,NA,NA,NA,NA,NA,NA,fixation,NA,NA,NA,NA,NA,NA,sub46
d3-animate-choice,70,602082,0.0-61.0-0.3,FALSE,FALSE,FALSE,TRUE,"""event"",""trial"",""time""
""fullscreenenter"",""5"",""16476""
","
","
","""event"",""trial"",""time""
""fullscreenenter"",""5"",""16476""
","
",607.9050000007264,NA,49,NA,NA,3000,1,NA,NA,images/earth.jpg,images/tutrocket2,images/tutrocket1,null,images/tutrocket1,NA,1,practice,null,1,NA,NA,NA,sub46
d3-animate-choice,71,605031,0.0-61.0-1.3,FALSE,FALSE,FALSE,TRUE,"""event"",""trial"",""time""
""fullscreenenter"",""5"",""16476""
","
","
","""event"",""trial"",""time""
""fullscreenenter"",""5"",""16476""
","
",931.0399999994552,NA,49,NA,NA,3000,1,NA,NA,images/tutyellowplanet.jpg,images/tutalien4,images/tutalien3,images/tutrocket1,images/tutalien3,images/nothing.png,2,practice,true,1,common,0,2020-06-23T19:56:55Z,sub46
two-step-fixation,72,606040,0.0-61.0-2.3,FALSE,FALSE,FALSE,TRUE,"""event"",""trial"",""time""
""fullscreenenter"",""5"",""16476""
","
","
","""event"",""trial"",""time""
""fullscreenenter"",""5"",""16476""
","
",NA,images/earth.jpg,NA,NA,NA,NA,NA,NA,NA,NA,NA,NA,NA,NA,NA,fixation,NA,NA,NA,NA,NA,NA,sub46
d3-animate-choice,73,608641,0.0-61.0-0.4,FALSE,FALSE,FALSE,TRUE,"""event"",""trial"",""time""
""fullscreenenter"",""5"",""16476""
","
","
","""event"",""trial"",""time""
""fullscreenenter"",""5"",""16476""
","
",585.2749999994412,NA,48,NA,NA,3000,1,NA,NA,images/earth.jpg,images/tutrocket2,images/tutrocket1,null,images/tutrocket2,NA,1,practice,null,2,NA,NA,NA,sub46
d3-animate-choice,74,611223,0.0-61.0-1.4,FALSE,FALSE,FALSE,TRUE,"""event"",""trial"",""time""
""fullscreenenter"",""5"",""16476""
","
","
","""event"",""trial"",""time""
""fullscreenenter"",""5"",""16476""
","
",565.8299999994924,NA,48,NA,NA,3000,1,NA,NA,images/tutgreenplanet.jpg,images/tutalien2,images/tutalien1,images/tutrocket2,images/tutalien2,images/t.png,2,practice,true,2,common,1,2020-06-23T19:57:01Z,sub46
two-step-fixation,75,612235,0.0-61.0-2.4,FALSE,FALSE,FALSE,TRUE,"""event"",""trial"",""time""
""fullscreenenter"",""5"",""16476""
","
","
","""event"",""trial"",""time""
""fullscreenenter"",""5"",""16476""
","
",NA,images/earth.jpg,NA,NA,NA,NA,NA,NA,NA,NA,NA,NA,NA,NA,NA,fixation,NA,NA,NA,NA,NA,NA,sub46
d3-animate-choice,76,614934,0.0-61.0-0.5,FALSE,FALSE,FALSE,TRUE,"""event"",""trial"",""time""
""fullscreenenter"",""5"",""16476""
","
","
","""event"",""trial"",""time""
""fullscreenenter"",""5"",""16476""
","
",687.1950000004144,NA,48,NA,NA,3000,1,NA,NA,images/earth.jpg,images/tutrocket2,images/tutrocket1,null,images/tutrocket2,NA,1,practice,null,2,NA,NA,NA,sub46
d3-animate-choice,77,617432,0.0-61.0-1.5,FALSE,FALSE,FALSE,TRUE,"""event"",""trial"",""time""
""fullscreenenter"",""5"",""16476""
","
","
","""event"",""trial"",""time""
""fullscreenenter"",""5"",""16476""
","
",482.735000001383,NA,48,NA,NA,3000,1,NA,NA,images/tutgreenplanet.jpg,images/tutalien2,images/tutalien1,images/tutrocket2,images/tutalien2,images/nothing.png,2,practice,true,2,common,0,2020-06-23T19:57:08Z,sub46
two-step-fixation,78,618440,0.0-61.0-2.5,FALSE,FALSE,FALSE,TRUE,"""event"",""trial"",""time""
""fullscreenenter"",""5"",""16476""
","
","
","""event"",""trial"",""time""
""fullscreenenter"",""5"",""16476""
","
",NA,images/earth.jpg,NA,NA,NA,NA,NA,NA,NA,NA,NA,NA,NA,NA,NA,fixation,NA,NA,NA,NA,NA,NA,sub46
d3-animate-choice,79,621320,0.0-61.0-0.6,FALSE,FALSE,FALSE,TRUE,"""event"",""trial"",""time""
""fullscreenenter"",""5"",""16476""
","
","
","""event"",""trial"",""time""
""fullscreenenter"",""5"",""16476""
","
",869.0099999986123,NA,49,NA,NA,3000,1,NA,NA,images/earth.jpg,images/tutrocket2,images/tutrocket1,null,images/tutrocket1,NA,1,practice,null,1,NA,NA,NA,sub46
d3-animate-choice,80,624083,0.0-61.0-1.6,FALSE,FALSE,FALSE,TRUE,"""event"",""trial"",""time""
""fullscreenenter"",""5"",""16476""
","
","
","""event"",""trial"",""time""
""fullscreenenter"",""5"",""16476""
","
",752.8250000014668,NA,49,NA,NA,3000,1,NA,NA,images/tutgreenplanet.jpg,images/tutalien2,images/tutalien1,images/tutrocket1,images/tutalien1,images/t.png,2,practice,false,1,rare,1,2020-06-23T19:57:14Z,sub46
two-step-fixation,81,625091,0.0-61.0-2.6,FALSE,FALSE,FALSE,TRUE,"""event"",""trial"",""time""
""fullscreenenter"",""5"",""16476""
","
","
","""event"",""trial"",""time""
""fullscreenenter"",""5"",""16476""
","
",NA,images/earth.jpg,NA,NA,NA,NA,NA,NA,NA,NA,NA,NA,NA,NA,NA,fixation,NA,NA,NA,NA,NA,NA,sub46
d3-animate-choice,82,627949,0.0-61.0-0.7,FALSE,FALSE,FALSE,TRUE,"""event"",""trial"",""time""
""fullscreenenter"",""5"",""16476""
","
","
","""event"",""trial"",""time""
""fullscreenenter"",""5"",""16476""
","
",844.460000000312,NA,48,NA,NA,3000,1,NA,NA,images/earth.jpg,images/tutrocket2,images/tutrocket1,null,images/tutrocket2,NA,1,practice,null,2,NA,NA,NA,sub46
d3-animate-choice,83,630728,0.0-61.0-1.7,FALSE,FALSE,FALSE,TRUE,"""event"",""trial"",""time""
""fullscreenenter"",""5"",""16476""
","
","
","""event"",""trial"",""time""
""fullscreenenter"",""5"",""16476""
","
",762.8450000011362,NA,49,NA,NA,3000,1,NA,NA,images/tutgreenplanet.jpg,images/tutalien2,images/tutalien1,images/tutrocket2,images/tutalien1,images/nothing.png,2,practice,true,1,common,0,2020-06-23T19:57:21Z,sub46
two-step-fixation,84,631740,0.0-61.0-2.7,FALSE,FALSE,FALSE,TRUE,"""event"",""trial"",""time""
""fullscreenenter"",""5"",""16476""
","
","
","""event"",""trial"",""time""
""fullscreenenter"",""5"",""16476""
","
",NA,images/earth.jpg,NA,NA,NA,NA,NA,NA,NA,NA,NA,NA,NA,NA,NA,fixation,NA,NA,NA,NA,NA,NA,sub46
d3-animate-choice,85,634242,0.0-61.0-0.8,FALSE,FALSE,FALSE,TRUE,"""event"",""trial"",""time""
""fullscreenenter"",""5"",""16476""
","
","
","""event"",""trial"",""time""
""fullscreenenter"",""5"",""16476""
","
",491.51500000152737,NA,48,NA,NA,3000,1,NA,NA,images/earth.jpg,images/tutrocket2,images/tutrocket1,null,images/tutrocket2,NA,1,practice,null,2,NA,NA,NA,sub46
d3-animate-choice,86,636628,0.0-61.0-1.8,FALSE,FALSE,FALSE,TRUE,"""event"",""trial"",""time""
""fullscreenenter"",""5"",""16476""
","
","
","""event"",""trial"",""time""
""fullscreenenter"",""5"",""16476""
","
",373.880000000936,NA,49,NA,NA,3000,1,NA,NA,images/tutgreenplanet.jpg,images/tutalien2,images/tutalien1,images/tutrocket2,images/tutalien1,images/nothing.png,2,practice,true,1,common,0,2020-06-23T19:57:27Z,sub46
two-step-fixation,87,637639,0.0-61.0-2.8,FALSE,FALSE,FALSE,TRUE,"""event"",""trial"",""time""
""fullscreenenter"",""5"",""16476""
","
","
","""event"",""trial"",""time""
""fullscreenenter"",""5"",""16476""
","
",NA,images/earth.jpg,NA,NA,NA,NA,NA,NA,NA,NA,NA,NA,NA,NA,NA,fixation,NA,NA,NA,NA,NA,NA,sub46
d3-animate-choice,88,639956,0.0-61.0-0.9,FALSE,FALSE,FALSE,TRUE,"""event"",""trial"",""time""
""fullscreenenter"",""5"",""16476""
","
","
","""event"",""trial"",""time""
""fullscreenenter"",""5"",""16476""
","
",300.0200000006007,NA,48,NA,NA,3000,1,NA,NA,images/earth.jpg,images/tutrocket2,images/tutrocket1,null,images/tutrocket2,NA,1,practice,null,2,NA,NA,NA,sub46
d3-animate-choice,89,643119,0.0-61.0-1.9,FALSE,FALSE,FALSE,TRUE,"""event"",""trial"",""time""
""fullscreenenter"",""5"",""16476""
","
","
","""event"",""trial"",""time""
""fullscreenenter"",""5"",""16476""
","
",1148.4400000008754,NA,48,NA,NA,3000,1,NA,NA,images/tutgreenplanet.jpg,images/tutalien2,images/tutalien1,images/tutrocket2,images/tutalien2,images/t.png,2,practice,true,2,common,1,2020-06-23T19:57:33Z,sub46
two-step-fixation,90,644127,0.0-61.0-2.9,FALSE,FALSE,FALSE,TRUE,"""event"",""trial"",""time""
""fullscreenenter"",""5"",""16476""
","
","
","""event"",""trial"",""time""
""fullscreenenter"",""5"",""16476""
","
",NA,images/earth.jpg,NA,NA,NA,NA,NA,NA,NA,NA,NA,NA,NA,NA,NA,fixation,NA,NA,NA,NA,NA,NA,sub46
d3-animate-choice,91,646975,0.0-61.0-0.10,FALSE,FALSE,FALSE,TRUE,"""event"",""trial"",""time""
""fullscreenenter"",""5"",""16476""
","
","
","""event"",""trial"",""time""
""fullscreenenter"",""5"",""16476""
","
",832.6349999988452,NA,48,NA,NA,3000,1,NA,NA,images/earth.jpg,images/tutrocket2,images/tutrocket1,null,images/tutrocket2,NA,1,practice,null,2,NA,NA,NA,sub46
d3-animate-choice,92,649815,0.0-61.0-1.10,FALSE,FALSE,FALSE,TRUE,"""event"",""trial"",""time""
""fullscreenenter"",""5"",""16476""
","
","
","""event"",""trial"",""time""
""fullscreenenter"",""5"",""16476""
","
",823.4750000010245,NA,49,NA,NA,3000,1,NA,NA,images/tutgreenplanet.jpg,images/tutalien2,images/tutalien1,images/tutrocket2,images/tutalien1,images/t.png,2,practice,true,1,common,1,2020-06-23T19:57:40Z,sub46
two-step-fixation,93,650822,0.0-61.0-2.10,FALSE,FALSE,FALSE,TRUE,"""event"",""trial"",""time""
""fullscreenenter"",""5"",""16476""
","
","
","""event"",""trial"",""time""
""fullscreenenter"",""5"",""16476""
","
",NA,images/earth.jpg,NA,NA,NA,NA,NA,NA,NA,NA,NA,NA,NA,NA,NA,fixation,NA,NA,NA,NA,NA,NA,sub46
d3-animate-choice,94,653439,0.0-61.0-0.11,FALSE,FALSE,FALSE,TRUE,"""event"",""trial"",""time""
""fullscreenenter"",""5"",""16476""
","
","
","""event"",""trial"",""time""
""fullscreenenter"",""5"",""16476""
","
",608.1250000006985,NA,49,NA,NA,3000,1,NA,NA,images/earth.jpg,images/tutrocket2,images/tutrocket1,null,images/tutrocket1,NA,1,practice,null,1,NA,NA,NA,sub46
d3-animate-choice,95,655798,0.0-61.0-1.11,FALSE,FALSE,FALSE,TRUE,"""event"",""trial"",""time""
""fullscreenenter"",""5"",""16476""
","
","
","""event"",""trial"",""time""
""fullscreenenter"",""5"",""16476""
","
",348.18000000086613,NA,49,NA,NA,3000,1,NA,NA,images/tutyellowplanet.jpg,images/tutalien4,images/tutalien3,images/tutrocket1,images/tutalien3,images/t.png,2,practice,true,1,common,1,2020-06-23T19:57:46Z,sub46
two-step-fixation,96,656810,0.0-61.0-2.11,FALSE,FALSE,FALSE,TRUE,"""event"",""trial"",""time""
""fullscreenenter"",""5"",""16476""
","
","
","""event"",""trial"",""time""
""fullscreenenter"",""5"",""16476""
","
",NA,images/earth.jpg,NA,NA,NA,NA,NA,NA,NA,NA,NA,NA,NA,NA,NA,fixation,NA,NA,NA,NA,NA,NA,sub46
d3-animate-choice,97,659379,0.0-61.0-0.12,FALSE,FALSE,FALSE,TRUE,"""event"",""trial"",""time""
""fullscreenenter"",""5"",""16476""
","
","
","""event"",""trial"",""time""
""fullscreenenter"",""5"",""16476""
","
",555.4749999991618,NA,48,NA,NA,3000,1,NA,NA,images/earth.jpg,images/tutrocket2,images/tutrocket1,null,images/tutrocket2,NA,1,practice,null,2,NA,NA,NA,sub46
d3-animate-choice,98,661780,0.0-61.0-1.12,FALSE,FALSE,FALSE,TRUE,"""event"",""trial"",""time""
""fullscreenenter"",""5"",""16476""
","
","
","""event"",""trial"",""time""
""fullscreenenter"",""5"",""16476""
","
",384.36499999987427,NA,48,NA,NA,3000,1,NA,NA,images/tutgreenplanet.jpg,images/tutalien2,images/tutalien1,images/tutrocket2,images/tutalien2,images/nothing.png,2,practice,true,2,common,0,2020-06-23T19:57:52Z,sub46
two-step-fixation,99,662793,0.0-61.0-2.12,FALSE,FALSE,FALSE,TRUE,"""event"",""trial"",""time""
""fullscreenenter"",""5"",""16476""
","
","
","""event"",""trial"",""time""
""fullscreenenter"",""5"",""16476""
","
",NA,images/earth.jpg,NA,NA,NA,NA,NA,NA,NA,NA,NA,NA,NA,NA,NA,fixation,NA,NA,NA,NA,NA,NA,sub46
d3-animate-choice,100,665188,0.0-61.0-0.13,FALSE,FALSE,FALSE,TRUE,"""event"",""trial"",""time""
""fullscreenenter"",""5"",""16476""
","
","
","""event"",""trial"",""time""
""fullscreenenter"",""5"",""16476""
","
",381.9000000002561,NA,49,NA,NA,3000,1,652.735000001383,49,images/earth.jpg,images/tutrocket2,images/tutrocket1,null,images/tutrocket1,NA,1,practice,null,1,NA,NA,NA,sub46
d3-animate-choice,101,667215,0.0-61.0-1.13,FALSE,FALSE,FALSE,TRUE,"""event"",""trial"",""time""
""fullscreenenter"",""5"",""16476""
","
","
","""event"",""trial"",""time""
""fullscreenenter"",""5"",""16476""
","
",13.039999999920838,NA,49,NA,NA,3000,1,NA,NA,images/tutyellowplanet.jpg,images/tutalien4,images/tutalien3,images/tutrocket1,images/tutalien3,images/nothing.png,2,practice,true,1,common,0,2020-06-23T19:57:57Z,sub46
two-step-fixation,102,668224,0.0-61.0-2.13,FALSE,FALSE,FALSE,TRUE,"""event"",""trial"",""time""
""fullscreenenter"",""5"",""16476""
","
","
","""event"",""trial"",""time""
""fullscreenenter"",""5"",""16476""
","
",NA,images/earth.jpg,NA,NA,NA,NA,NA,NA,NA,NA,NA,NA,NA,NA,NA,fixation,NA,NA,NA,NA,NA,NA,sub46
d3-animate-choice,103,670719,0.0-61.0-0.14,FALSE,FALSE,FALSE,TRUE,"""event"",""trial"",""time""
""fullscreenenter"",""5"",""16476""
","
","
","""event"",""trial"",""time""
""fullscreenenter"",""5"",""16476""
","
",488.25000000034925,NA,48,NA,NA,3000,1,NA,NA,images/earth.jpg,images/tutrocket2,images/tutrocket1,null,images/tutrocket2,NA,1,practice,null,2,NA,NA,NA,sub46
d3-animate-choice,104,673117,0.0-61.0-1.14,FALSE,FALSE,FALSE,TRUE,"""event"",""trial"",""time""
""fullscreenenter"",""5"",""16476""
","
","
","""event"",""trial"",""time""
""fullscreenenter"",""5"",""16476""
","
",388.6500000007218,NA,49,NA,NA,3000,1,NA,NA,images/tutgreenplanet.jpg,images/tutalien2,images/tutalien1,images/tutrocket2,images/tutalien1,images/nothing.png,2,practice,true,1,common,0,2020-06-23T19:58:03Z,sub46
two-step-fixation,105,674126,0.0-61.0-2.14,FALSE,FALSE,FALSE,TRUE,"""event"",""trial"",""time""
""fullscreenenter"",""5"",""16476""
","
","
","""event"",""trial"",""time""
""fullscreenenter"",""5"",""16476""
","
",NA,images/earth.jpg,NA,NA,NA,NA,NA,NA,NA,NA,NA,NA,NA,NA,NA,fixation,NA,NA,NA,NA,NA,NA,sub46
d3-animate-choice,106,676435,0.0-61.0-0.15,FALSE,FALSE,FALSE,TRUE,"""event"",""trial"",""time""
""fullscreenenter"",""5"",""16476""
","
","
","""event"",""trial"",""time""
""fullscreenenter"",""5"",""16476""
","
",297.68999999947846,NA,48,NA,NA,3000,1,NA,NA,images/earth.jpg,images/tutrocket2,images/tutrocket1,null,images/tutrocket2,NA,1,practice,null,2,NA,NA,NA,sub46
d3-animate-choice,107,678950,0.0-61.0-1.15,FALSE,FALSE,FALSE,TRUE,"""event"",""trial"",""time""
""fullscreenenter"",""5"",""16476""
","
","
","""event"",""trial"",""time""
""fullscreenenter"",""5"",""16476""
","
",495.4850000012666,NA,49,NA,NA,3000,1,NA,NA,images/tutyellowplanet.jpg,images/tutalien4,images/tutalien3,images/tutrocket2,images/tutalien3,images/t.png,2,practice,false,1,rare,1,2020-06-23T19:58:09Z,sub46
two-step-fixation,108,679963,0.0-61.0-2.15,FALSE,FALSE,FALSE,TRUE,"""event"",""trial"",""time""
""fullscreenenter"",""5"",""16476""
","
","
","""event"",""trial"",""time""
""fullscreenenter"",""5"",""16476""
","
",NA,images/earth.jpg,NA,NA,NA,NA,NA,NA,NA,NA,NA,NA,NA,NA,NA,fixation,NA,NA,NA,NA,NA,NA,sub46
d3-animate-choice,109,682528,0.0-61.0-0.16,FALSE,FALSE,FALSE,TRUE,"""event"",""trial"",""time""
""fullscreenenter"",""5"",""16476""
","
","
","""event"",""trial"",""time""
""fullscreenenter"",""5"",""16476""
","
",547.990000000922,NA,48,NA,NA,3000,1,NA,NA,images/earth.jpg,images/tutrocket2,images/tutrocket1,null,images/tutrocket2,NA,1,practice,null,2,NA,NA,NA,sub46
d3-animate-choice,110,684949,0.0-61.0-1.16,FALSE,FALSE,FALSE,TRUE,"""event"",""trial"",""time""
""fullscreenenter"",""5"",""16476""
","
","
","""event"",""trial"",""time""
""fullscreenenter"",""5"",""16476""
","
",403.5599999988917,NA,48,NA,NA,3000,1,NA,NA,images/tutgreenplanet.jpg,images/tutalien2,images/tutalien1,images/tutrocket2,images/tutalien2,images/nothing.png,2,practice,true,2,common,0,2020-06-23T19:58:15Z,sub46
two-step-fixation,111,685960,0.0-61.0-2.16,FALSE,FALSE,FALSE,TRUE,"""event"",""trial"",""time""
""fullscreenenter"",""5"",""16476""
","
","
","""event"",""trial"",""time""
""fullscreenenter"",""5"",""16476""
","
",NA,images/earth.jpg,NA,NA,NA,NA,NA,NA,NA,NA,NA,NA,NA,NA,NA,fixation,NA,NA,NA,NA,NA,NA,sub46
d3-animate-choice,112,688297,0.0-61.0-0.17,FALSE,FALSE,FALSE,TRUE,"""event"",""trial"",""time""
""fullscreenenter"",""5"",""16476""
","
","
","""event"",""trial"",""time""
""fullscreenenter"",""5"",""16476""
","
",323.80000000004657,NA,49,NA,NA,3000,1,NA,NA,images/earth.jpg,images/tutrocket2,images/tutrocket1,null,images/tutrocket1,NA,1,practice,null,1,NA,NA,NA,sub46
d3-animate-choice,113,690646,0.0-61.0-1.17,FALSE,FALSE,FALSE,TRUE,"""event"",""trial"",""time""
""fullscreenenter"",""5"",""16476""
","
","
","""event"",""trial"",""time""
""fullscreenenter"",""5"",""16476""
","
",331.20500000042375,NA,49,NA,NA,3000,1,NA,NA,images/tutyellowplanet.jpg,images/tutalien4,images/tutalien3,images/tutrocket1,images/tutalien3,images/nothing.png,2,practice,true,1,common,0,2020-06-23T19:58:21Z,sub46
two-step-fixation,114,691660,0.0-61.0-2.17,FALSE,FALSE,FALSE,TRUE,"""event"",""trial"",""time""
""fullscreenenter"",""5"",""16476""
","
","
","""event"",""trial"",""time""
""fullscreenenter"",""5"",""16476""
","
",NA,images/earth.jpg,NA,NA,NA,NA,NA,NA,NA,NA,NA,NA,NA,NA,NA,fixation,NA,NA,NA,NA,NA,NA,sub46
d3-animate-choice,115,694043,0.0-61.0-0.18,FALSE,FALSE,FALSE,TRUE,"""event"",""trial"",""time""
""fullscreenenter"",""5"",""16476""
","
","
","""event"",""trial"",""time""
""fullscreenenter"",""5"",""16476""
","
",366.8300000008894,NA,49,NA,NA,3000,1,NA,NA,images/earth.jpg,images/tutrocket2,images/tutrocket1,null,images/tutrocket1,NA,1,practice,null,1,NA,NA,NA,sub46
d3-animate-choice,116,696470,0.0-61.0-1.18,FALSE,FALSE,FALSE,TRUE,"""event"",""trial"",""time""
""fullscreenenter"",""5"",""16476""
","
","
","""event"",""trial"",""time""
""fullscreenenter"",""5"",""16476""
","
",415.4600000001956,NA,49,NA,NA,3000,1,NA,NA,images/tutyellowplanet.jpg,images/tutalien4,images/tutalien3,images/tutrocket1,images/tutalien3,images/nothing.png,2,practice,true,1,common,0,2020-06-23T19:58:27Z,sub46
two-step-fixation,117,697481,0.0-61.0-2.18,FALSE,FALSE,FALSE,TRUE,"""event"",""trial"",""time""
""fullscreenenter"",""5"",""16476""
","
","
","""event"",""trial"",""time""
""fullscreenenter"",""5"",""16476""
","
",NA,images/earth.jpg,NA,NA,NA,NA,NA,NA,NA,NA,NA,NA,NA,NA,NA,fixation,NA,NA,NA,NA,NA,NA,sub46
d3-animate-choice,118,699742,0.0-61.0-0.19,FALSE,FALSE,FALSE,TRUE,"""event"",""trial"",""time""
""fullscreenenter"",""5"",""16476""
","
","
","""event"",""trial"",""time""
""fullscreenenter"",""5"",""16476""
","
",248.05000000016298,NA,49,NA,NA,3000,1,NA,NA,images/earth.jpg,images/tutrocket2,images/tutrocket1,null,images/tutrocket1,NA,1,practice,null,1,NA,NA,NA,sub46
d3-animate-choice,119,702267,0.0-61.0-1.19,FALSE,FALSE,FALSE,TRUE,"""event"",""trial"",""time""
""fullscreenenter"",""5"",""16476""
","
","
","""event"",""trial"",""time""
""fullscreenenter"",""5"",""16476""
","
",506.60500000044703,NA,48,NA,NA,3000,1,NA,NA,images/tutyellowplanet.jpg,images/tutalien4,images/tutalien3,images/tutrocket1,images/tutalien4,images/t.png,2,practice,true,2,common,1,2020-06-23T19:58:33Z,sub46
two-step-fixation,120,703276,0.0-61.0-2.19,FALSE,FALSE,FALSE,TRUE,"""event"",""trial"",""time""
""fullscreenenter"",""5"",""16476""
","
","
","""event"",""trial"",""time""
""fullscreenenter"",""5"",""16476""
","
",NA,images/earth.jpg,NA,NA,NA,NA,NA,NA,NA,NA,NA,NA,NA,NA,NA,fixation,NA,NA,NA,NA,NA,NA,sub46
d3-instructions,121,718476,0.0-62.0,FALSE,FALSE,FALSE,TRUE,"""event"",""trial"",""time""
""fullscreenenter"",""5"",""16476""
","
","
","""event"",""trial"",""time""
""fullscreenenter"",""5"",""16476""
","
",NA,NA,NA,NA,NA,NA,NA,NA,NA,NA,NA,NA,NA,NA,NA,NA,NA,NA,NA,NA,NA,NA,sub46
audio-keyboard-response,122,721063,0.0-63.0,FALSE,FALSE,FALSE,TRUE,"""event"",""trial"",""time""
""fullscreenenter"",""5"",""16476""
","
","
","""event"",""trial"",""time""
""fullscreenenter"",""5"",""16476""
","
",2581,audio/instructions/treasure_feedback.wav,32,NA,NA,NA,NA,NA,NA,NA,NA,NA,NA,NA,NA,NA,NA,NA,NA,NA,NA,NA,sub46
d3-instructions,123,933404,0.0-64.0,FALSE,FALSE,FALSE,TRUE,"""event"",""trial"",""time""
""fullscreenenter"",""5"",""16476""
","
","
","""event"",""trial"",""time""
""fullscreenenter"",""5"",""16476""
","
",NA,NA,NA,NA,NA,NA,NA,NA,NA,NA,NA,NA,NA,NA,NA,NA,NA,NA,NA,NA,NA,NA,sub46
d3-instructions,124,939702,0.0-65.0,FALSE,FALSE,FALSE,TRUE,"""event"",""trial"",""time""
""fullscreenenter"",""5"",""16476""
","
","
","""event"",""trial"",""time""
""fullscreenenter"",""5"",""16476""
","
",NA,NA,NA,NA,NA,NA,NA,NA,NA,NA,NA,NA,NA,NA,NA,NA,NA,NA,NA,NA,NA,NA,sub46
d3-instructions,125,948896,0.0-66.0,FALSE,FALSE,FALSE,TRUE,"""event"",""trial"",""time""
""fullscreenenter"",""5"",""16476""
","
","
","""event"",""trial"",""time""
""fullscreenenter"",""5"",""16476""
","
",NA,NA,NA,NA,NA,NA,NA,NA,NA,NA,NA,NA,NA,NA,NA,NA,NA,NA,NA,NA,NA,NA,sub46
d3-instructions,126,951013,0.0-67.0,FALSE,FALSE,FALSE,TRUE,"""event"",""trial"",""time""
""fullscreenenter"",""5"",""16476""
","
","
","""event"",""trial"",""time""
""fullscreenenter"",""5"",""16476""
","
",NA,NA,NA,NA,NA,NA,NA,NA,NA,NA,NA,NA,NA,NA,NA,NA,NA,NA,NA,NA,NA,NA,sub46
d3-instructions,127,956746,0.0-68.0,FALSE,FALSE,FALSE,TRUE,"""event"",""trial"",""time""
""fullscreenenter"",""5"",""16476""
","
","
","""event"",""trial"",""time""
""fullscreenenter"",""5"",""16476""
","
",NA,NA,NA,NA,NA,NA,NA,NA,NA,NA,NA,NA,NA,NA,NA,NA,NA,NA,NA,NA,NA,NA,sub46
instructions-quiz,128,960178,0.0-69.0,FALSE,FALSE,FALSE,TRUE,"""event"",""trial"",""time""
""fullscreenenter"",""5"",""16476""
","
","
","""event"",""trial"",""time""
""fullscreenenter"",""5"",""16476""
","
",3424.999999999185,audio/quiz/Q1_Prompt.wav,NA,0,NA,NA,NA,NA,NA,NA,NA,NA,NA,NA,NA,NA,NA,NA,NA,NA,NA,NA,sub46
audio-keyboard-response,129,968753,0.0-70.0,FALSE,FALSE,FALSE,TRUE,"""event"",""trial"",""time""
""fullscreenenter"",""5"",""16476""
","
","
","""event"",""trial"",""time""
""fullscreenenter"",""5"",""16476""
","
",8565,audio/quiz/Q1_Incorrect.wav,32,NA,NA,NA,NA,NA,NA,NA,NA,NA,NA,NA,NA,NA,NA,NA,NA,NA,NA,NA,sub46
instructions-quiz,130,975253,0.0-71.0,FALSE,FALSE,FALSE,TRUE,"""event"",""trial"",""time""
""fullscreenenter"",""5"",""16476""
","
","
","""event"",""trial"",""time""
""fullscreenenter"",""5"",""16476""
","
",6493.080000000191,audio/quiz/Q2_Prompt.wav,NA,1,NA,NA,NA,NA,NA,NA,NA,NA,NA,NA,NA,NA,NA,NA,NA,NA,NA,NA,sub46
audio-keyboard-response,131,981798,0.0-72.0,FALSE,FALSE,FALSE,TRUE,"""event"",""trial"",""time""
""fullscreenenter"",""5"",""16476""
","
","
","""event"",""trial"",""time""
""fullscreenenter"",""5"",""16476""
","
",6528,audio/quiz/Q2_Incorrect.wav,32,NA,NA,NA,NA,NA,NA,NA,NA,NA,NA,NA,NA,NA,NA,NA,NA,NA,NA,NA,sub46
instructions-quiz,132,988071,0.0-73.0,FALSE,FALSE,FALSE,TRUE,"""event"",""trial"",""time""
""fullscreenenter"",""5"",""16476""
","
","
","""event"",""trial"",""time""
""fullscreenenter"",""5"",""16476""
","
",6268.565000000293,audio/quiz/Q3_Prompt.wav,NA,1,NA,NA,NA,NA,NA,NA,NA,NA,NA,NA,NA,NA,NA,NA,NA,NA,NA,NA,sub46
audio-keyboard-response,133,993881,0.0-74.0,FALSE,FALSE,FALSE,TRUE,"""event"",""trial"",""time""
""fullscreenenter"",""5"",""16476""
","
","
","""event"",""trial"",""time""
""fullscreenenter"",""5"",""16476""
","
",null,audio/quiz/Q3_Correct.wav,null,NA,NA,NA,NA,NA,NA,NA,NA,NA,NA,NA,NA,NA,NA,NA,NA,NA,NA,NA,sub46
d3-instructions,134,1000517,0.0-75.0,FALSE,FALSE,FALSE,TRUE,"""event"",""trial"",""time""
""fullscreenenter"",""5"",""16476""
","
","
","""event"",""trial"",""time""
""fullscreenenter"",""5"",""16476""
","
",NA,NA,NA,NA,NA,NA,NA,NA,NA,NA,NA,NA,NA,NA,NA,NA,NA,NA,NA,NA,NA,NA,sub46
d3-animate-choice,135,1004527,0.0-76.0-0.0,FALSE,FALSE,FALSE,TRUE,"""event"",""trial"",""time""
""fullscreenenter"",""5"",""16476""
","
","
","""event"",""trial"",""time""
""fullscreenenter"",""5"",""16476""
","
",3657.8549999995157,NA,49,NA,NA,3000,0,NA,NA,images/earth.jpg,images/rocket1,images/rocket2,null,NA,NA,1,real,null,1,NA,NA,NA,sub46
d3-animate-choice,136,1005541,0.0-76.0-1.0,FALSE,FALSE,FALSE,TRUE,"""event"",""trial"",""time""
""fullscreenenter"",""5"",""16476""
","
","
","""event"",""trial"",""time""
""fullscreenenter"",""5"",""16476""
","
",null,NA,null,NA,NA,0,0,NA,NA,images/earth.jpg,images/rocket1,images/rocket2,null,NA,NA,2,real,null,NA,NA,0,2020-06-23T20:03:36Z,sub46
two-step-fixation,137,1006548,0.0-76.0-2.0,FALSE,FALSE,FALSE,TRUE,"""event"",""trial"",""time""
""fullscreenenter"",""5"",""16476""
","
","
","""event"",""trial"",""time""
""fullscreenenter"",""5"",""16476""
","
",NA,images/earth.jpg,NA,NA,NA,NA,NA,NA,NA,NA,NA,NA,NA,NA,NA,fixation,NA,NA,NA,NA,NA,NA,sub46
d3-animate-choice,138,1008955,0.0-76.0-0.1,FALSE,FALSE,FALSE,TRUE,"""event"",""trial"",""time""
""fullscreenenter"",""5"",""16476""
","
","
","""event"",""trial"",""time""
""fullscreenenter"",""5"",""16476""
","
",398.56499999947846,NA,49,NA,NA,3000,1,"425.414999999688,538.7699999992037",192192,images/earth.jpg,images/rocket1,images/rocket2,null,images/rocket2,NA,1,real,null,1,NA,NA,NA,sub46
d3-animate-choice,139,1011516,0.0-76.0-1.1,FALSE,FALSE,FALSE,TRUE,"""event"",""trial"",""time""
""fullscreenenter"",""5"",""16476""
","
","
","""event"",""trial"",""time""
""fullscreenenter"",""5"",""16476""
","
",548.8150000000605,NA,48,NA,NA,3000,1,NA,NA,images/purpleplanet.jpg,images/alien4,images/alien3,images/rocket2,images/alien4,images/t.png,2,real,false,2,rare,1,2020-06-23T20:03:42Z,sub46
two-step-fixation,140,1012524,0.0-76.0-2.1,FALSE,FALSE,FALSE,TRUE,"""event"",""trial"",""time""
""fullscreenenter"",""5"",""16476""
","
","
","""event"",""trial"",""time""
""fullscreenenter"",""5"",""16476""
","
",NA,images/earth.jpg,NA,NA,NA,NA,NA,NA,NA,NA,NA,NA,NA,NA,NA,fixation,NA,NA,NA,NA,NA,NA,sub46
d3-animate-choice,141,1015431,0.0-76.0-0.2,FALSE,FALSE,FALSE,TRUE,"""event"",""trial"",""time""
""fullscreenenter"",""5"",""16476""
","
","
","""event"",""trial"",""time""
""fullscreenenter"",""5"",""16476""
","
",894.515000000014,NA,48,NA,NA,3000,1,NA,NA,images/earth.jpg,images/rocket1,images/rocket2,null,images/rocket1,NA,1,real,null,2,NA,NA,NA,sub46
d3-animate-choice,142,1017808,0.0-76.0-1.2,FALSE,FALSE,FALSE,TRUE,"""event"",""trial"",""time""
""fullscreenenter"",""5"",""16476""
","
","
","""event"",""trial"",""time""
""fullscreenenter"",""5"",""16476""
","
",360.7000000011176,NA,48,NA,NA,3000,1,NA,NA,images/purpleplanet.jpg,images/alien4,images/alien3,images/rocket1,images/alien4,images/nothing.png,2,real,true,2,common,0,2020-06-23T20:03:48Z,sub46
two-step-fixation,143,1018820,0.0-76.0-2.2,FALSE,FALSE,FALSE,TRUE,"""event"",""trial"",""time""
""fullscreenenter"",""5"",""16476""
","
","
","""event"",""trial"",""time""
""fullscreenenter"",""5"",""16476""
","
",NA,images/earth.jpg,NA,NA,NA,NA,NA,NA,NA,NA,NA,NA,NA,NA,NA,fixation,NA,NA,NA,NA,NA,NA,sub46
d3-animate-choice,144,1021364,0.0-76.0-0.3,FALSE,FALSE,FALSE,TRUE,"""event"",""trial"",""time""
""fullscreenenter"",""5"",""16476""
","
","
","""event"",""trial"",""time""
""fullscreenenter"",""5"",""16476""
","
",532.194999999716,NA,49,NA,NA,3000,1,NA,NA,images/earth.jpg,images/rocket1,images/rocket2,null,images/rocket2,NA,1,real,null,1,NA,NA,NA,sub46
d3-animate-choice,145,1023398,0.0-76.0-1.3,FALSE,FALSE,FALSE,TRUE,"""event"",""trial"",""time""
""fullscreenenter"",""5"",""16476""
","
","
","""event"",""trial"",""time""
""fullscreenenter"",""5"",""16476""
","
",22.635000001173466,NA,49,NA,NA,3000,1,NA,NA,images/redplanet1.jpg,images/alien2,images/alien1,images/rocket2,images/alien1,images/nothing.png,2,real,true,1,common,0,2020-06-23T20:03:54Z,sub46
two-step-fixation,146,1024410,0.0-76.0-2.3,FALSE,FALSE,FALSE,TRUE,"""event"",""trial"",""time""
""fullscreenenter"",""5"",""16476""
","
","
","""event"",""trial"",""time""
""fullscreenenter"",""5"",""16476""
","
",NA,images/earth.jpg,NA,NA,NA,NA,NA,NA,NA,NA,NA,NA,NA,NA,NA,fixation,NA,NA,NA,NA,NA,NA,sub46
d3-animate-choice,147,1026922,0.0-76.0-0.4,FALSE,FALSE,FALSE,TRUE,"""event"",""trial"",""time""
""fullscreenenter"",""5"",""16476""
","
","
","""event"",""trial"",""time""
""fullscreenenter"",""5"",""16476""
","
",497.4700000002049,NA,48,NA,NA,3000,1,NA,NA,images/earth.jpg,images/rocket1,images/rocket2,null,images/rocket1,NA,1,real,null,2,NA,NA,NA,sub46
d3-animate-choice,148,1029369,0.0-76.0-1.4,FALSE,FALSE,FALSE,TRUE,"""event"",""trial"",""time""
""fullscreenenter"",""5"",""16476""
","
","
","""event"",""trial"",""time""
""fullscreenenter"",""5"",""16476""
","
",434.41500000155065,NA,48,NA,NA,3000,1,NA,NA,images/redplanet1.jpg,images/alien2,images/alien1,images/rocket1,images/alien2,images/t.png,2,real,false,2,rare,1,2020-06-23T20:04:00Z,sub46
two-step-fixation,149,1030382,0.0-76.0-2.4,FALSE,FALSE,FALSE,TRUE,"""event"",""trial"",""time""
""fullscreenenter"",""5"",""16476""
","
","
","""event"",""trial"",""time""
""fullscreenenter"",""5"",""16476""
","
",NA,images/earth.jpg,NA,NA,NA,NA,NA,NA,NA,NA,NA,NA,NA,NA,NA,fixation,NA,NA,NA,NA,NA,NA,sub46
d3-animate-choice,150,1033372,0.0-76.0-0.5,FALSE,FALSE,FALSE,TRUE,"""event"",""trial"",""time""
""fullscreenenter"",""5"",""16476""
","
","
","""event"",""trial"",""time""
""fullscreenenter"",""5"",""16476""
","
",979.6049999985844,NA,48,NA,NA,3000,1,NA,NA,images/earth.jpg,images/rocket1,images/rocket2,null,images/rocket1,NA,1,real,null,2,NA,NA,NA,sub46
d3-animate-choice,151,1035900,0.0-76.0-1.5,FALSE,FALSE,FALSE,TRUE,"""event"",""trial"",""time""
""fullscreenenter"",""5"",""16476""
","
","
","""event"",""trial"",""time""
""fullscreenenter"",""5"",""16476""
","
",514.1250000015134,NA,49,NA,NA,3000,1,NA,NA,images/purpleplanet.jpg,images/alien4,images/alien3,images/rocket1,images/alien3,images/nothing.png,2,real,true,1,common,0,2020-06-23T20:04:06Z,sub46
two-step-fixation,152,1036909,0.0-76.0-2.5,FALSE,FALSE,FALSE,TRUE,"""event"",""trial"",""time""
""fullscreenenter"",""5"",""16476""
","
","
","""event"",""trial"",""time""
""fullscreenenter"",""5"",""16476""
","
",NA,images/earth.jpg,NA,NA,NA,NA,NA,NA,NA,NA,NA,NA,NA,NA,NA,fixation,NA,NA,NA,NA,NA,NA,sub46
d3-animate-choice,153,1039472,0.0-76.0-0.6,FALSE,FALSE,FALSE,TRUE,"""event"",""trial"",""time""
""fullscreenenter"",""5"",""16476""
","
","
","""event"",""trial"",""time""
""fullscreenenter"",""5"",""16476""
","
",547.9250000007451,NA,48,NA,NA,3000,1,NA,NA,images/earth.jpg,images/rocket1,images/rocket2,null,images/rocket1,NA,1,real,null,2,NA,NA,NA,sub46
d3-animate-choice,154,1041791,0.0-76.0-1.6,FALSE,FALSE,FALSE,TRUE,"""event"",""trial"",""time""
""fullscreenenter"",""5"",""16476""
","
","
","""event"",""trial"",""time""
""fullscreenenter"",""5"",""16476""
","
",308.0400000018999,NA,48,NA,NA,3000,1,NA,NA,images/purpleplanet.jpg,images/alien4,images/alien3,images/rocket1,images/alien4,images/t.png,2,real,true,2,common,1,2020-06-23T20:04:12Z,sub46
two-step-fixation,155,1042799,0.0-76.0-2.6,FALSE,FALSE,FALSE,TRUE,"""event"",""trial"",""time""
""fullscreenenter"",""5"",""16476""
","
","
","""event"",""trial"",""time""
""fullscreenenter"",""5"",""16476""
","
",NA,images/earth.jpg,NA,NA,NA,NA,NA,NA,NA,NA,NA,NA,NA,NA,NA,fixation,NA,NA,NA,NA,NA,NA,sub46
d3-animate-choice,156,1045408,0.0-76.0-0.7,FALSE,FALSE,FALSE,TRUE,"""event"",""trial"",""time""
""fullscreenenter"",""5"",""16476""
","
","
","""event"",""trial"",""time""
""fullscreenenter"",""5"",""16476""
","
",593.0599999991246,NA,48,NA,NA,3000,1,NA,NA,images/earth.jpg,images/rocket1,images/rocket2,null,images/rocket1,NA,1,real,null,2,NA,NA,NA,sub46
d3-animate-choice,157,1047834,0.0-76.0-1.7,FALSE,FALSE,FALSE,TRUE,"""event"",""trial"",""time""
""fullscreenenter"",""5"",""16476""
","
","
","""event"",""trial"",""time""
""fullscreenenter"",""5"",""16476""
","
",411.4250000002794,NA,49,NA,NA,3000,1,NA,NA,images/purpleplanet.jpg,images/alien4,images/alien3,images/rocket1,images/alien3,images/nothing.png,2,real,true,1,common,0,2020-06-23T20:04:18Z,sub46
two-step-fixation,158,1048843,0.0-76.0-2.7,FALSE,FALSE,FALSE,TRUE,"""event"",""trial"",""time""
""fullscreenenter"",""5"",""16476""
","
","
","""event"",""trial"",""time""
""fullscreenenter"",""5"",""16476""
","
",NA,images/earth.jpg,NA,NA,NA,NA,NA,NA,NA,NA,NA,NA,NA,NA,NA,fixation,NA,NA,NA,NA,NA,NA,sub46
d3-animate-choice,159,1052317,0.0-76.0-0.8,FALSE,FALSE,FALSE,TRUE,"""event"",""trial"",""time""
""fullscreenenter"",""5"",""16476""
","
","
","""event"",""trial"",""time""
""fullscreenenter"",""5"",""16476""
","
",1463.675000000978,NA,49,NA,NA,3000,1,NA,NA,images/earth.jpg,images/rocket1,images/rocket2,null,images/rocket2,NA,1,real,null,1,NA,NA,NA,sub46
d3-animate-choice,160,1055117,0.0-76.0-1.8,FALSE,FALSE,FALSE,TRUE,"""event"",""trial"",""time""
""fullscreenenter"",""5"",""16476""
","
","
","""event"",""trial"",""time""
""fullscreenenter"",""5"",""16476""
","
",785.7999999995809,NA,49,NA,NA,3000,1,NA,NA,images/redplanet1.jpg,images/alien2,images/alien1,images/rocket2,images/alien1,images/nothing.png,2,real,true,1,common,0,2020-06-23T20:04:25Z,sub46
two-step-fixation,161,1056125,0.0-76.0-2.8,FALSE,FALSE,FALSE,TRUE,"""event"",""trial"",""time""
""fullscreenenter"",""5"",""16476""
","
","
","""event"",""trial"",""time""
""fullscreenenter"",""5"",""16476""
","
",NA,images/earth.jpg,NA,NA,NA,NA,NA,NA,NA,NA,NA,NA,NA,NA,NA,fixation,NA,NA,NA,NA,NA,NA,sub46
d3-animate-choice,162,1059452,0.0-76.0-0.9,FALSE,FALSE,FALSE,TRUE,"""event"",""trial"",""time""
""fullscreenenter"",""5"",""16476""
","
","
","""event"",""trial"",""time""
""fullscreenenter"",""5"",""16476""
","
",1316.6649999986403,NA,48,NA,NA,3000,1,NA,NA,images/earth.jpg,images/rocket1,images/rocket2,null,images/rocket1,NA,1,real,null,2,NA,NA,NA,sub46
d3-animate-choice,163,1061949,0.0-76.0-1.9,FALSE,FALSE,FALSE,TRUE,"""event"",""trial"",""time""
""fullscreenenter"",""5"",""16476""
","
","
","""event"",""trial"",""time""
""fullscreenenter"",""5"",""16476""
","
",477.18999999947846,NA,48,NA,NA,3000,1,NA,NA,images/purpleplanet.jpg,images/alien4,images/alien3,images/rocket1,images/alien4,images/t.png,2,real,true,2,common,1,2020-06-23T20:04:32Z,sub46
two-step-fixation,164,1062958,0.0-76.0-2.9,FALSE,FALSE,FALSE,TRUE,"""event"",""trial"",""time""
""fullscreenenter"",""5"",""16476""
","
","
","""event"",""trial"",""time""
""fullscreenenter"",""5"",""16476""
","
",NA,images/earth.jpg,NA,NA,NA,NA,NA,NA,NA,NA,NA,NA,NA,NA,NA,fixation,NA,NA,NA,NA,NA,NA,sub46
d3-animate-choice,165,1066476,0.0-76.0-0.10,FALSE,FALSE,FALSE,TRUE,"""event"",""trial"",""time""
""fullscreenenter"",""5"",""16476""
","
","
","""event"",""trial"",""time""
""fullscreenenter"",""5"",""16476""
","
",1502.7650000010617,NA,48,NA,NA,3000,1,NA,NA,images/earth.jpg,images/rocket1,images/rocket2,null,images/rocket1,NA,1,real,null,2,NA,NA,NA,sub46
d3-animate-choice,166,1069011,0.0-76.0-1.10,FALSE,FALSE,FALSE,TRUE,"""event"",""trial"",""time""
""fullscreenenter"",""5"",""16476""
","
","
","""event"",""trial"",""time""
""fullscreenenter"",""5"",""16476""
","
",519.5999999996275,NA,48,NA,NA,3000,1,NA,NA,images/purpleplanet.jpg,images/alien4,images/alien3,images/rocket1,images/alien4,images/t.png,2,real,true,2,common,1,2020-06-23T20:04:39Z,sub46
two-step-fixation,167,1070023,0.0-76.0-2.10,FALSE,FALSE,FALSE,TRUE,"""event"",""trial"",""time""
""fullscreenenter"",""5"",""16476""
","
","
","""event"",""trial"",""time""
""fullscreenenter"",""5"",""16476""
","
",NA,images/earth.jpg,NA,NA,NA,NA,NA,NA,NA,NA,NA,NA,NA,NA,NA,fixation,NA,NA,NA,NA,NA,NA,sub46
d3-animate-choice,168,1072360,0.0-76.0-0.11,FALSE,FALSE,FALSE,TRUE,"""event"",""trial"",""time""
""fullscreenenter"",""5"",""16476""
","
","
","""event"",""trial"",""time""
""fullscreenenter"",""5"",""16476""
","
",323.784999998752,NA,49,NA,NA,3000,1,NA,NA,images/earth.jpg,images/rocket1,images/rocket2,null,images/rocket2,NA,1,real,null,1,NA,NA,NA,sub46
d3-animate-choice,169,1075169,0.0-76.0-1.11,FALSE,FALSE,FALSE,TRUE,"""event"",""trial"",""time""
""fullscreenenter"",""5"",""16476""
","
","
","""event"",""trial"",""time""
""fullscreenenter"",""5"",""16476""
","
",797.4350000002887,NA,49,NA,NA,3000,1,NA,NA,images/purpleplanet.jpg,images/alien4,images/alien3,images/rocket2,images/alien3,images/nothing.png,2,real,false,1,rare,0,2020-06-23T20:04:45Z,sub46
two-step-fixation,170,1076180,0.0-76.0-2.11,FALSE,FALSE,FALSE,TRUE,"""event"",""trial"",""time""
""fullscreenenter"",""5"",""16476""
","
","
","""event"",""trial"",""time""
""fullscreenenter"",""5"",""16476""
","
",NA,images/earth.jpg,NA,NA,NA,NA,NA,NA,NA,NA,NA,NA,NA,NA,NA,fixation,NA,NA,NA,NA,NA,NA,sub46
d3-animate-choice,171,1079257,0.0-76.0-0.12,FALSE,FALSE,FALSE,TRUE,"""event"",""trial"",""time""
""fullscreenenter"",""5"",""16476""
","
","
","""event"",""trial"",""time""
""fullscreenenter"",""5"",""16476""
","
",1050.2900000012014,NA,49,NA,NA,3000,1,NA,NA,images/earth.jpg,images/rocket1,images/rocket2,null,images/rocket2,NA,1,real,null,1,NA,NA,NA,sub46
d3-animate-choice,172,1081289,0.0-76.0-1.12,FALSE,FALSE,FALSE,TRUE,"""event"",""trial"",""time""
""fullscreenenter"",""5"",""16476""
","
","
","""event"",""trial"",""time""
""fullscreenenter"",""5"",""16476""
","
",17.170000000856817,NA,48,NA,NA,3000,1,NA,NA,images/redplanet1.jpg,images/alien2,images/alien1,images/rocket2,images/alien2,images/t.png,2,real,true,2,common,1,2020-06-23T20:04:52Z,sub46
two-step-fixation,173,1082298,0.0-76.0-2.12,FALSE,FALSE,FALSE,TRUE,"""event"",""trial"",""time""
""fullscreenenter"",""5"",""16476""
","
","
","""event"",""trial"",""time""
""fullscreenenter"",""5"",""16476""
","
",NA,images/earth.jpg,NA,NA,NA,NA,NA,NA,NA,NA,NA,NA,NA,NA,NA,fixation,NA,NA,NA,NA,NA,NA,sub46
d3-animate-choice,174,1085012,0.0-76.0-0.13,FALSE,FALSE,FALSE,TRUE,"""event"",""trial"",""time""
""fullscreenenter"",""5"",""16476""
","
","
","""event"",""trial"",""time""
""fullscreenenter"",""5"",""16476""
","
",697.9149999986403,NA,49,NA,NA,3000,1,NA,NA,images/earth.jpg,images/rocket1,images/rocket2,null,images/rocket2,NA,1,real,null,1,NA,NA,NA,sub46
d3-animate-choice,175,1088591,0.0-76.0-1.13,FALSE,FALSE,FALSE,TRUE,"""event"",""trial"",""time""
""fullscreenenter"",""5"",""16476""
","
","
","""event"",""trial"",""time""
""fullscreenenter"",""5"",""16476""
","
",1568.3499999996275,NA,48,NA,NA,3000,1,NA,NA,images/redplanet1.jpg,images/alien2,images/alien1,images/rocket2,images/alien2,images/t.png,2,real,true,2,common,1,2020-06-23T20:04:59Z,sub46
two-step-fixation,176,1089601,0.0-76.0-2.13,FALSE,FALSE,FALSE,TRUE,"""event"",""trial"",""time""
""fullscreenenter"",""5"",""16476""
","
","
","""event"",""trial"",""time""
""fullscreenenter"",""5"",""16476""
","
",NA,images/earth.jpg,NA,NA,NA,NA,NA,NA,NA,NA,NA,NA,NA,NA,NA,fixation,NA,NA,NA,NA,NA,NA,sub46
d3-animate-choice,177,1092223,0.0-76.0-0.14,FALSE,FALSE,FALSE,TRUE,"""event"",""trial"",""time""
""fullscreenenter"",""5"",""16476""
","
","
","""event"",""trial"",""time""
""fullscreenenter"",""5"",""16476""
","
",606.8900000008289,NA,49,NA,NA,3000,1,NA,NA,images/earth.jpg,images/rocket1,images/rocket2,null,images/rocket2,NA,1,real,null,1,NA,NA,NA,sub46
d3-animate-choice,178,1094556,0.0-76.0-1.14,FALSE,FALSE,FALSE,TRUE,"""event"",""trial"",""time""
""fullscreenenter"",""5"",""16476""
","
","
","""event"",""trial"",""time""
""fullscreenenter"",""5"",""16476""
","
",319.9400000011083,NA,49,NA,NA,3000,1,NA,NA,images/redplanet1.jpg,images/alien2,images/alien1,images/rocket2,images/alien1,images/t.png,2,real,true,1,common,1,2020-06-23T20:05:05Z,sub46
two-step-fixation,179,1095563,0.0-76.0-2.14,FALSE,FALSE,FALSE,TRUE,"""event"",""trial"",""time""
""fullscreenenter"",""5"",""16476""
","
","
","""event"",""trial"",""time""
""fullscreenenter"",""5"",""16476""
","
",NA,images/earth.jpg,NA,NA,NA,NA,NA,NA,NA,NA,NA,NA,NA,NA,NA,fixation,NA,NA,NA,NA,NA,NA,sub46
d3-animate-choice,180,1098110,0.0-76.0-0.15,FALSE,FALSE,FALSE,TRUE,"""event"",""trial"",""time""
""fullscreenenter"",""5"",""16476""
","
","
","""event"",""trial"",""time""
""fullscreenenter"",""5"",""16476""
","
",534.2049999998417,NA,49,NA,NA,3000,1,NA,NA,images/earth.jpg,images/rocket1,images/rocket2,null,images/rocket2,NA,1,real,null,1,NA,NA,NA,sub46
d3-animate-choice,181,1100695,0.0-76.0-1.15,FALSE,FALSE,FALSE,TRUE,"""event"",""trial"",""time""
""fullscreenenter"",""5"",""16476""
","
","
","""event"",""trial"",""time""
""fullscreenenter"",""5"",""16476""
","
",567.509999999078,NA,49,NA,NA,3000,1,NA,NA,images/purpleplanet.jpg,images/alien4,images/alien3,images/rocket2,images/alien3,images/t.png,2,real,false,1,rare,1,2020-06-23T20:05:11Z,sub46
two-step-fixation,182,1101707,0.0-76.0-2.15,FALSE,FALSE,FALSE,TRUE,"""event"",""trial"",""time""
""fullscreenenter"",""5"",""16476""
","
","
","""event"",""trial"",""time""
""fullscreenenter"",""5"",""16476""
","
",NA,images/earth.jpg,NA,NA,NA,NA,NA,NA,NA,NA,NA,NA,NA,NA,NA,fixation,NA,NA,NA,NA,NA,NA,sub46
d3-animate-choice,183,1104574,0.0-76.0-0.16,FALSE,FALSE,FALSE,TRUE,"""event"",""trial"",""time""
""fullscreenenter"",""5"",""16476""
","
","
","""event"",""trial"",""time""
""fullscreenenter"",""5"",""16476""
","
",855.5300000007264,NA,48,NA,NA,3000,1,NA,NA,images/earth.jpg,images/rocket1,images/rocket2,null,images/rocket1,NA,1,real,null,2,NA,NA,NA,sub46
d3-animate-choice,184,1106916,0.0-76.0-1.16,FALSE,FALSE,FALSE,TRUE,"""event"",""trial"",""time""
""fullscreenenter"",""5"",""16476""
","
","
","""event"",""trial"",""time""
""fullscreenenter"",""5"",""16476""
","
",326.07500000088476,NA,48,NA,NA,3000,1,NA,NA,images/purpleplanet.jpg,images/alien4,images/alien3,images/rocket1,images/alien4,images/t.png,2,real,true,2,common,1,2020-06-23T20:05:17Z,sub46
two-step-fixation,185,1107926,0.0-76.0-2.16,FALSE,FALSE,FALSE,TRUE,"""event"",""trial"",""time""
""fullscreenenter"",""5"",""16476""
","
","
","""event"",""trial"",""time""
""fullscreenenter"",""5"",""16476""
","
",NA,images/earth.jpg,NA,NA,NA,NA,NA,NA,NA,NA,NA,NA,NA,NA,NA,fixation,NA,NA,NA,NA,NA,NA,sub46
d3-animate-choice,186,1110333,0.0-76.0-0.17,FALSE,FALSE,FALSE,TRUE,"""event"",""trial"",""time""
""fullscreenenter"",""5"",""16476""
","
","
","""event"",""trial"",""time""
""fullscreenenter"",""5"",""16476""
","
",392.00999999954365,NA,49,NA,NA,3000,1,NA,NA,images/earth.jpg,images/rocket1,images/rocket2,null,images/rocket2,NA,1,real,null,1,NA,NA,NA,sub46
d3-animate-choice,187,1112881,0.0-76.0-1.17,FALSE,FALSE,FALSE,TRUE,"""event"",""trial"",""time""
""fullscreenenter"",""5"",""16476""
","
","
","""event"",""trial"",""time""
""fullscreenenter"",""5"",""16476""
","
",535.8849999993108,NA,49,NA,NA,3000,1,NA,NA,images/redplanet1.jpg,images/alien2,images/alien1,images/rocket2,images/alien1,images/t.png,2,real,true,1,common,1,2020-06-23T20:05:23Z,sub46
two-step-fixation,188,1113890,0.0-76.0-2.17,FALSE,FALSE,FALSE,TRUE,"""event"",""trial"",""time""
""fullscreenenter"",""5"",""16476""
","
","
","""event"",""trial"",""time""
""fullscreenenter"",""5"",""16476""
","
",NA,images/earth.jpg,NA,NA,NA,NA,NA,NA,NA,NA,NA,NA,NA,NA,NA,fixation,NA,NA,NA,NA,NA,NA,sub46
d3-animate-choice,189,1116695,0.0-76.0-0.18,FALSE,FALSE,FALSE,TRUE,"""event"",""trial"",""time""
""fullscreenenter"",""5"",""16476""
","
","
","""event"",""trial"",""time""
""fullscreenenter"",""5"",""16476""
","
",791.009999999078,NA,49,NA,NA,3000,1,NA,NA,images/earth.jpg,images/rocket1,images/rocket2,null,images/rocket2,NA,1,real,null,1,NA,NA,NA,sub46
d3-animate-choice,190,1119128,0.0-76.0-1.18,FALSE,FALSE,FALSE,TRUE,"""event"",""trial"",""time""
""fullscreenenter"",""5"",""16476""
","
","
","""event"",""trial"",""time""
""fullscreenenter"",""5"",""16476""
","
",423.97500000172295,NA,48,NA,NA,3000,1,NA,NA,images/redplanet1.jpg,images/alien2,images/alien1,images/rocket2,images/alien2,images/nothing.png,2,real,true,2,common,0,2020-06-23T20:05:29Z,sub46
two-step-fixation,191,1120137,0.0-76.0-2.18,FALSE,FALSE,FALSE,TRUE,"""event"",""trial"",""time""
""fullscreenenter"",""5"",""16476""
","
","
","""event"",""trial"",""time""
""fullscreenenter"",""5"",""16476""
","
",NA,images/earth.jpg,NA,NA,NA,NA,NA,NA,NA,NA,NA,NA,NA,NA,NA,fixation,NA,NA,NA,NA,NA,NA,sub46
d3-animate-choice,192,1122487,0.0-76.0-0.19,FALSE,FALSE,FALSE,TRUE,"""event"",""trial"",""time""
""fullscreenenter"",""5"",""16476""
","
","
","""event"",""trial"",""time""
""fullscreenenter"",""5"",""16476""
","
",340.8999999992084,NA,48,NA,NA,3000,1,NA,NA,images/earth.jpg,images/rocket1,images/rocket2,null,images/rocket1,NA,1,real,null,2,NA,NA,NA,sub46
d3-animate-choice,193,1125106,0.0-76.0-1.19,FALSE,FALSE,FALSE,TRUE,"""event"",""trial"",""time""
""fullscreenenter"",""5"",""16476""
","
","
","""event"",""trial"",""time""
""fullscreenenter"",""5"",""16476""
","
",607.0449999987613,NA,48,NA,NA,3000,1,NA,NA,images/purpleplanet.jpg,images/alien4,images/alien3,images/rocket1,images/alien4,images/t.png,2,real,true,2,common,1,2020-06-23T20:05:35Z,sub46
two-step-fixation,194,1126114,0.0-76.0-2.19,FALSE,FALSE,FALSE,TRUE,"""event"",""trial"",""time""
""fullscreenenter"",""5"",""16476""
","
","
","""event"",""trial"",""time""
""fullscreenenter"",""5"",""16476""
","
",NA,images/earth.jpg,NA,NA,NA,NA,NA,NA,NA,NA,NA,NA,NA,NA,NA,fixation,NA,NA,NA,NA,NA,NA,sub46
d3-animate-choice,195,1129153,0.0-76.0-0.20,FALSE,FALSE,FALSE,TRUE,"""event"",""trial"",""time""
""fullscreenenter"",""5"",""16476""
","
","
","""event"",""trial"",""time""
""fullscreenenter"",""5"",""16476""
","
",1025.059999999823,NA,48,NA,NA,3000,1,NA,NA,images/earth.jpg,images/rocket1,images/rocket2,null,images/rocket1,NA,1,real,null,2,NA,NA,NA,sub46
d3-animate-choice,196,1131707,0.0-76.0-1.20,FALSE,FALSE,FALSE,TRUE,"""event"",""trial"",""time""
""fullscreenenter"",""5"",""16476""
","
","
","""event"",""trial"",""time""
""fullscreenenter"",""5"",""16476""
","
",544.5999999991618,NA,49,NA,NA,3000,1,NA,NA,images/purpleplanet.jpg,images/alien4,images/alien3,images/rocket1,images/alien3,images/nothing.png,2,real,true,1,common,0,2020-06-23T20:05:42Z,sub46
two-step-fixation,197,1132716,0.0-76.0-2.20,FALSE,FALSE,FALSE,TRUE,"""event"",""trial"",""time""
""fullscreenenter"",""5"",""16476""
","
","
","""event"",""trial"",""time""
""fullscreenenter"",""5"",""16476""
","
",NA,images/earth.jpg,NA,NA,NA,NA,NA,NA,NA,NA,NA,NA,NA,NA,NA,fixation,NA,NA,NA,NA,NA,NA,sub46
d3-animate-choice,198,1135043,0.0-76.0-0.21,FALSE,FALSE,FALSE,TRUE,"""event"",""trial"",""time""
""fullscreenenter"",""5"",""16476""
","
","
","""event"",""trial"",""time""
""fullscreenenter"",""5"",""16476""
","
",312.9899999983609,NA,49,NA,NA,3000,1,NA,NA,images/earth.jpg,images/rocket1,images/rocket2,null,images/rocket2,NA,1,real,null,1,NA,NA,NA,sub46
d3-animate-choice,199,1137263,0.0-76.0-1.21,FALSE,FALSE,FALSE,TRUE,"""event"",""trial"",""time""
""fullscreenenter"",""5"",""16476""
","
","
","""event"",""trial"",""time""
""fullscreenenter"",""5"",""16476""
","
",207.589999999851,NA,49,NA,NA,3000,1,NA,NA,images/redplanet1.jpg,images/alien2,images/alien1,images/rocket2,images/alien1,images/nothing.png,2,real,true,1,common,0,2020-06-23T20:05:48Z,sub46
two-step-fixation,200,1138270,0.0-76.0-2.21,FALSE,FALSE,FALSE,TRUE,"""event"",""trial"",""time""
""fullscreenenter"",""5"",""16476""
","
","
","""event"",""trial"",""time""
""fullscreenenter"",""5"",""16476""
","
",NA,images/earth.jpg,NA,NA,NA,NA,NA,NA,NA,NA,NA,NA,NA,NA,NA,fixation,NA,NA,NA,NA,NA,NA,sub46
d3-animate-choice,201,1140747,0.0-76.0-0.22,FALSE,FALSE,FALSE,TRUE,"""event"",""trial"",""time""
""fullscreenenter"",""5"",""16476""
","
","
","""event"",""trial"",""time""
""fullscreenenter"",""5"",""16476""
","
",466.81999999983236,NA,49,NA,NA,3000,1,NA,NA,images/earth.jpg,images/rocket1,images/rocket2,null,images/rocket2,NA,1,real,null,1,NA,NA,NA,sub46
d3-animate-choice,202,1143099,0.0-76.0-1.22,FALSE,FALSE,FALSE,TRUE,"""event"",""trial"",""time""
""fullscreenenter"",""5"",""16476""
","
","
","""event"",""trial"",""time""
""fullscreenenter"",""5"",""16476""
","
",332.7349999998696,NA,49,NA,NA,3000,1,NA,NA,images/purpleplanet.jpg,images/alien4,images/alien3,images/rocket2,images/alien3,images/nothing.png,2,real,false,1,rare,0,2020-06-23T20:05:53Z,sub46
two-step-fixation,203,1144108,0.0-76.0-2.22,FALSE,FALSE,FALSE,TRUE,"""event"",""trial"",""time""
""fullscreenenter"",""5"",""16476""
","
","
","""event"",""trial"",""time""
""fullscreenenter"",""5"",""16476""
","
",NA,images/earth.jpg,NA,NA,NA,NA,NA,NA,NA,NA,NA,NA,NA,NA,NA,fixation,NA,NA,NA,NA,NA,NA,sub46
d3-animate-choice,204,1146344,0.0-76.0-0.23,FALSE,FALSE,FALSE,TRUE,"""event"",""trial"",""time""
""fullscreenenter"",""5"",""16476""
","
","
","""event"",""trial"",""time""
""fullscreenenter"",""5"",""16476""
","
",225.2800000004936,NA,48,NA,NA,3000,1,2160.6900000006426,49,images/earth.jpg,images/rocket1,images/rocket2,null,images/rocket1,NA,1,real,null,2,NA,NA,NA,sub46
d3-animate-choice,205,1148716,0.0-76.0-1.23,FALSE,FALSE,FALSE,TRUE,"""event"",""trial"",""time""
""fullscreenenter"",""5"",""16476""
","
","
","""event"",""trial"",""time""
""fullscreenenter"",""5"",""16476""
","
",358.36000000010245,NA,49,NA,NA,3000,1,NA,NA,images/purpleplanet.jpg,images/alien4,images/alien3,images/rocket1,images/alien3,images/t.png,2,real,true,1,common,1,2020-06-23T20:05:59Z,sub46
two-step-fixation,206,1149727,0.0-76.0-2.23,FALSE,FALSE,FALSE,TRUE,"""event"",""trial"",""time""
""fullscreenenter"",""5"",""16476""
","
","
","""event"",""trial"",""time""
""fullscreenenter"",""5"",""16476""
","
",NA,images/earth.jpg,NA,NA,NA,NA,NA,NA,NA,NA,NA,NA,NA,NA,NA,fixation,NA,NA,NA,NA,NA,NA,sub46
d3-animate-choice,207,1152224,0.0-76.0-0.24,FALSE,FALSE,FALSE,TRUE,"""event"",""trial"",""time""
""fullscreenenter"",""5"",""16476""
","
","
","""event"",""trial"",""time""
""fullscreenenter"",""5"",""16476""
","
",485.09000000031665,NA,49,NA,NA,3000,1,NA,NA,images/earth.jpg,images/rocket1,images/rocket2,null,images/rocket2,NA,1,real,null,1,NA,NA,NA,sub46
d3-animate-choice,208,1154369,0.0-76.0-1.24,FALSE,FALSE,FALSE,TRUE,"""event"",""trial"",""time""
""fullscreenenter"",""5"",""16476""
","
","
","""event"",""trial"",""time""
""fullscreenenter"",""5"",""16476""
","
",132.3850000007078,NA,48,NA,NA,3000,1,NA,NA,images/redplanet1.jpg,images/alien2,images/alien1,images/rocket2,images/alien2,images/nothing.png,2,real,true,2,common,0,2020-06-23T20:06:05Z,sub46
two-step-fixation,209,1155378,0.0-76.0-2.24,FALSE,FALSE,FALSE,TRUE,"""event"",""trial"",""time""
""fullscreenenter"",""5"",""16476""
","
","
","""event"",""trial"",""time""
""fullscreenenter"",""5"",""16476""
","
",NA,images/earth.jpg,NA,NA,NA,NA,NA,NA,NA,NA,NA,NA,NA,NA,NA,fixation,NA,NA,NA,NA,NA,NA,sub46
d3-animate-choice,210,1157641,0.0-76.0-0.25,FALSE,FALSE,FALSE,TRUE,"""event"",""trial"",""time""
""fullscreenenter"",""5"",""16476""
","
","
","""event"",""trial"",""time""
""fullscreenenter"",""5"",""16476""
","
",251.589999999851,NA,49,NA,NA,3000,1,NA,NA,images/earth.jpg,images/rocket1,images/rocket2,null,images/rocket2,NA,1,real,null,1,NA,NA,NA,sub46
d3-animate-choice,211,1159939,0.0-76.0-1.25,FALSE,FALSE,FALSE,TRUE,"""event"",""trial"",""time""
""fullscreenenter"",""5"",""16476""
","
","
","""event"",""trial"",""time""
""fullscreenenter"",""5"",""16476""
","
",280.85000000102445,NA,49,NA,NA,3000,1,NA,NA,images/redplanet1.jpg,images/alien2,images/alien1,images/rocket2,images/alien1,images/nothing.png,2,real,true,1,common,0,2020-06-23T20:06:10Z,sub46
two-step-fixation,212,1160949,0.0-76.0-2.25,FALSE,FALSE,FALSE,TRUE,"""event"",""trial"",""time""
""fullscreenenter"",""5"",""16476""
","
","
","""event"",""trial"",""time""
""fullscreenenter"",""5"",""16476""
","
",NA,images/earth.jpg,NA,NA,NA,NA,NA,NA,NA,NA,NA,NA,NA,NA,NA,fixation,NA,NA,NA,NA,NA,NA,sub46
d3-animate-choice,213,1163114,0.0-76.0-0.26,FALSE,FALSE,FALSE,TRUE,"""event"",""trial"",""time""
""fullscreenenter"",""5"",""16476""
","
","
","""event"",""trial"",""time""
""fullscreenenter"",""5"",""16476""
","
",153.16999999945983,NA,49,NA,NA,3000,1,1930.1999999987893,49,images/earth.jpg,images/rocket1,images/rocket2,null,images/rocket2,NA,1,real,null,1,NA,NA,NA,sub46
d3-animate-choice,214,1165526,0.0-76.0-1.26,FALSE,FALSE,FALSE,TRUE,"""event"",""trial"",""time""
""fullscreenenter"",""5"",""16476""
","
","
","""event"",""trial"",""time""
""fullscreenenter"",""5"",""16476""
","
",402.0849999997299,NA,49,NA,NA,3000,1,NA,NA,images/purpleplanet.jpg,images/alien4,images/alien3,images/rocket2,images/alien3,images/nothing.png,2,real,false,1,rare,0,2020-06-23T20:06:16Z,sub46
two-step-fixation,215,1166538,0.0-76.0-2.26,FALSE,FALSE,FALSE,TRUE,"""event"",""trial"",""time""
""fullscreenenter"",""5"",""16476""
","
","
","""event"",""trial"",""time""
""fullscreenenter"",""5"",""16476""
","
",NA,images/earth.jpg,NA,NA,NA,NA,NA,NA,NA,NA,NA,NA,NA,NA,NA,fixation,NA,NA,NA,NA,NA,NA,sub46
d3-animate-choice,216,1168911,0.0-76.0-0.27,FALSE,FALSE,FALSE,TRUE,"""event"",""trial"",""time""
""fullscreenenter"",""5"",""16476""
","
","
","""event"",""trial"",""time""
""fullscreenenter"",""5"",""16476""
","
",361.7400000002235,NA,48,NA,NA,3000,1,NA,NA,images/earth.jpg,images/rocket1,images/rocket2,null,images/rocket1,NA,1,real,null,2,NA,NA,NA,sub46
d3-animate-choice,217,1171192,0.0-76.0-1.27,FALSE,FALSE,FALSE,TRUE,"""event"",""trial"",""time""
""fullscreenenter"",""5"",""16476""
","
","
","""event"",""trial"",""time""
""fullscreenenter"",""5"",""16476""
","
",263.31500000017695,NA,49,NA,NA,3000,1,NA,NA,images/purpleplanet.jpg,images/alien4,images/alien3,images/rocket1,images/alien3,images/t.png,2,real,true,1,common,1,2020-06-23T20:06:21Z,sub46
two-step-fixation,218,1172206,0.0-76.0-2.27,FALSE,FALSE,FALSE,TRUE,"""event"",""trial"",""time""
""fullscreenenter"",""5"",""16476""
","
","
","""event"",""trial"",""time""
""fullscreenenter"",""5"",""16476""
","
",NA,images/earth.jpg,NA,NA,NA,NA,NA,NA,NA,NA,NA,NA,NA,NA,NA,fixation,NA,NA,NA,NA,NA,NA,sub46
d3-animate-choice,219,1174759,0.0-76.0-0.28,FALSE,FALSE,FALSE,TRUE,"""event"",""trial"",""time""
""fullscreenenter"",""5"",""16476""
","
","
","""event"",""trial"",""time""
""fullscreenenter"",""5"",""16476""
","
",540.4699999999721,NA,49,NA,NA,3000,1,NA,NA,images/earth.jpg,images/rocket1,images/rocket2,null,images/rocket2,NA,1,real,null,1,NA,NA,NA,sub46
d3-animate-choice,220,1177157,0.0-76.0-1.28,FALSE,FALSE,FALSE,TRUE,"""event"",""trial"",""time""
""fullscreenenter"",""5"",""16476""
","
","
","""event"",""trial"",""time""
""fullscreenenter"",""5"",""16476""
","
",387.0499999993481,NA,49,NA,NA,3000,1,NA,NA,images/purpleplanet.jpg,images/alien4,images/alien3,images/rocket2,images/alien3,images/t.png,2,real,false,1,rare,1,2020-06-23T20:06:27Z,sub46
two-step-fixation,221,1178167,0.0-76.0-2.28,FALSE,FALSE,FALSE,TRUE,"""event"",""trial"",""time""
""fullscreenenter"",""5"",""16476""
","
","
","""event"",""trial"",""time""
""fullscreenenter"",""5"",""16476""
","
",NA,images/earth.jpg,NA,NA,NA,NA,NA,NA,NA,NA,NA,NA,NA,NA,NA,fixation,NA,NA,NA,NA,NA,NA,sub46
d3-animate-choice,222,1180540,0.0-76.0-0.29,FALSE,FALSE,FALSE,TRUE,"""event"",""trial"",""time""
""fullscreenenter"",""5"",""16476""
","
","
","""event"",""trial"",""time""
""fullscreenenter"",""5"",""16476""
","
",358.79999999981374,NA,48,NA,NA,3000,1,NA,NA,images/earth.jpg,images/rocket1,images/rocket2,null,images/rocket1,NA,1,real,null,2,NA,NA,NA,sub46
d3-animate-choice,223,1183230,0.0-76.0-1.29,FALSE,FALSE,FALSE,TRUE,"""event"",""trial"",""time""
""fullscreenenter"",""5"",""16476""
","
","
","""event"",""trial"",""time""
""fullscreenenter"",""5"",""16476""
","
",675.3300000000745,NA,48,NA,NA,3000,1,NA,NA,images/redplanet1.jpg,images/alien2,images/alien1,images/rocket1,images/alien2,images/nothing.png,2,real,false,2,rare,0,2020-06-23T20:06:33Z,sub46
two-step-fixation,224,1184239,0.0-76.0-2.29,FALSE,FALSE,FALSE,TRUE,"""event"",""trial"",""time""
""fullscreenenter"",""5"",""16476""
","
","
","""event"",""trial"",""time""
""fullscreenenter"",""5"",""16476""
","
",NA,images/earth.jpg,NA,NA,NA,NA,NA,NA,NA,NA,NA,NA,NA,NA,NA,fixation,NA,NA,NA,NA,NA,NA,sub46
d3-animate-choice,225,1186568,0.0-76.0-0.30,FALSE,FALSE,FALSE,TRUE,"""event"",""trial"",""time""
""fullscreenenter"",""5"",""16476""
","
","
","""event"",""trial"",""time""
""fullscreenenter"",""5"",""16476""
","
",317.2100000011269,NA,48,NA,NA,3000,1,NA,NA,images/earth.jpg,images/rocket1,images/rocket2,null,images/rocket1,NA,1,real,null,2,NA,NA,NA,sub46
d3-animate-choice,226,1188946,0.0-76.0-1.30,FALSE,FALSE,FALSE,TRUE,"""event"",""trial"",""time""
""fullscreenenter"",""5"",""16476""
","
","
","""event"",""trial"",""time""
""fullscreenenter"",""5"",""16476""
","
",361.989999999525,NA,48,NA,NA,3000,1,NA,NA,images/redplanet1.jpg,images/alien2,images/alien1,images/rocket1,images/alien2,images/t.png,2,real,false,2,rare,1,2020-06-23T20:06:39Z,sub46
two-step-fixation,227,1189954,0.0-76.0-2.30,FALSE,FALSE,FALSE,TRUE,"""event"",""trial"",""time""
""fullscreenenter"",""5"",""16476""
","
","
","""event"",""trial"",""time""
""fullscreenenter"",""5"",""16476""
","
",NA,images/earth.jpg,NA,NA,NA,NA,NA,NA,NA,NA,NA,NA,NA,NA,NA,fixation,NA,NA,NA,NA,NA,NA,sub46
d3-animate-choice,228,1192636,0.0-76.0-0.31,FALSE,FALSE,FALSE,TRUE,"""event"",""trial"",""time""
""fullscreenenter"",""5"",""16476""
","
","
","""event"",""trial"",""time""
""fullscreenenter"",""5"",""16476""
","
",670.4500000013504,NA,49,NA,NA,3000,1,NA,NA,images/earth.jpg,images/rocket1,images/rocket2,null,images/rocket2,NA,1,real,null,1,NA,NA,NA,sub46
d3-animate-choice,229,1195247,0.0-76.0-1.31,FALSE,FALSE,FALSE,TRUE,"""event"",""trial"",""time""
""fullscreenenter"",""5"",""16476""
","
","
","""event"",""trial"",""time""
""fullscreenenter"",""5"",""16476""
","
",596.5299999988638,NA,49,NA,NA,3000,1,NA,NA,images/redplanet1.jpg,images/alien2,images/alien1,images/rocket2,images/alien1,images/nothing.png,2,real,true,1,common,0,2020-06-23T20:06:45Z,sub46
two-step-fixation,230,1196256,0.0-76.0-2.31,FALSE,FALSE,FALSE,TRUE,"""event"",""trial"",""time""
""fullscreenenter"",""5"",""16476""
","
","
","""event"",""trial"",""time""
""fullscreenenter"",""5"",""16476""
","
",NA,images/earth.jpg,NA,NA,NA,NA,NA,NA,NA,NA,NA,NA,NA,NA,NA,fixation,NA,NA,NA,NA,NA,NA,sub46
d3-animate-choice,231,1198654,0.0-76.0-0.32,FALSE,FALSE,FALSE,TRUE,"""event"",""trial"",""time""
""fullscreenenter"",""5"",""16476""
","
","
","""event"",""trial"",""time""
""fullscreenenter"",""5"",""16476""
","
",388.65500000072643,NA,48,NA,NA,3000,1,NA,NA,images/earth.jpg,images/rocket1,images/rocket2,null,images/rocket1,NA,1,real,null,2,NA,NA,NA,sub46
d3-animate-choice,232,1201315,0.0-76.0-1.32,FALSE,FALSE,FALSE,TRUE,"""event"",""trial"",""time""
""fullscreenenter"",""5"",""16476""
","
","
","""event"",""trial"",""time""
""fullscreenenter"",""5"",""16476""
","
",644.5250000015367,NA,49,NA,NA,3000,1,NA,NA,images/redplanet1.jpg,images/alien2,images/alien1,images/rocket1,images/alien1,images/nothing.png,2,real,false,1,rare,0,2020-06-23T20:06:52Z,sub46
two-step-fixation,233,1202327,0.0-76.0-2.32,FALSE,FALSE,FALSE,TRUE,"""event"",""trial"",""time""
""fullscreenenter"",""5"",""16476""
","
","
","""event"",""trial"",""time""
""fullscreenenter"",""5"",""16476""
","
",NA,images/earth.jpg,NA,NA,NA,NA,NA,NA,NA,NA,NA,NA,NA,NA,NA,fixation,NA,NA,NA,NA,NA,NA,sub46
d3-animate-choice,234,1204690,0.0-76.0-0.33,FALSE,FALSE,FALSE,TRUE,"""event"",""trial"",""time""
""fullscreenenter"",""5"",""16476""
","
","
","""event"",""trial"",""time""
""fullscreenenter"",""5"",""16476""
","
",349.8600000003353,NA,49,NA,NA,3000,1,NA,NA,images/earth.jpg,images/rocket1,images/rocket2,null,images/rocket2,NA,1,real,null,1,NA,NA,NA,sub46
d3-animate-choice,235,1207447,0.0-76.0-1.33,FALSE,FALSE,FALSE,TRUE,"""event"",""trial"",""time""
""fullscreenenter"",""5"",""16476""
","
","
","""event"",""trial"",""time""
""fullscreenenter"",""5"",""16476""
","
",744.1900000013411,NA,48,NA,NA,3000,1,NA,NA,images/redplanet1.jpg,images/alien2,images/alien1,images/rocket2,images/alien2,images/t.png,2,real,true,2,common,1,2020-06-23T20:06:58Z,sub46
two-step-fixation,236,1208469,0.0-76.0-2.33,FALSE,FALSE,FALSE,TRUE,"""event"",""trial"",""time""
""fullscreenenter"",""5"",""16476""
","
","
","""event"",""trial"",""time""
""fullscreenenter"",""5"",""16476""
","
",NA,images/earth.jpg,NA,NA,NA,NA,NA,NA,NA,NA,NA,NA,NA,NA,NA,fixation,NA,NA,NA,NA,NA,NA,sub46
d3-animate-choice,237,1211015,0.0-76.0-0.34,FALSE,FALSE,FALSE,TRUE,"""event"",""trial"",""time""
""fullscreenenter"",""5"",""16476""
","
","
","""event"",""trial"",""time""
""fullscreenenter"",""5"",""16476""
","
",518.1999999985565,NA,49,NA,NA,3000,1,NA,NA,images/earth.jpg,images/rocket1,images/rocket2,null,images/rocket2,NA,1,real,null,1,NA,NA,NA,sub46
d3-animate-choice,238,1213600,0.0-76.0-1.34,FALSE,FALSE,FALSE,TRUE,"""event"",""trial"",""time""
""fullscreenenter"",""5"",""16476""
","
","
","""event"",""trial"",""time""
""fullscreenenter"",""5"",""16476""
","
",573.5050000003539,NA,49,NA,NA,3000,1,NA,NA,images/redplanet1.jpg,images/alien2,images/alien1,images/rocket2,images/alien1,images/nothing.png,2,real,true,1,common,0,2020-06-23T20:07:04Z,sub46
two-step-fixation,239,1214611,0.0-76.0-2.34,FALSE,FALSE,FALSE,TRUE,"""event"",""trial"",""time""
""fullscreenenter"",""5"",""16476""
","
","
","""event"",""trial"",""time""
""fullscreenenter"",""5"",""16476""
","
",NA,images/earth.jpg,NA,NA,NA,NA,NA,NA,NA,NA,NA,NA,NA,NA,NA,fixation,NA,NA,NA,NA,NA,NA,sub46
d3-animate-choice,240,1217040,0.0-76.0-0.35,FALSE,FALSE,FALSE,TRUE,"""event"",""trial"",""time""
""fullscreenenter"",""5"",""16476""
","
","
","""event"",""trial"",""time""
""fullscreenenter"",""5"",""16476""
","
",416.0650000013411,NA,48,NA,NA,3000,1,NA,NA,images/earth.jpg,images/rocket1,images/rocket2,null,images/rocket1,NA,1,real,null,2,NA,NA,NA,sub46
d3-animate-choice,241,1219701,0.0-76.0-1.35,FALSE,FALSE,FALSE,TRUE,"""event"",""trial"",""time""
""fullscreenenter"",""5"",""16476""
","
","
","""event"",""trial"",""time""
""fullscreenenter"",""5"",""16476""
","
",648.5799999991432,NA,49,NA,NA,3000,1,NA,NA,images/purpleplanet.jpg,images/alien4,images/alien3,images/rocket1,images/alien3,images/t.png,2,real,true,1,common,1,2020-06-23T20:07:10Z,sub46
two-step-fixation,242,1220709,0.0-76.0-2.35,FALSE,FALSE,FALSE,TRUE,"""event"",""trial"",""time""
""fullscreenenter"",""5"",""16476""
","
","
","""event"",""trial"",""time""
""fullscreenenter"",""5"",""16476""
","
",NA,images/earth.jpg,NA,NA,NA,NA,NA,NA,NA,NA,NA,NA,NA,NA,NA,fixation,NA,NA,NA,NA,NA,NA,sub46
d3-animate-choice,243,1223255,0.0-76.0-0.36,FALSE,FALSE,FALSE,TRUE,"""event"",""trial"",""time""
""fullscreenenter"",""5"",""16476""
","
","
","""event"",""trial"",""time""
""fullscreenenter"",""5"",""16476""
","
",528.9599999997299,NA,48,NA,NA,3000,1,NA,NA,images/earth.jpg,images/rocket1,images/rocket2,null,images/rocket1,NA,1,real,null,2,NA,NA,NA,sub46
d3-animate-choice,244,1225919,0.0-76.0-1.36,FALSE,FALSE,FALSE,TRUE,"""event"",""trial"",""time""
""fullscreenenter"",""5"",""16476""
","
","
","""event"",""trial"",""time""
""fullscreenenter"",""5"",""16476""
","
",653.7750000006054,NA,48,NA,NA,3000,1,NA,NA,images/redplanet1.jpg,images/alien2,images/alien1,images/rocket1,images/alien2,images/nothing.png,2,real,false,2,rare,0,2020-06-23T20:07:16Z,sub46
two-step-fixation,245,1226926,0.0-76.0-2.36,FALSE,FALSE,FALSE,TRUE,"""event"",""trial"",""time""
""fullscreenenter"",""5"",""16476""
","
","
","""event"",""trial"",""time""
""fullscreenenter"",""5"",""16476""
","
",NA,images/earth.jpg,NA,NA,NA,NA,NA,NA,NA,NA,NA,NA,NA,NA,NA,fixation,NA,NA,NA,NA,NA,NA,sub46
d3-animate-choice,246,1229373,0.0-76.0-0.37,FALSE,FALSE,FALSE,TRUE,"""event"",""trial"",""time""
""fullscreenenter"",""5"",""16476""
","
","
","""event"",""trial"",""time""
""fullscreenenter"",""5"",""16476""
","
",436.54499999876134,NA,49,NA,NA,3000,1,2329.1549999995623,49,images/earth.jpg,images/rocket1,images/rocket2,null,images/rocket2,NA,1,real,null,1,NA,NA,NA,sub46
d3-animate-choice,247,1232239,0.0-76.0-1.37,FALSE,FALSE,FALSE,TRUE,"""event"",""trial"",""time""
""fullscreenenter"",""5"",""16476""
","
","
","""event"",""trial"",""time""
""fullscreenenter"",""5"",""16476""
","
",852.1100000017323,NA,49,NA,NA,3000,1,NA,NA,images/purpleplanet.jpg,images/alien4,images/alien3,images/rocket2,images/alien3,images/nothing.png,2,real,false,1,rare,0,2020-06-23T20:07:22Z,sub46
two-step-fixation,248,1233248,0.0-76.0-2.37,FALSE,FALSE,FALSE,TRUE,"""event"",""trial"",""time""
""fullscreenenter"",""5"",""16476""
","
","
","""event"",""trial"",""time""
""fullscreenenter"",""5"",""16476""
","
",NA,images/earth.jpg,NA,NA,NA,NA,NA,NA,NA,NA,NA,NA,NA,NA,NA,fixation,NA,NA,NA,NA,NA,NA,sub46
d3-animate-choice,249,1235702,0.0-76.0-0.38,FALSE,FALSE,FALSE,TRUE,"""event"",""trial"",""time""
""fullscreenenter"",""5"",""16476""
","
","
","""event"",""trial"",""time""
""fullscreenenter"",""5"",""16476""
","
",443.3049999990035,NA,48,NA,NA,3000,1,NA,NA,images/earth.jpg,images/rocket1,images/rocket2,null,images/rocket1,NA,1,real,null,2,NA,NA,NA,sub46
d3-animate-choice,250,1238072,0.0-76.0-1.38,FALSE,FALSE,FALSE,TRUE,"""event"",""trial"",""time""
""fullscreenenter"",""5"",""16476""
","
","
","""event"",""trial"",""time""
""fullscreenenter"",""5"",""16476""
","
",350.6800000013318,NA,48,NA,NA,3000,1,NA,NA,images/purpleplanet.jpg,images/alien4,images/alien3,images/rocket1,images/alien4,images/t.png,2,real,true,2,common,1,2020-06-23T20:07:28Z,sub46
two-step-fixation,251,1239087,0.0-76.0-2.38,FALSE,FALSE,FALSE,TRUE,"""event"",""trial"",""time""
""fullscreenenter"",""5"",""16476""
","
","
","""event"",""trial"",""time""
""fullscreenenter"",""5"",""16476""
","
",NA,images/earth.jpg,NA,NA,NA,NA,NA,NA,NA,NA,NA,NA,NA,NA,NA,fixation,NA,NA,NA,NA,NA,NA,sub46
d3-animate-choice,252,1241100,0.0-76.0-0.39,FALSE,FALSE,FALSE,TRUE,"""event"",""trial"",""time""
""fullscreenenter"",""5"",""16476""
","
","
","""event"",""trial"",""time""
""fullscreenenter"",""5"",""16476""
","
",0.9500000013504177,NA,49,NA,NA,3000,1,NA,NA,images/earth.jpg,images/rocket1,images/rocket2,null,images/rocket2,NA,1,real,null,1,NA,NA,NA,sub46
d3-animate-choice,253,1243634,0.0-76.0-1.39,FALSE,FALSE,FALSE,TRUE,"""event"",""trial"",""time""
""fullscreenenter"",""5"",""16476""
","
","
","""event"",""trial"",""time""
""fullscreenenter"",""5"",""16476""
","
",520.0299999995623,NA,49,NA,NA,3000,1,NA,NA,images/redplanet1.jpg,images/alien2,images/alien1,images/rocket2,images/alien1,images/t.png,2,real,true,1,common,1,2020-06-23T20:07:34Z,sub46
two-step-fixation,254,1244643,0.0-76.0-2.39,FALSE,FALSE,FALSE,TRUE,"""event"",""trial"",""time""
""fullscreenenter"",""5"",""16476""
","
","
","""event"",""trial"",""time""
""fullscreenenter"",""5"",""16476""
","
",NA,images/earth.jpg,NA,NA,NA,NA,NA,NA,NA,NA,NA,NA,NA,NA,NA,fixation,NA,NA,NA,NA,NA,NA,sub46
d3-animate-choice,255,1247330,0.0-76.0-0.40,FALSE,FALSE,FALSE,TRUE,"""event"",""trial"",""time""
""fullscreenenter"",""5"",""16476""
","
","
","""event"",""trial"",""time""
""fullscreenenter"",""5"",""16476""
","
",673.6300000010524,NA,48,NA,NA,3000,1,NA,NA,images/earth.jpg,images/rocket1,images/rocket2,null,images/rocket1,NA,1,real,null,2,NA,NA,NA,sub46
d3-animate-choice,256,1249923,0.0-76.0-1.40,FALSE,FALSE,FALSE,TRUE,"""event"",""trial"",""time""
""fullscreenenter"",""5"",""16476""
","
","
","""event"",""trial"",""time""
""fullscreenenter"",""5"",""16476""
","
",580.3749999995343,NA,48,NA,NA,3000,1,NA,NA,images/purpleplanet.jpg,images/alien4,images/alien3,images/rocket1,images/alien4,images/t.png,2,real,true,2,common,1,2020-06-23T20:07:40Z,sub46
two-step-fixation,257,1250935,0.0-76.0-2.40,FALSE,FALSE,FALSE,TRUE,"""event"",""trial"",""time""
""fullscreenenter"",""5"",""16476""
","
","
","""event"",""trial"",""time""
""fullscreenenter"",""5"",""16476""
","
",NA,images/earth.jpg,NA,NA,NA,NA,NA,NA,NA,NA,NA,NA,NA,NA,NA,fixation,NA,NA,NA,NA,NA,NA,sub46
d3-animate-choice,258,1253754,0.0-76.0-0.41,FALSE,FALSE,FALSE,TRUE,"""event"",""trial"",""time""
""fullscreenenter"",""5"",""16476""
","
","
","""event"",""trial"",""time""
""fullscreenenter"",""5"",""16476""
","
",805.9599999997299,NA,48,NA,NA,3000,1,2554.239999999525,49,images/earth.jpg,images/rocket1,images/rocket2,null,images/rocket1,NA,1,real,null,2,NA,NA,NA,sub46
d3-animate-choice,259,1256067,0.0-76.0-1.41,FALSE,FALSE,FALSE,TRUE,"""event"",""trial"",""time""
""fullscreenenter"",""5"",""16476""
","
","
","""event"",""trial"",""time""
""fullscreenenter"",""5"",""16476""
","
",299.56999999913387,NA,49,NA,NA,3000,1,NA,NA,images/purpleplanet.jpg,images/alien4,images/alien3,images/rocket1,images/alien3,images/nothing.png,2,real,true,1,common,0,2020-06-23T20:07:46Z,sub46
two-step-fixation,260,1257077,0.0-76.0-2.41,FALSE,FALSE,FALSE,TRUE,"""event"",""trial"",""time""
""fullscreenenter"",""5"",""16476""
","
","
","""event"",""trial"",""time""
""fullscreenenter"",""5"",""16476""
","
",NA,images/earth.jpg,NA,NA,NA,NA,NA,NA,NA,NA,NA,NA,NA,NA,NA,fixation,NA,NA,NA,NA,NA,NA,sub46
d3-animate-choice,261,1259628,0.0-76.0-0.42,FALSE,FALSE,FALSE,TRUE,"""event"",""trial"",""time""
""fullscreenenter"",""5"",""16476""
","
","
","""event"",""trial"",""time""
""fullscreenenter"",""5"",""16476""
","
",533.5049999994226,NA,49,NA,NA,3000,1,2500.500000000233,48,images/earth.jpg,images/rocket1,images/rocket2,null,images/rocket2,NA,1,real,null,1,NA,NA,NA,sub46
d3-animate-choice,262,1262239,0.0-76.0-1.42,FALSE,FALSE,FALSE,TRUE,"""event"",""trial"",""time""
""fullscreenenter"",""5"",""16476""
","
","
","""event"",""trial"",""time""
""fullscreenenter"",""5"",""16476""
","
",594.5000000011642,NA,48,NA,NA,3000,1,NA,NA,images/redplanet1.jpg,images/alien2,images/alien1,images/rocket2,images/alien2,images/t.png,2,real,true,2,common,1,2020-06-23T20:07:52Z,sub46
two-step-fixation,263,1263249,0.0-76.0-2.42,FALSE,FALSE,FALSE,TRUE,"""event"",""trial"",""time""
""fullscreenenter"",""5"",""16476""
","
","
","""event"",""trial"",""time""
""fullscreenenter"",""5"",""16476""
","
",NA,images/earth.jpg,NA,NA,NA,NA,NA,NA,NA,NA,NA,NA,NA,NA,NA,fixation,NA,NA,NA,NA,NA,NA,sub46
d3-animate-choice,264,1266323,0.0-76.0-0.43,FALSE,FALSE,FALSE,TRUE,"""event"",""trial"",""time""
""fullscreenenter"",""5"",""16476""
","
","
","""event"",""trial"",""time""
""fullscreenenter"",""5"",""16476""
","
",1062.830000000773,NA,48,NA,NA,3000,1,NA,NA,images/earth.jpg,images/rocket1,images/rocket2,null,images/rocket1,NA,1,real,null,2,NA,NA,NA,sub46
d3-animate-choice,265,1269439,0.0-76.0-1.43,FALSE,FALSE,FALSE,TRUE,"""event"",""trial"",""time""
""fullscreenenter"",""5"",""16476""
","
","
","""event"",""trial"",""time""
""fullscreenenter"",""5"",""16476""
","
",1105.4649999986868,NA,48,NA,NA,3000,1,NA,NA,images/purpleplanet.jpg,images/alien4,images/alien3,images/rocket1,images/alien4,images/t.png,2,real,true,2,common,1,2020-06-23T20:08:00Z,sub46
two-step-fixation,266,1270448,0.0-76.0-2.43,FALSE,FALSE,FALSE,TRUE,"""event"",""trial"",""time""
""fullscreenenter"",""5"",""16476""
","
","
","""event"",""trial"",""time""
""fullscreenenter"",""5"",""16476""
","
",NA,images/earth.jpg,NA,NA,NA,NA,NA,NA,NA,NA,NA,NA,NA,NA,NA,fixation,NA,NA,NA,NA,NA,NA,sub46
d3-animate-choice,267,1273076,0.0-76.0-0.44,FALSE,FALSE,FALSE,TRUE,"""event"",""trial"",""time""
""fullscreenenter"",""5"",""16476""
","
","
","""event"",""trial"",""time""
""fullscreenenter"",""5"",""16476""
","
",616.0950000011362,NA,48,NA,NA,3000,1,NA,NA,images/earth.jpg,images/rocket1,images/rocket2,null,images/rocket1,NA,1,real,null,2,NA,NA,NA,sub46
d3-animate-choice,268,1275433,0.0-76.0-1.44,FALSE,FALSE,FALSE,TRUE,"""event"",""trial"",""time""
""fullscreenenter"",""5"",""16476""
","
","
","""event"",""trial"",""time""
""fullscreenenter"",""5"",""16476""
","
",342.09499999997206,NA,48,NA,NA,3000,1,NA,NA,images/redplanet1.jpg,images/alien2,images/alien1,images/rocket1,images/alien2,images/nothing.png,2,real,false,2,rare,0,2020-06-23T20:08:06Z,sub46
two-step-fixation,269,1276443,0.0-76.0-2.44,FALSE,FALSE,FALSE,TRUE,"""event"",""trial"",""time""
""fullscreenenter"",""5"",""16476""
","
","
","""event"",""trial"",""time""
""fullscreenenter"",""5"",""16476""
","
",NA,images/earth.jpg,NA,NA,NA,NA,NA,NA,NA,NA,NA,NA,NA,NA,NA,fixation,NA,NA,NA,NA,NA,NA,sub46
d3-animate-choice,270,1278802,0.0-76.0-0.45,FALSE,FALSE,FALSE,TRUE,"""event"",""trial"",""time""
""fullscreenenter"",""5"",""16476""
","
","
","""event"",""trial"",""time""
""fullscreenenter"",""5"",""16476""
","
",346.83000000054017,NA,49,NA,NA,3000,1,NA,NA,images/earth.jpg,images/rocket1,images/rocket2,null,images/rocket2,NA,1,real,null,1,NA,NA,NA,sub46
d3-animate-choice,271,1281198,0.0-76.0-1.45,FALSE,FALSE,FALSE,TRUE,"""event"",""trial"",""time""
""fullscreenenter"",""5"",""16476""
","
","
","""event"",""trial"",""time""
""fullscreenenter"",""5"",""16476""
","
",384.43499999982305,NA,49,NA,NA,3000,1,NA,NA,images/redplanet1.jpg,images/alien2,images/alien1,images/rocket2,images/alien1,images/t.png,2,real,true,1,common,1,2020-06-23T20:08:11Z,sub46
two-step-fixation,272,1282209,0.0-76.0-2.45,FALSE,FALSE,FALSE,TRUE,"""event"",""trial"",""time""
""fullscreenenter"",""5"",""16476""
","
","
","""event"",""trial"",""time""
""fullscreenenter"",""5"",""16476""
","
",NA,images/earth.jpg,NA,NA,NA,NA,NA,NA,NA,NA,NA,NA,NA,NA,NA,fixation,NA,NA,NA,NA,NA,NA,sub46
d3-animate-choice,273,1284653,0.0-76.0-0.46,FALSE,FALSE,FALSE,TRUE,"""event"",""trial"",""time""
""fullscreenenter"",""5"",""16476""
","
","
","""event"",""trial"",""time""
""fullscreenenter"",""5"",""16476""
","
",426.5949999988079,NA,49,NA,NA,3000,1,NA,NA,images/earth.jpg,images/rocket1,images/rocket2,null,images/rocket2,NA,1,real,null,1,NA,NA,NA,sub46
d3-animate-choice,274,1287360,0.0-76.0-1.46,FALSE,FALSE,FALSE,TRUE,"""event"",""trial"",""time""
""fullscreenenter"",""5"",""16476""
","
","
","""event"",""trial"",""time""
""fullscreenenter"",""5"",""16476""
","
",691.9299999990035,NA,48,NA,NA,3000,1,NA,NA,images/redplanet1.jpg,images/alien2,images/alien1,images/rocket2,images/alien2,images/nothing.png,2,real,true,2,common,0,2020-06-23T20:08:18Z,sub46
two-step-fixation,275,1288370,0.0-76.0-2.46,FALSE,FALSE,FALSE,TRUE,"""event"",""trial"",""time""
""fullscreenenter"",""5"",""16476""
","
","
","""event"",""trial"",""time""
""fullscreenenter"",""5"",""16476""
","
",NA,images/earth.jpg,NA,NA,NA,NA,NA,NA,NA,NA,NA,NA,NA,NA,NA,fixation,NA,NA,NA,NA,NA,NA,sub46
d3-animate-choice,276,1290600,0.0-76.0-0.47,FALSE,FALSE,FALSE,TRUE,"""event"",""trial"",""time""
""fullscreenenter"",""5"",""16476""
","
","
","""event"",""trial"",""time""
""fullscreenenter"",""5"",""16476""
","
",219.6750000002794,NA,49,NA,NA,3000,1,NA,NA,images/earth.jpg,images/rocket1,images/rocket2,null,images/rocket2,NA,1,real,null,1,NA,NA,NA,sub46
d3-animate-choice,277,1292649,0.0-76.0-1.47,FALSE,FALSE,FALSE,TRUE,"""event"",""trial"",""time""
""fullscreenenter"",""5"",""16476""
","
","
","""event"",""trial"",""time""
""fullscreenenter"",""5"",""16476""
","
",35.954999999376014,NA,49,NA,NA,3000,1,NA,NA,images/redplanet1.jpg,images/alien2,images/alien1,images/rocket2,images/alien1,images/t.png,2,real,true,1,common,1,2020-06-23T20:08:23Z,sub46
two-step-fixation,278,1293660,0.0-76.0-2.47,FALSE,FALSE,FALSE,TRUE,"""event"",""trial"",""time""
""fullscreenenter"",""5"",""16476""
","
","
","""event"",""trial"",""time""
