trial_type,trial_index,time_elapsed,internal_node_id,rocket_sides,red_planet_first_rocket,red_display_order,purple_display_order,interactions,blur_events,focus_events,fullscreenenter_events,fullscreenexit_events,rt,stimulus,key_press,button_pressed,success,duration,valid_pressed,rts,keys,planet_text,right_text,left_text,center_text,chosen_text,reward_text,trial_stage,practice_trial,transition_type,choice,transition,reward,timestamp,subject_id
pavlovia,0,5,0.0-0.0,FALSE,TRUE,TRUE,FALSE,"
","
","
","
","
",NA,NA,NA,NA,NA,NA,NA,NA,NA,NA,NA,NA,NA,NA,NA,NA,NA,NA,NA,NA,NA,NA,sub33
html-keyboard-response,1,3035,0.0-1.0,FALSE,TRUE,TRUE,FALSE,"
","
","
","
","
",3028.470000001107,Welcome! Press the space bar to begin.,32,NA,NA,NA,NA,NA,NA,NA,NA,NA,NA,NA,NA,NA,NA,NA,NA,NA,NA,NA,sub33
audio-keyboard-response,2,9610,0.0-2.0,FALSE,TRUE,TRUE,FALSE,"
","
","
","
","
",6213,audio/beep_loop.wav,32,NA,NA,NA,NA,NA,NA,NA,NA,NA,NA,NA,NA,NA,NA,NA,NA,NA,NA,NA,sub33
audio-button-response,3,17300,0.0-3.0,FALSE,TRUE,TRUE,FALSE,"
","
","
","
","
",NaN,audio/fish.mp3,NA,1,NA,NA,NA,NA,NA,NA,NA,NA,NA,NA,NA,NA,NA,NA,NA,NA,NA,NA,sub33
audio-button-response,4,20439,0.0-4.0,FALSE,TRUE,TRUE,FALSE,"""event"",""trial"",""time""
""fullscreenenter"",""5"",""27359""
","
","
","""event"",""trial"",""time""
""fullscreenenter"",""5"",""27359""
","
",NaN,audio/tiger.mp3,NA,4,NA,NA,NA,NA,NA,NA,NA,NA,NA,NA,NA,NA,NA,NA,NA,NA,NA,NA,sub33
fullscreen,5,28357,0.0-5.0,FALSE,TRUE,TRUE,FALSE,"""event"",""trial"",""time""
""fullscreenenter"",""5"",""27359""
","
","
","""event"",""trial"",""time""
""fullscreenenter"",""5"",""27359""
","
",NA,NA,NA,NA,TRUE,NA,NA,NA,NA,NA,NA,NA,NA,NA,NA,NA,NA,NA,NA,NA,NA,NA,sub33
d3-instructions,6,42151,0.0-6.0,FALSE,TRUE,TRUE,FALSE,"""event"",""trial"",""time""
""fullscreenenter"",""5"",""27359""
","
","
","""event"",""trial"",""time""
""fullscreenenter"",""5"",""27359""
","
",NA,NA,NA,NA,NA,NA,NA,NA,NA,NA,NA,NA,NA,NA,NA,NA,NA,NA,NA,NA,NA,NA,sub33
d3-instructions,7,50636,0.0-7.0,FALSE,TRUE,TRUE,FALSE,"""event"",""trial"",""time""
""fullscreenenter"",""5"",""27359""
","
","
","""event"",""trial"",""time""
""fullscreenenter"",""5"",""27359""
","
",NA,NA,NA,NA,NA,NA,NA,NA,NA,NA,NA,NA,NA,NA,NA,NA,NA,NA,NA,NA,NA,NA,sub33
d3-instructions,8,58708,0.0-8.0,FALSE,TRUE,TRUE,FALSE,"""event"",""trial"",""time""
""fullscreenenter"",""5"",""27359""
","
","
","""event"",""trial"",""time""
""fullscreenenter"",""5"",""27359""
","
",NA,NA,NA,NA,NA,NA,NA,NA,NA,NA,NA,NA,NA,NA,NA,NA,NA,NA,NA,NA,NA,NA,sub33
d3-instructions,9,70064,0.0-9.0,FALSE,TRUE,TRUE,FALSE,"""event"",""trial"",""time""
""fullscreenenter"",""5"",""27359""
","
","
","""event"",""trial"",""time""
""fullscreenenter"",""5"",""27359""
","
",NA,NA,NA,NA,NA,NA,NA,NA,NA,NA,NA,NA,NA,NA,NA,NA,NA,NA,NA,NA,NA,NA,sub33
d3-instructions,10,89927,0.0-10.0,FALSE,TRUE,TRUE,FALSE,"""event"",""trial"",""time""
""fullscreenenter"",""5"",""27359""
","
","
","""event"",""trial"",""time""
""fullscreenenter"",""5"",""27359""
","
",NA,NA,NA,NA,NA,NA,NA,NA,NA,NA,NA,NA,NA,NA,NA,NA,NA,NA,NA,NA,NA,NA,sub33
d3-animate-choice,11,94473,0.0-11.0,FALSE,TRUE,TRUE,FALSE,"""event"",""trial"",""time""
""fullscreenenter"",""5"",""27359""
","
","
","""event"",""trial"",""time""
""fullscreenenter"",""5"",""27359""
","
",2536.519999997836,NA,49,NA,NA,3000,1,NA,NA,images/tutgreenplanet.jpg,images/tutalien1,images/tutalien2,null,images/tutalien2,NA,NA,practice,null,NA,NA,NA,NA,sub33
d3-animate-choice,12,98046,0.0-12.0,FALSE,TRUE,TRUE,FALSE,"""event"",""trial"",""time""
""fullscreenenter"",""5"",""27359""
","
","
","""event"",""trial"",""time""
""fullscreenenter"",""5"",""27359""
","
",1569.230000000971,NA,48,NA,NA,3000,1,NA,NA,images/tutgreenplanet.jpg,images/tutalien1,images/tutalien2,null,images/tutalien1,NA,NA,practice,null,NA,NA,NA,NA,sub33
d3-animate-choice,13,102233,0.0-13.0,FALSE,TRUE,TRUE,FALSE,"""event"",""trial"",""time""
""fullscreenenter"",""5"",""27359""
","
","
","""event"",""trial"",""time""
""fullscreenenter"",""5"",""27359""
","
",2181.059999998979,NA,49,NA,NA,3000,1,NA,NA,images/tutgreenplanet.jpg,images/tutalien1,images/tutalien2,null,images/tutalien2,NA,NA,practice,null,NA,NA,NA,NA,sub33
d3-animate-choice,14,104975,0.0-14.0,FALSE,TRUE,TRUE,FALSE,"""event"",""trial"",""time""
""fullscreenenter"",""5"",""27359""
","
","
","""event"",""trial"",""time""
""fullscreenenter"",""5"",""27359""
","
",732.7150000019174,NA,48,NA,NA,3000,1,NA,NA,images/tutgreenplanet.jpg,images/tutalien1,images/tutalien2,null,images/tutalien1,NA,NA,practice,null,NA,NA,NA,NA,sub33
d3-instructions,15,111377,0.0-15.0,FALSE,TRUE,TRUE,FALSE,"""event"",""trial"",""time""
""fullscreenenter"",""5"",""27359""
","
","
","""event"",""trial"",""time""
""fullscreenenter"",""5"",""27359""
","
",NA,NA,NA,NA,NA,NA,NA,NA,NA,NA,NA,NA,NA,NA,NA,NA,NA,NA,NA,NA,NA,NA,sub33
d3-instructions,16,119467,0.0-16.0,FALSE,TRUE,TRUE,FALSE,"""event"",""trial"",""time""
""fullscreenenter"",""5"",""27359""
","
","
","""event"",""trial"",""time""
""fullscreenenter"",""5"",""27359""
","
",NA,NA,NA,NA,NA,NA,NA,NA,NA,NA,NA,NA,NA,NA,NA,NA,NA,NA,NA,NA,NA,NA,sub33
d3-instructions,17,128734,0.0-17.0,FALSE,TRUE,TRUE,FALSE,"""event"",""trial"",""time""
""fullscreenenter"",""5"",""27359""
","
","
","""event"",""trial"",""time""
""fullscreenenter"",""5"",""27359""
","
",NA,NA,NA,NA,NA,NA,NA,NA,NA,NA,NA,NA,NA,NA,NA,NA,NA,NA,NA,NA,NA,NA,sub33
d3-instructions,18,141640,0.0-18.0,FALSE,TRUE,TRUE,FALSE,"""event"",""trial"",""time""
""fullscreenenter"",""5"",""27359""
","
","
","""event"",""trial"",""time""
""fullscreenenter"",""5"",""27359""
","
",NA,NA,NA,NA,NA,NA,NA,NA,NA,NA,NA,NA,NA,NA,NA,NA,NA,NA,NA,NA,NA,NA,sub33
d3-instructions,19,159064,0.0-19.0,FALSE,TRUE,TRUE,FALSE,"""event"",""trial"",""time""
""fullscreenenter"",""5"",""27359""
","
","
","""event"",""trial"",""time""
""fullscreenenter"",""5"",""27359""
","
",NA,NA,NA,NA,NA,NA,NA,NA,NA,NA,NA,NA,NA,NA,NA,NA,NA,NA,NA,NA,NA,NA,sub33
d3-animate-choice,20,161901,0.0-20.0,FALSE,TRUE,TRUE,FALSE,"""event"",""trial"",""time""
""fullscreenenter"",""5"",""27359""
","
","
","""event"",""trial"",""time""
""fullscreenenter"",""5"",""27359""
","
",829.5350000007602,NA,49,NA,NA,3000,1,NA,NA,images/tutyellowplanet.jpg,null,images/tutalien3,null,images/tutalien3,images/t.png,NA,practice,null,NA,NA,NA,NA,sub33
d3-animate-choice,21,164735,0.0-21.0,FALSE,TRUE,TRUE,FALSE,"""event"",""trial"",""time""
""fullscreenenter"",""5"",""27359""
","
","
","""event"",""trial"",""time""
""fullscreenenter"",""5"",""27359""
","
",825.3750000003492,NA,49,NA,NA,3000,1,NA,NA,images/tutyellowplanet.jpg,null,images/tutalien3,null,images/tutalien3,images/t.png,NA,practice,null,NA,NA,NA,NA,sub33
d3-animate-choice,22,167370,0.0-22.0,FALSE,TRUE,TRUE,FALSE,"""event"",""trial"",""time""
""fullscreenenter"",""5"",""27359""
","
","
","""event"",""trial"",""time""
""fullscreenenter"",""5"",""27359""
","
",629.4600000001083,NA,49,NA,NA,3000,1,NA,NA,images/tutyellowplanet.jpg,null,images/tutalien3,null,images/tutalien3,images/t.png,NA,practice,null,NA,NA,NA,NA,sub33
d3-animate-choice,23,169830,0.0-23.0,FALSE,TRUE,TRUE,FALSE,"""event"",""trial"",""time""
""fullscreenenter"",""5"",""27359""
","
","
","""event"",""trial"",""time""
""fullscreenenter"",""5"",""27359""
","
",455.5050000017218,NA,49,NA,NA,3000,1,NA,NA,images/tutyellowplanet.jpg,null,images/tutalien3,null,images/tutalien3,images/t.png,NA,practice,null,NA,NA,NA,NA,sub33
d3-animate-choice,24,172307,0.0-24.0,FALSE,TRUE,TRUE,FALSE,"""event"",""trial"",""time""
""fullscreenenter"",""5"",""27359""
","
","
","""event"",""trial"",""time""
""fullscreenenter"",""5"",""27359""
","
",474.2550000009942,NA,49,NA,NA,3000,1,NA,NA,images/tutyellowplanet.jpg,null,images/tutalien3,null,images/tutalien3,images/t.png,NA,practice,null,NA,NA,NA,NA,sub33
d3-animate-choice,25,175414,0.0-25.0,FALSE,TRUE,TRUE,FALSE,"""event"",""trial"",""time""
""fullscreenenter"",""5"",""27359""
","
","
","""event"",""trial"",""time""
""fullscreenenter"",""5"",""27359""
","
",1103.5000000010768,NA,49,NA,NA,3000,1,NA,NA,images/tutyellowplanet.jpg,null,images/tutalien3,null,images/tutalien3,images/t.png,NA,practice,null,NA,NA,NA,NA,sub33
d3-animate-choice,26,177903,0.0-26.0,FALSE,TRUE,TRUE,FALSE,"""event"",""trial"",""time""
""fullscreenenter"",""5"",""27359""
","
","
","""event"",""trial"",""time""
""fullscreenenter"",""5"",""27359""
","
",484.27499999888823,NA,49,NA,NA,3000,1,2414.324999997916,49,images/tutyellowplanet.jpg,null,images/tutalien3,null,images/tutalien3,images/t.png,NA,practice,null,NA,NA,NA,NA,sub33
d3-animate-choice,27,180656,0.0-27.0,FALSE,TRUE,TRUE,FALSE,"""event"",""trial"",""time""
""fullscreenenter"",""5"",""27359""
","
","
","""event"",""trial"",""time""
""fullscreenenter"",""5"",""27359""
","
",744.1600000020117,NA,49,NA,NA,3000,1,NA,NA,images/tutyellowplanet.jpg,null,images/tutalien3,null,images/tutalien3,images/t.png,NA,practice,null,NA,NA,NA,NA,sub33
d3-animate-choice,28,183175,0.0-28.0,FALSE,TRUE,TRUE,FALSE,"""event"",""trial"",""time""
""fullscreenenter"",""5"",""27359""
","
","
","""event"",""trial"",""time""
""fullscreenenter"",""5"",""27359""
","
",514.709999999468,NA,49,NA,NA,3000,1,NA,NA,images/tutyellowplanet.jpg,null,images/tutalien3,null,images/tutalien3,images/t.png,NA,practice,null,NA,NA,NA,NA,sub33
d3-animate-choice,29,185813,0.0-29.0,FALSE,TRUE,TRUE,FALSE,"""event"",""trial"",""time""
""fullscreenenter"",""5"",""27359""
","
","
","""event"",""trial"",""time""
""fullscreenenter"",""5"",""27359""
","
",631.3250000021071,NA,49,NA,NA,3000,1,NA,NA,images/tutyellowplanet.jpg,null,images/tutalien3,null,images/tutalien3,images/nothing.png,NA,practice,null,NA,NA,NA,NA,sub33
d3-instructions,30,192683,0.0-30.0,FALSE,TRUE,TRUE,FALSE,"""event"",""trial"",""time""
""fullscreenenter"",""5"",""27359""
","
","
","""event"",""trial"",""time""
""fullscreenenter"",""5"",""27359""
","
",NA,NA,NA,NA,NA,NA,NA,NA,NA,NA,NA,NA,NA,NA,NA,NA,NA,NA,NA,NA,NA,NA,sub33
d3-instructions,31,202658,0.0-31.0,FALSE,TRUE,TRUE,FALSE,"""event"",""trial"",""time""
""fullscreenenter"",""5"",""27359""
","
","
","""event"",""trial"",""time""
""fullscreenenter"",""5"",""27359""
","
",NA,NA,NA,NA,NA,NA,NA,NA,NA,NA,NA,NA,NA,NA,NA,NA,NA,NA,NA,NA,NA,NA,sub33
d3-instructions,32,212206,0.0-32.0,FALSE,TRUE,TRUE,FALSE,"""event"",""trial"",""time""
""fullscreenenter"",""5"",""27359""
","
","
","""event"",""trial"",""time""
""fullscreenenter"",""5"",""27359""
","
",NA,NA,NA,NA,NA,NA,NA,NA,NA,NA,NA,NA,NA,NA,NA,NA,NA,NA,NA,NA,NA,NA,sub33
d3-instructions,33,224480,0.0-33.0,FALSE,TRUE,TRUE,FALSE,"""event"",""trial"",""time""
""fullscreenenter"",""5"",""27359""
","
","
","""event"",""trial"",""time""
""fullscreenenter"",""5"",""27359""
","
",NA,NA,NA,NA,NA,NA,NA,NA,NA,NA,NA,NA,NA,NA,NA,NA,NA,NA,NA,NA,NA,NA,sub33
d3-animate-choice,34,227886,0.0-34.0,FALSE,TRUE,TRUE,FALSE,"""event"",""trial"",""time""
""fullscreenenter"",""5"",""27359""
","
","
","""event"",""trial"",""time""
""fullscreenenter"",""5"",""27359""
","
",1397.9049999979907,NA,49,NA,NA,3000,1,NA,NA,images/tutgreenplanet.jpg,images/tutalien1,images/tutalien2,null,images/tutalien2,images/t.png,NA,practice,null,NA,NA,NA,NA,sub33
d3-animate-choice,35,230913,0.0-35.0,FALSE,TRUE,TRUE,FALSE,"""event"",""trial"",""time""
""fullscreenenter"",""5"",""27359""
","
","
","""event"",""trial"",""time""
""fullscreenenter"",""5"",""27359""
","
",1021.455000001879,NA,48,NA,NA,3000,1,NA,NA,images/tutgreenplanet.jpg,images/tutalien1,images/tutalien2,null,images/tutalien1,images/nothing.png,NA,practice,null,NA,NA,NA,NA,sub33
d3-animate-choice,36,233806,0.0-36.0,FALSE,TRUE,TRUE,FALSE,"""event"",""trial"",""time""
""fullscreenenter"",""5"",""27359""
","
","
","""event"",""trial"",""time""
""fullscreenenter"",""5"",""27359""
","
",887.6899999995658,NA,49,NA,NA,3000,1,NA,NA,images/tutgreenplanet.jpg,images/tutalien1,images/tutalien2,null,images/tutalien2,images/nothing.png,NA,practice,null,NA,NA,NA,NA,sub33
d3-animate-choice,37,237150,0.0-37.0,FALSE,TRUE,TRUE,FALSE,"""event"",""trial"",""time""
""fullscreenenter"",""5"",""27359""
","
","
","""event"",""trial"",""time""
""fullscreenenter"",""5"",""27359""
","
",1339.975000002596,NA,49,NA,NA,3000,1,NA,NA,images/tutgreenplanet.jpg,images/tutalien1,images/tutalien2,null,images/tutalien2,images/t.png,NA,practice,null,NA,NA,NA,NA,sub33
d3-animate-choice,38,239800,0.0-38.0,FALSE,TRUE,TRUE,FALSE,"""event"",""trial"",""time""
""fullscreenenter"",""5"",""27359""
","
","
","""event"",""trial"",""time""
""fullscreenenter"",""5"",""27359""
","
",645.0649999969755,NA,48,NA,NA,3000,1,NA,NA,images/tutgreenplanet.jpg,images/tutalien1,images/tutalien2,null,images/tutalien1,images/nothing.png,NA,practice,null,NA,NA,NA,NA,sub33
d3-animate-choice,39,243268,0.0-39.0,FALSE,TRUE,TRUE,FALSE,"""event"",""trial"",""time""
""fullscreenenter"",""5"",""27359""
","
","
","""event"",""trial"",""time""
""fullscreenenter"",""5"",""27359""
","
",1462.3699999974342,NA,49,NA,NA,3000,1,NA,NA,images/tutgreenplanet.jpg,images/tutalien1,images/tutalien2,null,images/tutalien2,images/t.png,NA,practice,null,NA,NA,NA,NA,sub33
d3-animate-choice,40,246494,0.0-40.0,FALSE,TRUE,TRUE,FALSE,"""event"",""trial"",""time""
""fullscreenenter"",""5"",""27359""
","
","
","""event"",""trial"",""time""
""fullscreenenter"",""5"",""27359""
","
",1217.9350000005797,NA,49,NA,NA,3000,1,NA,NA,images/tutgreenplanet.jpg,images/tutalien1,images/tutalien2,null,images/tutalien2,images/t.png,NA,practice,null,NA,NA,NA,NA,sub33
d3-animate-choice,41,249830,0.0-41.0,FALSE,TRUE,TRUE,FALSE,"""event"",""trial"",""time""
""fullscreenenter"",""5"",""27359""
","
","
","""event"",""trial"",""time""
""fullscreenenter"",""5"",""27359""
","
",1331.739999997837,NA,48,NA,NA,3000,1,NA,NA,images/tutgreenplanet.jpg,images/tutalien1,images/tutalien2,null,images/tutalien1,images/nothing.png,NA,practice,null,NA,NA,NA,NA,sub33
d3-animate-choice,42,252510,0.0-42.0,FALSE,TRUE,TRUE,FALSE,"""event"",""trial"",""time""
""fullscreenenter"",""5"",""27359""
","
","
","""event"",""trial"",""time""
""fullscreenenter"",""5"",""27359""
","
",676.7050000017043,NA,49,NA,NA,3000,1,NA,NA,images/tutgreenplanet.jpg,images/tutalien1,images/tutalien2,null,images/tutalien2,images/t.png,NA,practice,null,NA,NA,NA,NA,sub33
d3-animate-choice,43,255202,0.0-43.0,FALSE,TRUE,TRUE,FALSE,"""event"",""trial"",""time""
""fullscreenenter"",""5"",""27359""
","
","
","""event"",""trial"",""time""
""fullscreenenter"",""5"",""27359""
","
",684.5399999984074,NA,49,NA,NA,3000,1,NA,NA,images/tutgreenplanet.jpg,images/tutalien1,images/tutalien2,null,images/tutalien2,images/t.png,NA,practice,null,NA,NA,NA,NA,sub33
d3-instructions,44,268433,0.0-44.0,FALSE,TRUE,TRUE,FALSE,"""event"",""trial"",""time""
""fullscreenenter"",""5"",""27359""
","
","
","""event"",""trial"",""time""
""fullscreenenter"",""5"",""27359""
","
",NA,NA,NA,NA,NA,NA,NA,NA,NA,NA,NA,NA,NA,NA,NA,NA,NA,NA,NA,NA,NA,NA,sub33
d3-instructions,45,275330,0.0-45.0,FALSE,TRUE,TRUE,FALSE,"""event"",""trial"",""time""
""fullscreenenter"",""5"",""27359""
","
","
","""event"",""trial"",""time""
""fullscreenenter"",""5"",""27359""
","
",NA,NA,NA,NA,NA,NA,NA,NA,NA,NA,NA,NA,NA,NA,NA,NA,NA,NA,NA,NA,NA,NA,sub33
d3-instructions,46,280908,0.0-46.0,FALSE,TRUE,TRUE,FALSE,"""event"",""trial"",""time""
""fullscreenenter"",""5"",""27359""
","
","
","""event"",""trial"",""time""
""fullscreenenter"",""5"",""27359""
","
",NA,NA,NA,NA,NA,NA,NA,NA,NA,NA,NA,NA,NA,NA,NA,NA,NA,NA,NA,NA,NA,NA,sub33
d3-instructions,47,297740,0.0-47.0,FALSE,TRUE,TRUE,FALSE,"""event"",""trial"",""time""
""fullscreenenter"",""5"",""27359""
","
","
","""event"",""trial"",""time""
""fullscreenenter"",""5"",""27359""
","
",NA,NA,NA,NA,NA,NA,NA,NA,NA,NA,NA,NA,NA,NA,NA,NA,NA,NA,NA,NA,NA,NA,sub33
d3-instructions,48,304807,0.0-48.0,FALSE,TRUE,TRUE,FALSE,"""event"",""trial"",""time""
""fullscreenenter"",""5"",""27359""
","
","
","""event"",""trial"",""time""
""fullscreenenter"",""5"",""27359""
","
",NA,NA,NA,NA,NA,NA,NA,NA,NA,NA,NA,NA,NA,NA,NA,NA,NA,NA,NA,NA,NA,NA,sub33
d3-instructions,49,317410,0.0-49.0,FALSE,TRUE,TRUE,FALSE,"""event"",""trial"",""time""
""fullscreenenter"",""5"",""27359""
","
","
","""event"",""trial"",""time""
""fullscreenenter"",""5"",""27359""
","
",NA,NA,NA,NA,NA,NA,NA,NA,NA,NA,NA,NA,NA,NA,NA,NA,NA,NA,NA,NA,NA,NA,sub33
d3-instructions,50,326631,0.0-50.0,FALSE,TRUE,TRUE,FALSE,"""event"",""trial"",""time""
""fullscreenenter"",""5"",""27359""
","
","
","""event"",""trial"",""time""
""fullscreenenter"",""5"",""27359""
","
",NA,NA,NA,NA,NA,NA,NA,NA,NA,NA,NA,NA,NA,NA,NA,NA,NA,NA,NA,NA,NA,NA,sub33
d3-instructions,51,329601,0.0-51.0,FALSE,TRUE,TRUE,FALSE,"""event"",""trial"",""time""
""fullscreenenter"",""5"",""27359""
","
","
","""event"",""trial"",""time""
""fullscreenenter"",""5"",""27359""
","
",NA,NA,NA,NA,NA,NA,NA,NA,NA,NA,NA,NA,NA,NA,NA,NA,NA,NA,NA,NA,NA,NA,sub33
d3-instructions,52,332486,0.0-52.0,FALSE,TRUE,TRUE,FALSE,"""event"",""trial"",""time""
""fullscreenenter"",""5"",""27359""
","
","
","""event"",""trial"",""time""
""fullscreenenter"",""5"",""27359""
","
",NA,NA,NA,NA,NA,NA,NA,NA,NA,NA,NA,NA,NA,NA,NA,NA,NA,NA,NA,NA,NA,NA,sub33
d3-instructions,53,345007,0.0-53.0,FALSE,TRUE,TRUE,FALSE,"""event"",""trial"",""time""
""fullscreenenter"",""5"",""27359""
","
","
","""event"",""trial"",""time""
""fullscreenenter"",""5"",""27359""
","
",NA,NA,NA,NA,NA,NA,NA,NA,NA,NA,NA,NA,NA,NA,NA,NA,NA,NA,NA,NA,NA,NA,sub33
d3-instructions,54,357419,0.0-54.0,FALSE,TRUE,TRUE,FALSE,"""event"",""trial"",""time""
""fullscreenenter"",""5"",""27359""
","
","
","""event"",""trial"",""time""
""fullscreenenter"",""5"",""27359""
","
",NA,NA,NA,NA,NA,NA,NA,NA,NA,NA,NA,NA,NA,NA,NA,NA,NA,NA,NA,NA,NA,NA,sub33
d3-instructions,55,367787,0.0-55.0,FALSE,TRUE,TRUE,FALSE,"""event"",""trial"",""time""
""fullscreenenter"",""5"",""27359""
","
","
","""event"",""trial"",""time""
""fullscreenenter"",""5"",""27359""
","
",NA,NA,NA,NA,NA,NA,NA,NA,NA,NA,NA,NA,NA,NA,NA,NA,NA,NA,NA,NA,NA,NA,sub33
d3-instructions,56,375980,0.0-56.0,FALSE,TRUE,TRUE,FALSE,"""event"",""trial"",""time""
""fullscreenenter"",""5"",""27359""
","
","
","""event"",""trial"",""time""
""fullscreenenter"",""5"",""27359""
","
",NA,NA,NA,NA,NA,NA,NA,NA,NA,NA,NA,NA,NA,NA,NA,NA,NA,NA,NA,NA,NA,NA,sub33
d3-instructions,57,386216,0.0-57.0,FALSE,TRUE,TRUE,FALSE,"""event"",""trial"",""time""
""fullscreenenter"",""5"",""27359""
","
","
","""event"",""trial"",""time""
""fullscreenenter"",""5"",""27359""
","
",NA,NA,NA,NA,NA,NA,NA,NA,NA,NA,NA,NA,NA,NA,NA,NA,NA,NA,NA,NA,NA,NA,sub33
d3-instructions,58,397834,0.0-58.0,FALSE,TRUE,TRUE,FALSE,"""event"",""trial"",""time""
""fullscreenenter"",""5"",""27359""
","
","
","""event"",""trial"",""time""
""fullscreenenter"",""5"",""27359""
","
",NA,NA,NA,NA,NA,NA,NA,NA,NA,NA,NA,NA,NA,NA,NA,NA,NA,NA,NA,NA,NA,NA,sub33
d3-instructions,59,403146,0.0-59.0,FALSE,TRUE,TRUE,FALSE,"""event"",""trial"",""time""
""fullscreenenter"",""5"",""27359""
","
","
","""event"",""trial"",""time""
""fullscreenenter"",""5"",""27359""
","
",NA,NA,NA,NA,NA,NA,NA,NA,NA,NA,NA,NA,NA,NA,NA,NA,NA,NA,NA,NA,NA,NA,sub33
d3-instructions,60,410287,0.0-60.0,FALSE,TRUE,TRUE,FALSE,"""event"",""trial"",""time""
""fullscreenenter"",""5"",""27359""
","
","
","""event"",""trial"",""time""
""fullscreenenter"",""5"",""27359""
","
",NA,NA,NA,NA,NA,NA,NA,NA,NA,NA,NA,NA,NA,NA,NA,NA,NA,NA,NA,NA,NA,NA,sub33
d3-animate-choice,61,413217,0.0-61.0-0.0,FALSE,TRUE,TRUE,FALSE,"""event"",""trial"",""time""
""fullscreenenter"",""5"",""27359""
","
","
","""event"",""trial"",""time""
""fullscreenenter"",""5"",""27359""
","
",925.4349999973783,NA,48,NA,NA,3000,1,NA,NA,images/earth.jpg,images/tutrocket1,images/tutrocket2,null,images/tutrocket1,NA,1,practice,null,2,NA,NA,NA,sub33
d3-animate-choice,62,416017,0.0-61.0-1.0,FALSE,TRUE,TRUE,FALSE,"""event"",""trial"",""time""
""fullscreenenter"",""5"",""27359""
","
","
","""event"",""trial"",""time""
""fullscreenenter"",""5"",""27359""
","
",792.3049999990035,NA,48,NA,NA,3000,1,NA,NA,images/tutgreenplanet.jpg,images/tutalien2,images/tutalien1,images/tutrocket1,images/tutalien2,images/nothing.png,2,practice,true,2,common,0,2020-06-06T20:43:49Z,sub33
two-step-fixation,63,417024,0.0-61.0-2.0,FALSE,TRUE,TRUE,FALSE,"""event"",""trial"",""time""
""fullscreenenter"",""5"",""27359""
","
","
","""event"",""trial"",""time""
""fullscreenenter"",""5"",""27359""
","
",NA,images/earth.jpg,NA,NA,NA,NA,NA,NA,NA,NA,NA,NA,NA,NA,NA,fixation,NA,NA,NA,NA,NA,NA,sub33
d3-animate-choice,64,419715,0.0-61.0-0.1,FALSE,TRUE,TRUE,FALSE,"""event"",""trial"",""time""
""fullscreenenter"",""5"",""27359""
","
","
","""event"",""trial"",""time""
""fullscreenenter"",""5"",""27359""
","
",682.9150000012596,NA,49,NA,NA,3000,1,NA,NA,images/earth.jpg,images/tutrocket1,images/tutrocket2,null,images/tutrocket2,NA,1,practice,null,1,NA,NA,NA,sub33
d3-animate-choice,65,422246,0.0-61.0-1.1,FALSE,TRUE,TRUE,FALSE,"""event"",""trial"",""time""
""fullscreenenter"",""5"",""27359""
","
","
","""event"",""trial"",""time""
""fullscreenenter"",""5"",""27359""
","
",523.6850000000559,NA,49,NA,NA,3000,1,NA,NA,images/tutyellowplanet.jpg,images/tutalien4,images/tutalien3,images/tutrocket2,images/tutalien3,images/nothing.png,2,practice,true,1,common,0,2020-06-06T20:43:56Z,sub33
two-step-fixation,66,423252,0.0-61.0-2.1,FALSE,TRUE,TRUE,FALSE,"""event"",""trial"",""time""
""fullscreenenter"",""5"",""27359""
","
","
","""event"",""trial"",""time""
""fullscreenenter"",""5"",""27359""
","
",NA,images/earth.jpg,NA,NA,NA,NA,NA,NA,NA,NA,NA,NA,NA,NA,NA,fixation,NA,NA,NA,NA,NA,NA,sub33
d3-animate-choice,67,425765,0.0-61.0-0.2,FALSE,TRUE,TRUE,FALSE,"""event"",""trial"",""time""
""fullscreenenter"",""5"",""27359""
","
","
","""event"",""trial"",""time""
""fullscreenenter"",""5"",""27359""
","
",507.02000000094995,NA,48,NA,NA,3000,1,NA,NA,images/earth.jpg,images/tutrocket1,images/tutrocket2,null,images/tutrocket1,NA,1,practice,null,2,NA,NA,NA,sub33
d3-animate-choice,68,428463,0.0-61.0-1.2,FALSE,TRUE,TRUE,FALSE,"""event"",""trial"",""time""
""fullscreenenter"",""5"",""27359""
","
","
","""event"",""trial"",""time""
""fullscreenenter"",""5"",""27359""
","
",689.78000000061,NA,49,NA,NA,3000,1,NA,NA,images/tutgreenplanet.jpg,images/tutalien2,images/tutalien1,images/tutrocket1,images/tutalien1,images/nothing.png,2,practice,true,1,common,0,2020-06-06T20:44:02Z,sub33
two-step-fixation,69,429467,0.0-61.0-2.2,FALSE,TRUE,TRUE,FALSE,"""event"",""trial"",""time""
""fullscreenenter"",""5"",""27359""
","
","
","""event"",""trial"",""time""
""fullscreenenter"",""5"",""27359""
","
",NA,images/earth.jpg,NA,NA,NA,NA,NA,NA,NA,NA,NA,NA,NA,NA,NA,fixation,NA,NA,NA,NA,NA,NA,sub33
d3-animate-choice,70,432419,0.0-61.0-0.3,FALSE,TRUE,TRUE,FALSE,"""event"",""trial"",""time""
""fullscreenenter"",""5"",""27359""
","
","
","""event"",""trial"",""time""
""fullscreenenter"",""5"",""27359""
","
",947.9449999998906,NA,48,NA,NA,3000,1,NA,NA,images/earth.jpg,images/tutrocket1,images/tutrocket2,null,images/tutrocket1,NA,1,practice,null,2,NA,NA,NA,sub33
d3-animate-choice,71,435017,0.0-61.0-1.3,FALSE,TRUE,TRUE,FALSE,"""event"",""trial"",""time""
""fullscreenenter"",""5"",""27359""
","
","
","""event"",""trial"",""time""
""fullscreenenter"",""5"",""27359""
","
",592.8050000001676,NA,48,NA,NA,3000,1,NA,NA,images/tutgreenplanet.jpg,images/tutalien2,images/tutalien1,images/tutrocket1,images/tutalien2,images/nothing.png,2,practice,true,2,common,0,2020-06-06T20:44:08Z,sub33
two-step-fixation,72,436023,0.0-61.0-2.3,FALSE,TRUE,TRUE,FALSE,"""event"",""trial"",""time""
""fullscreenenter"",""5"",""27359""
","
","
","""event"",""trial"",""time""
""fullscreenenter"",""5"",""27359""
","
",NA,images/earth.jpg,NA,NA,NA,NA,NA,NA,NA,NA,NA,NA,NA,NA,NA,fixation,NA,NA,NA,NA,NA,NA,sub33
d3-animate-choice,73,438588,0.0-61.0-0.4,FALSE,TRUE,TRUE,FALSE,"""event"",""trial"",""time""
""fullscreenenter"",""5"",""27359""
","
","
","""event"",""trial"",""time""
""fullscreenenter"",""5"",""27359""
","
",560.445000002801,NA,49,NA,NA,3000,1,NA,NA,images/earth.jpg,images/tutrocket1,images/tutrocket2,null,images/tutrocket2,NA,1,practice,null,1,NA,NA,NA,sub33
d3-animate-choice,74,441091,0.0-61.0-1.4,FALSE,TRUE,TRUE,FALSE,"""event"",""trial"",""time""
""fullscreenenter"",""5"",""27359""
","
","
","""event"",""trial"",""time""
""fullscreenenter"",""5"",""27359""
","
",496.37000000075204,NA,48,NA,NA,3000,1,NA,NA,images/tutgreenplanet.jpg,images/tutalien2,images/tutalien1,images/tutrocket2,images/tutalien2,images/nothing.png,2,practice,false,2,rare,0,2020-06-06T20:44:14Z,sub33
two-step-fixation,75,442099,0.0-61.0-2.4,FALSE,TRUE,TRUE,FALSE,"""event"",""trial"",""time""
""fullscreenenter"",""5"",""27359""
","
","
","""event"",""trial"",""time""
""fullscreenenter"",""5"",""27359""
","
",NA,images/earth.jpg,NA,NA,NA,NA,NA,NA,NA,NA,NA,NA,NA,NA,NA,fixation,NA,NA,NA,NA,NA,NA,sub33
d3-animate-choice,76,444706,0.0-61.0-0.5,FALSE,TRUE,TRUE,FALSE,"""event"",""trial"",""time""
""fullscreenenter"",""5"",""27359""
","
","
","""event"",""trial"",""time""
""fullscreenenter"",""5"",""27359""
","
",602.2999999986496,NA,49,NA,NA,3000,1,NA,NA,images/earth.jpg,images/tutrocket1,images/tutrocket2,null,images/tutrocket2,NA,1,practice,null,1,NA,NA,NA,sub33
d3-animate-choice,77,447768,0.0-61.0-1.5,FALSE,TRUE,TRUE,FALSE,"""event"",""trial"",""time""
""fullscreenenter"",""5"",""27359""
","
","
","""event"",""trial"",""time""
""fullscreenenter"",""5"",""27359""
","
",1057.919999999227,NA,49,NA,NA,3000,1,NA,NA,images/tutgreenplanet.jpg,images/tutalien2,images/tutalien1,images/tutrocket2,images/tutalien1,images/nothing.png,2,practice,false,1,rare,0,2020-06-06T20:44:21Z,sub33
two-step-fixation,78,448775,0.0-61.0-2.5,FALSE,TRUE,TRUE,FALSE,"""event"",""trial"",""time""
""fullscreenenter"",""5"",""27359""
","
","
","""event"",""trial"",""time""
""fullscreenenter"",""5"",""27359""
","
",NA,images/earth.jpg,NA,NA,NA,NA,NA,NA,NA,NA,NA,NA,NA,NA,NA,fixation,NA,NA,NA,NA,NA,NA,sub33
d3-animate-choice,79,451187,0.0-61.0-0.6,FALSE,TRUE,TRUE,FALSE,"""event"",""trial"",""time""
""fullscreenenter"",""5"",""27359""
","
","
","""event"",""trial"",""time""
""fullscreenenter"",""5"",""27359""
","
",404.06500000250526,NA,49,NA,NA,3000,1,NA,NA,images/earth.jpg,images/tutrocket1,images/tutrocket2,null,images/tutrocket2,NA,1,practice,null,1,NA,NA,NA,sub33
d3-animate-choice,80,453982,0.0-61.0-1.6,FALSE,TRUE,TRUE,FALSE,"""event"",""trial"",""time""
""fullscreenenter"",""5"",""27359""
","
","
","""event"",""trial"",""time""
""fullscreenenter"",""5"",""27359""
","
",788.0199999999604,NA,49,NA,NA,3000,1,NA,NA,images/tutyellowplanet.jpg,images/tutalien4,images/tutalien3,images/tutrocket2,images/tutalien3,images/nothing.png,2,practice,true,1,common,0,2020-06-06T20:44:27Z,sub33
two-step-fixation,81,454986,0.0-61.0-2.6,FALSE,TRUE,TRUE,FALSE,"""event"",""trial"",""time""
""fullscreenenter"",""5"",""27359""
","
","
","""event"",""trial"",""time""
""fullscreenenter"",""5"",""27359""
","
",NA,images/earth.jpg,NA,NA,NA,NA,NA,NA,NA,NA,NA,NA,NA,NA,NA,fixation,NA,NA,NA,NA,NA,NA,sub33
d3-animate-choice,82,457858,0.0-61.0-0.7,FALSE,TRUE,TRUE,FALSE,"""event"",""trial"",""time""
""fullscreenenter"",""5"",""27359""
","
","
","""event"",""trial"",""time""
""fullscreenenter"",""5"",""27359""
","
",866.2700000022305,NA,49,NA,NA,3000,1,NA,NA,images/earth.jpg,images/tutrocket1,images/tutrocket2,null,images/tutrocket2,NA,1,practice,null,1,NA,NA,NA,sub33
d3-animate-choice,83,460536,0.0-61.0-1.7,FALSE,TRUE,TRUE,FALSE,"""event"",""trial"",""time""
""fullscreenenter"",""5"",""27359""
","
","
","""event"",""trial"",""time""
""fullscreenenter"",""5"",""27359""
","
",672.3050000000512,NA,49,NA,NA,3000,1,NA,NA,images/tutyellowplanet.jpg,images/tutalien4,images/tutalien3,images/tutrocket2,images/tutalien3,images/nothing.png,2,practice,true,1,common,0,2020-06-06T20:44:34Z,sub33
two-step-fixation,84,461542,0.0-61.0-2.7,FALSE,TRUE,TRUE,FALSE,"""event"",""trial"",""time""
""fullscreenenter"",""5"",""27359""
","
","
","""event"",""trial"",""time""
""fullscreenenter"",""5"",""27359""
","
",NA,images/earth.jpg,NA,NA,NA,NA,NA,NA,NA,NA,NA,NA,NA,NA,NA,fixation,NA,NA,NA,NA,NA,NA,sub33
d3-animate-choice,85,464096,0.0-61.0-0.8,FALSE,TRUE,TRUE,FALSE,"""event"",""trial"",""time""
""fullscreenenter"",""5"",""27359""
","
","
","""event"",""trial"",""time""
""fullscreenenter"",""5"",""27359""
","
",544.7300000014366,NA,48,NA,NA,3000,1,NA,NA,images/earth.jpg,images/tutrocket1,images/tutrocket2,null,images/tutrocket1,NA,1,practice,null,2,NA,NA,NA,sub33
d3-animate-choice,86,466666,0.0-61.0-1.8,FALSE,TRUE,TRUE,FALSE,"""event"",""trial"",""time""
""fullscreenenter"",""5"",""27359""
","
","
","""event"",""trial"",""time""
""fullscreenenter"",""5"",""27359""
","
",561.6799999988871,NA,48,NA,NA,3000,1,NA,NA,images/tutgreenplanet.jpg,images/tutalien2,images/tutalien1,images/tutrocket1,images/tutalien2,images/t.png,2,practice,true,2,common,1,2020-06-06T20:44:40Z,sub33
two-step-fixation,87,467672,0.0-61.0-2.8,FALSE,TRUE,TRUE,FALSE,"""event"",""trial"",""time""
""fullscreenenter"",""5"",""27359""
","
","
","""event"",""trial"",""time""
""fullscreenenter"",""5"",""27359""
","
",NA,images/earth.jpg,NA,NA,NA,NA,NA,NA,NA,NA,NA,NA,NA,NA,NA,fixation,NA,NA,NA,NA,NA,NA,sub33
d3-animate-choice,88,470148,0.0-61.0-0.9,FALSE,TRUE,TRUE,FALSE,"""event"",""trial"",""time""
""fullscreenenter"",""5"",""27359""
","
","
","""event"",""trial"",""time""
""fullscreenenter"",""5"",""27359""
","
",469.8050000006333,NA,48,NA,NA,3000,1,NA,NA,images/earth.jpg,images/tutrocket1,images/tutrocket2,null,images/tutrocket1,NA,1,practice,null,2,NA,NA,NA,sub33
d3-animate-choice,89,472744,0.0-61.0-1.9,FALSE,TRUE,TRUE,FALSE,"""event"",""trial"",""time""
""fullscreenenter"",""5"",""27359""
","
","
","""event"",""trial"",""time""
""fullscreenenter"",""5"",""27359""
","
",587.5650000016321,NA,48,NA,NA,3000,1,NA,NA,images/tutgreenplanet.jpg,images/tutalien2,images/tutalien1,images/tutrocket1,images/tutalien2,images/t.png,2,practice,true,2,common,1,2020-06-06T20:44:46Z,sub33
two-step-fixation,90,473749,0.0-61.0-2.9,FALSE,TRUE,TRUE,FALSE,"""event"",""trial"",""time""
""fullscreenenter"",""5"",""27359""
","
","
","""event"",""trial"",""time""
""fullscreenenter"",""5"",""27359""
","
",NA,images/earth.jpg,NA,NA,NA,NA,NA,NA,NA,NA,NA,NA,NA,NA,NA,fixation,NA,NA,NA,NA,NA,NA,sub33
d3-animate-choice,91,476373,0.0-61.0-0.10,FALSE,TRUE,TRUE,FALSE,"""event"",""trial"",""time""
""fullscreenenter"",""5"",""27359""
","
","
","""event"",""trial"",""time""
""fullscreenenter"",""5"",""27359""
","
",618.1700000015553,NA,48,NA,NA,3000,1,NA,NA,images/earth.jpg,images/tutrocket1,images/tutrocket2,null,images/tutrocket1,NA,1,practice,null,2,NA,NA,NA,sub33
d3-animate-choice,92,478814,0.0-61.0-1.10,FALSE,TRUE,TRUE,FALSE,"""event"",""trial"",""time""
""fullscreenenter"",""5"",""27359""
","
","
","""event"",""trial"",""time""
""fullscreenenter"",""5"",""27359""
","
",431.71499999880325,NA,48,NA,NA,3000,1,NA,NA,images/tutgreenplanet.jpg,images/tutalien2,images/tutalien1,images/tutrocket1,images/tutalien2,images/nothing.png,2,practice,true,2,common,0,2020-06-06T20:44:52Z,sub33
two-step-fixation,93,479818,0.0-61.0-2.10,FALSE,TRUE,TRUE,FALSE,"""event"",""trial"",""time""
""fullscreenenter"",""5"",""27359""
","
","
","""event"",""trial"",""time""
""fullscreenenter"",""5"",""27359""
","
",NA,images/earth.jpg,NA,NA,NA,NA,NA,NA,NA,NA,NA,NA,NA,NA,NA,fixation,NA,NA,NA,NA,NA,NA,sub33
d3-animate-choice,94,482349,0.0-61.0-0.11,FALSE,TRUE,TRUE,FALSE,"""event"",""trial"",""time""
""fullscreenenter"",""5"",""27359""
","
","
","""event"",""trial"",""time""
""fullscreenenter"",""5"",""27359""
","
",524.8099999989499,NA,49,NA,NA,3000,1,NA,NA,images/earth.jpg,images/tutrocket1,images/tutrocket2,null,images/tutrocket2,NA,1,practice,null,1,NA,NA,NA,sub33
d3-animate-choice,95,484859,0.0-61.0-1.11,FALSE,TRUE,TRUE,FALSE,"""event"",""trial"",""time""
""fullscreenenter"",""5"",""27359""
","
","
","""event"",""trial"",""time""
""fullscreenenter"",""5"",""27359""
","
",503.2649999993737,NA,49,NA,NA,3000,1,NA,NA,images/tutyellowplanet.jpg,images/tutalien4,images/tutalien3,images/tutrocket2,images/tutalien3,images/t.png,2,practice,true,1,common,1,2020-06-06T20:44:58Z,sub33
two-step-fixation,96,485866,0.0-61.0-2.11,FALSE,TRUE,TRUE,FALSE,"""event"",""trial"",""time""
""fullscreenenter"",""5"",""27359""
","
","
","""event"",""trial"",""time""
""fullscreenenter"",""5"",""27359""
","
",NA,images/earth.jpg,NA,NA,NA,NA,NA,NA,NA,NA,NA,NA,NA,NA,NA,fixation,NA,NA,NA,NA,NA,NA,sub33
d3-animate-choice,97,488375,0.0-61.0-0.12,FALSE,TRUE,TRUE,FALSE,"""event"",""trial"",""time""
""fullscreenenter"",""5"",""27359""
","
","
","""event"",""trial"",""time""
""fullscreenenter"",""5"",""27359""
","
",503.6099999997532,NA,49,NA,NA,3000,1,NA,NA,images/earth.jpg,images/tutrocket1,images/tutrocket2,null,images/tutrocket2,NA,1,practice,null,1,NA,NA,NA,sub33
d3-animate-choice,98,490974,0.0-61.0-1.12,FALSE,TRUE,TRUE,FALSE,"""event"",""trial"",""time""
""fullscreenenter"",""5"",""27359""
","
","
","""event"",""trial"",""time""
""fullscreenenter"",""5"",""27359""
","
",591.1850000011618,NA,49,NA,NA,3000,1,NA,NA,images/tutyellowplanet.jpg,images/tutalien4,images/tutalien3,images/tutrocket2,images/tutalien3,images/t.png,2,practice,true,1,common,1,2020-06-06T20:45:04Z,sub33
two-step-fixation,99,491982,0.0-61.0-2.12,FALSE,TRUE,TRUE,FALSE,"""event"",""trial"",""time""
""fullscreenenter"",""5"",""27359""
","
","
","""event"",""trial"",""time""
""fullscreenenter"",""5"",""27359""
","
",NA,images/earth.jpg,NA,NA,NA,NA,NA,NA,NA,NA,NA,NA,NA,NA,NA,fixation,NA,NA,NA,NA,NA,NA,sub33
d3-animate-choice,100,494516,0.0-61.0-0.13,FALSE,TRUE,TRUE,FALSE,"""event"",""trial"",""time""
""fullscreenenter"",""5"",""27359""
","
","
","""event"",""trial"",""time""
""fullscreenenter"",""5"",""27359""
","
",524.9599999987986,NA,48,NA,NA,3000,1,NA,NA,images/earth.jpg,images/tutrocket1,images/tutrocket2,null,images/tutrocket1,NA,1,practice,null,2,NA,NA,NA,sub33
d3-animate-choice,101,497145,0.0-61.0-1.13,FALSE,TRUE,TRUE,FALSE,"""event"",""trial"",""time""
""fullscreenenter"",""5"",""27359""
","
","
","""event"",""trial"",""time""
""fullscreenenter"",""5"",""27359""
","
",623.5350000024773,NA,49,NA,NA,3000,1,NA,NA,images/tutgreenplanet.jpg,images/tutalien2,images/tutalien1,images/tutrocket1,images/tutalien1,images/nothing.png,2,practice,true,1,common,0,2020-06-06T20:45:11Z,sub33
two-step-fixation,102,498149,0.0-61.0-2.13,FALSE,TRUE,TRUE,FALSE,"""event"",""trial"",""time""
""fullscreenenter"",""5"",""27359""
","
","
","""event"",""trial"",""time""
""fullscreenenter"",""5"",""27359""
","
",NA,images/earth.jpg,NA,NA,NA,NA,NA,NA,NA,NA,NA,NA,NA,NA,NA,fixation,NA,NA,NA,NA,NA,NA,sub33
d3-animate-choice,103,500526,0.0-61.0-0.14,FALSE,TRUE,TRUE,FALSE,"""event"",""trial"",""time""
""fullscreenenter"",""5"",""27359""
","
","
","""event"",""trial"",""time""
""fullscreenenter"",""5"",""27359""
","
",371.62499999976717,NA,48,NA,NA,3000,1,NA,NA,images/earth.jpg,images/tutrocket1,images/tutrocket2,null,images/tutrocket1,NA,1,practice,null,2,NA,NA,NA,sub33
d3-animate-choice,104,503283,0.0-61.0-1.14,FALSE,TRUE,TRUE,FALSE,"""event"",""trial"",""time""
""fullscreenenter"",""5"",""27359""
","
","
","""event"",""trial"",""time""
""fullscreenenter"",""5"",""27359""
","
",750.4999999983702,NA,48,NA,NA,3000,1,NA,NA,images/tutgreenplanet.jpg,images/tutalien2,images/tutalien1,images/tutrocket1,images/tutalien2,images/nothing.png,2,practice,true,2,common,0,2020-06-06T20:45:17Z,sub33
two-step-fixation,105,504286,0.0-61.0-2.14,FALSE,TRUE,TRUE,FALSE,"""event"",""trial"",""time""
""fullscreenenter"",""5"",""27359""
","
","
","""event"",""trial"",""time""
""fullscreenenter"",""5"",""27359""
","
",NA,images/earth.jpg,NA,NA,NA,NA,NA,NA,NA,NA,NA,NA,NA,NA,NA,fixation,NA,NA,NA,NA,NA,NA,sub33
d3-animate-choice,106,506783,0.0-61.0-0.15,FALSE,TRUE,TRUE,FALSE,"""event"",""trial"",""time""
""fullscreenenter"",""5"",""27359""
","
","
","""event"",""trial"",""time""
""fullscreenenter"",""5"",""27359""
","
",492.94000000006054,NA,49,NA,NA,3000,1,NA,NA,images/earth.jpg,images/tutrocket1,images/tutrocket2,null,images/tutrocket2,NA,1,practice,null,1,NA,NA,NA,sub33
d3-animate-choice,107,509216,0.0-61.0-1.15,FALSE,TRUE,TRUE,FALSE,"""event"",""trial"",""time""
""fullscreenenter"",""5"",""27359""
","
","
","""event"",""trial"",""time""
""fullscreenenter"",""5"",""27359""
","
",426.2699999999022,NA,49,NA,NA,3000,1,NA,NA,images/tutyellowplanet.jpg,images/tutalien4,images/tutalien3,images/tutrocket2,images/tutalien3,images/t.png,2,practice,true,1,common,1,2020-06-06T20:45:23Z,sub33
two-step-fixation,108,510220,0.0-61.0-2.15,FALSE,TRUE,TRUE,FALSE,"""event"",""trial"",""time""
""fullscreenenter"",""5"",""27359""
","
","
","""event"",""trial"",""time""
""fullscreenenter"",""5"",""27359""
","
",NA,images/earth.jpg,NA,NA,NA,NA,NA,NA,NA,NA,NA,NA,NA,NA,NA,fixation,NA,NA,NA,NA,NA,NA,sub33
d3-animate-choice,109,512358,0.0-61.0-0.16,FALSE,TRUE,TRUE,FALSE,"""event"",""trial"",""time""
""fullscreenenter"",""5"",""27359""
","
","
","""event"",""trial"",""time""
""fullscreenenter"",""5"",""27359""
","
",132.2699999982724,NA,49,NA,NA,3000,1,NA,NA,images/earth.jpg,images/tutrocket1,images/tutrocket2,null,images/tutrocket2,NA,1,practice,null,1,NA,NA,NA,sub33
d3-animate-choice,110,514776,0.0-61.0-1.16,FALSE,TRUE,TRUE,FALSE,"""event"",""trial"",""time""
""fullscreenenter"",""5"",""27359""
","
","
","""event"",""trial"",""time""
""fullscreenenter"",""5"",""27359""
","
",409.9100000021281,NA,49,NA,NA,3000,1,NA,NA,images/tutyellowplanet.jpg,images/tutalien4,images/tutalien3,images/tutrocket2,images/tutalien3,images/nothing.png,2,practice,true,1,common,0,2020-06-06T20:45:28Z,sub33
two-step-fixation,111,515783,0.0-61.0-2.16,FALSE,TRUE,TRUE,FALSE,"""event"",""trial"",""time""
""fullscreenenter"",""5"",""27359""
","
","
","""event"",""trial"",""time""
""fullscreenenter"",""5"",""27359""
","
",NA,images/earth.jpg,NA,NA,NA,NA,NA,NA,NA,NA,NA,NA,NA,NA,NA,fixation,NA,NA,NA,NA,NA,NA,sub33
d3-animate-choice,112,518347,0.0-61.0-0.17,FALSE,TRUE,TRUE,FALSE,"""event"",""trial"",""time""
""fullscreenenter"",""5"",""27359""
","
","
","""event"",""trial"",""time""
""fullscreenenter"",""5"",""27359""
","
",560.92500000156,NA,49,NA,NA,3000,1,NA,NA,images/earth.jpg,images/tutrocket1,images/tutrocket2,null,images/tutrocket2,NA,1,practice,null,1,NA,NA,NA,sub33
d3-animate-choice,113,521171,0.0-61.0-1.17,FALSE,TRUE,TRUE,FALSE,"""event"",""trial"",""time""
""fullscreenenter"",""5"",""27359""
","
","
","""event"",""trial"",""time""
""fullscreenenter"",""5"",""27359""
","
",818.3550000031246,NA,48,NA,NA,3000,1,NA,NA,images/tutyellowplanet.jpg,images/tutalien4,images/tutalien3,images/tutrocket2,images/tutalien4,images/t.png,2,practice,true,2,common,1,2020-06-06T20:45:35Z,sub33
two-step-fixation,114,522177,0.0-61.0-2.17,FALSE,TRUE,TRUE,FALSE,"""event"",""trial"",""time""
""fullscreenenter"",""5"",""27359""
","
","
","""event"",""trial"",""time""
""fullscreenenter"",""5"",""27359""
","
",NA,images/earth.jpg,NA,NA,NA,NA,NA,NA,NA,NA,NA,NA,NA,NA,NA,fixation,NA,NA,NA,NA,NA,NA,sub33
d3-animate-choice,115,524644,0.0-61.0-0.18,FALSE,TRUE,TRUE,FALSE,"""event"",""trial"",""time""
""fullscreenenter"",""5"",""27359""
","
","
","""event"",""trial"",""time""
""fullscreenenter"",""5"",""27359""
","
",461.34499999973923,NA,48,NA,NA,3000,1,NA,NA,images/earth.jpg,images/tutrocket1,images/tutrocket2,null,images/tutrocket1,NA,1,practice,null,2,NA,NA,NA,sub33
d3-animate-choice,116,527098,0.0-61.0-1.18,FALSE,TRUE,TRUE,FALSE,"""event"",""trial"",""time""
""fullscreenenter"",""5"",""27359""
","
","
","""event"",""trial"",""time""
""fullscreenenter"",""5"",""27359""
","
",446.2600000007078,NA,48,NA,NA,3000,1,NA,NA,images/tutgreenplanet.jpg,images/tutalien2,images/tutalien1,images/tutrocket1,images/tutalien2,images/t.png,2,practice,true,2,common,1,2020-06-06T20:45:40Z,sub33
two-step-fixation,117,528104,0.0-61.0-2.18,FALSE,TRUE,TRUE,FALSE,"""event"",""trial"",""time""
""fullscreenenter"",""5"",""27359""
","
","
","""event"",""trial"",""time""
""fullscreenenter"",""5"",""27359""
","
",NA,images/earth.jpg,NA,NA,NA,NA,NA,NA,NA,NA,NA,NA,NA,NA,NA,fixation,NA,NA,NA,NA,NA,NA,sub33
d3-animate-choice,118,530514,0.0-61.0-0.19,FALSE,TRUE,TRUE,FALSE,"""event"",""trial"",""time""
""fullscreenenter"",""5"",""27359""
","
","
","""event"",""trial"",""time""
""fullscreenenter"",""5"",""27359""
","
",403.54500000108965,NA,48,NA,NA,3000,1,NA,NA,images/earth.jpg,images/tutrocket1,images/tutrocket2,null,images/tutrocket1,NA,1,practice,null,2,NA,NA,NA,sub33
d3-animate-choice,119,532933,0.0-61.0-1.19,FALSE,TRUE,TRUE,FALSE,"""event"",""trial"",""time""
""fullscreenenter"",""5"",""27359""
","
","
","""event"",""trial"",""time""
""fullscreenenter"",""5"",""27359""
","
",415.1849999980768,NA,48,NA,NA,3000,1,NA,NA,images/tutgreenplanet.jpg,images/tutalien2,images/tutalien1,images/tutrocket1,images/tutalien2,images/nothing.png,2,practice,true,2,common,0,2020-06-06T20:45:46Z,sub33
two-step-fixation,120,533938,0.0-61.0-2.19,FALSE,TRUE,TRUE,FALSE,"""event"",""trial"",""time""
""fullscreenenter"",""5"",""27359""
","
","
","""event"",""trial"",""time""
""fullscreenenter"",""5"",""27359""
","
",NA,images/earth.jpg,NA,NA,NA,NA,NA,NA,NA,NA,NA,NA,NA,NA,NA,fixation,NA,NA,NA,NA,NA,NA,sub33
d3-instructions,121,545055,0.0-62.0,FALSE,TRUE,TRUE,FALSE,"""event"",""trial"",""time""
""fullscreenenter"",""5"",""27359""
","
","
","""event"",""trial"",""time""
""fullscreenenter"",""5"",""27359""
","
",NA,NA,NA,NA,NA,NA,NA,NA,NA,NA,NA,NA,NA,NA,NA,NA,NA,NA,NA,NA,NA,NA,sub33
audio-keyboard-response,122,553598,0.0-63.0,FALSE,TRUE,TRUE,FALSE,"""event"",""trial"",""time""
""fullscreenenter"",""5"",""27359""
","
","
","""event"",""trial"",""time""
""fullscreenenter"",""5"",""27359""
","
",8544,audio/instructions/treasure_feedback.wav,32,NA,NA,NA,NA,NA,NA,NA,NA,NA,NA,NA,NA,NA,NA,NA,NA,NA,NA,NA,sub33
d3-instructions,123,573819,0.0-64.0,FALSE,TRUE,TRUE,FALSE,"""event"",""trial"",""time""
""fullscreenenter"",""5"",""27359""
","
","
","""event"",""trial"",""time""
""fullscreenenter"",""5"",""27359""
","
",NA,NA,NA,NA,NA,NA,NA,NA,NA,NA,NA,NA,NA,NA,NA,NA,NA,NA,NA,NA,NA,NA,sub33
d3-instructions,124,588022,0.0-65.0,FALSE,TRUE,TRUE,FALSE,"""event"",""trial"",""time""
""fullscreenenter"",""5"",""27359""
","
","
","""event"",""trial"",""time""
""fullscreenenter"",""5"",""27359""
","
",NA,NA,NA,NA,NA,NA,NA,NA,NA,NA,NA,NA,NA,NA,NA,NA,NA,NA,NA,NA,NA,NA,sub33
d3-instructions,125,612723,0.0-66.0,FALSE,TRUE,TRUE,FALSE,"""event"",""trial"",""time""
""fullscreenenter"",""5"",""27359""
","
","
","""event"",""trial"",""time""
""fullscreenenter"",""5"",""27359""
","
",NA,NA,NA,NA,NA,NA,NA,NA,NA,NA,NA,NA,NA,NA,NA,NA,NA,NA,NA,NA,NA,NA,sub33
d3-instructions,126,628945,0.0-67.0,FALSE,TRUE,TRUE,FALSE,"""event"",""trial"",""time""
""fullscreenenter"",""5"",""27359""
","
","
","""event"",""trial"",""time""
""fullscreenenter"",""5"",""27359""
","
",NA,NA,NA,NA,NA,NA,NA,NA,NA,NA,NA,NA,NA,NA,NA,NA,NA,NA,NA,NA,NA,NA,sub33
d3-instructions,127,637910,0.0-68.0,FALSE,TRUE,TRUE,FALSE,"""event"",""trial"",""time""
""fullscreenenter"",""5"",""27359""
","
","
","""event"",""trial"",""time""
""fullscreenenter"",""5"",""27359""
","
",NA,NA,NA,NA,NA,NA,NA,NA,NA,NA,NA,NA,NA,NA,NA,NA,NA,NA,NA,NA,NA,NA,sub33
instructions-quiz,128,643204,0.0-69.0,FALSE,TRUE,TRUE,FALSE,"""event"",""trial"",""time""
""fullscreenenter"",""5"",""27359""
","
","
","""event"",""trial"",""time""
""fullscreenenter"",""5"",""27359""
","
",5292.085000000894,audio/quiz/Q1_Prompt.wav,NA,1,NA,NA,NA,NA,NA,NA,NA,NA,NA,NA,NA,NA,NA,NA,NA,NA,NA,NA,sub33
audio-keyboard-response,129,651883,0.0-70.0,FALSE,TRUE,TRUE,FALSE,"""event"",""trial"",""time""
""fullscreenenter"",""5"",""27359""
","
","
","""event"",""trial"",""time""
""fullscreenenter"",""5"",""27359""
","
",8672,audio/quiz/Q1_Correct.wav,32,NA,NA,NA,NA,NA,NA,NA,NA,NA,NA,NA,NA,NA,NA,NA,NA,NA,NA,NA,sub33
instructions-quiz,130,661109,0.0-71.0,FALSE,TRUE,TRUE,FALSE,"""event"",""trial"",""time""
""fullscreenenter"",""5"",""27359""
","
","
","""event"",""trial"",""time""
""fullscreenenter"",""5"",""27359""
","
",9224.125000000582,audio/quiz/Q2_Prompt.wav,NA,0,NA,NA,NA,NA,NA,NA,NA,NA,NA,NA,NA,NA,NA,NA,NA,NA,NA,NA,sub33
audio-keyboard-response,131,672939,0.0-72.0,FALSE,TRUE,TRUE,FALSE,"""event"",""trial"",""time""
""fullscreenenter"",""5"",""27359""
","
","
","""event"",""trial"",""time""
""fullscreenenter"",""5"",""27359""
","
",11824,audio/quiz/Q2_Correct.wav,32,NA,NA,NA,NA,NA,NA,NA,NA,NA,NA,NA,NA,NA,NA,NA,NA,NA,NA,NA,sub33
instructions-quiz,132,679196,0.0-73.0,FALSE,TRUE,TRUE,FALSE,"""event"",""trial"",""time""
""fullscreenenter"",""5"",""27359""
","
","
","""event"",""trial"",""time""
""fullscreenenter"",""5"",""27359""
","
",6255.234999996843,audio/quiz/Q3_Prompt.wav,NA,1,NA,NA,NA,NA,NA,NA,NA,NA,NA,NA,NA,NA,NA,NA,NA,NA,NA,NA,sub33
audio-keyboard-response,133,684484,0.0-74.0,FALSE,TRUE,TRUE,FALSE,"""event"",""trial"",""time""
""fullscreenenter"",""5"",""27359""
","
","
","""event"",""trial"",""time""
""fullscreenenter"",""5"",""27359""
","
",5285,audio/quiz/Q3_Correct.wav,32,NA,NA,NA,NA,NA,NA,NA,NA,NA,NA,NA,NA,NA,NA,NA,NA,NA,NA,NA,sub33
d3-instructions,134,709156,0.0-75.0,FALSE,TRUE,TRUE,FALSE,"""event"",""trial"",""time""
""fullscreenenter"",""5"",""27359""
","
","
","""event"",""trial"",""time""
""fullscreenenter"",""5"",""27359""
","
",NA,NA,NA,NA,NA,NA,NA,NA,NA,NA,NA,NA,NA,NA,NA,NA,NA,NA,NA,NA,NA,NA,sub33
d3-animate-choice,135,712500,0.0-76.0-0.0,FALSE,TRUE,TRUE,FALSE,"""event"",""trial"",""time""
""fullscreenenter"",""5"",""27359""
","
","
","""event"",""trial"",""time""
""fullscreenenter"",""5"",""27359""
","
",1341.3650000002235,NA,48,NA,NA,3000,1,NA,NA,images/earth.jpg,images/rocket1,images/rocket2,null,images/rocket1,NA,1,real,null,2,NA,NA,NA,sub33
d3-animate-choice,136,716235,0.0-76.0-1.0,FALSE,TRUE,TRUE,FALSE,"""event"",""trial"",""time""
""fullscreenenter"",""5"",""27359""
","
","
","""event"",""trial"",""time""
""fullscreenenter"",""5"",""27359""
","
",598.5450000007404,NA,57,NA,NA,3000,1,1728.4200000031851,49,images/redplanet1.jpg,images/alien2,images/alien1,images/rocket1,images/alien1,images/t.png,2,real,true,NA,common,1,2020-06-06T20:48:50Z,sub33
two-step-fixation,137,717241,0.0-76.0-2.0,FALSE,TRUE,TRUE,FALSE,"""event"",""trial"",""time""
""fullscreenenter"",""5"",""27359""
","
","
","""event"",""trial"",""time""
""fullscreenenter"",""5"",""27359""
","
",NA,images/earth.jpg,NA,NA,NA,NA,NA,NA,NA,NA,NA,NA,NA,NA,NA,fixation,NA,NA,NA,NA,NA,NA,sub33
d3-animate-choice,138,720028,0.0-76.0-0.1,FALSE,TRUE,TRUE,FALSE,"""event"",""trial"",""time""
""fullscreenenter"",""5"",""27359""
","
","
","""event"",""trial"",""time""
""fullscreenenter"",""5"",""27359""
","
",780.2249999985797,NA,48,NA,NA,3000,1,NA,NA,images/earth.jpg,images/rocket1,images/rocket2,null,images/rocket1,NA,1,real,null,2,NA,NA,NA,sub33
d3-animate-choice,139,722973,0.0-76.0-1.1,FALSE,TRUE,TRUE,FALSE,"""event"",""trial"",""time""
""fullscreenenter"",""5"",""27359""
","
","
","""event"",""trial"",""time""
""fullscreenenter"",""5"",""27359""
","
",940.7800000008428,NA,49,NA,NA,3000,1,NA,NA,images/purpleplanet.jpg,images/alien4,images/alien3,images/rocket1,images/alien3,images/t.png,2,real,false,1,rare,1,2020-06-06T20:48:56Z,sub33
two-step-fixation,140,723981,0.0-76.0-2.1,FALSE,TRUE,TRUE,FALSE,"""event"",""trial"",""time""
""fullscreenenter"",""5"",""27359""
","
","
","""event"",""trial"",""time""
""fullscreenenter"",""5"",""27359""
","
",NA,images/earth.jpg,NA,NA,NA,NA,NA,NA,NA,NA,NA,NA,NA,NA,NA,fixation,NA,NA,NA,NA,NA,NA,sub33
d3-animate-choice,141,726682,0.0-76.0-0.2,FALSE,TRUE,TRUE,FALSE,"""event"",""trial"",""time""
""fullscreenenter"",""5"",""27359""
","
","
","""event"",""trial"",""time""
""fullscreenenter"",""5"",""27359""
","
",695.6849999987753,NA,49,NA,NA,3000,1,NA,NA,images/earth.jpg,images/rocket1,images/rocket2,null,images/rocket2,NA,1,real,null,1,NA,NA,NA,sub33
d3-animate-choice,142,729157,0.0-76.0-1.2,FALSE,TRUE,TRUE,FALSE,"""event"",""trial"",""time""
""fullscreenenter"",""5"",""27359""
","
","
","""event"",""trial"",""time""
""fullscreenenter"",""5"",""27359""
","
",465.90999999898486,NA,49,NA,NA,3000,1,NA,NA,images/purpleplanet.jpg,images/alien4,images/alien3,images/rocket2,images/alien3,images/nothing.png,2,real,true,1,common,0,2020-06-06T20:49:03Z,sub33
two-step-fixation,143,730161,0.0-76.0-2.2,FALSE,TRUE,TRUE,FALSE,"""event"",""trial"",""time""
""fullscreenenter"",""5"",""27359""
","
","
","""event"",""trial"",""time""
""fullscreenenter"",""5"",""27359""
","
",NA,images/earth.jpg,NA,NA,NA,NA,NA,NA,NA,NA,NA,NA,NA,NA,NA,fixation,NA,NA,NA,NA,NA,NA,sub33
d3-animate-choice,144,732573,0.0-76.0-0.3,FALSE,TRUE,TRUE,FALSE,"""event"",""trial"",""time""
""fullscreenenter"",""5"",""27359""
","
","
","""event"",""trial"",""time""
""fullscreenenter"",""5"",""27359""
","
",407.63000000151806,NA,48,NA,NA,3000,1,NA,NA,images/earth.jpg,images/rocket1,images/rocket2,null,images/rocket1,NA,1,real,null,2,NA,NA,NA,sub33
d3-animate-choice,145,735156,0.0-76.0-1.3,FALSE,TRUE,TRUE,FALSE,"""event"",""trial"",""time""
""fullscreenenter"",""5"",""27359""
","
","
","""event"",""trial"",""time""
""fullscreenenter"",""5"",""27359""
","
",576.4549999985611,NA,49,NA,NA,3000,1,NA,NA,images/redplanet1.jpg,images/alien2,images/alien1,images/rocket1,images/alien1,images/nothing.png,2,real,true,1,common,0,2020-06-06T20:49:09Z,sub33
two-step-fixation,146,736164,0.0-76.0-2.3,FALSE,TRUE,TRUE,FALSE,"""event"",""trial"",""time""
""fullscreenenter"",""5"",""27359""
","
","
","""event"",""trial"",""time""
""fullscreenenter"",""5"",""27359""
","
",NA,images/earth.jpg,NA,NA,NA,NA,NA,NA,NA,NA,NA,NA,NA,NA,NA,fixation,NA,NA,NA,NA,NA,NA,sub33
d3-animate-choice,147,738493,0.0-76.0-0.4,FALSE,TRUE,TRUE,FALSE,"""event"",""trial"",""time""
""fullscreenenter"",""5"",""27359""
","
","
","""event"",""trial"",""time""
""fullscreenenter"",""5"",""27359""
","
",322.8699999998789,NA,48,NA,NA,3000,1,NA,NA,images/earth.jpg,images/rocket1,images/rocket2,null,images/rocket1,NA,1,real,null,2,NA,NA,NA,sub33
d3-animate-choice,148,741161,0.0-76.0-1.4,FALSE,TRUE,TRUE,FALSE,"""event"",""trial"",""time""
""fullscreenenter"",""5"",""27359""
","
","
","""event"",""trial"",""time""
""fullscreenenter"",""5"",""27359""
","
",663.7150000024121,NA,48,NA,NA,3000,1,NA,NA,images/purpleplanet.jpg,images/alien4,images/alien3,images/rocket1,images/alien4,images/t.png,2,real,false,2,rare,1,2020-06-06T20:49:15Z,sub33
two-step-fixation,149,742168,0.0-76.0-2.4,FALSE,TRUE,TRUE,FALSE,"""event"",""trial"",""time""
""fullscreenenter"",""5"",""27359""
","
","
","""event"",""trial"",""time""
""fullscreenenter"",""5"",""27359""
","
",NA,images/earth.jpg,NA,NA,NA,NA,NA,NA,NA,NA,NA,NA,NA,NA,NA,fixation,NA,NA,NA,NA,NA,NA,sub33
d3-animate-choice,150,744526,0.0-76.0-0.5,FALSE,TRUE,TRUE,FALSE,"""event"",""trial"",""time""
""fullscreenenter"",""5"",""27359""
","
","
","""event"",""trial"",""time""
""fullscreenenter"",""5"",""27359""
","
",351.4049999975832,NA,48,NA,NA,3000,1,NA,NA,images/earth.jpg,images/rocket1,images/rocket2,null,images/rocket1,NA,1,real,null,2,NA,NA,NA,sub33
d3-animate-choice,151,747221,0.0-76.0-1.5,FALSE,TRUE,TRUE,FALSE,"""event"",""trial"",""time""
""fullscreenenter"",""5"",""27359""
","
","
","""event"",""trial"",""time""
""fullscreenenter"",""5"",""27359""
","
",691.2850000007311,NA,49,NA,NA,3000,1,NA,NA,images/purpleplanet.jpg,images/alien4,images/alien3,images/rocket1,images/alien3,images/nothing.png,2,real,false,1,rare,0,2020-06-06T20:49:21Z,sub33
two-step-fixation,152,748225,0.0-76.0-2.5,FALSE,TRUE,TRUE,FALSE,"""event"",""trial"",""time""
""fullscreenenter"",""5"",""27359""
","
","
","""event"",""trial"",""time""
""fullscreenenter"",""5"",""27359""
","
",NA,images/earth.jpg,NA,NA,NA,NA,NA,NA,NA,NA,NA,NA,NA,NA,NA,fixation,NA,NA,NA,NA,NA,NA,sub33
d3-animate-choice,153,750726,0.0-76.0-0.6,FALSE,TRUE,TRUE,FALSE,"""event"",""trial"",""time""
""fullscreenenter"",""5"",""27359""
","
","
","""event"",""trial"",""time""
""fullscreenenter"",""5"",""27359""
","
",494.4250000008615,NA,48,NA,NA,3000,1,NA,NA,images/earth.jpg,images/rocket1,images/rocket2,null,images/rocket1,NA,1,real,null,2,NA,NA,NA,sub33
d3-animate-choice,154,753390,0.0-76.0-1.6,FALSE,TRUE,TRUE,FALSE,"""event"",""trial"",""time""
""fullscreenenter"",""5"",""27359""
","
","
","""event"",""trial"",""time""
""fullscreenenter"",""5"",""27359""
","
",659.4949999998789,NA,48,NA,NA,3000,1,NA,NA,images/redplanet1.jpg,images/alien2,images/alien1,images/rocket1,images/alien2,images/nothing.png,2,real,true,2,common,0,2020-06-06T20:49:27Z,sub33
two-step-fixation,155,754396,0.0-76.0-2.6,FALSE,TRUE,TRUE,FALSE,"""event"",""trial"",""time""
""fullscreenenter"",""5"",""27359""
","
","
","""event"",""trial"",""time""
""fullscreenenter"",""5"",""27359""
","
",NA,images/earth.jpg,NA,NA,NA,NA,NA,NA,NA,NA,NA,NA,NA,NA,NA,fixation,NA,NA,NA,NA,NA,NA,sub33
d3-animate-choice,156,756697,0.0-76.0-0.7,FALSE,TRUE,TRUE,FALSE,"""event"",""trial"",""time""
""fullscreenenter"",""5"",""27359""
","
","
","""event"",""trial"",""time""
""fullscreenenter"",""5"",""27359""
","
",293.3249999987893,NA,48,NA,NA,3000,1,NA,NA,images/earth.jpg,images/rocket1,images/rocket2,null,images/rocket1,NA,1,real,null,2,NA,NA,NA,sub33
d3-animate-choice,157,759516,0.0-76.0-1.7,FALSE,TRUE,TRUE,FALSE,"""event"",""trial"",""time""
""fullscreenenter"",""5"",""27359""
","
","
","""event"",""trial"",""time""
""fullscreenenter"",""5"",""27359""
","
",813.0749999982072,NA,49,NA,NA,3000,1,NA,NA,images/redplanet1.jpg,images/alien2,images/alien1,images/rocket1,images/alien1,images/t.png,2,real,true,1,common,1,2020-06-06T20:49:33Z,sub33
two-step-fixation,158,760520,0.0-76.0-2.7,FALSE,TRUE,TRUE,FALSE,"""event"",""trial"",""time""
""fullscreenenter"",""5"",""27359""
","
","
","""event"",""trial"",""time""
""fullscreenenter"",""5"",""27359""
","
",NA,images/earth.jpg,NA,NA,NA,NA,NA,NA,NA,NA,NA,NA,NA,NA,NA,fixation,NA,NA,NA,NA,NA,NA,sub33
d3-animate-choice,159,763295,0.0-76.0-0.8,FALSE,TRUE,TRUE,FALSE,"""event"",""trial"",""time""
""fullscreenenter"",""5"",""27359""
","
","
","""event"",""trial"",""time""
""fullscreenenter"",""5"",""27359""
","
",769.6350000005914,NA,49,NA,NA,3000,1,NA,NA,images/earth.jpg,images/rocket1,images/rocket2,null,images/rocket2,NA,1,real,null,1,NA,NA,NA,sub33
d3-animate-choice,160,765851,0.0-76.0-1.8,FALSE,TRUE,TRUE,FALSE,"""event"",""trial"",""time""
""fullscreenenter"",""5"",""27359""
","
","
","""event"",""trial"",""time""
""fullscreenenter"",""5"",""27359""
","
",550.104999998468,NA,49,NA,NA,3000,1,NA,NA,images/redplanet1.jpg,images/alien2,images/alien1,images/rocket2,images/alien1,images/nothing.png,2,real,false,1,rare,0,2020-06-06T20:49:39Z,sub33
two-step-fixation,161,766855,0.0-76.0-2.8,FALSE,TRUE,TRUE,FALSE,"""event"",""trial"",""time""
""fullscreenenter"",""5"",""27359""
","
","
","""event"",""trial"",""time""
""fullscreenenter"",""5"",""27359""
","
",NA,images/earth.jpg,NA,NA,NA,NA,NA,NA,NA,NA,NA,NA,NA,NA,NA,fixation,NA,NA,NA,NA,NA,NA,sub33
d3-animate-choice,162,769240,0.0-76.0-0.9,FALSE,TRUE,TRUE,FALSE,"""event"",""trial"",""time""
""fullscreenenter"",""5"",""27359""
","
","
","""event"",""trial"",""time""
""fullscreenenter"",""5"",""27359""
","
",379.7149999990361,NA,49,NA,NA,3000,1,NA,NA,images/earth.jpg,images/rocket1,images/rocket2,null,images/rocket2,NA,1,real,null,1,NA,NA,NA,sub33
d3-animate-choice,163,771914,0.0-76.0-1.9,FALSE,TRUE,TRUE,FALSE,"""event"",""trial"",""time""
""fullscreenenter"",""5"",""27359""
","
","
","""event"",""trial"",""time""
""fullscreenenter"",""5"",""27359""
","
",666.9149999979418,NA,48,NA,NA,3000,1,NA,NA,images/purpleplanet.jpg,images/alien4,images/alien3,images/rocket2,images/alien4,images/nothing.png,2,real,true,2,common,0,2020-06-06T20:49:45Z,sub33
two-step-fixation,164,772918,0.0-76.0-2.9,FALSE,TRUE,TRUE,FALSE,"""event"",""trial"",""time""
""fullscreenenter"",""5"",""27359""
","
","
","""event"",""trial"",""time""
""fullscreenenter"",""5"",""27359""
","
",NA,images/earth.jpg,NA,NA,NA,NA,NA,NA,NA,NA,NA,NA,NA,NA,NA,fixation,NA,NA,NA,NA,NA,NA,sub33
d3-animate-choice,165,775327,0.0-76.0-0.10,FALSE,TRUE,TRUE,FALSE,"""event"",""trial"",""time""
""fullscreenenter"",""5"",""27359""
","
","
","""event"",""trial"",""time""
""fullscreenenter"",""5"",""27359""
","
",404.80999999993946,NA,49,NA,NA,3000,1,NA,NA,images/earth.jpg,images/rocket1,images/rocket2,null,images/rocket2,NA,1,real,null,1,NA,NA,NA,sub33
d3-animate-choice,166,778144,0.0-76.0-1.10,FALSE,TRUE,TRUE,FALSE,"""event"",""trial"",""time""
""fullscreenenter"",""5"",""27359""
","
","
","""event"",""trial"",""time""
""fullscreenenter"",""5"",""27359""
","
",811.5199999993201,NA,49,NA,NA,3000,1,NA,NA,images/purpleplanet.jpg,images/alien4,images/alien3,images/rocket2,images/alien3,images/nothing.png,2,real,true,1,common,0,2020-06-06T20:49:52Z,sub33
two-step-fixation,167,779150,0.0-76.0-2.10,FALSE,TRUE,TRUE,FALSE,"""event"",""trial"",""time""
""fullscreenenter"",""5"",""27359""
","
","
","""event"",""trial"",""time""
""fullscreenenter"",""5"",""27359""
","
",NA,images/earth.jpg,NA,NA,NA,NA,NA,NA,NA,NA,NA,NA,NA,NA,NA,fixation,NA,NA,NA,NA,NA,NA,sub33
d3-animate-choice,168,781615,0.0-76.0-0.11,FALSE,TRUE,TRUE,FALSE,"""event"",""trial"",""time""
""fullscreenenter"",""5"",""27359""
","
","
","""event"",""trial"",""time""
""fullscreenenter"",""5"",""27359""
","
",458.55500000109896,NA,48,NA,NA,3000,1,NA,NA,images/earth.jpg,images/rocket1,images/rocket2,null,images/rocket1,NA,1,real,null,2,NA,NA,NA,sub33
d3-animate-choice,169,784530,0.0-76.0-1.11,FALSE,TRUE,TRUE,FALSE,"""event"",""trial"",""time""
""fullscreenenter"",""5"",""27359""
","
","
","""event"",""trial"",""time""
""fullscreenenter"",""5"",""27359""
","
",908.6199999983655,NA,48,NA,NA,3000,1,NA,NA,images/purpleplanet.jpg,images/alien4,images/alien3,images/rocket1,images/alien4,images/t.png,2,real,false,2,rare,1,2020-06-06T20:49:58Z,sub33
two-step-fixation,170,785534,0.0-76.0-2.11,FALSE,TRUE,TRUE,FALSE,"""event"",""trial"",""time""
""fullscreenenter"",""5"",""27359""
","
","
","""event"",""trial"",""time""
""fullscreenenter"",""5"",""27359""
","
",NA,images/earth.jpg,NA,NA,NA,NA,NA,NA,NA,NA,NA,NA,NA,NA,NA,fixation,NA,NA,NA,NA,NA,NA,sub33
d3-animate-choice,171,788125,0.0-76.0-0.12,FALSE,TRUE,TRUE,FALSE,"""event"",""trial"",""time""
""fullscreenenter"",""5"",""27359""
","
","
","""event"",""trial"",""time""
""fullscreenenter"",""5"",""27359""
","
",583.739999998128,NA,48,NA,NA,3000,1,NA,NA,images/earth.jpg,images/rocket1,images/rocket2,null,images/rocket1,NA,1,real,null,2,NA,NA,NA,sub33
d3-animate-choice,172,791119,0.0-76.0-1.12,FALSE,TRUE,TRUE,FALSE,"""event"",""trial"",""time""
""fullscreenenter"",""5"",""27359""
","
","
","""event"",""trial"",""time""
""fullscreenenter"",""5"",""27359""
","
",987.9849999997532,NA,49,NA,NA,3000,1,NA,NA,images/purpleplanet.jpg,images/alien4,images/alien3,images/rocket1,images/alien3,images/nothing.png,2,real,false,1,rare,0,2020-06-06T20:50:05Z,sub33
two-step-fixation,173,792127,0.0-76.0-2.12,FALSE,TRUE,TRUE,FALSE,"""event"",""trial"",""time""
""fullscreenenter"",""5"",""27359""
","
","
","""event"",""trial"",""time""
""fullscreenenter"",""5"",""27359""
","
",NA,images/earth.jpg,NA,NA,NA,NA,NA,NA,NA,NA,NA,NA,NA,NA,NA,fixation,NA,NA,NA,NA,NA,NA,sub33
d3-animate-choice,174,794551,0.0-76.0-0.13,FALSE,TRUE,TRUE,FALSE,"""event"",""trial"",""time""
""fullscreenenter"",""5"",""27359""
","
","
","""event"",""trial"",""time""
""fullscreenenter"",""5"",""27359""
","
",419.6650000012014,NA,48,NA,NA,3000,1,NA,NA,images/earth.jpg,images/rocket1,images/rocket2,null,images/rocket1,NA,1,real,null,2,NA,NA,NA,sub33
d3-animate-choice,175,797574,0.0-76.0-1.13,FALSE,TRUE,TRUE,FALSE,"""event"",""trial"",""time""
""fullscreenenter"",""5"",""27359""
","
","
","""event"",""trial"",""time""
""fullscreenenter"",""5"",""27359""
","
",1019.0750000001863,NA,49,NA,NA,3000,1,NA,NA,images/redplanet1.jpg,images/alien2,images/alien1,images/rocket1,images/alien1,images/t.png,2,real,true,1,common,1,2020-06-06T20:50:11Z,sub33
two-step-fixation,176,798581,0.0-76.0-2.13,FALSE,TRUE,TRUE,FALSE,"""event"",""trial"",""time""
""fullscreenenter"",""5"",""27359""
","
","
","""event"",""trial"",""time""
""fullscreenenter"",""5"",""27359""
","
",NA,images/earth.jpg,NA,NA,NA,NA,NA,NA,NA,NA,NA,NA,NA,NA,NA,fixation,NA,NA,NA,NA,NA,NA,sub33
d3-animate-choice,177,801007,0.0-76.0-0.14,FALSE,TRUE,TRUE,FALSE,"""event"",""trial"",""time""
""fullscreenenter"",""5"",""27359""
","
","
","""event"",""trial"",""time""
""fullscreenenter"",""5"",""27359""
","
",420.7349999996368,NA,48,NA,NA,3000,1,NA,NA,images/earth.jpg,images/rocket1,images/rocket2,null,images/rocket1,NA,1,real,null,2,NA,NA,NA,sub33
d3-animate-choice,178,803669,0.0-76.0-1.14,FALSE,TRUE,TRUE,FALSE,"""event"",""trial"",""time""
""fullscreenenter"",""5"",""27359""
","
","
","""event"",""trial"",""time""
""fullscreenenter"",""5"",""27359""
","
",654.2200000003213,NA,49,NA,NA,3000,1,NA,NA,images/redplanet1.jpg,images/alien2,images/alien1,images/rocket1,images/alien1,images/nothing.png,2,real,true,1,common,0,2020-06-06T20:50:17Z,sub33
two-step-fixation,179,804673,0.0-76.0-2.14,FALSE,TRUE,TRUE,FALSE,"""event"",""trial"",""time""
""fullscreenenter"",""5"",""27359""
","
","
","""event"",""trial"",""time""
""fullscreenenter"",""5"",""27359""
","
",NA,images/earth.jpg,NA,NA,NA,NA,NA,NA,NA,NA,NA,NA,NA,NA,NA,fixation,NA,NA,NA,NA,NA,NA,sub33
d3-animate-choice,180,807332,0.0-76.0-0.15,FALSE,TRUE,TRUE,FALSE,"""event"",""trial"",""time""
""fullscreenenter"",""5"",""27359""
","
","
","""event"",""trial"",""time""
""fullscreenenter"",""5"",""27359""
","
",653.3300000010058,NA,48,NA,NA,3000,1,NA,NA,images/earth.jpg,images/rocket1,images/rocket2,null,images/rocket1,NA,1,real,null,2,NA,NA,NA,sub33
d3-animate-choice,181,809893,0.0-76.0-1.15,FALSE,TRUE,TRUE,FALSE,"""event"",""trial"",""time""
""fullscreenenter"",""5"",""27359""
","
","
","""event"",""trial"",""time""
""fullscreenenter"",""5"",""27359""
","
",554.4000000009546,NA,48,NA,NA,3000,1,NA,NA,images/redplanet1.jpg,images/alien2,images/alien1,images/rocket1,images/alien2,images/t.png,2,real,true,2,common,1,2020-06-06T20:50:23Z,sub33
two-step-fixation,182,810901,0.0-76.0-2.15,FALSE,TRUE,TRUE,FALSE,"""event"",""trial"",""time""
""fullscreenenter"",""5"",""27359""
","
","
","""event"",""trial"",""time""
""fullscreenenter"",""5"",""27359""
","
",NA,images/earth.jpg,NA,NA,NA,NA,NA,NA,NA,NA,NA,NA,NA,NA,NA,fixation,NA,NA,NA,NA,NA,NA,sub33
d3-animate-choice,183,813467,0.0-76.0-0.16,FALSE,TRUE,TRUE,FALSE,"""event"",""trial"",""time""
""fullscreenenter"",""5"",""27359""
","
","
","""event"",""trial"",""time""
""fullscreenenter"",""5"",""27359""
","
",560.5999999970663,NA,48,NA,NA,3000,1,NA,NA,images/earth.jpg,images/rocket1,images/rocket2,null,images/rocket1,NA,1,real,null,2,NA,NA,NA,sub33
d3-animate-choice,184,816283,0.0-76.0-1.16,FALSE,TRUE,TRUE,FALSE,"""event"",""trial"",""time""
""fullscreenenter"",""5"",""27359""
","
","
","""event"",""trial"",""time""
""fullscreenenter"",""5"",""27359""
","
",810.0500000000466,NA,48,NA,NA,3000,1,NA,NA,images/redplanet1.jpg,images/alien2,images/alien1,images/rocket1,images/alien2,images/nothing.png,2,real,true,2,common,0,2020-06-06T20:50:30Z,sub33
two-step-fixation,185,817287,0.0-76.0-2.16,FALSE,TRUE,TRUE,FALSE,"""event"",""trial"",""time""
""fullscreenenter"",""5"",""27359""
","
","
","""event"",""trial"",""time""
""fullscreenenter"",""5"",""27359""
","
",NA,images/earth.jpg,NA,NA,NA,NA,NA,NA,NA,NA,NA,NA,NA,NA,NA,fixation,NA,NA,NA,NA,NA,NA,sub33
d3-animate-choice,186,819700,0.0-76.0-0.17,FALSE,TRUE,TRUE,FALSE,"""event"",""trial"",""time""
""fullscreenenter"",""5"",""27359""
","
","
","""event"",""trial"",""time""
""fullscreenenter"",""5"",""27359""
","
",404.1849999994738,NA,48,NA,NA,3000,1,NA,NA,images/earth.jpg,images/rocket1,images/rocket2,null,images/rocket1,NA,1,real,null,2,NA,NA,NA,sub33
d3-animate-choice,187,822236,0.0-76.0-1.17,FALSE,TRUE,TRUE,FALSE,"""event"",""trial"",""time""
""fullscreenenter"",""5"",""27359""
","
","
","""event"",""trial"",""time""
""fullscreenenter"",""5"",""27359""
","
",532.0149999969872,NA,49,NA,NA,3000,1,NA,NA,images/redplanet1.jpg,images/alien2,images/alien1,images/rocket1,images/alien1,images/t.png,2,real,true,1,common,1,2020-06-06T20:50:36Z,sub33
two-step-fixation,188,823239,0.0-76.0-2.17,FALSE,TRUE,TRUE,FALSE,"""event"",""trial"",""time""
""fullscreenenter"",""5"",""27359""
","
","
","""event"",""trial"",""time""
""fullscreenenter"",""5"",""27359""
","
",NA,images/earth.jpg,NA,NA,NA,NA,NA,NA,NA,NA,NA,NA,NA,NA,NA,fixation,NA,NA,NA,NA,NA,NA,sub33
d3-animate-choice,189,825827,0.0-76.0-0.18,FALSE,TRUE,TRUE,FALSE,"""event"",""trial"",""time""
""fullscreenenter"",""5"",""27359""
","
","
","""event"",""trial"",""time""
""fullscreenenter"",""5"",""27359""
","
",582.8050000055227,NA,48,NA,NA,3000,1,NA,NA,images/earth.jpg,images/rocket1,images/rocket2,null,images/rocket1,NA,1,real,null,2,NA,NA,NA,sub33
d3-animate-choice,190,828242,0.0-76.0-1.18,FALSE,TRUE,TRUE,FALSE,"""event"",""trial"",""time""
""fullscreenenter"",""5"",""27359""
","
","
","""event"",""trial"",""time""
""fullscreenenter"",""5"",""27359""
","
",409.3949999951292,NA,49,NA,NA,3000,1,NA,NA,images/redplanet1.jpg,images/alien2,images/alien1,images/rocket1,images/alien1,images/nothing.png,2,real,true,1,common,0,2020-06-06T20:50:42Z,sub33
two-step-fixation,191,829247,0.0-76.0-2.18,FALSE,TRUE,TRUE,FALSE,"""event"",""trial"",""time""
""fullscreenenter"",""5"",""27359""
","
","
","""event"",""trial"",""time""
""fullscreenenter"",""5"",""27359""
","
",NA,images/earth.jpg,NA,NA,NA,NA,NA,NA,NA,NA,NA,NA,NA,NA,NA,fixation,NA,NA,NA,NA,NA,NA,sub33
d3-animate-choice,192,831900,0.0-76.0-0.19,FALSE,TRUE,TRUE,FALSE,"""event"",""trial"",""time""
""fullscreenenter"",""5"",""27359""
","
","
","""event"",""trial"",""time""
""fullscreenenter"",""5"",""27359""
","
",647.1450000025798,NA,48,NA,NA,3000,1,NA,NA,images/earth.jpg,images/rocket1,images/rocket2,null,images/rocket1,NA,1,real,null,2,NA,NA,NA,sub33
d3-animate-choice,193,834357,0.0-76.0-1.19,FALSE,TRUE,TRUE,FALSE,"""event"",""trial"",""time""
""fullscreenenter"",""5"",""27359""
","
","
","""event"",""trial"",""time""
""fullscreenenter"",""5"",""27359""
","
",451.69000000169035,NA,48,NA,NA,3000,1,NA,NA,images/redplanet1.jpg,images/alien2,images/alien1,images/rocket1,images/alien2,images/t.png,2,real,true,2,common,1,2020-06-06T20:50:48Z,sub33
two-step-fixation,194,835364,0.0-76.0-2.19,FALSE,TRUE,TRUE,FALSE,"""event"",""trial"",""time""
""fullscreenenter"",""5"",""27359""
","
","
","""event"",""trial"",""time""
""fullscreenenter"",""5"",""27359""
","
",NA,images/earth.jpg,NA,NA,NA,NA,NA,NA,NA,NA,NA,NA,NA,NA,NA,fixation,NA,NA,NA,NA,NA,NA,sub33
d3-animate-choice,195,837792,0.0-76.0-0.20,FALSE,TRUE,TRUE,FALSE,"""event"",""trial"",""time""
""fullscreenenter"",""5"",""27359""
","
","
","""event"",""trial"",""time""
""fullscreenenter"",""5"",""27359""
","
",421.51000000012573,NA,48,NA,NA,3000,1,NA,NA,images/earth.jpg,images/rocket1,images/rocket2,null,images/rocket1,NA,1,real,null,2,NA,NA,NA,sub33
d3-animate-choice,196,840290,0.0-76.0-1.20,FALSE,TRUE,TRUE,FALSE,"""event"",""trial"",""time""
""fullscreenenter"",""5"",""27359""
","
","
","""event"",""trial"",""time""
""fullscreenenter"",""5"",""27359""
","
",493.11000000301283,NA,48,NA,NA,3000,1,NA,NA,images/redplanet1.jpg,images/alien2,images/alien1,images/rocket1,images/alien2,images/t.png,2,real,true,2,common,1,2020-06-06T20:50:54Z,sub33
two-step-fixation,197,841296,0.0-76.0-2.20,FALSE,TRUE,TRUE,FALSE,"""event"",""trial"",""time""
""fullscreenenter"",""5"",""27359""
","
","
","""event"",""trial"",""time""
""fullscreenenter"",""5"",""27359""
","
",NA,images/earth.jpg,NA,NA,NA,NA,NA,NA,NA,NA,NA,NA,NA,NA,NA,fixation,NA,NA,NA,NA,NA,NA,sub33
d3-animate-choice,198,843669,0.0-76.0-0.21,FALSE,TRUE,TRUE,FALSE,"""event"",""trial"",""time""
""fullscreenenter"",""5"",""27359""
","
","
","""event"",""trial"",""time""
""fullscreenenter"",""5"",""27359""
","
",366.5099999998929,NA,48,NA,NA,3000,1,NA,NA,images/earth.jpg,images/rocket1,images/rocket2,null,images/rocket1,NA,1,real,null,2,NA,NA,NA,sub33
d3-animate-choice,199,846434,0.0-76.0-1.21,FALSE,TRUE,TRUE,FALSE,"""event"",""trial"",""time""
""fullscreenenter"",""5"",""27359""
","
","
","""event"",""trial"",""time""
""fullscreenenter"",""5"",""27359""
","
",759.6399999965215,NA,49,NA,NA,3000,1,NA,NA,images/purpleplanet.jpg,images/alien4,images/alien3,images/rocket1,images/alien3,images/nothing.png,2,real,false,1,rare,0,2020-06-06T20:51:00Z,sub33
two-step-fixation,200,847439,0.0-76.0-2.21,FALSE,TRUE,TRUE,FALSE,"""event"",""trial"",""time""
""fullscreenenter"",""5"",""27359""
","
","
","""event"",""trial"",""time""
""fullscreenenter"",""5"",""27359""
","
",NA,images/earth.jpg,NA,NA,NA,NA,NA,NA,NA,NA,NA,NA,NA,NA,NA,fixation,NA,NA,NA,NA,NA,NA,sub33
d3-animate-choice,201,850016,0.0-76.0-0.22,FALSE,TRUE,TRUE,FALSE,"""event"",""trial"",""time""
""fullscreenenter"",""5"",""27359""
","
","
","""event"",""trial"",""time""
""fullscreenenter"",""5"",""27359""
","
",572.034999997355,NA,48,NA,NA,3000,1,NA,NA,images/earth.jpg,images/rocket1,images/rocket2,null,images/rocket1,NA,1,real,null,2,NA,NA,NA,sub33
d3-animate-choice,202,852467,0.0-76.0-1.22,FALSE,TRUE,TRUE,FALSE,"""event"",""trial"",""time""
""fullscreenenter"",""5"",""27359""
","
","
","""event"",""trial"",""time""
""fullscreenenter"",""5"",""27359""
","
",444.7950000031851,NA,48,NA,NA,3000,1,NA,NA,images/purpleplanet.jpg,images/alien4,images/alien3,images/rocket1,images/alien4,images/t.png,2,real,false,2,rare,1,2020-06-06T20:51:06Z,sub33
two-step-fixation,203,853471,0.0-76.0-2.22,FALSE,TRUE,TRUE,FALSE,"""event"",""trial"",""time""
""fullscreenenter"",""5"",""27359""
","
","
","""event"",""trial"",""time""
""fullscreenenter"",""5"",""27359""
","
",NA,images/earth.jpg,NA,NA,NA,NA,NA,NA,NA,NA,NA,NA,NA,NA,NA,fixation,NA,NA,NA,NA,NA,NA,sub33
d3-animate-choice,204,855838,0.0-76.0-0.23,FALSE,TRUE,TRUE,FALSE,"""event"",""trial"",""time""
""fullscreenenter"",""5"",""27359""
","
","
","""event"",""trial"",""time""
""fullscreenenter"",""5"",""27359""
","
",361.93000000645407,NA,48,NA,NA,3000,1,NA,NA,images/earth.jpg,images/rocket1,images/rocket2,null,images/rocket1,NA,1,real,null,2,NA,NA,NA,sub33
d3-animate-choice,205,858375,0.0-76.0-1.23,FALSE,TRUE,TRUE,FALSE,"""event"",""trial"",""time""
""fullscreenenter"",""5"",""27359""
","
","
","""event"",""trial"",""time""
""fullscreenenter"",""5"",""27359""
","
",532.2999999988824,NA,48,NA,NA,3000,1,NA,NA,images/redplanet1.jpg,images/alien2,images/alien1,images/rocket1,images/alien2,images/t.png,2,real,true,2,common,1,2020-06-06T20:51:12Z,sub33
two-step-fixation,206,859381,0.0-76.0-2.23,FALSE,TRUE,TRUE,FALSE,"""event"",""trial"",""time""
""fullscreenenter"",""5"",""27359""
","
","
","""event"",""trial"",""time""
""fullscreenenter"",""5"",""27359""
","
",NA,images/earth.jpg,NA,NA,NA,NA,NA,NA,NA,NA,NA,NA,NA,NA,NA,fixation,NA,NA,NA,NA,NA,NA,sub33
d3-animate-choice,207,861909,0.0-76.0-0.24,FALSE,TRUE,TRUE,FALSE,"""event"",""trial"",""time""
""fullscreenenter"",""5"",""27359""
","
","
","""event"",""trial"",""time""
""fullscreenenter"",""5"",""27359""
","
",523.1700000003912,NA,48,NA,NA,3000,1,NA,NA,images/earth.jpg,images/rocket1,images/rocket2,null,images/rocket1,NA,1,real,null,2,NA,NA,NA,sub33
d3-animate-choice,208,864426,0.0-76.0-1.24,FALSE,TRUE,TRUE,FALSE,"""event"",""trial"",""time""
""fullscreenenter"",""5"",""27359""
","
","
","""event"",""trial"",""time""
""fullscreenenter"",""5"",""27359""
","
",512.8949999999022,NA,48,NA,NA,3000,1,NA,NA,images/redplanet1.jpg,images/alien2,images/alien1,images/rocket1,images/alien2,images/t.png,2,real,true,2,common,1,2020-06-06T20:51:18Z,sub33
two-step-fixation,209,865432,0.0-76.0-2.24,FALSE,TRUE,TRUE,FALSE,"""event"",""trial"",""time""
""fullscreenenter"",""5"",""27359""
","
","
","""event"",""trial"",""time""
""fullscreenenter"",""5"",""27359""
","
",NA,images/earth.jpg,NA,NA,NA,NA,NA,NA,NA,NA,NA,NA,NA,NA,NA,fixation,NA,NA,NA,NA,NA,NA,sub33
d3-animate-choice,210,868535,0.0-76.0-0.25,FALSE,TRUE,TRUE,FALSE,"""event"",""trial"",""time""
""fullscreenenter"",""5"",""27359""
","
","
","""event"",""trial"",""time""
""fullscreenenter"",""5"",""27359""
","
",1097.0500000038883,NA,48,NA,NA,3000,1,NA,NA,images/earth.jpg,images/rocket1,images/rocket2,null,images/rocket1,NA,1,real,null,2,NA,NA,NA,sub33
d3-animate-choice,211,871370,0.0-76.0-1.25,FALSE,TRUE,TRUE,FALSE,"""event"",""trial"",""time""
""fullscreenenter"",""5"",""27359""
","
","
","""event"",""trial"",""time""
""fullscreenenter"",""5"",""27359""
","
",830.5899999977555,NA,49,NA,NA,3000,1,NA,NA,images/purpleplanet.jpg,images/alien4,images/alien3,images/rocket1,images/alien3,images/nothing.png,2,real,false,1,rare,0,2020-06-06T20:51:25Z,sub33
two-step-fixation,212,872375,0.0-76.0-2.25,FALSE,TRUE,TRUE,FALSE,"""event"",""trial"",""time""
""fullscreenenter"",""5"",""27359""
","
","
","""event"",""trial"",""time""
""fullscreenenter"",""5"",""27359""
","
",NA,images/earth.jpg,NA,NA,NA,NA,NA,NA,NA,NA,NA,NA,NA,NA,NA,fixation,NA,NA,NA,NA,NA,NA,sub33
d3-animate-choice,213,874877,0.0-76.0-0.26,FALSE,TRUE,TRUE,FALSE,"""event"",""trial"",""time""
""fullscreenenter"",""5"",""27359""
","
","
","""event"",""trial"",""time""
""fullscreenenter"",""5"",""27359""
","
",496.14999999897555,NA,48,NA,NA,3000,1,NA,NA,images/earth.jpg,images/rocket1,images/rocket2,null,images/rocket1,NA,1,real,null,2,NA,NA,NA,sub33
d3-animate-choice,214,877257,0.0-76.0-1.26,FALSE,TRUE,TRUE,FALSE,"""event"",""trial"",""time""
""fullscreenenter"",""5"",""27359""
","
","
","""event"",""trial"",""time""
""fullscreenenter"",""5"",""27359""
","
",374.96000000089407,NA,48,NA,NA,3000,1,NA,NA,images/redplanet1.jpg,images/alien2,images/alien1,images/rocket1,images/alien2,images/nothing.png,2,real,true,2,common,0,2020-06-06T20:51:31Z,sub33
two-step-fixation,215,878263,0.0-76.0-2.26,FALSE,TRUE,TRUE,FALSE,"""event"",""trial"",""time""
""fullscreenenter"",""5"",""27359""
","
","
","""event"",""trial"",""time""
""fullscreenenter"",""5"",""27359""
","
",NA,images/earth.jpg,NA,NA,NA,NA,NA,NA,NA,NA,NA,NA,NA,NA,NA,fixation,NA,NA,NA,NA,NA,NA,sub33
d3-animate-choice,216,880539,0.0-76.0-0.27,FALSE,TRUE,TRUE,FALSE,"""event"",""trial"",""time""
""fullscreenenter"",""5"",""27359""
","
","
","""event"",""trial"",""time""
""fullscreenenter"",""5"",""27359""
","
",270.26499999919906,NA,49,NA,NA,3000,1,NA,NA,images/earth.jpg,images/rocket1,images/rocket2,null,images/rocket2,NA,1,real,null,1,NA,NA,NA,sub33
d3-animate-choice,217,883375,0.0-76.0-1.27,FALSE,TRUE,TRUE,FALSE,"""event"",""trial"",""time""
""fullscreenenter"",""5"",""27359""
","
","
","""event"",""trial"",""time""
""fullscreenenter"",""5"",""27359""
","
",831.4450000035577,NA,48,NA,NA,3000,1,NA,NA,images/redplanet1.jpg,images/alien2,images/alien1,images/rocket2,images/alien2,images/t.png,2,real,false,2,rare,1,2020-06-06T20:51:37Z,sub33
two-step-fixation,218,884379,0.0-76.0-2.27,FALSE,TRUE,TRUE,FALSE,"""event"",""trial"",""time""
""fullscreenenter"",""5"",""27359""
","
","
","""event"",""trial"",""time""
""fullscreenenter"",""5"",""27359""
","
",NA,images/earth.jpg,NA,NA,NA,NA,NA,NA,NA,NA,NA,NA,NA,NA,NA,fixation,NA,NA,NA,NA,NA,NA,sub33
d3-animate-choice,219,886734,0.0-76.0-0.28,FALSE,TRUE,TRUE,FALSE,"""event"",""trial"",""time""
""fullscreenenter"",""5"",""27359""
","
","
","""event"",""trial"",""time""
""fullscreenenter"",""5"",""27359""
","
",349.7350000033621,NA,49,NA,NA,3000,1,NA,NA,images/earth.jpg,images/rocket1,images/rocket2,null,images/rocket2,NA,1,real,null,1,NA,NA,NA,sub33
d3-animate-choice,220,889317,0.0-76.0-1.28,FALSE,TRUE,TRUE,FALSE,"""event"",""trial"",""time""
""fullscreenenter"",""5"",""27359""
","
","
","""event"",""trial"",""time""
""fullscreenenter"",""5"",""27359""
","
",575.2700000011828,NA,48,NA,NA,3000,1,NA,NA,images/redplanet1.jpg,images/alien2,images/alien1,images/rocket2,images/alien2,images/t.png,2,real,false,2,rare,1,2020-06-06T20:51:43Z,sub33
two-step-fixation,221,890321,0.0-76.0-2.28,FALSE,TRUE,TRUE,FALSE,"""event"",""trial"",""time""
""fullscreenenter"",""5"",""27359""
","
","
","""event"",""trial"",""time""
""fullscreenenter"",""5"",""27359""
","
",NA,images/earth.jpg,NA,NA,NA,NA,NA,NA,NA,NA,NA,NA,NA,NA,NA,fixation,NA,NA,NA,NA,NA,NA,sub33
d3-animate-choice,222,892639,0.0-76.0-0.29,FALSE,TRUE,TRUE,FALSE,"""event"",""trial"",""time""
""fullscreenenter"",""5"",""27359""
","
","
","""event"",""trial"",""time""
""fullscreenenter"",""5"",""27359""
","
",313.1599999978207,NA,49,NA,NA,3000,1,NA,NA,images/earth.jpg,images/rocket1,images/rocket2,null,images/rocket2,NA,1,real,null,1,NA,NA,NA,sub33
d3-animate-choice,223,895553,0.0-76.0-1.29,FALSE,TRUE,TRUE,FALSE,"""event"",""trial"",""time""
""fullscreenenter"",""5"",""27359""
","
","
","""event"",""trial"",""time""
""fullscreenenter"",""5"",""27359""
","
",909.2949999975972,NA,49,NA,NA,3000,1,NA,NA,images/purpleplanet.jpg,images/alien4,images/alien3,images/rocket2,images/alien3,images/t.png,2,real,true,1,common,1,2020-06-06T20:51:49Z,sub33
two-step-fixation,224,896560,0.0-76.0-2.29,FALSE,TRUE,TRUE,FALSE,"""event"",""trial"",""time""
""fullscreenenter"",""5"",""27359""
","
","
","""event"",""trial"",""time""
""fullscreenenter"",""5"",""27359""
","
",NA,images/earth.jpg,NA,NA,NA,NA,NA,NA,NA,NA,NA,NA,NA,NA,NA,fixation,NA,NA,NA,NA,NA,NA,sub33
d3-animate-choice,225,899058,0.0-76.0-0.30,FALSE,TRUE,TRUE,FALSE,"""event"",""trial"",""time""
""fullscreenenter"",""5"",""27359""
","
","
","""event"",""trial"",""time""
""fullscreenenter"",""5"",""27359""
","
",488.8700000010431,NA,48,NA,NA,3000,1,NA,NA,images/earth.jpg,images/rocket1,images/rocket2,null,images/rocket1,NA,1,real,null,2,NA,NA,NA,sub33
d3-animate-choice,226,901653,0.0-76.0-1.30,FALSE,TRUE,TRUE,FALSE,"""event"",""trial"",""time""
""fullscreenenter"",""5"",""27359""
","
","
","""event"",""trial"",""time""
""fullscreenenter"",""5"",""27359""
","
",589.29499999783,NA,48,NA,NA,3000,1,NA,NA,images/redplanet1.jpg,images/alien2,images/alien1,images/rocket1,images/alien2,images/nothing.png,2,real,true,2,common,0,2020-06-06T20:51:55Z,sub33
two-step-fixation,227,902661,0.0-76.0-2.30,FALSE,TRUE,TRUE,FALSE,"""event"",""trial"",""time""
""fullscreenenter"",""5"",""27359""
","
","
","""event"",""trial"",""time""
""fullscreenenter"",""5"",""27359""
","
",NA,images/earth.jpg,NA,NA,NA,NA,NA,NA,NA,NA,NA,NA,NA,NA,NA,fixation,NA,NA,NA,NA,NA,NA,sub33
d3-animate-choice,228,905170,0.0-76.0-0.31,FALSE,TRUE,TRUE,FALSE,"""event"",""trial"",""time""
""fullscreenenter"",""5"",""27359""
","
","
","""event"",""trial"",""time""
""fullscreenenter"",""5"",""27359""
","
",503.824999999837,NA,49,NA,NA,3000,1,NA,NA,images/earth.jpg,images/rocket1,images/rocket2,null,images/rocket2,NA,1,real,null,1,NA,NA,NA,sub33
d3-animate-choice,229,907818,0.0-76.0-1.31,FALSE,TRUE,TRUE,FALSE,"""event"",""trial"",""time""
""fullscreenenter"",""5"",""27359""
","
","
","""event"",""trial"",""time""
""fullscreenenter"",""5"",""27359""
","
",640.8450000016019,NA,48,NA,NA,3000,1,NA,NA,images/purpleplanet.jpg,images/alien4,images/alien3,images/rocket2,images/alien4,images/nothing.png,2,real,true,2,common,0,2020-06-06T20:52:01Z,sub33
two-step-fixation,230,908822,0.0-76.0-2.31,FALSE,TRUE,TRUE,FALSE,"""event"",""trial"",""time""
""fullscreenenter"",""5"",""27359""
","
","
","""event"",""trial"",""time""
""fullscreenenter"",""5"",""27359""
","
",NA,images/earth.jpg,NA,NA,NA,NA,NA,NA,NA,NA,NA,NA,NA,NA,NA,fixation,NA,NA,NA,NA,NA,NA,sub33
d3-animate-choice,231,911194,0.0-76.0-0.32,FALSE,TRUE,TRUE,FALSE,"""event"",""trial"",""time""
""fullscreenenter"",""5"",""27359""
","
","
","""event"",""trial"",""time""
""fullscreenenter"",""5"",""27359""
","
",367.2950000036508,NA,49,NA,NA,3000,1,NA,NA,images/earth.jpg,images/rocket1,images/rocket2,null,images/rocket2,NA,1,real,null,1,NA,NA,NA,sub33
d3-animate-choice,232,913774,0.0-76.0-1.32,FALSE,TRUE,TRUE,FALSE,"""event"",""trial"",""time""
""fullscreenenter"",""5"",""27359""
","
","
","""event"",""trial"",""time""
""fullscreenenter"",""5"",""27359""
","
",574.5049999968614,NA,49,NA,NA,3000,1,NA,NA,images/purpleplanet.jpg,images/alien4,images/alien3,images/rocket2,images/alien3,images/t.png,2,real,true,1,common,1,2020-06-06T20:52:07Z,sub33
two-step-fixation,233,914779,0.0-76.0-2.32,FALSE,TRUE,TRUE,FALSE,"""event"",""trial"",""time""
""fullscreenenter"",""5"",""27359""
","
","
","""event"",""trial"",""time""
""fullscreenenter"",""5"",""27359""
","
",NA,images/earth.jpg,NA,NA,NA,NA,NA,NA,NA,NA,NA,NA,NA,NA,NA,fixation,NA,NA,NA,NA,NA,NA,sub33
d3-animate-choice,234,917251,0.0-76.0-0.33,FALSE,TRUE,TRUE,FALSE,"""event"",""trial"",""time""
""fullscreenenter"",""5"",""27359""
","
","
","""event"",""trial"",""time""
""fullscreenenter"",""5"",""27359""
","
",466.08500000007916,NA,49,NA,NA,3000,1,NA,NA,images/earth.jpg,images/rocket1,images/rocket2,null,images/rocket2,NA,1,real,null,1,NA,NA,NA,sub33
d3-animate-choice,235,919624,0.0-76.0-1.33,FALSE,TRUE,TRUE,FALSE,"""event"",""trial"",""time""
""fullscreenenter"",""5"",""27359""
","
","
","""event"",""trial"",""time""
""fullscreenenter"",""5"",""27359""
","
",367.3800000032643,NA,49,NA,NA,3000,1,NA,NA,images/purpleplanet.jpg,images/alien4,images/alien3,images/rocket2,images/alien3,images/nothing.png,2,real,true,1,common,0,2020-06-06T20:52:13Z,sub33
two-step-fixation,236,920628,0.0-76.0-2.33,FALSE,TRUE,TRUE,FALSE,"""event"",""trial"",""time""
""fullscreenenter"",""5"",""27359""
","
","
","""event"",""trial"",""time""
""fullscreenenter"",""5"",""27359""
","
",NA,images/earth.jpg,NA,NA,NA,NA,NA,NA,NA,NA,NA,NA,NA,NA,NA,fixation,NA,NA,NA,NA,NA,NA,sub33
d3-animate-choice,237,922950,0.0-76.0-0.34,FALSE,TRUE,TRUE,FALSE,"""event"",""trial"",""time""
""fullscreenenter"",""5"",""27359""
","
","
","""event"",""trial"",""time""
""fullscreenenter"",""5"",""27359""
","
",313.62000000081025,NA,48,NA,NA,3000,1,NA,NA,images/earth.jpg,images/rocket1,images/rocket2,null,images/rocket1,NA,1,real,null,2,NA,NA,NA,sub33
d3-animate-choice,238,925605,0.0-76.0-1.34,FALSE,TRUE,TRUE,FALSE,"""event"",""trial"",""time""
""fullscreenenter"",""5"",""27359""
","
","
","""event"",""trial"",""time""
""fullscreenenter"",""5"",""27359""
","
",650.8600000014994,NA,49,NA,NA,3000,1,NA,NA,images/redplanet1.jpg,images/alien2,images/alien1,images/rocket1,images/alien1,images/t.png,2,real,true,1,common,1,2020-06-06T20:52:19Z,sub33
two-step-fixation,239,926609,0.0-76.0-2.34,FALSE,TRUE,TRUE,FALSE,"""event"",""trial"",""time""
""fullscreenenter"",""5"",""27359""
","
","
","""event"",""trial"",""time""
""fullscreenenter"",""5"",""27359""
","
",NA,images/earth.jpg,NA,NA,NA,NA,NA,NA,NA,NA,NA,NA,NA,NA,NA,fixation,NA,NA,NA,NA,NA,NA,sub33
d3-animate-choice,240,929013,0.0-76.0-0.35,FALSE,TRUE,TRUE,FALSE,"""event"",""trial"",""time""
""fullscreenenter"",""5"",""27359""
","
","
","""event"",""trial"",""time""
""fullscreenenter"",""5"",""27359""
","
",399.8550000033574,NA,48,NA,NA,3000,1,NA,NA,images/earth.jpg,images/rocket1,images/rocket2,null,images/rocket1,NA,1,real,null,2,NA,NA,NA,sub33
d3-animate-choice,241,931535,0.0-76.0-1.35,FALSE,TRUE,TRUE,FALSE,"""event"",""trial"",""time""
""fullscreenenter"",""5"",""27359""
","
","
","""event"",""trial"",""time""
""fullscreenenter"",""5"",""27359""
","
",516.5249999989755,NA,48,NA,NA,3000,1,NA,NA,images/redplanet1.jpg,images/alien2,images/alien1,images/rocket1,images/alien2,images/t.png,2,real,true,2,common,1,2020-06-06T20:52:25Z,sub33
two-step-fixation,242,932539,0.0-76.0-2.35,FALSE,TRUE,TRUE,FALSE,"""event"",""trial"",""time""
""fullscreenenter"",""5"",""27359""
","
","
","""event"",""trial"",""time""
""fullscreenenter"",""5"",""27359""
","
",NA,images/earth.jpg,NA,NA,NA,NA,NA,NA,NA,NA,NA,NA,NA,NA,NA,fixation,NA,NA,NA,NA,NA,NA,sub33
d3-animate-choice,243,934907,0.0-76.0-0.36,FALSE,TRUE,TRUE,FALSE,"""event"",""trial"",""time""
""fullscreenenter"",""5"",""27359""
","
","
","""event"",""trial"",""time""
""fullscreenenter"",""5"",""27359""
","
",363.9899999978952,NA,49,NA,NA,3000,1,NA,NA,images/earth.jpg,images/rocket1,images/rocket2,null,images/rocket2,NA,1,real,null,1,NA,NA,NA,sub33
d3-animate-choice,244,937401,0.0-76.0-1.36,FALSE,TRUE,TRUE,FALSE,"""event"",""trial"",""time""
""fullscreenenter"",""5"",""27359""
","
","
","""event"",""trial"",""time""
""fullscreenenter"",""5"",""27359""
","
",490.60499999905005,NA,49,NA,NA,3000,1,NA,NA,images/purpleplanet.jpg,images/alien4,images/alien3,images/rocket2,images/alien3,images/t.png,2,real,true,1,common,1,2020-06-06T20:52:31Z,sub33
two-step-fixation,245,938405,0.0-76.0-2.36,FALSE,TRUE,TRUE,FALSE,"""event"",""trial"",""time""
""fullscreenenter"",""5"",""27359""
","
","
","""event"",""trial"",""time""
""fullscreenenter"",""5"",""27359""
","
",NA,images/earth.jpg,NA,NA,NA,NA,NA,NA,NA,NA,NA,NA,NA,NA,NA,fixation,NA,NA,NA,NA,NA,NA,sub33
d3-animate-choice,246,940909,0.0-76.0-0.37,FALSE,TRUE,TRUE,FALSE,"""event"",""trial"",""time""
""fullscreenenter"",""5"",""27359""
","
","
","""event"",""trial"",""time""
""fullscreenenter"",""5"",""27359""
","
",499.04000000236556,NA,49,NA,NA,3000,1,NA,NA,images/earth.jpg,images/rocket1,images/rocket2,null,images/rocket2,NA,1,real,null,1,NA,NA,NA,sub33
d3-animate-choice,247,943257,0.0-76.0-1.37,FALSE,TRUE,TRUE,FALSE,"""event"",""trial"",""time""
""fullscreenenter"",""5"",""27359""
","
","
","""event"",""trial"",""time""
""fullscreenenter"",""5"",""27359""
","
",343.1449999988545,NA,49,NA,NA,3000,1,NA,NA,images/purpleplanet.jpg,images/alien4,images/alien3,images/rocket2,images/alien3,images/nothing.png,2,real,true,1,common,0,2020-06-06T20:52:37Z,sub33
two-step-fixation,248,944263,0.0-76.0-2.37,FALSE,TRUE,TRUE,FALSE,"""event"",""trial"",""time""
""fullscreenenter"",""5"",""27359""
","
","
","""event"",""trial"",""time""
""fullscreenenter"",""5"",""27359""
","
",NA,images/earth.jpg,NA,NA,NA,NA,NA,NA,NA,NA,NA,NA,NA,NA,NA,fixation,NA,NA,NA,NA,NA,NA,sub33
d3-animate-choice,249,946605,0.0-76.0-0.38,FALSE,TRUE,TRUE,FALSE,"""event"",""trial"",""time""
""fullscreenenter"",""5"",""27359""
","
","
","""event"",""trial"",""time""
""fullscreenenter"",""5"",""27359""
","
",337.73500000091735,NA,48,NA,NA,3000,1,NA,NA,images/earth.jpg,images/rocket1,images/rocket2,null,images/rocket1,NA,1,real,null,2,NA,NA,NA,sub33
d3-animate-choice,250,949108,0.0-76.0-1.38,FALSE,TRUE,TRUE,FALSE,"""event"",""trial"",""time""
""fullscreenenter"",""5"",""27359""
","
","
","""event"",""trial"",""time""
""fullscreenenter"",""5"",""27359""
","
",499.26000000420026,NA,48,NA,NA,3000,1,NA,NA,images/redplanet1.jpg,images/alien2,images/alien1,images/rocket1,images/alien2,images/nothing.png,2,real,true,2,common,0,2020-06-06T20:52:43Z,sub33
two-step-fixation,251,950113,0.0-76.0-2.38,FALSE,TRUE,TRUE,FALSE,"""event"",""trial"",""time""
""fullscreenenter"",""5"",""27359""
","
","
","""event"",""trial"",""time""
""fullscreenenter"",""5"",""27359""
","
",NA,images/earth.jpg,NA,NA,NA,NA,NA,NA,NA,NA,NA,NA,NA,NA,NA,fixation,NA,NA,NA,NA,NA,NA,sub33
d3-animate-choice,252,952390,0.0-76.0-0.39,FALSE,TRUE,TRUE,FALSE,"""event"",""trial"",""time""
""fullscreenenter"",""5"",""27359""
","
","
","""event"",""trial"",""time""
""fullscreenenter"",""5"",""27359""
","
",273.0900000024121,NA,48,NA,NA,3000,1,NA,NA,images/earth.jpg,images/rocket1,images/rocket2,null,images/rocket1,NA,1,real,null,2,NA,NA,NA,sub33
d3-animate-choice,253,954950,0.0-76.0-1.39,FALSE,TRUE,TRUE,FALSE,"""event"",""trial"",""time""
""fullscreenenter"",""5"",""27359""
","
","
","""event"",""trial"",""time""
""fullscreenenter"",""5"",""27359""
","
",553.045000000624,NA,49,NA,NA,3000,1,NA,NA,images/redplanet1.jpg,images/alien2,images/alien1,images/rocket1,images/alien1,images/t.png,2,real,true,1,common,1,2020-06-06T20:52:48Z,sub33
two-step-fixation,254,955954,0.0-76.0-2.39,FALSE,TRUE,TRUE,FALSE,"""event"",""trial"",""time""
""fullscreenenter"",""5"",""27359""
","
","
","""event"",""trial"",""time""
""fullscreenenter"",""5"",""27359""
","
",NA,images/earth.jpg,NA,NA,NA,NA,NA,NA,NA,NA,NA,NA,NA,NA,NA,fixation,NA,NA,NA,NA,NA,NA,sub33
d3-animate-choice,255,958394,0.0-76.0-0.40,FALSE,TRUE,TRUE,FALSE,"""event"",""trial"",""time""
""fullscreenenter"",""5"",""27359""
","
","
","""event"",""trial"",""time""
""fullscreenenter"",""5"",""27359""
","
",434.58000000100583,NA,49,NA,NA,3000,1,NA,NA,images/earth.jpg,images/rocket1,images/rocket2,null,images/rocket2,NA,1,real,null,1,NA,NA,NA,sub33
d3-animate-choice,256,961100,0.0-76.0-1.40,FALSE,TRUE,TRUE,FALSE,"""event"",""trial"",""time""
""fullscreenenter"",""5"",""27359""
","
","
","""event"",""trial"",""time""
""fullscreenenter"",""5"",""27359""
","
",696.9899999967311,NA,49,NA,NA,3000,1,NA,NA,images/purpleplanet.jpg,images/alien4,images/alien3,images/rocket2,images/alien3,images/nothing.png,2,real,true,1,common,0,2020-06-06T20:52:54Z,sub33
two-step-fixation,257,962105,0.0-76.0-2.40,FALSE,TRUE,TRUE,FALSE,"""event"",""trial"",""time""
""fullscreenenter"",""5"",""27359""
","
","
","""event"",""trial"",""time""
""fullscreenenter"",""5"",""27359""
","
",NA,images/earth.jpg,NA,NA,NA,NA,NA,NA,NA,NA,NA,NA,NA,NA,NA,fixation,NA,NA,NA,NA,NA,NA,sub33
d3-animate-choice,258,964485,0.0-76.0-0.41,FALSE,TRUE,TRUE,FALSE,"""event"",""trial"",""time""
""fullscreenenter"",""5"",""27359""
","
","
","""event"",""trial"",""time""
""fullscreenenter"",""5"",""27359""
","
",374.1900000022724,NA,49,NA,NA,3000,1,NA,NA,images/earth.jpg,images/rocket1,images/rocket2,null,images/rocket2,NA,1,real,null,1,NA,NA,NA,sub33
d3-animate-choice,259,966852,0.0-76.0-1.41,FALSE,TRUE,TRUE,FALSE,"""event"",""trial"",""time""
""fullscreenenter"",""5"",""27359""
","
","
","""event"",""trial"",""time""
""fullscreenenter"",""5"",""27359""
","
",360.7899999987567,NA,49,NA,NA,3000,1,NA,NA,images/redplanet1.jpg,images/alien2,images/alien1,images/rocket2,images/alien1,images/t.png,2,real,false,1,rare,1,2020-06-06T20:53:00Z,sub33
two-step-fixation,260,967856,0.0-76.0-2.41,FALSE,TRUE,TRUE,FALSE,"""event"",""trial"",""time""
""fullscreenenter"",""5"",""27359""
","
","
","""event"",""trial"",""time""
""fullscreenenter"",""5"",""27359""
","
",NA,images/earth.jpg,NA,NA,NA,NA,NA,NA,NA,NA,NA,NA,NA,NA,NA,fixation,NA,NA,NA,NA,NA,NA,sub33
d3-animate-choice,261,970571,0.0-76.0-0.42,FALSE,TRUE,TRUE,FALSE,"""event"",""trial"",""time""
""fullscreenenter"",""5"",""27359""
","
","
","""event"",""trial"",""time""
""fullscreenenter"",""5"",""27359""
","
",708.0950000017183,NA,49,NA,NA,3000,1,NA,NA,images/earth.jpg,images/rocket1,images/rocket2,null,images/rocket2,NA,1,real,null,1,NA,NA,NA,sub33
d3-animate-choice,262,973229,0.0-76.0-1.42,FALSE,TRUE,TRUE,FALSE,"""event"",""trial"",""time""
""fullscreenenter"",""5"",""27359""
","
","
","""event"",""trial"",""time""
""fullscreenenter"",""5"",""27359""
","
",654.2599999958184,NA,49,NA,NA,3000,1,NA,NA,images/redplanet1.jpg,images/alien2,images/alien1,images/rocket2,images/alien1,images/t.png,2,real,false,1,rare,1,2020-06-06T20:53:07Z,sub33
two-step-fixation,263,974235,0.0-76.0-2.42,FALSE,TRUE,TRUE,FALSE,"""event"",""trial"",""time""
""fullscreenenter"",""5"",""27359""
","
","
","""event"",""trial"",""time""
""fullscreenenter"",""5"",""27359""
","
",NA,images/earth.jpg,NA,NA,NA,NA,NA,NA,NA,NA,NA,NA,NA,NA,NA,fixation,NA,NA,NA,NA,NA,NA,sub33
d3-animate-choice,264,976699,0.0-76.0-0.43,FALSE,TRUE,TRUE,FALSE,"""event"",""trial"",""time""
""fullscreenenter"",""5"",""27359""
","
","
","""event"",""trial"",""time""
""fullscreenenter"",""5"",""27359""
","
",459.4100000030594,NA,49,NA,NA,3000,1,NA,NA,images/earth.jpg,images/rocket1,images/rocket2,null,images/rocket2,NA,1,real,null,1,NA,NA,NA,sub33
d3-animate-choice,265,979229,0.0-76.0-1.43,FALSE,TRUE,TRUE,FALSE,"""event"",""trial"",""time""
""fullscreenenter"",""5"",""27359""
","
","
","""event"",""trial"",""time""
""fullscreenenter"",""5"",""27359""
","
",524.1600000008475,NA,49,NA,NA,3000,1,NA,NA,images/redplanet1.jpg,images/alien2,images/alien1,images/rocket2,images/alien1,images/t.png,2,real,false,1,rare,1,2020-06-06T20:53:13Z,sub33
two-step-fixation,266,980235,0.0-76.0-2.43,FALSE,TRUE,TRUE,FALSE,"""event"",""trial"",""time""
""fullscreenenter"",""5"",""27359""
","
","
","""event"",""trial"",""time""
""fullscreenenter"",""5"",""27359""
","
",NA,images/earth.jpg,NA,NA,NA,NA,NA,NA,NA,NA,NA,NA,NA,NA,NA,fixation,NA,NA,NA,NA,NA,NA,sub33
d3-animate-choice,267,982579,0.0-76.0-0.44,FALSE,TRUE,TRUE,FALSE,"""event"",""trial"",""time""
""fullscreenenter"",""5"",""27359""
","
","
","""event"",""trial"",""time""
""fullscreenenter"",""5"",""27359""
","
",338.3599999942817,NA,49,NA,NA,3000,1,NA,NA,images/earth.jpg,images/rocket1,images/rocket2,null,images/rocket2,NA,1,real,null,1,NA,NA,NA,sub33
d3-animate-choice,268,985204,0.0-76.0-1.44,FALSE,TRUE,TRUE,FALSE,"""event"",""trial"",""time""
""fullscreenenter"",""5"",""27359""
","
","
","""event"",""trial"",""time""
""fullscreenenter"",""5"",""27359""
","
",619.7600000014063,NA,49,NA,NA,3000,1,NA,NA,images/purpleplanet.jpg,images/alien4,images/alien3,images/rocket2,images/alien3,images/t.png,2,real,true,1,common,1,2020-06-06T20:53:19Z,sub33
two-step-fixation,269,986208,0.0-76.0-2.44,FALSE,TRUE,TRUE,FALSE,"""event"",""trial"",""time""
""fullscreenenter"",""5"",""27359""
","
","
","""event"",""trial"",""time""
""fullscreenenter"",""5"",""27359""
","
",NA,images/earth.jpg,NA,NA,NA,NA,NA,NA,NA,NA,NA,NA,NA,NA,NA,fixation,NA,NA,NA,NA,NA,NA,sub33
d3-animate-choice,270,988342,0.0-76.0-0.45,FALSE,TRUE,TRUE,FALSE,"""event"",""trial"",""time""
""fullscreenenter"",""5"",""27359""
","
","
","""event"",""trial"",""time""
""fullscreenenter"",""5"",""27359""
","
",129.43999999703374,NA,48,NA,NA,3000,1,NA,NA,images/earth.jpg,images/rocket1,images/rocket2,null,images/rocket1,NA,1,real,null,2,NA,NA,NA,sub33
d3-animate-choice,271,990761,0.0-76.0-1.45,FALSE,TRUE,TRUE,FALSE,"""event"",""trial"",""time""
""fullscreenenter"",""5"",""27359""
","
","
","""event"",""trial"",""time""
""fullscreenenter"",""5"",""27359""
","
",414.88000000384636,NA,49,NA,NA,3000,1,NA,NA,images/redplanet1.jpg,images/alien2,images/alien1,images/rocket1,images/alien1,images/nothing.png,2,real,true,1,common,0,2020-06-06T20:53:24Z,sub33
two-step-fixation,272,991768,0.0-76.0-2.45,FALSE,TRUE,TRUE,FALSE,"""event"",""trial"",""time""
""fullscreenenter"",""5"",""27359""
","
","
","""event"",""trial"",""time""
""fullscreenenter"",""5"",""27359""
","
",NA,images/earth.jpg,NA,NA,NA,NA,NA,NA,NA,NA,NA,NA,NA,NA,NA,fixation,NA,NA,NA,NA,NA,NA,sub33
d3-animate-choice,273,994473,0.0-76.0-0.46,FALSE,TRUE,TRUE,FALSE,"""event"",""trial"",""time""
""fullscreenenter"",""5"",""27359""
","
","
","""event"",""trial"",""time""
""fullscreenenter"",""5"",""27359""
","
",699.6900000013411,NA,48,NA,NA,3000,1,NA,NA,images/earth.jpg,images/rocket1,images/rocket2,null,images/rocket1,NA,1,real,null,2,NA,NA,NA,sub33
d3-animate-choice,274,996987,0.0-76.0-1.46,FALSE,TRUE,TRUE,FALSE,"""event"",""trial"",""time""
""fullscreenenter"",""5"",""27359""
","
","
","""event"",""trial"",""time""
""fullscreenenter"",""5"",""27359""
","
",509.91500000236556,NA,48,NA,NA,3000,1,NA,NA,images/redplanet1.jpg,images/alien2,images/alien1,images/rocket1,images/alien2,images/t.png,2,real,true,2,common,1,2020-06-06T20:53:30Z,sub33
two-step-fixation,275,997991,0.0-76.0-2.46,FALSE,TRUE,TRUE,FALSE,"""event"",""trial"",""time""
""fullscreenenter"",""5"",""27359""
","
","
","""event"",""trial"",""time""
""fullscreenenter"",""5"",""27359""
","
",NA,images/earth.jpg,NA,NA,NA,NA,NA,NA,NA,NA,NA,NA,NA,NA,NA,fixation,NA,NA,NA,NA,NA,NA,sub33
d3-animate-choice,276,1000379,0.0-76.0-0.47,FALSE,TRUE,TRUE,FALSE,"""event"",""trial"",""time""
""fullscreenenter"",""5"",""27359""
","
","
","""event"",""trial"",""time""
""fullscreenenter"",""5"",""27359""
","
",383.1549999959534,NA,48,NA,NA,3000,1,NA,NA,images/earth.jpg,images/rocket1,images/rocket2,null,images/rocket1,NA,1,real,null,2,NA,NA,NA,sub33
d3-animate-choice,277,1002770,0.0-76.0-1.47,FALSE,TRUE,TRUE,FALSE,"""event"",""trial"",""time""
""fullscreenenter"",""5"",""27359""
","
","
","""event"",""trial"",""time""
""fullscreenenter"",""5"",""27359""
","
",386.8399999992689,NA,48,NA,NA,3000,1,NA,NA,images/redplanet1.jpg,images/alien2,images/alien1,images/rocket1,images/alien2,images/t.png,2,real,true,2,common,1,2020-06-06T20:53:36Z,sub33
two-step-fixation,278,1003775,0.0-76.0-2.47,FALSE,TRUE,TRUE,FALSE,"""event"",""trial"",""time""
""fullscreenenter"",""5"",""27359""
","
","
","""event"",""trial"",""time""
""fullscreenenter"",""5"",""27359""
","
",NA,images/earth.jpg,NA,NA,NA,NA,NA,NA,NA,NA,NA,NA,NA,NA,NA,fixation,NA,NA,NA,NA,NA,NA,sub33
d3-animate-choice,279,1006107,0.0-76.0-0.48,FALSE,TRUE,TRUE,FALSE,"""event"",""trial"",""time""
""fullscreenenter"",""5"",""27359""
","
","
","""event"",""trial"",""time""
""fullscreenenter"",""5"",""27359""
","
",327.7749999980442,NA,48,NA,NA,3000,1,NA,NA,images/earth.jpg,images/rocket1,images/rocket2,null,images/rocket1,NA,1,real,null,2,NA,NA,NA,sub33
d3-animate-choice,280,1008503,0.0-76.0-1.48,FALSE,TRUE,TRUE,FALSE,"""event"",""trial"",""time""
""fullscreenenter"",""5"",""27359""
","
","
","""event"",""trial"",""time""
""fullscreenenter"",""5"",""27359""
","
",391.7250000013737,NA,48,NA,NA,3000,1,NA,NA,images/purpleplanet.jpg,images/alien4,images/alien3,images/rocket1,images/alien4,images/t.png,2,real,false,2,rare,1,2020-06-06T20:53:42Z,sub33
two-step-fixation,281,1009508,0.0-76.0-2.48,FALSE,TRUE,TRUE,FALSE,"""event"",""trial"",""time""
""fullscreenenter"",""5"",""27359""
","
","
","""event"",""trial"",""time""
""fullscreenenter"",""5"",""27359""
","
",NA,images/earth.jpg,NA,NA,NA,NA,NA,NA,NA,NA,NA,NA,NA,NA,NA,fixation,NA,NA,NA,NA,NA,NA,sub33
d3-animate-choice,282,1011864,0.0-76.0-0.49,FALSE,TRUE,TRUE,FALSE,"""event"",""trial"",""time""
""fullscreenenter"",""5"",""27359""
","
","
","""event"",""trial"",""time""
""fullscreenenter"",""5"",""27359""
","
",350.8450000009034,NA,48,NA,NA,3000,1,NA,NA,images/earth.jpg,images/rocket1,images/rocket2,null,images/rocket1,NA,1,real,null,2,NA,NA,NA,sub33
d3-animate-choice,283,1014364,0.0-76.0-1.49,FALSE,TRUE,TRUE,FALSE,"""event"",""trial"",""time""
""fullscreenenter"",""5"",""27359""
","
","
","""event"",""trial"",""time""
""fullscreenenter"",""5"",""27359""
","
