trial_type,trial_index,time_elapsed,internal_node_id,rocket_sides,red_planet_first_rocket,red_display_order,purple_display_order,interactions,blur_events,focus_events,fullscreenenter_events,fullscreenexit_events,rt,stimulus,key_press,button_pressed,success,duration,valid_pressed,rts,keys,planet_text,right_text,left_text,center_text,chosen_text,reward_text,trial_stage,practice_trial,transition_type,choice,transition,reward,timestamp,subject_id
pavlovia,0,5,0.0-0.0,TRUE,TRUE,TRUE,TRUE,"
","
","
","
","
",NA,NA,NA,NA,NA,NA,NA,NA,NA,NA,NA,NA,NA,NA,NA,NA,NA,NA,NA,NA,NA,NA,sub70
html-keyboard-response,1,944,0.0-1.0,TRUE,TRUE,TRUE,TRUE,"
","
","
","
","
",937.5,Welcome! Press the space bar to begin.,32,NA,NA,NA,NA,NA,NA,NA,NA,NA,NA,NA,NA,NA,NA,NA,NA,NA,NA,NA,sub70
audio-keyboard-response,2,4218,0.0-2.0,TRUE,TRUE,TRUE,TRUE,"
","
","
","
","
",3262,audio/beep_loop.wav,32,NA,NA,NA,NA,NA,NA,NA,NA,NA,NA,NA,NA,NA,NA,NA,NA,NA,NA,NA,sub70
audio-button-response,3,7496,0.0-3.0,TRUE,TRUE,TRUE,TRUE,"
","
","
","
","
",NaN,audio/fish.mp3,NA,1,NA,NA,NA,NA,NA,NA,NA,NA,NA,NA,NA,NA,NA,NA,NA,NA,NA,NA,sub70
audio-button-response,4,11690,0.0-4.0,TRUE,TRUE,TRUE,TRUE,"""event"",""trial"",""time""
""fullscreenenter"",""5"",""18086""
","
","
","""event"",""trial"",""time""
""fullscreenenter"",""5"",""18086""
","
",NaN,audio/tiger.mp3,NA,4,NA,NA,NA,NA,NA,NA,NA,NA,NA,NA,NA,NA,NA,NA,NA,NA,NA,NA,sub70
fullscreen,5,19045,0.0-5.0,TRUE,TRUE,TRUE,TRUE,"""event"",""trial"",""time""
""fullscreenenter"",""5"",""18086""
","
","
","""event"",""trial"",""time""
""fullscreenenter"",""5"",""18086""
","
",NA,NA,NA,NA,TRUE,NA,NA,NA,NA,NA,NA,NA,NA,NA,NA,NA,NA,NA,NA,NA,NA,NA,sub70
d3-instructions,6,33190,0.0-6.0,TRUE,TRUE,TRUE,TRUE,"""event"",""trial"",""time""
""fullscreenenter"",""5"",""18086""
","
","
","""event"",""trial"",""time""
""fullscreenenter"",""5"",""18086""
","
",NA,NA,NA,NA,NA,NA,NA,NA,NA,NA,NA,NA,NA,NA,NA,NA,NA,NA,NA,NA,NA,NA,sub70
d3-instructions,7,40937,0.0-7.0,TRUE,TRUE,TRUE,TRUE,"""event"",""trial"",""time""
""fullscreenenter"",""5"",""18086""
","
","
","""event"",""trial"",""time""
""fullscreenenter"",""5"",""18086""
","
",NA,NA,NA,NA,NA,NA,NA,NA,NA,NA,NA,NA,NA,NA,NA,NA,NA,NA,NA,NA,NA,NA,sub70
d3-instructions,8,48683,0.0-8.0,TRUE,TRUE,TRUE,TRUE,"""event"",""trial"",""time""
""fullscreenenter"",""5"",""18086""
","
","
","""event"",""trial"",""time""
""fullscreenenter"",""5"",""18086""
","
",NA,NA,NA,NA,NA,NA,NA,NA,NA,NA,NA,NA,NA,NA,NA,NA,NA,NA,NA,NA,NA,NA,sub70
d3-instructions,9,59700,0.0-9.0,TRUE,TRUE,TRUE,TRUE,"""event"",""trial"",""time""
""fullscreenenter"",""5"",""18086""
","
","
","""event"",""trial"",""time""
""fullscreenenter"",""5"",""18086""
","
",NA,NA,NA,NA,NA,NA,NA,NA,NA,NA,NA,NA,NA,NA,NA,NA,NA,NA,NA,NA,NA,NA,sub70
d3-instructions,10,78971,0.0-10.0,TRUE,TRUE,TRUE,TRUE,"""event"",""trial"",""time""
""fullscreenenter"",""5"",""18086""
","
","
","""event"",""trial"",""time""
""fullscreenenter"",""5"",""18086""
","
",NA,NA,NA,NA,NA,NA,NA,NA,NA,NA,NA,NA,NA,NA,NA,NA,NA,NA,NA,NA,NA,NA,sub70
d3-animate-choice,11,82167,0.0-11.0,TRUE,TRUE,TRUE,TRUE,"""event"",""trial"",""time""
""fullscreenenter"",""5"",""18086""
","
","
","""event"",""trial"",""time""
""fullscreenenter"",""5"",""18086""
","
",1184.399999998277,NA,48,NA,NA,3000,1,"2164.4999999844003,3095.7000000053085",4949,images/tutgreenplanet.jpg,images/tutalien1,images/tutalien2,null,images/tutalien1,NA,NA,practice,null,NA,NA,NA,NA,sub70
d3-animate-choice,12,84679,0.0-12.0,TRUE,TRUE,TRUE,TRUE,"""event"",""trial"",""time""
""fullscreenenter"",""5"",""18086""
","
","
","""event"",""trial"",""time""
""fullscreenenter"",""5"",""18086""
","
",507.59999998263083,NA,49,NA,NA,3000,1,"1152.0000000018626,1722.8999999933876,2368.499999982305",494949,images/tutgreenplanet.jpg,images/tutalien1,images/tutalien2,null,images/tutalien2,NA,NA,practice,null,NA,NA,NA,NA,sub70
d3-animate-choice,13,88280,0.0-13.0,TRUE,TRUE,TRUE,TRUE,"""event"",""trial"",""time""
""fullscreenenter"",""5"",""18086""
","
","
","""event"",""trial"",""time""
""fullscreenenter"",""5"",""18086""
","
",1595.8000000100583,NA,48,NA,NA,3000,1,NA,NA,images/tutgreenplanet.jpg,images/tutalien1,images/tutalien2,null,images/tutalien1,NA,NA,practice,null,NA,NA,NA,NA,sub70
d3-animate-choice,14,91403,0.0-14.0,TRUE,TRUE,TRUE,TRUE,"""event"",""trial"",""time""
""fullscreenenter"",""5"",""18086""
","
","
","""event"",""trial"",""time""
""fullscreenenter"",""5"",""18086""
","
",1117.7000000025146,NA,49,NA,NA,3000,1,NA,NA,images/tutgreenplanet.jpg,images/tutalien1,images/tutalien2,null,images/tutalien2,NA,NA,practice,null,NA,NA,NA,NA,sub70
d3-instructions,15,98781,0.0-15.0,TRUE,TRUE,TRUE,TRUE,"""event"",""trial"",""time""
""fullscreenenter"",""5"",""18086""
","
","
","""event"",""trial"",""time""
""fullscreenenter"",""5"",""18086""
","
",NA,NA,NA,NA,NA,NA,NA,NA,NA,NA,NA,NA,NA,NA,NA,NA,NA,NA,NA,NA,NA,NA,sub70
d3-instructions,16,107377,0.0-16.0,TRUE,TRUE,TRUE,TRUE,"""event"",""trial"",""time""
""fullscreenenter"",""5"",""18086""
","
","
","""event"",""trial"",""time""
""fullscreenenter"",""5"",""18086""
","
",NA,NA,NA,NA,NA,NA,NA,NA,NA,NA,NA,NA,NA,NA,NA,NA,NA,NA,NA,NA,NA,NA,sub70
d3-instructions,17,116587,0.0-17.0,TRUE,TRUE,TRUE,TRUE,"""event"",""trial"",""time""
""fullscreenenter"",""5"",""18086""
","
","
","""event"",""trial"",""time""
""fullscreenenter"",""5"",""18086""
","
",NA,NA,NA,NA,NA,NA,NA,NA,NA,NA,NA,NA,NA,NA,NA,NA,NA,NA,NA,NA,NA,NA,sub70
d3-instructions,18,129328,0.0-18.0,TRUE,TRUE,TRUE,TRUE,"""event"",""trial"",""time""
""fullscreenenter"",""5"",""18086""
","
","
","""event"",""trial"",""time""
""fullscreenenter"",""5"",""18086""
","
",NA,NA,NA,NA,NA,NA,NA,NA,NA,NA,NA,NA,NA,NA,NA,NA,NA,NA,NA,NA,NA,NA,sub70
d3-instructions,19,140806,0.0-19.0,TRUE,TRUE,TRUE,TRUE,"""event"",""trial"",""time""
""fullscreenenter"",""5"",""18086""
","
","
","""event"",""trial"",""time""
""fullscreenenter"",""5"",""18086""
","
",NA,NA,NA,NA,NA,NA,NA,NA,NA,NA,NA,NA,NA,NA,NA,NA,NA,NA,NA,NA,NA,NA,sub70
d3-animate-choice,20,145584,0.0-20.0,TRUE,TRUE,TRUE,TRUE,"""event"",""trial"",""time""
""fullscreenenter"",""5"",""18086""
","
","
","""event"",""trial"",""time""
""fullscreenenter"",""5"",""18086""
","
",2773.700000019744,NA,49,NA,NA,3000,1,3857.000000018161,49,images/tutyellowplanet.jpg,null,images/tutalien3,null,images/tutalien3,images/t.png,NA,practice,null,NA,NA,NA,NA,sub70
d3-animate-choice,21,148367,0.0-21.0,TRUE,TRUE,TRUE,TRUE,"""event"",""trial"",""time""
""fullscreenenter"",""5"",""18086""
","
","
","""event"",""trial"",""time""
""fullscreenenter"",""5"",""18086""
","
",778.5999999905471,NA,49,NA,NA,3000,1,"1367.3000000126194,1935.9000000113156",4949,images/tutyellowplanet.jpg,null,images/tutalien3,null,images/tutalien3,images/t.png,NA,practice,null,NA,NA,NA,NA,sub70
d3-animate-choice,22,150873,0.0-22.0,TRUE,TRUE,TRUE,TRUE,"""event"",""trial"",""time""
""fullscreenenter"",""5"",""18086""
","
","
","""event"",""trial"",""time""
""fullscreenenter"",""5"",""18086""
","
",500.9999999892898,NA,49,NA,NA,3000,1,NA,NA,images/tutyellowplanet.jpg,null,images/tutalien3,null,images/tutalien3,images/t.png,NA,practice,null,NA,NA,NA,NA,sub70
d3-animate-choice,23,153216,0.0-23.0,TRUE,TRUE,TRUE,TRUE,"""event"",""trial"",""time""
""fullscreenenter"",""5"",""18086""
","
","
","""event"",""trial"",""time""
""fullscreenenter"",""5"",""18086""
","
",339.09999998286366,NA,49,NA,NA,3000,1,NA,NA,images/tutyellowplanet.jpg,null,images/tutalien3,null,images/tutalien3,images/t.png,NA,practice,null,NA,NA,NA,NA,sub70
d3-animate-choice,24,155526,0.0-24.0,TRUE,TRUE,TRUE,TRUE,"""event"",""trial"",""time""
""fullscreenenter"",""5"",""18086""
","
","
","""event"",""trial"",""time""
""fullscreenenter"",""5"",""18086""
","
",306.7000000155531,NA,49,NA,NA,3000,1,NA,NA,images/tutyellowplanet.jpg,null,images/tutalien3,null,images/tutalien3,images/t.png,NA,practice,null,NA,NA,NA,NA,sub70
d3-animate-choice,25,157826,0.0-25.0,TRUE,TRUE,TRUE,TRUE,"""event"",""trial"",""time""
""fullscreenenter"",""5"",""18086""
","
","
","""event"",""trial"",""time""
""fullscreenenter"",""5"",""18086""
","
",294.0999999991618,NA,49,NA,NA,3000,1,NA,NA,images/tutyellowplanet.jpg,null,images/tutalien3,null,images/tutalien3,images/t.png,NA,practice,null,NA,NA,NA,NA,sub70
d3-animate-choice,26,160301,0.0-26.0,TRUE,TRUE,TRUE,TRUE,"""event"",""trial"",""time""
""fullscreenenter"",""5"",""18086""
","
","
","""event"",""trial"",""time""
""fullscreenenter"",""5"",""18086""
","
",470.1999999815598,NA,49,NA,NA,3000,1,NA,NA,images/tutyellowplanet.jpg,null,images/tutalien3,null,images/tutalien3,images/t.png,NA,practice,null,NA,NA,NA,NA,sub70
d3-animate-choice,27,162621,0.0-27.0,TRUE,TRUE,TRUE,TRUE,"""event"",""trial"",""time""
""fullscreenenter"",""5"",""18086""
","
","
","""event"",""trial"",""time""
""fullscreenenter"",""5"",""18086""
","
",315.30000001657754,NA,49,NA,NA,3000,1,NA,NA,images/tutyellowplanet.jpg,null,images/tutalien3,null,images/tutalien3,images/t.png,NA,practice,null,NA,NA,NA,NA,sub70
d3-animate-choice,28,164954,0.0-28.0,TRUE,TRUE,TRUE,TRUE,"""event"",""trial"",""time""
""fullscreenenter"",""5"",""18086""
","
","
","""event"",""trial"",""time""
""fullscreenenter"",""5"",""18086""
","
",328.1000000133645,NA,49,NA,NA,3000,1,NA,NA,images/tutyellowplanet.jpg,null,images/tutalien3,null,images/tutalien3,images/nothing.png,NA,practice,null,NA,NA,NA,NA,sub70
d3-animate-choice,29,167516,0.0-29.0,TRUE,TRUE,TRUE,TRUE,"""event"",""trial"",""time""
""fullscreenenter"",""5"",""18086""
","
","
","""event"",""trial"",""time""
""fullscreenenter"",""5"",""18086""
","
",557.4999999953434,NA,49,NA,NA,3000,1,NA,NA,images/tutyellowplanet.jpg,null,images/tutalien3,null,images/tutalien3,images/nothing.png,NA,practice,null,NA,NA,NA,NA,sub70
d3-instructions,30,174204,0.0-30.0,TRUE,TRUE,TRUE,TRUE,"""event"",""trial"",""time""
""fullscreenenter"",""5"",""18086""
","
","
","""event"",""trial"",""time""
""fullscreenenter"",""5"",""18086""
","
",NA,NA,NA,NA,NA,NA,NA,NA,NA,NA,NA,NA,NA,NA,NA,NA,NA,NA,NA,NA,NA,NA,sub70
d3-instructions,31,184431,0.0-31.0,TRUE,TRUE,TRUE,TRUE,"""event"",""trial"",""time""
""fullscreenenter"",""5"",""18086""
","
","
","""event"",""trial"",""time""
""fullscreenenter"",""5"",""18086""
","
",NA,NA,NA,NA,NA,NA,NA,NA,NA,NA,NA,NA,NA,NA,NA,NA,NA,NA,NA,NA,NA,NA,sub70
d3-instructions,32,194805,0.0-32.0,TRUE,TRUE,TRUE,TRUE,"""event"",""trial"",""time""
""fullscreenenter"",""5"",""18086""
","
","
","""event"",""trial"",""time""
""fullscreenenter"",""5"",""18086""
","
",NA,NA,NA,NA,NA,NA,NA,NA,NA,NA,NA,NA,NA,NA,NA,NA,NA,NA,NA,NA,NA,NA,sub70
d3-instructions,33,199847,0.0-33.0,TRUE,TRUE,TRUE,TRUE,"""event"",""trial"",""time""
""fullscreenenter"",""5"",""18086""
","
","
","""event"",""trial"",""time""
""fullscreenenter"",""5"",""18086""
","
",NA,NA,NA,NA,NA,NA,NA,NA,NA,NA,NA,NA,NA,NA,NA,NA,NA,NA,NA,NA,NA,NA,sub70
d3-animate-choice,34,211615,0.0-34.0,TRUE,TRUE,TRUE,TRUE,"""event"",""trial"",""time""
""fullscreenenter"",""5"",""18086""
","
","
","""event"",""trial"",""time""
""fullscreenenter"",""5"",""18086""
","
",9763.100000011036,NA,49,NA,NA,3000,1,NA,NA,images/tutgreenplanet.jpg,images/tutalien1,images/tutalien2,null,images/tutalien2,images/t.png,NA,practice,null,NA,NA,NA,NA,sub70
d3-animate-choice,35,217341,0.0-35.0,TRUE,TRUE,TRUE,TRUE,"""event"",""trial"",""time""
""fullscreenenter"",""5"",""18086""
","
","
","""event"",""trial"",""time""
""fullscreenenter"",""5"",""18086""
","
",3720.899999985704,NA,48,NA,NA,3000,1,NA,NA,images/tutgreenplanet.jpg,images/tutalien1,images/tutalien2,null,images/tutalien1,images/t.png,NA,practice,null,NA,NA,NA,NA,sub70
d3-animate-choice,36,220208,0.0-36.0,TRUE,TRUE,TRUE,TRUE,"""event"",""trial"",""time""
""fullscreenenter"",""5"",""18086""
","
","
","""event"",""trial"",""time""
""fullscreenenter"",""5"",""18086""
","
",861.2999999895692,NA,49,NA,NA,3000,1,NA,NA,images/tutgreenplanet.jpg,images/tutalien1,images/tutalien2,null,images/tutalien2,images/t.png,NA,practice,null,NA,NA,NA,NA,sub70
d3-animate-choice,37,222890,0.0-37.0,TRUE,TRUE,TRUE,TRUE,"""event"",""trial"",""time""
""fullscreenenter"",""5"",""18086""
","
","
","""event"",""trial"",""time""
""fullscreenenter"",""5"",""18086""
","
",676.7000000108965,NA,49,NA,NA,3000,1,NA,NA,images/tutgreenplanet.jpg,images/tutalien1,images/tutalien2,null,images/tutalien2,images/t.png,NA,practice,null,NA,NA,NA,NA,sub70
d3-animate-choice,38,225884,0.0-38.0,TRUE,TRUE,TRUE,TRUE,"""event"",""trial"",""time""
""fullscreenenter"",""5"",""18086""
","
","
","""event"",""trial"",""time""
""fullscreenenter"",""5"",""18086""
","
",988.4999999776483,NA,48,NA,NA,3000,1,NA,NA,images/tutgreenplanet.jpg,images/tutalien1,images/tutalien2,null,images/tutalien1,images/nothing.png,NA,practice,null,NA,NA,NA,NA,sub70
d3-animate-choice,39,228247,0.0-39.0,TRUE,TRUE,TRUE,TRUE,"""event"",""trial"",""time""
""fullscreenenter"",""5"",""18086""
","
","
","""event"",""trial"",""time""
""fullscreenenter"",""5"",""18086""
","
",357.90000000270084,NA,49,NA,NA,3000,1,NA,NA,images/tutgreenplanet.jpg,images/tutalien1,images/tutalien2,null,images/tutalien2,images/t.png,NA,practice,null,NA,NA,NA,NA,sub70
d3-animate-choice,40,231144,0.0-40.0,TRUE,TRUE,TRUE,TRUE,"""event"",""trial"",""time""
""fullscreenenter"",""5"",""18086""
","
","
","""event"",""trial"",""time""
""fullscreenenter"",""5"",""18086""
","
",892.80000000144355,NA,49,NA,NA,3000,1,NA,NA,images/tutgreenplanet.jpg,images/tutalien1,images/tutalien2,null,images/tutalien2,images/t.png,NA,practice,null,NA,NA,NA,NA,sub70
d3-animate-choice,41,233868,0.0-41.0,TRUE,TRUE,TRUE,TRUE,"""event"",""trial"",""time""
""fullscreenenter"",""5"",""18086""
","
","
","""event"",""trial"",""time""
""fullscreenenter"",""5"",""18086""
","
",719.9000000255182,NA,48,NA,NA,3000,1,NA,NA,images/tutgreenplanet.jpg,images/tutalien1,images/tutalien2,null,images/tutalien1,images/nothing.png,NA,practice,null,NA,NA,NA,NA,sub70
d3-animate-choice,42,236233,0.0-42.0,TRUE,TRUE,TRUE,TRUE,"""event"",""trial"",""time""
""fullscreenenter"",""5"",""18086""
","
","
","""event"",""trial"",""time""
""fullscreenenter"",""5"",""18086""
","
",357.69999999320135,NA,49,NA,NA,3000,1,NA,NA,images/tutgreenplanet.jpg,images/tutalien1,images/tutalien2,null,images/tutalien2,images/t.png,NA,practice,null,NA,NA,NA,NA,sub70
d3-animate-choice,43,238671,0.0-43.0,TRUE,TRUE,TRUE,TRUE,"""event"",""trial"",""time""
""fullscreenenter"",""5"",""18086""
","
","
","""event"",""trial"",""time""
""fullscreenenter"",""5"",""18086""
","
",431.69999998644926,NA,49,NA,NA,3000,1,NA,NA,images/tutgreenplanet.jpg,images/tutalien1,images/tutalien2,null,images/tutalien2,images/t.png,NA,practice,null,NA,NA,NA,NA,sub70
d3-instructions,44,250281,0.0-44.0,TRUE,TRUE,TRUE,TRUE,"""event"",""trial"",""time""
""fullscreenenter"",""5"",""18086""
","
","
","""event"",""trial"",""time""
""fullscreenenter"",""5"",""18086""
","
",NA,NA,NA,NA,NA,NA,NA,NA,NA,NA,NA,NA,NA,NA,NA,NA,NA,NA,NA,NA,NA,NA,sub70
d3-instructions,45,256009,0.0-45.0,TRUE,TRUE,TRUE,TRUE,"""event"",""trial"",""time""
""fullscreenenter"",""5"",""18086""
","
","
","""event"",""trial"",""time""
""fullscreenenter"",""5"",""18086""
","
",NA,NA,NA,NA,NA,NA,NA,NA,NA,NA,NA,NA,NA,NA,NA,NA,NA,NA,NA,NA,NA,NA,sub70
d3-instructions,46,260270,0.0-46.0,TRUE,TRUE,TRUE,TRUE,"""event"",""trial"",""time""
""fullscreenenter"",""5"",""18086""
","
","
","""event"",""trial"",""time""
""fullscreenenter"",""5"",""18086""
","
",NA,NA,NA,NA,NA,NA,NA,NA,NA,NA,NA,NA,NA,NA,NA,NA,NA,NA,NA,NA,NA,NA,sub70
d3-instructions,47,276196,0.0-47.0,TRUE,TRUE,TRUE,TRUE,"""event"",""trial"",""time""
""fullscreenenter"",""5"",""18086""
","
","
","""event"",""trial"",""time""
""fullscreenenter"",""5"",""18086""
","
",NA,NA,NA,NA,NA,NA,NA,NA,NA,NA,NA,NA,NA,NA,NA,NA,NA,NA,NA,NA,NA,NA,sub70
d3-instructions,48,282959,0.0-48.0,TRUE,TRUE,TRUE,TRUE,"""event"",""trial"",""time""
""fullscreenenter"",""5"",""18086""
","
","
","""event"",""trial"",""time""
""fullscreenenter"",""5"",""18086""
","
",NA,NA,NA,NA,NA,NA,NA,NA,NA,NA,NA,NA,NA,NA,NA,NA,NA,NA,NA,NA,NA,NA,sub70
d3-instructions,49,288854,0.0-49.0,TRUE,TRUE,TRUE,TRUE,"""event"",""trial"",""time""
""fullscreenenter"",""5"",""18086""
","
","
","""event"",""trial"",""time""
""fullscreenenter"",""5"",""18086""
","
",NA,NA,NA,NA,NA,NA,NA,NA,NA,NA,NA,NA,NA,NA,NA,NA,NA,NA,NA,NA,NA,NA,sub70
d3-instructions,50,294600,0.0-50.0,TRUE,TRUE,TRUE,TRUE,"""event"",""trial"",""time""
""fullscreenenter"",""5"",""18086""
","
","
","""event"",""trial"",""time""
""fullscreenenter"",""5"",""18086""
","
",NA,NA,NA,NA,NA,NA,NA,NA,NA,NA,NA,NA,NA,NA,NA,NA,NA,NA,NA,NA,NA,NA,sub70
d3-instructions,51,296971,0.0-51.0,TRUE,TRUE,TRUE,TRUE,"""event"",""trial"",""time""
""fullscreenenter"",""5"",""18086""
","
","
","""event"",""trial"",""time""
""fullscreenenter"",""5"",""18086""
","
",NA,NA,NA,NA,NA,NA,NA,NA,NA,NA,NA,NA,NA,NA,NA,NA,NA,NA,NA,NA,NA,NA,sub70
d3-instructions,52,299350,0.0-52.0,TRUE,TRUE,TRUE,TRUE,"""event"",""trial"",""time""
""fullscreenenter"",""5"",""18086""
","
","
","""event"",""trial"",""time""
""fullscreenenter"",""5"",""18086""
","
",NA,NA,NA,NA,NA,NA,NA,NA,NA,NA,NA,NA,NA,NA,NA,NA,NA,NA,NA,NA,NA,NA,sub70
d3-instructions,53,308864,0.0-53.0,TRUE,TRUE,TRUE,TRUE,"""event"",""trial"",""time""
""fullscreenenter"",""5"",""18086""
","
","
","""event"",""trial"",""time""
""fullscreenenter"",""5"",""18086""
","
",NA,NA,NA,NA,NA,NA,NA,NA,NA,NA,NA,NA,NA,NA,NA,NA,NA,NA,NA,NA,NA,NA,sub70
d3-instructions,54,321359,0.0-54.0,TRUE,TRUE,TRUE,TRUE,"""event"",""trial"",""time""
""fullscreenenter"",""5"",""18086""
","
","
","""event"",""trial"",""time""
""fullscreenenter"",""5"",""18086""
","
",NA,NA,NA,NA,NA,NA,NA,NA,NA,NA,NA,NA,NA,NA,NA,NA,NA,NA,NA,NA,NA,NA,sub70
d3-instructions,55,327190,0.0-55.0,TRUE,TRUE,TRUE,TRUE,"""event"",""trial"",""time""
""fullscreenenter"",""5"",""18086""
","
","
","""event"",""trial"",""time""
""fullscreenenter"",""5"",""18086""
","
",NA,NA,NA,NA,NA,NA,NA,NA,NA,NA,NA,NA,NA,NA,NA,NA,NA,NA,NA,NA,NA,NA,sub70
d3-instructions,56,334609,0.0-56.0,TRUE,TRUE,TRUE,TRUE,"""event"",""trial"",""time""
""fullscreenenter"",""5"",""18086""
","
","
","""event"",""trial"",""time""
""fullscreenenter"",""5"",""18086""
","
",NA,NA,NA,NA,NA,NA,NA,NA,NA,NA,NA,NA,NA,NA,NA,NA,NA,NA,NA,NA,NA,NA,sub70
d3-instructions,57,345324,0.0-57.0,TRUE,TRUE,TRUE,TRUE,"""event"",""trial"",""time""
""fullscreenenter"",""5"",""18086""
","
","
","""event"",""trial"",""time""
""fullscreenenter"",""5"",""18086""
","
",NA,NA,NA,NA,NA,NA,NA,NA,NA,NA,NA,NA,NA,NA,NA,NA,NA,NA,NA,NA,NA,NA,sub70
d3-instructions,58,356725,0.0-58.0,TRUE,TRUE,TRUE,TRUE,"""event"",""trial"",""time""
""fullscreenenter"",""5"",""18086""
","
","
","""event"",""trial"",""time""
""fullscreenenter"",""5"",""18086""
","
",NA,NA,NA,NA,NA,NA,NA,NA,NA,NA,NA,NA,NA,NA,NA,NA,NA,NA,NA,NA,NA,NA,sub70
d3-instructions,59,360790,0.0-59.0,TRUE,TRUE,TRUE,TRUE,"""event"",""trial"",""time""
""fullscreenenter"",""5"",""18086""
","
","
","""event"",""trial"",""time""
""fullscreenenter"",""5"",""18086""
","
",NA,NA,NA,NA,NA,NA,NA,NA,NA,NA,NA,NA,NA,NA,NA,NA,NA,NA,NA,NA,NA,NA,sub70
d3-instructions,60,371716,0.0-60.0,TRUE,TRUE,TRUE,TRUE,"""event"",""trial"",""time""
""fullscreenenter"",""5"",""18086""
","
","
","""event"",""trial"",""time""
""fullscreenenter"",""5"",""18086""
","
",NA,NA,NA,NA,NA,NA,NA,NA,NA,NA,NA,NA,NA,NA,NA,NA,NA,NA,NA,NA,NA,NA,sub70
d3-animate-choice,61,374735,0.0-61.0-0.0,TRUE,TRUE,TRUE,TRUE,"""event"",""trial"",""time""
""fullscreenenter"",""5"",""18086""
","
","
","""event"",""trial"",""time""
""fullscreenenter"",""5"",""18086""
","
",1013.7999999860767,NA,48,NA,NA,3000,1,NA,NA,images/earth.jpg,images/tutrocket1,images/tutrocket2,null,images/tutrocket1,NA,1,practice,null,2,NA,NA,NA,sub70
d3-animate-choice,62,378291,0.0-61.0-1.0,TRUE,TRUE,TRUE,TRUE,"""event"",""trial"",""time""
""fullscreenenter"",""5"",""18086""
","
","
","""event"",""trial"",""time""
""fullscreenenter"",""5"",""18086""
","
",1544.000000023516,NA,49,NA,NA,3000,1,1777.700000006007,49,images/tutyellowplanet.jpg,images/tutalien4,images/tutalien3,images/tutrocket1,images/tutalien3,images/nothing.png,2,practice,false,1,rare,0,2020-06-16T19:54:21Z,sub70
two-step-fixation,63,379295,0.0-61.0-2.0,TRUE,TRUE,TRUE,TRUE,"""event"",""trial"",""time""
""fullscreenenter"",""5"",""18086""
","
","
","""event"",""trial"",""time""
""fullscreenenter"",""5"",""18086""
","
",NA,images/earth.jpg,NA,NA,NA,NA,NA,NA,NA,NA,NA,NA,NA,NA,NA,fixation,NA,NA,NA,NA,NA,NA,sub70
d3-animate-choice,64,382789,0.0-61.0-0.1,TRUE,TRUE,TRUE,TRUE,"""event"",""trial"",""time""
""fullscreenenter"",""5"",""18086""
","
","
","""event"",""trial"",""time""
""fullscreenenter"",""5"",""18086""
","
",1487.8999999782536,NA,49,NA,NA,3000,1,NA,NA,images/earth.jpg,images/tutrocket1,images/tutrocket2,null,images/tutrocket2,NA,1,practice,null,1,NA,NA,NA,sub70
d3-animate-choice,65,385352,0.0-61.0-1.1,TRUE,TRUE,TRUE,TRUE,"""event"",""trial"",""time""
""fullscreenenter"",""5"",""18086""
","
","
","""event"",""trial"",""time""
""fullscreenenter"",""5"",""18086""
","
",558.6999999941327,NA,48,NA,NA,3000,1,NA,NA,images/tutgreenplanet.jpg,images/tutalien2,images/tutalien1,images/tutrocket2,images/tutalien2,images/nothing.png,2,practice,false,2,rare,0,2020-06-16T19:54:28Z,sub70
two-step-fixation,66,386356,0.0-61.0-2.1,TRUE,TRUE,TRUE,TRUE,"""event"",""trial"",""time""
""fullscreenenter"",""5"",""18086""
","
","
","""event"",""trial"",""time""
""fullscreenenter"",""5"",""18086""
","
",NA,images/earth.jpg,NA,NA,NA,NA,NA,NA,NA,NA,NA,NA,NA,NA,NA,fixation,NA,NA,NA,NA,NA,NA,sub70
d3-animate-choice,67,388755,0.0-61.0-0.2,TRUE,TRUE,TRUE,TRUE,"""event"",""trial"",""time""
""fullscreenenter"",""5"",""18086""
","
","
","""event"",""trial"",""time""
""fullscreenenter"",""5"",""18086""
","
",393.8999999954831,NA,49,NA,NA,3000,1,NA,NA,images/earth.jpg,images/tutrocket1,images/tutrocket2,null,images/tutrocket2,NA,1,practice,null,1,NA,NA,NA,sub70
d3-animate-choice,68,391668,0.0-61.0-1.2,TRUE,TRUE,TRUE,TRUE,"""event"",""trial"",""time""
""fullscreenenter"",""5"",""18086""
","
","
","""event"",""trial"",""time""
""fullscreenenter"",""5"",""18086""
","
",908.6999999999534,NA,48,NA,NA,3000,1,NA,NA,images/tutyellowplanet.jpg,images/tutalien4,images/tutalien3,images/tutrocket2,images/tutalien4,images/t.png,2,practice,true,2,common,1,2020-06-16T19:54:35Z,sub70
two-step-fixation,69,392671,0.0-61.0-2.2,TRUE,TRUE,TRUE,TRUE,"""event"",""trial"",""time""
""fullscreenenter"",""5"",""18086""
","
","
","""event"",""trial"",""time""
""fullscreenenter"",""5"",""18086""
","
",NA,images/earth.jpg,NA,NA,NA,NA,NA,NA,NA,NA,NA,NA,NA,NA,NA,fixation,NA,NA,NA,NA,NA,NA,sub70
d3-animate-choice,70,395146,0.0-61.0-0.3,TRUE,TRUE,TRUE,TRUE,"""event"",""trial"",""time""
""fullscreenenter"",""5"",""18086""
","
","
","""event"",""trial"",""time""
""fullscreenenter"",""5"",""18086""
","
",468.30000000773,NA,49,NA,NA,3000,1,NA,NA,images/earth.jpg,images/tutrocket1,images/tutrocket2,null,images/tutrocket2,NA,1,practice,null,1,NA,NA,NA,sub70
d3-animate-choice,71,397537,0.0-61.0-1.3,TRUE,TRUE,TRUE,TRUE,"""event"",""trial"",""time""
""fullscreenenter"",""5"",""18086""
","
","
","""event"",""trial"",""time""
""fullscreenenter"",""5"",""18086""
","
",386.400000017602,NA,48,NA,NA,3000,1,NA,NA,images/tutyellowplanet.jpg,images/tutalien4,images/tutalien3,images/tutrocket2,images/tutalien4,images/t.png,2,practice,true,2,common,1,2020-06-16T19:54:41Z,sub70
two-step-fixation,72,398540,0.0-61.0-2.3,TRUE,TRUE,TRUE,TRUE,"""event"",""trial"",""time""
""fullscreenenter"",""5"",""18086""
","
","
","""event"",""trial"",""time""
""fullscreenenter"",""5"",""18086""
","
",NA,images/earth.jpg,NA,NA,NA,NA,NA,NA,NA,NA,NA,NA,NA,NA,NA,fixation,NA,NA,NA,NA,NA,NA,sub70
d3-animate-choice,73,400870,0.0-61.0-0.4,TRUE,TRUE,TRUE,TRUE,"""event"",""trial"",""time""
""fullscreenenter"",""5"",""18086""
","
","
","""event"",""trial"",""time""
""fullscreenenter"",""5"",""18086""
","
",324.6999999973923,NA,49,NA,NA,3000,1,NA,NA,images/earth.jpg,images/tutrocket1,images/tutrocket2,null,images/tutrocket2,NA,1,practice,null,1,NA,NA,NA,sub70
d3-animate-choice,74,403225,0.0-61.0-1.4,TRUE,TRUE,TRUE,TRUE,"""event"",""trial"",""time""
""fullscreenenter"",""5"",""18086""
","
","
","""event"",""trial"",""time""
""fullscreenenter"",""5"",""18086""
","
",349.19999999692664,NA,48,NA,NA,3000,1,NA,NA,images/tutgreenplanet.jpg,images/tutalien2,images/tutalien1,images/tutrocket2,images/tutalien2,images/t.png,2,practice,false,2,rare,1,2020-06-16T19:54:46Z,sub70
two-step-fixation,75,404228,0.0-61.0-2.4,TRUE,TRUE,TRUE,TRUE,"""event"",""trial"",""time""
""fullscreenenter"",""5"",""18086""
","
","
","""event"",""trial"",""time""
""fullscreenenter"",""5"",""18086""
","
",NA,images/earth.jpg,NA,NA,NA,NA,NA,NA,NA,NA,NA,NA,NA,NA,NA,fixation,NA,NA,NA,NA,NA,NA,sub70
d3-animate-choice,76,406515,0.0-61.0-0.5,TRUE,TRUE,TRUE,TRUE,"""event"",""trial"",""time""
""fullscreenenter"",""5"",""18086""
","
","
","""event"",""trial"",""time""
""fullscreenenter"",""5"",""18086""
","
",282.3999999964144,NA,49,NA,NA,3000,1,NA,NA,images/earth.jpg,images/tutrocket1,images/tutrocket2,null,images/tutrocket2,NA,1,practice,null,1,NA,NA,NA,sub70
d3-animate-choice,77,408858,0.0-61.0-1.5,TRUE,TRUE,TRUE,TRUE,"""event"",""trial"",""time""
""fullscreenenter"",""5"",""18086""
","
","
","""event"",""trial"",""time""
""fullscreenenter"",""5"",""18086""
","
",339.00000000721775,NA,48,NA,NA,3000,1,NA,NA,images/tutgreenplanet.jpg,images/tutalien2,images/tutalien1,images/tutrocket2,images/tutalien2,images/nothing.png,2,practice,false,2,rare,0,2020-06-16T19:54:52Z,sub70
two-step-fixation,78,409862,0.0-61.0-2.5,TRUE,TRUE,TRUE,TRUE,"""event"",""trial"",""time""
""fullscreenenter"",""5"",""18086""
","
","
","""event"",""trial"",""time""
""fullscreenenter"",""5"",""18086""
","
",NA,images/earth.jpg,NA,NA,NA,NA,NA,NA,NA,NA,NA,NA,NA,NA,NA,fixation,NA,NA,NA,NA,NA,NA,sub70
d3-animate-choice,79,412344,0.0-61.0-0.6,TRUE,TRUE,TRUE,TRUE,"""event"",""trial"",""time""
""fullscreenenter"",""5"",""18086""
","
","
","""event"",""trial"",""time""
""fullscreenenter"",""5"",""18086""
","
",478.49999999743886,NA,48,NA,NA,3000,1,NA,NA,images/earth.jpg,images/tutrocket1,images/tutrocket2,null,images/tutrocket1,NA,1,practice,null,2,NA,NA,NA,sub70
d3-animate-choice,80,414781,0.0-61.0-1.6,TRUE,TRUE,TRUE,TRUE,"""event"",""trial"",""time""
""fullscreenenter"",""5"",""18086""
","
","
","""event"",""trial"",""time""
""fullscreenenter"",""5"",""18086""
","
",430.8000000019092,NA,49,NA,NA,3000,1,NA,NA,images/tutgreenplanet.jpg,images/tutalien2,images/tutalien1,images/tutrocket1,images/tutalien1,images/nothing.png,2,practice,true,1,common,0,2020-06-16T19:54:58Z,sub70
two-step-fixation,81,415783,0.0-61.0-2.6,TRUE,TRUE,TRUE,TRUE,"""event"",""trial"",""time""
""fullscreenenter"",""5"",""18086""
","
","
","""event"",""trial"",""time""
""fullscreenenter"",""5"",""18086""
","
",NA,images/earth.jpg,NA,NA,NA,NA,NA,NA,NA,NA,NA,NA,NA,NA,NA,fixation,NA,NA,NA,NA,NA,NA,sub70
d3-animate-choice,82,418197,0.0-61.0-0.7,TRUE,TRUE,TRUE,TRUE,"""event"",""trial"",""time""
""fullscreenenter"",""5"",""18086""
","
","
","""event"",""trial"",""time""
""fullscreenenter"",""5"",""18086""
","
",408.1000000005588,NA,48,NA,NA,3000,1,NA,NA,images/earth.jpg,images/tutrocket1,images/tutrocket2,null,images/tutrocket1,NA,1,practice,null,2,NA,NA,NA,sub70
d3-animate-choice,83,420458,0.0-61.0-1.7,TRUE,TRUE,TRUE,TRUE,"""event"",""trial"",""time""
""fullscreenenter"",""5"",""18086""
","
","
","""event"",""trial"",""time""
""fullscreenenter"",""5"",""18086""
","
",255.60000000405125,NA,48,NA,NA,3000,1,NA,NA,images/tutyellowplanet.jpg,images/tutalien4,images/tutalien3,images/tutrocket1,images/tutalien4,images/nothing.png,2,practice,false,2,rare,0,2020-06-16T19:55:04Z,sub70
two-step-fixation,84,421462,0.0-61.0-2.7,TRUE,TRUE,TRUE,TRUE,"""event"",""trial"",""time""
""fullscreenenter"",""5"",""18086""
","
","
","""event"",""trial"",""time""
""fullscreenenter"",""5"",""18086""
","
",NA,images/earth.jpg,NA,NA,NA,NA,NA,NA,NA,NA,NA,NA,NA,NA,NA,fixation,NA,NA,NA,NA,NA,NA,sub70
d3-animate-choice,85,423702,0.0-61.0-0.8,TRUE,TRUE,TRUE,TRUE,"""event"",""trial"",""time""
""fullscreenenter"",""5"",""18086""
","
","
","""event"",""trial"",""time""
""fullscreenenter"",""5"",""18086""
","
",235.40000000502914,NA,49,NA,NA,3000,1,NA,NA,images/earth.jpg,images/tutrocket1,images/tutrocket2,null,images/tutrocket2,NA,1,practice,null,1,NA,NA,NA,sub70
d3-animate-choice,86,426028,0.0-61.0-1.8,TRUE,TRUE,TRUE,TRUE,"""event"",""trial"",""time""
""fullscreenenter"",""5"",""18086""
","
","
","""event"",""trial"",""time""
""fullscreenenter"",""5"",""18086""
","
",319.9000000022352,NA,49,NA,NA,3000,1,NA,NA,images/tutyellowplanet.jpg,images/tutalien4,images/tutalien3,images/tutrocket2,images/tutalien3,images/t.png,2,practice,true,1,common,1,2020-06-16T19:55:09Z,sub70
two-step-fixation,87,427030,0.0-61.0-2.8,TRUE,TRUE,TRUE,TRUE,"""event"",""trial"",""time""
""fullscreenenter"",""5"",""18086""
","
","
","""event"",""trial"",""time""
""fullscreenenter"",""5"",""18086""
","
",NA,images/earth.jpg,NA,NA,NA,NA,NA,NA,NA,NA,NA,NA,NA,NA,NA,fixation,NA,NA,NA,NA,NA,NA,sub70
d3-animate-choice,88,429283,0.0-61.0-0.9,TRUE,TRUE,TRUE,TRUE,"""event"",""trial"",""time""
""fullscreenenter"",""5"",""18086""
","
","
","""event"",""trial"",""time""
""fullscreenenter"",""5"",""18086""
","
",247.80000001192093,NA,49,NA,NA,3000,1,NA,NA,images/earth.jpg,images/tutrocket1,images/tutrocket2,null,images/tutrocket2,NA,1,practice,null,1,NA,NA,NA,sub70
d3-animate-choice,89,431566,0.0-61.0-1.9,TRUE,TRUE,TRUE,TRUE,"""event"",""trial"",""time""
""fullscreenenter"",""5"",""18086""
","
","
","""event"",""trial"",""time""
""fullscreenenter"",""5"",""18086""
","
",278.50000001490116,NA,49,NA,NA,3000,1,NA,NA,images/tutyellowplanet.jpg,images/tutalien4,images/tutalien3,images/tutrocket2,images/tutalien3,images/nothing.png,2,practice,true,1,common,0,2020-06-16T19:55:15Z,sub70
two-step-fixation,90,432570,0.0-61.0-2.9,TRUE,TRUE,TRUE,TRUE,"""event"",""trial"",""time""
""fullscreenenter"",""5"",""18086""
","
","
","""event"",""trial"",""time""
""fullscreenenter"",""5"",""18086""
","
",NA,images/earth.jpg,NA,NA,NA,NA,NA,NA,NA,NA,NA,NA,NA,NA,NA,fixation,NA,NA,NA,NA,NA,NA,sub70
d3-animate-choice,91,434842,0.0-61.0-0.10,TRUE,TRUE,TRUE,TRUE,"""event"",""trial"",""time""
""fullscreenenter"",""5"",""18086""
","
","
","""event"",""trial"",""time""
""fullscreenenter"",""5"",""18086""
","
",266.9999999925494,NA,49,NA,NA,3000,1,NA,NA,images/earth.jpg,images/tutrocket1,images/tutrocket2,null,images/tutrocket2,NA,1,practice,null,1,NA,NA,NA,sub70
d3-animate-choice,92,437380,0.0-61.0-1.10,TRUE,TRUE,TRUE,TRUE,"""event"",""trial"",""time""
""fullscreenenter"",""5"",""18086""
","
","
","""event"",""trial"",""time""
""fullscreenenter"",""5"",""18086""
","
",531.9000000017695,NA,48,NA,NA,3000,1,NA,NA,images/tutyellowplanet.jpg,images/tutalien4,images/tutalien3,images/tutrocket2,images/tutalien4,images/t.png,2,practice,true,2,common,1,2020-06-16T19:55:20Z,sub70
two-step-fixation,93,438382,0.0-61.0-2.10,TRUE,TRUE,TRUE,TRUE,"""event"",""trial"",""time""
""fullscreenenter"",""5"",""18086""
","
","
","""event"",""trial"",""time""
""fullscreenenter"",""5"",""18086""
","
",NA,images/earth.jpg,NA,NA,NA,NA,NA,NA,NA,NA,NA,NA,NA,NA,NA,fixation,NA,NA,NA,NA,NA,NA,sub70
d3-animate-choice,94,440690,0.0-61.0-0.11,TRUE,TRUE,TRUE,TRUE,"""event"",""trial"",""time""
""fullscreenenter"",""5"",""18086""
","
","
","""event"",""trial"",""time""
""fullscreenenter"",""5"",""18086""
","
",305.90000000665896,NA,49,NA,NA,3000,1,NA,NA,images/earth.jpg,images/tutrocket1,images/tutrocket2,null,images/tutrocket2,NA,1,practice,null,1,NA,NA,NA,sub70
d3-animate-choice,95,443140,0.0-61.0-1.11,TRUE,TRUE,TRUE,TRUE,"""event"",""trial"",""time""
""fullscreenenter"",""5"",""18086""
","
","
","""event"",""trial"",""time""
""fullscreenenter"",""5"",""18086""
","
",443.80000000819564,NA,48,NA,NA,3000,1,NA,NA,images/tutyellowplanet.jpg,images/tutalien4,images/tutalien3,images/tutrocket2,images/tutalien4,images/t.png,2,practice,true,2,common,1,2020-06-16T19:55:26Z,sub70
two-step-fixation,96,444142,0.0-61.0-2.11,TRUE,TRUE,TRUE,TRUE,"""event"",""trial"",""time""
""fullscreenenter"",""5"",""18086""
","
","
","""event"",""trial"",""time""
""fullscreenenter"",""5"",""18086""
","
",NA,images/earth.jpg,NA,NA,NA,NA,NA,NA,NA,NA,NA,NA,NA,NA,NA,fixation,NA,NA,NA,NA,NA,NA,sub70
d3-animate-choice,97,446759,0.0-61.0-0.12,TRUE,TRUE,TRUE,TRUE,"""event"",""trial"",""time""
""fullscreenenter"",""5"",""18086""
","
","
","""event"",""trial"",""time""
""fullscreenenter"",""5"",""18086""
","
",612.2000000032131,NA,49,NA,NA,3000,1,NA,NA,images/earth.jpg,images/tutrocket1,images/tutrocket2,null,images/tutrocket2,NA,1,practice,null,1,NA,NA,NA,sub70
d3-animate-choice,98,449099,0.0-61.0-1.12,TRUE,TRUE,TRUE,TRUE,"""event"",""trial"",""time""
""fullscreenenter"",""5"",""18086""
","
","
","""event"",""trial"",""time""
""fullscreenenter"",""5"",""18086""
","
",336.59999998053536,NA,48,NA,NA,3000,1,NA,NA,images/tutyellowplanet.jpg,images/tutalien4,images/tutalien3,images/tutrocket2,images/tutalien4,images/nothing.png,2,practice,true,2,common,0,2020-06-16T19:55:32Z,sub70
two-step-fixation,99,450102,0.0-61.0-2.12,TRUE,TRUE,TRUE,TRUE,"""event"",""trial"",""time""
""fullscreenenter"",""5"",""18086""
","
","
","""event"",""trial"",""time""
""fullscreenenter"",""5"",""18086""
","
",NA,images/earth.jpg,NA,NA,NA,NA,NA,NA,NA,NA,NA,NA,NA,NA,NA,fixation,NA,NA,NA,NA,NA,NA,sub70
d3-animate-choice,100,452158,0.0-61.0-0.13,TRUE,TRUE,TRUE,TRUE,"""event"",""trial"",""time""
""fullscreenenter"",""5"",""18086""
","
","
","""event"",""trial"",""time""
""fullscreenenter"",""5"",""18086""
","
",51.700000010896474,NA,48,NA,NA,3000,1,NA,NA,images/earth.jpg,images/tutrocket1,images/tutrocket2,null,images/tutrocket1,NA,1,practice,null,2,NA,NA,NA,sub70
d3-animate-choice,101,454473,0.0-61.0-1.13,TRUE,TRUE,TRUE,TRUE,"""event"",""trial"",""time""
""fullscreenenter"",""5"",""18086""
","
","
","""event"",""trial"",""time""
""fullscreenenter"",""5"",""18086""
","
",309.9999999976717,NA,48,NA,NA,3000,1,NA,NA,images/tutgreenplanet.jpg,images/tutalien2,images/tutalien1,images/tutrocket1,images/tutalien2,images/nothing.png,2,practice,true,2,common,0,2020-06-16T19:55:38Z,sub70
two-step-fixation,102,455475,0.0-61.0-2.13,TRUE,TRUE,TRUE,TRUE,"""event"",""trial"",""time""
""fullscreenenter"",""5"",""18086""
","
","
","""event"",""trial"",""time""
""fullscreenenter"",""5"",""18086""
","
",NA,images/earth.jpg,NA,NA,NA,NA,NA,NA,NA,NA,NA,NA,NA,NA,NA,fixation,NA,NA,NA,NA,NA,NA,sub70
d3-animate-choice,103,457849,0.0-61.0-0.14,TRUE,TRUE,TRUE,TRUE,"""event"",""trial"",""time""
""fullscreenenter"",""5"",""18086""
","
","
","""event"",""trial"",""time""
""fullscreenenter"",""5"",""18086""
","
",368.40000000665896,NA,48,NA,NA,3000,1,NA,NA,images/earth.jpg,images/tutrocket1,images/tutrocket2,null,images/tutrocket1,NA,1,practice,null,2,NA,NA,NA,sub70
d3-animate-choice,104,460175,0.0-61.0-1.14,TRUE,TRUE,TRUE,TRUE,"""event"",""trial"",""time""
""fullscreenenter"",""5"",""18086""
","
","
","""event"",""trial"",""time""
""fullscreenenter"",""5"",""18086""
","
",321.4999999909196,NA,49,NA,NA,3000,1,NA,NA,images/tutgreenplanet.jpg,images/tutalien2,images/tutalien1,images/tutrocket1,images/tutalien1,images/nothing.png,2,practice,true,1,common,0,2020-06-16T19:55:43Z,sub70
two-step-fixation,105,461177,0.0-61.0-2.14,TRUE,TRUE,TRUE,TRUE,"""event"",""trial"",""time""
""fullscreenenter"",""5"",""18086""
","
","
","""event"",""trial"",""time""
""fullscreenenter"",""5"",""18086""
","
",NA,images/earth.jpg,NA,NA,NA,NA,NA,NA,NA,NA,NA,NA,NA,NA,NA,fixation,NA,NA,NA,NA,NA,NA,sub70
d3-animate-choice,106,463492,0.0-61.0-0.15,TRUE,TRUE,TRUE,TRUE,"""event"",""trial"",""time""
""fullscreenenter"",""5"",""18086""
","
","
","""event"",""trial"",""time""
""fullscreenenter"",""5"",""18086""
","
",309.60000000777654,NA,49,NA,NA,3000,1,NA,NA,images/earth.jpg,images/tutrocket1,images/tutrocket2,null,images/tutrocket2,NA,1,practice,null,1,NA,NA,NA,sub70
d3-animate-choice,107,466219,0.0-61.0-1.15,TRUE,TRUE,TRUE,TRUE,"""event"",""trial"",""time""
""fullscreenenter"",""5"",""18086""
","
","
","""event"",""trial"",""time""
""fullscreenenter"",""5"",""18086""
","
",722.3000000230968,NA,49,NA,NA,3000,1,NA,NA,images/tutgreenplanet.jpg,images/tutalien2,images/tutalien1,images/tutrocket2,images/tutalien1,images/t.png,2,practice,false,1,rare,1,2020-06-16T19:55:49Z,sub70
two-step-fixation,108,467222,0.0-61.0-2.15,TRUE,TRUE,TRUE,TRUE,"""event"",""trial"",""time""
""fullscreenenter"",""5"",""18086""
","
","
","""event"",""trial"",""time""
""fullscreenenter"",""5"",""18086""
","
",NA,images/earth.jpg,NA,NA,NA,NA,NA,NA,NA,NA,NA,NA,NA,NA,NA,fixation,NA,NA,NA,NA,NA,NA,sub70
d3-animate-choice,109,469543,0.0-61.0-0.16,TRUE,TRUE,TRUE,TRUE,"""event"",""trial"",""time""
""fullscreenenter"",""5"",""18086""
","
","
","""event"",""trial"",""time""
""fullscreenenter"",""5"",""18086""
","
",317.7000000141561,NA,49,NA,NA,3000,1,NA,NA,images/earth.jpg,images/tutrocket1,images/tutrocket2,null,images/tutrocket2,NA,1,practice,null,1,NA,NA,NA,sub70
d3-animate-choice,110,471892,0.0-61.0-1.16,TRUE,TRUE,TRUE,TRUE,"""event"",""trial"",""time""
""fullscreenenter"",""5"",""18086""
","
","
","""event"",""trial"",""time""
""fullscreenenter"",""5"",""18086""
","
",343.1999999738764,NA,49,NA,NA,3000,1,NA,NA,images/tutyellowplanet.jpg,images/tutalien4,images/tutalien3,images/tutrocket2,images/tutalien3,images/nothing.png,2,practice,true,1,common,0,2020-06-16T19:55:55Z,sub70
two-step-fixation,111,472895,0.0-61.0-2.16,TRUE,TRUE,TRUE,TRUE,"""event"",""trial"",""time""
""fullscreenenter"",""5"",""18086""
","
","
","""event"",""trial"",""time""
""fullscreenenter"",""5"",""18086""
","
",NA,images/earth.jpg,NA,NA,NA,NA,NA,NA,NA,NA,NA,NA,NA,NA,NA,fixation,NA,NA,NA,NA,NA,NA,sub70
d3-animate-choice,112,475332,0.0-61.0-0.17,TRUE,TRUE,TRUE,TRUE,"""event"",""trial"",""time""
""fullscreenenter"",""5"",""18086""
","
","
","""event"",""trial"",""time""
""fullscreenenter"",""5"",""18086""
","
",432.200000010198,NA,49,NA,NA,3000,1,NA,NA,images/earth.jpg,images/tutrocket1,images/tutrocket2,null,images/tutrocket2,NA,1,practice,null,1,NA,NA,NA,sub70
d3-animate-choice,113,477607,0.0-61.0-1.17,TRUE,TRUE,TRUE,TRUE,"""event"",""trial"",""time""
""fullscreenenter"",""5"",""18086""
","
","
","""event"",""trial"",""time""
""fullscreenenter"",""5"",""18086""
","
",268.00000001094304,NA,48,NA,NA,3000,1,NA,NA,images/tutyellowplanet.jpg,images/tutalien4,images/tutalien3,images/tutrocket2,images/tutalien4,images/nothing.png,2,practice,true,2,common,0,2020-06-16T19:56:01Z,sub70
two-step-fixation,114,478609,0.0-61.0-2.17,TRUE,TRUE,TRUE,TRUE,"""event"",""trial"",""time""
""fullscreenenter"",""5"",""18086""
","
","
","""event"",""trial"",""time""
""fullscreenenter"",""5"",""18086""
","
",NA,images/earth.jpg,NA,NA,NA,NA,NA,NA,NA,NA,NA,NA,NA,NA,NA,fixation,NA,NA,NA,NA,NA,NA,sub70
d3-animate-choice,115,480906,0.0-61.0-0.18,TRUE,TRUE,TRUE,TRUE,"""event"",""trial"",""time""
""fullscreenenter"",""5"",""18086""
","
","
","""event"",""trial"",""time""
""fullscreenenter"",""5"",""18086""
","
",292.3000000009779,NA,48,NA,NA,3000,1,NA,NA,images/earth.jpg,images/tutrocket1,images/tutrocket2,null,images/tutrocket1,NA,1,practice,null,2,NA,NA,NA,sub70
d3-animate-choice,116,483252,0.0-61.0-1.18,TRUE,TRUE,TRUE,TRUE,"""event"",""trial"",""time""
""fullscreenenter"",""5"",""18086""
","
","
","""event"",""trial"",""time""
""fullscreenenter"",""5"",""18086""
","
",340.8999999810476,NA,49,NA,NA,3000,1,NA,NA,images/tutyellowplanet.jpg,images/tutalien4,images/tutalien3,images/tutrocket1,images/tutalien3,images/nothing.png,2,practice,false,1,rare,0,2020-06-16T19:56:06Z,sub70
two-step-fixation,117,484255,0.0-61.0-2.18,TRUE,TRUE,TRUE,TRUE,"""event"",""trial"",""time""
""fullscreenenter"",""5"",""18086""
","
","
","""event"",""trial"",""time""
""fullscreenenter"",""5"",""18086""
","
",NA,images/earth.jpg,NA,NA,NA,NA,NA,NA,NA,NA,NA,NA,NA,NA,NA,fixation,NA,NA,NA,NA,NA,NA,sub70
d3-animate-choice,118,486599,0.0-61.0-0.19,TRUE,TRUE,TRUE,TRUE,"""event"",""trial"",""time""
""fullscreenenter"",""5"",""18086""
","
","
","""event"",""trial"",""time""
""fullscreenenter"",""5"",""18086""
","
",341.30000000004657,NA,48,NA,NA,3000,1,NA,NA,images/earth.jpg,images/tutrocket1,images/tutrocket2,null,images/tutrocket1,NA,1,practice,null,2,NA,NA,NA,sub70
d3-animate-choice,119,488928,0.0-61.0-1.19,TRUE,TRUE,TRUE,TRUE,"""event"",""trial"",""time""
""fullscreenenter"",""5"",""18086""
","
","
","""event"",""trial"",""time""
""fullscreenenter"",""5"",""18086""
","
",322.8999999992084,NA,48,NA,NA,3000,1,NA,NA,images/tutgreenplanet.jpg,images/tutalien2,images/tutalien1,images/tutrocket1,images/tutalien2,images/t.png,2,practice,true,2,common,1,2020-06-16T19:56:12Z,sub70
two-step-fixation,120,489930,0.0-61.0-2.19,TRUE,TRUE,TRUE,TRUE,"""event"",""trial"",""time""
""fullscreenenter"",""5"",""18086""
","
","
","""event"",""trial"",""time""
""fullscreenenter"",""5"",""18086""
","
",NA,images/earth.jpg,NA,NA,NA,NA,NA,NA,NA,NA,NA,NA,NA,NA,NA,fixation,NA,NA,NA,NA,NA,NA,sub70
d3-instructions,121,495734,0.0-62.0,TRUE,TRUE,TRUE,TRUE,"""event"",""trial"",""time""
""fullscreenenter"",""5"",""18086""
","
","
","""event"",""trial"",""time""
""fullscreenenter"",""5"",""18086""
","
",NA,NA,NA,NA,NA,NA,NA,NA,NA,NA,NA,NA,NA,NA,NA,NA,NA,NA,NA,NA,NA,NA,sub70
audio-keyboard-response,122,500461,0.0-63.0,TRUE,TRUE,TRUE,TRUE,"""event"",""trial"",""time""
""fullscreenenter"",""5"",""18086""
","
","
","""event"",""trial"",""time""
""fullscreenenter"",""5"",""18086""
","
",4725,audio/instructions/treasure_feedback.wav,32,NA,NA,NA,NA,NA,NA,NA,NA,NA,NA,NA,NA,NA,NA,NA,NA,NA,NA,NA,sub70
d3-instructions,123,508690,0.0-64.0,TRUE,TRUE,TRUE,TRUE,"""event"",""trial"",""time""
""fullscreenenter"",""5"",""18086""
","
","
","""event"",""trial"",""time""
""fullscreenenter"",""5"",""18086""
","
",NA,NA,NA,NA,NA,NA,NA,NA,NA,NA,NA,NA,NA,NA,NA,NA,NA,NA,NA,NA,NA,NA,sub70
d3-instructions,124,524085,0.0-65.0,TRUE,TRUE,TRUE,TRUE,"""event"",""trial"",""time""
""fullscreenenter"",""5"",""18086""
","
","
","""event"",""trial"",""time""
""fullscreenenter"",""5"",""18086""
","
",NA,NA,NA,NA,NA,NA,NA,NA,NA,NA,NA,NA,NA,NA,NA,NA,NA,NA,NA,NA,NA,NA,sub70
d3-instructions,125,541807,0.0-66.0,TRUE,TRUE,TRUE,TRUE,"""event"",""trial"",""time""
""fullscreenenter"",""5"",""18086""
","
","
","""event"",""trial"",""time""
""fullscreenenter"",""5"",""18086""
","
",NA,NA,NA,NA,NA,NA,NA,NA,NA,NA,NA,NA,NA,NA,NA,NA,NA,NA,NA,NA,NA,NA,sub70
d3-instructions,126,554326,0.0-67.0,TRUE,TRUE,TRUE,TRUE,"""event"",""trial"",""time""
""fullscreenenter"",""5"",""18086""
","
","
","""event"",""trial"",""time""
""fullscreenenter"",""5"",""18086""
","
",NA,NA,NA,NA,NA,NA,NA,NA,NA,NA,NA,NA,NA,NA,NA,NA,NA,NA,NA,NA,NA,NA,sub70
d3-instructions,127,558436,0.0-68.0,TRUE,TRUE,TRUE,TRUE,"""event"",""trial"",""time""
""fullscreenenter"",""5"",""18086""
","
","
","""event"",""trial"",""time""
""fullscreenenter"",""5"",""18086""
","
",NA,NA,NA,NA,NA,NA,NA,NA,NA,NA,NA,NA,NA,NA,NA,NA,NA,NA,NA,NA,NA,NA,sub70
instructions-quiz,128,570700,0.0-69.0,TRUE,TRUE,TRUE,TRUE,"""event"",""trial"",""time""
""fullscreenenter"",""5"",""18086""
","
","
","""event"",""trial"",""time""
""fullscreenenter"",""5"",""18086""
","
",12261.100000003353,audio/quiz/Q1_Prompt.wav,NA,0,NA,NA,NA,NA,NA,NA,NA,NA,NA,NA,NA,NA,NA,NA,NA,NA,NA,NA,sub70
audio-keyboard-response,129,579322,0.0-70.0,TRUE,TRUE,TRUE,TRUE,"""event"",""trial"",""time""
""fullscreenenter"",""5"",""18086""
","
","
","""event"",""trial"",""time""
""fullscreenenter"",""5"",""18086""
","
",8626,audio/quiz/Q1_Incorrect.wav,32,NA,NA,NA,NA,NA,NA,NA,NA,NA,NA,NA,NA,NA,NA,NA,NA,NA,NA,NA,sub70
instructions-quiz,130,584381,0.0-71.0,TRUE,TRUE,TRUE,TRUE,"""event"",""trial"",""time""
""fullscreenenter"",""5"",""18086""
","
","
","""event"",""trial"",""time""
""fullscreenenter"",""5"",""18086""
","
",5056.600000010803,audio/quiz/Q2_Prompt.wav,NA,0,NA,NA,NA,NA,NA,NA,NA,NA,NA,NA,NA,NA,NA,NA,NA,NA,NA,NA,sub70
audio-keyboard-response,131,585311,0.0-72.0,TRUE,TRUE,TRUE,TRUE,"""event"",""trial"",""time""
""fullscreenenter"",""5"",""18086""
","
","
","""event"",""trial"",""time""
""fullscreenenter"",""5"",""18086""
","
",929,audio/quiz/Q2_Correct.wav,32,NA,NA,NA,NA,NA,NA,NA,NA,NA,NA,NA,NA,NA,NA,NA,NA,NA,NA,NA,sub70
instructions-quiz,132,588517,0.0-73.0,TRUE,TRUE,TRUE,TRUE,"""event"",""trial"",""time""
""fullscreenenter"",""5"",""18086""
","
","
","""event"",""trial"",""time""
""fullscreenenter"",""5"",""18086""
","
",3202.3999999801163,audio/quiz/Q3_Prompt.wav,NA,1,NA,NA,NA,NA,NA,NA,NA,NA,NA,NA,NA,NA,NA,NA,NA,NA,NA,NA,sub70
audio-keyboard-response,133,589186,0.0-74.0,TRUE,TRUE,TRUE,TRUE,"""event"",""trial"",""time""
""fullscreenenter"",""5"",""18086""
","
","
","""event"",""trial"",""time""
""fullscreenenter"",""5"",""18086""
","
",673,audio/quiz/Q3_Correct.wav,32,NA,NA,NA,NA,NA,NA,NA,NA,NA,NA,NA,NA,NA,NA,NA,NA,NA,NA,NA,sub70
d3-instructions,134,596153,0.0-75.0,TRUE,TRUE,TRUE,TRUE,"""event"",""trial"",""time""
""fullscreenenter"",""5"",""18086""
","
","
","""event"",""trial"",""time""
""fullscreenenter"",""5"",""18086""
","
",NA,NA,NA,NA,NA,NA,NA,NA,NA,NA,NA,NA,NA,NA,NA,NA,NA,NA,NA,NA,NA,NA,sub70
d3-animate-choice,135,599636,0.0-76.0-0.0,TRUE,TRUE,TRUE,TRUE,"""event"",""trial"",""time""
""fullscreenenter"",""5"",""18086""
","
","
","""event"",""trial"",""time""
""fullscreenenter"",""5"",""18086""
","
",1478.2999999879394,NA,48,NA,NA,3000,1,NA,NA,images/earth.jpg,images/rocket2,images/rocket1,null,images/rocket2,NA,1,real,null,2,NA,NA,NA,sub70
d3-animate-choice,136,602551,0.0-76.0-1.0,TRUE,TRUE,TRUE,TRUE,"""event"",""trial"",""time""
""fullscreenenter"",""5"",""18086""
","
","
","""event"",""trial"",""time""
""fullscreenenter"",""5"",""18086""
","
",911.4000000117812,NA,49,NA,NA,3000,1,NA,NA,images/purpleplanet.jpg,images/alien4,images/alien3,images/rocket2,images/alien3,images/t.png,2,real,true,1,common,1,2020-06-16T19:58:06Z,sub70
two-step-fixation,137,603555,0.0-76.0-2.0,TRUE,TRUE,TRUE,TRUE,"""event"",""trial"",""time""
""fullscreenenter"",""5"",""18086""
","
","
","""event"",""trial"",""time""
""fullscreenenter"",""5"",""18086""
","
",NA,images/earth.jpg,NA,NA,NA,NA,NA,NA,NA,NA,NA,NA,NA,NA,NA,fixation,NA,NA,NA,NA,NA,NA,sub70
d3-animate-choice,138,606008,0.0-76.0-0.1,TRUE,TRUE,TRUE,TRUE,"""event"",""trial"",""time""
""fullscreenenter"",""5"",""18086""
","
","
","""event"",""trial"",""time""
""fullscreenenter"",""5"",""18086""
","
",448.6999999789987,NA,48,NA,NA,3000,1,NA,NA,images/earth.jpg,images/rocket2,images/rocket1,null,images/rocket2,NA,1,real,null,2,NA,NA,NA,sub70
d3-animate-choice,139,608515,0.0-76.0-1.1,TRUE,TRUE,TRUE,TRUE,"""event"",""trial"",""time""
""fullscreenenter"",""5"",""18086""
","
","
","""event"",""trial"",""time""
""fullscreenenter"",""5"",""18086""
","
",501.0000000183936,NA,49,NA,NA,3000,1,NA,NA,images/purpleplanet.jpg,images/alien4,images/alien3,images/rocket2,images/alien3,images/t.png,2,real,true,1,common,1,2020-06-16T19:58:12Z,sub70
two-step-fixation,140,609518,0.0-76.0-2.1,TRUE,TRUE,TRUE,TRUE,"""event"",""trial"",""time""
""fullscreenenter"",""5"",""18086""
","
","
","""event"",""trial"",""time""
""fullscreenenter"",""5"",""18086""
","
",NA,images/earth.jpg,NA,NA,NA,NA,NA,NA,NA,NA,NA,NA,NA,NA,NA,fixation,NA,NA,NA,NA,NA,NA,sub70
d3-animate-choice,141,612225,0.0-76.0-0.2,TRUE,TRUE,TRUE,TRUE,"""event"",""trial"",""time""
""fullscreenenter"",""5"",""18086""
","
","
","""event"",""trial"",""time""
""fullscreenenter"",""5"",""18086""
","
",702.3000000044703,NA,49,NA,NA,3000,1,NA,NA,images/earth.jpg,images/rocket2,images/rocket1,null,images/rocket1,NA,1,real,null,1,NA,NA,NA,sub70
d3-animate-choice,142,614598,0.0-76.0-1.2,TRUE,TRUE,TRUE,TRUE,"""event"",""trial"",""time""
""fullscreenenter"",""5"",""18086""
","
","
","""event"",""trial"",""time""
""fullscreenenter"",""5"",""18086""
","
",367.70000000251457,NA,48,NA,NA,3000,1,NA,NA,images/purpleplanet.jpg,images/alien4,images/alien3,images/rocket1,images/alien4,images/nothing.png,2,real,false,2,rare,0,2020-06-16T19:58:18Z,sub70
two-step-fixation,143,615601,0.0-76.0-2.2,TRUE,TRUE,TRUE,TRUE,"""event"",""trial"",""time""
""fullscreenenter"",""5"",""18086""
","
","
","""event"",""trial"",""time""
""fullscreenenter"",""5"",""18086""
","
",NA,images/earth.jpg,NA,NA,NA,NA,NA,NA,NA,NA,NA,NA,NA,NA,NA,fixation,NA,NA,NA,NA,NA,NA,sub70
d3-animate-choice,144,617945,0.0-76.0-0.3,TRUE,TRUE,TRUE,TRUE,"""event"",""trial"",""time""
""fullscreenenter"",""5"",""18086""
","
","
","""event"",""trial"",""time""
""fullscreenenter"",""5"",""18086""
","
",338.6999999929685,NA,49,NA,NA,3000,1,NA,NA,images/earth.jpg,images/rocket2,images/rocket1,null,images/rocket1,NA,1,real,null,1,NA,NA,NA,sub70
d3-animate-choice,145,620296,0.0-76.0-1.3,TRUE,TRUE,TRUE,TRUE,"""event"",""trial"",""time""
""fullscreenenter"",""5"",""18086""
","
","
","""event"",""trial"",""time""
""fullscreenenter"",""5"",""18086""
","
",344.6999999869149,NA,49,NA,NA,3000,1,NA,NA,images/redplanet1.jpg,images/alien2,images/alien1,images/rocket1,images/alien1,images/nothing.png,2,real,true,1,common,0,2020-06-16T19:58:23Z,sub70
two-step-fixation,146,621299,0.0-76.0-2.3,TRUE,TRUE,TRUE,TRUE,"""event"",""trial"",""time""
""fullscreenenter"",""5"",""18086""
","
","
","""event"",""trial"",""time""
""fullscreenenter"",""5"",""18086""
","
",NA,images/earth.jpg,NA,NA,NA,NA,NA,NA,NA,NA,NA,NA,NA,NA,NA,fixation,NA,NA,NA,NA,NA,NA,sub70
d3-animate-choice,147,623700,0.0-76.0-0.4,TRUE,TRUE,TRUE,TRUE,"""event"",""trial"",""time""
""fullscreenenter"",""5"",""18086""
","
","
","""event"",""trial"",""time""
""fullscreenenter"",""5"",""18086""
","
",394.7000000043772,NA,48,NA,NA,3000,1,NA,NA,images/earth.jpg,images/rocket2,images/rocket1,null,images/rocket2,NA,1,real,null,2,NA,NA,NA,sub70
d3-animate-choice,148,626258,0.0-76.0-1.4,TRUE,TRUE,TRUE,TRUE,"""event"",""trial"",""time""
""fullscreenenter"",""5"",""18086""
","
","
","""event"",""trial"",""time""
""fullscreenenter"",""5"",""18086""
","
",552.399999985937,NA,49,NA,NA,3000,1,NA,NA,images/redplanet1.jpg,images/alien2,images/alien1,images/rocket2,images/alien1,images/nothing.png,2,real,false,1,rare,0,2020-06-16T19:58:29Z,sub70
two-step-fixation,149,627261,0.0-76.0-2.4,TRUE,TRUE,TRUE,TRUE,"""event"",""trial"",""time""
""fullscreenenter"",""5"",""18086""
","
","
","""event"",""trial"",""time""
""fullscreenenter"",""5"",""18086""
","
",NA,images/earth.jpg,NA,NA,NA,NA,NA,NA,NA,NA,NA,NA,NA,NA,NA,fixation,NA,NA,NA,NA,NA,NA,sub70
d3-animate-choice,150,629614,0.0-76.0-0.5,TRUE,TRUE,TRUE,TRUE,"""event"",""trial"",""time""
""fullscreenenter"",""5"",""18086""
","
","
","""event"",""trial"",""time""
""fullscreenenter"",""5"",""18086""
","
",349.19999999692664,NA,48,NA,NA,3000,1,NA,NA,images/earth.jpg,images/rocket2,images/rocket1,null,images/rocket2,NA,1,real,null,2,NA,NA,NA,sub70
d3-animate-choice,151,632634,0.0-76.0-1.5,TRUE,TRUE,TRUE,TRUE,"""event"",""trial"",""time""
""fullscreenenter"",""5"",""18086""
","
","
","""event"",""trial"",""time""
""fullscreenenter"",""5"",""18086""
","
",1015.5000000086147,NA,48,NA,NA,3000,1,NA,NA,images/redplanet1.jpg,images/alien2,images/alien1,images/rocket2,images/alien2,images/t.png,2,real,false,2,rare,1,2020-06-16T19:58:36Z,sub70
two-step-fixation,152,633637,0.0-76.0-2.5,TRUE,TRUE,TRUE,TRUE,"""event"",""trial"",""time""
""fullscreenenter"",""5"",""18086""
","
","
","""event"",""trial"",""time""
""fullscreenenter"",""5"",""18086""
","
",NA,images/earth.jpg,NA,NA,NA,NA,NA,NA,NA,NA,NA,NA,NA,NA,NA,fixation,NA,NA,NA,NA,NA,NA,sub70
d3-animate-choice,153,636097,0.0-76.0-0.6,TRUE,TRUE,TRUE,TRUE,"""event"",""trial"",""time""
""fullscreenenter"",""5"",""18086""
","
","
","""event"",""trial"",""time""
""fullscreenenter"",""5"",""18086""
","
",455.6999999913387,NA,49,NA,NA,3000,1,NA,NA,images/earth.jpg,images/rocket2,images/rocket1,null,images/rocket1,NA,1,real,null,1,NA,NA,NA,sub70
d3-animate-choice,154,638808,0.0-76.0-1.6,TRUE,TRUE,TRUE,TRUE,"""event"",""trial"",""time""
""fullscreenenter"",""5"",""18086""
","
","
","""event"",""trial"",""time""
""fullscreenenter"",""5"",""18086""
","
",707.9000000085216,NA,48,NA,NA,3000,1,NA,NA,images/redplanet1.jpg,images/alien2,images/alien1,images/rocket1,images/alien2,images/t.png,2,real,true,2,common,1,2020-06-16T19:58:42Z,sub70
two-step-fixation,155,639811,0.0-76.0-2.6,TRUE,TRUE,TRUE,TRUE,"""event"",""trial"",""time""
""fullscreenenter"",""5"",""18086""
","
","
","""event"",""trial"",""time""
""fullscreenenter"",""5"",""18086""
","
",NA,images/earth.jpg,NA,NA,NA,NA,NA,NA,NA,NA,NA,NA,NA,NA,NA,fixation,NA,NA,NA,NA,NA,NA,sub70
d3-animate-choice,156,642113,0.0-76.0-0.7,TRUE,TRUE,TRUE,TRUE,"""event"",""trial"",""time""
""fullscreenenter"",""5"",""18086""
","
","
","""event"",""trial"",""time""
""fullscreenenter"",""5"",""18086""
","
",295.0999999884516,NA,48,NA,NA,3000,1,NA,NA,images/earth.jpg,images/rocket2,images/rocket1,null,images/rocket2,NA,1,real,null,2,NA,NA,NA,sub70
d3-animate-choice,157,644848,0.0-76.0-1.7,TRUE,TRUE,TRUE,TRUE,"""event"",""trial"",""time""
""fullscreenenter"",""5"",""18086""
","
","
","""event"",""trial"",""time""
""fullscreenenter"",""5"",""18086""
","
",729.4999999867287,NA,48,NA,NA,3000,1,NA,NA,images/redplanet1.jpg,images/alien2,images/alien1,images/rocket2,images/alien2,images/t.png,2,real,false,2,rare,1,2020-06-16T19:58:48Z,sub70
two-step-fixation,158,645851,0.0-76.0-2.7,TRUE,TRUE,TRUE,TRUE,"""event"",""trial"",""time""
""fullscreenenter"",""5"",""18086""
","
","
","""event"",""trial"",""time""
""fullscreenenter"",""5"",""18086""
","
",NA,images/earth.jpg,NA,NA,NA,NA,NA,NA,NA,NA,NA,NA,NA,NA,NA,fixation,NA,NA,NA,NA,NA,NA,sub70
d3-animate-choice,159,648391,0.0-76.0-0.8,TRUE,TRUE,TRUE,TRUE,"""event"",""trial"",""time""
""fullscreenenter"",""5"",""18086""
","
","
","""event"",""trial"",""time""
""fullscreenenter"",""5"",""18086""
","
",536.2999999779277,NA,49,NA,NA,3000,1,NA,NA,images/earth.jpg,images/rocket2,images/rocket1,null,images/rocket1,NA,1,real,null,1,NA,NA,NA,sub70
d3-animate-choice,160,651044,0.0-76.0-1.8,TRUE,TRUE,TRUE,TRUE,"""event"",""trial"",""time""
""fullscreenenter"",""5"",""18086""
","
","
","""event"",""trial"",""time""
""fullscreenenter"",""5"",""18086""
","
",648.79999999539,NA,48,NA,NA,3000,1,NA,NA,images/redplanet1.jpg,images/alien2,images/alien1,images/rocket1,images/alien2,images/nothing.png,2,real,true,2,common,0,2020-06-16T19:58:54Z,sub70
two-step-fixation,161,652047,0.0-76.0-2.8,TRUE,TRUE,TRUE,TRUE,"""event"",""trial"",""time""
""fullscreenenter"",""5"",""18086""
","
","
","""event"",""trial"",""time""
""fullscreenenter"",""5"",""18086""
","
",NA,images/earth.jpg,NA,NA,NA,NA,NA,NA,NA,NA,NA,NA,NA,NA,NA,fixation,NA,NA,NA,NA,NA,NA,sub70
d3-animate-choice,162,654431,0.0-76.0-0.9,TRUE,TRUE,TRUE,TRUE,"""event"",""trial"",""time""
""fullscreenenter"",""5"",""18086""
","
","
","""event"",""trial"",""time""
""fullscreenenter"",""5"",""18086""
","
",379.1999999957625,NA,48,NA,NA,3000,1,NA,NA,images/earth.jpg,images/rocket2,images/rocket1,null,images/rocket2,NA,1,real,null,2,NA,NA,NA,sub70
d3-animate-choice,163,658434,0.0-76.0-1.9,TRUE,TRUE,TRUE,TRUE,"""event"",""trial"",""time""
""fullscreenenter"",""5"",""18086""
","
","
","""event"",""trial"",""time""
""fullscreenenter"",""5"",""18086""
","
",2307.9000000143424,NA,49,NA,NA,3000,1,NA,NA,images/purpleplanet.jpg,images/alien4,images/alien3,images/rocket2,images/alien3,images/nothing.png,2,real,true,1,common,0,2020-06-16T19:59:01Z,sub70
two-step-fixation,164,659435,0.0-76.0-2.9,TRUE,TRUE,TRUE,TRUE,"""event"",""trial"",""time""
""fullscreenenter"",""5"",""18086""
","
","
","""event"",""trial"",""time""
""fullscreenenter"",""5"",""18086""
","
",NA,images/earth.jpg,NA,NA,NA,NA,NA,NA,NA,NA,NA,NA,NA,NA,NA,fixation,NA,NA,NA,NA,NA,NA,sub70
d3-animate-choice,165,661941,0.0-76.0-0.10,TRUE,TRUE,TRUE,TRUE,"""event"",""trial"",""time""
""fullscreenenter"",""5"",""18086""
","
","
","""event"",""trial"",""time""
""fullscreenenter"",""5"",""18086""
","
",502.39999999757856,NA,48,NA,NA,3000,1,NA,NA,images/earth.jpg,images/rocket2,images/rocket1,null,images/rocket2,NA,1,real,null,2,NA,NA,NA,sub70
d3-animate-choice,166,664428,0.0-76.0-1.10,TRUE,TRUE,TRUE,TRUE,"""event"",""trial"",""time""
""fullscreenenter"",""5"",""18086""
","
","
","""event"",""trial"",""time""
""fullscreenenter"",""5"",""18086""
","
",480.5999999807682,NA,48,NA,NA,3000,1,NA,NA,images/purpleplanet.jpg,images/alien4,images/alien3,images/rocket2,images/alien4,images/t.png,2,real,true,2,common,1,2020-06-16T19:59:07Z,sub70
two-step-fixation,167,665430,0.0-76.0-2.10,TRUE,TRUE,TRUE,TRUE,"""event"",""trial"",""time""
""fullscreenenter"",""5"",""18086""
","
","
","""event"",""trial"",""time""
""fullscreenenter"",""5"",""18086""
","
",NA,images/earth.jpg,NA,NA,NA,NA,NA,NA,NA,NA,NA,NA,NA,NA,NA,fixation,NA,NA,NA,NA,NA,NA,sub70
d3-animate-choice,168,667761,0.0-76.0-0.11,TRUE,TRUE,TRUE,TRUE,"""event"",""trial"",""time""
""fullscreenenter"",""5"",""18086""
","
","
","""event"",""trial"",""time""
""fullscreenenter"",""5"",""18086""
","
",325.79999999143183,NA,48,NA,NA,3000,1,NA,NA,images/earth.jpg,images/rocket2,images/rocket1,null,images/rocket2,NA,1,real,null,2,NA,NA,NA,sub70
d3-animate-choice,169,670319,0.0-76.0-1.11,TRUE,TRUE,TRUE,TRUE,"""event"",""trial"",""time""
""fullscreenenter"",""5"",""18086""
","
","
","""event"",""trial"",""time""
""fullscreenenter"",""5"",""18086""
","
",551.6999999817926,NA,48,NA,NA,3000,1,NA,NA,images/purpleplanet.jpg,images/alien4,images/alien3,images/rocket2,images/alien4,images/t.png,2,real,true,2,common,1,2020-06-16T19:59:13Z,sub70
two-step-fixation,170,671321,0.0-76.0-2.11,TRUE,TRUE,TRUE,TRUE,"""event"",""trial"",""time""
""fullscreenenter"",""5"",""18086""
","
","
","""event"",""trial"",""time""
""fullscreenenter"",""5"",""18086""
","
",NA,images/earth.jpg,NA,NA,NA,NA,NA,NA,NA,NA,NA,NA,NA,NA,NA,fixation,NA,NA,NA,NA,NA,NA,sub70
d3-animate-choice,171,673810,0.0-76.0-0.12,TRUE,TRUE,TRUE,TRUE,"""event"",""trial"",""time""
""fullscreenenter"",""5"",""18086""
","
","
","""event"",""trial"",""time""
""fullscreenenter"",""5"",""18086""
","
",484.3999999866355,NA,49,NA,NA,3000,1,NA,NA,images/earth.jpg,images/rocket2,images/rocket1,null,images/rocket1,NA,1,real,null,1,NA,NA,NA,sub70
d3-animate-choice,172,676756,0.0-76.0-1.12,TRUE,TRUE,TRUE,TRUE,"""event"",""trial"",""time""
""fullscreenenter"",""5"",""18086""
","
","
","""event"",""trial"",""time""
""fullscreenenter"",""5"",""18086""
","
",939.4000000029337,NA,48,NA,NA,3000,1,NA,NA,images/purpleplanet.jpg,images/alien4,images/alien3,images/rocket1,images/alien4,images/t.png,2,real,false,2,rare,1,2020-06-16T19:59:20Z,sub70
two-step-fixation,173,677758,0.0-76.0-2.12,TRUE,TRUE,TRUE,TRUE,"""event"",""trial"",""time""
""fullscreenenter"",""5"",""18086""
","
","
","""event"",""trial"",""time""
""fullscreenenter"",""5"",""18086""
","
",NA,images/earth.jpg,NA,NA,NA,NA,NA,NA,NA,NA,NA,NA,NA,NA,NA,fixation,NA,NA,NA,NA,NA,NA,sub70
d3-animate-choice,174,680028,0.0-76.0-0.13,TRUE,TRUE,TRUE,TRUE,"""event"",""trial"",""time""
""fullscreenenter"",""5"",""18086""
","
","
","""event"",""trial"",""time""
""fullscreenenter"",""5"",""18086""
","
",264.6999999997206,NA,48,NA,NA,3000,1,NA,NA,images/earth.jpg,images/rocket2,images/rocket1,null,images/rocket2,NA,1,real,null,2,NA,NA,NA,sub70
d3-animate-choice,175,682524,0.0-76.0-1.13,TRUE,TRUE,TRUE,TRUE,"""event"",""trial"",""time""
""fullscreenenter"",""5"",""18086""
","
","
","""event"",""trial"",""time""
""fullscreenenter"",""5"",""18086""
","
",489.7999999811873,NA,49,NA,NA,3000,1,NA,NA,images/redplanet1.jpg,images/alien2,images/alien1,images/rocket2,images/alien1,images/t.png,2,real,false,1,rare,1,2020-06-16T19:59:26Z,sub70
two-step-fixation,176,683527,0.0-76.0-2.13,TRUE,TRUE,TRUE,TRUE,"""event"",""trial"",""time""
""fullscreenenter"",""5"",""18086""
","
","
","""event"",""trial"",""time""
""fullscreenenter"",""5"",""18086""
","
",NA,images/earth.jpg,NA,NA,NA,NA,NA,NA,NA,NA,NA,NA,NA,NA,NA,fixation,NA,NA,NA,NA,NA,NA,sub70
d3-animate-choice,177,685880,0.0-76.0-0.14,TRUE,TRUE,TRUE,TRUE,"""event"",""trial"",""time""
""fullscreenenter"",""5"",""18086""
","
","
","""event"",""trial"",""time""
""fullscreenenter"",""5"",""18086""
","
",348.1000000028871,NA,48,NA,NA,3000,1,NA,NA,images/earth.jpg,images/rocket2,images/rocket1,null,images/rocket2,NA,1,real,null,2,NA,NA,NA,sub70
d3-animate-choice,178,688878,0.0-76.0-1.14,TRUE,TRUE,TRUE,TRUE,"""event"",""trial"",""time""
""fullscreenenter"",""5"",""18086""
","
","
","""event"",""trial"",""time""
""fullscreenenter"",""5"",""18086""
","
",993.3999999775551,NA,49,NA,NA,3000,1,NA,NA,images/redplanet1.jpg,images/alien2,images/alien1,images/rocket2,images/alien1,images/t.png,2,real,false,1,rare,1,2020-06-16T19:59:32Z,sub70
two-step-fixation,179,689881,0.0-76.0-2.14,TRUE,TRUE,TRUE,TRUE,"""event"",""trial"",""time""
""fullscreenenter"",""5"",""18086""
","
","
","""event"",""trial"",""time""
""fullscreenenter"",""5"",""18086""
","
",NA,images/earth.jpg,NA,NA,NA,NA,NA,NA,NA,NA,NA,NA,NA,NA,NA,fixation,NA,NA,NA,NA,NA,NA,sub70
d3-animate-choice,180,692193,0.0-76.0-0.15,TRUE,TRUE,TRUE,TRUE,"""event"",""trial"",""time""
""fullscreenenter"",""5"",""18086""
","
","
","""event"",""trial"",""time""
""fullscreenenter"",""5"",""18086""
","
",307.9999999899883,NA,48,NA,NA,3000,1,NA,NA,images/earth.jpg,images/rocket2,images/rocket1,null,images/rocket2,NA,1,real,null,2,NA,NA,NA,sub70
d3-animate-choice,181,694730,0.0-76.0-1.15,TRUE,TRUE,TRUE,TRUE,"""event"",""trial"",""time""
""fullscreenenter"",""5"",""18086""
","
","
","""event"",""trial"",""time""
""fullscreenenter"",""5"",""18086""
","
",530.7000000029802,NA,48,NA,NA,3000,1,NA,NA,images/purpleplanet.jpg,images/alien4,images/alien3,images/rocket2,images/alien4,images/nothing.png,2,real,true,2,common,0,2020-06-16T19:59:38Z,sub70
two-step-fixation,182,695732,0.0-76.0-2.15,TRUE,TRUE,TRUE,TRUE,"""event"",""trial"",""time""
""fullscreenenter"",""5"",""18086""
","
","
","""event"",""trial"",""time""
""fullscreenenter"",""5"",""18086""
","
",NA,images/earth.jpg,NA,NA,NA,NA,NA,NA,NA,NA,NA,NA,NA,NA,NA,fixation,NA,NA,NA,NA,NA,NA,sub70
d3-animate-choice,183,698190,0.0-76.0-0.16,TRUE,TRUE,TRUE,TRUE,"""event"",""trial"",""time""
""fullscreenenter"",""5"",""18086""
","
","
","""event"",""trial"",""time""
""fullscreenenter"",""5"",""18086""
","
",452.70000002346933,NA,49,NA,NA,3000,1,NA,NA,images/earth.jpg,images/rocket2,images/rocket1,null,images/rocket1,NA,1,real,null,1,NA,NA,NA,sub70
d3-animate-choice,184,700726,0.0-76.0-1.16,TRUE,TRUE,TRUE,TRUE,"""event"",""trial"",""time""
""fullscreenenter"",""5"",""18086""
","
","
","""event"",""trial"",""time""
""fullscreenenter"",""5"",""18086""
","
",530.7000000029802,NA,49,NA,NA,3000,1,NA,NA,images/redplanet1.jpg,images/alien2,images/alien1,images/rocket1,images/alien1,images/nothing.png,2,real,true,1,common,0,2020-06-16T19:59:44Z,sub70
two-step-fixation,185,701729,0.0-76.0-2.16,TRUE,TRUE,TRUE,TRUE,"""event"",""trial"",""time""
""fullscreenenter"",""5"",""18086""
","
","
","""event"",""trial"",""time""
""fullscreenenter"",""5"",""18086""
","
",NA,images/earth.jpg,NA,NA,NA,NA,NA,NA,NA,NA,NA,NA,NA,NA,NA,fixation,NA,NA,NA,NA,NA,NA,sub70
d3-animate-choice,186,704080,0.0-76.0-0.17,TRUE,TRUE,TRUE,TRUE,"""event"",""trial"",""time""
""fullscreenenter"",""5"",""18086""
","
","
","""event"",""trial"",""time""
""fullscreenenter"",""5"",""18086""
","
",346.3000000047032,NA,48,NA,NA,3000,1,NA,NA,images/earth.jpg,images/rocket2,images/rocket1,null,images/rocket2,NA,1,real,null,2,NA,NA,NA,sub70
d3-animate-choice,187,706670,0.0-76.0-1.17,TRUE,TRUE,TRUE,TRUE,"""event"",""trial"",""time""
""fullscreenenter"",""5"",""18086""
","
","
","""event"",""trial"",""time""
""fullscreenenter"",""5"",""18086""
","
",584.7000000067055,NA,49,NA,NA,3000,1,NA,NA,images/purpleplanet.jpg,images/alien4,images/alien3,images/rocket2,images/alien3,images/t.png,2,real,true,1,common,1,2020-06-16T19:59:50Z,sub70
two-step-fixation,188,707673,0.0-76.0-2.17,TRUE,TRUE,TRUE,TRUE,"""event"",""trial"",""time""
""fullscreenenter"",""5"",""18086""
","
","
","""event"",""trial"",""time""
""fullscreenenter"",""5"",""18086""
","
",NA,images/earth.jpg,NA,NA,NA,NA,NA,NA,NA,NA,NA,NA,NA,NA,NA,fixation,NA,NA,NA,NA,NA,NA,sub70
d3-animate-choice,189,710034,0.0-76.0-0.18,TRUE,TRUE,TRUE,TRUE,"""event"",""trial"",""time""
""fullscreenenter"",""5"",""18086""
","
","
","""event"",""trial"",""time""
""fullscreenenter"",""5"",""18086""
","
",356.49999999441206,NA,49,NA,NA,3000,1,NA,NA,images/earth.jpg,images/rocket2,images/rocket1,null,images/rocket1,NA,1,real,null,1,NA,NA,NA,sub70
d3-animate-choice,190,712632,0.0-76.0-1.18,TRUE,TRUE,TRUE,TRUE,"""event"",""trial"",""time""
""fullscreenenter"",""5"",""18086""
","
","
","""event"",""trial"",""time""
""fullscreenenter"",""5"",""18086""
","
",591.7999999946915,NA,48,NA,NA,3000,1,NA,NA,images/redplanet1.jpg,images/alien2,images/alien1,images/rocket1,images/alien2,images/t.png,2,real,true,2,common,1,2020-06-16T19:59:56Z,sub70
two-step-fixation,191,713635,0.0-76.0-2.18,TRUE,TRUE,TRUE,TRUE,"""event"",""trial"",""time""
""fullscreenenter"",""5"",""18086""
","
","
","""event"",""trial"",""time""
""fullscreenenter"",""5"",""18086""
","
",NA,images/earth.jpg,NA,NA,NA,NA,NA,NA,NA,NA,NA,NA,NA,NA,NA,fixation,NA,NA,NA,NA,NA,NA,sub70
d3-animate-choice,192,715915,0.0-76.0-0.19,TRUE,TRUE,TRUE,TRUE,"""event"",""trial"",""time""
""fullscreenenter"",""5"",""18086""
","
","
","""event"",""trial"",""time""
""fullscreenenter"",""5"",""18086""
","
",273.4000000054948,NA,48,NA,NA,3000,1,NA,NA,images/earth.jpg,images/rocket2,images/rocket1,null,images/rocket2,NA,1,real,null,2,NA,NA,NA,sub70
d3-animate-choice,193,719920,0.0-76.0-1.19,TRUE,TRUE,TRUE,TRUE,"""event"",""trial"",""time""
""fullscreenenter"",""5"",""18086""
","
","
","""event"",""trial"",""time""
""fullscreenenter"",""5"",""18086""
","
",2140.79999999376,NA,49,NA,NA,3000,1,NA,NA,images/purpleplanet.jpg,images/alien4,images/alien3,images/rocket2,images/alien3,images/t.png,2,real,true,1,common,1,2020-06-16T20:00:03Z,sub70
two-step-fixation,194,720923,0.0-76.0-2.19,TRUE,TRUE,TRUE,TRUE,"""event"",""trial"",""time""
""fullscreenenter"",""5"",""18086""
","
","
","""event"",""trial"",""time""
""fullscreenenter"",""5"",""18086""
","
",NA,images/earth.jpg,NA,NA,NA,NA,NA,NA,NA,NA,NA,NA,NA,NA,NA,fixation,NA,NA,NA,NA,NA,NA,sub70
d3-animate-choice,195,723303,0.0-76.0-0.20,TRUE,TRUE,TRUE,TRUE,"""event"",""trial"",""time""
""fullscreenenter"",""5"",""18086""
","
","
","""event"",""trial"",""time""
""fullscreenenter"",""5"",""18086""
","
",375.7000000041444,NA,48,NA,NA,3000,1,NA,NA,images/earth.jpg,images/rocket2,images/rocket1,null,images/rocket2,NA,1,real,null,2,NA,NA,NA,sub70
d3-animate-choice,196,725862,0.0-76.0-1.20,TRUE,TRUE,TRUE,TRUE,"""event"",""trial"",""time""
""fullscreenenter"",""5"",""18086""
","
","
","""event"",""trial"",""time""
""fullscreenenter"",""5"",""18086""
","
",551.9999999960419,NA,49,NA,NA,3000,1,NA,NA,images/purpleplanet.jpg,images/alien4,images/alien3,images/rocket2,images/alien3,images/nothing.png,2,real,true,1,common,0,2020-06-16T20:00:09Z,sub70
two-step-fixation,197,726865,0.0-76.0-2.20,TRUE,TRUE,TRUE,TRUE,"""event"",""trial"",""time""
""fullscreenenter"",""5"",""18086""
","
","
","""event"",""trial"",""time""
""fullscreenenter"",""5"",""18086""
","
",NA,images/earth.jpg,NA,NA,NA,NA,NA,NA,NA,NA,NA,NA,NA,NA,NA,fixation,NA,NA,NA,NA,NA,NA,sub70
d3-animate-choice,198,729659,0.0-76.0-0.21,TRUE,TRUE,TRUE,TRUE,"""event"",""trial"",""time""
""fullscreenenter"",""5"",""18086""
","
","
","""event"",""trial"",""time""
""fullscreenenter"",""5"",""18086""
","
",789.4000000087544,NA,49,NA,NA,3000,1,NA,NA,images/earth.jpg,images/rocket2,images/rocket1,null,images/rocket1,NA,1,real,null,1,NA,NA,NA,sub70
d3-animate-choice,199,732299,0.0-76.0-1.21,TRUE,TRUE,TRUE,TRUE,"""event"",""trial"",""time""
""fullscreenenter"",""5"",""18086""
","
","
","""event"",""trial"",""time""
""fullscreenenter"",""5"",""18086""
","
",634.4999999855645,NA,48,NA,NA,3000,1,NA,NA,images/redplanet1.jpg,images/alien2,images/alien1,images/rocket1,images/alien2,images/nothing.png,2,real,true,2,common,0,2020-06-16T20:00:15Z,sub70
two-step-fixation,200,733301,0.0-76.0-2.21,TRUE,TRUE,TRUE,TRUE,"""event"",""trial"",""time""
""fullscreenenter"",""5"",""18086""
","
","
","""event"",""trial"",""time""
""fullscreenenter"",""5"",""18086""
","
",NA,images/earth.jpg,NA,NA,NA,NA,NA,NA,NA,NA,NA,NA,NA,NA,NA,fixation,NA,NA,NA,NA,NA,NA,sub70
d3-animate-choice,201,735994,0.0-76.0-0.22,TRUE,TRUE,TRUE,TRUE,"""event"",""trial"",""time""
""fullscreenenter"",""5"",""18086""
","
","
","""event"",""trial"",""time""
""fullscreenenter"",""5"",""18086""
","
",687.8000000142492,NA,48,NA,NA,3000,1,NA,NA,images/earth.jpg,images/rocket2,images/rocket1,null,images/rocket2,NA,1,real,null,2,NA,NA,NA,sub70
d3-animate-choice,202,738471,0.0-76.0-1.22,TRUE,TRUE,TRUE,TRUE,"""event"",""trial"",""time""
""fullscreenenter"",""5"",""18086""
","
","
","""event"",""trial"",""time""
""fullscreenenter"",""5"",""18086""
","
",472.6999999838881,NA,48,NA,NA,3000,1,NA,NA,images/purpleplanet.jpg,images/alien4,images/alien3,images/rocket2,images/alien4,images/t.png,2,real,true,2,common,1,2020-06-16T20:00:22Z,sub70
two-step-fixation,203,739474,0.0-76.0-2.22,TRUE,TRUE,TRUE,TRUE,"""event"",""trial"",""time""
""fullscreenenter"",""5"",""18086""
","
","
","""event"",""trial"",""time""
""fullscreenenter"",""5"",""18086""
","
",NA,images/earth.jpg,NA,NA,NA,NA,NA,NA,NA,NA,NA,NA,NA,NA,NA,fixation,NA,NA,NA,NA,NA,NA,sub70
d3-animate-choice,204,741880,0.0-76.0-0.23,TRUE,TRUE,TRUE,TRUE,"""event"",""trial"",""time""
""fullscreenenter"",""5"",""18086""
","
","
","""event"",""trial"",""time""
""fullscreenenter"",""5"",""18086""
","
",401.1000000173226,NA,49,NA,NA,3000,1,NA,NA,images/earth.jpg,images/rocket2,images/rocket1,null,images/rocket1,NA,1,real,null,1,NA,NA,NA,sub70
d3-animate-choice,205,744214,0.0-76.0-1.23,TRUE,TRUE,TRUE,TRUE,"""event"",""trial"",""time""
""fullscreenenter"",""5"",""18086""
","
","
","""event"",""trial"",""time""
""fullscreenenter"",""5"",""18086""
","
",328.3999999985099,NA,49,NA,NA,3000,1,NA,NA,images/redplanet1.jpg,images/alien2,images/alien1,images/rocket1,images/alien1,images/t.png,2,real,true,1,common,1,2020-06-16T20:00:27Z,sub70
two-step-fixation,206,745217,0.0-76.0-2.23,TRUE,TRUE,TRUE,TRUE,"""event"",""trial"",""time""
""fullscreenenter"",""5"",""18086""
","
","
","""event"",""trial"",""time""
""fullscreenenter"",""5"",""18086""
","
",NA,images/earth.jpg,NA,NA,NA,NA,NA,NA,NA,NA,NA,NA,NA,NA,NA,fixation,NA,NA,NA,NA,NA,NA,sub70
d3-animate-choice,207,747521,0.0-76.0-0.24,TRUE,TRUE,TRUE,TRUE,"""event"",""trial"",""time""
""fullscreenenter"",""5"",""18086""
","
","
","""event"",""trial"",""time""
""fullscreenenter"",""5"",""18086""
","
",298.9999999990687,NA,48,NA,NA,3000,1,NA,NA,images/earth.jpg,images/rocket2,images/rocket1,null,images/rocket2,NA,1,real,null,2,NA,NA,NA,sub70
d3-animate-choice,208,750007,0.0-76.0-1.24,TRUE,TRUE,TRUE,TRUE,"""event"",""trial"",""time""
""fullscreenenter"",""5"",""18086""
","
","
","""event"",""trial"",""time""
""fullscreenenter"",""5"",""18086""
","
",481.8999999843072,NA,48,NA,NA,3000,1,NA,NA,images/purpleplanet.jpg,images/alien4,images/alien3,images/rocket2,images/alien4,images/t.png,2,real,true,2,common,1,2020-06-16T20:00:33Z,sub70
two-step-fixation,209,751011,0.0-76.0-2.24,TRUE,TRUE,TRUE,TRUE,"""event"",""trial"",""time""
""fullscreenenter"",""5"",""18086""
","
","
","""event"",""trial"",""time""
""fullscreenenter"",""5"",""18086""
","
",NA,images/earth.jpg,NA,NA,NA,NA,NA,NA,NA,NA,NA,NA,NA,NA,NA,fixation,NA,NA,NA,NA,NA,NA,sub70
d3-animate-choice,210,753366,0.0-76.0-0.25,TRUE,TRUE,TRUE,TRUE,"""event"",""trial"",""time""
""fullscreenenter"",""5"",""18086""
","
","
","""event"",""trial"",""time""
""fullscreenenter"",""5"",""18086""
","
",349.900000001071,NA,49,NA,NA,3000,1,NA,NA,images/earth.jpg,images/rocket2,images/rocket1,null,images/rocket1,NA,1,real,null,1,NA,NA,NA,sub70
d3-animate-choice,211,755763,0.0-76.0-1.25,TRUE,TRUE,TRUE,TRUE,"""event"",""trial"",""time""
""fullscreenenter"",""5"",""18086""
","
","
","""event"",""trial"",""time""
""fullscreenenter"",""5"",""18086""
","
",391.4999999979045,NA,49,NA,NA,3000,1,NA,NA,images/redplanet1.jpg,images/alien2,images/alien1,images/rocket1,images/alien1,images/t.png,2,real,true,1,common,1,2020-06-16T20:00:39Z,sub70
two-step-fixation,212,756765,0.0-76.0-2.25,TRUE,TRUE,TRUE,TRUE,"""event"",""trial"",""time""
""fullscreenenter"",""5"",""18086""
","
","
","""event"",""trial"",""time""
""fullscreenenter"",""5"",""18086""
","
",NA,images/earth.jpg,NA,NA,NA,NA,NA,NA,NA,NA,NA,NA,NA,NA,NA,fixation,NA,NA,NA,NA,NA,NA,sub70
d3-animate-choice,213,759058,0.0-76.0-0.26,TRUE,TRUE,TRUE,TRUE,"""event"",""trial"",""time""
""fullscreenenter"",""5"",""18086""
","
","
","""event"",""trial"",""time""
""fullscreenenter"",""5"",""18086""
","
",288.99999998975545,NA,48,NA,NA,3000,1,NA,NA,images/earth.jpg,images/rocket2,images/rocket1,null,images/rocket2,NA,1,real,null,2,NA,NA,NA,sub70
d3-animate-choice,214,761996,0.0-76.0-1.26,TRUE,TRUE,TRUE,TRUE,"""event"",""trial"",""time""
""fullscreenenter"",""5"",""18086""
","
","
","""event"",""trial"",""time""
""fullscreenenter"",""5"",""18086""
","
",931.9000000250526,NA,48,NA,NA,3000,1,NA,NA,images/purpleplanet.jpg,images/alien4,images/alien3,images/rocket2,images/alien4,images/t.png,2,real,true,2,common,1,2020-06-16T20:00:45Z,sub70
two-step-fixation,215,762999,0.0-76.0-2.26,TRUE,TRUE,TRUE,TRUE,"""event"",""trial"",""time""
""fullscreenenter"",""5"",""18086""
","
","
","""event"",""trial"",""time""
""fullscreenenter"",""5"",""18086""
","
",NA,images/earth.jpg,NA,NA,NA,NA,NA,NA,NA,NA,NA,NA,NA,NA,NA,fixation,NA,NA,NA,NA,NA,NA,sub70
d3-animate-choice,216,765579,0.0-76.0-0.27,TRUE,TRUE,TRUE,TRUE,"""event"",""trial"",""time""
""fullscreenenter"",""5"",""18086""
","
","
","""event"",""trial"",""time""
""fullscreenenter"",""5"",""18086""
","
",574.6999999973923,NA,49,NA,NA,3000,1,NA,NA,images/earth.jpg,images/rocket2,images/rocket1,null,images/rocket1,NA,1,real,null,1,NA,NA,NA,sub70
d3-animate-choice,217,767915,0.0-76.0-1.27,TRUE,TRUE,TRUE,TRUE,"""event"",""trial"",""time""
""fullscreenenter"",""5"",""18086""
","
","
","""event"",""trial"",""time""
""fullscreenenter"",""5"",""18086""
","
",330.9000000008382,NA,49,NA,NA,3000,1,NA,NA,images/redplanet1.jpg,images/alien2,images/alien1,images/rocket1,images/alien1,images/nothing.png,2,real,true,1,common,0,2020-06-16T20:00:51Z,sub70
two-step-fixation,218,768917,0.0-76.0-2.27,TRUE,TRUE,TRUE,TRUE,"""event"",""trial"",""time""
""fullscreenenter"",""5"",""18086""
","
","
","""event"",""trial"",""time""
""fullscreenenter"",""5"",""18086""
","
",NA,images/earth.jpg,NA,NA,NA,NA,NA,NA,NA,NA,NA,NA,NA,NA,NA,fixation,NA,NA,NA,NA,NA,NA,sub70
d3-animate-choice,219,771281,0.0-76.0-0.28,TRUE,TRUE,TRUE,TRUE,"""event"",""trial"",""time""
""fullscreenenter"",""5"",""18086""
","
","
","""event"",""trial"",""time""
""fullscreenenter"",""5"",""18086""
","
",359.3000000109896,NA,48,NA,NA,3000,1,NA,NA,images/earth.jpg,images/rocket2,images/rocket1,null,images/rocket2,NA,1,real,null,2,NA,NA,NA,sub70
d3-animate-choice,220,773625,0.0-76.0-1.28,TRUE,TRUE,TRUE,TRUE,"""event"",""trial"",""time""
""fullscreenenter"",""5"",""18086""
","
","
","""event"",""trial"",""time""
""fullscreenenter"",""5"",""18086""
","
",338.6000000173226,NA,48,NA,NA,3000,1,NA,NA,images/purpleplanet.jpg,images/alien4,images/alien3,images/rocket2,images/alien4,images/nothing.png,2,real,true,2,common,0,2020-06-16T20:00:57Z,sub70
two-step-fixation,221,774629,0.0-76.0-2.28,TRUE,TRUE,TRUE,TRUE,"""event"",""trial"",""time""
""fullscreenenter"",""5"",""18086""
","
","
","""event"",""trial"",""time""
""fullscreenenter"",""5"",""18086""
","
",NA,images/earth.jpg,NA,NA,NA,NA,NA,NA,NA,NA,NA,NA,NA,NA,NA,fixation,NA,NA,NA,NA,NA,NA,sub70
d3-animate-choice,222,777107,0.0-76.0-0.29,TRUE,TRUE,TRUE,TRUE,"""event"",""trial"",""time""
""fullscreenenter"",""5"",""18086""
","
","
","""event"",""trial"",""time""
""fullscreenenter"",""5"",""18086""
","
",473.40000001713634,NA,49,NA,NA,3000,1,NA,NA,images/earth.jpg,images/rocket2,images/rocket1,null,images/rocket1,NA,1,real,null,1,NA,NA,NA,sub70
d3-animate-choice,223,779421,0.0-76.0-1.29,TRUE,TRUE,TRUE,TRUE,"""event"",""trial"",""time""
""fullscreenenter"",""5"",""18086""
","
","
","""event"",""trial"",""time""
""fullscreenenter"",""5"",""18086""
","
",307.19999998109415,NA,48,NA,NA,3000,1,NA,NA,images/redplanet1.jpg,images/alien2,images/alien1,images/rocket1,images/alien2,images/t.png,2,real,true,2,common,1,2020-06-16T20:01:02Z,sub70
two-step-fixation,224,780422,0.0-76.0-2.29,TRUE,TRUE,TRUE,TRUE,"""event"",""trial"",""time""
""fullscreenenter"",""5"",""18086""
","
","
","""event"",""trial"",""time""
""fullscreenenter"",""5"",""18086""
","
",NA,images/earth.jpg,NA,NA,NA,NA,NA,NA,NA,NA,NA,NA,NA,NA,NA,fixation,NA,NA,NA,NA,NA,NA,sub70
d3-animate-choice,225,782746,0.0-76.0-0.30,TRUE,TRUE,TRUE,TRUE,"""event"",""trial"",""time""
""fullscreenenter"",""5"",""18086""
","
","
","""event"",""trial"",""time""
""fullscreenenter"",""5"",""18086""
","
",318.6000000278,NA,48,NA,NA,3000,1,NA,NA,images/earth.jpg,images/rocket2,images/rocket1,null,images/rocket2,NA,1,real,null,2,NA,NA,NA,sub70
d3-animate-choice,226,785124,0.0-76.0-1.30,TRUE,TRUE,TRUE,TRUE,"""event"",""trial"",""time""
""fullscreenenter"",""5"",""18086""
","
","
","""event"",""trial"",""time""
""fullscreenenter"",""5"",""18086""
","
",373.9999999816064,NA,49,NA,NA,3000,1,NA,NA,images/purpleplanet.jpg,images/alien4,images/alien3,images/rocket2,images/alien3,images/nothing.png,2,real,true,1,common,0,2020-06-16T20:01:08Z,sub70
two-step-fixation,227,786126,0.0-76.0-2.30,TRUE,TRUE,TRUE,TRUE,"""event"",""trial"",""time""
""fullscreenenter"",""5"",""18086""
","
","
","""event"",""trial"",""time""
""fullscreenenter"",""5"",""18086""
","
",NA,images/earth.jpg,NA,NA,NA,NA,NA,NA,NA,NA,NA,NA,NA,NA,NA,fixation,NA,NA,NA,NA,NA,NA,sub70
d3-animate-choice,228,789134,0.0-76.0-0.31,TRUE,TRUE,TRUE,TRUE,"""event"",""trial"",""time""
""fullscreenenter"",""5"",""18086""
","
","
","""event"",""trial"",""time""
""fullscreenenter"",""5"",""18086""
","
",1003.100000001723,NA,49,NA,NA,3000,1,NA,NA,images/earth.jpg,images/rocket2,images/rocket1,null,images/rocket1,NA,1,real,null,1,NA,NA,NA,sub70
d3-animate-choice,229,792036,0.0-76.0-1.31,TRUE,TRUE,TRUE,TRUE,"""event"",""trial"",""time""
""fullscreenenter"",""5"",""18086""
","
","
","""event"",""trial"",""time""
""fullscreenenter"",""5"",""18086""
","
",895.3999999794178,NA,48,NA,NA,3000,1,NA,NA,images/redplanet1.jpg,images/alien2,images/alien1,images/rocket1,images/alien2,images/t.png,2,real,true,2,common,1,2020-06-16T20:01:15Z,sub70
two-step-fixation,230,793039,0.0-76.0-2.31,TRUE,TRUE,TRUE,TRUE,"""event"",""trial"",""time""
""fullscreenenter"",""5"",""18086""
","
","
","""event"",""trial"",""time""
""fullscreenenter"",""5"",""18086""
","
",NA,images/earth.jpg,NA,NA,NA,NA,NA,NA,NA,NA,NA,NA,NA,NA,NA,fixation,NA,NA,NA,NA,NA,NA,sub70
d3-animate-choice,231,795353,0.0-76.0-0.32,TRUE,TRUE,TRUE,TRUE,"""event"",""trial"",""time""
""fullscreenenter"",""5"",""18086""
","
","
","""event"",""trial"",""time""
""fullscreenenter"",""5"",""18086""
","
",310.10000000242144,NA,49,NA,NA,3000,1,NA,NA,images/earth.jpg,images/rocket2,images/rocket1,null,images/rocket1,NA,1,real,null,1,NA,NA,NA,sub70
d3-animate-choice,232,797800,0.0-76.0-1.32,TRUE,TRUE,TRUE,TRUE,"""event"",""trial"",""time""
""fullscreenenter"",""5"",""18086""
","
","
","""event"",""trial"",""time""
""fullscreenenter"",""5"",""18086""
","
",441.30000000586733,NA,48,NA,NA,3000,1,NA,NA,images/redplanet1.jpg,images/alien2,images/alien1,images/rocket1,images/alien2,images/t.png,2,real,true,2,common,1,2020-06-16T20:01:21Z,sub70
two-step-fixation,233,798804,0.0-76.0-2.32,TRUE,TRUE,TRUE,TRUE,"""event"",""trial"",""time""
""fullscreenenter"",""5"",""18086""
","
","
","""event"",""trial"",""time""
""fullscreenenter"",""5"",""18086""
","
",NA,images/earth.jpg,NA,NA,NA,NA,NA,NA,NA,NA,NA,NA,NA,NA,NA,fixation,NA,NA,NA,NA,NA,NA,sub70
d3-animate-choice,234,801136,0.0-76.0-0.33,TRUE,TRUE,TRUE,TRUE,"""event"",""trial"",""time""
""fullscreenenter"",""5"",""18086""
","
","
","""event"",""trial"",""time""
""fullscreenenter"",""5"",""18086""
","
",323.499999998603,NA,49,NA,NA,3000,1,NA,NA,images/earth.jpg,images/rocket2,images/rocket1,null,images/rocket1,NA,1,real,null,1,NA,NA,NA,sub70
d3-animate-choice,235,803465,0.0-76.0-1.33,TRUE,TRUE,TRUE,TRUE,"""event"",""trial"",""time""
""fullscreenenter"",""5"",""18086""
","
","
","""event"",""trial"",""time""
""fullscreenenter"",""5"",""18086""
","
",323.4000000229571,NA,48,NA,NA,3000,1,NA,NA,images/redplanet1.jpg,images/alien2,images/alien1,images/rocket1,images/alien2,images/t.png,2,real,true,2,common,1,2020-06-16T20:01:27Z,sub70
two-step-fixation,236,804468,0.0-76.0-2.33,TRUE,TRUE,TRUE,TRUE,"""event"",""trial"",""time""
""fullscreenenter"",""5"",""18086""
","
","
","""event"",""trial"",""time""
""fullscreenenter"",""5"",""18086""
","
",NA,images/earth.jpg,NA,NA,NA,NA,NA,NA,NA,NA,NA,NA,NA,NA,NA,fixation,NA,NA,NA,NA,NA,NA,sub70
d3-animate-choice,237,806821,0.0-76.0-0.34,TRUE,TRUE,TRUE,TRUE,"""event"",""trial"",""time""
""fullscreenenter"",""5"",""18086""
","
","
","""event"",""trial"",""time""
""fullscreenenter"",""5"",""18086""
","
",348.20000000763685,NA,49,NA,NA,3000,1,NA,NA,images/earth.jpg,images/rocket2,images/rocket1,null,images/rocket1,NA,1,real,null,1,NA,NA,NA,sub70
d3-animate-choice,238,809217,0.0-76.0-1.34,TRUE,TRUE,TRUE,TRUE,"""event"",""trial"",""time""
""fullscreenenter"",""5"",""18086""
","
","
","""event"",""trial"",""time""
""fullscreenenter"",""5"",""18086""
","
",390.79999999376014,NA,48,NA,NA,3000,1,NA,NA,images/purpleplanet.jpg,images/alien4,images/alien3,images/rocket1,images/alien4,images/t.png,2,real,false,2,rare,1,2020-06-16T20:01:32Z,sub70
two-step-fixation,239,810221,0.0-76.0-2.34,TRUE,TRUE,TRUE,TRUE,"""event"",""trial"",""time""
""fullscreenenter"",""5"",""18086""
","
","
","""event"",""trial"",""time""
""fullscreenenter"",""5"",""18086""
","
",NA,images/earth.jpg,NA,NA,NA,NA,NA,NA,NA,NA,NA,NA,NA,NA,NA,fixation,NA,NA,NA,NA,NA,NA,sub70
d3-animate-choice,240,812546,0.0-76.0-0.35,TRUE,TRUE,TRUE,TRUE,"""event"",""trial"",""time""
""fullscreenenter"",""5"",""18086""
","
","
","""event"",""trial"",""time""
""fullscreenenter"",""5"",""18086""
","
",320.59999997727573,NA,48,NA,NA,3000,1,NA,NA,images/earth.jpg,images/rocket2,images/rocket1,null,images/rocket2,NA,1,real,null,2,NA,NA,NA,sub70
d3-animate-choice,241,814992,0.0-76.0-1.35,TRUE,TRUE,TRUE,TRUE,"""event"",""trial"",""time""
""fullscreenenter"",""5"",""18086""
","
","
","""event"",""trial"",""time""
""fullscreenenter"",""5"",""18086""
","
",441.499999986263,NA,48,NA,NA,3000,1,NA,NA,images/purpleplanet.jpg,images/alien4,images/alien3,images/rocket2,images/alien4,images/nothing.png,2,real,true,2,common,0,2020-06-16T20:01:38Z,sub70
two-step-fixation,242,815995,0.0-76.0-2.35,TRUE,TRUE,TRUE,TRUE,"""event"",""trial"",""time""
""fullscreenenter"",""5"",""18086""
","
","
","""event"",""trial"",""time""
""fullscreenenter"",""5"",""18086""
","
",NA,images/earth.jpg,NA,NA,NA,NA,NA,NA,NA,NA,NA,NA,NA,NA,NA,fixation,NA,NA,NA,NA,NA,NA,sub70
d3-animate-choice,243,818370,0.0-76.0-0.36,TRUE,TRUE,TRUE,TRUE,"""event"",""trial"",""time""
""fullscreenenter"",""5"",""18086""
","
","
","""event"",""trial"",""time""
""fullscreenenter"",""5"",""18086""
","
",369.7999999858439,NA,48,NA,NA,3000,1,NA,NA,images/earth.jpg,images/rocket2,images/rocket1,null,images/rocket2,NA,1,real,null,2,NA,NA,NA,sub70
d3-animate-choice,244,820807,0.0-76.0-1.36,TRUE,TRUE,TRUE,TRUE,"""event"",""trial"",""time""
""fullscreenenter"",""5"",""18086""
","
","
","""event"",""trial"",""time""
""fullscreenenter"",""5"",""18086""
","
",429.2999999888707,NA,49,NA,NA,3000,1,NA,NA,images/purpleplanet.jpg,images/alien4,images/alien3,images/rocket2,images/alien3,images/nothing.png,2,real,true,1,common,0,2020-06-16T20:01:44Z,sub70
two-step-fixation,245,821809,0.0-76.0-2.36,TRUE,TRUE,TRUE,TRUE,"""event"",""trial"",""time""
""fullscreenenter"",""5"",""18086""
","
","
","""event"",""trial"",""time""
""fullscreenenter"",""5"",""18086""
","
",NA,images/earth.jpg,NA,NA,NA,NA,NA,NA,NA,NA,NA,NA,NA,NA,NA,fixation,NA,NA,NA,NA,NA,NA,sub70
d3-animate-choice,246,824164,0.0-76.0-0.37,TRUE,TRUE,TRUE,TRUE,"""event"",""trial"",""time""
""fullscreenenter"",""5"",""18086""
","
","
","""event"",""trial"",""time""
""fullscreenenter"",""5"",""18086""
","
",351.49999998975545,NA,49,NA,NA,3000,1,NA,NA,images/earth.jpg,images/rocket2,images/rocket1,null,images/rocket1,NA,1,real,null,1,NA,NA,NA,sub70
d3-animate-choice,247,827908,0.0-76.0-1.37,TRUE,TRUE,TRUE,TRUE,"""event"",""trial"",""time""
""fullscreenenter"",""5"",""18086""
","
","
","""event"",""trial"",""time""
""fullscreenenter"",""5"",""18086""
","
",1738.4000000020023,NA,48,NA,NA,3000,1,NA,NA,images/purpleplanet.jpg,images/alien4,images/alien3,images/rocket1,images/alien4,images/t.png,2,real,false,2,rare,1,2020-06-16T20:01:51Z,sub70
two-step-fixation,248,828910,0.0-76.0-2.37,TRUE,TRUE,TRUE,TRUE,"""event"",""trial"",""time""
""fullscreenenter"",""5"",""18086""
","
","
","""event"",""trial"",""time""
""fullscreenenter"",""5"",""18086""
","
",NA,images/earth.jpg,NA,NA,NA,NA,NA,NA,NA,NA,NA,NA,NA,NA,NA,fixation,NA,NA,NA,NA,NA,NA,sub70
d3-animate-choice,249,831345,0.0-76.0-0.38,TRUE,TRUE,TRUE,TRUE,"""event"",""trial"",""time""
""fullscreenenter"",""5"",""18086""
","
","
","""event"",""trial"",""time""
""fullscreenenter"",""5"",""18086""
","
",430.19999997341074,NA,48,NA,NA,3000,1,NA,NA,images/earth.jpg,images/rocket2,images/rocket1,null,images/rocket2,NA,1,real,null,2,NA,NA,NA,sub70
d3-animate-choice,250,833773,0.0-76.0-1.38,TRUE,TRUE,TRUE,TRUE,"""event"",""trial"",""time""
""fullscreenenter"",""5"",""18086""
","
","
","""event"",""trial"",""time""
""fullscreenenter"",""5"",""18086""
","
",422.099999996135,NA,48,NA,NA,3000,1,NA,NA,images/purpleplanet.jpg,images/alien4,images/alien3,images/rocket2,images/alien4,images/t.png,2,real,true,2,common,1,2020-06-16T20:01:57Z,sub70
two-step-fixation,251,834776,0.0-76.0-2.38,TRUE,TRUE,TRUE,TRUE,"""event"",""trial"",""time""
""fullscreenenter"",""5"",""18086""
","
","
","""event"",""trial"",""time""
""fullscreenenter"",""5"",""18086""
","
",NA,images/earth.jpg,NA,NA,NA,NA,NA,NA,NA,NA,NA,NA,NA,NA,NA,fixation,NA,NA,NA,NA,NA,NA,sub70
d3-animate-choice,252,837101,0.0-76.0-0.39,TRUE,TRUE,TRUE,TRUE,"""event"",""trial"",""time""
""fullscreenenter"",""5"",""18086""
","
","
","""event"",""trial"",""time""
""fullscreenenter"",""5"",""18086""
","
",320.80000001587905,NA,49,NA,NA,3000,1,NA,NA,images/earth.jpg,images/rocket2,images/rocket1,null,images/rocket1,NA,1,real,null,1,NA,NA,NA,sub70
d3-animate-choice,253,839602,0.0-76.0-1.39,TRUE,TRUE,TRUE,TRUE,"""event"",""trial"",""time""
""fullscreenenter"",""5"",""18086""
","
","
","""event"",""trial"",""time""
""fullscreenenter"",""5"",""18086""
","
",493.0000000167638,NA,48,NA,NA,3000,1,NA,NA,images/redplanet1.jpg,images/alien2,images/alien1,images/rocket1,images/alien2,images/t.png,2,real,true,2,common,1,2020-06-16T20:02:03Z,sub70
two-step-fixation,254,840604,0.0-76.0-2.39,TRUE,TRUE,TRUE,TRUE,"""event"",""trial"",""time""
""fullscreenenter"",""5"",""18086""
","
","
","""event"",""trial"",""time""
""fullscreenenter"",""5"",""18086""
","
",NA,images/earth.jpg,NA,NA,NA,NA,NA,NA,NA,NA,NA,NA,NA,NA,NA,fixation,NA,NA,NA,NA,NA,NA,sub70
d3-animate-choice,255,843019,0.0-76.0-0.40,TRUE,TRUE,TRUE,TRUE,"""event"",""trial"",""time""
""fullscreenenter"",""5"",""18086""
","
","
","""event"",""trial"",""time""
""fullscreenenter"",""5"",""18086""
","
",409.8999999987427,NA,49,NA,NA,3000,1,NA,NA,images/earth.jpg,images/rocket2,images/rocket1,null,images/rocket1,NA,1,real,null,1,NA,NA,NA,sub70
d3-animate-choice,256,845549,0.0-76.0-1.40,TRUE,TRUE,TRUE,TRUE,"""event"",""trial"",""time""
""fullscreenenter"",""5"",""18086""
","
","
","""event"",""trial"",""time""
""fullscreenenter"",""5"",""18086""
","
",524.3999999947846,NA,48,NA,NA,3000,1,NA,NA,images/redplanet1.jpg,images/alien2,images/alien1,images/rocket1,images/alien2,images/nothing.png,2,real,true,2,common,0,2020-06-16T20:02:09Z,sub70
two-step-fixation,257,846552,0.0-76.0-2.40,TRUE,TRUE,TRUE,TRUE,"""event"",""trial"",""time""
""fullscreenenter"",""5"",""18086""
","
","
","""event"",""trial"",""time""
""fullscreenenter"",""5"",""18086""
","
",NA,images/earth.jpg,NA,NA,NA,NA,NA,NA,NA,NA,NA,NA,NA,NA,NA,fixation,NA,NA,NA,NA,NA,NA,sub70
d3-animate-choice,258,848848,0.0-76.0-0.41,TRUE,TRUE,TRUE,TRUE,"""event"",""trial"",""time""
""fullscreenenter"",""5"",""18086""
","
","
","""event"",""trial"",""time""
""fullscreenenter"",""5"",""18086""
","
",290.7999999879394,NA,49,NA,NA,3000,1,NA,NA,images/earth.jpg,images/rocket2,images/rocket1,null,images/rocket1,NA,1,real,null,1,NA,NA,NA,sub70
d3-animate-choice,259,851672,0.0-76.0-1.41,TRUE,TRUE,TRUE,TRUE,"""event"",""trial"",""time""
""fullscreenenter"",""5"",""18086""
","
","
","""event"",""trial"",""time""
""fullscreenenter"",""5"",""18086""
","
",818.5999999986961,NA,48,NA,NA,3000,1,NA,NA,images/purpleplanet.jpg,images/alien4,images/alien3,images/rocket1,images/alien4,images/nothing.png,2,real,false,2,rare,0,2020-06-16T20:02:15Z,sub70
two-step-fixation,260,852675,0.0-76.0-2.41,TRUE,TRUE,TRUE,TRUE,"""event"",""trial"",""time""
""fullscreenenter"",""5"",""18086""
","
","
","""event"",""trial"",""time""
""fullscreenenter"",""5"",""18086""
","
",NA,images/earth.jpg,NA,NA,NA,NA,NA,NA,NA,NA,NA,NA,NA,NA,NA,fixation,NA,NA,NA,NA,NA,NA,sub70
d3-animate-choice,261,855029,0.0-76.0-0.42,TRUE,TRUE,TRUE,TRUE,"""event"",""trial"",""time""
""fullscreenenter"",""5"",""18086""
","
","
","""event"",""trial"",""time""
""fullscreenenter"",""5"",""18086""
","
",349.50000001117587,NA,48,NA,NA,3000,1,NA,NA,images/earth.jpg,images/rocket2,images/rocket1,null,images/rocket2,NA,1,real,null,2,NA,NA,NA,sub70
d3-animate-choice,262,857469,0.0-76.0-1.42,TRUE,TRUE,TRUE,TRUE,"""event"",""trial"",""time""
""fullscreenenter"",""5"",""18086""
","
","
","""event"",""trial"",""time""
""fullscreenenter"",""5"",""18086""
","
",431.69999998644926,NA,49,NA,NA,3000,1,NA,NA,images/redplanet1.jpg,images/alien2,images/alien1,images/rocket2,images/alien1,images/t.png,2,real,false,1,rare,1,2020-06-16T20:02:21Z,sub70
two-step-fixation,263,858471,0.0-76.0-2.42,TRUE,TRUE,TRUE,TRUE,"""event"",""trial"",""time""
""fullscreenenter"",""5"",""18086""
","
","
","""event"",""trial"",""time""
""fullscreenenter"",""5"",""18086""
","
",NA,images/earth.jpg,NA,NA,NA,NA,NA,NA,NA,NA,NA,NA,NA,NA,NA,fixation,NA,NA,NA,NA,NA,NA,sub70
d3-animate-choice,264,860785,0.0-76.0-0.43,TRUE,TRUE,TRUE,TRUE,"""event"",""trial"",""time""
""fullscreenenter"",""5"",""18086""
","
","
","""event"",""trial"",""time""
""fullscreenenter"",""5"",""18086""
","
",308.69999999413267,NA,49,NA,NA,3000,1,NA,NA,images/earth.jpg,images/rocket2,images/rocket1,null,images/rocket1,NA,1,real,null,1,NA,NA,NA,sub70
d3-animate-choice,265,863183,0.0-76.0-1.43,TRUE,TRUE,TRUE,TRUE,"""event"",""trial"",""time""
""fullscreenenter"",""5"",""18086""
","
","
","""event"",""trial"",""time""
""fullscreenenter"",""5"",""18086""
","
",392.09999999729916,NA,49,NA,NA,3000,1,NA,NA,images/redplanet1.jpg,images/alien2,images/alien1,images/rocket1,images/alien1,images/nothing.png,2,real,true,1,common,0,2020-06-16T20:02:26Z,sub70
two-step-fixation,266,864186,0.0-76.0-2.43,TRUE,TRUE,TRUE,TRUE,"""event"",""trial"",""time""
""fullscreenenter"",""5"",""18086""
","
","
","""event"",""trial"",""time""
""fullscreenenter"",""5"",""18086""
","
",NA,images/earth.jpg,NA,NA,NA,NA,NA,NA,NA,NA,NA,NA,NA,NA,NA,fixation,NA,NA,NA,NA,NA,NA,sub70
d3-animate-choice,267,866488,0.0-76.0-0.44,TRUE,TRUE,TRUE,TRUE,"""event"",""trial"",""time""
""fullscreenenter"",""5"",""18086""
","
","
","""event"",""trial"",""time""
""fullscreenenter"",""5"",""18086""
","
",298.10000001452863,NA,48,NA,NA,3000,1,NA,NA,images/earth.jpg,images/rocket2,images/rocket1,null,images/rocket2,NA,1,real,null,2,NA,NA,NA,sub70
d3-animate-choice,268,869187,0.0-76.0-1.44,TRUE,TRUE,TRUE,TRUE,"""event"",""trial"",""time""
""fullscreenenter"",""5"",""18086""
","
","
","""event"",""trial"",""time""
""fullscreenenter"",""5"",""18086""
","
",693.9000000129454,NA,49,NA,NA,3000,1,NA,NA,images/purpleplanet.jpg,images/alien4,images/alien3,images/rocket2,images/alien3,images/nothing.png,2,real,true,1,common,0,2020-06-16T20:02:32Z,sub70
two-step-fixation,269,870191,0.0-76.0-2.44,TRUE,TRUE,TRUE,TRUE,"""event"",""trial"",""time""
""fullscreenenter"",""5"",""18086""
","
","
","""event"",""trial"",""time""
""fullscreenenter"",""5"",""18086""
","
",NA,images/earth.jpg,NA,NA,NA,NA,NA,NA,NA,NA,NA,NA,NA,NA,NA,fixation,NA,NA,NA,NA,NA,NA,sub70
d3-animate-choice,270,872515,0.0-76.0-0.45,TRUE,TRUE,TRUE,TRUE,"""event"",""trial"",""time""
""fullscreenenter"",""5"",""18086""
","
","
","""event"",""trial"",""time""
""fullscreenenter"",""5"",""18086""
","
",319.9000000022352,NA,48,NA,NA,3000,1,NA,NA,images/earth.jpg,images/rocket2,images/rocket1,null,images/rocket2,NA,1,real,null,2,NA,NA,NA,sub70
d3-animate-choice,271,874984,0.0-76.0-1.45,TRUE,TRUE,TRUE,TRUE,"""event"",""trial"",""time""
""fullscreenenter"",""5"",""18086""
","
","
","""event"",""trial"",""time""
""fullscreenenter"",""5"",""18086""
","
",462.7000000036787,NA,48,NA,NA,3000,1,NA,NA,images/purpleplanet.jpg,images/alien4,images/alien3,images/rocket2,images/alien4,images/t.png,2,real,true,2,common,1,2020-06-16T20:02:38Z,sub70
two-step-fixation,272,875987,0.0-76.0-2.45,TRUE,TRUE,TRUE,TRUE,"""event"",""trial"",""time""
""fullscreenenter"",""5"",""18086""
","
","
","""event"",""trial"",""time""
""fullscreenenter"",""5"",""18086""
","
",NA,images/earth.jpg,NA,NA,NA,NA,NA,NA,NA,NA,NA,NA,NA,NA,NA,fixation,NA,NA,NA,NA,NA,NA,sub70
d3-animate-choice,273,878257,0.0-76.0-0.46,TRUE,TRUE,TRUE,TRUE,"""event"",""trial"",""time""
""fullscreenenter"",""5"",""18086""
","
","
","""event"",""trial"",""time""
""fullscreenenter"",""5"",""18086""
","
",266.30000001750886,NA,48,NA,NA,3000,1,NA,NA,images/earth.jpg,images/rocket2,images/rocket1,null,images/rocket2,NA,1,real,null,2,NA,NA,NA,sub70
d3-animate-choice,274,880683,0.0-76.0-1.46,TRUE,TRUE,TRUE,TRUE,"""event"",""trial"",""time""
""fullscreenenter"",""5"",""18086""
","
","
","""event"",""trial"",""time""
""fullscreenenter"",""5"",""18086""
","
",421.19999998249114,NA,48,NA,NA,3000,1,NA,NA,images/purpleplanet.jpg,images/alien4,images/alien3,images/rocket2,images/alien4,images/t.png,2,real,true,2,common,1,2020-06-16T20:02:44Z,sub70
two-step-fixation,275,881686,0.0-76.0-2.46,TRUE,TRUE,TRUE,TRUE,"""event"",""trial"",""time""
""fullscreenenter"",""5"",""18086""
","
","
","""event"",""trial"",""time""
""fullscreenenter"",""5"",""18086""
","
",NA,images/earth.jpg,NA,NA,NA,NA,NA,NA,NA,NA,NA,NA,NA,NA,NA,fixation,NA,NA,NA,NA,NA,NA,sub70
d3-animate-choice,276,884042,0.0-76.0-0.47,TRUE,TRUE,TRUE,TRUE,"""event"",""trial"",""time""
""fullscreenenter"",""5"",""18086""
","
","
","""event"",""trial"",""time""
""fullscreenenter"",""5"",""18086""
","
",350.8999999903608,NA,48,NA,NA,3000,1,NA,NA,images/earth.jpg,images/rocket2,images/rocket1,null,images/rocket2,NA,1,real,null,2,NA,NA,NA,sub70
d3-animate-choice,277,886865,0.0-76.0-1.47,TRUE,TRUE,TRUE,TRUE,"""event"",""trial"",""time""
""fullscreenenter"",""5"",""18086""
","
","
","""event"",""trial"",""time""
""fullscreenenter"",""5"",""18086""
","
",817.2000000195112,NA,49,NA,NA,3000,1,NA,NA,images/redplanet1.jpg,images/alien2,images/alien1,images/rocket2,images/alien1,images/nothing.png,2,real,false,1,rare,0,2020-06-16T20:02:50Z,sub70
two-step-fixation,278,887867,0.0-76.0-2.47,TRUE,TRUE,TRUE,TRUE,"""event"",""trial"",""time""
""fullscreenenter"",""5"",""18086""
","
","
","""event"",""trial"",""time""
""fullscreenenter"",""5"",""18086""
","
",NA,images/earth.jpg,NA,NA,NA,NA,NA,NA,NA,NA,NA,NA,NA,NA,NA,fixation,NA,NA,NA,NA,NA,NA,sub70
d3-animate-choice,279,890213,0.0-76.0-0.48,TRUE,TRUE,TRUE,TRUE,"""event"",""trial"",""time""
""fullscreenenter"",""5"",""18086""
","
","
","""event"",""trial"",""time""
""fullscreenenter"",""5"",""18086""
","
",340.9000000101514,NA,49,NA,NA,3000,1,NA,NA,images/earth.jpg,images/rocket2,images/rocket1,null,images/rocket1,NA,1,real,null,1,NA,NA,NA,sub70
d3-animate-choice,280,892538,0.0-76.0-1.48,TRUE,TRUE,TRUE,TRUE,"""event"",""trial"",""time""
""fullscreenenter"",""5"",""18086""
","
","
","""event"",""trial"",""time""
""fullscreenenter"",""5"",""18086""
","
",319.9000000022352,NA,48,NA,NA,3000,1,NA,NA,images/purpleplanet.jpg,images/alien4,images/alien3,images/rocket1,images/alien4,images/t.png,2,real,false,2,rare,1,2020-06-16T20:02:56Z,sub70
two-step-fixation,281,893541,0.0-76.0-2.48,TRUE,TRUE,TRUE,TRUE,"""event"",""trial"",""time""
""fullscreenenter"",""5"",""18086""
","
","
","""event"",""trial"",""time""
""fullscreenenter"",""5"",""18086""
","
",NA,images/earth.jpg,NA,NA,NA,NA,NA,NA,NA,NA,NA,NA,NA,NA,NA,fixation,NA,NA,NA,NA,NA,NA,sub70
d3-animate-choice,282,895875,0.0-76.0-0.49,TRUE,TRUE,TRUE,TRUE,"""event"",""trial"",""time""
""fullscreenenter"",""5"",""18086""
","
","
","""event"",""trial"",""time""
""fullscreenenter"",""5"",""18086""
","
",329.29999998304993,NA,49,NA,NA,3000,1,NA,NA,images/earth.jpg,images/rocket2,images/rocket1,null,images/rocket1,NA,1,real,null,1,NA,NA,NA,sub70
d3-animate-choice,283,898285,0.0-76.0-1.49,TRUE,TRUE,TRUE,TRUE,"""event"",""trial"",""time""
""fullscreenenter"",""5"",""18086""
","
","
","""event"",""trial"",""time""
""fullscreenenter"",""5"",""18086""
","
",404.99999999883585,NA,48,NA,NA,3000,1,NA,NA,images/redplanet1.jpg,images/alien2,images/alien1,images/rocket1,images/alien2,images/nothing.png,2,real,true,2,common,0,2020-06-16T20:03:01Z,sub70
two-step-fixation,284,899288,0.0-76.0-2.49,TRUE,TRUE,TRUE,TRUE,"""event"",""trial"",""time""
""fullscreenenter"",""5"",""18086""
","
","
","""event"",""trial"",""time""
""fullscreenenter"",""5"",""18086""
","
",NA,images/earth.jpg,NA,NA,NA,NA,NA,NA,NA,NA,NA,NA,NA,NA,NA,fixation,NA,NA,NA,NA,NA,NA,sub70
audio-button-response-2,285,909733,0.0-77.0,TRUE,TRUE,TRUE,TRUE,"""event"",""trial"",""time""
