trial_type,trial_index,time_elapsed,internal_node_id,rocket_sides,red_planet_first_rocket,red_display_order,purple_display_order,interactions,blur_events,focus_events,fullscreenenter_events,fullscreenexit_events,rt,stimulus,key_press,button_pressed,success,duration,valid_pressed,rts,keys,planet_text,right_text,left_text,center_text,chosen_text,reward_text,trial_stage,practice_trial,transition_type,choice,transition,reward,timestamp,subject_id
pavlovia,0,9,0.0-0.0,TRUE,TRUE,TRUE,FALSE,"
","
","
","
","
",NA,NA,NA,NA,NA,NA,NA,NA,NA,NA,NA,NA,NA,NA,NA,NA,NA,NA,NA,NA,NA,NA,sub113
html-keyboard-response,1,3506,0.0-1.0,TRUE,TRUE,TRUE,FALSE,"
","
","
","
","
",3494.1600000020117,Welcome! Press the space bar to begin.,32,NA,NA,NA,NA,NA,NA,NA,NA,NA,NA,NA,NA,NA,NA,NA,NA,NA,NA,NA,sub113
audio-keyboard-response,2,6592,0.0-2.0,TRUE,TRUE,TRUE,FALSE,"
","
","
","
","
",1320,audio/beep_loop.wav,32,NA,NA,NA,NA,NA,NA,NA,NA,NA,NA,NA,NA,NA,NA,NA,NA,NA,NA,NA,sub113
audio-button-response,3,8781,0.0-3.0,TRUE,TRUE,TRUE,FALSE,"
","
","
","
","
",NaN,audio/fish.mp3,NA,1,NA,NA,NA,NA,NA,NA,NA,NA,NA,NA,NA,NA,NA,NA,NA,NA,NA,NA,sub113
audio-button-response,4,11360,0.0-4.0,TRUE,TRUE,TRUE,FALSE,"""event"",""trial"",""time""
""fullscreenenter"",""5"",""18531""
","
","
","""event"",""trial"",""time""
""fullscreenenter"",""5"",""18531""
","
",NaN,audio/tiger.mp3,NA,4,NA,NA,NA,NA,NA,NA,NA,NA,NA,NA,NA,NA,NA,NA,NA,NA,NA,NA,sub113
fullscreen,5,19461,0.0-5.0,TRUE,TRUE,TRUE,FALSE,"""event"",""trial"",""time""
""fullscreenenter"",""5"",""18531""
","
","
","""event"",""trial"",""time""
""fullscreenenter"",""5"",""18531""
","
",NA,NA,NA,NA,TRUE,NA,NA,NA,NA,NA,NA,NA,NA,NA,NA,NA,NA,NA,NA,NA,NA,NA,sub113
d3-instructions,6,45222,0.0-6.0,TRUE,TRUE,TRUE,FALSE,"""event"",""trial"",""time""
""fullscreenenter"",""5"",""18531""
","
","
","""event"",""trial"",""time""
""fullscreenenter"",""5"",""18531""
","
",NA,NA,NA,NA,NA,NA,NA,NA,NA,NA,NA,NA,NA,NA,NA,NA,NA,NA,NA,NA,NA,NA,sub113
d3-instructions,7,55275,0.0-7.0,TRUE,TRUE,TRUE,FALSE,"""event"",""trial"",""time""
""fullscreenenter"",""5"",""18531""
","
","
","""event"",""trial"",""time""
""fullscreenenter"",""5"",""18531""
","
",NA,NA,NA,NA,NA,NA,NA,NA,NA,NA,NA,NA,NA,NA,NA,NA,NA,NA,NA,NA,NA,NA,sub113
d3-instructions,8,62936,0.0-8.0,TRUE,TRUE,TRUE,FALSE,"""event"",""trial"",""time""
""fullscreenenter"",""5"",""18531""
","
","
","""event"",""trial"",""time""
""fullscreenenter"",""5"",""18531""
","
",NA,NA,NA,NA,NA,NA,NA,NA,NA,NA,NA,NA,NA,NA,NA,NA,NA,NA,NA,NA,NA,NA,sub113
d3-instructions,9,74622,0.0-9.0,TRUE,TRUE,TRUE,FALSE,"""event"",""trial"",""time""
""fullscreenenter"",""5"",""18531""
","
","
","""event"",""trial"",""time""
""fullscreenenter"",""5"",""18531""
","
",NA,NA,NA,NA,NA,NA,NA,NA,NA,NA,NA,NA,NA,NA,NA,NA,NA,NA,NA,NA,NA,NA,sub113
d3-instructions,10,96034,0.0-10.0,TRUE,TRUE,TRUE,FALSE,"""event"",""trial"",""time""
""fullscreenenter"",""5"",""18531""
","
","
","""event"",""trial"",""time""
""fullscreenenter"",""5"",""18531""
","
",NA,NA,NA,NA,NA,NA,NA,NA,NA,NA,NA,NA,NA,NA,NA,NA,NA,NA,NA,NA,NA,NA,sub113
d3-animate-choice,11,105997,0.0-11.0,TRUE,TRUE,TRUE,FALSE,"""event"",""trial"",""time""
""fullscreenenter"",""5"",""18531""
","
","
","""event"",""trial"",""time""
""fullscreenenter"",""5"",""18531""
","
",7938.029999990249,NA,49,NA,NA,3000,1,9230.73999999906,50,images/tutgreenplanet.jpg,images/tutalien1,images/tutalien2,null,images/tutalien2,NA,NA,practice,null,NA,NA,NA,NA,sub113
d3-animate-choice,12,109388,0.0-12.0,TRUE,TRUE,TRUE,FALSE,"""event"",""trial"",""time""
""fullscreenenter"",""5"",""18531""
","
","
","""event"",""trial"",""time""
""fullscreenenter"",""5"",""18531""
","
",1379.4700000144076,NA,48,NA,NA,3000,1,3257.1049999969546,49,images/tutgreenplanet.jpg,images/tutalien1,images/tutalien2,null,images/tutalien1,NA,NA,practice,null,NA,NA,NA,NA,sub113
d3-animate-choice,13,111954,0.0-13.0,TRUE,TRUE,TRUE,FALSE,"""event"",""trial"",""time""
""fullscreenenter"",""5"",""18531""
","
","
","""event"",""trial"",""time""
""fullscreenenter"",""5"",""18531""
","
",557.0599999919068,NA,49,NA,NA,3000,1,2000.094999995781,48,images/tutgreenplanet.jpg,images/tutalien1,images/tutalien2,null,images/tutalien2,NA,NA,practice,null,NA,NA,NA,NA,sub113
d3-animate-choice,14,114339,0.0-14.0,TRUE,TRUE,TRUE,FALSE,"""event"",""trial"",""time""
""fullscreenenter"",""5"",""18531""
","
","
","""event"",""trial"",""time""
""fullscreenenter"",""5"",""18531""
","
",376.22999999439344,NA,48,NA,NA,3000,1,NA,NA,images/tutgreenplanet.jpg,images/tutalien1,images/tutalien2,null,images/tutalien1,NA,NA,practice,null,NA,NA,NA,NA,sub113
d3-instructions,15,123679,0.0-15.0,TRUE,TRUE,TRUE,FALSE,"""event"",""trial"",""time""
""fullscreenenter"",""5"",""18531""
","
","
","""event"",""trial"",""time""
""fullscreenenter"",""5"",""18531""
","
",NA,NA,NA,NA,NA,NA,NA,NA,NA,NA,NA,NA,NA,NA,NA,NA,NA,NA,NA,NA,NA,NA,sub113
d3-instructions,16,135338,0.0-16.0,TRUE,TRUE,TRUE,FALSE,"""event"",""trial"",""time""
""fullscreenenter"",""5"",""18531""
","
","
","""event"",""trial"",""time""
""fullscreenenter"",""5"",""18531""
","
",NA,NA,NA,NA,NA,NA,NA,NA,NA,NA,NA,NA,NA,NA,NA,NA,NA,NA,NA,NA,NA,NA,sub113
d3-instructions,17,147085,0.0-17.0,TRUE,TRUE,TRUE,FALSE,"""event"",""trial"",""time""
""fullscreenenter"",""5"",""18531""
","
","
","""event"",""trial"",""time""
""fullscreenenter"",""5"",""18531""
","
",NA,NA,NA,NA,NA,NA,NA,NA,NA,NA,NA,NA,NA,NA,NA,NA,NA,NA,NA,NA,NA,NA,sub113
d3-instructions,18,160937,0.0-18.0,TRUE,TRUE,TRUE,FALSE,"""event"",""trial"",""time""
""fullscreenenter"",""5"",""18531""
","
","
","""event"",""trial"",""time""
""fullscreenenter"",""5"",""18531""
","
",NA,NA,NA,NA,NA,NA,NA,NA,NA,NA,NA,NA,NA,NA,NA,NA,NA,NA,NA,NA,NA,NA,sub113
d3-instructions,19,175413,0.0-19.0,TRUE,TRUE,TRUE,FALSE,"""event"",""trial"",""time""
""fullscreenenter"",""5"",""18531""
","
","
","""event"",""trial"",""time""
""fullscreenenter"",""5"",""18531""
","
",NA,NA,NA,NA,NA,NA,NA,NA,NA,NA,NA,NA,NA,NA,NA,NA,NA,NA,NA,NA,NA,NA,sub113
d3-animate-choice,20,181162,0.0-20.0,TRUE,TRUE,TRUE,FALSE,"""event"",""trial"",""time""
""fullscreenenter"",""5"",""18531""
","
","
","""event"",""trial"",""time""
""fullscreenenter"",""5"",""18531""
","
",3067.479999997886,NA,81,NA,NA,3000,1,"3739.9750000040513,4830.49000002211",4949,images/tutyellowplanet.jpg,null,images/tutalien3,null,images/tutalien3,images/t.png,NA,practice,null,NA,NA,NA,NA,sub113
d3-animate-choice,21,183650,0.0-21.0,TRUE,TRUE,TRUE,FALSE,"""event"",""trial"",""time""
""fullscreenenter"",""5"",""18531""
","
","
","""event"",""trial"",""time""
""fullscreenenter"",""5"",""18531""
","
",479.73500000080094,NA,49,NA,NA,3000,1,1434.9849999998696,49,images/tutyellowplanet.jpg,null,images/tutalien3,null,images/tutalien3,images/t.png,NA,practice,null,NA,NA,NA,NA,sub113
d3-animate-choice,22,185983,0.0-22.0,TRUE,TRUE,TRUE,FALSE,"""event"",""trial"",""time""
""fullscreenenter"",""5"",""18531""
","
","
","""event"",""trial"",""time""
""fullscreenenter"",""5"",""18531""
","
",325.0500000140164,NA,49,NA,NA,3000,1,1038.1300000008196,49,images/tutyellowplanet.jpg,null,images/tutalien3,null,images/tutalien3,images/nothing.png,NA,practice,null,NA,NA,NA,NA,sub113
d3-animate-choice,23,190118,0.0-23.0,TRUE,TRUE,TRUE,FALSE,"""event"",""trial"",""time""
""fullscreenenter"",""5"",""18531""
","
","
","""event"",""trial"",""time""
""fullscreenenter"",""5"",""18531""
","
",2126.7100000113714,NA,49,NA,NA,3000,1,2557.875000027707,49,images/tutyellowplanet.jpg,null,images/tutalien3,null,images/tutalien3,images/t.png,NA,practice,null,NA,NA,NA,NA,sub113
d3-animate-choice,24,192499,0.0-24.0,TRUE,TRUE,TRUE,FALSE,"""event"",""trial"",""time""
""fullscreenenter"",""5"",""18531""
","
","
","""event"",""trial"",""time""
""fullscreenenter"",""5"",""18531""
","
",374.519999983022,NA,49,NA,NA,3000,1,833.0649999843445,49,images/tutyellowplanet.jpg,null,images/tutalien3,null,images/tutalien3,images/t.png,NA,practice,null,NA,NA,NA,NA,sub113
d3-animate-choice,25,195247,0.0-25.0,TRUE,TRUE,TRUE,FALSE,"""event"",""trial"",""time""
""fullscreenenter"",""5"",""18531""
","
","
","""event"",""trial"",""time""
""fullscreenenter"",""5"",""18531""
","
",738.8999999966472,NA,49,NA,NA,3000,1,1242.580000020098,49,images/tutyellowplanet.jpg,null,images/tutalien3,null,images/tutalien3,images/t.png,NA,practice,null,NA,NA,NA,NA,sub113
d3-animate-choice,26,197994,0.0-26.0,TRUE,TRUE,TRUE,FALSE,"""event"",""trial"",""time""
""fullscreenenter"",""5"",""18531""
","
","
","""event"",""trial"",""time""
""fullscreenenter"",""5"",""18531""
","
",740.5700000235811,NA,49,NA,NA,3000,1,1454.7100000199862,49,images/tutyellowplanet.jpg,null,images/tutalien3,null,images/tutalien3,images/t.png,NA,practice,null,NA,NA,NA,NA,sub113
d3-animate-choice,27,200275,0.0-27.0,TRUE,TRUE,TRUE,FALSE,"""event"",""trial"",""time""
""fullscreenenter"",""5"",""18531""
","
","
","""event"",""trial"",""time""
""fullscreenenter"",""5"",""18531""
","
",273.09999999124557,NA,49,NA,NA,3000,1,1068.794999999227,49,images/tutyellowplanet.jpg,null,images/tutalien3,null,images/tutalien3,images/t.png,NA,practice,null,NA,NA,NA,NA,sub113
d3-animate-choice,28,202525,0.0-28.0,TRUE,TRUE,TRUE,FALSE,"""event"",""trial"",""time""
""fullscreenenter"",""5"",""18531""
","
","
","""event"",""trial"",""time""
""fullscreenenter"",""5"",""18531""
","
",242.91500000981614,NA,49,NA,NA,3000,1,766.2750000017695,49,images/tutyellowplanet.jpg,null,images/tutalien3,null,images/tutalien3,images/t.png,NA,practice,null,NA,NA,NA,NA,sub113
d3-animate-choice,29,204812,0.0-29.0,TRUE,TRUE,TRUE,FALSE,"""event"",""trial"",""time""
""fullscreenenter"",""5"",""18531""
","
","
","""event"",""trial"",""time""
""fullscreenenter"",""5"",""18531""
","
",280.11500000138767,NA,49,NA,NA,3000,1,915.6350000121165,49,images/tutyellowplanet.jpg,null,images/tutalien3,null,images/tutalien3,images/t.png,NA,practice,null,NA,NA,NA,NA,sub113
d3-instructions,30,252567,0.0-30.0,TRUE,TRUE,TRUE,FALSE,"""event"",""trial"",""time""
""fullscreenenter"",""5"",""18531""
","
","
","""event"",""trial"",""time""
""fullscreenenter"",""5"",""18531""
","
",NA,NA,NA,NA,NA,NA,NA,NA,NA,NA,NA,NA,NA,NA,NA,NA,NA,NA,NA,NA,NA,NA,sub113
d3-instructions,31,263373,0.0-31.0,TRUE,TRUE,TRUE,FALSE,"""event"",""trial"",""time""
""fullscreenenter"",""5"",""18531""
","
","
","""event"",""trial"",""time""
""fullscreenenter"",""5"",""18531""
","
",NA,NA,NA,NA,NA,NA,NA,NA,NA,NA,NA,NA,NA,NA,NA,NA,NA,NA,NA,NA,NA,NA,sub113
d3-instructions,32,272971,0.0-32.0,TRUE,TRUE,TRUE,FALSE,"""event"",""trial"",""time""
""fullscreenenter"",""5"",""18531""
","
","
","""event"",""trial"",""time""
""fullscreenenter"",""5"",""18531""
","
",NA,NA,NA,NA,NA,NA,NA,NA,NA,NA,NA,NA,NA,NA,NA,NA,NA,NA,NA,NA,NA,NA,sub113
d3-instructions,33,282821,0.0-33.0,TRUE,TRUE,TRUE,FALSE,"""event"",""trial"",""time""
""fullscreenenter"",""5"",""18531""
","
","
","""event"",""trial"",""time""
""fullscreenenter"",""5"",""18531""
","
",NA,NA,NA,NA,NA,NA,NA,NA,NA,NA,NA,NA,NA,NA,NA,NA,NA,NA,NA,NA,NA,NA,sub113
d3-animate-choice,34,288444,0.0-34.0,TRUE,TRUE,TRUE,FALSE,"""event"",""trial"",""time""
""fullscreenenter"",""5"",""18531""
","
","
","""event"",""trial"",""time""
""fullscreenenter"",""5"",""18531""
","
",3613.26499999268,NA,49,NA,NA,3000,1,NA,NA,images/tutgreenplanet.jpg,images/tutalien1,images/tutalien2,null,images/tutalien2,images/t.png,NA,practice,null,NA,NA,NA,NA,sub113
d3-animate-choice,35,291765,0.0-35.0,TRUE,TRUE,TRUE,FALSE,"""event"",""trial"",""time""
""fullscreenenter"",""5"",""18531""
","
","
","""event"",""trial"",""time""
""fullscreenenter"",""5"",""18531""
","
",1311.4699999860022,NA,48,NA,NA,3000,1,NA,NA,images/tutgreenplanet.jpg,images/tutalien1,images/tutalien2,null,images/tutalien1,images/nothing.png,NA,practice,null,NA,NA,NA,NA,sub113
d3-animate-choice,36,295227,0.0-36.0,TRUE,TRUE,TRUE,FALSE,"""event"",""trial"",""time""
""fullscreenenter"",""5"",""18531""
","
","
","""event"",""trial"",""time""
""fullscreenenter"",""5"",""18531""
","
",1454.074999986915,NA,49,NA,NA,3000,1,NA,NA,images/tutgreenplanet.jpg,images/tutalien1,images/tutalien2,null,images/tutalien2,images/t.png,NA,practice,null,NA,NA,NA,NA,sub113
d3-animate-choice,37,298035,0.0-37.0,TRUE,TRUE,TRUE,FALSE,"""event"",""trial"",""time""
""fullscreenenter"",""5"",""18531""
","
","
","""event"",""trial"",""time""
""fullscreenenter"",""5"",""18531""
","
",799.8349999834318,NA,49,NA,NA,3000,1,NA,NA,images/tutgreenplanet.jpg,images/tutalien1,images/tutalien2,null,images/tutalien2,images/t.png,NA,practice,null,NA,NA,NA,NA,sub113
d3-animate-choice,38,301267,0.0-38.0,TRUE,TRUE,TRUE,FALSE,"""event"",""trial"",""time""
""fullscreenenter"",""5"",""18531""
","
","
","""event"",""trial"",""time""
""fullscreenenter"",""5"",""18531""
","
",1223.2749999966472,NA,48,NA,NA,3000,1,NA,NA,images/tutgreenplanet.jpg,images/tutalien1,images/tutalien2,null,images/tutalien1,images/nothing.png,NA,practice,null,NA,NA,NA,NA,sub113
d3-animate-choice,39,303610,0.0-39.0,TRUE,TRUE,TRUE,FALSE,"""event"",""trial"",""time""
""fullscreenenter"",""5"",""18531""
","
","
","""event"",""trial"",""time""
""fullscreenenter"",""5"",""18531""
","
",334.4300000171643,NA,49,NA,NA,3000,1,NA,NA,images/tutgreenplanet.jpg,images/tutalien1,images/tutalien2,null,images/tutalien2,images/t.png,NA,practice,null,NA,NA,NA,NA,sub113
d3-animate-choice,40,306350,0.0-40.0,TRUE,TRUE,TRUE,FALSE,"""event"",""trial"",""time""
""fullscreenenter"",""5"",""18531""
","
","
","""event"",""trial"",""time""
""fullscreenenter"",""5"",""18531""
","
",731.820000015432,NA,49,NA,NA,3000,1,NA,NA,images/tutgreenplanet.jpg,images/tutalien1,images/tutalien2,null,images/tutalien2,images/t.png,NA,practice,null,NA,NA,NA,NA,sub113
d3-animate-choice,41,308847,0.0-41.0,TRUE,TRUE,TRUE,FALSE,"""event"",""trial"",""time""
""fullscreenenter"",""5"",""18531""
","
","
","""event"",""trial"",""time""
""fullscreenenter"",""5"",""18531""
","
",488.4899999888148,NA,49,NA,NA,3000,1,NA,NA,images/tutgreenplanet.jpg,images/tutalien1,images/tutalien2,null,images/tutalien2,images/t.png,NA,practice,null,NA,NA,NA,NA,sub113
d3-animate-choice,42,311183,0.0-42.0,TRUE,TRUE,TRUE,FALSE,"""event"",""trial"",""time""
""fullscreenenter"",""5"",""18531""
","
","
","""event"",""trial"",""time""
""fullscreenenter"",""5"",""18531""
","
",327.4649999802932,NA,49,NA,NA,3000,1,NA,NA,images/tutgreenplanet.jpg,images/tutalien1,images/tutalien2,null,images/tutalien2,images/t.png,NA,practice,null,NA,NA,NA,NA,sub113
d3-animate-choice,43,313543,0.0-43.0,TRUE,TRUE,TRUE,FALSE,"""event"",""trial"",""time""
""fullscreenenter"",""5"",""18531""
","
","
","""event"",""trial"",""time""
""fullscreenenter"",""5"",""18531""
","
",350.3500000224449,NA,49,NA,NA,3000,1,NA,NA,images/tutgreenplanet.jpg,images/tutalien1,images/tutalien2,null,images/tutalien2,images/t.png,NA,practice,null,NA,NA,NA,NA,sub113
d3-instructions,44,331587,0.0-44.0,TRUE,TRUE,TRUE,FALSE,"""event"",""trial"",""time""
""fullscreenenter"",""5"",""18531""
","
","
","""event"",""trial"",""time""
""fullscreenenter"",""5"",""18531""
","
",NA,NA,NA,NA,NA,NA,NA,NA,NA,NA,NA,NA,NA,NA,NA,NA,NA,NA,NA,NA,NA,NA,sub113
d3-instructions,45,337864,0.0-45.0,TRUE,TRUE,TRUE,FALSE,"""event"",""trial"",""time""
""fullscreenenter"",""5"",""18531""
","
","
","""event"",""trial"",""time""
""fullscreenenter"",""5"",""18531""
","
",NA,NA,NA,NA,NA,NA,NA,NA,NA,NA,NA,NA,NA,NA,NA,NA,NA,NA,NA,NA,NA,NA,sub113
d3-instructions,46,342076,0.0-46.0,TRUE,TRUE,TRUE,FALSE,"""event"",""trial"",""time""
""fullscreenenter"",""5"",""18531""
","
","
","""event"",""trial"",""time""
""fullscreenenter"",""5"",""18531""
","
",NA,NA,NA,NA,NA,NA,NA,NA,NA,NA,NA,NA,NA,NA,NA,NA,NA,NA,NA,NA,NA,NA,sub113
d3-instructions,47,360053,0.0-47.0,TRUE,TRUE,TRUE,FALSE,"""event"",""trial"",""time""
""fullscreenenter"",""5"",""18531""
","
","
","""event"",""trial"",""time""
""fullscreenenter"",""5"",""18531""
","
",NA,NA,NA,NA,NA,NA,NA,NA,NA,NA,NA,NA,NA,NA,NA,NA,NA,NA,NA,NA,NA,NA,sub113
d3-instructions,48,366434,0.0-48.0,TRUE,TRUE,TRUE,FALSE,"""event"",""trial"",""time""
""fullscreenenter"",""5"",""18531""
","
","
","""event"",""trial"",""time""
""fullscreenenter"",""5"",""18531""
","
",NA,NA,NA,NA,NA,NA,NA,NA,NA,NA,NA,NA,NA,NA,NA,NA,NA,NA,NA,NA,NA,NA,sub113
d3-instructions,49,378844,0.0-49.0,TRUE,TRUE,TRUE,FALSE,"""event"",""trial"",""time""
""fullscreenenter"",""5"",""18531""
","
","
","""event"",""trial"",""time""
""fullscreenenter"",""5"",""18531""
","
",NA,NA,NA,NA,NA,NA,NA,NA,NA,NA,NA,NA,NA,NA,NA,NA,NA,NA,NA,NA,NA,NA,sub113
d3-instructions,50,388018,0.0-50.0,TRUE,TRUE,TRUE,FALSE,"""event"",""trial"",""time""
""fullscreenenter"",""5"",""18531""
","
","
","""event"",""trial"",""time""
""fullscreenenter"",""5"",""18531""
","
",NA,NA,NA,NA,NA,NA,NA,NA,NA,NA,NA,NA,NA,NA,NA,NA,NA,NA,NA,NA,NA,NA,sub113
d3-instructions,51,390300,0.0-51.0,TRUE,TRUE,TRUE,FALSE,"""event"",""trial"",""time""
""fullscreenenter"",""5"",""18531""
","
","
","""event"",""trial"",""time""
""fullscreenenter"",""5"",""18531""
","
",NA,NA,NA,NA,NA,NA,NA,NA,NA,NA,NA,NA,NA,NA,NA,NA,NA,NA,NA,NA,NA,NA,sub113
d3-instructions,52,392484,0.0-52.0,TRUE,TRUE,TRUE,FALSE,"""event"",""trial"",""time""
""fullscreenenter"",""5"",""18531""
","
","
","""event"",""trial"",""time""
""fullscreenenter"",""5"",""18531""
","
",NA,NA,NA,NA,NA,NA,NA,NA,NA,NA,NA,NA,NA,NA,NA,NA,NA,NA,NA,NA,NA,NA,sub113
d3-instructions,53,405496,0.0-53.0,TRUE,TRUE,TRUE,FALSE,"""event"",""trial"",""time""
""fullscreenenter"",""5"",""18531""
","
","
","""event"",""trial"",""time""
""fullscreenenter"",""5"",""18531""
","
",NA,NA,NA,NA,NA,NA,NA,NA,NA,NA,NA,NA,NA,NA,NA,NA,NA,NA,NA,NA,NA,NA,sub113
d3-instructions,54,424059,0.0-54.0,TRUE,TRUE,TRUE,FALSE,"""event"",""trial"",""time""
""fullscreenenter"",""5"",""18531""
","
","
","""event"",""trial"",""time""
""fullscreenenter"",""5"",""18531""
","
",NA,NA,NA,NA,NA,NA,NA,NA,NA,NA,NA,NA,NA,NA,NA,NA,NA,NA,NA,NA,NA,NA,sub113
d3-instructions,55,428069,0.0-55.0,TRUE,TRUE,TRUE,FALSE,"""event"",""trial"",""time""
""fullscreenenter"",""5"",""18531""
","
","
","""event"",""trial"",""time""
""fullscreenenter"",""5"",""18531""
","
",NA,NA,NA,NA,NA,NA,NA,NA,NA,NA,NA,NA,NA,NA,NA,NA,NA,NA,NA,NA,NA,NA,sub113
d3-instructions,56,437116,0.0-56.0,TRUE,TRUE,TRUE,FALSE,"""event"",""trial"",""time""
""fullscreenenter"",""5"",""18531""
","
","
","""event"",""trial"",""time""
""fullscreenenter"",""5"",""18531""
","
",NA,NA,NA,NA,NA,NA,NA,NA,NA,NA,NA,NA,NA,NA,NA,NA,NA,NA,NA,NA,NA,NA,sub113
d3-instructions,57,447581,0.0-57.0,TRUE,TRUE,TRUE,FALSE,"""event"",""trial"",""time""
""fullscreenenter"",""5"",""18531""
","
","
","""event"",""trial"",""time""
""fullscreenenter"",""5"",""18531""
","
",NA,NA,NA,NA,NA,NA,NA,NA,NA,NA,NA,NA,NA,NA,NA,NA,NA,NA,NA,NA,NA,NA,sub113
d3-instructions,58,463345,0.0-58.0,TRUE,TRUE,TRUE,FALSE,"""event"",""trial"",""time""
""fullscreenenter"",""5"",""18531""
","
","
","""event"",""trial"",""time""
""fullscreenenter"",""5"",""18531""
","
",NA,NA,NA,NA,NA,NA,NA,NA,NA,NA,NA,NA,NA,NA,NA,NA,NA,NA,NA,NA,NA,NA,sub113
d3-instructions,59,471757,0.0-59.0,TRUE,TRUE,TRUE,FALSE,"""event"",""trial"",""time""
""fullscreenenter"",""5"",""18531""
","
","
","""event"",""trial"",""time""
""fullscreenenter"",""5"",""18531""
","
",NA,NA,NA,NA,NA,NA,NA,NA,NA,NA,NA,NA,NA,NA,NA,NA,NA,NA,NA,NA,NA,NA,sub113
d3-instructions,60,479180,0.0-60.0,TRUE,TRUE,TRUE,FALSE,"""event"",""trial"",""time""
""fullscreenenter"",""5"",""18531""
","
","
","""event"",""trial"",""time""
""fullscreenenter"",""5"",""18531""
","
",NA,NA,NA,NA,NA,NA,NA,NA,NA,NA,NA,NA,NA,NA,NA,NA,NA,NA,NA,NA,NA,NA,sub113
d3-animate-choice,61,481863,0.0-61.0-0.0,TRUE,TRUE,TRUE,FALSE,"""event"",""trial"",""time""
""fullscreenenter"",""5"",""18531""
","
","
","""event"",""trial"",""time""
""fullscreenenter"",""5"",""18531""
","
",670.4399999871384,NA,48,NA,NA,3000,1,NA,NA,images/earth.jpg,images/tutrocket1,images/tutrocket2,null,images/tutrocket1,NA,1,practice,null,2,NA,NA,NA,sub113
d3-animate-choice,62,484064,0.0-61.0-1.0,TRUE,TRUE,TRUE,FALSE,"""event"",""trial"",""time""
""fullscreenenter"",""5"",""18531""
","
","
","""event"",""trial"",""time""
""fullscreenenter"",""5"",""18531""
","
",183.17500001285225,NA,49,NA,NA,3000,1,NA,NA,images/tutgreenplanet.jpg,images/tutalien2,images/tutalien1,images/tutrocket1,images/tutalien1,images/nothing.png,2,practice,true,1,common,0,2020-07-02T21:51:50Z,sub113
two-step-fixation,63,485080,0.0-61.0-2.0,TRUE,TRUE,TRUE,FALSE,"""event"",""trial"",""time""
""fullscreenenter"",""5"",""18531""
","
","
","""event"",""trial"",""time""
""fullscreenenter"",""5"",""18531""
","
",NA,images/earth.jpg,NA,NA,NA,NA,NA,NA,NA,NA,NA,NA,NA,NA,NA,fixation,NA,NA,NA,NA,NA,NA,sub113
d3-animate-choice,64,487683,0.0-61.0-0.1,TRUE,TRUE,TRUE,FALSE,"""event"",""trial"",""time""
""fullscreenenter"",""5"",""18531""
","
","
","""event"",""trial"",""time""
""fullscreenenter"",""5"",""18531""
","
",595.8999999857042,NA,48,NA,NA,3000,1,NA,NA,images/earth.jpg,images/tutrocket1,images/tutrocket2,null,images/tutrocket1,NA,1,practice,null,2,NA,NA,NA,sub113
d3-animate-choice,65,491169,0.0-61.0-1.1,TRUE,TRUE,TRUE,FALSE,"""event"",""trial"",""time""
""fullscreenenter"",""5"",""18531""
","
","
","""event"",""trial"",""time""
""fullscreenenter"",""5"",""18531""
","
",1480.6849999877159,NA,49,NA,NA,3000,1,NA,NA,images/tutgreenplanet.jpg,images/tutalien2,images/tutalien1,images/tutrocket1,images/tutalien1,images/nothing.png,2,practice,true,1,common,0,2020-07-02T21:51:57Z,sub113
two-step-fixation,66,492178,0.0-61.0-2.1,TRUE,TRUE,TRUE,FALSE,"""event"",""trial"",""time""
""fullscreenenter"",""5"",""18531""
","
","
","""event"",""trial"",""time""
""fullscreenenter"",""5"",""18531""
","
",NA,images/earth.jpg,NA,NA,NA,NA,NA,NA,NA,NA,NA,NA,NA,NA,NA,fixation,NA,NA,NA,NA,NA,NA,sub113
d3-animate-choice,67,494824,0.0-61.0-0.2,TRUE,TRUE,TRUE,FALSE,"""event"",""trial"",""time""
""fullscreenenter"",""5"",""18531""
","
","
","""event"",""trial"",""time""
""fullscreenenter"",""5"",""18531""
","
",635.2350000233855,NA,48,NA,NA,3000,1,NA,NA,images/earth.jpg,images/tutrocket1,images/tutrocket2,null,images/tutrocket1,NA,1,practice,null,2,NA,NA,NA,sub113
d3-animate-choice,68,497253,0.0-61.0-1.2,TRUE,TRUE,TRUE,FALSE,"""event"",""trial"",""time""
""fullscreenenter"",""5"",""18531""
","
","
","""event"",""trial"",""time""
""fullscreenenter"",""5"",""18531""
","
",418.62000001128763,NA,48,NA,NA,3000,1,NA,NA,images/tutgreenplanet.jpg,images/tutalien2,images/tutalien1,images/tutrocket1,images/tutalien2,images/nothing.png,2,practice,true,2,common,0,2020-07-02T21:52:03Z,sub113
two-step-fixation,69,498262,0.0-61.0-2.2,TRUE,TRUE,TRUE,FALSE,"""event"",""trial"",""time""
""fullscreenenter"",""5"",""18531""
","
","
","""event"",""trial"",""time""
""fullscreenenter"",""5"",""18531""
","
",NA,images/earth.jpg,NA,NA,NA,NA,NA,NA,NA,NA,NA,NA,NA,NA,NA,fixation,NA,NA,NA,NA,NA,NA,sub113
d3-animate-choice,70,500657,0.0-61.0-0.3,TRUE,TRUE,TRUE,FALSE,"""event"",""trial"",""time""
""fullscreenenter"",""5"",""18531""
","
","
","""event"",""trial"",""time""
""fullscreenenter"",""5"",""18531""
","
",384.34000001871027,NA,49,NA,NA,3000,1,NA,NA,images/earth.jpg,images/tutrocket1,images/tutrocket2,null,images/tutrocket2,NA,1,practice,null,1,NA,NA,NA,sub113
d3-animate-choice,71,503066,0.0-61.0-1.3,TRUE,TRUE,TRUE,FALSE,"""event"",""trial"",""time""
""fullscreenenter"",""5"",""18531""
","
","
","""event"",""trial"",""time""
""fullscreenenter"",""5"",""18531""
","
",391.6800000006333,NA,48,NA,NA,3000,1,NA,NA,images/tutyellowplanet.jpg,images/tutalien4,images/tutalien3,images/tutrocket2,images/tutalien4,images/nothing.png,2,practice,true,2,common,0,2020-07-02T21:52:09Z,sub113
two-step-fixation,72,504074,0.0-61.0-2.3,TRUE,TRUE,TRUE,FALSE,"""event"",""trial"",""time""
""fullscreenenter"",""5"",""18531""
","
","
","""event"",""trial"",""time""
""fullscreenenter"",""5"",""18531""
","
",NA,images/earth.jpg,NA,NA,NA,NA,NA,NA,NA,NA,NA,NA,NA,NA,NA,fixation,NA,NA,NA,NA,NA,NA,sub113
d3-animate-choice,73,507177,0.0-61.0-0.4,TRUE,TRUE,TRUE,FALSE,"""event"",""trial"",""time""
""fullscreenenter"",""5"",""18531""
","
","
","""event"",""trial"",""time""
""fullscreenenter"",""5"",""18531""
","
",1091.9599999906495,NA,48,NA,NA,3000,1,NA,NA,images/earth.jpg,images/tutrocket1,images/tutrocket2,null,images/tutrocket1,NA,1,practice,null,2,NA,NA,NA,sub113
d3-animate-choice,74,510291,0.0-61.0-1.4,TRUE,TRUE,TRUE,FALSE,"""event"",""trial"",""time""
""fullscreenenter"",""5"",""18531""
","
","
","""event"",""trial"",""time""
""fullscreenenter"",""5"",""18531""
","
",1104.1799999948125,NA,49,NA,NA,3000,1,NA,NA,images/tutgreenplanet.jpg,images/tutalien2,images/tutalien1,images/tutrocket1,images/tutalien1,images/nothing.png,2,practice,true,1,common,0,2020-07-02T21:52:16Z,sub113
two-step-fixation,75,511300,0.0-61.0-2.4,TRUE,TRUE,TRUE,FALSE,"""event"",""trial"",""time""
""fullscreenenter"",""5"",""18531""
","
","
","""event"",""trial"",""time""
""fullscreenenter"",""5"",""18531""
","
",NA,images/earth.jpg,NA,NA,NA,NA,NA,NA,NA,NA,NA,NA,NA,NA,NA,fixation,NA,NA,NA,NA,NA,NA,sub113
d3-animate-choice,76,513608,0.0-61.0-0.5,TRUE,TRUE,TRUE,FALSE,"""event"",""trial"",""time""
""fullscreenenter"",""5"",""18531""
","
","
","""event"",""trial"",""time""
""fullscreenenter"",""5"",""18531""
","
",297.7899999823421,NA,48,NA,NA,3000,1,NA,NA,images/earth.jpg,images/tutrocket1,images/tutrocket2,null,images/tutrocket1,NA,1,practice,null,2,NA,NA,NA,sub113
d3-animate-choice,77,516227,0.0-61.0-1.5,TRUE,TRUE,TRUE,FALSE,"""event"",""trial"",""time""
""fullscreenenter"",""5"",""18531""
","
","
","""event"",""trial"",""time""
""fullscreenenter"",""5"",""18531""
","
",608.3299999882001,NA,48,NA,NA,3000,1,NA,NA,images/tutgreenplanet.jpg,images/tutalien2,images/tutalien1,images/tutrocket1,images/tutalien2,images/nothing.png,2,practice,true,2,common,0,2020-07-02T21:52:22Z,sub113
two-step-fixation,78,517236,0.0-61.0-2.5,TRUE,TRUE,TRUE,FALSE,"""event"",""trial"",""time""
""fullscreenenter"",""5"",""18531""
","
","
","""event"",""trial"",""time""
""fullscreenenter"",""5"",""18531""
","
",NA,images/earth.jpg,NA,NA,NA,NA,NA,NA,NA,NA,NA,NA,NA,NA,NA,fixation,NA,NA,NA,NA,NA,NA,sub113
d3-animate-choice,79,519468,0.0-61.0-0.6,TRUE,TRUE,TRUE,FALSE,"""event"",""trial"",""time""
""fullscreenenter"",""5"",""18531""
","
","
","""event"",""trial"",""time""
""fullscreenenter"",""5"",""18531""
","
",221.90000000409782,NA,49,NA,NA,3000,1,NA,NA,images/earth.jpg,images/tutrocket1,images/tutrocket2,null,images/tutrocket2,NA,1,practice,null,1,NA,NA,NA,sub113
d3-animate-choice,80,521848,0.0-61.0-1.6,TRUE,TRUE,TRUE,FALSE,"""event"",""trial"",""time""
""fullscreenenter"",""5"",""18531""
","
","
","""event"",""trial"",""time""
""fullscreenenter"",""5"",""18531""
","
",371.7049999977462,NA,49,NA,NA,3000,1,NA,NA,images/tutyellowplanet.jpg,images/tutalien4,images/tutalien3,images/tutrocket2,images/tutalien3,images/nothing.png,2,practice,true,1,common,0,2020-07-02T21:52:27Z,sub113
two-step-fixation,81,522857,0.0-61.0-2.6,TRUE,TRUE,TRUE,FALSE,"""event"",""trial"",""time""
""fullscreenenter"",""5"",""18531""
","
","
","""event"",""trial"",""time""
""fullscreenenter"",""5"",""18531""
","
",NA,images/earth.jpg,NA,NA,NA,NA,NA,NA,NA,NA,NA,NA,NA,NA,NA,fixation,NA,NA,NA,NA,NA,NA,sub113
d3-animate-choice,82,524944,0.0-61.0-0.7,TRUE,TRUE,TRUE,FALSE,"""event"",""trial"",""time""
""fullscreenenter"",""5"",""18531""
","
","
","""event"",""trial"",""time""
""fullscreenenter"",""5"",""18531""
","
",78.39499998954125,NA,48,NA,NA,3000,1,NA,NA,images/earth.jpg,images/tutrocket1,images/tutrocket2,null,images/tutrocket1,NA,1,practice,null,2,NA,NA,NA,sub113
d3-animate-choice,83,527272,0.0-61.0-1.7,TRUE,TRUE,TRUE,FALSE,"""event"",""trial"",""time""
""fullscreenenter"",""5"",""18531""
","
","
","""event"",""trial"",""time""
""fullscreenenter"",""5"",""18531""
","
",318.83999999263324,NA,48,NA,NA,3000,1,NA,NA,images/tutgreenplanet.jpg,images/tutalien2,images/tutalien1,images/tutrocket1,images/tutalien2,images/nothing.png,2,practice,true,2,common,0,2020-07-02T21:52:33Z,sub113
two-step-fixation,84,528280,0.0-61.0-2.7,TRUE,TRUE,TRUE,FALSE,"""event"",""trial"",""time""
""fullscreenenter"",""5"",""18531""
","
","
","""event"",""trial"",""time""
""fullscreenenter"",""5"",""18531""
","
",NA,images/earth.jpg,NA,NA,NA,NA,NA,NA,NA,NA,NA,NA,NA,NA,NA,fixation,NA,NA,NA,NA,NA,NA,sub113
d3-animate-choice,85,530951,0.0-61.0-0.8,TRUE,TRUE,TRUE,FALSE,"""event"",""trial"",""time""
""fullscreenenter"",""5"",""18531""
","
","
","""event"",""trial"",""time""
""fullscreenenter"",""5"",""18531""
","
",660.5350000027101,NA,49,NA,NA,3000,1,NA,NA,images/earth.jpg,images/tutrocket1,images/tutrocket2,null,images/tutrocket2,NA,1,practice,null,1,NA,NA,NA,sub113
d3-animate-choice,86,533162,0.0-61.0-1.8,TRUE,TRUE,TRUE,FALSE,"""event"",""trial"",""time""
""fullscreenenter"",""5"",""18531""
","
","
","""event"",""trial"",""time""
""fullscreenenter"",""5"",""18531""
","
",201.29500000621192,NA,48,NA,NA,3000,1,NA,NA,images/tutyellowplanet.jpg,images/tutalien4,images/tutalien3,images/tutrocket2,images/tutalien4,images/t.png,2,practice,true,2,common,1,2020-07-02T21:52:39Z,sub113
two-step-fixation,87,534171,0.0-61.0-2.8,TRUE,TRUE,TRUE,FALSE,"""event"",""trial"",""time""
""fullscreenenter"",""5"",""18531""
","
","
","""event"",""trial"",""time""
""fullscreenenter"",""5"",""18531""
","
",NA,images/earth.jpg,NA,NA,NA,NA,NA,NA,NA,NA,NA,NA,NA,NA,NA,fixation,NA,NA,NA,NA,NA,NA,sub113
d3-animate-choice,88,536579,0.0-61.0-0.9,TRUE,TRUE,TRUE,FALSE,"""event"",""trial"",""time""
""fullscreenenter"",""5"",""18531""
","
","
","""event"",""trial"",""time""
""fullscreenenter"",""5"",""18531""
","
",398.9200000069104,NA,49,NA,NA,3000,1,NA,NA,images/earth.jpg,images/tutrocket1,images/tutrocket2,null,images/tutrocket2,NA,1,practice,null,1,NA,NA,NA,sub113
d3-animate-choice,89,538827,0.0-61.0-1.9,TRUE,TRUE,TRUE,FALSE,"""event"",""trial"",""time""
""fullscreenenter"",""5"",""18531""
","
","
","""event"",""trial"",""time""
""fullscreenenter"",""5"",""18531""
","
",238.00500002107583,NA,49,NA,NA,3000,1,NA,NA,images/tutyellowplanet.jpg,images/tutalien4,images/tutalien3,images/tutrocket2,images/tutalien3,images/t.png,2,practice,true,1,common,1,2020-07-02T21:52:44Z,sub113
two-step-fixation,90,539835,0.0-61.0-2.9,TRUE,TRUE,TRUE,FALSE,"""event"",""trial"",""time""
""fullscreenenter"",""5"",""18531""
","
","
","""event"",""trial"",""time""
""fullscreenenter"",""5"",""18531""
","
",NA,images/earth.jpg,NA,NA,NA,NA,NA,NA,NA,NA,NA,NA,NA,NA,NA,fixation,NA,NA,NA,NA,NA,NA,sub113
d3-animate-choice,91,542463,0.0-61.0-0.10,TRUE,TRUE,TRUE,FALSE,"""event"",""trial"",""time""
""fullscreenenter"",""5"",""18531""
","
","
","""event"",""trial"",""time""
""fullscreenenter"",""5"",""18531""
","
",612.4000000127126,NA,48,NA,NA,3000,1,NA,NA,images/earth.jpg,images/tutrocket1,images/tutrocket2,null,images/tutrocket1,NA,1,practice,null,2,NA,NA,NA,sub113
d3-animate-choice,92,544704,0.0-61.0-1.10,TRUE,TRUE,TRUE,FALSE,"""event"",""trial"",""time""
""fullscreenenter"",""5"",""18531""
","
","
","""event"",""trial"",""time""
""fullscreenenter"",""5"",""18531""
","
",232.0400000025984,NA,48,NA,NA,3000,1,NA,NA,images/tutgreenplanet.jpg,images/tutalien2,images/tutalien1,images/tutrocket1,images/tutalien2,images/nothing.png,2,practice,true,2,common,0,2020-07-02T21:52:50Z,sub113
two-step-fixation,93,545713,0.0-61.0-2.10,TRUE,TRUE,TRUE,FALSE,"""event"",""trial"",""time""
""fullscreenenter"",""5"",""18531""
","
","
","""event"",""trial"",""time""
""fullscreenenter"",""5"",""18531""
","
",NA,images/earth.jpg,NA,NA,NA,NA,NA,NA,NA,NA,NA,NA,NA,NA,NA,fixation,NA,NA,NA,NA,NA,NA,sub113
d3-animate-choice,94,548009,0.0-61.0-0.11,TRUE,TRUE,TRUE,FALSE,"""event"",""trial"",""time""
""fullscreenenter"",""5"",""18531""
","
","
","""event"",""trial"",""time""
""fullscreenenter"",""5"",""18531""
","
",284.8649999941699,NA,49,NA,NA,3000,1,1751.1349999986123,48,images/earth.jpg,images/tutrocket1,images/tutrocket2,null,images/tutrocket2,NA,1,practice,null,1,NA,NA,NA,sub113
d3-animate-choice,95,550246,0.0-61.0-1.11,TRUE,TRUE,TRUE,FALSE,"""event"",""trial"",""time""
""fullscreenenter"",""5"",""18531""
","
","
","""event"",""trial"",""time""
""fullscreenenter"",""5"",""18531""
","
",227.51499997684732,NA,48,NA,NA,3000,1,NA,NA,images/tutyellowplanet.jpg,images/tutalien4,images/tutalien3,images/tutrocket2,images/tutalien4,images/nothing.png,2,practice,true,2,common,0,2020-07-02T21:52:56Z,sub113
two-step-fixation,96,551254,0.0-61.0-2.11,TRUE,TRUE,TRUE,FALSE,"""event"",""trial"",""time""
""fullscreenenter"",""5"",""18531""
","
","
","""event"",""trial"",""time""
""fullscreenenter"",""5"",""18531""
","
",NA,images/earth.jpg,NA,NA,NA,NA,NA,NA,NA,NA,NA,NA,NA,NA,NA,fixation,NA,NA,NA,NA,NA,NA,sub113
d3-animate-choice,97,553597,0.0-61.0-0.12,TRUE,TRUE,TRUE,FALSE,"""event"",""trial"",""time""
""fullscreenenter"",""5"",""18531""
","
","
","""event"",""trial"",""time""
""fullscreenenter"",""5"",""18531""
","
",338.2700000074692,NA,48,NA,NA,3000,1,NA,NA,images/earth.jpg,images/tutrocket1,images/tutrocket2,null,images/tutrocket1,NA,1,practice,null,2,NA,NA,NA,sub113
d3-animate-choice,98,555740,0.0-61.0-1.12,TRUE,TRUE,TRUE,FALSE,"""event"",""trial"",""time""
""fullscreenenter"",""5"",""18531""
","
","
","""event"",""trial"",""time""
""fullscreenenter"",""5"",""18531""
","
",135.78000001143664,NA,48,NA,NA,3000,1,NA,NA,images/tutgreenplanet.jpg,images/tutalien2,images/tutalien1,images/tutrocket1,images/tutalien2,images/nothing.png,2,practice,true,2,common,0,2020-07-02T21:53:01Z,sub113
two-step-fixation,99,556749,0.0-61.0-2.12,TRUE,TRUE,TRUE,FALSE,"""event"",""trial"",""time""
""fullscreenenter"",""5"",""18531""
","
","
","""event"",""trial"",""time""
""fullscreenenter"",""5"",""18531""
","
",NA,images/earth.jpg,NA,NA,NA,NA,NA,NA,NA,NA,NA,NA,NA,NA,NA,fixation,NA,NA,NA,NA,NA,NA,sub113
d3-animate-choice,100,559147,0.0-61.0-0.13,TRUE,TRUE,TRUE,FALSE,"""event"",""trial"",""time""
""fullscreenenter"",""5"",""18531""
","
","
","""event"",""trial"",""time""
""fullscreenenter"",""5"",""18531""
","
",388.6950000014622,NA,49,NA,NA,3000,1,2386.129999998957,49,images/earth.jpg,images/tutrocket1,images/tutrocket2,null,images/tutrocket2,NA,1,practice,null,1,NA,NA,NA,sub113
d3-animate-choice,101,562804,0.0-61.0-1.13,TRUE,TRUE,TRUE,FALSE,"""event"",""trial"",""time""
""fullscreenenter"",""5"",""18531""
","
","
","""event"",""trial"",""time""
""fullscreenenter"",""5"",""18531""
","
",1647.0000000263099,NA,48,NA,NA,3000,1,NA,NA,images/tutyellowplanet.jpg,images/tutalien4,images/tutalien3,images/tutrocket2,images/tutalien4,images/t.png,2,practice,true,2,common,1,2020-07-02T21:53:08Z,sub113
two-step-fixation,102,563813,0.0-61.0-2.13,TRUE,TRUE,TRUE,FALSE,"""event"",""trial"",""time""
""fullscreenenter"",""5"",""18531""
","
","
","""event"",""trial"",""time""
""fullscreenenter"",""5"",""18531""
","
",NA,images/earth.jpg,NA,NA,NA,NA,NA,NA,NA,NA,NA,NA,NA,NA,NA,fixation,NA,NA,NA,NA,NA,NA,sub113
d3-animate-choice,103,565832,0.0-61.0-0.14,TRUE,TRUE,TRUE,FALSE,"""event"",""trial"",""time""
""fullscreenenter"",""5"",""18531""
","
","
","""event"",""trial"",""time""
""fullscreenenter"",""5"",""18531""
","
",8.434999996097758,NA,48,NA,NA,3000,1,NA,NA,images/earth.jpg,images/tutrocket1,images/tutrocket2,null,images/tutrocket1,NA,1,practice,null,2,NA,NA,NA,sub113
d3-animate-choice,104,568194,0.0-61.0-1.14,TRUE,TRUE,TRUE,FALSE,"""event"",""trial"",""time""
""fullscreenenter"",""5"",""18531""
","
","
","""event"",""trial"",""time""
""fullscreenenter"",""5"",""18531""
","
",352.7099999773782,NA,49,NA,NA,3000,1,NA,NA,images/tutgreenplanet.jpg,images/tutalien2,images/tutalien1,images/tutrocket1,images/tutalien1,images/nothing.png,2,practice,true,1,common,0,2020-07-02T21:53:14Z,sub113
two-step-fixation,105,569202,0.0-61.0-2.14,TRUE,TRUE,TRUE,FALSE,"""event"",""trial"",""time""
""fullscreenenter"",""5"",""18531""
","
","
","""event"",""trial"",""time""
""fullscreenenter"",""5"",""18531""
","
",NA,images/earth.jpg,NA,NA,NA,NA,NA,NA,NA,NA,NA,NA,NA,NA,NA,fixation,NA,NA,NA,NA,NA,NA,sub113
d3-animate-choice,106,571523,0.0-61.0-0.15,TRUE,TRUE,TRUE,FALSE,"""event"",""trial"",""time""
""fullscreenenter"",""5"",""18531""
","
","
","""event"",""trial"",""time""
""fullscreenenter"",""5"",""18531""
","
",311.40000000596046,NA,48,NA,NA,3000,1,NA,NA,images/earth.jpg,images/tutrocket1,images/tutrocket2,null,images/tutrocket1,NA,1,practice,null,2,NA,NA,NA,sub113
d3-animate-choice,107,573997,0.0-61.0-1.15,TRUE,TRUE,TRUE,FALSE,"""event"",""trial"",""time""
""fullscreenenter"",""5"",""18531""
","
","
","""event"",""trial"",""time""
""fullscreenenter"",""5"",""18531""
","
",463.8449999911245,NA,48,NA,NA,3000,1,NA,NA,images/tutgreenplanet.jpg,images/tutalien2,images/tutalien1,images/tutrocket1,images/tutalien2,images/nothing.png,2,practice,true,2,common,0,2020-07-02T21:53:20Z,sub113
two-step-fixation,108,575006,0.0-61.0-2.15,TRUE,TRUE,TRUE,FALSE,"""event"",""trial"",""time""
""fullscreenenter"",""5"",""18531""
","
","
","""event"",""trial"",""time""
""fullscreenenter"",""5"",""18531""
","
",NA,images/earth.jpg,NA,NA,NA,NA,NA,NA,NA,NA,NA,NA,NA,NA,NA,fixation,NA,NA,NA,NA,NA,NA,sub113
d3-animate-choice,109,578071,0.0-61.0-0.16,TRUE,TRUE,TRUE,FALSE,"""event"",""trial"",""time""
""fullscreenenter"",""5"",""18531""
","
","
","""event"",""trial"",""time""
""fullscreenenter"",""5"",""18531""
","
",1055.6849999993574,NA,49,NA,NA,3000,1,NA,NA,images/earth.jpg,images/tutrocket1,images/tutrocket2,null,images/tutrocket2,NA,1,practice,null,1,NA,NA,NA,sub113
d3-animate-choice,110,580382,0.0-61.0-1.16,TRUE,TRUE,TRUE,FALSE,"""event"",""trial"",""time""
""fullscreenenter"",""5"",""18531""
","
","
","""event"",""trial"",""time""
""fullscreenenter"",""5"",""18531""
","
",300.6949999835342,NA,48,NA,NA,3000,1,NA,NA,images/tutgreenplanet.jpg,images/tutalien2,images/tutalien1,images/tutrocket2,images/tutalien2,images/nothing.png,2,practice,false,2,rare,0,2020-07-02T21:53:26Z,sub113
two-step-fixation,111,581392,0.0-61.0-2.16,TRUE,TRUE,TRUE,FALSE,"""event"",""trial"",""time""
""fullscreenenter"",""5"",""18531""
","
","
","""event"",""trial"",""time""
""fullscreenenter"",""5"",""18531""
","
",NA,images/earth.jpg,NA,NA,NA,NA,NA,NA,NA,NA,NA,NA,NA,NA,NA,fixation,NA,NA,NA,NA,NA,NA,sub113
d3-animate-choice,112,583600,0.0-61.0-0.17,TRUE,TRUE,TRUE,FALSE,"""event"",""trial"",""time""
""fullscreenenter"",""5"",""18531""
","
","
","""event"",""trial"",""time""
""fullscreenenter"",""5"",""18531""
","
",198.73000000370666,NA,48,NA,NA,3000,1,NA,NA,images/earth.jpg,images/tutrocket1,images/tutrocket2,null,images/tutrocket1,NA,1,practice,null,2,NA,NA,NA,sub113
d3-animate-choice,113,585735,0.0-61.0-1.17,TRUE,TRUE,TRUE,FALSE,"""event"",""trial"",""time""
""fullscreenenter"",""5"",""18531""
","
","
","""event"",""trial"",""time""
""fullscreenenter"",""5"",""18531""
","
",124.78499999269843,NA,49,NA,NA,3000,1,NA,NA,images/tutgreenplanet.jpg,images/tutalien2,images/tutalien1,images/tutrocket1,images/tutalien1,images/nothing.png,2,practice,true,1,common,0,2020-07-02T21:53:31Z,sub113
two-step-fixation,114,586745,0.0-61.0-2.17,TRUE,TRUE,TRUE,FALSE,"""event"",""trial"",""time""
""fullscreenenter"",""5"",""18531""
","
","
","""event"",""trial"",""time""
""fullscreenenter"",""5"",""18531""
","
",NA,images/earth.jpg,NA,NA,NA,NA,NA,NA,NA,NA,NA,NA,NA,NA,NA,fixation,NA,NA,NA,NA,NA,NA,sub113
d3-animate-choice,115,589213,0.0-61.0-0.18,TRUE,TRUE,TRUE,FALSE,"""event"",""trial"",""time""
""fullscreenenter"",""5"",""18531""
","
","
","""event"",""trial"",""time""
""fullscreenenter"",""5"",""18531""
","
",458.64999998593703,NA,48,NA,NA,3000,1,NA,NA,images/earth.jpg,images/tutrocket1,images/tutrocket2,null,images/tutrocket1,NA,1,practice,null,2,NA,NA,NA,sub113
d3-animate-choice,116,591959,0.0-61.0-1.18,TRUE,TRUE,TRUE,FALSE,"""event"",""trial"",""time""
""fullscreenenter"",""5"",""18531""
","
","
","""event"",""trial"",""time""
""fullscreenenter"",""5"",""18531""
","
",736.4299999899231,NA,48,NA,NA,3000,1,NA,NA,images/tutgreenplanet.jpg,images/tutalien2,images/tutalien1,images/tutrocket1,images/tutalien2,images/t.png,2,practice,true,2,common,1,2020-07-02T21:53:38Z,sub113
two-step-fixation,117,592969,0.0-61.0-2.18,TRUE,TRUE,TRUE,FALSE,"""event"",""trial"",""time""
""fullscreenenter"",""5"",""18531""
","
","
","""event"",""trial"",""time""
""fullscreenenter"",""5"",""18531""
","
",NA,images/earth.jpg,NA,NA,NA,NA,NA,NA,NA,NA,NA,NA,NA,NA,NA,fixation,NA,NA,NA,NA,NA,NA,sub113
d3-animate-choice,118,595130,0.0-61.0-0.19,TRUE,TRUE,TRUE,FALSE,"""event"",""trial"",""time""
""fullscreenenter"",""5"",""18531""
","
","
","""event"",""trial"",""time""
""fullscreenenter"",""5"",""18531""
","
",151.2349999975413,NA,49,NA,NA,3000,1,NA,NA,images/earth.jpg,images/tutrocket1,images/tutrocket2,null,images/tutrocket2,NA,1,practice,null,1,NA,NA,NA,sub113
d3-animate-choice,119,597454,0.0-61.0-1.19,TRUE,TRUE,TRUE,FALSE,"""event"",""trial"",""time""
""fullscreenenter"",""5"",""18531""
","
","
","""event"",""trial"",""time""
""fullscreenenter"",""5"",""18531""
","
",314.41500000073574,NA,48,NA,NA,3000,1,NA,NA,images/tutyellowplanet.jpg,images/tutalien4,images/tutalien3,images/tutrocket2,images/tutalien4,images/nothing.png,2,practice,true,2,common,0,2020-07-02T21:53:43Z,sub113
two-step-fixation,120,598462,0.0-61.0-2.19,TRUE,TRUE,TRUE,FALSE,"""event"",""trial"",""time""
""fullscreenenter"",""5"",""18531""
","
","
","""event"",""trial"",""time""
""fullscreenenter"",""5"",""18531""
","
",NA,images/earth.jpg,NA,NA,NA,NA,NA,NA,NA,NA,NA,NA,NA,NA,NA,fixation,NA,NA,NA,NA,NA,NA,sub113
d3-instructions,121,604084,0.0-62.0,TRUE,TRUE,TRUE,FALSE,"""event"",""trial"",""time""
""fullscreenenter"",""5"",""18531""
","
","
","""event"",""trial"",""time""
""fullscreenenter"",""5"",""18531""
","
",NA,NA,NA,NA,NA,NA,NA,NA,NA,NA,NA,NA,NA,NA,NA,NA,NA,NA,NA,NA,NA,NA,sub113
audio-keyboard-response,122,606500,0.0-63.0,TRUE,TRUE,TRUE,FALSE,"""event"",""trial"",""time""
""fullscreenenter"",""5"",""18531""
","
","
","""event"",""trial"",""time""
""fullscreenenter"",""5"",""18531""
","
",2411,audio/instructions/treasure_feedback.wav,32,NA,NA,NA,NA,NA,NA,NA,NA,NA,NA,NA,NA,NA,NA,NA,NA,NA,NA,NA,sub113
d3-instructions,123,628074,0.0-64.0,TRUE,TRUE,TRUE,FALSE,"""event"",""trial"",""time""
""fullscreenenter"",""5"",""18531""
","
","
","""event"",""trial"",""time""
""fullscreenenter"",""5"",""18531""
","
",NA,NA,NA,NA,NA,NA,NA,NA,NA,NA,NA,NA,NA,NA,NA,NA,NA,NA,NA,NA,NA,NA,sub113
d3-instructions,124,642982,0.0-65.0,TRUE,TRUE,TRUE,FALSE,"""event"",""trial"",""time""
""fullscreenenter"",""5"",""18531""
","
","
","""event"",""trial"",""time""
""fullscreenenter"",""5"",""18531""
","
",NA,NA,NA,NA,NA,NA,NA,NA,NA,NA,NA,NA,NA,NA,NA,NA,NA,NA,NA,NA,NA,NA,sub113
d3-instructions,125,665842,0.0-66.0,TRUE,TRUE,TRUE,FALSE,"""event"",""trial"",""time""
""fullscreenenter"",""5"",""18531""
","
","
","""event"",""trial"",""time""
""fullscreenenter"",""5"",""18531""
","
",NA,NA,NA,NA,NA,NA,NA,NA,NA,NA,NA,NA,NA,NA,NA,NA,NA,NA,NA,NA,NA,NA,sub113
d3-instructions,126,681126,0.0-67.0,TRUE,TRUE,TRUE,FALSE,"""event"",""trial"",""time""
""fullscreenenter"",""5"",""18531""
","
","
","""event"",""trial"",""time""
""fullscreenenter"",""5"",""18531""
","
",NA,NA,NA,NA,NA,NA,NA,NA,NA,NA,NA,NA,NA,NA,NA,NA,NA,NA,NA,NA,NA,NA,sub113
d3-instructions,127,687950,0.0-68.0,TRUE,TRUE,TRUE,FALSE,"""event"",""trial"",""time""
""fullscreenenter"",""5"",""18531""
","
","
","""event"",""trial"",""time""
""fullscreenenter"",""5"",""18531""
","
",NA,NA,NA,NA,NA,NA,NA,NA,NA,NA,NA,NA,NA,NA,NA,NA,NA,NA,NA,NA,NA,NA,sub113
instructions-quiz,128,692095,0.0-69.0,TRUE,TRUE,TRUE,FALSE,"""event"",""trial"",""time""
""fullscreenenter"",""5"",""18531""
","
","
","""event"",""trial"",""time""
""fullscreenenter"",""5"",""18531""
","
",4139.3499999830965,audio/quiz/Q1_Prompt.wav,NA,1,NA,NA,NA,NA,NA,NA,NA,NA,NA,NA,NA,NA,NA,NA,NA,NA,NA,NA,sub113
audio-keyboard-response,129,701269,0.0-70.0,TRUE,TRUE,TRUE,FALSE,"""event"",""trial"",""time""
""fullscreenenter"",""5"",""18531""
","
","
","""event"",""trial"",""time""
""fullscreenenter"",""5"",""18531""
","
",null,audio/quiz/Q1_Correct.wav,null,NA,NA,NA,NA,NA,NA,NA,NA,NA,NA,NA,NA,NA,NA,NA,NA,NA,NA,NA,sub113
instructions-quiz,130,710992,0.0-71.0,TRUE,TRUE,TRUE,FALSE,"""event"",""trial"",""time""
""fullscreenenter"",""5"",""18531""
","
","
","""event"",""trial"",""time""
""fullscreenenter"",""5"",""18531""
","
",9720.310000004247,audio/quiz/Q2_Prompt.wav,NA,0,NA,NA,NA,NA,NA,NA,NA,NA,NA,NA,NA,NA,NA,NA,NA,NA,NA,NA,sub113
audio-keyboard-response,131,723859,0.0-72.0,TRUE,TRUE,TRUE,FALSE,"""event"",""trial"",""time""
""fullscreenenter"",""5"",""18531""
","
","
","""event"",""trial"",""time""
""fullscreenenter"",""5"",""18531""
","
",null,audio/quiz/Q2_Correct.wav,null,NA,NA,NA,NA,NA,NA,NA,NA,NA,NA,NA,NA,NA,NA,NA,NA,NA,NA,NA,sub113
instructions-quiz,132,727467,0.0-73.0,TRUE,TRUE,TRUE,FALSE,"""event"",""trial"",""time""
""fullscreenenter"",""5"",""18531""
","
","
","""event"",""trial"",""time""
""fullscreenenter"",""5"",""18531""
","
",3603.9999999920838,audio/quiz/Q3_Prompt.wav,NA,1,NA,NA,NA,NA,NA,NA,NA,NA,NA,NA,NA,NA,NA,NA,NA,NA,NA,NA,sub113
audio-keyboard-response,133,733268,0.0-74.0,TRUE,TRUE,TRUE,FALSE,"""event"",""trial"",""time""
""fullscreenenter"",""5"",""18531""
","
","
","""event"",""trial"",""time""
""fullscreenenter"",""5"",""18531""
","
",null,audio/quiz/Q3_Correct.wav,null,NA,NA,NA,NA,NA,NA,NA,NA,NA,NA,NA,NA,NA,NA,NA,NA,NA,NA,NA,sub113
d3-instructions,134,736255,0.0-75.0,TRUE,TRUE,TRUE,FALSE,"""event"",""trial"",""time""
""fullscreenenter"",""5"",""18531""
","
","
","""event"",""trial"",""time""
""fullscreenenter"",""5"",""18531""
","
",NA,NA,NA,NA,NA,NA,NA,NA,NA,NA,NA,NA,NA,NA,NA,NA,NA,NA,NA,NA,NA,NA,sub113
d3-animate-choice,135,740266,0.0-76.0-0.0,TRUE,TRUE,TRUE,FALSE,"""event"",""trial"",""time""
""fullscreenenter"",""5"",""18531""
","
","
","""event"",""trial"",""time""
""fullscreenenter"",""5"",""18531""
","
",2351.6400000080466,NA,49,NA,NA,3000,1,NA,NA,images/earth.jpg,images/rocket2,images/rocket1,null,images/rocket1,NA,1,real,null,1,NA,NA,NA,sub113
d3-animate-choice,136,743253,0.0-76.0-1.0,TRUE,TRUE,TRUE,FALSE,"""event"",""trial"",""time""
""fullscreenenter"",""5"",""18531""
","
","
","""event"",""trial"",""time""
""fullscreenenter"",""5"",""18531""
","
",977.4999999790452,NA,48,NA,NA,3000,1,NA,NA,images/redplanet1.jpg,images/alien2,images/alien1,images/rocket1,images/alien2,images/t.png,2,real,true,2,common,1,2020-07-02T21:56:09Z,sub113
two-step-fixation,137,744263,0.0-76.0-2.0,TRUE,TRUE,TRUE,FALSE,"""event"",""trial"",""time""
""fullscreenenter"",""5"",""18531""
","
","
","""event"",""trial"",""time""
""fullscreenenter"",""5"",""18531""
","
",NA,images/earth.jpg,NA,NA,NA,NA,NA,NA,NA,NA,NA,NA,NA,NA,NA,fixation,NA,NA,NA,NA,NA,NA,sub113
d3-animate-choice,138,746555,0.0-76.0-0.1,TRUE,TRUE,TRUE,FALSE,"""event"",""trial"",""time""
""fullscreenenter"",""5"",""18531""
","
","
","""event"",""trial"",""time""
""fullscreenenter"",""5"",""18531""
","
",282.27999998489395,NA,48,NA,NA,3000,1,NA,NA,images/earth.jpg,images/rocket2,images/rocket1,null,images/rocket2,NA,1,real,null,2,NA,NA,NA,sub113
d3-animate-choice,139,749185,0.0-76.0-1.1,TRUE,TRUE,TRUE,FALSE,"""event"",""trial"",""time""
""fullscreenenter"",""5"",""18531""
","
","
","""event"",""trial"",""time""
""fullscreenenter"",""5"",""18531""
","
",620.1899999869056,NA,49,NA,NA,3000,1,NA,NA,images/purpleplanet.jpg,images/alien4,images/alien3,images/rocket2,images/alien3,images/nothing.png,2,real,true,1,common,0,2020-07-02T21:56:15Z,sub113
two-step-fixation,140,750195,0.0-76.0-2.1,TRUE,TRUE,TRUE,FALSE,"""event"",""trial"",""time""
""fullscreenenter"",""5"",""18531""
","
","
","""event"",""trial"",""time""
""fullscreenenter"",""5"",""18531""
","
",NA,images/earth.jpg,NA,NA,NA,NA,NA,NA,NA,NA,NA,NA,NA,NA,NA,fixation,NA,NA,NA,NA,NA,NA,sub113
d3-animate-choice,141,752501,0.0-76.0-0.2,TRUE,TRUE,TRUE,FALSE,"""event"",""trial"",""time""
""fullscreenenter"",""5"",""18531""
","
","
","""event"",""trial"",""time""
""fullscreenenter"",""5"",""18531""
","
",295.53000000305474,NA,48,NA,NA,3000,1,NA,NA,images/earth.jpg,images/rocket2,images/rocket1,null,images/rocket2,NA,1,real,null,2,NA,NA,NA,sub113
d3-animate-choice,142,755427,0.0-76.0-1.2,TRUE,TRUE,TRUE,FALSE,"""event"",""trial"",""time""
""fullscreenenter"",""5"",""18531""
","
","
","""event"",""trial"",""time""
""fullscreenenter"",""5"",""18531""
","
",915.659999998752,NA,49,NA,NA,3000,1,NA,NA,images/purpleplanet.jpg,images/alien4,images/alien3,images/rocket2,images/alien3,images/nothing.png,2,real,true,1,common,0,2020-07-02T21:56:21Z,sub113
two-step-fixation,143,756436,0.0-76.0-2.2,TRUE,TRUE,TRUE,FALSE,"""event"",""trial"",""time""
""fullscreenenter"",""5"",""18531""
","
","
","""event"",""trial"",""time""
""fullscreenenter"",""5"",""18531""
","
",NA,images/earth.jpg,NA,NA,NA,NA,NA,NA,NA,NA,NA,NA,NA,NA,NA,fixation,NA,NA,NA,NA,NA,NA,sub113
d3-animate-choice,144,758812,0.0-76.0-0.3,TRUE,TRUE,TRUE,FALSE,"""event"",""trial"",""time""
""fullscreenenter"",""5"",""18531""
","
","
","""event"",""trial"",""time""
""fullscreenenter"",""5"",""18531""
","
",366.38500000117347,NA,48,NA,NA,3000,1,NA,NA,images/earth.jpg,images/rocket2,images/rocket1,null,images/rocket2,NA,1,real,null,2,NA,NA,NA,sub113
d3-animate-choice,145,762039,0.0-76.0-1.3,TRUE,TRUE,TRUE,FALSE,"""event"",""trial"",""time""
""fullscreenenter"",""5"",""18531""
","
","
","""event"",""trial"",""time""
""fullscreenenter"",""5"",""18531""
","
",1217.4449999874923,NA,49,NA,NA,3000,1,NA,NA,images/redplanet1.jpg,images/alien2,images/alien1,images/rocket2,images/alien1,images/t.png,2,real,false,1,rare,1,2020-07-02T21:56:28Z,sub113
two-step-fixation,146,763048,0.0-76.0-2.3,TRUE,TRUE,TRUE,FALSE,"""event"",""trial"",""time""
""fullscreenenter"",""5"",""18531""
","
","
","""event"",""trial"",""time""
""fullscreenenter"",""5"",""18531""
","
",NA,images/earth.jpg,NA,NA,NA,NA,NA,NA,NA,NA,NA,NA,NA,NA,NA,fixation,NA,NA,NA,NA,NA,NA,sub113
d3-animate-choice,147,765362,0.0-76.0-0.4,TRUE,TRUE,TRUE,FALSE,"""event"",""trial"",""time""
""fullscreenenter"",""5"",""18531""
","
","
","""event"",""trial"",""time""
""fullscreenenter"",""5"",""18531""
","
",303.16499999025837,NA,48,NA,NA,3000,1,NA,NA,images/earth.jpg,images/rocket2,images/rocket1,null,images/rocket2,NA,1,real,null,2,NA,NA,NA,sub113
d3-animate-choice,148,768719,0.0-76.0-1.4,TRUE,TRUE,TRUE,FALSE,"""event"",""trial"",""time""
""fullscreenenter"",""5"",""18531""
","
","
","""event"",""trial"",""time""
""fullscreenenter"",""5"",""18531""
","
",1346.8400000128895,NA,49,NA,NA,3000,1,NA,NA,images/purpleplanet.jpg,images/alien4,images/alien3,images/rocket2,images/alien3,images/t.png,2,real,true,1,common,1,2020-07-02T21:56:34Z,sub113
two-step-fixation,149,769727,0.0-76.0-2.4,TRUE,TRUE,TRUE,FALSE,"""event"",""trial"",""time""
""fullscreenenter"",""5"",""18531""
","
","
","""event"",""trial"",""time""
""fullscreenenter"",""5"",""18531""
","
",NA,images/earth.jpg,NA,NA,NA,NA,NA,NA,NA,NA,NA,NA,NA,NA,NA,fixation,NA,NA,NA,NA,NA,NA,sub113
d3-animate-choice,150,772032,0.0-76.0-0.5,TRUE,TRUE,TRUE,FALSE,"""event"",""trial"",""time""
""fullscreenenter"",""5"",""18531""
","
","
","""event"",""trial"",""time""
""fullscreenenter"",""5"",""18531""
","
",296.28999999840744,NA,49,NA,NA,3000,1,NA,NA,images/earth.jpg,images/rocket2,images/rocket1,null,images/rocket1,NA,1,real,null,1,NA,NA,NA,sub113
d3-animate-choice,151,774297,0.0-76.0-1.5,TRUE,TRUE,TRUE,FALSE,"""event"",""trial"",""time""
""fullscreenenter"",""5"",""18531""
","
","
","""event"",""trial"",""time""
""fullscreenenter"",""5"",""18531""
","
",254.79999999515712,NA,49,NA,NA,3000,1,NA,NA,images/redplanet1.jpg,images/alien2,images/alien1,images/rocket1,images/alien1,images/t.png,2,real,true,1,common,1,2020-07-02T21:56:40Z,sub113
two-step-fixation,152,775306,0.0-76.0-2.5,TRUE,TRUE,TRUE,FALSE,"""event"",""trial"",""time""
""fullscreenenter"",""5"",""18531""
","
","
","""event"",""trial"",""time""
""fullscreenenter"",""5"",""18531""
","
",NA,images/earth.jpg,NA,NA,NA,NA,NA,NA,NA,NA,NA,NA,NA,NA,NA,fixation,NA,NA,NA,NA,NA,NA,sub113
d3-animate-choice,153,777592,0.0-76.0-0.6,TRUE,TRUE,TRUE,FALSE,"""event"",""trial"",""time""
""fullscreenenter"",""5"",""18531""
","
","
","""event"",""trial"",""time""
""fullscreenenter"",""5"",""18531""
","
",276.4700000116136,NA,49,NA,NA,3000,1,NA,NA,images/earth.jpg,images/rocket2,images/rocket1,null,images/rocket1,NA,1,real,null,1,NA,NA,NA,sub113
d3-animate-choice,154,779911,0.0-76.0-1.6,TRUE,TRUE,TRUE,FALSE,"""event"",""trial"",""time""
""fullscreenenter"",""5"",""18531""
","
","
","""event"",""trial"",""time""
""fullscreenenter"",""5"",""18531""
","
",309.4099999871105,NA,49,NA,NA,3000,1,NA,NA,images/redplanet1.jpg,images/alien2,images/alien1,images/rocket1,images/alien1,images/nothing.png,2,real,true,1,common,0,2020-07-02T21:56:46Z,sub113
two-step-fixation,155,780919,0.0-76.0-2.6,TRUE,TRUE,TRUE,FALSE,"""event"",""trial"",""time""
""fullscreenenter"",""5"",""18531""
","
","
","""event"",""trial"",""time""
""fullscreenenter"",""5"",""18531""
","
",NA,images/earth.jpg,NA,NA,NA,NA,NA,NA,NA,NA,NA,NA,NA,NA,NA,fixation,NA,NA,NA,NA,NA,NA,sub113
d3-animate-choice,156,783030,0.0-76.0-0.7,TRUE,TRUE,TRUE,FALSE,"""event"",""trial"",""time""
""fullscreenenter"",""5"",""18531""
","
","
","""event"",""trial"",""time""
""fullscreenenter"",""5"",""18531""
","
",100.65499998745508,NA,48,NA,NA,3000,1,NA,NA,images/earth.jpg,images/rocket2,images/rocket1,null,images/rocket2,NA,1,real,null,2,NA,NA,NA,sub113
d3-animate-choice,157,785549,0.0-76.0-1.7,TRUE,TRUE,TRUE,FALSE,"""event"",""trial"",""time""
""fullscreenenter"",""5"",""18531""
","
","
","""event"",""trial"",""time""
""fullscreenenter"",""5"",""18531""
","
",509.59500001044944,NA,48,NA,NA,3000,1,NA,NA,images/purpleplanet.jpg,images/alien4,images/alien3,images/rocket2,images/alien4,images/t.png,2,real,true,2,common,1,2020-07-02T21:56:51Z,sub113
two-step-fixation,158,786559,0.0-76.0-2.7,TRUE,TRUE,TRUE,FALSE,"""event"",""trial"",""time""
""fullscreenenter"",""5"",""18531""
","
","
","""event"",""trial"",""time""
""fullscreenenter"",""5"",""18531""
","
",NA,images/earth.jpg,NA,NA,NA,NA,NA,NA,NA,NA,NA,NA,NA,NA,NA,fixation,NA,NA,NA,NA,NA,NA,sub113
d3-animate-choice,159,788841,0.0-76.0-0.8,TRUE,TRUE,TRUE,FALSE,"""event"",""trial"",""time""
""fullscreenenter"",""5"",""18531""
","
","
","""event"",""trial"",""time""
""fullscreenenter"",""5"",""18531""
","
",271.8649999878835,NA,48,NA,NA,3000,1,NA,NA,images/earth.jpg,images/rocket2,images/rocket1,null,images/rocket2,NA,1,real,null,2,NA,NA,NA,sub113
d3-animate-choice,160,791079,0.0-76.0-1.8,TRUE,TRUE,TRUE,FALSE,"""event"",""trial"",""time""
""fullscreenenter"",""5"",""18531""
","
","
","""event"",""trial"",""time""
""fullscreenenter"",""5"",""18531""
","
",227.92500001378357,NA,48,NA,NA,3000,1,NA,NA,images/purpleplanet.jpg,images/alien4,images/alien3,images/rocket2,images/alien4,images/nothing.png,2,real,true,2,common,0,2020-07-02T21:56:57Z,sub113
two-step-fixation,161,792087,0.0-76.0-2.8,TRUE,TRUE,TRUE,FALSE,"""event"",""trial"",""time""
""fullscreenenter"",""5"",""18531""
","
","
","""event"",""trial"",""time""
""fullscreenenter"",""5"",""18531""
","
",NA,images/earth.jpg,NA,NA,NA,NA,NA,NA,NA,NA,NA,NA,NA,NA,NA,fixation,NA,NA,NA,NA,NA,NA,sub113
d3-animate-choice,162,794396,0.0-76.0-0.9,TRUE,TRUE,TRUE,FALSE,"""event"",""trial"",""time""
""fullscreenenter"",""5"",""18531""
","
","
","""event"",""trial"",""time""
""fullscreenenter"",""5"",""18531""
","
",299.86500000813976,NA,49,NA,NA,3000,1,NA,NA,images/earth.jpg,images/rocket2,images/rocket1,null,images/rocket1,NA,1,real,null,1,NA,NA,NA,sub113
d3-animate-choice,163,796743,0.0-76.0-1.9,TRUE,TRUE,TRUE,FALSE,"""event"",""trial"",""time""
""fullscreenenter"",""5"",""18531""
","
","
","""event"",""trial"",""time""
""fullscreenenter"",""5"",""18531""
","
",335.6999999959953,NA,48,NA,NA,3000,1,NA,NA,images/redplanet1.jpg,images/alien2,images/alien1,images/rocket1,images/alien2,images/t.png,2,real,true,2,common,1,2020-07-02T21:57:02Z,sub113
two-step-fixation,164,797751,0.0-76.0-2.9,TRUE,TRUE,TRUE,FALSE,"""event"",""trial"",""time""
""fullscreenenter"",""5"",""18531""
","
","
","""event"",""trial"",""time""
""fullscreenenter"",""5"",""18531""
","
",NA,images/earth.jpg,NA,NA,NA,NA,NA,NA,NA,NA,NA,NA,NA,NA,NA,fixation,NA,NA,NA,NA,NA,NA,sub113
d3-animate-choice,165,799856,0.0-76.0-0.10,TRUE,TRUE,TRUE,FALSE,"""event"",""trial"",""time""
""fullscreenenter"",""5"",""18531""
","
","
","""event"",""trial"",""time""
""fullscreenenter"",""5"",""18531""
","
",95.11999998358078,NA,49,NA,NA,3000,1,NA,NA,images/earth.jpg,images/rocket2,images/rocket1,null,images/rocket1,NA,1,real,null,1,NA,NA,NA,sub113
d3-animate-choice,166,802149,0.0-76.0-1.10,TRUE,TRUE,TRUE,FALSE,"""event"",""trial"",""time""
""fullscreenenter"",""5"",""18531""
","
","
","""event"",""trial"",""time""
""fullscreenenter"",""5"",""18531""
","
",282.47999999439344,NA,48,NA,NA,3000,1,NA,NA,images/redplanet1.jpg,images/alien2,images/alien1,images/rocket1,images/alien2,images/t.png,2,real,true,2,common,1,2020-07-02T21:57:08Z,sub113
two-step-fixation,167,803159,0.0-76.0-2.10,TRUE,TRUE,TRUE,FALSE,"""event"",""trial"",""time""
""fullscreenenter"",""5"",""18531""
","
","
","""event"",""trial"",""time""
""fullscreenenter"",""5"",""18531""
","
",NA,images/earth.jpg,NA,NA,NA,NA,NA,NA,NA,NA,NA,NA,NA,NA,NA,fixation,NA,NA,NA,NA,NA,NA,sub113
d3-animate-choice,168,805338,0.0-76.0-0.11,TRUE,TRUE,TRUE,FALSE,"""event"",""trial"",""time""
""fullscreenenter"",""5"",""18531""
","
","
","""event"",""trial"",""time""
""fullscreenenter"",""5"",""18531""
","
",168.82000002078712,NA,49,NA,NA,3000,1,NA,NA,images/earth.jpg,images/rocket2,images/rocket1,null,images/rocket1,NA,1,real,null,1,NA,NA,NA,sub113
d3-animate-choice,169,807543,0.0-76.0-1.11,TRUE,TRUE,TRUE,FALSE,"""event"",""trial"",""time""
""fullscreenenter"",""5"",""18531""
","
","
","""event"",""trial"",""time""
""fullscreenenter"",""5"",""18531""
","
",195.05500001832843,NA,48,NA,NA,3000,1,NA,NA,images/redplanet1.jpg,images/alien2,images/alien1,images/rocket1,images/alien2,images/t.png,2,real,true,2,common,1,2020-07-02T21:57:13Z,sub113
two-step-fixation,170,808552,0.0-76.0-2.11,TRUE,TRUE,TRUE,FALSE,"""event"",""trial"",""time""
""fullscreenenter"",""5"",""18531""
","
","
","""event"",""trial"",""time""
""fullscreenenter"",""5"",""18531""
","
",NA,images/earth.jpg,NA,NA,NA,NA,NA,NA,NA,NA,NA,NA,NA,NA,NA,fixation,NA,NA,NA,NA,NA,NA,sub113
d3-animate-choice,171,810855,0.0-76.0-0.12,TRUE,TRUE,TRUE,FALSE,"""event"",""trial"",""time""
""fullscreenenter"",""5"",""18531""
","
","
","""event"",""trial"",""time""
""fullscreenenter"",""5"",""18531""
","
",293.1199999875389,NA,49,NA,NA,3000,1,NA,NA,images/earth.jpg,images/rocket2,images/rocket1,null,images/rocket1,NA,1,real,null,1,NA,NA,NA,sub113
d3-animate-choice,172,813106,0.0-76.0-1.12,TRUE,TRUE,TRUE,FALSE,"""event"",""trial"",""time""
""fullscreenenter"",""5"",""18531""
","
","
","""event"",""trial"",""time""
""fullscreenenter"",""5"",""18531""
","
",241.90999998245388,NA,48,NA,NA,3000,1,NA,NA,images/redplanet1.jpg,images/alien2,images/alien1,images/rocket1,images/alien2,images/nothing.png,2,real,true,2,common,0,2020-07-02T21:57:19Z,sub113
two-step-fixation,173,814114,0.0-76.0-2.12,TRUE,TRUE,TRUE,FALSE,"""event"",""trial"",""time""
""fullscreenenter"",""5"",""18531""
","
","
","""event"",""trial"",""time""
""fullscreenenter"",""5"",""18531""
","
",NA,images/earth.jpg,NA,NA,NA,NA,NA,NA,NA,NA,NA,NA,NA,NA,NA,fixation,NA,NA,NA,NA,NA,NA,sub113
d3-animate-choice,174,816205,0.0-76.0-0.13,TRUE,TRUE,TRUE,FALSE,"""event"",""trial"",""time""
""fullscreenenter"",""5"",""18531""
","
","
","""event"",""trial"",""time""
""fullscreenenter"",""5"",""18531""
","
",80.0300000119023,NA,48,NA,NA,3000,1,NA,NA,images/earth.jpg,images/rocket2,images/rocket1,null,images/rocket2,NA,1,real,null,2,NA,NA,NA,sub113
d3-animate-choice,175,818429,0.0-76.0-1.13,TRUE,TRUE,TRUE,FALSE,"""event"",""trial"",""time""
""fullscreenenter"",""5"",""18531""
","
","
","""event"",""trial"",""time""
""fullscreenenter"",""5"",""18531""
","
",214.97000000090338,NA,49,NA,NA,3000,1,NA,NA,images/purpleplanet.jpg,images/alien4,images/alien3,images/rocket2,images/alien3,images/nothing.png,2,real,true,1,common,0,2020-07-02T21:57:24Z,sub113
two-step-fixation,176,819438,0.0-76.0-2.13,TRUE,TRUE,TRUE,FALSE,"""event"",""trial"",""time""
""fullscreenenter"",""5"",""18531""
","
","
","""event"",""trial"",""time""
""fullscreenenter"",""5"",""18531""
","
",NA,images/earth.jpg,NA,NA,NA,NA,NA,NA,NA,NA,NA,NA,NA,NA,NA,fixation,NA,NA,NA,NA,NA,NA,sub113
d3-animate-choice,177,822062,0.0-76.0-0.14,TRUE,TRUE,TRUE,FALSE,"""event"",""trial"",""time""
""fullscreenenter"",""5"",""18531""
","
","
","""event"",""trial"",""time""
""fullscreenenter"",""5"",""18531""
","
",614.4900000072084,NA,48,NA,NA,3000,1,NA,NA,images/earth.jpg,images/rocket2,images/rocket1,null,images/rocket2,NA,1,real,null,2,NA,NA,NA,sub113
d3-animate-choice,178,824410,0.0-76.0-1.14,TRUE,TRUE,TRUE,FALSE,"""event"",""trial"",""time""
""fullscreenenter"",""5"",""18531""
","
","
","""event"",""trial"",""time""
""fullscreenenter"",""5"",""18531""
","
",337.6350000035018,NA,49,NA,NA,3000,1,NA,NA,images/redplanet1.jpg,images/alien2,images/alien1,images/rocket2,images/alien1,images/nothing.png,2,real,false,1,rare,0,2020-07-02T21:57:30Z,sub113
two-step-fixation,179,825418,0.0-76.0-2.14,TRUE,TRUE,TRUE,FALSE,"""event"",""trial"",""time""
""fullscreenenter"",""5"",""18531""
","
","
","""event"",""trial"",""time""
""fullscreenenter"",""5"",""18531""
","
",NA,images/earth.jpg,NA,NA,NA,NA,NA,NA,NA,NA,NA,NA,NA,NA,NA,fixation,NA,NA,NA,NA,NA,NA,sub113
d3-animate-choice,180,827690,0.0-76.0-0.15,TRUE,TRUE,TRUE,FALSE,"""event"",""trial"",""time""
""fullscreenenter"",""5"",""18531""
","
","
","""event"",""trial"",""time""
""fullscreenenter"",""5"",""18531""
","
",262.54500000504777,NA,49,NA,NA,3000,1,NA,NA,images/earth.jpg,images/rocket2,images/rocket1,null,images/rocket1,NA,1,real,null,1,NA,NA,NA,sub113
d3-animate-choice,181,829827,0.0-76.0-1.15,TRUE,TRUE,TRUE,FALSE,"""event"",""trial"",""time""
""fullscreenenter"",""5"",""18531""
","
","
","""event"",""trial"",""time""
""fullscreenenter"",""5"",""18531""
","
",127.21499998588115,NA,49,NA,NA,3000,1,NA,NA,images/redplanet1.jpg,images/alien2,images/alien1,images/rocket1,images/alien1,images/t.png,2,real,true,1,common,1,2020-07-02T21:57:35Z,sub113
two-step-fixation,182,830836,0.0-76.0-2.15,TRUE,TRUE,TRUE,FALSE,"""event"",""trial"",""time""
""fullscreenenter"",""5"",""18531""
","
","
","""event"",""trial"",""time""
""fullscreenenter"",""5"",""18531""
","
",NA,images/earth.jpg,NA,NA,NA,NA,NA,NA,NA,NA,NA,NA,NA,NA,NA,fixation,NA,NA,NA,NA,NA,NA,sub113
d3-animate-choice,183,833327,0.0-76.0-0.16,TRUE,TRUE,TRUE,FALSE,"""event"",""trial"",""time""
""fullscreenenter"",""5"",""18531""
","
","
","""event"",""trial"",""time""
""fullscreenenter"",""5"",""18531""
","
",482.18000002088957,NA,49,NA,NA,3000,1,NA,NA,images/earth.jpg,images/rocket2,images/rocket1,null,images/rocket1,NA,1,real,null,1,NA,NA,NA,sub113
d3-animate-choice,184,835595,0.0-76.0-1.16,TRUE,TRUE,TRUE,FALSE,"""event"",""trial"",""time""
""fullscreenenter"",""5"",""18531""
","
","
","""event"",""trial"",""time""
""fullscreenenter"",""5"",""18531""
","
",259.20500000938773,NA,48,NA,NA,3000,1,NA,NA,images/redplanet1.jpg,images/alien2,images/alien1,images/rocket1,images/alien2,images/t.png,2,real,true,2,common,1,2020-07-02T21:57:41Z,sub113
two-step-fixation,185,836604,0.0-76.0-2.16,TRUE,TRUE,TRUE,FALSE,"""event"",""trial"",""time""
""fullscreenenter"",""5"",""18531""
","
","
","""event"",""trial"",""time""
""fullscreenenter"",""5"",""18531""
","
",NA,images/earth.jpg,NA,NA,NA,NA,NA,NA,NA,NA,NA,NA,NA,NA,NA,fixation,NA,NA,NA,NA,NA,NA,sub113
d3-animate-choice,186,838891,0.0-76.0-0.17,TRUE,TRUE,TRUE,FALSE,"""event"",""trial"",""time""
""fullscreenenter"",""5"",""18531""
","
","
","""event"",""trial"",""time""
""fullscreenenter"",""5"",""18531""
","
",275.9749999968335,NA,49,NA,NA,3000,1,NA,NA,images/earth.jpg,images/rocket2,images/rocket1,null,images/rocket1,NA,1,real,null,1,NA,NA,NA,sub113
d3-animate-choice,187,841361,0.0-76.0-1.17,TRUE,TRUE,TRUE,FALSE,"""event"",""trial"",""time""
""fullscreenenter"",""5"",""18531""
","
","
","""event"",""trial"",""time""
""fullscreenenter"",""5"",""18531""
","
",459.35499999905005,NA,48,NA,NA,3000,1,NA,NA,images/redplanet1.jpg,images/alien2,images/alien1,images/rocket1,images/alien2,images/nothing.png,2,real,true,2,common,0,2020-07-02T21:57:47Z,sub113
two-step-fixation,188,842369,0.0-76.0-2.17,TRUE,TRUE,TRUE,FALSE,"""event"",""trial"",""time""
""fullscreenenter"",""5"",""18531""
","
","
","""event"",""trial"",""time""
""fullscreenenter"",""5"",""18531""
","
",NA,images/earth.jpg,NA,NA,NA,NA,NA,NA,NA,NA,NA,NA,NA,NA,NA,fixation,NA,NA,NA,NA,NA,NA,sub113
d3-animate-choice,189,844581,0.0-76.0-0.18,TRUE,TRUE,TRUE,FALSE,"""event"",""trial"",""time""
""fullscreenenter"",""5"",""18531""
","
","
","""event"",""trial"",""time""
""fullscreenenter"",""5"",""18531""
","
",202.17000000411645,NA,48,NA,NA,3000,1,NA,NA,images/earth.jpg,images/rocket2,images/rocket1,null,images/rocket2,NA,1,real,null,2,NA,NA,NA,sub113
d3-animate-choice,190,846802,0.0-76.0-1.18,TRUE,TRUE,TRUE,FALSE,"""event"",""trial"",""time""
""fullscreenenter"",""5"",""18531""
","
","
","""event"",""trial"",""time""
""fullscreenenter"",""5"",""18531""
","
",211.46000002045184,NA,49,NA,NA,3000,1,NA,NA,images/purpleplanet.jpg,images/alien4,images/alien3,images/rocket2,images/alien3,images/t.png,2,real,true,1,common,1,2020-07-02T21:57:52Z,sub113
two-step-fixation,191,847811,0.0-76.0-2.18,TRUE,TRUE,TRUE,FALSE,"""event"",""trial"",""time""
""fullscreenenter"",""5"",""18531""
","
","
","""event"",""trial"",""time""
""fullscreenenter"",""5"",""18531""
","
",NA,images/earth.jpg,NA,NA,NA,NA,NA,NA,NA,NA,NA,NA,NA,NA,NA,fixation,NA,NA,NA,NA,NA,NA,sub113
d3-animate-choice,192,850119,0.0-76.0-0.19,TRUE,TRUE,TRUE,FALSE,"""event"",""trial"",""time""
""fullscreenenter"",""5"",""18531""
","
","
","""event"",""trial"",""time""
""fullscreenenter"",""5"",""18531""
","
",299.4699999981094,NA,48,NA,NA,3000,1,NA,NA,images/earth.jpg,images/rocket2,images/rocket1,null,images/rocket2,NA,1,real,null,2,NA,NA,NA,sub113
d3-animate-choice,193,852389,0.0-76.0-1.19,TRUE,TRUE,TRUE,FALSE,"""event"",""trial"",""time""
""fullscreenenter"",""5"",""18531""
","
","
","""event"",""trial"",""time""
""fullscreenenter"",""5"",""18531""
","
",260.69000002462417,NA,49,NA,NA,3000,1,NA,NA,images/purpleplanet.jpg,images/alien4,images/alien3,images/rocket2,images/alien3,images/nothing.png,2,real,true,1,common,0,2020-07-02T21:57:58Z,sub113
two-step-fixation,194,853398,0.0-76.0-2.19,TRUE,TRUE,TRUE,FALSE,"""event"",""trial"",""time""
""fullscreenenter"",""5"",""18531""
","
","
","""event"",""trial"",""time""
""fullscreenenter"",""5"",""18531""
","
",NA,images/earth.jpg,NA,NA,NA,NA,NA,NA,NA,NA,NA,NA,NA,NA,NA,fixation,NA,NA,NA,NA,NA,NA,sub113
d3-animate-choice,195,856085,0.0-76.0-0.20,TRUE,TRUE,TRUE,FALSE,"""event"",""trial"",""time""
""fullscreenenter"",""5"",""18531""
","
","
","""event"",""trial"",""time""
""fullscreenenter"",""5"",""18531""
","
",676.659999997355,NA,48,NA,NA,3000,1,NA,NA,images/earth.jpg,images/rocket2,images/rocket1,null,images/rocket2,NA,1,real,null,2,NA,NA,NA,sub113
d3-animate-choice,196,858407,0.0-76.0-1.20,TRUE,TRUE,TRUE,FALSE,"""event"",""trial"",""time""
""fullscreenenter"",""5"",""18531""
","
","
","""event"",""trial"",""time""
""fullscreenenter"",""5"",""18531""
","
",311.14000000525266,NA,49,NA,NA,3000,1,NA,NA,images/purpleplanet.jpg,images/alien4,images/alien3,images/rocket2,images/alien3,images/nothing.png,2,real,true,1,common,0,2020-07-02T21:58:04Z,sub113
two-step-fixation,197,859416,0.0-76.0-2.20,TRUE,TRUE,TRUE,FALSE,"""event"",""trial"",""time""
""fullscreenenter"",""5"",""18531""
","
","
","""event"",""trial"",""time""
""fullscreenenter"",""5"",""18531""
","
",NA,images/earth.jpg,NA,NA,NA,NA,NA,NA,NA,NA,NA,NA,NA,NA,NA,fixation,NA,NA,NA,NA,NA,NA,sub113
d3-animate-choice,198,861567,0.0-76.0-0.21,TRUE,TRUE,TRUE,FALSE,"""event"",""trial"",""time""
""fullscreenenter"",""5"",""18531""
","
","
","""event"",""trial"",""time""
""fullscreenenter"",""5"",""18531""
","
",139.52500000596046,NA,49,NA,NA,3000,1,NA,NA,images/earth.jpg,images/rocket2,images/rocket1,null,images/rocket1,NA,1,real,null,1,NA,NA,NA,sub113
d3-animate-choice,199,864326,0.0-76.0-1.21,TRUE,TRUE,TRUE,FALSE,"""event"",""trial"",""time""
""fullscreenenter"",""5"",""18531""
","
","
","""event"",""trial"",""time""
""fullscreenenter"",""5"",""18531""
","
",749.2800000181887,NA,48,NA,NA,3000,1,NA,NA,images/purpleplanet.jpg,images/alien4,images/alien3,images/rocket1,images/alien4,images/t.png,2,real,false,2,rare,1,2020-07-02T21:58:10Z,sub113
two-step-fixation,200,865336,0.0-76.0-2.21,TRUE,TRUE,TRUE,FALSE,"""event"",""trial"",""time""
""fullscreenenter"",""5"",""18531""
","
","
","""event"",""trial"",""time""
""fullscreenenter"",""5"",""18531""
","
",NA,images/earth.jpg,NA,NA,NA,NA,NA,NA,NA,NA,NA,NA,NA,NA,NA,fixation,NA,NA,NA,NA,NA,NA,sub113
d3-animate-choice,201,867733,0.0-76.0-0.22,TRUE,TRUE,TRUE,FALSE,"""event"",""trial"",""time""
""fullscreenenter"",""5"",""18531""
","
","
","""event"",""trial"",""time""
""fullscreenenter"",""5"",""18531""
","
",387.6100000052247,NA,48,NA,NA,3000,1,NA,NA,images/earth.jpg,images/rocket2,images/rocket1,null,images/rocket2,NA,1,real,null,2,NA,NA,NA,sub113
d3-animate-choice,202,870012,0.0-76.0-1.22,TRUE,TRUE,TRUE,FALSE,"""event"",""trial"",""time""
""fullscreenenter"",""5"",""18531""
","
","
","""event"",""trial"",""time""
""fullscreenenter"",""5"",""18531""
","
",268.59999998123385,NA,48,NA,NA,3000,1,NA,NA,images/redplanet1.jpg,images/alien2,images/alien1,images/rocket2,images/alien2,images/t.png,2,real,false,2,rare,1,2020-07-02T21:58:16Z,sub113
two-step-fixation,203,871021,0.0-76.0-2.22,TRUE,TRUE,TRUE,FALSE,"""event"",""trial"",""time""
""fullscreenenter"",""5"",""18531""
","
","
","""event"",""trial"",""time""
""fullscreenenter"",""5"",""18531""
","
",NA,images/earth.jpg,NA,NA,NA,NA,NA,NA,NA,NA,NA,NA,NA,NA,NA,fixation,NA,NA,NA,NA,NA,NA,sub113
d3-animate-choice,204,873325,0.0-76.0-0.23,TRUE,TRUE,TRUE,FALSE,"""event"",""trial"",""time""
""fullscreenenter"",""5"",""18531""
","
","
","""event"",""trial"",""time""
""fullscreenenter"",""5"",""18531""
","
",294.7099999873899,NA,48,NA,NA,3000,1,NA,NA,images/earth.jpg,images/rocket2,images/rocket1,null,images/rocket2,NA,1,real,null,2,NA,NA,NA,sub113
d3-animate-choice,205,875604,0.0-76.0-1.23,TRUE,TRUE,TRUE,FALSE,"""event"",""trial"",""time""
""fullscreenenter"",""5"",""18531""
","
","
","""event"",""trial"",""time""
""fullscreenenter"",""5"",""18531""
","
",268.6499999836087,NA,48,NA,NA,3000,1,NA,NA,images/purpleplanet.jpg,images/alien4,images/alien3,images/rocket2,images/alien4,images/nothing.png,2,real,true,2,common,0,2020-07-02T21:58:21Z,sub113
two-step-fixation,206,876613,0.0-76.0-2.23,TRUE,TRUE,TRUE,FALSE,"""event"",""trial"",""time""
""fullscreenenter"",""5"",""18531""
","
","
","""event"",""trial"",""time""
""fullscreenenter"",""5"",""18531""
","
",NA,images/earth.jpg,NA,NA,NA,NA,NA,NA,NA,NA,NA,NA,NA,NA,NA,fixation,NA,NA,NA,NA,NA,NA,sub113
d3-animate-choice,207,879492,0.0-76.0-0.24,TRUE,TRUE,TRUE,FALSE,"""event"",""trial"",""time""
""fullscreenenter"",""5"",""18531""
","
","
","""event"",""trial"",""time""
""fullscreenenter"",""5"",""18531""
","
",868.3650000020862,NA,49,NA,NA,3000,1,NA,NA,images/earth.jpg,images/rocket2,images/rocket1,null,images/rocket1,NA,1,real,null,1,NA,NA,NA,sub113
d3-animate-choice,208,882135,0.0-76.0-1.24,TRUE,TRUE,TRUE,FALSE,"""event"",""trial"",""time""
""fullscreenenter"",""5"",""18531""
","
","
","""event"",""trial"",""time""
""fullscreenenter"",""5"",""18531""
","
",633.9900000020862,NA,48,NA,NA,3000,1,NA,NA,images/redplanet1.jpg,images/alien2,images/alien1,images/rocket1,images/alien2,images/t.png,2,real,true,2,common,1,2020-07-02T21:58:28Z,sub113
two-step-fixation,209,883143,0.0-76.0-2.24,TRUE,TRUE,TRUE,FALSE,"""event"",""trial"",""time""
""fullscreenenter"",""5"",""18531""
","
","
","""event"",""trial"",""time""
""fullscreenenter"",""5"",""18531""
","
",NA,images/earth.jpg,NA,NA,NA,NA,NA,NA,NA,NA,NA,NA,NA,NA,NA,fixation,NA,NA,NA,NA,NA,NA,sub113
d3-animate-choice,210,885297,0.0-76.0-0.25,TRUE,TRUE,TRUE,FALSE,"""event"",""trial"",""time""
""fullscreenenter"",""5"",""18531""
","
","
","""event"",""trial"",""time""
""fullscreenenter"",""5"",""18531""
","
",143.034999986412,NA,49,NA,NA,3000,1,NA,NA,images/earth.jpg,images/rocket2,images/rocket1,null,images/rocket1,NA,1,real,null,1,NA,NA,NA,sub113
d3-animate-choice,211,887648,0.0-76.0-1.25,TRUE,TRUE,TRUE,FALSE,"""event"",""trial"",""time""
""fullscreenenter"",""5"",""18531""
","
","
","""event"",""trial"",""time""
""fullscreenenter"",""5"",""18531""
","
",341.30000000004657,NA,48,NA,NA,3000,1,NA,NA,images/redplanet1.jpg,images/alien2,images/alien1,images/rocket1,images/alien2,images/t.png,2,real,true,2,common,1,2020-07-02T21:58:33Z,sub113
two-step-fixation,212,888657,0.0-76.0-2.25,TRUE,TRUE,TRUE,FALSE,"""event"",""trial"",""time""
""fullscreenenter"",""5"",""18531""
","
","
","""event"",""trial"",""time""
""fullscreenenter"",""5"",""18531""
","
",NA,images/earth.jpg,NA,NA,NA,NA,NA,NA,NA,NA,NA,NA,NA,NA,NA,fixation,NA,NA,NA,NA,NA,NA,sub113
d3-animate-choice,213,891128,0.0-76.0-0.26,TRUE,TRUE,TRUE,FALSE,"""event"",""trial"",""time""
""fullscreenenter"",""5"",""18531""
","
","
","""event"",""trial"",""time""
""fullscreenenter"",""5"",""18531""
","
",461.5300000004936,NA,48,NA,NA,3000,1,NA,NA,images/earth.jpg,images/rocket2,images/rocket1,null,images/rocket2,NA,1,real,null,2,NA,NA,NA,sub113
d3-animate-choice,214,893463,0.0-76.0-1.26,TRUE,TRUE,TRUE,FALSE,"""event"",""trial"",""time""
""fullscreenenter"",""5"",""18531""
","
","
","""event"",""trial"",""time""
""fullscreenenter"",""5"",""18531""
","
",326.4049999997951,NA,49,NA,NA,3000,1,NA,NA,images/purpleplanet.jpg,images/alien4,images/alien3,images/rocket2,images/alien3,images/nothing.png,2,real,true,1,common,0,2020-07-02T21:58:39Z,sub113
two-step-fixation,215,894471,0.0-76.0-2.26,TRUE,TRUE,TRUE,FALSE,"""event"",""trial"",""time""
""fullscreenenter"",""5"",""18531""
","
","
","""event"",""trial"",""time""
""fullscreenenter"",""5"",""18531""
","
",NA,images/earth.jpg,NA,NA,NA,NA,NA,NA,NA,NA,NA,NA,NA,NA,NA,fixation,NA,NA,NA,NA,NA,NA,sub113
d3-animate-choice,216,896487,0.0-76.0-0.27,TRUE,TRUE,TRUE,FALSE,"""event"",""trial"",""time""
""fullscreenenter"",""5"",""18531""
","
","
","""event"",""trial"",""time""
""fullscreenenter"",""5"",""18531""
","
",6.129999994300306,NA,49,NA,NA,3000,1,NA,NA,images/earth.jpg,images/rocket2,images/rocket1,null,images/rocket1,NA,1,real,null,1,NA,NA,NA,sub113
d3-animate-choice,217,898801,0.0-76.0-1.27,TRUE,TRUE,TRUE,FALSE,"""event"",""trial"",""time""
""fullscreenenter"",""5"",""18531""
","
","
","""event"",""trial"",""time""
""fullscreenenter"",""5"",""18531""
","
",304.535000002943,NA,48,NA,NA,3000,1,NA,NA,images/redplanet1.jpg,images/alien2,images/alien1,images/rocket1,images/alien2,images/t.png,2,real,true,2,common,1,2020-07-02T21:58:44Z,sub113
two-step-fixation,218,899809,0.0-76.0-2.27,TRUE,TRUE,TRUE,FALSE,"""event"",""trial"",""time""
""fullscreenenter"",""5"",""18531""
","
","
","""event"",""trial"",""time""
""fullscreenenter"",""5"",""18531""
","
",NA,images/earth.jpg,NA,NA,NA,NA,NA,NA,NA,NA,NA,NA,NA,NA,NA,fixation,NA,NA,NA,NA,NA,NA,sub113
d3-animate-choice,219,902151,0.0-76.0-0.28,TRUE,TRUE,TRUE,FALSE,"""event"",""trial"",""time""
""fullscreenenter"",""5"",""18531""
","
","
","""event"",""trial"",""time""
""fullscreenenter"",""5"",""18531""
","
",333.0149999819696,NA,49,NA,NA,3000,1,NA,NA,images/earth.jpg,images/rocket2,images/rocket1,null,images/rocket1,NA,1,real,null,1,NA,NA,NA,sub113
d3-animate-choice,220,904763,0.0-76.0-1.28,TRUE,TRUE,TRUE,FALSE,"""event"",""trial"",""time""
""fullscreenenter"",""5"",""18531""
","
","
","""event"",""trial"",""time""
""fullscreenenter"",""5"",""18531""
","
",603.2950000080746,NA,48,NA,NA,3000,1,NA,NA,images/redplanet1.jpg,images/alien2,images/alien1,images/rocket1,images/alien2,images/t.png,2,real,true,2,common,1,2020-07-02T21:58:50Z,sub113
two-step-fixation,221,905772,0.0-76.0-2.28,TRUE,TRUE,TRUE,FALSE,"""event"",""trial"",""time""
""fullscreenenter"",""5"",""18531""
","
","
","""event"",""trial"",""time""
""fullscreenenter"",""5"",""18531""
","
",NA,images/earth.jpg,NA,NA,NA,NA,NA,NA,NA,NA,NA,NA,NA,NA,NA,fixation,NA,NA,NA,NA,NA,NA,sub113
d3-animate-choice,222,908091,0.0-76.0-0.29,TRUE,TRUE,TRUE,FALSE,"""event"",""trial"",""time""
""fullscreenenter"",""5"",""18531""
","
","
","""event"",""trial"",""time""
""fullscreenenter"",""5"",""18531""
","
",309.56000002333894,NA,49,NA,NA,3000,1,NA,NA,images/earth.jpg,images/rocket2,images/rocket1,null,images/rocket1,NA,1,real,null,1,NA,NA,NA,sub113
d3-animate-choice,223,910661,0.0-76.0-1.29,TRUE,TRUE,TRUE,FALSE,"""event"",""trial"",""time""
""fullscreenenter"",""5"",""18531""
","
","
","""event"",""trial"",""time""
""fullscreenenter"",""5"",""18531""
","
",560.8650000067428,NA,48,NA,NA,3000,1,NA,NA,images/redplanet1.jpg,images/alien2,images/alien1,images/rocket1,images/alien2,images/nothing.png,2,real,true,2,common,0,2020-07-02T21:58:56Z,sub113
two-step-fixation,224,911670,0.0-76.0-2.29,TRUE,TRUE,TRUE,FALSE,"""event"",""trial"",""time""
""fullscreenenter"",""5"",""18531""
","
","
","""event"",""trial"",""time""
""fullscreenenter"",""5"",""18531""
","
",NA,images/earth.jpg,NA,NA,NA,NA,NA,NA,NA,NA,NA,NA,NA,NA,NA,fixation,NA,NA,NA,NA,NA,NA,sub113
d3-animate-choice,225,914060,0.0-76.0-0.30,TRUE,TRUE,TRUE,FALSE,"""event"",""trial"",""time""
""fullscreenenter"",""5"",""18531""
","
","
","""event"",""trial"",""time""
""fullscreenenter"",""5"",""18531""
","
",380.3299999854062,NA,49,NA,NA,3000,1,NA,NA,images/earth.jpg,images/rocket2,images/rocket1,null,images/rocket1,NA,1,real,null,1,NA,NA,NA,sub113
d3-animate-choice,226,916518,0.0-76.0-1.30,TRUE,TRUE,TRUE,FALSE,"""event"",""trial"",""time""
""fullscreenenter"",""5"",""18531""
","
","
","""event"",""trial"",""time""
""fullscreenenter"",""5"",""18531""
","
",446.8549999874085,NA,49,NA,NA,3000,1,NA,NA,images/purpleplanet.jpg,images/alien4,images/alien3,images/rocket1,images/alien3,images/nothing.png,2,real,false,1,rare,0,2020-07-02T21:59:02Z,sub113
two-step-fixation,227,917526,0.0-76.0-2.30,TRUE,TRUE,TRUE,FALSE,"""event"",""trial"",""time""
""fullscreenenter"",""5"",""18531""
","
","
","""event"",""trial"",""time""
""fullscreenenter"",""5"",""18531""
","
",NA,images/earth.jpg,NA,NA,NA,NA,NA,NA,NA,NA,NA,NA,NA,NA,NA,fixation,NA,NA,NA,NA,NA,NA,sub113
d3-animate-choice,228,919776,0.0-76.0-0.31,TRUE,TRUE,TRUE,FALSE,"""event"",""trial"",""time""
""fullscreenenter"",""5"",""18531""
","
","
","""event"",""trial"",""time""
""fullscreenenter"",""5"",""18531""
","
",240.08499999763444,NA,48,NA,NA,3000,1,NA,NA,images/earth.jpg,images/rocket2,images/rocket1,null,images/rocket2,NA,1,real,null,2,NA,NA,NA,sub113
d3-animate-choice,229,922350,0.0-76.0-1.31,TRUE,TRUE,TRUE,FALSE,"""event"",""trial"",""time""
""fullscreenenter"",""5"",""18531""
","
","
","""event"",""trial"",""time""
""fullscreenenter"",""5"",""18531""
","
",564.5350000122562,NA,49,NA,NA,3000,1,NA,NA,images/redplanet1.jpg,images/alien2,images/alien1,images/rocket2,images/alien1,images/nothing.png,2,real,false,1,rare,0,2020-07-02T21:59:08Z,sub113
two-step-fixation,230,923358,0.0-76.0-2.31,TRUE,TRUE,TRUE,FALSE,"""event"",""trial"",""time""
""fullscreenenter"",""5"",""18531""
","
","
","""event"",""trial"",""time""
""fullscreenenter"",""5"",""18531""
","
",NA,images/earth.jpg,NA,NA,NA,NA,NA,NA,NA,NA,NA,NA,NA,NA,NA,fixation,NA,NA,NA,NA,NA,NA,sub113
d3-animate-choice,231,925518,0.0-76.0-0.32,TRUE,TRUE,TRUE,FALSE,"""event"",""trial"",""time""
""fullscreenenter"",""5"",""18531""
","
","
","""event"",""trial"",""time""
""fullscreenenter"",""5"",""18531""
","
",148.959999991348,NA,49,NA,NA,3000,1,NA,NA,images/earth.jpg,images/rocket2,images/rocket1,null,images/rocket1,NA,1,real,null,1,NA,NA,NA,sub113
d3-animate-choice,232,927913,0.0-76.0-1.32,TRUE,TRUE,TRUE,FALSE,"""event"",""trial"",""time""
""fullscreenenter"",""5"",""18531""
","
","
","""event"",""trial"",""time""
""fullscreenenter"",""5"",""18531""
","
",385.1250000006985,NA,48,NA,NA,3000,1,NA,NA,images/redplanet1.jpg,images/alien2,images/alien1,images/rocket1,images/alien2,images/t.png,2,real,true,2,common,1,2020-07-02T21:59:14Z,sub113
two-step-fixation,233,928921,0.0-76.0-2.32,TRUE,TRUE,TRUE,FALSE,"""event"",""trial"",""time""
""fullscreenenter"",""5"",""18531""
","
","
","""event"",""trial"",""time""
""fullscreenenter"",""5"",""18531""
","
",NA,images/earth.jpg,NA,NA,NA,NA,NA,NA,NA,NA,NA,NA,NA,NA,NA,fixation,NA,NA,NA,NA,NA,NA,sub113
d3-animate-choice,234,931252,0.0-76.0-0.33,TRUE,TRUE,TRUE,FALSE,"""event"",""trial"",""time""
""fullscreenenter"",""5"",""18531""
","
","
","""event"",""trial"",""time""
""fullscreenenter"",""5"",""18531""
","
",321.59999999566935,NA,49,NA,NA,3000,1,NA,NA,images/earth.jpg,images/rocket2,images/rocket1,null,images/rocket1,NA,1,real,null,1,NA,NA,NA,sub113
d3-animate-choice,235,933905,0.0-76.0-1.33,TRUE,TRUE,TRUE,FALSE,"""event"",""trial"",""time""
""fullscreenenter"",""5"",""18531""
","
","
","""event"",""trial"",""time""
""fullscreenenter"",""5"",""18531""
","
",643.8200000266079,NA,49,NA,NA,3000,1,NA,NA,images/redplanet1.jpg,images/alien2,images/alien1,images/rocket1,images/alien1,images/nothing.png,2,real,true,1,common,0,2020-07-02T21:59:20Z,sub113
two-step-fixation,236,934915,0.0-76.0-2.33,TRUE,TRUE,TRUE,FALSE,"""event"",""trial"",""time""
""fullscreenenter"",""5"",""18531""
","
","
","""event"",""trial"",""time""
""fullscreenenter"",""5"",""18531""
","
",NA,images/earth.jpg,NA,NA,NA,NA,NA,NA,NA,NA,NA,NA,NA,NA,NA,fixation,NA,NA,NA,NA,NA,NA,sub113
d3-animate-choice,237,937250,0.0-76.0-0.34,TRUE,TRUE,TRUE,FALSE,"""event"",""trial"",""time""
""fullscreenenter"",""5"",""18531""
","
","
","""event"",""trial"",""time""
""fullscreenenter"",""5"",""18531""
","
",320.8800000138581,NA,48,NA,NA,3000,1,NA,NA,images/earth.jpg,images/rocket2,images/rocket1,null,images/rocket2,NA,1,real,null,2,NA,NA,NA,sub113
d3-animate-choice,238,939560,0.0-76.0-1.34,TRUE,TRUE,TRUE,FALSE,"""event"",""trial"",""time""
""fullscreenenter"",""5"",""18531""
","
","
","""event"",""trial"",""time""
""fullscreenenter"",""5"",""18531""
","
",300.1199999998789,NA,49,NA,NA,3000,1,NA,NA,images/redplanet1.jpg,images/alien2,images/alien1,images/rocket2,images/alien1,images/t.png,2,real,false,1,rare,1,2020-07-02T21:59:25Z,sub113
two-step-fixation,239,940569,0.0-76.0-2.34,TRUE,TRUE,TRUE,FALSE,"""event"",""trial"",""time""
""fullscreenenter"",""5"",""18531""
","
","
","""event"",""trial"",""time""
""fullscreenenter"",""5"",""18531""
","
",NA,images/earth.jpg,NA,NA,NA,NA,NA,NA,NA,NA,NA,NA,NA,NA,NA,fixation,NA,NA,NA,NA,NA,NA,sub113
d3-animate-choice,240,942834,0.0-76.0-0.35,TRUE,TRUE,TRUE,FALSE,"""event"",""trial"",""time""
""fullscreenenter"",""5"",""18531""
","
","
","""event"",""trial"",""time""
""fullscreenenter"",""5"",""18531""
","
",254.80499997502193,NA,48,NA,NA,3000,1,NA,NA,images/earth.jpg,images/rocket2,images/rocket1,null,images/rocket2,NA,1,real,null,2,NA,NA,NA,sub113
d3-animate-choice,241,945485,0.0-76.0-1.35,TRUE,TRUE,TRUE,FALSE,"""event"",""trial"",""time""
""fullscreenenter"",""5"",""18531""
","
","
","""event"",""trial"",""time""
""fullscreenenter"",""5"",""18531""
","
",640.4949999996461,NA,48,NA,NA,3000,1,NA,NA,images/purpleplanet.jpg,images/alien4,images/alien3,images/rocket2,images/alien4,images/t.png,2,real,true,2,common,1,2020-07-02T21:59:31Z,sub113
two-step-fixation,242,946494,0.0-76.0-2.35,TRUE,TRUE,TRUE,FALSE,"""event"",""trial"",""time""
""fullscreenenter"",""5"",""18531""
","
","
","""event"",""trial"",""time""
""fullscreenenter"",""5"",""18531""
","
",NA,images/earth.jpg,NA,NA,NA,NA,NA,NA,NA,NA,NA,NA,NA,NA,NA,fixation,NA,NA,NA,NA,NA,NA,sub113
d3-animate-choice,243,948840,0.0-76.0-0.36,TRUE,TRUE,TRUE,FALSE,"""event"",""trial"",""time""
""fullscreenenter"",""5"",""18531""
","
","
","""event"",""trial"",""time""
""fullscreenenter"",""5"",""18531""
","
",336.8999999947846,NA,49,NA,NA,3000,1,NA,NA,images/earth.jpg,images/rocket2,images/rocket1,null,images/rocket1,NA,1,real,null,1,NA,NA,NA,sub113
d3-animate-choice,244,951330,0.0-76.0-1.36,TRUE,TRUE,TRUE,FALSE,"""event"",""trial"",""time""
""fullscreenenter"",""5"",""18531""
","
","
","""event"",""trial"",""time""
""fullscreenenter"",""5"",""18531""
","
",482.0250000047963,NA,48,NA,NA,3000,1,NA,NA,images/purpleplanet.jpg,images/alien4,images/alien3,images/rocket1,images/alien4,images/t.png,2,real,false,2,rare,1,2020-07-02T21:59:37Z,sub113
two-step-fixation,245,952333,0.0-76.0-2.36,TRUE,TRUE,TRUE,FALSE,"""event"",""trial"",""time""
""fullscreenenter"",""5"",""18531""
","
","
","""event"",""trial"",""time""
""fullscreenenter"",""5"",""18531""
","
",NA,images/earth.jpg,NA,NA,NA,NA,NA,NA,NA,NA,NA,NA,NA,NA,NA,fixation,NA,NA,NA,NA,NA,NA,sub113
d3-animate-choice,246,954621,0.0-76.0-0.37,TRUE,TRUE,TRUE,FALSE,"""event"",""trial"",""time""
""fullscreenenter"",""5"",""18531""
","
","
","""event"",""trial"",""time""
""fullscreenenter"",""5"",""18531""
","
",278.14999999827705,NA,49,NA,NA,3000,1,NA,NA,images/earth.jpg,images/rocket2,images/rocket1,null,images/rocket1,NA,1,real,null,1,NA,NA,NA,sub113
d3-animate-choice,247,956873,0.0-76.0-1.37,TRUE,TRUE,TRUE,FALSE,"""event"",""trial"",""time""
""fullscreenenter"",""5"",""18531""
","
","
","""event"",""trial"",""time""
""fullscreenenter"",""5"",""18531""
","
",241.5999999793712,NA,48,NA,NA,3000,1,NA,NA,images/redplanet1.jpg,images/alien2,images/alien1,images/rocket1,images/alien2,images/nothing.png,2,real,true,2,common,0,2020-07-02T21:59:43Z,sub113
two-step-fixation,248,957881,0.0-76.0-2.37,TRUE,TRUE,TRUE,FALSE,"""event"",""trial"",""time""
""fullscreenenter"",""5"",""18531""
","
","
","""event"",""trial"",""time""
""fullscreenenter"",""5"",""18531""
","
",NA,images/earth.jpg,NA,NA,NA,NA,NA,NA,NA,NA,NA,NA,NA,NA,NA,fixation,NA,NA,NA,NA,NA,NA,sub113
d3-animate-choice,249,960229,0.0-76.0-0.38,TRUE,TRUE,TRUE,FALSE,"""event"",""trial"",""time""
""fullscreenenter"",""5"",""18531""
","
","
","""event"",""trial"",""time""
""fullscreenenter"",""5"",""18531""
","
",338.00000001792796,NA,49,NA,NA,3000,1,NA,NA,images/earth.jpg,images/rocket2,images/rocket1,null,images/rocket1,NA,1,real,null,1,NA,NA,NA,sub113
d3-animate-choice,250,962492,0.0-76.0-1.38,TRUE,TRUE,TRUE,FALSE,"""event"",""trial"",""time""
""fullscreenenter"",""5"",""18531""
","
","
","""event"",""trial"",""time""
""fullscreenenter"",""5"",""18531""
","
",253.38499998906627,NA,48,NA,NA,3000,1,NA,NA,images/redplanet1.jpg,images/alien2,images/alien1,images/rocket1,images/alien2,images/t.png,2,real,true,2,common,1,2020-07-02T21:59:48Z,sub113
two-step-fixation,251,963501,0.0-76.0-2.38,TRUE,TRUE,TRUE,FALSE,"""event"",""trial"",""time""
""fullscreenenter"",""5"",""18531""
","
","
","""event"",""trial"",""time""
""fullscreenenter"",""5"",""18531""
","
",NA,images/earth.jpg,NA,NA,NA,NA,NA,NA,NA,NA,NA,NA,NA,NA,NA,fixation,NA,NA,NA,NA,NA,NA,sub113
d3-animate-choice,252,965860,0.0-76.0-0.39,TRUE,TRUE,TRUE,FALSE,"""event"",""trial"",""time""
""fullscreenenter"",""5"",""18531""
","
","
","""event"",""trial"",""time""
""fullscreenenter"",""5"",""18531""
","
",349.24000001046807,NA,48,NA,NA,3000,1,NA,NA,images/earth.jpg,images/rocket2,images/rocket1,null,images/rocket2,NA,1,real,null,2,NA,NA,NA,sub113
d3-animate-choice,253,968107,0.0-76.0-1.39,TRUE,TRUE,TRUE,FALSE,"""event"",""trial"",""time""
""fullscreenenter"",""5"",""18531""
","
","
","""event"",""trial"",""time""
""fullscreenenter"",""5"",""18531""
","
",238.02499999874271,NA,49,NA,NA,3000,1,NA,NA,images/purpleplanet.jpg,images/alien4,images/alien3,images/rocket2,images/alien3,images/t.png,2,real,true,1,common,1,2020-07-02T21:59:54Z,sub113
two-step-fixation,254,969115,0.0-76.0-2.39,TRUE,TRUE,TRUE,FALSE,"""event"",""trial"",""time""
""fullscreenenter"",""5"",""18531""
","
","
","""event"",""trial"",""time""
""fullscreenenter"",""5"",""18531""
","
",NA,images/earth.jpg,NA,NA,NA,NA,NA,NA,NA,NA,NA,NA,NA,NA,NA,fixation,NA,NA,NA,NA,NA,NA,sub113
d3-animate-choice,255,971622,0.0-76.0-0.40,TRUE,TRUE,TRUE,FALSE,"""event"",""trial"",""time""
""fullscreenenter"",""5"",""18531""
","
","
","""event"",""trial"",""time""
""fullscreenenter"",""5"",""18531""
","
",500.76500000432134,NA,48,NA,NA,3000,1,NA,NA,images/earth.jpg,images/rocket2,images/rocket1,null,images/rocket2,NA,1,real,null,2,NA,NA,NA,sub113
d3-animate-choice,256,973754,0.0-76.0-1.40,TRUE,TRUE,TRUE,FALSE,"""event"",""trial"",""time""
""fullscreenenter"",""5"",""18531""
","
","
","""event"",""trial"",""time""
""fullscreenenter"",""5"",""18531""
","
",126.8100000161212,NA,49,NA,NA,3000,1,NA,NA,images/purpleplanet.jpg,images/alien4,images/alien3,images/rocket2,images/alien3,images/t.png,2,real,true,1,common,1,2020-07-02T21:59:59Z,sub113
two-step-fixation,257,974763,0.0-76.0-2.40,TRUE,TRUE,TRUE,FALSE,"""event"",""trial"",""time""
""fullscreenenter"",""5"",""18531""
","
","
","""event"",""trial"",""time""
""fullscreenenter"",""5"",""18531""
","
",NA,images/earth.jpg,NA,NA,NA,NA,NA,NA,NA,NA,NA,NA,NA,NA,NA,fixation,NA,NA,NA,NA,NA,NA,sub113
d3-animate-choice,258,977116,0.0-76.0-0.41,TRUE,TRUE,TRUE,FALSE,"""event"",""trial"",""time""
""fullscreenenter"",""5"",""18531""
","
","
","""event"",""trial"",""time""
""fullscreenenter"",""5"",""18531""
","
",344.44499999517575,NA,49,NA,NA,3000,1,NA,NA,images/earth.jpg,images/rocket2,images/rocket1,null,images/rocket1,NA,1,real,null,1,NA,NA,NA,sub113
d3-animate-choice,259,979393,0.0-76.0-1.41,TRUE,TRUE,TRUE,FALSE,"""event"",""trial"",""time""
""fullscreenenter"",""5"",""18531""
","
","
","""event"",""trial"",""time""
""fullscreenenter"",""5"",""18531""
","
",267.1449999907054,NA,48,NA,NA,3000,1,NA,NA,images/purpleplanet.jpg,images/alien4,images/alien3,images/rocket1,images/alien4,images/t.png,2,real,false,2,rare,1,2020-07-02T22:00:05Z,sub113
two-step-fixation,260,980402,0.0-76.0-2.41,TRUE,TRUE,TRUE,FALSE,"""event"",""trial"",""time""
""fullscreenenter"",""5"",""18531""
","
","
","""event"",""trial"",""time""
""fullscreenenter"",""5"",""18531""
","
",NA,images/earth.jpg,NA,NA,NA,NA,NA,NA,NA,NA,NA,NA,NA,NA,NA,fixation,NA,NA,NA,NA,NA,NA,sub113
d3-animate-choice,261,982735,0.0-76.0-0.42,TRUE,TRUE,TRUE,FALSE,"""event"",""trial"",""time""
""fullscreenenter"",""5"",""18531""
","
","
","""event"",""trial"",""time""
""fullscreenenter"",""5"",""18531""
","
",322.37999999779277,NA,48,NA,NA,3000,1,NA,NA,images/earth.jpg,images/rocket2,images/rocket1,null,images/rocket2,NA,1,real,null,2,NA,NA,NA,sub113
d3-animate-choice,262,985165,0.0-76.0-1.42,TRUE,TRUE,TRUE,FALSE,"""event"",""trial"",""time""
""fullscreenenter"",""5"",""18531""
","
","
","""event"",""trial"",""time""
""fullscreenenter"",""5"",""18531""
","
",420.5000000074506,NA,48,NA,NA,3000,1,NA,NA,images/redplanet1.jpg,images/alien2,images/alien1,images/rocket2,images/alien2,images/t.png,2,real,false,2,rare,1,2020-07-02T22:00:11Z,sub113
two-step-fixation,263,986171,0.0-76.0-2.42,TRUE,TRUE,TRUE,FALSE,"""event"",""trial"",""time""
""fullscreenenter"",""5"",""18531""
","
","
","""event"",""trial"",""time""
""fullscreenenter"",""5"",""18531""
","
",NA,images/earth.jpg,NA,NA,NA,NA,NA,NA,NA,NA,NA,NA,NA,NA,NA,fixation,NA,NA,NA,NA,NA,NA,sub113
d3-animate-choice,264,988438,0.0-76.0-0.43,TRUE,TRUE,TRUE,FALSE,"""event"",""trial"",""time""
""fullscreenenter"",""5"",""18531""
","
","
","""event"",""trial"",""time""
""fullscreenenter"",""5"",""18531""
","
",258.05999999283813,NA,48,NA,NA,3000,1,NA,NA,images/earth.jpg,images/rocket2,images/rocket1,null,images/rocket2,NA,1,real,null,2,NA,NA,NA,sub113
d3-animate-choice,265,990685,0.0-76.0-1.43,TRUE,TRUE,TRUE,FALSE,"""event"",""trial"",""time""
""fullscreenenter"",""5"",""18531""
","
","
","""event"",""trial"",""time""
""fullscreenenter"",""5"",""18531""
","
",236.73499998403713,NA,49,NA,NA,3000,1,NA,NA,images/purpleplanet.jpg,images/alien4,images/alien3,images/rocket2,images/alien3,images/nothing.png,2,real,true,1,common,0,2020-07-02T22:00:16Z,sub113
two-step-fixation,266,991694,0.0-76.0-2.43,TRUE,TRUE,TRUE,FALSE,"""event"",""trial"",""time""
""fullscreenenter"",""5"",""18531""
","
","
","""event"",""trial"",""time""
""fullscreenenter"",""5"",""18531""
","
",NA,images/earth.jpg,NA,NA,NA,NA,NA,NA,NA,NA,NA,NA,NA,NA,NA,fixation,NA,NA,NA,NA,NA,NA,sub113
d3-animate-choice,267,993715,0.0-76.0-0.44,TRUE,TRUE,TRUE,FALSE,"""event"",""trial"",""time""
""fullscreenenter"",""5"",""18531""
","
","
","""event"",""trial"",""time""
""fullscreenenter"",""5"",""18531""
","
",11.895000003278255,NA,48,NA,NA,3000,1,NA,NA,images/earth.jpg,images/rocket2,images/rocket1,null,images/rocket2,NA,1,real,null,2,NA,NA,NA,sub113
d3-animate-choice,268,996046,0.0-76.0-1.44,TRUE,TRUE,TRUE,FALSE,"""event"",""trial"",""time""
""fullscreenenter"",""5"",""18531""
","
","
","""event"",""trial"",""time""
""fullscreenenter"",""5"",""18531""
","
",321.5149999887217,NA,49,NA,NA,3000,1,NA,NA,images/purpleplanet.jpg,images/alien4,images/alien3,images/rocket2,images/alien3,images/nothing.png,2,real,true,1,common,0,2020-07-02T22:00:22Z,sub113
two-step-fixation,269,997055,0.0-76.0-2.44,TRUE,TRUE,TRUE,FALSE,"""event"",""trial"",""time""
""fullscreenenter"",""5"",""18531""
","
","
","""event"",""trial"",""time""
""fullscreenenter"",""5"",""18531""
","
",NA,images/earth.jpg,NA,NA,NA,NA,NA,NA,NA,NA,NA,NA,NA,NA,NA,fixation,NA,NA,NA,NA,NA,NA,sub113
d3-animate-choice,270,999352,0.0-76.0-0.45,TRUE,TRUE,TRUE,FALSE,"""event"",""trial"",""time""
""fullscreenenter"",""5"",""18531""
","
","
","""event"",""trial"",""time""
""fullscreenenter"",""5"",""18531""
","
",287.82999998657033,NA,48,NA,NA,3000,1,NA,NA,images/earth.jpg,images/rocket2,images/rocket1,null,images/rocket2,NA,1,real,null,2,NA,NA,NA,sub113
d3-animate-choice,271,1001721,0.0-76.0-1.45,TRUE,TRUE,TRUE,FALSE,"""event"",""trial"",""time""
""fullscreenenter"",""5"",""18531""
","
","
","""event"",""trial"",""time""
""fullscreenenter"",""5"",""18531""
","
",359.9300000059884,NA,48,NA,NA,3000,1,NA,NA,images/purpleplanet.jpg,images/alien4,images/alien3,images/rocket2,images/alien4,images/t.png,2,real,true,2,common,1,2020-07-02T22:00:27Z,sub113
two-step-fixation,272,1002730,0.0-76.0-2.45,TRUE,TRUE,TRUE,FALSE,"""event"",""trial"",""time""
""fullscreenenter"",""5"",""18531""
","
","
","""event"",""trial"",""time""
""fullscreenenter"",""5"",""18531""
","
",NA,images/earth.jpg,NA,NA,NA,NA,NA,NA,NA,NA,NA,NA,NA,NA,NA,fixation,NA,NA,NA,NA,NA,NA,sub113
d3-animate-choice,273,1004968,0.0-76.0-0.46,TRUE,TRUE,TRUE,FALSE,"""event"",""trial"",""time""
""fullscreenenter"",""5"",""18531""
","
","
","""event"",""trial"",""time""
""fullscreenenter"",""5"",""18531""
","
",228.68000000016764,NA,48,NA,NA,3000,1,NA,NA,images/earth.jpg,images/rocket2,images/rocket1,null,images/rocket2,NA,1,real,null,2,NA,NA,NA,sub113
d3-animate-choice,274,1007312,0.0-76.0-1.46,TRUE,TRUE,TRUE,FALSE,"""event"",""trial"",""time""
""fullscreenenter"",""5"",""18531""
","
","
","""event"",""trial"",""time""
""fullscreenenter"",""5"",""18531""
","
",333.52000001468696,NA,49,NA,NA,3000,1,NA,NA,images/purpleplanet.jpg,images/alien4,images/alien3,images/rocket2,images/alien3,images/nothing.png,2,real,true,1,common,0,2020-07-02T22:00:33Z,sub113
two-step-fixation,275,1008320,0.0-76.0-2.46,TRUE,TRUE,TRUE,FALSE,"""event"",""trial"",""time""
""fullscreenenter"",""5"",""18531""
","
","
","""event"",""trial"",""time""
""fullscreenenter"",""5"",""18531""
","
",NA,images/earth.jpg,NA,NA,NA,NA,NA,NA,NA,NA,NA,NA,NA,NA,NA,fixation,NA,NA,NA,NA,NA,NA,sub113
d3-animate-choice,276,1010563,0.0-76.0-0.47,TRUE,TRUE,TRUE,FALSE,"""event"",""trial"",""time""
""fullscreenenter"",""5"",""18531""
","
","
","""event"",""trial"",""time""
""fullscreenenter"",""5"",""18531""
","
",233.80499999620952,NA,48,NA,NA,3000,1,NA,NA,images/earth.jpg,images/rocket2,images/rocket1,null,images/rocket2,NA,1,real,null,2,NA,NA,NA,sub113
d3-animate-choice,277,1012844,0.0-76.0-1.47,TRUE,TRUE,TRUE,FALSE,"""event"",""trial"",""time""
""fullscreenenter"",""5"",""18531""
","
","
","""event"",""trial"",""time""
""fullscreenenter"",""5"",""18531""
","
",270.64999999129213,NA,48,NA,NA,3000,1,NA,NA,images/purpleplanet.jpg,images/alien4,images/alien3,images/rocket2,images/alien4,images/nothing.png,2,real,true,2,common,0,2020-07-02T22:00:38Z,sub113
two-step-fixation,278,1013851,0.0-76.0-2.47,TRUE,TRUE,TRUE,FALSE,"""event"",""trial"",""time""
""fullscreenenter"",""5"",""18531""
","
","
","""event"",""trial"",""time""
""fullscreenenter"",""5"",""18531""
","
",NA,images/earth.jpg,NA,NA,NA,NA,NA,NA,NA,NA,NA,NA,NA,NA,NA,fixation,NA,NA,NA,NA,NA,NA,sub113
d3-animate-choice,279,1015901,0.0-76.0-0.48,TRUE,TRUE,TRUE,FALSE,"""event"",""trial"",""time""
""fullscreenenter"",""5"",""18531""
","
","
","""event"",""trial"",""time""
""fullscreenenter"",""5"",""18531""
","
",38.87999997823499,NA,49,NA,NA,3000,1,NA,NA,images/earth.jpg,images/rocket2,images/rocket1,null,images/rocket1,NA,1,real,null,1,NA,NA,NA,sub113
d3-animate-choice,280,1018484,0.0-76.0-1.48,TRUE,TRUE,TRUE,FALSE,"""event"",""trial"",""time""
""fullscreenenter"",""5"",""18531""
","
","
","""event"",""trial"",""time""
""fullscreenenter"",""5"",""18531""
","
",571.6350000002421,NA,49,NA,NA,3000,1,NA,NA,images/redplanet1.jpg,images/alien2,images/alien1,images/rocket1,images/alien1,images/t.png,2,real,true,1,common,1,2020-07-02T22:00:44Z,sub113
two-step-fixation,281,1019493,0.0-76.0-2.48,TRUE,TRUE,TRUE,FALSE,"""event"",""trial"",""time""
""fullscreenenter"",""5"",""18531""
","
","
","""event"",""trial"",""time""
""fullscreenenter"",""5"",""18531""
","
",NA,images/earth.jpg,NA,NA,NA,NA,NA,NA,NA,NA,NA,NA,NA,NA,NA,fixation,NA,NA,NA,NA,NA,NA,sub113
d3-animate-choice,282,1021840,0.0-76.0-0.49,TRUE,TRUE,TRUE,FALSE,"""event"",""trial"",""time""
""fullscreenenter"",""5"",""18531""
","
","
","""event"",""trial"",""time""
""fullscreenenter"",""5"",""18531""
","
",336.75500002573244,NA,48,NA,NA,3000,1,NA,NA,images/earth.jpg,images/rocket2,images/rocket1,null,images/rocket2,NA,1,real,null,2,NA,NA,NA,sub113
d3-animate-choice,283,1024501,0.0-76.0-1.49,TRUE,TRUE,TRUE,FALSE,"""event"",""trial"",""time""
