trial_type,trial_index,time_elapsed,internal_node_id,rocket_sides,red_planet_first_rocket,red_display_order,purple_display_order,interactions,blur_events,focus_events,fullscreenenter_events,fullscreenexit_events,rt,stimulus,key_press,button_pressed,success,duration,valid_pressed,rts,keys,planet_text,right_text,left_text,center_text,chosen_text,reward_text,trial_stage,practice_trial,transition_type,choice,transition,reward,timestamp,subject_id
pavlovia,0,6,0.0-0.0,FALSE,FALSE,FALSE,TRUE,"
","
","
","
","
",NA,NA,NA,NA,NA,NA,NA,NA,NA,NA,NA,NA,NA,NA,NA,NA,NA,NA,NA,NA,NA,NA,sub81
html-keyboard-response,1,2577,0.0-1.0,FALSE,FALSE,FALSE,TRUE,"
","
","
","
","
",2567.829999999958,Welcome! Press the space bar to begin.,32,NA,NA,NA,NA,NA,NA,NA,NA,NA,NA,NA,NA,NA,NA,NA,NA,NA,NA,NA,sub81
audio-keyboard-response,2,6737,0.0-2.0,FALSE,FALSE,FALSE,TRUE,"
","
","
","
","
",3891,audio/beep_loop.wav,32,NA,NA,NA,NA,NA,NA,NA,NA,NA,NA,NA,NA,NA,NA,NA,NA,NA,NA,NA,sub81
audio-button-response,3,10412,0.0-3.0,FALSE,FALSE,FALSE,TRUE,"
","
","
","
","
",NaN,audio/fish.mp3,NA,1,NA,NA,NA,NA,NA,NA,NA,NA,NA,NA,NA,NA,NA,NA,NA,NA,NA,NA,sub81
audio-button-response,4,13295,0.0-4.0,FALSE,FALSE,FALSE,TRUE,"""event"",""trial"",""time""
""fullscreenenter"",""5"",""26184""
","
","
","""event"",""trial"",""time""
""fullscreenenter"",""5"",""26184""
","
",NaN,audio/tiger.mp3,NA,4,NA,NA,NA,NA,NA,NA,NA,NA,NA,NA,NA,NA,NA,NA,NA,NA,NA,NA,sub81
fullscreen,5,27168,0.0-5.0,FALSE,FALSE,FALSE,TRUE,"""event"",""trial"",""time""
""fullscreenenter"",""5"",""26184""
","
","
","""event"",""trial"",""time""
""fullscreenenter"",""5"",""26184""
","
",NA,NA,NA,NA,TRUE,NA,NA,NA,NA,NA,NA,NA,NA,NA,NA,NA,NA,NA,NA,NA,NA,NA,sub81
d3-instructions,6,40275,0.0-6.0,FALSE,FALSE,FALSE,TRUE,"""event"",""trial"",""time""
""fullscreenenter"",""5"",""26184""
","
","
","""event"",""trial"",""time""
""fullscreenenter"",""5"",""26184""
","
",NA,NA,NA,NA,NA,NA,NA,NA,NA,NA,NA,NA,NA,NA,NA,NA,NA,NA,NA,NA,NA,NA,sub81
d3-instructions,7,48759,0.0-7.0,FALSE,FALSE,FALSE,TRUE,"""event"",""trial"",""time""
""fullscreenenter"",""5"",""26184""
","
","
","""event"",""trial"",""time""
""fullscreenenter"",""5"",""26184""
","
",NA,NA,NA,NA,NA,NA,NA,NA,NA,NA,NA,NA,NA,NA,NA,NA,NA,NA,NA,NA,NA,NA,sub81
d3-instructions,8,55428,0.0-8.0,FALSE,FALSE,FALSE,TRUE,"""event"",""trial"",""time""
""fullscreenenter"",""5"",""26184""
","
","
","""event"",""trial"",""time""
""fullscreenenter"",""5"",""26184""
","
",NA,NA,NA,NA,NA,NA,NA,NA,NA,NA,NA,NA,NA,NA,NA,NA,NA,NA,NA,NA,NA,NA,sub81
d3-instructions,9,69055,0.0-9.0,FALSE,FALSE,FALSE,TRUE,"""event"",""trial"",""time""
""fullscreenenter"",""5"",""26184""
","
","
","""event"",""trial"",""time""
""fullscreenenter"",""5"",""26184""
","
",NA,NA,NA,NA,NA,NA,NA,NA,NA,NA,NA,NA,NA,NA,NA,NA,NA,NA,NA,NA,NA,NA,sub81
d3-instructions,10,84045,0.0-10.0,FALSE,FALSE,FALSE,TRUE,"""event"",""trial"",""time""
""fullscreenenter"",""5"",""26184""
","
","
","""event"",""trial"",""time""
""fullscreenenter"",""5"",""26184""
","
",NA,NA,NA,NA,NA,NA,NA,NA,NA,NA,NA,NA,NA,NA,NA,NA,NA,NA,NA,NA,NA,NA,sub81
d3-animate-choice,11,90551,0.0-11.0,FALSE,FALSE,FALSE,TRUE,"""event"",""trial"",""time""
""fullscreenenter"",""5"",""26184""
","
","
","""event"",""trial"",""time""
""fullscreenenter"",""5"",""26184""
","
",4487.50000000291,NA,48,NA,NA,3000,1,NA,NA,images/tutgreenplanet.jpg,images/tutalien1,images/tutalien2,null,images/tutalien1,NA,NA,practice,null,NA,NA,NA,NA,sub81
d3-animate-choice,12,94598,0.0-12.0,FALSE,FALSE,FALSE,TRUE,"""event"",""trial"",""time""
""fullscreenenter"",""5"",""26184""
","
","
","""event"",""trial"",""time""
""fullscreenenter"",""5"",""26184""
","
",2038.990000000922,NA,49,NA,NA,3000,1,NA,NA,images/tutgreenplanet.jpg,images/tutalien1,images/tutalien2,null,images/tutalien2,NA,NA,practice,null,NA,NA,NA,NA,sub81
d3-animate-choice,13,98468,0.0-13.0,FALSE,FALSE,FALSE,TRUE,"""event"",""trial"",""time""
""fullscreenenter"",""5"",""26184""
","
","
","""event"",""trial"",""time""
""fullscreenenter"",""5"",""26184""
","
",1863.7400000006892,NA,48,NA,NA,3000,1,2498.380000004545,48,images/tutgreenplanet.jpg,images/tutalien1,images/tutalien2,null,images/tutalien1,NA,NA,practice,null,NA,NA,NA,NA,sub81
d3-animate-choice,14,101267,0.0-14.0,FALSE,FALSE,FALSE,TRUE,"""event"",""trial"",""time""
""fullscreenenter"",""5"",""26184""
","
","
","""event"",""trial"",""time""
""fullscreenenter"",""5"",""26184""
","
",791.2899999937508,NA,48,NA,NA,3000,1,1609.7100000042701,32,images/tutgreenplanet.jpg,images/tutalien1,images/tutalien2,null,images/tutalien1,NA,NA,practice,null,NA,NA,NA,NA,sub81
d3-instructions,15,107628,0.0-15.0,FALSE,FALSE,FALSE,TRUE,"""event"",""trial"",""time""
""fullscreenenter"",""5"",""26184""
","
","
","""event"",""trial"",""time""
""fullscreenenter"",""5"",""26184""
","
",NA,NA,NA,NA,NA,NA,NA,NA,NA,NA,NA,NA,NA,NA,NA,NA,NA,NA,NA,NA,NA,NA,sub81
d3-instructions,16,114369,0.0-16.0,FALSE,FALSE,FALSE,TRUE,"""event"",""trial"",""time""
""fullscreenenter"",""5"",""26184""
","
","
","""event"",""trial"",""time""
""fullscreenenter"",""5"",""26184""
","
",NA,NA,NA,NA,NA,NA,NA,NA,NA,NA,NA,NA,NA,NA,NA,NA,NA,NA,NA,NA,NA,NA,sub81
d3-instructions,17,124555,0.0-17.0,FALSE,FALSE,FALSE,TRUE,"""event"",""trial"",""time""
""fullscreenenter"",""5"",""26184""
","
","
","""event"",""trial"",""time""
""fullscreenenter"",""5"",""26184""
","
",NA,NA,NA,NA,NA,NA,NA,NA,NA,NA,NA,NA,NA,NA,NA,NA,NA,NA,NA,NA,NA,NA,sub81
d3-instructions,18,137567,0.0-18.0,FALSE,FALSE,FALSE,TRUE,"""event"",""trial"",""time""
""fullscreenenter"",""5"",""26184""
","
","
","""event"",""trial"",""time""
""fullscreenenter"",""5"",""26184""
","
",NA,NA,NA,NA,NA,NA,NA,NA,NA,NA,NA,NA,NA,NA,NA,NA,NA,NA,NA,NA,NA,NA,sub81
d3-instructions,19,151925,0.0-19.0,FALSE,FALSE,FALSE,TRUE,"""event"",""trial"",""time""
""fullscreenenter"",""5"",""26184""
","
","
","""event"",""trial"",""time""
""fullscreenenter"",""5"",""26184""
","
",NA,NA,NA,NA,NA,NA,NA,NA,NA,NA,NA,NA,NA,NA,NA,NA,NA,NA,NA,NA,NA,NA,sub81
d3-animate-choice,20,155274,0.0-20.0,FALSE,FALSE,FALSE,TRUE,"""event"",""trial"",""time""
""fullscreenenter"",""5"",""26184""
","
","
","""event"",""trial"",""time""
""fullscreenenter"",""5"",""26184""
","
",1342.6700000127312,NA,49,NA,NA,3000,1,NA,NA,images/tutyellowplanet.jpg,null,images/tutalien3,null,images/tutalien3,images/t.png,NA,practice,null,NA,NA,NA,NA,sub81
d3-animate-choice,21,157597,0.0-21.0,FALSE,FALSE,FALSE,TRUE,"""event"",""trial"",""time""
""fullscreenenter"",""5"",""26184""
","
","
","""event"",""trial"",""time""
""fullscreenenter"",""5"",""26184""
","
",317.0950000057928,NA,49,NA,NA,3000,1,NA,NA,images/tutyellowplanet.jpg,null,images/tutalien3,null,images/tutalien3,images/t.png,NA,practice,null,NA,NA,NA,NA,sub81
d3-animate-choice,22,159944,0.0-22.0,FALSE,FALSE,FALSE,TRUE,"""event"",""trial"",""time""
""fullscreenenter"",""5"",""26184""
","
","
","""event"",""trial"",""time""
""fullscreenenter"",""5"",""26184""
","
",341.20500000426546,NA,49,NA,NA,3000,1,NA,NA,images/tutyellowplanet.jpg,null,images/tutalien3,null,images/tutalien3,images/nothing.png,NA,practice,null,NA,NA,NA,NA,sub81
d3-animate-choice,23,162354,0.0-23.0,FALSE,FALSE,FALSE,TRUE,"""event"",""trial"",""time""
""fullscreenenter"",""5"",""26184""
","
","
","""event"",""trial"",""time""
""fullscreenenter"",""5"",""26184""
","
",404.3800000072224,NA,49,NA,NA,3000,1,NA,NA,images/tutyellowplanet.jpg,null,images/tutalien3,null,images/tutalien3,images/t.png,NA,practice,null,NA,NA,NA,NA,sub81
d3-animate-choice,24,164676,0.0-24.0,FALSE,FALSE,FALSE,TRUE,"""event"",""trial"",""time""
""fullscreenenter"",""5"",""26184""
","
","
","""event"",""trial"",""time""
""fullscreenenter"",""5"",""26184""
","
",316.89499999629334,NA,49,NA,NA,3000,1,NA,NA,images/tutyellowplanet.jpg,null,images/tutalien3,null,images/tutalien3,images/t.png,NA,practice,null,NA,NA,NA,NA,sub81
d3-animate-choice,25,167078,0.0-25.0,FALSE,FALSE,FALSE,TRUE,"""event"",""trial"",""time""
""fullscreenenter"",""5"",""26184""
","
","
","""event"",""trial"",""time""
""fullscreenenter"",""5"",""26184""
","
",396.8299999978626,NA,49,NA,NA,3000,1,NA,NA,images/tutyellowplanet.jpg,null,images/tutalien3,null,images/tutalien3,images/nothing.png,NA,practice,null,NA,NA,NA,NA,sub81
d3-animate-choice,26,169559,0.0-26.0,FALSE,FALSE,FALSE,TRUE,"""event"",""trial"",""time""
""fullscreenenter"",""5"",""26184""
","
","
","""event"",""trial"",""time""
""fullscreenenter"",""5"",""26184""
","
",475.879999998142,NA,49,NA,NA,3000,1,NA,NA,images/tutyellowplanet.jpg,null,images/tutalien3,null,images/tutalien3,images/t.png,NA,practice,null,NA,NA,NA,NA,sub81
d3-animate-choice,27,172083,0.0-27.0,FALSE,FALSE,FALSE,TRUE,"""event"",""trial"",""time""
""fullscreenenter"",""5"",""26184""
","
","
","""event"",""trial"",""time""
""fullscreenenter"",""5"",""26184""
","
",516.4450000011129,NA,49,NA,NA,3000,1,NA,NA,images/tutyellowplanet.jpg,null,images/tutalien3,null,images/tutalien3,images/t.png,NA,practice,null,NA,NA,NA,NA,sub81
d3-animate-choice,28,174539,0.0-28.0,FALSE,FALSE,FALSE,TRUE,"""event"",""trial"",""time""
""fullscreenenter"",""5"",""26184""
","
","
","""event"",""trial"",""time""
""fullscreenenter"",""5"",""26184""
","
",450.02499999827705,NA,49,NA,NA,3000,1,NA,NA,images/tutyellowplanet.jpg,null,images/tutalien3,null,images/tutalien3,images/t.png,NA,practice,null,NA,NA,NA,NA,sub81
d3-animate-choice,29,177045,0.0-29.0,FALSE,FALSE,FALSE,TRUE,"""event"",""trial"",""time""
""fullscreenenter"",""5"",""26184""
","
","
","""event"",""trial"",""time""
""fullscreenenter"",""5"",""26184""
","
",500.1500000071246,NA,49,NA,NA,3000,1,NA,NA,images/tutyellowplanet.jpg,null,images/tutalien3,null,images/tutalien3,images/t.png,NA,practice,null,NA,NA,NA,NA,sub81
d3-instructions,30,183897,0.0-30.0,FALSE,FALSE,FALSE,TRUE,"""event"",""trial"",""time""
""fullscreenenter"",""5"",""26184""
","
","
","""event"",""trial"",""time""
""fullscreenenter"",""5"",""26184""
","
",NA,NA,NA,NA,NA,NA,NA,NA,NA,NA,NA,NA,NA,NA,NA,NA,NA,NA,NA,NA,NA,NA,sub81
d3-instructions,31,194665,0.0-31.0,FALSE,FALSE,FALSE,TRUE,"""event"",""trial"",""time""
""fullscreenenter"",""5"",""26184""
","
","
","""event"",""trial"",""time""
""fullscreenenter"",""5"",""26184""
","
",NA,NA,NA,NA,NA,NA,NA,NA,NA,NA,NA,NA,NA,NA,NA,NA,NA,NA,NA,NA,NA,NA,sub81
d3-instructions,32,208519,0.0-32.0,FALSE,FALSE,FALSE,TRUE,"""event"",""trial"",""time""
""fullscreenenter"",""5"",""26184""
","
","
","""event"",""trial"",""time""
""fullscreenenter"",""5"",""26184""
","
",NA,NA,NA,NA,NA,NA,NA,NA,NA,NA,NA,NA,NA,NA,NA,NA,NA,NA,NA,NA,NA,NA,sub81
d3-instructions,33,220777,0.0-33.0,FALSE,FALSE,FALSE,TRUE,"""event"",""trial"",""time""
""fullscreenenter"",""5"",""26184""
","
","
","""event"",""trial"",""time""
""fullscreenenter"",""5"",""26184""
","
",NA,NA,NA,NA,NA,NA,NA,NA,NA,NA,NA,NA,NA,NA,NA,NA,NA,NA,NA,NA,NA,NA,sub81
d3-animate-choice,34,224619,0.0-34.0,FALSE,FALSE,FALSE,TRUE,"""event"",""trial"",""time""
""fullscreenenter"",""5"",""26184""
","
","
","""event"",""trial"",""time""
""fullscreenenter"",""5"",""26184""
","
",1836.6399999940768,NA,49,NA,NA,3000,1,NA,NA,images/tutgreenplanet.jpg,images/tutalien1,images/tutalien2,null,images/tutalien2,images/t.png,NA,practice,null,NA,NA,NA,NA,sub81
d3-animate-choice,35,227596,0.0-35.0,FALSE,FALSE,FALSE,TRUE,"""event"",""trial"",""time""
""fullscreenenter"",""5"",""26184""
","
","
","""event"",""trial"",""time""
""fullscreenenter"",""5"",""26184""
","
",969.4050000107381,NA,49,NA,NA,3000,1,2901.6650000121444,49,images/tutgreenplanet.jpg,images/tutalien1,images/tutalien2,null,images/tutalien2,images/t.png,NA,practice,null,NA,NA,NA,NA,sub81
d3-animate-choice,36,230235,0.0-36.0,FALSE,FALSE,FALSE,TRUE,"""event"",""trial"",""time""
""fullscreenenter"",""5"",""26184""
","
","
","""event"",""trial"",""time""
""fullscreenenter"",""5"",""26184""
","
",629.4999999954598,NA,49,NA,NA,3000,1,NA,NA,images/tutgreenplanet.jpg,images/tutalien1,images/tutalien2,null,images/tutalien2,images/t.png,NA,practice,null,NA,NA,NA,NA,sub81
d3-animate-choice,37,232668,0.0-37.0,FALSE,FALSE,FALSE,TRUE,"""event"",""trial"",""time""
""fullscreenenter"",""5"",""26184""
","
","
","""event"",""trial"",""time""
""fullscreenenter"",""5"",""26184""
","
",427.8900000063004,NA,49,NA,NA,3000,1,NA,NA,images/tutgreenplanet.jpg,images/tutalien1,images/tutalien2,null,images/tutalien2,images/nothing.png,NA,practice,null,NA,NA,NA,NA,sub81
d3-animate-choice,38,235229,0.0-38.0,FALSE,FALSE,FALSE,TRUE,"""event"",""trial"",""time""
""fullscreenenter"",""5"",""26184""
","
","
","""event"",""trial"",""time""
""fullscreenenter"",""5"",""26184""
","
",556.0550000082003,NA,49,NA,NA,3000,1,NA,NA,images/tutgreenplanet.jpg,images/tutalien1,images/tutalien2,null,images/tutalien2,images/t.png,NA,practice,null,NA,NA,NA,NA,sub81
d3-animate-choice,39,237974,0.0-39.0,FALSE,FALSE,FALSE,TRUE,"""event"",""trial"",""time""
""fullscreenenter"",""5"",""26184""
","
","
","""event"",""trial"",""time""
""fullscreenenter"",""5"",""26184""
","
",738.8650000066264,NA,49,NA,NA,3000,1,NA,NA,images/tutgreenplanet.jpg,images/tutalien1,images/tutalien2,null,images/tutalien2,images/t.png,NA,practice,null,NA,NA,NA,NA,sub81
d3-animate-choice,40,240479,0.0-40.0,FALSE,FALSE,FALSE,TRUE,"""event"",""trial"",""time""
""fullscreenenter"",""5"",""26184""
","
","
","""event"",""trial"",""time""
""fullscreenenter"",""5"",""26184""
","
",499.08499998855405,NA,49,NA,NA,3000,1,NA,NA,images/tutgreenplanet.jpg,images/tutalien1,images/tutalien2,null,images/tutalien2,images/t.png,NA,practice,null,NA,NA,NA,NA,sub81
d3-animate-choice,41,242977,0.0-41.0,FALSE,FALSE,FALSE,TRUE,"""event"",""trial"",""time""
""fullscreenenter"",""5"",""26184""
","
","
","""event"",""trial"",""time""
""fullscreenenter"",""5"",""26184""
","
",491.7600000044331,NA,49,NA,NA,3000,1,NA,NA,images/tutgreenplanet.jpg,images/tutalien1,images/tutalien2,null,images/tutalien2,images/t.png,NA,practice,null,NA,NA,NA,NA,sub81
d3-animate-choice,42,245518,0.0-42.0,FALSE,FALSE,FALSE,TRUE,"""event"",""trial"",""time""
""fullscreenenter"",""5"",""26184""
","
","
","""event"",""trial"",""time""
""fullscreenenter"",""5"",""26184""
","
",534.6049999934621,NA,48,NA,NA,3000,1,NA,NA,images/tutgreenplanet.jpg,images/tutalien1,images/tutalien2,null,images/tutalien1,images/nothing.png,NA,practice,null,NA,NA,NA,NA,sub81
d3-animate-choice,43,247848,0.0-43.0,FALSE,FALSE,FALSE,TRUE,"""event"",""trial"",""time""
""fullscreenenter"",""5"",""26184""
","
","
","""event"",""trial"",""time""
""fullscreenenter"",""5"",""26184""
","
",323.30000000365544,NA,48,NA,NA,3000,1,NA,NA,images/tutgreenplanet.jpg,images/tutalien1,images/tutalien2,null,images/tutalien1,images/nothing.png,NA,practice,null,NA,NA,NA,NA,sub81
d3-instructions,44,260292,0.0-44.0,FALSE,FALSE,FALSE,TRUE,"""event"",""trial"",""time""
""fullscreenenter"",""5"",""26184""
","
","
","""event"",""trial"",""time""
""fullscreenenter"",""5"",""26184""
","
",NA,NA,NA,NA,NA,NA,NA,NA,NA,NA,NA,NA,NA,NA,NA,NA,NA,NA,NA,NA,NA,NA,sub81
d3-instructions,45,266331,0.0-45.0,FALSE,FALSE,FALSE,TRUE,"""event"",""trial"",""time""
""fullscreenenter"",""5"",""26184""
","
","
","""event"",""trial"",""time""
""fullscreenenter"",""5"",""26184""
","
",NA,NA,NA,NA,NA,NA,NA,NA,NA,NA,NA,NA,NA,NA,NA,NA,NA,NA,NA,NA,NA,NA,sub81
d3-instructions,46,270437,0.0-46.0,FALSE,FALSE,FALSE,TRUE,"""event"",""trial"",""time""
""fullscreenenter"",""5"",""26184""
","
","
","""event"",""trial"",""time""
""fullscreenenter"",""5"",""26184""
","
",NA,NA,NA,NA,NA,NA,NA,NA,NA,NA,NA,NA,NA,NA,NA,NA,NA,NA,NA,NA,NA,NA,sub81
d3-instructions,47,288154,0.0-47.0,FALSE,FALSE,FALSE,TRUE,"""event"",""trial"",""time""
""fullscreenenter"",""5"",""26184""
","
","
","""event"",""trial"",""time""
""fullscreenenter"",""5"",""26184""
","
",NA,NA,NA,NA,NA,NA,NA,NA,NA,NA,NA,NA,NA,NA,NA,NA,NA,NA,NA,NA,NA,NA,sub81
d3-instructions,48,295428,0.0-48.0,FALSE,FALSE,FALSE,TRUE,"""event"",""trial"",""time""
""fullscreenenter"",""5"",""26184""
","
","
","""event"",""trial"",""time""
""fullscreenenter"",""5"",""26184""
","
",NA,NA,NA,NA,NA,NA,NA,NA,NA,NA,NA,NA,NA,NA,NA,NA,NA,NA,NA,NA,NA,NA,sub81
d3-instructions,49,306977,0.0-49.0,FALSE,FALSE,FALSE,TRUE,"""event"",""trial"",""time""
""fullscreenenter"",""5"",""26184""
","
","
","""event"",""trial"",""time""
""fullscreenenter"",""5"",""26184""
","
",NA,NA,NA,NA,NA,NA,NA,NA,NA,NA,NA,NA,NA,NA,NA,NA,NA,NA,NA,NA,NA,NA,sub81
d3-instructions,50,316932,0.0-50.0,FALSE,FALSE,FALSE,TRUE,"""event"",""trial"",""time""
""fullscreenenter"",""5"",""26184""
","
","
","""event"",""trial"",""time""
""fullscreenenter"",""5"",""26184""
","
",NA,NA,NA,NA,NA,NA,NA,NA,NA,NA,NA,NA,NA,NA,NA,NA,NA,NA,NA,NA,NA,NA,sub81
d3-instructions,51,320034,0.0-51.0,FALSE,FALSE,FALSE,TRUE,"""event"",""trial"",""time""
""fullscreenenter"",""5"",""26184""
","
","
","""event"",""trial"",""time""
""fullscreenenter"",""5"",""26184""
","
",NA,NA,NA,NA,NA,NA,NA,NA,NA,NA,NA,NA,NA,NA,NA,NA,NA,NA,NA,NA,NA,NA,sub81
d3-instructions,52,321783,0.0-52.0,FALSE,FALSE,FALSE,TRUE,"""event"",""trial"",""time""
""fullscreenenter"",""5"",""26184""
","
","
","""event"",""trial"",""time""
""fullscreenenter"",""5"",""26184""
","
",NA,NA,NA,NA,NA,NA,NA,NA,NA,NA,NA,NA,NA,NA,NA,NA,NA,NA,NA,NA,NA,NA,sub81
d3-instructions,53,339140,0.0-53.0,FALSE,FALSE,FALSE,TRUE,"""event"",""trial"",""time""
""fullscreenenter"",""5"",""26184""
","
","
","""event"",""trial"",""time""
""fullscreenenter"",""5"",""26184""
","
",NA,NA,NA,NA,NA,NA,NA,NA,NA,NA,NA,NA,NA,NA,NA,NA,NA,NA,NA,NA,NA,NA,sub81
d3-instructions,54,355470,0.0-54.0,FALSE,FALSE,FALSE,TRUE,"""event"",""trial"",""time""
""fullscreenenter"",""5"",""26184""
","
","
","""event"",""trial"",""time""
""fullscreenenter"",""5"",""26184""
","
",NA,NA,NA,NA,NA,NA,NA,NA,NA,NA,NA,NA,NA,NA,NA,NA,NA,NA,NA,NA,NA,NA,sub81
d3-instructions,55,367693,0.0-55.0,FALSE,FALSE,FALSE,TRUE,"""event"",""trial"",""time""
""fullscreenenter"",""5"",""26184""
","
","
","""event"",""trial"",""time""
""fullscreenenter"",""5"",""26184""
","
",NA,NA,NA,NA,NA,NA,NA,NA,NA,NA,NA,NA,NA,NA,NA,NA,NA,NA,NA,NA,NA,NA,sub81
d3-instructions,56,374352,0.0-56.0,FALSE,FALSE,FALSE,TRUE,"""event"",""trial"",""time""
""fullscreenenter"",""5"",""26184""
","
","
","""event"",""trial"",""time""
""fullscreenenter"",""5"",""26184""
","
",NA,NA,NA,NA,NA,NA,NA,NA,NA,NA,NA,NA,NA,NA,NA,NA,NA,NA,NA,NA,NA,NA,sub81
d3-instructions,57,384888,0.0-57.0,FALSE,FALSE,FALSE,TRUE,"""event"",""trial"",""time""
""fullscreenenter"",""5"",""26184""
","
","
","""event"",""trial"",""time""
""fullscreenenter"",""5"",""26184""
","
",NA,NA,NA,NA,NA,NA,NA,NA,NA,NA,NA,NA,NA,NA,NA,NA,NA,NA,NA,NA,NA,NA,sub81
d3-instructions,58,398002,0.0-58.0,FALSE,FALSE,FALSE,TRUE,"""event"",""trial"",""time""
""fullscreenenter"",""5"",""26184""
","
","
","""event"",""trial"",""time""
""fullscreenenter"",""5"",""26184""
","
",NA,NA,NA,NA,NA,NA,NA,NA,NA,NA,NA,NA,NA,NA,NA,NA,NA,NA,NA,NA,NA,NA,sub81
d3-instructions,59,404058,0.0-59.0,FALSE,FALSE,FALSE,TRUE,"""event"",""trial"",""time""
""fullscreenenter"",""5"",""26184""
","
","
","""event"",""trial"",""time""
""fullscreenenter"",""5"",""26184""
","
",NA,NA,NA,NA,NA,NA,NA,NA,NA,NA,NA,NA,NA,NA,NA,NA,NA,NA,NA,NA,NA,NA,sub81
d3-instructions,60,411808,0.0-60.0,FALSE,FALSE,FALSE,TRUE,"""event"",""trial"",""time""
""fullscreenenter"",""5"",""26184""
","
","
","""event"",""trial"",""time""
""fullscreenenter"",""5"",""26184""
","
",NA,NA,NA,NA,NA,NA,NA,NA,NA,NA,NA,NA,NA,NA,NA,NA,NA,NA,NA,NA,NA,NA,sub81
d3-animate-choice,61,414477,0.0-61.0-0.0,FALSE,FALSE,FALSE,TRUE,"""event"",""trial"",""time""
""fullscreenenter"",""5"",""26184""
","
","
","""event"",""trial"",""time""
""fullscreenenter"",""5"",""26184""
","
",658.9399999938905,NA,48,NA,NA,3000,1,NA,NA,images/earth.jpg,images/tutrocket1,images/tutrocket2,null,images/tutrocket1,NA,1,practice,null,2,NA,NA,NA,sub81
d3-animate-choice,62,418370,0.0-61.0-1.0,FALSE,FALSE,FALSE,TRUE,"""event"",""trial"",""time""
""fullscreenenter"",""5"",""26184""
","
","
","""event"",""trial"",""time""
""fullscreenenter"",""5"",""26184""
","
",1879.3949999962933,NA,48,NA,NA,3000,1,NA,NA,images/tutgreenplanet.jpg,images/tutalien2,images/tutalien1,images/tutrocket1,images/tutalien2,images/nothing.png,2,practice,false,2,rare,0,2020-06-16T19:27:28Z,sub81
two-step-fixation,63,419382,0.0-61.0-2.0,FALSE,FALSE,FALSE,TRUE,"""event"",""trial"",""time""
""fullscreenenter"",""5"",""26184""
","
","
","""event"",""trial"",""time""
""fullscreenenter"",""5"",""26184""
","
",NA,images/earth.jpg,NA,NA,NA,NA,NA,NA,NA,NA,NA,NA,NA,NA,NA,fixation,NA,NA,NA,NA,NA,NA,sub81
d3-animate-choice,64,422822,0.0-61.0-0.1,FALSE,FALSE,FALSE,TRUE,"""event"",""trial"",""time""
""fullscreenenter"",""5"",""26184""
","
","
","""event"",""trial"",""time""
""fullscreenenter"",""5"",""26184""
","
",1432.7100000082282,NA,48,NA,NA,3000,1,NA,NA,images/earth.jpg,images/tutrocket1,images/tutrocket2,null,images/tutrocket1,NA,1,practice,null,2,NA,NA,NA,sub81
d3-animate-choice,65,425442,0.0-61.0-1.1,FALSE,FALSE,FALSE,TRUE,"""event"",""trial"",""time""
""fullscreenenter"",""5"",""26184""
","
","
","""event"",""trial"",""time""
""fullscreenenter"",""5"",""26184""
","
",612.859999993816,NA,49,NA,NA,3000,1,NA,NA,images/tutgreenplanet.jpg,images/tutalien2,images/tutalien1,images/tutrocket1,images/tutalien1,images/nothing.png,2,practice,false,1,rare,0,2020-06-16T19:27:35Z,sub81
two-step-fixation,66,426449,0.0-61.0-2.1,FALSE,FALSE,FALSE,TRUE,"""event"",""trial"",""time""
""fullscreenenter"",""5"",""26184""
","
","
","""event"",""trial"",""time""
""fullscreenenter"",""5"",""26184""
","
",NA,images/earth.jpg,NA,NA,NA,NA,NA,NA,NA,NA,NA,NA,NA,NA,NA,fixation,NA,NA,NA,NA,NA,NA,sub81
d3-animate-choice,67,429508,0.0-61.0-0.2,FALSE,FALSE,FALSE,TRUE,"""event"",""trial"",""time""
""fullscreenenter"",""5"",""26184""
","
","
","""event"",""trial"",""time""
""fullscreenenter"",""5"",""26184""
","
",1051.340000005439,NA,49,NA,NA,3000,1,NA,NA,images/earth.jpg,images/tutrocket1,images/tutrocket2,null,images/tutrocket2,NA,1,practice,null,1,NA,NA,NA,sub81
d3-animate-choice,68,433106,0.0-61.0-1.2,FALSE,FALSE,FALSE,TRUE,"""event"",""trial"",""time""
""fullscreenenter"",""5"",""26184""
","
","
","""event"",""trial"",""time""
""fullscreenenter"",""5"",""26184""
","
",1590.8150000032037,NA,48,NA,NA,3000,1,NA,NA,images/tutgreenplanet.jpg,images/tutalien2,images/tutalien1,images/tutrocket2,images/tutalien2,images/t.png,2,practice,true,2,common,1,2020-06-16T19:27:43Z,sub81
two-step-fixation,69,434113,0.0-61.0-2.2,FALSE,FALSE,FALSE,TRUE,"""event"",""trial"",""time""
""fullscreenenter"",""5"",""26184""
","
","
","""event"",""trial"",""time""
""fullscreenenter"",""5"",""26184""
","
",NA,images/earth.jpg,NA,NA,NA,NA,NA,NA,NA,NA,NA,NA,NA,NA,NA,fixation,NA,NA,NA,NA,NA,NA,sub81
d3-animate-choice,70,436763,0.0-61.0-0.3,FALSE,FALSE,FALSE,TRUE,"""event"",""trial"",""time""
""fullscreenenter"",""5"",""26184""
","
","
","""event"",""trial"",""time""
""fullscreenenter"",""5"",""26184""
","
",642.4799999949755,NA,49,NA,NA,3000,1,NA,NA,images/earth.jpg,images/tutrocket1,images/tutrocket2,null,images/tutrocket2,NA,1,practice,null,1,NA,NA,NA,sub81
d3-animate-choice,71,440137,0.0-61.0-1.3,FALSE,FALSE,FALSE,TRUE,"""event"",""trial"",""time""
""fullscreenenter"",""5"",""26184""
","
","
","""event"",""trial"",""time""
""fullscreenenter"",""5"",""26184""
","
",1363.9550000079907,NA,49,NA,NA,3000,1,NA,NA,images/tutyellowplanet.jpg,images/tutalien4,images/tutalien3,images/tutrocket2,images/tutalien3,images/nothing.png,2,practice,false,1,rare,0,2020-06-16T19:27:50Z,sub81
two-step-fixation,72,441147,0.0-61.0-2.3,FALSE,FALSE,FALSE,TRUE,"""event"",""trial"",""time""
""fullscreenenter"",""5"",""26184""
","
","
","""event"",""trial"",""time""
""fullscreenenter"",""5"",""26184""
","
",NA,images/earth.jpg,NA,NA,NA,NA,NA,NA,NA,NA,NA,NA,NA,NA,NA,fixation,NA,NA,NA,NA,NA,NA,sub81
d3-animate-choice,73,444311,0.0-61.0-0.4,FALSE,FALSE,FALSE,TRUE,"""event"",""trial"",""time""
""fullscreenenter"",""5"",""26184""
","
","
","""event"",""trial"",""time""
""fullscreenenter"",""5"",""26184""
","
",1157.4200000031851,NA,49,NA,NA,3000,1,NA,NA,images/earth.jpg,images/tutrocket1,images/tutrocket2,null,images/tutrocket2,NA,1,practice,null,1,NA,NA,NA,sub81
d3-animate-choice,74,447456,0.0-61.0-1.4,FALSE,FALSE,FALSE,TRUE,"""event"",""trial"",""time""
""fullscreenenter"",""5"",""26184""
","
","
","""event"",""trial"",""time""
""fullscreenenter"",""5"",""26184""
","
",1138.0800000042655,NA,48,NA,NA,3000,1,NA,NA,images/tutgreenplanet.jpg,images/tutalien2,images/tutalien1,images/tutrocket2,images/tutalien2,images/nothing.png,2,practice,true,2,common,0,2020-06-16T19:27:57Z,sub81
two-step-fixation,75,448462,0.0-61.0-2.4,FALSE,FALSE,FALSE,TRUE,"""event"",""trial"",""time""
""fullscreenenter"",""5"",""26184""
","
","
","""event"",""trial"",""time""
""fullscreenenter"",""5"",""26184""
","
",NA,images/earth.jpg,NA,NA,NA,NA,NA,NA,NA,NA,NA,NA,NA,NA,NA,fixation,NA,NA,NA,NA,NA,NA,sub81
d3-animate-choice,76,451104,0.0-61.0-0.5,FALSE,FALSE,FALSE,TRUE,"""event"",""trial"",""time""
""fullscreenenter"",""5"",""26184""
","
","
","""event"",""trial"",""time""
""fullscreenenter"",""5"",""26184""
","
",634.9250000057509,NA,49,NA,NA,3000,1,NA,NA,images/earth.jpg,images/tutrocket1,images/tutrocket2,null,images/tutrocket2,NA,1,practice,null,1,NA,NA,NA,sub81
d3-animate-choice,77,454819,0.0-61.0-1.5,FALSE,FALSE,FALSE,TRUE,"""event"",""trial"",""time""
""fullscreenenter"",""5"",""26184""
","
","
","""event"",""trial"",""time""
""fullscreenenter"",""5"",""26184""
","
",1708.8550000044052,NA,49,NA,NA,3000,1,NA,NA,images/tutgreenplanet.jpg,images/tutalien2,images/tutalien1,images/tutrocket2,images/tutalien1,images/t.png,2,practice,true,1,common,1,2020-06-16T19:28:04Z,sub81
two-step-fixation,78,455826,0.0-61.0-2.5,FALSE,FALSE,FALSE,TRUE,"""event"",""trial"",""time""
""fullscreenenter"",""5"",""26184""
","
","
","""event"",""trial"",""time""
""fullscreenenter"",""5"",""26184""
","
",NA,images/earth.jpg,NA,NA,NA,NA,NA,NA,NA,NA,NA,NA,NA,NA,NA,fixation,NA,NA,NA,NA,NA,NA,sub81
d3-animate-choice,79,458475,0.0-61.0-0.6,FALSE,FALSE,FALSE,TRUE,"""event"",""trial"",""time""
""fullscreenenter"",""5"",""26184""
","
","
","""event"",""trial"",""time""
""fullscreenenter"",""5"",""26184""
","
",642.5699999963399,NA,48,NA,NA,3000,1,NA,NA,images/earth.jpg,images/tutrocket1,images/tutrocket2,null,images/tutrocket1,NA,1,practice,null,2,NA,NA,NA,sub81
d3-animate-choice,80,461482,0.0-61.0-1.6,FALSE,FALSE,FALSE,TRUE,"""event"",""trial"",""time""
""fullscreenenter"",""5"",""26184""
","
","
","""event"",""trial"",""time""
""fullscreenenter"",""5"",""26184""
","
",999.4749999896158,NA,48,NA,NA,3000,1,NA,NA,images/tutyellowplanet.jpg,images/tutalien4,images/tutalien3,images/tutrocket1,images/tutalien4,images/t.png,2,practice,true,2,common,1,2020-06-16T19:28:11Z,sub81
two-step-fixation,81,462488,0.0-61.0-2.6,FALSE,FALSE,FALSE,TRUE,"""event"",""trial"",""time""
""fullscreenenter"",""5"",""26184""
","
","
","""event"",""trial"",""time""
""fullscreenenter"",""5"",""26184""
","
",NA,images/earth.jpg,NA,NA,NA,NA,NA,NA,NA,NA,NA,NA,NA,NA,NA,fixation,NA,NA,NA,NA,NA,NA,sub81
d3-animate-choice,82,465222,0.0-61.0-0.7,FALSE,FALSE,FALSE,TRUE,"""event"",""trial"",""time""
""fullscreenenter"",""5"",""26184""
","
","
","""event"",""trial"",""time""
""fullscreenenter"",""5"",""26184""
","
",726.4450000075158,NA,48,NA,NA,3000,1,NA,NA,images/earth.jpg,images/tutrocket1,images/tutrocket2,null,images/tutrocket1,NA,1,practice,null,2,NA,NA,NA,sub81
d3-animate-choice,83,467742,0.0-61.0-1.7,FALSE,FALSE,FALSE,TRUE,"""event"",""trial"",""time""
""fullscreenenter"",""5"",""26184""
","
","
","""event"",""trial"",""time""
""fullscreenenter"",""5"",""26184""
","
",513.0899999930989,NA,48,NA,NA,3000,1,NA,NA,images/tutyellowplanet.jpg,images/tutalien4,images/tutalien3,images/tutrocket1,images/tutalien4,images/t.png,2,practice,true,2,common,1,2020-06-16T19:28:17Z,sub81
two-step-fixation,84,468748,0.0-61.0-2.7,FALSE,FALSE,FALSE,TRUE,"""event"",""trial"",""time""
""fullscreenenter"",""5"",""26184""
","
","
","""event"",""trial"",""time""
""fullscreenenter"",""5"",""26184""
","
",NA,images/earth.jpg,NA,NA,NA,NA,NA,NA,NA,NA,NA,NA,NA,NA,NA,fixation,NA,NA,NA,NA,NA,NA,sub81
d3-animate-choice,85,471275,0.0-61.0-0.8,FALSE,FALSE,FALSE,TRUE,"""event"",""trial"",""time""
""fullscreenenter"",""5"",""26184""
","
","
","""event"",""trial"",""time""
""fullscreenenter"",""5"",""26184""
","
",520.2949999948032,NA,48,NA,NA,3000,1,NA,NA,images/earth.jpg,images/tutrocket1,images/tutrocket2,null,images/tutrocket1,NA,1,practice,null,2,NA,NA,NA,sub81
d3-animate-choice,86,475104,0.0-61.0-1.8,FALSE,FALSE,FALSE,TRUE,"""event"",""trial"",""time""
""fullscreenenter"",""5"",""26184""
","
","
","""event"",""trial"",""time""
""fullscreenenter"",""5"",""26184""
","
",1822.4900000059279,NA,49,NA,NA,3000,1,NA,NA,images/tutgreenplanet.jpg,images/tutalien2,images/tutalien1,images/tutrocket1,images/tutalien1,images/t.png,2,practice,false,1,rare,1,2020-06-16T19:28:25Z,sub81
two-step-fixation,87,476110,0.0-61.0-2.8,FALSE,FALSE,FALSE,TRUE,"""event"",""trial"",""time""
""fullscreenenter"",""5"",""26184""
","
","
","""event"",""trial"",""time""
""fullscreenenter"",""5"",""26184""
","
",NA,images/earth.jpg,NA,NA,NA,NA,NA,NA,NA,NA,NA,NA,NA,NA,NA,fixation,NA,NA,NA,NA,NA,NA,sub81
d3-animate-choice,88,478849,0.0-61.0-0.9,FALSE,FALSE,FALSE,TRUE,"""event"",""trial"",""time""
""fullscreenenter"",""5"",""26184""
","
","
","""event"",""trial"",""time""
""fullscreenenter"",""5"",""26184""
","
",732.2849999909522,NA,48,NA,NA,3000,1,NA,NA,images/earth.jpg,images/tutrocket1,images/tutrocket2,null,images/tutrocket1,NA,1,practice,null,2,NA,NA,NA,sub81
d3-animate-choice,89,482114,0.0-61.0-1.9,FALSE,FALSE,FALSE,TRUE,"""event"",""trial"",""time""
""fullscreenenter"",""5"",""26184""
","
","
","""event"",""trial"",""time""
""fullscreenenter"",""5"",""26184""
","
",1258.5650000110036,NA,49,NA,NA,3000,1,NA,NA,images/tutgreenplanet.jpg,images/tutalien2,images/tutalien1,images/tutrocket1,images/tutalien1,images/t.png,2,practice,false,1,rare,1,2020-06-16T19:28:32Z,sub81
two-step-fixation,90,483121,0.0-61.0-2.9,FALSE,FALSE,FALSE,TRUE,"""event"",""trial"",""time""
""fullscreenenter"",""5"",""26184""
","
","
","""event"",""trial"",""time""
""fullscreenenter"",""5"",""26184""
","
",NA,images/earth.jpg,NA,NA,NA,NA,NA,NA,NA,NA,NA,NA,NA,NA,NA,fixation,NA,NA,NA,NA,NA,NA,sub81
d3-animate-choice,91,486136,0.0-61.0-0.10,FALSE,FALSE,FALSE,TRUE,"""event"",""trial"",""time""
""fullscreenenter"",""5"",""26184""
","
","
","""event"",""trial"",""time""
""fullscreenenter"",""5"",""26184""
","
",1008.574999999837,NA,48,NA,NA,3000,1,NA,NA,images/earth.jpg,images/tutrocket1,images/tutrocket2,null,images/tutrocket1,NA,1,practice,null,2,NA,NA,NA,sub81
d3-animate-choice,92,489057,0.0-61.0-1.10,FALSE,FALSE,FALSE,TRUE,"""event"",""trial"",""time""
""fullscreenenter"",""5"",""26184""
","
","
","""event"",""trial"",""time""
""fullscreenenter"",""5"",""26184""
","
",913.3900000015274,NA,48,NA,NA,3000,1,NA,NA,images/tutyellowplanet.jpg,images/tutalien4,images/tutalien3,images/tutrocket1,images/tutalien4,images/nothing.png,2,practice,true,2,common,0,2020-06-16T19:28:39Z,sub81
two-step-fixation,93,490064,0.0-61.0-2.10,FALSE,FALSE,FALSE,TRUE,"""event"",""trial"",""time""
""fullscreenenter"",""5"",""26184""
","
","
","""event"",""trial"",""time""
""fullscreenenter"",""5"",""26184""
","
",NA,images/earth.jpg,NA,NA,NA,NA,NA,NA,NA,NA,NA,NA,NA,NA,NA,fixation,NA,NA,NA,NA,NA,NA,sub81
d3-animate-choice,94,492453,0.0-61.0-0.11,FALSE,FALSE,FALSE,TRUE,"""event"",""trial"",""time""
""fullscreenenter"",""5"",""26184""
","
","
","""event"",""trial"",""time""
""fullscreenenter"",""5"",""26184""
","
",382.065000012517,NA,48,NA,NA,3000,1,NA,NA,images/earth.jpg,images/tutrocket1,images/tutrocket2,null,images/tutrocket1,NA,1,practice,null,2,NA,NA,NA,sub81
d3-animate-choice,95,495567,0.0-61.0-1.11,FALSE,FALSE,FALSE,TRUE,"""event"",""trial"",""time""
""fullscreenenter"",""5"",""26184""
","
","
","""event"",""trial"",""time""
""fullscreenenter"",""5"",""26184""
","
",1107.1950000041397,NA,49,NA,NA,3000,1,NA,NA,images/tutgreenplanet.jpg,images/tutalien2,images/tutalien1,images/tutrocket1,images/tutalien1,images/t.png,2,practice,false,1,rare,1,2020-06-16T19:28:45Z,sub81
two-step-fixation,96,496574,0.0-61.0-2.11,FALSE,FALSE,FALSE,TRUE,"""event"",""trial"",""time""
""fullscreenenter"",""5"",""26184""
","
","
","""event"",""trial"",""time""
""fullscreenenter"",""5"",""26184""
","
",NA,images/earth.jpg,NA,NA,NA,NA,NA,NA,NA,NA,NA,NA,NA,NA,NA,fixation,NA,NA,NA,NA,NA,NA,sub81
d3-animate-choice,97,499132,0.0-61.0-0.12,FALSE,FALSE,FALSE,TRUE,"""event"",""trial"",""time""
""fullscreenenter"",""5"",""26184""
","
","
","""event"",""trial"",""time""
""fullscreenenter"",""5"",""26184""
","
",551.4100000000326,NA,49,NA,NA,3000,1,NA,NA,images/earth.jpg,images/tutrocket1,images/tutrocket2,null,images/tutrocket2,NA,1,practice,null,1,NA,NA,NA,sub81
d3-animate-choice,98,501876,0.0-61.0-1.12,FALSE,FALSE,FALSE,TRUE,"""event"",""trial"",""time""
""fullscreenenter"",""5"",""26184""
","
","
","""event"",""trial"",""time""
""fullscreenenter"",""5"",""26184""
","
",736.0400000034133,NA,49,NA,NA,3000,1,NA,NA,images/tutgreenplanet.jpg,images/tutalien2,images/tutalien1,images/tutrocket2,images/tutalien1,images/nothing.png,2,practice,true,1,common,0,2020-06-16T19:28:51Z,sub81
two-step-fixation,99,502882,0.0-61.0-2.12,FALSE,FALSE,FALSE,TRUE,"""event"",""trial"",""time""
""fullscreenenter"",""5"",""26184""
","
","
","""event"",""trial"",""time""
""fullscreenenter"",""5"",""26184""
","
",NA,images/earth.jpg,NA,NA,NA,NA,NA,NA,NA,NA,NA,NA,NA,NA,NA,fixation,NA,NA,NA,NA,NA,NA,sub81
d3-animate-choice,100,505778,0.0-61.0-0.13,FALSE,FALSE,FALSE,TRUE,"""event"",""trial"",""time""
""fullscreenenter"",""5"",""26184""
","
","
","""event"",""trial"",""time""
""fullscreenenter"",""5"",""26184""
","
",887.5449999904959,NA,48,NA,NA,3000,1,NA,NA,images/earth.jpg,images/tutrocket1,images/tutrocket2,null,images/tutrocket1,NA,1,practice,null,2,NA,NA,NA,sub81
d3-animate-choice,101,509257,0.0-61.0-1.13,FALSE,FALSE,FALSE,TRUE,"""event"",""trial"",""time""
""fullscreenenter"",""5"",""26184""
","
","
","""event"",""trial"",""time""
""fullscreenenter"",""5"",""26184""
","
",1467.0199999964098,NA,48,NA,NA,3000,1,NA,NA,images/tutgreenplanet.jpg,images/tutalien2,images/tutalien1,images/tutrocket1,images/tutalien2,images/t.png,2,practice,false,2,rare,1,2020-06-16T19:28:59Z,sub81
two-step-fixation,102,510263,0.0-61.0-2.13,FALSE,FALSE,FALSE,TRUE,"""event"",""trial"",""time""
""fullscreenenter"",""5"",""26184""
","
","
","""event"",""trial"",""time""
""fullscreenenter"",""5"",""26184""
","
",NA,images/earth.jpg,NA,NA,NA,NA,NA,NA,NA,NA,NA,NA,NA,NA,NA,fixation,NA,NA,NA,NA,NA,NA,sub81
d3-animate-choice,103,512970,0.0-61.0-0.14,FALSE,FALSE,FALSE,TRUE,"""event"",""trial"",""time""
""fullscreenenter"",""5"",""26184""
","
","
","""event"",""trial"",""time""
""fullscreenenter"",""5"",""26184""
","
",699.8149999999441,NA,48,NA,NA,3000,1,NA,NA,images/earth.jpg,images/tutrocket1,images/tutrocket2,null,images/tutrocket1,NA,1,practice,null,2,NA,NA,NA,sub81
d3-animate-choice,104,515730,0.0-61.0-1.14,FALSE,FALSE,FALSE,TRUE,"""event"",""trial"",""time""
""fullscreenenter"",""5"",""26184""
","
","
","""event"",""trial"",""time""
""fullscreenenter"",""5"",""26184""
","
",753.5300000017742,NA,48,NA,NA,3000,1,NA,NA,images/tutgreenplanet.jpg,images/tutalien2,images/tutalien1,images/tutrocket1,images/tutalien2,images/t.png,2,practice,false,2,rare,1,2020-06-16T19:29:05Z,sub81
two-step-fixation,105,516736,0.0-61.0-2.14,FALSE,FALSE,FALSE,TRUE,"""event"",""trial"",""time""
""fullscreenenter"",""5"",""26184""
","
","
","""event"",""trial"",""time""
""fullscreenenter"",""5"",""26184""
","
",NA,images/earth.jpg,NA,NA,NA,NA,NA,NA,NA,NA,NA,NA,NA,NA,NA,fixation,NA,NA,NA,NA,NA,NA,sub81
d3-animate-choice,106,519195,0.0-61.0-0.15,FALSE,FALSE,FALSE,TRUE,"""event"",""trial"",""time""
""fullscreenenter"",""5"",""26184""
","
","
","""event"",""trial"",""time""
""fullscreenenter"",""5"",""26184""
","
",452.3100000078557,NA,49,NA,NA,3000,1,NA,NA,images/earth.jpg,images/tutrocket1,images/tutrocket2,null,images/tutrocket2,NA,1,practice,null,1,NA,NA,NA,sub81
d3-animate-choice,107,522277,0.0-61.0-1.15,FALSE,FALSE,FALSE,TRUE,"""event"",""trial"",""time""
""fullscreenenter"",""5"",""26184""
","
","
","""event"",""trial"",""time""
""fullscreenenter"",""5"",""26184""
","
",1074.8699999967357,NA,48,NA,NA,3000,1,NA,NA,images/tutgreenplanet.jpg,images/tutalien2,images/tutalien1,images/tutrocket2,images/tutalien2,images/t.png,2,practice,true,2,common,1,2020-06-16T19:29:12Z,sub81
two-step-fixation,108,523284,0.0-61.0-2.15,FALSE,FALSE,FALSE,TRUE,"""event"",""trial"",""time""
""fullscreenenter"",""5"",""26184""
","
","
","""event"",""trial"",""time""
""fullscreenenter"",""5"",""26184""
","
",NA,images/earth.jpg,NA,NA,NA,NA,NA,NA,NA,NA,NA,NA,NA,NA,NA,fixation,NA,NA,NA,NA,NA,NA,sub81
d3-animate-choice,109,525713,0.0-61.0-0.16,FALSE,FALSE,FALSE,TRUE,"""event"",""trial"",""time""
""fullscreenenter"",""5"",""26184""
","
","
","""event"",""trial"",""time""
""fullscreenenter"",""5"",""26184""
","
",423.6749999981839,NA,48,NA,NA,3000,1,NA,NA,images/earth.jpg,images/tutrocket1,images/tutrocket2,null,images/tutrocket1,NA,1,practice,null,2,NA,NA,NA,sub81
d3-animate-choice,110,529721,0.0-61.0-1.16,FALSE,FALSE,FALSE,TRUE,"""event"",""trial"",""time""
""fullscreenenter"",""5"",""26184""
","
","
","""event"",""trial"",""time""
""fullscreenenter"",""5"",""26184""
","
",2071.1750000045868,NA,49,NA,NA,3000,1,NA,NA,images/tutyellowplanet.jpg,images/tutalien4,images/tutalien3,images/tutrocket1,images/tutalien3,images/nothing.png,2,practice,true,1,common,0,2020-06-16T19:29:19Z,sub81
two-step-fixation,111,530726,0.0-61.0-2.16,FALSE,FALSE,FALSE,TRUE,"""event"",""trial"",""time""
""fullscreenenter"",""5"",""26184""
","
","
","""event"",""trial"",""time""
""fullscreenenter"",""5"",""26184""
","
",NA,images/earth.jpg,NA,NA,NA,NA,NA,NA,NA,NA,NA,NA,NA,NA,NA,fixation,NA,NA,NA,NA,NA,NA,sub81
d3-animate-choice,112,533440,0.0-61.0-0.17,FALSE,FALSE,FALSE,TRUE,"""event"",""trial"",""time""
""fullscreenenter"",""5"",""26184""
","
","
","""event"",""trial"",""time""
""fullscreenenter"",""5"",""26184""
","
",705.8000000106404,NA,48,NA,NA,3000,1,NA,NA,images/earth.jpg,images/tutrocket1,images/tutrocket2,null,images/tutrocket1,NA,1,practice,null,2,NA,NA,NA,sub81
d3-animate-choice,113,536618,0.0-61.0-1.17,FALSE,FALSE,FALSE,TRUE,"""event"",""trial"",""time""
""fullscreenenter"",""5"",""26184""
","
","
","""event"",""trial"",""time""
""fullscreenenter"",""5"",""26184""
","
",1170.4800000006799,NA,49,NA,NA,3000,1,NA,NA,images/tutgreenplanet.jpg,images/tutalien2,images/tutalien1,images/tutrocket1,images/tutalien1,images/nothing.png,2,practice,false,1,rare,0,2020-06-16T19:29:26Z,sub81
two-step-fixation,114,537624,0.0-61.0-2.17,FALSE,FALSE,FALSE,TRUE,"""event"",""trial"",""time""
""fullscreenenter"",""5"",""26184""
","
","
","""event"",""trial"",""time""
""fullscreenenter"",""5"",""26184""
","
",NA,images/earth.jpg,NA,NA,NA,NA,NA,NA,NA,NA,NA,NA,NA,NA,NA,fixation,NA,NA,NA,NA,NA,NA,sub81
d3-animate-choice,115,540126,0.0-61.0-0.18,FALSE,FALSE,FALSE,TRUE,"""event"",""trial"",""time""
""fullscreenenter"",""5"",""26184""
","
","
","""event"",""trial"",""time""
""fullscreenenter"",""5"",""26184""
","
",495.00999999872874,NA,49,NA,NA,3000,1,NA,NA,images/earth.jpg,images/tutrocket1,images/tutrocket2,null,images/tutrocket2,NA,1,practice,null,1,NA,NA,NA,sub81
d3-animate-choice,116,543820,0.0-61.0-1.18,FALSE,FALSE,FALSE,TRUE,"""event"",""trial"",""time""
""fullscreenenter"",""5"",""26184""
","
","
","""event"",""trial"",""time""
""fullscreenenter"",""5"",""26184""
","
",1686.6549999976996,NA,48,NA,NA,3000,1,NA,NA,images/tutgreenplanet.jpg,images/tutalien2,images/tutalien1,images/tutrocket2,images/tutalien2,images/nothing.png,2,practice,true,2,common,0,2020-06-16T19:29:33Z,sub81
two-step-fixation,117,544827,0.0-61.0-2.18,FALSE,FALSE,FALSE,TRUE,"""event"",""trial"",""time""
""fullscreenenter"",""5"",""26184""
","
","
","""event"",""trial"",""time""
""fullscreenenter"",""5"",""26184""
","
",NA,images/earth.jpg,NA,NA,NA,NA,NA,NA,NA,NA,NA,NA,NA,NA,NA,fixation,NA,NA,NA,NA,NA,NA,sub81
d3-animate-choice,118,547420,0.0-61.0-0.19,FALSE,FALSE,FALSE,TRUE,"""event"",""trial"",""time""
""fullscreenenter"",""5"",""26184""
","
","
","""event"",""trial"",""time""
""fullscreenenter"",""5"",""26184""
","
",586.5100000082748,NA,49,NA,NA,3000,1,NA,NA,images/earth.jpg,images/tutrocket1,images/tutrocket2,null,images/tutrocket2,NA,1,practice,null,1,NA,NA,NA,sub81
d3-animate-choice,119,551410,0.0-61.0-1.19,FALSE,FALSE,FALSE,TRUE,"""event"",""trial"",""time""
""fullscreenenter"",""5"",""26184""
","
","
","""event"",""trial"",""time""
""fullscreenenter"",""5"",""26184""
","
",1981.8599999998696,NA,48,NA,NA,3000,1,NA,NA,images/tutyellowplanet.jpg,images/tutalien4,images/tutalien3,images/tutrocket2,images/tutalien4,images/nothing.png,2,practice,false,2,rare,0,2020-06-16T19:29:41Z,sub81
two-step-fixation,120,552416,0.0-61.0-2.19,FALSE,FALSE,FALSE,TRUE,"""event"",""trial"",""time""
""fullscreenenter"",""5"",""26184""
","
","
","""event"",""trial"",""time""
""fullscreenenter"",""5"",""26184""
","
",NA,images/earth.jpg,NA,NA,NA,NA,NA,NA,NA,NA,NA,NA,NA,NA,NA,fixation,NA,NA,NA,NA,NA,NA,sub81
d3-instructions,121,559657,0.0-62.0,FALSE,FALSE,FALSE,TRUE,"""event"",""trial"",""time""
""fullscreenenter"",""5"",""26184""
","
","
","""event"",""trial"",""time""
""fullscreenenter"",""5"",""26184""
","
",NA,NA,NA,NA,NA,NA,NA,NA,NA,NA,NA,NA,NA,NA,NA,NA,NA,NA,NA,NA,NA,NA,sub81
audio-keyboard-response,122,564772,0.0-63.0,FALSE,FALSE,FALSE,TRUE,"""event"",""trial"",""time""
""fullscreenenter"",""5"",""26184""
","
","
","""event"",""trial"",""time""
""fullscreenenter"",""5"",""26184""
","
",5109,audio/instructions/treasure_feedback.wav,32,NA,NA,NA,NA,NA,NA,NA,NA,NA,NA,NA,NA,NA,NA,NA,NA,NA,NA,NA,sub81
d3-instructions,123,587399,0.0-64.0,FALSE,FALSE,FALSE,TRUE,"""event"",""trial"",""time""
""fullscreenenter"",""5"",""26184""
","
","
","""event"",""trial"",""time""
""fullscreenenter"",""5"",""26184""
","
",NA,NA,NA,NA,NA,NA,NA,NA,NA,NA,NA,NA,NA,NA,NA,NA,NA,NA,NA,NA,NA,NA,sub81
d3-instructions,124,603266,0.0-65.0,FALSE,FALSE,FALSE,TRUE,"""event"",""trial"",""time""
""fullscreenenter"",""5"",""26184""
","
","
","""event"",""trial"",""time""
""fullscreenenter"",""5"",""26184""
","
",NA,NA,NA,NA,NA,NA,NA,NA,NA,NA,NA,NA,NA,NA,NA,NA,NA,NA,NA,NA,NA,NA,sub81
d3-instructions,125,634943,0.0-66.0,FALSE,FALSE,FALSE,TRUE,"""event"",""trial"",""time""
""fullscreenenter"",""5"",""26184""
","
","
","""event"",""trial"",""time""
""fullscreenenter"",""5"",""26184""
","
",NA,NA,NA,NA,NA,NA,NA,NA,NA,NA,NA,NA,NA,NA,NA,NA,NA,NA,NA,NA,NA,NA,sub81
d3-instructions,126,651274,0.0-67.0,FALSE,FALSE,FALSE,TRUE,"""event"",""trial"",""time""
""fullscreenenter"",""5"",""26184""
","
","
","""event"",""trial"",""time""
""fullscreenenter"",""5"",""26184""
","
",NA,NA,NA,NA,NA,NA,NA,NA,NA,NA,NA,NA,NA,NA,NA,NA,NA,NA,NA,NA,NA,NA,sub81
d3-instructions,127,661499,0.0-68.0,FALSE,FALSE,FALSE,TRUE,"""event"",""trial"",""time""
""fullscreenenter"",""5"",""26184""
","
","
","""event"",""trial"",""time""
""fullscreenenter"",""5"",""26184""
","
",NA,NA,NA,NA,NA,NA,NA,NA,NA,NA,NA,NA,NA,NA,NA,NA,NA,NA,NA,NA,NA,NA,sub81
instructions-quiz,128,667153,0.0-69.0,FALSE,FALSE,FALSE,TRUE,"""event"",""trial"",""time""
""fullscreenenter"",""5"",""26184""
","
","
","""event"",""trial"",""time""
""fullscreenenter"",""5"",""26184""
","
",5650.110000002314,audio/quiz/Q1_Prompt.wav,NA,1,NA,NA,NA,NA,NA,NA,NA,NA,NA,NA,NA,NA,NA,NA,NA,NA,NA,NA,sub81
audio-keyboard-response,129,676318,0.0-70.0,FALSE,FALSE,FALSE,TRUE,"""event"",""trial"",""time""
""fullscreenenter"",""5"",""26184""
","
","
","""event"",""trial"",""time""
""fullscreenenter"",""5"",""26184""
","
",null,audio/quiz/Q1_Correct.wav,null,NA,NA,NA,NA,NA,NA,NA,NA,NA,NA,NA,NA,NA,NA,NA,NA,NA,NA,NA,sub81
instructions-quiz,130,685527,0.0-71.0,FALSE,FALSE,FALSE,TRUE,"""event"",""trial"",""time""
""fullscreenenter"",""5"",""26184""
","
","
","""event"",""trial"",""time""
""fullscreenenter"",""5"",""26184""
","
",9206.244999993942,audio/quiz/Q2_Prompt.wav,NA,0,NA,NA,NA,NA,NA,NA,NA,NA,NA,NA,NA,NA,NA,NA,NA,NA,NA,NA,sub81
audio-keyboard-response,131,698399,0.0-72.0,FALSE,FALSE,FALSE,TRUE,"""event"",""trial"",""time""
""fullscreenenter"",""5"",""26184""
","
","
","""event"",""trial"",""time""
""fullscreenenter"",""5"",""26184""
","
",null,audio/quiz/Q2_Correct.wav,null,NA,NA,NA,NA,NA,NA,NA,NA,NA,NA,NA,NA,NA,NA,NA,NA,NA,NA,NA,sub81
instructions-quiz,132,703355,0.0-73.0,FALSE,FALSE,FALSE,TRUE,"""event"",""trial"",""time""
""fullscreenenter"",""5"",""26184""
","
","
","""event"",""trial"",""time""
""fullscreenenter"",""5"",""26184""
","
",4952.829999994719,audio/quiz/Q3_Prompt.wav,NA,1,NA,NA,NA,NA,NA,NA,NA,NA,NA,NA,NA,NA,NA,NA,NA,NA,NA,NA,sub81
audio-keyboard-response,133,709149,0.0-74.0,FALSE,FALSE,FALSE,TRUE,"""event"",""trial"",""time""
""fullscreenenter"",""5"",""26184""
","
","
","""event"",""trial"",""time""
""fullscreenenter"",""5"",""26184""
","
",null,audio/quiz/Q3_Correct.wav,null,NA,NA,NA,NA,NA,NA,NA,NA,NA,NA,NA,NA,NA,NA,NA,NA,NA,NA,NA,sub81
d3-instructions,134,723091,0.0-75.0,FALSE,FALSE,FALSE,TRUE,"""event"",""trial"",""time""
""fullscreenenter"",""5"",""26184""
","
","
","""event"",""trial"",""time""
""fullscreenenter"",""5"",""26184""
","
",NA,NA,NA,NA,NA,NA,NA,NA,NA,NA,NA,NA,NA,NA,NA,NA,NA,NA,NA,NA,NA,NA,sub81
d3-animate-choice,135,726512,0.0-76.0-0.0,FALSE,FALSE,FALSE,TRUE,"""event"",""trial"",""time""
""fullscreenenter"",""5"",""26184""
","
","
","""event"",""trial"",""time""
""fullscreenenter"",""5"",""26184""
","
",1413.7400000035996,NA,49,NA,NA,3000,1,NA,NA,images/earth.jpg,images/rocket1,images/rocket2,null,images/rocket2,NA,1,real,null,1,NA,NA,NA,sub81
d3-animate-choice,136,729686,0.0-76.0-1.0,FALSE,FALSE,FALSE,TRUE,"""event"",""trial"",""time""
""fullscreenenter"",""5"",""26184""
","
","
","""event"",""trial"",""time""
""fullscreenenter"",""5"",""26184""
","
",1166.3300000072923,NA,49,NA,NA,3000,1,NA,NA,images/purpleplanet.jpg,images/alien4,images/alien3,images/rocket2,images/alien3,images/nothing.png,2,real,false,1,rare,0,2020-06-16T19:32:39Z,sub81
two-step-fixation,137,730692,0.0-76.0-2.0,FALSE,FALSE,FALSE,TRUE,"""event"",""trial"",""time""
""fullscreenenter"",""5"",""26184""
","
","
","""event"",""trial"",""time""
""fullscreenenter"",""5"",""26184""
","
",NA,images/earth.jpg,NA,NA,NA,NA,NA,NA,NA,NA,NA,NA,NA,NA,NA,fixation,NA,NA,NA,NA,NA,NA,sub81
d3-animate-choice,138,733178,0.0-76.0-0.1,FALSE,FALSE,FALSE,TRUE,"""event"",""trial"",""time""
""fullscreenenter"",""5"",""26184""
","
","
","""event"",""trial"",""time""
""fullscreenenter"",""5"",""26184""
","
",479.3050000007497,NA,49,NA,NA,3000,1,NA,NA,images/earth.jpg,images/rocket1,images/rocket2,null,images/rocket2,NA,1,real,null,1,NA,NA,NA,sub81
d3-animate-choice,139,736774,0.0-76.0-1.1,FALSE,FALSE,FALSE,TRUE,"""event"",""trial"",""time""
""fullscreenenter"",""5"",""26184""
","
","
","""event"",""trial"",""time""
""fullscreenenter"",""5"",""26184""
","
",1588.4300000034273,NA,49,NA,NA,3000,1,NA,NA,images/redplanet1.jpg,images/alien2,images/alien1,images/rocket2,images/alien1,images/nothing.png,2,real,true,1,common,0,2020-06-16T19:32:46Z,sub81
two-step-fixation,140,737781,0.0-76.0-2.1,FALSE,FALSE,FALSE,TRUE,"""event"",""trial"",""time""
""fullscreenenter"",""5"",""26184""
","
","
","""event"",""trial"",""time""
""fullscreenenter"",""5"",""26184""
","
",NA,images/earth.jpg,NA,NA,NA,NA,NA,NA,NA,NA,NA,NA,NA,NA,NA,fixation,NA,NA,NA,NA,NA,NA,sub81
d3-animate-choice,141,740418,0.0-76.0-0.2,FALSE,FALSE,FALSE,TRUE,"""event"",""trial"",""time""
""fullscreenenter"",""5"",""26184""
","
","
","""event"",""trial"",""time""
""fullscreenenter"",""5"",""26184""
","
",628.9150000084192,NA,49,NA,NA,3000,1,NA,NA,images/earth.jpg,images/rocket1,images/rocket2,null,images/rocket2,NA,1,real,null,1,NA,NA,NA,sub81
d3-animate-choice,142,743093,0.0-76.0-1.2,FALSE,FALSE,FALSE,TRUE,"""event"",""trial"",""time""
""fullscreenenter"",""5"",""26184""
","
","
","""event"",""trial"",""time""
""fullscreenenter"",""5"",""26184""
","
",667.394999996759,NA,48,NA,NA,3000,1,NA,NA,images/redplanet1.jpg,images/alien2,images/alien1,images/rocket2,images/alien2,images/t.png,2,real,true,2,common,1,2020-06-16T19:32:53Z,sub81
two-step-fixation,143,744100,0.0-76.0-2.2,FALSE,FALSE,FALSE,TRUE,"""event"",""trial"",""time""
""fullscreenenter"",""5"",""26184""
","
","
","""event"",""trial"",""time""
""fullscreenenter"",""5"",""26184""
","
",NA,images/earth.jpg,NA,NA,NA,NA,NA,NA,NA,NA,NA,NA,NA,NA,NA,fixation,NA,NA,NA,NA,NA,NA,sub81
d3-animate-choice,144,747533,0.0-76.0-0.3,FALSE,FALSE,FALSE,TRUE,"""event"",""trial"",""time""
""fullscreenenter"",""5"",""26184""
","
","
","""event"",""trial"",""time""
""fullscreenenter"",""5"",""26184""
","
",1426.5250000025844,NA,48,NA,NA,3000,1,NA,NA,images/earth.jpg,images/rocket1,images/rocket2,null,images/rocket1,NA,1,real,null,2,NA,NA,NA,sub81
d3-animate-choice,145,750738,0.0-76.0-1.3,FALSE,FALSE,FALSE,TRUE,"""event"",""trial"",""time""
""fullscreenenter"",""5"",""26184""
","
","
","""event"",""trial"",""time""
""fullscreenenter"",""5"",""26184""
","
",1198.019999996177,NA,48,NA,NA,3000,1,NA,NA,images/purpleplanet.jpg,images/alien4,images/alien3,images/rocket1,images/alien4,images/t.png,2,real,true,2,common,1,2020-06-16T19:33:00Z,sub81
two-step-fixation,146,751743,0.0-76.0-2.3,FALSE,FALSE,FALSE,TRUE,"""event"",""trial"",""time""
""fullscreenenter"",""5"",""26184""
","
","
","""event"",""trial"",""time""
""fullscreenenter"",""5"",""26184""
","
",NA,images/earth.jpg,NA,NA,NA,NA,NA,NA,NA,NA,NA,NA,NA,NA,NA,fixation,NA,NA,NA,NA,NA,NA,sub81
d3-animate-choice,147,754087,0.0-76.0-0.4,FALSE,FALSE,FALSE,TRUE,"""event"",""trial"",""time""
""fullscreenenter"",""5"",""26184""
","
","
","""event"",""trial"",""time""
""fullscreenenter"",""5"",""26184""
","
",335.81500001309905,NA,48,NA,NA,3000,1,NA,NA,images/earth.jpg,images/rocket1,images/rocket2,null,images/rocket1,NA,1,real,null,2,NA,NA,NA,sub81
d3-animate-choice,148,756577,0.0-76.0-1.4,FALSE,FALSE,FALSE,TRUE,"""event"",""trial"",""time""
""fullscreenenter"",""5"",""26184""
","
","
","""event"",""trial"",""time""
""fullscreenenter"",""5"",""26184""
","
",482.6549999997951,NA,48,NA,NA,3000,1,NA,NA,images/purpleplanet.jpg,images/alien4,images/alien3,images/rocket1,images/alien4,images/t.png,2,real,true,2,common,1,2020-06-16T19:33:06Z,sub81
two-step-fixation,149,757584,0.0-76.0-2.4,FALSE,FALSE,FALSE,TRUE,"""event"",""trial"",""time""
""fullscreenenter"",""5"",""26184""
","
","
","""event"",""trial"",""time""
""fullscreenenter"",""5"",""26184""
","
",NA,images/earth.jpg,NA,NA,NA,NA,NA,NA,NA,NA,NA,NA,NA,NA,NA,fixation,NA,NA,NA,NA,NA,NA,sub81
d3-animate-choice,150,759871,0.0-76.0-0.5,FALSE,FALSE,FALSE,TRUE,"""event"",""trial"",""time""
""fullscreenenter"",""5"",""26184""
","
","
","""event"",""trial"",""time""
""fullscreenenter"",""5"",""26184""
","
",279.8449999972945,NA,48,NA,NA,3000,1,NA,NA,images/earth.jpg,images/rocket1,images/rocket2,null,images/rocket1,NA,1,real,null,2,NA,NA,NA,sub81
d3-animate-choice,151,762344,0.0-76.0-1.5,FALSE,FALSE,FALSE,TRUE,"""event"",""trial"",""time""
""fullscreenenter"",""5"",""26184""
","
","
","""event"",""trial"",""time""
""fullscreenenter"",""5"",""26184""
","
",465.22499999264255,NA,48,NA,NA,3000,1,NA,NA,images/redplanet1.jpg,images/alien2,images/alien1,images/rocket1,images/alien2,images/nothing.png,2,real,false,2,rare,0,2020-06-16T19:33:12Z,sub81
two-step-fixation,152,763350,0.0-76.0-2.5,FALSE,FALSE,FALSE,TRUE,"""event"",""trial"",""time""
""fullscreenenter"",""5"",""26184""
","
","
","""event"",""trial"",""time""
""fullscreenenter"",""5"",""26184""
","
",NA,images/earth.jpg,NA,NA,NA,NA,NA,NA,NA,NA,NA,NA,NA,NA,NA,fixation,NA,NA,NA,NA,NA,NA,sub81
d3-animate-choice,153,765956,0.0-76.0-0.6,FALSE,FALSE,FALSE,TRUE,"""event"",""trial"",""time""
""fullscreenenter"",""5"",""26184""
","
","
","""event"",""trial"",""time""
""fullscreenenter"",""5"",""26184""
","
",598.8099999958649,NA,48,NA,NA,3000,1,NA,NA,images/earth.jpg,images/rocket1,images/rocket2,null,images/rocket1,NA,1,real,null,2,NA,NA,NA,sub81
d3-animate-choice,154,768818,0.0-76.0-1.6,FALSE,FALSE,FALSE,TRUE,"""event"",""trial"",""time""
""fullscreenenter"",""5"",""26184""
","
","
","""event"",""trial"",""time""
""fullscreenenter"",""5"",""26184""
","
",856.4100000075996,NA,48,NA,NA,3000,1,NA,NA,images/purpleplanet.jpg,images/alien4,images/alien3,images/rocket1,images/alien4,images/nothing.png,2,real,true,2,common,0,2020-06-16T19:33:18Z,sub81
two-step-fixation,155,769825,0.0-76.0-2.6,FALSE,FALSE,FALSE,TRUE,"""event"",""trial"",""time""
""fullscreenenter"",""5"",""26184""
","
","
","""event"",""trial"",""time""
""fullscreenenter"",""5"",""26184""
","
",NA,images/earth.jpg,NA,NA,NA,NA,NA,NA,NA,NA,NA,NA,NA,NA,NA,fixation,NA,NA,NA,NA,NA,NA,sub81
d3-animate-choice,156,772969,0.0-76.0-0.7,FALSE,FALSE,FALSE,TRUE,"""event"",""trial"",""time""
""fullscreenenter"",""5"",""26184""
","
","
","""event"",""trial"",""time""
""fullscreenenter"",""5"",""26184""
","
",1136.8550000042887,NA,49,NA,NA,3000,1,NA,NA,images/earth.jpg,images/rocket1,images/rocket2,null,images/rocket2,NA,1,real,null,1,NA,NA,NA,sub81
d3-animate-choice,157,775907,0.0-76.0-1.7,FALSE,FALSE,FALSE,TRUE,"""event"",""trial"",""time""
""fullscreenenter"",""5"",""26184""
","
","
","""event"",""trial"",""time""
""fullscreenenter"",""5"",""26184""
","
",931.510000009439,NA,48,NA,NA,3000,1,NA,NA,images/redplanet1.jpg,images/alien2,images/alien1,images/rocket2,images/alien2,images/nothing.png,2,real,true,2,common,0,2020-06-16T19:33:25Z,sub81
two-step-fixation,158,776915,0.0-76.0-2.7,FALSE,FALSE,FALSE,TRUE,"""event"",""trial"",""time""
""fullscreenenter"",""5"",""26184""
","
","
","""event"",""trial"",""time""
""fullscreenenter"",""5"",""26184""
","
",NA,images/earth.jpg,NA,NA,NA,NA,NA,NA,NA,NA,NA,NA,NA,NA,NA,fixation,NA,NA,NA,NA,NA,NA,sub81
d3-animate-choice,159,779559,0.0-76.0-0.8,FALSE,FALSE,FALSE,TRUE,"""event"",""trial"",""time""
""fullscreenenter"",""5"",""26184""
","
","
","""event"",""trial"",""time""
""fullscreenenter"",""5"",""26184""
","
",636.9199999899138,NA,48,NA,NA,3000,1,NA,NA,images/earth.jpg,images/rocket1,images/rocket2,null,images/rocket1,NA,1,real,null,2,NA,NA,NA,sub81
d3-animate-choice,160,782301,0.0-76.0-1.8,FALSE,FALSE,FALSE,TRUE,"""event"",""trial"",""time""
""fullscreenenter"",""5"",""26184""
","
","
","""event"",""trial"",""time""
""fullscreenenter"",""5"",""26184""
","
",733.475000000908,NA,49,NA,NA,3000,1,NA,NA,images/purpleplanet.jpg,images/alien4,images/alien3,images/rocket1,images/alien3,images/nothing.png,2,real,true,1,common,0,2020-06-16T19:33:32Z,sub81
two-step-fixation,161,783307,0.0-76.0-2.8,FALSE,FALSE,FALSE,TRUE,"""event"",""trial"",""time""
""fullscreenenter"",""5"",""26184""
","
","
","""event"",""trial"",""time""
""fullscreenenter"",""5"",""26184""
","
",NA,images/earth.jpg,NA,NA,NA,NA,NA,NA,NA,NA,NA,NA,NA,NA,NA,fixation,NA,NA,NA,NA,NA,NA,sub81
d3-animate-choice,162,785626,0.0-76.0-0.9,FALSE,FALSE,FALSE,TRUE,"""event"",""trial"",""time""
""fullscreenenter"",""5"",""26184""
","
","
","""event"",""trial"",""time""
""fullscreenenter"",""5"",""26184""
","
",311.27999999444,NA,49,NA,NA,3000,1,NA,NA,images/earth.jpg,images/rocket1,images/rocket2,null,images/rocket2,NA,1,real,null,1,NA,NA,NA,sub81
d3-animate-choice,163,788395,0.0-76.0-1.9,FALSE,FALSE,FALSE,TRUE,"""event"",""trial"",""time""
""fullscreenenter"",""5"",""26184""
","
","
","""event"",""trial"",""time""
""fullscreenenter"",""5"",""26184""
","
",760.3800000069896,NA,49,NA,NA,3000,1,NA,NA,images/redplanet1.jpg,images/alien2,images/alien1,images/rocket2,images/alien1,images/t.png,2,real,true,1,common,1,2020-06-16T19:33:38Z,sub81
two-step-fixation,164,789400,0.0-76.0-2.9,FALSE,FALSE,FALSE,TRUE,"""event"",""trial"",""time""
""fullscreenenter"",""5"",""26184""
","
","
","""event"",""trial"",""time""
""fullscreenenter"",""5"",""26184""
","
",NA,images/earth.jpg,NA,NA,NA,NA,NA,NA,NA,NA,NA,NA,NA,NA,NA,fixation,NA,NA,NA,NA,NA,NA,sub81
d3-animate-choice,165,791791,0.0-76.0-0.10,FALSE,FALSE,FALSE,TRUE,"""event"",""trial"",""time""
""fullscreenenter"",""5"",""26184""
","
","
","""event"",""trial"",""time""
""fullscreenenter"",""5"",""26184""
","
",384.4399999943562,NA,49,NA,NA,3000,1,NA,NA,images/earth.jpg,images/rocket1,images/rocket2,null,images/rocket2,NA,1,real,null,1,NA,NA,NA,sub81
d3-animate-choice,166,795199,0.0-76.0-1.10,FALSE,FALSE,FALSE,TRUE,"""event"",""trial"",""time""
""fullscreenenter"",""5"",""26184""
","
","
","""event"",""trial"",""time""
""fullscreenenter"",""5"",""26184""
","
",1400.8150000008754,NA,48,NA,NA,3000,1,NA,NA,images/purpleplanet.jpg,images/alien4,images/alien3,images/rocket2,images/alien4,images/nothing.png,2,real,false,2,rare,0,2020-06-16T19:33:45Z,sub81
two-step-fixation,167,796204,0.0-76.0-2.10,FALSE,FALSE,FALSE,TRUE,"""event"",""trial"",""time""
""fullscreenenter"",""5"",""26184""
","
","
","""event"",""trial"",""time""
""fullscreenenter"",""5"",""26184""
","
",NA,images/earth.jpg,NA,NA,NA,NA,NA,NA,NA,NA,NA,NA,NA,NA,NA,fixation,NA,NA,NA,NA,NA,NA,sub81
d3-animate-choice,168,798736,0.0-76.0-0.11,FALSE,FALSE,FALSE,TRUE,"""event"",""trial"",""time""
""fullscreenenter"",""5"",""26184""
","
","
","""event"",""trial"",""time""
""fullscreenenter"",""5"",""26184""
","
",525.1699999935227,NA,49,NA,NA,3000,1,NA,NA,images/earth.jpg,images/rocket1,images/rocket2,null,images/rocket2,NA,1,real,null,1,NA,NA,NA,sub81
d3-animate-choice,169,802010,0.0-76.0-1.11,FALSE,FALSE,FALSE,TRUE,"""event"",""trial"",""time""
""fullscreenenter"",""5"",""26184""
","
","
","""event"",""trial"",""time""
""fullscreenenter"",""5"",""26184""
","
",1266.4349999977276,NA,48,NA,NA,3000,1,NA,NA,images/redplanet1.jpg,images/alien2,images/alien1,images/rocket2,images/alien2,images/nothing.png,2,real,true,2,common,0,2020-06-16T19:33:52Z,sub81
two-step-fixation,170,803017,0.0-76.0-2.11,FALSE,FALSE,FALSE,TRUE,"""event"",""trial"",""time""
""fullscreenenter"",""5"",""26184""
","
","
","""event"",""trial"",""time""
""fullscreenenter"",""5"",""26184""
","
",NA,images/earth.jpg,NA,NA,NA,NA,NA,NA,NA,NA,NA,NA,NA,NA,NA,fixation,NA,NA,NA,NA,NA,NA,sub81
d3-animate-choice,171,805729,0.0-76.0-0.12,FALSE,FALSE,FALSE,TRUE,"""event"",""trial"",""time""
""fullscreenenter"",""5"",""26184""
","
","
","""event"",""trial"",""time""
""fullscreenenter"",""5"",""26184""
","
",706.0449999989942,NA,49,NA,NA,3000,1,NA,NA,images/earth.jpg,images/rocket1,images/rocket2,null,images/rocket2,NA,1,real,null,1,NA,NA,NA,sub81
d3-animate-choice,172,809235,0.0-76.0-1.12,FALSE,FALSE,FALSE,TRUE,"""event"",""trial"",""time""
""fullscreenenter"",""5"",""26184""
","
","
","""event"",""trial"",""time""
""fullscreenenter"",""5"",""26184""
","
",1498.5599999927217,NA,48,NA,NA,3000,1,NA,NA,images/purpleplanet.jpg,images/alien4,images/alien3,images/rocket2,images/alien4,images/t.png,2,real,false,2,rare,1,2020-06-16T19:33:59Z,sub81
two-step-fixation,173,810242,0.0-76.0-2.12,FALSE,FALSE,FALSE,TRUE,"""event"",""trial"",""time""
""fullscreenenter"",""5"",""26184""
","
","
","""event"",""trial"",""time""
""fullscreenenter"",""5"",""26184""
","
",NA,images/earth.jpg,NA,NA,NA,NA,NA,NA,NA,NA,NA,NA,NA,NA,NA,fixation,NA,NA,NA,NA,NA,NA,sub81
d3-animate-choice,174,813136,0.0-76.0-0.13,FALSE,FALSE,FALSE,TRUE,"""event"",""trial"",""time""
""fullscreenenter"",""5"",""26184""
","
","
","""event"",""trial"",""time""
""fullscreenenter"",""5"",""26184""
","
",889.0749999991385,NA,49,NA,NA,3000,1,NA,NA,images/earth.jpg,images/rocket1,images/rocket2,null,images/rocket2,NA,1,real,null,1,NA,NA,NA,sub81
d3-animate-choice,175,817046,0.0-76.0-1.13,FALSE,FALSE,FALSE,TRUE,"""event"",""trial"",""time""
""fullscreenenter"",""5"",""26184""
","
","
","""event"",""trial"",""time""
""fullscreenenter"",""5"",""26184""
","
",1903.0300000013085,NA,48,NA,NA,3000,1,NA,NA,images/purpleplanet.jpg,images/alien4,images/alien3,images/rocket2,images/alien4,images/t.png,2,real,false,2,rare,1,2020-06-16T19:34:07Z,sub81
two-step-fixation,176,818053,0.0-76.0-2.13,FALSE,FALSE,FALSE,TRUE,"""event"",""trial"",""time""
""fullscreenenter"",""5"",""26184""
","
","
","""event"",""trial"",""time""
""fullscreenenter"",""5"",""26184""
","
",NA,images/earth.jpg,NA,NA,NA,NA,NA,NA,NA,NA,NA,NA,NA,NA,NA,fixation,NA,NA,NA,NA,NA,NA,sub81
d3-animate-choice,177,820628,0.0-76.0-0.14,FALSE,FALSE,FALSE,TRUE,"""event"",""trial"",""time""
""fullscreenenter"",""5"",""26184""
","
","
","""event"",""trial"",""time""
""fullscreenenter"",""5"",""26184""
","
",567.8100000077393,NA,48,NA,NA,3000,1,NA,NA,images/earth.jpg,images/rocket1,images/rocket2,null,images/rocket1,NA,1,real,null,2,NA,NA,NA,sub81
d3-animate-choice,178,823604,0.0-76.0-1.14,FALSE,FALSE,FALSE,TRUE,"""event"",""trial"",""time""
""fullscreenenter"",""5"",""26184""
","
","
","""event"",""trial"",""time""
""fullscreenenter"",""5"",""26184""
","
",967.9049999976996,NA,48,NA,NA,3000,1,NA,NA,images/purpleplanet.jpg,images/alien4,images/alien3,images/rocket1,images/alien4,images/nothing.png,2,real,true,2,common,0,2020-06-16T19:34:13Z,sub81
two-step-fixation,179,824611,0.0-76.0-2.14,FALSE,FALSE,FALSE,TRUE,"""event"",""trial"",""time""
""fullscreenenter"",""5"",""26184""
","
","
","""event"",""trial"",""time""
""fullscreenenter"",""5"",""26184""
","
",NA,images/earth.jpg,NA,NA,NA,NA,NA,NA,NA,NA,NA,NA,NA,NA,NA,fixation,NA,NA,NA,NA,NA,NA,sub81
d3-animate-choice,180,827021,0.0-76.0-0.15,FALSE,FALSE,FALSE,TRUE,"""event"",""trial"",""time""
""fullscreenenter"",""5"",""26184""
","
","
","""event"",""trial"",""time""
""fullscreenenter"",""5"",""26184""
","
",403.1600000016624,NA,49,NA,NA,3000,1,NA,NA,images/earth.jpg,images/rocket1,images/rocket2,null,images/rocket2,NA,1,real,null,1,NA,NA,NA,sub81
d3-animate-choice,181,830545,0.0-76.0-1.15,FALSE,FALSE,FALSE,TRUE,"""event"",""trial"",""time""
""fullscreenenter"",""5"",""26184""
","
","
","""event"",""trial"",""time""
""fullscreenenter"",""5"",""26184""
","
",1517.7950000070268,NA,49,NA,NA,3000,1,NA,NA,images/purpleplanet.jpg,images/alien4,images/alien3,images/rocket2,images/alien3,images/nothing.png,2,real,false,1,rare,0,2020-06-16T19:34:20Z,sub81
two-step-fixation,182,831550,0.0-76.0-2.15,FALSE,FALSE,FALSE,TRUE,"""event"",""trial"",""time""
""fullscreenenter"",""5"",""26184""
","
","
","""event"",""trial"",""time""
""fullscreenenter"",""5"",""26184""
","
",NA,images/earth.jpg,NA,NA,NA,NA,NA,NA,NA,NA,NA,NA,NA,NA,NA,fixation,NA,NA,NA,NA,NA,NA,sub81
d3-animate-choice,183,834169,0.0-76.0-0.16,FALSE,FALSE,FALSE,TRUE,"""event"",""trial"",""time""
""fullscreenenter"",""5"",""26184""
","
","
","""event"",""trial"",""time""
""fullscreenenter"",""5"",""26184""
","
",610.8600000006845,NA,48,NA,NA,3000,1,NA,NA,images/earth.jpg,images/rocket1,images/rocket2,null,images/rocket1,NA,1,real,null,2,NA,NA,NA,sub81
d3-animate-choice,184,837199,0.0-76.0-1.16,FALSE,FALSE,FALSE,TRUE,"""event"",""trial"",""time""
""fullscreenenter"",""5"",""26184""
","
","
","""event"",""trial"",""time""
""fullscreenenter"",""5"",""26184""
","
",1023.4899999923073,NA,48,NA,NA,3000,1,NA,NA,images/purpleplanet.jpg,images/alien4,images/alien3,images/rocket1,images/alien4,images/nothing.png,2,real,true,2,common,0,2020-06-16T19:34:27Z,sub81
two-step-fixation,185,838206,0.0-76.0-2.16,FALSE,FALSE,FALSE,TRUE,"""event"",""trial"",""time""
""fullscreenenter"",""5"",""26184""
","
","
","""event"",""trial"",""time""
""fullscreenenter"",""5"",""26184""
","
",NA,images/earth.jpg,NA,NA,NA,NA,NA,NA,NA,NA,NA,NA,NA,NA,NA,fixation,NA,NA,NA,NA,NA,NA,sub81
d3-animate-choice,186,840549,0.0-76.0-0.17,FALSE,FALSE,FALSE,TRUE,"""event"",""trial"",""time""
""fullscreenenter"",""5"",""26184""
","
","
","""event"",""trial"",""time""
""fullscreenenter"",""5"",""26184""
","
",336.46999999473337,NA,48,NA,NA,3000,1,NA,NA,images/earth.jpg,images/rocket1,images/rocket2,null,images/rocket1,NA,1,real,null,2,NA,NA,NA,sub81
d3-animate-choice,187,843921,0.0-76.0-1.17,FALSE,FALSE,FALSE,TRUE,"""event"",""trial"",""time""
""fullscreenenter"",""5"",""26184""
","
","
","""event"",""trial"",""time""
""fullscreenenter"",""5"",""26184""
","
",1364.464999991469,NA,48,NA,NA,3000,1,NA,NA,images/redplanet1.jpg,images/alien2,images/alien1,images/rocket1,images/alien2,images/nothing.png,2,real,false,2,rare,0,2020-06-16T19:34:34Z,sub81
two-step-fixation,188,844928,0.0-76.0-2.17,FALSE,FALSE,FALSE,TRUE,"""event"",""trial"",""time""
""fullscreenenter"",""5"",""26184""
","
","
","""event"",""trial"",""time""
""fullscreenenter"",""5"",""26184""
","
",NA,images/earth.jpg,NA,NA,NA,NA,NA,NA,NA,NA,NA,NA,NA,NA,NA,fixation,NA,NA,NA,NA,NA,NA,sub81
d3-animate-choice,189,847247,0.0-76.0-0.18,FALSE,FALSE,FALSE,TRUE,"""event"",""trial"",""time""
""fullscreenenter"",""5"",""26184""
","
","
","""event"",""trial"",""time""
""fullscreenenter"",""5"",""26184""
","
",312.9449999978533,NA,48,NA,NA,3000,1,NA,NA,images/earth.jpg,images/rocket1,images/rocket2,null,images/rocket1,NA,1,real,null,2,NA,NA,NA,sub81
d3-animate-choice,190,850778,0.0-76.0-1.18,FALSE,FALSE,FALSE,TRUE,"""event"",""trial"",""time""
""fullscreenenter"",""5"",""26184""
","
","
","""event"",""trial"",""time""
""fullscreenenter"",""5"",""26184""
","
",1523.830000005546,NA,48,NA,NA,3000,1,NA,NA,images/purpleplanet.jpg,images/alien4,images/alien3,images/rocket1,images/alien4,images/t.png,2,real,true,2,common,1,2020-06-16T19:34:40Z,sub81
two-step-fixation,191,851784,0.0-76.0-2.18,FALSE,FALSE,FALSE,TRUE,"""event"",""trial"",""time""
""fullscreenenter"",""5"",""26184""
","
","
","""event"",""trial"",""time""
""fullscreenenter"",""5"",""26184""
","
",NA,images/earth.jpg,NA,NA,NA,NA,NA,NA,NA,NA,NA,NA,NA,NA,NA,fixation,NA,NA,NA,NA,NA,NA,sub81
d3-animate-choice,192,854838,0.0-76.0-0.19,FALSE,FALSE,FALSE,TRUE,"""event"",""trial"",""time""
""fullscreenenter"",""5"",""26184""
","
","
","""event"",""trial"",""time""
""fullscreenenter"",""5"",""26184""
","
",1045.6600000034086,NA,48,NA,NA,3000,1,NA,NA,images/earth.jpg,images/rocket1,images/rocket2,null,images/rocket1,NA,1,real,null,2,NA,NA,NA,sub81
d3-animate-choice,193,858845,0.0-76.0-1.19,FALSE,FALSE,FALSE,TRUE,"""event"",""trial"",""time""
""fullscreenenter"",""5"",""26184""
","
","
","""event"",""trial"",""time""
""fullscreenenter"",""5"",""26184""
","
",2045.9049999917625,NA,49,NA,NA,3000,1,NA,NA,images/purpleplanet.jpg,images/alien4,images/alien3,images/rocket1,images/alien3,images/t.png,2,real,true,1,common,1,2020-06-16T19:34:48Z,sub81
two-step-fixation,194,859851,0.0-76.0-2.19,FALSE,FALSE,FALSE,TRUE,"""event"",""trial"",""time""
""fullscreenenter"",""5"",""26184""
","
","
","""event"",""trial"",""time""
""fullscreenenter"",""5"",""26184""
","
",NA,images/earth.jpg,NA,NA,NA,NA,NA,NA,NA,NA,NA,NA,NA,NA,NA,fixation,NA,NA,NA,NA,NA,NA,sub81
d3-animate-choice,195,862662,0.0-76.0-0.20,FALSE,FALSE,FALSE,TRUE,"""event"",""trial"",""time""
""fullscreenenter"",""5"",""26184""
","
","
","""event"",""trial"",""time""
""fullscreenenter"",""5"",""26184""
","
",803.5450000024866,NA,49,NA,NA,3000,1,NA,NA,images/earth.jpg,images/rocket1,images/rocket2,null,images/rocket2,NA,1,real,null,1,NA,NA,NA,sub81
d3-animate-choice,196,866600,0.0-76.0-1.20,FALSE,FALSE,FALSE,TRUE,"""event"",""trial"",""time""
""fullscreenenter"",""5"",""26184""
","
","
","""event"",""trial"",""time""
""fullscreenenter"",""5"",""26184""
","
",1930.3950000030454,NA,49,NA,NA,3000,1,NA,NA,images/redplanet1.jpg,images/alien2,images/alien1,images/rocket2,images/alien1,images/t.png,2,real,true,1,common,1,2020-06-16T19:34:56Z,sub81
two-step-fixation,197,867607,0.0-76.0-2.20,FALSE,FALSE,FALSE,TRUE,"""event"",""trial"",""time""
""fullscreenenter"",""5"",""26184""
","
","
","""event"",""trial"",""time""
""fullscreenenter"",""5"",""26184""
","
",NA,images/earth.jpg,NA,NA,NA,NA,NA,NA,NA,NA,NA,NA,NA,NA,NA,fixation,NA,NA,NA,NA,NA,NA,sub81
d3-animate-choice,198,870076,0.0-76.0-0.21,FALSE,FALSE,FALSE,TRUE,"""event"",""trial"",""time""
""fullscreenenter"",""5"",""26184""
","
","
","""event"",""trial"",""time""
""fullscreenenter"",""5"",""26184""
","
",461.0300000058487,NA,49,NA,NA,3000,1,NA,NA,images/earth.jpg,images/rocket1,images/rocket2,null,images/rocket2,NA,1,real,null,1,NA,NA,NA,sub81
d3-animate-choice,199,873034,0.0-76.0-1.21,FALSE,FALSE,FALSE,TRUE,"""event"",""trial"",""time""
""fullscreenenter"",""5"",""26184""
","
","
","""event"",""trial"",""time""
""fullscreenenter"",""5"",""26184""
","
",950.5650000064634,NA,49,NA,NA,3000,1,NA,NA,images/redplanet1.jpg,images/alien2,images/alien1,images/rocket2,images/alien1,images/t.png,2,real,true,1,common,1,2020-06-16T19:35:03Z,sub81
two-step-fixation,200,874041,0.0-76.0-2.21,FALSE,FALSE,FALSE,TRUE,"""event"",""trial"",""time""
""fullscreenenter"",""5"",""26184""
","
","
","""event"",""trial"",""time""
""fullscreenenter"",""5"",""26184""
","
",NA,images/earth.jpg,NA,NA,NA,NA,NA,NA,NA,NA,NA,NA,NA,NA,NA,fixation,NA,NA,NA,NA,NA,NA,sub81
d3-animate-choice,201,876630,0.0-76.0-0.22,FALSE,FALSE,FALSE,TRUE,"""event"",""trial"",""time""
""fullscreenenter"",""5"",""26184""
","
","
","""event"",""trial"",""time""
""fullscreenenter"",""5"",""26184""
","
",582.6300000044284,NA,49,NA,NA,3000,1,NA,NA,images/earth.jpg,images/rocket1,images/rocket2,null,images/rocket2,NA,1,real,null,1,NA,NA,NA,sub81
d3-animate-choice,202,879743,0.0-76.0-1.22,FALSE,FALSE,FALSE,TRUE,"""event"",""trial"",""time""
""fullscreenenter"",""5"",""26184""
","
","
","""event"",""trial"",""time""
""fullscreenenter"",""5"",""26184""
","
",1106.2499999970896,NA,48,NA,NA,3000,1,NA,NA,images/purpleplanet.jpg,images/alien4,images/alien3,images/rocket2,images/alien4,images/nothing.png,2,real,false,2,rare,0,2020-06-16T19:35:09Z,sub81
two-step-fixation,203,880749,0.0-76.0-2.22,FALSE,FALSE,FALSE,TRUE,"""event"",""trial"",""time""
""fullscreenenter"",""5"",""26184""
","
","
","""event"",""trial"",""time""
""fullscreenenter"",""5"",""26184""
","
",NA,images/earth.jpg,NA,NA,NA,NA,NA,NA,NA,NA,NA,NA,NA,NA,NA,fixation,NA,NA,NA,NA,NA,NA,sub81
d3-animate-choice,204,883424,0.0-76.0-0.23,FALSE,FALSE,FALSE,TRUE,"""event"",""trial"",""time""
""fullscreenenter"",""5"",""26184""
","
","
","""event"",""trial"",""time""
""fullscreenenter"",""5"",""26184""
","
",668.180000007851,NA,49,NA,NA,3000,1,NA,NA,images/earth.jpg,images/rocket1,images/rocket2,null,images/rocket2,NA,1,real,null,1,NA,NA,NA,sub81
d3-animate-choice,205,886797,0.0-76.0-1.23,FALSE,FALSE,FALSE,TRUE,"""event"",""trial"",""time""
""fullscreenenter"",""5"",""26184""
","
","
","""event"",""trial"",""time""
""fullscreenenter"",""5"",""26184""
","
",1364.6799999987707,NA,49,NA,NA,3000,1,NA,NA,images/purpleplanet.jpg,images/alien4,images/alien3,images/rocket2,images/alien3,images/nothing.png,2,real,false,1,rare,0,2020-06-16T19:35:16Z,sub81
two-step-fixation,206,887803,0.0-76.0-2.23,FALSE,FALSE,FALSE,TRUE,"""event"",""trial"",""time""
""fullscreenenter"",""5"",""26184""
","
","
","""event"",""trial"",""time""
""fullscreenenter"",""5"",""26184""
","
",NA,images/earth.jpg,NA,NA,NA,NA,NA,NA,NA,NA,NA,NA,NA,NA,NA,fixation,NA,NA,NA,NA,NA,NA,sub81
d3-animate-choice,207,890564,0.0-76.0-0.24,FALSE,FALSE,FALSE,TRUE,"""event"",""trial"",""time""
""fullscreenenter"",""5"",""26184""
","
","
","""event"",""trial"",""time""
""fullscreenenter"",""5"",""26184""
","
",753.4199999936391,NA,48,NA,NA,3000,1,NA,NA,images/earth.jpg,images/rocket1,images/rocket2,null,images/rocket1,NA,1,real,null,2,NA,NA,NA,sub81
d3-animate-choice,208,893319,0.0-76.0-1.24,FALSE,FALSE,FALSE,TRUE,"""event"",""trial"",""time""
""fullscreenenter"",""5"",""26184""
","
","
","""event"",""trial"",""time""
""fullscreenenter"",""5"",""26184""
","
",748.5299999971176,NA,49,NA,NA,3000,1,NA,NA,images/purpleplanet.jpg,images/alien4,images/alien3,images/rocket1,images/alien3,images/t.png,2,real,true,1,common,1,2020-06-16T19:35:23Z,sub81
two-step-fixation,209,894326,0.0-76.0-2.24,FALSE,FALSE,FALSE,TRUE,"""event"",""trial"",""time""
""fullscreenenter"",""5"",""26184""
","
","
","""event"",""trial"",""time""
""fullscreenenter"",""5"",""26184""
","
",NA,images/earth.jpg,NA,NA,NA,NA,NA,NA,NA,NA,NA,NA,NA,NA,NA,fixation,NA,NA,NA,NA,NA,NA,sub81
d3-animate-choice,210,897068,0.0-76.0-0.25,FALSE,FALSE,FALSE,TRUE,"""event"",""trial"",""time""
""fullscreenenter"",""5"",""26184""
","
","
","""event"",""trial"",""time""
""fullscreenenter"",""5"",""26184""
","
",734.6350000007078,NA,49,NA,NA,3000,1,NA,NA,images/earth.jpg,images/rocket1,images/rocket2,null,images/rocket2,NA,1,real,null,1,NA,NA,NA,sub81
d3-animate-choice,211,899786,0.0-76.0-1.25,FALSE,FALSE,FALSE,TRUE,"""event"",""trial"",""time""
""fullscreenenter"",""5"",""26184""
","
","
","""event"",""trial"",""time""
""fullscreenenter"",""5"",""26184""
","
",711.3399999943795,NA,49,NA,NA,3000,1,NA,NA,images/redplanet1.jpg,images/alien2,images/alien1,images/rocket2,images/alien1,images/nothing.png,2,real,true,1,common,0,2020-06-16T19:35:29Z,sub81
two-step-fixation,212,900793,0.0-76.0-2.25,FALSE,FALSE,FALSE,TRUE,"""event"",""trial"",""time""
""fullscreenenter"",""5"",""26184""
","
","
","""event"",""trial"",""time""
""fullscreenenter"",""5"",""26184""
","
",NA,images/earth.jpg,NA,NA,NA,NA,NA,NA,NA,NA,NA,NA,NA,NA,NA,fixation,NA,NA,NA,NA,NA,NA,sub81
d3-animate-choice,213,903137,0.0-76.0-0.26,FALSE,FALSE,FALSE,TRUE,"""event"",""trial"",""time""
""fullscreenenter"",""5"",""26184""
","
","
","""event"",""trial"",""time""
""fullscreenenter"",""5"",""26184""
","
",336.02499999688007,NA,49,NA,NA,3000,1,NA,NA,images/earth.jpg,images/rocket1,images/rocket2,null,images/rocket2,NA,1,real,null,1,NA,NA,NA,sub81
d3-animate-choice,214,905841,0.0-76.0-1.26,FALSE,FALSE,FALSE,TRUE,"""event"",""trial"",""time""
""fullscreenenter"",""5"",""26184""
","
","
","""event"",""trial"",""time""
""fullscreenenter"",""5"",""26184""
","
",697.1950000006473,NA,49,NA,NA,3000,1,NA,NA,images/redplanet1.jpg,images/alien2,images/alien1,images/rocket2,images/alien1,images/t.png,2,real,true,1,common,1,2020-06-16T19:35:35Z,sub81
two-step-fixation,215,906848,0.0-76.0-2.26,FALSE,FALSE,FALSE,TRUE,"""event"",""trial"",""time""
""fullscreenenter"",""5"",""26184""
","
","
","""event"",""trial"",""time""
""fullscreenenter"",""5"",""26184""
","
",NA,images/earth.jpg,NA,NA,NA,NA,NA,NA,NA,NA,NA,NA,NA,NA,NA,fixation,NA,NA,NA,NA,NA,NA,sub81
d3-animate-choice,216,909270,0.0-76.0-0.27,FALSE,FALSE,FALSE,TRUE,"""event"",""trial"",""time""
""fullscreenenter"",""5"",""26184""
","
","
","""event"",""trial"",""time""
""fullscreenenter"",""5"",""26184""
","
",415.01500000595115,NA,49,NA,NA,3000,1,NA,NA,images/earth.jpg,images/rocket1,images/rocket2,null,images/rocket2,NA,1,real,null,1,NA,NA,NA,sub81
d3-animate-choice,217,912181,0.0-76.0-1.27,FALSE,FALSE,FALSE,TRUE,"""event"",""trial"",""time""
""fullscreenenter"",""5"",""26184""
","
","
","""event"",""trial"",""time""
""fullscreenenter"",""5"",""26184""
","
",903.1099999992875,NA,49,NA,NA,3000,1,NA,NA,images/purpleplanet.jpg,images/alien4,images/alien3,images/rocket2,images/alien3,images/nothing.png,2,real,false,1,rare,0,2020-06-16T19:35:42Z,sub81
two-step-fixation,218,913188,0.0-76.0-2.27,FALSE,FALSE,FALSE,TRUE,"""event"",""trial"",""time""
""fullscreenenter"",""5"",""26184""
","
","
","""event"",""trial"",""time""
""fullscreenenter"",""5"",""26184""
","
",NA,images/earth.jpg,NA,NA,NA,NA,NA,NA,NA,NA,NA,NA,NA,NA,NA,fixation,NA,NA,NA,NA,NA,NA,sub81
d3-animate-choice,219,915485,0.0-76.0-0.28,FALSE,FALSE,FALSE,TRUE,"""event"",""trial"",""time""
""fullscreenenter"",""5"",""26184""
","
","
","""event"",""trial"",""time""
""fullscreenenter"",""5"",""26184""
","
",290.6799999909708,NA,48,NA,NA,3000,1,NA,NA,images/earth.jpg,images/rocket1,images/rocket2,null,images/rocket1,NA,1,real,null,2,NA,NA,NA,sub81
d3-animate-choice,220,918221,0.0-76.0-1.28,FALSE,FALSE,FALSE,TRUE,"""event"",""trial"",""time""
""fullscreenenter"",""5"",""26184""
","
","
","""event"",""trial"",""time""
""fullscreenenter"",""5"",""26184""
","
",729.5100000046659,NA,48,NA,NA,3000,1,NA,NA,images/purpleplanet.jpg,images/alien4,images/alien3,images/rocket1,images/alien4,images/t.png,2,real,true,2,common,1,2020-06-16T19:35:48Z,sub81
two-step-fixation,221,919227,0.0-76.0-2.28,FALSE,FALSE,FALSE,TRUE,"""event"",""trial"",""time""
""fullscreenenter"",""5"",""26184""
","
","
","""event"",""trial"",""time""
""fullscreenenter"",""5"",""26184""
","
",NA,images/earth.jpg,NA,NA,NA,NA,NA,NA,NA,NA,NA,NA,NA,NA,NA,fixation,NA,NA,NA,NA,NA,NA,sub81
d3-animate-choice,222,921634,0.0-76.0-0.29,FALSE,FALSE,FALSE,TRUE,"""event"",""trial"",""time""
""fullscreenenter"",""5"",""26184""
","
","
","""event"",""trial"",""time""
""fullscreenenter"",""5"",""26184""
","
",400.3300000040326,NA,48,NA,NA,3000,1,NA,NA,images/earth.jpg,images/rocket1,images/rocket2,null,images/rocket1,NA,1,real,null,2,NA,NA,NA,sub81
d3-animate-choice,223,924139,0.0-76.0-1.29,FALSE,FALSE,FALSE,TRUE,"""event"",""trial"",""time""
""fullscreenenter"",""5"",""26184""
","
","
","""event"",""trial"",""time""
""fullscreenenter"",""5"",""26184""
","
",498.29000000318047,NA,48,NA,NA,3000,1,NA,NA,images/purpleplanet.jpg,images/alien4,images/alien3,images/rocket1,images/alien4,images/nothing.png,2,real,true,2,common,0,2020-06-16T19:35:54Z,sub81
two-step-fixation,224,925145,0.0-76.0-2.29,FALSE,FALSE,FALSE,TRUE,"""event"",""trial"",""time""
""fullscreenenter"",""5"",""26184""
","
","
","""event"",""trial"",""time""
""fullscreenenter"",""5"",""26184""
","
",NA,images/earth.jpg,NA,NA,NA,NA,NA,NA,NA,NA,NA,NA,NA,NA,NA,fixation,NA,NA,NA,NA,NA,NA,sub81
d3-animate-choice,225,927461,0.0-76.0-0.30,FALSE,FALSE,FALSE,TRUE,"""event"",""trial"",""time""
""fullscreenenter"",""5"",""26184""
","
","
","""event"",""trial"",""time""
""fullscreenenter"",""5"",""26184""
","
",308.03000000014435,NA,49,NA,NA,3000,1,NA,NA,images/earth.jpg,images/rocket1,images/rocket2,null,images/rocket2,NA,1,real,null,1,NA,NA,NA,sub81
d3-animate-choice,226,930554,0.0-76.0-1.30,FALSE,FALSE,FALSE,TRUE,"""event"",""trial"",""time""
""fullscreenenter"",""5"",""26184""
","
","
","""event"",""trial"",""time""
""fullscreenenter"",""5"",""26184""
","
",1085.1200000033714,NA,49,NA,NA,3000,1,NA,NA,images/redplanet1.jpg,images/alien2,images/alien1,images/rocket2,images/alien1,images/t.png,2,real,true,1,common,1,2020-06-16T19:36:00Z,sub81
two-step-fixation,227,931561,0.0-76.0-2.30,FALSE,FALSE,FALSE,TRUE,"""event"",""trial"",""time""
""fullscreenenter"",""5"",""26184""
","
","
","""event"",""trial"",""time""
""fullscreenenter"",""5"",""26184""
","
",NA,images/earth.jpg,NA,NA,NA,NA,NA,NA,NA,NA,NA,NA,NA,NA,NA,fixation,NA,NA,NA,NA,NA,NA,sub81
d3-animate-choice,228,933879,0.0-76.0-0.31,FALSE,FALSE,FALSE,TRUE,"""event"",""trial"",""time""
""fullscreenenter"",""5"",""26184""
","
","
","""event"",""trial"",""time""
""fullscreenenter"",""5"",""26184""
","
",311.52499999734573,NA,49,NA,NA,3000,1,NA,NA,images/earth.jpg,images/rocket1,images/rocket2,null,images/rocket2,NA,1,real,null,1,NA,NA,NA,sub81
d3-animate-choice,229,936340,0.0-76.0-1.31,FALSE,FALSE,FALSE,TRUE,"""event"",""trial"",""time""
""fullscreenenter"",""5"",""26184""
","
","
","""event"",""trial"",""time""
""fullscreenenter"",""5"",""26184""
","
",452.74999999674037,NA,48,NA,NA,3000,1,NA,NA,images/redplanet1.jpg,images/alien2,images/alien1,images/rocket2,images/alien2,images/t.png,2,real,true,2,common,1,2020-06-16T19:36:06Z,sub81
two-step-fixation,230,937345,0.0-76.0-2.31,FALSE,FALSE,FALSE,TRUE,"""event"",""trial"",""time""
""fullscreenenter"",""5"",""26184""
","
","
","""event"",""trial"",""time""
""fullscreenenter"",""5"",""26184""
","
",NA,images/earth.jpg,NA,NA,NA,NA,NA,NA,NA,NA,NA,NA,NA,NA,NA,fixation,NA,NA,NA,NA,NA,NA,sub81
d3-animate-choice,231,939766,0.0-76.0-0.32,FALSE,FALSE,FALSE,TRUE,"""event"",""trial"",""time""
""fullscreenenter"",""5"",""26184""
","
","
","""event"",""trial"",""time""
""fullscreenenter"",""5"",""26184""
","
",413.620000006631,NA,49,NA,NA,3000,1,NA,NA,images/earth.jpg,images/rocket1,images/rocket2,null,images/rocket2,NA,1,real,null,1,NA,NA,NA,sub81
d3-animate-choice,232,942283,0.0-76.0-1.32,FALSE,FALSE,FALSE,TRUE,"""event"",""trial"",""time""
""fullscreenenter"",""5"",""26184""
","
","
","""event"",""trial"",""time""
""fullscreenenter"",""5"",""26184""
","
",509.4050000043353,NA,48,NA,NA,3000,1,NA,NA,images/redplanet1.jpg,images/alien2,images/alien1,images/rocket2,images/alien2,images/nothing.png,2,real,true,2,common,0,2020-06-16T19:36:12Z,sub81
two-step-fixation,233,943289,0.0-76.0-2.32,FALSE,FALSE,FALSE,TRUE,"""event"",""trial"",""time""
""fullscreenenter"",""5"",""26184""
","
","
","""event"",""trial"",""time""
""fullscreenenter"",""5"",""26184""
","
",NA,images/earth.jpg,NA,NA,NA,NA,NA,NA,NA,NA,NA,NA,NA,NA,NA,fixation,NA,NA,NA,NA,NA,NA,sub81
d3-animate-choice,234,945598,0.0-76.0-0.33,FALSE,FALSE,FALSE,TRUE,"""event"",""trial"",""time""
""fullscreenenter"",""5"",""26184""
","
","
","""event"",""trial"",""time""
""fullscreenenter"",""5"",""26184""
","
",302.110000004177,NA,49,NA,NA,3000,1,NA,NA,images/earth.jpg,images/rocket1,images/rocket2,null,images/rocket2,NA,1,real,null,1,NA,NA,NA,sub81
d3-animate-choice,235,948286,0.0-76.0-1.33,FALSE,FALSE,FALSE,TRUE,"""event"",""trial"",""time""
""fullscreenenter"",""5"",""26184""
","
","
","""event"",""trial"",""time""
""fullscreenenter"",""5"",""26184""
","
",680.370000001858,NA,49,NA,NA,3000,1,NA,NA,images/redplanet1.jpg,images/alien2,images/alien1,images/rocket2,images/alien1,images/t.png,2,real,true,1,common,1,2020-06-16T19:36:18Z,sub81
two-step-fixation,236,949294,0.0-76.0-2.33,FALSE,FALSE,FALSE,TRUE,"""event"",""trial"",""time""
""fullscreenenter"",""5"",""26184""
","
","
","""event"",""trial"",""time""
""fullscreenenter"",""5"",""26184""
","
",NA,images/earth.jpg,NA,NA,NA,NA,NA,NA,NA,NA,NA,NA,NA,NA,NA,fixation,NA,NA,NA,NA,NA,NA,sub81
d3-animate-choice,237,951651,0.0-76.0-0.34,FALSE,FALSE,FALSE,TRUE,"""event"",""trial"",""time""
""fullscreenenter"",""5"",""26184""
","
","
","""event"",""trial"",""time""
""fullscreenenter"",""5"",""26184""
","
",348.454999999376,NA,49,NA,NA,3000,1,NA,NA,images/earth.jpg,images/rocket1,images/rocket2,null,images/rocket2,NA,1,real,null,1,NA,NA,NA,sub81
d3-animate-choice,238,954062,0.0-76.0-1.34,FALSE,FALSE,FALSE,TRUE,"""event"",""trial"",""time""
""fullscreenenter"",""5"",""26184""
","
","
","""event"",""trial"",""time""
""fullscreenenter"",""5"",""26184""
","
",402.87499999976717,NA,49,NA,NA,3000,1,NA,NA,images/redplanet1.jpg,images/alien2,images/alien1,images/rocket2,images/alien1,images/t.png,2,real,true,1,common,1,2020-06-16T19:36:24Z,sub81
two-step-fixation,239,955068,0.0-76.0-2.34,FALSE,FALSE,FALSE,TRUE,"""event"",""trial"",""time""
""fullscreenenter"",""5"",""26184""
","
","
","""event"",""trial"",""time""
""fullscreenenter"",""5"",""26184""
","
",NA,images/earth.jpg,NA,NA,NA,NA,NA,NA,NA,NA,NA,NA,NA,NA,NA,fixation,NA,NA,NA,NA,NA,NA,sub81
d3-animate-choice,240,957405,0.0-76.0-0.35,FALSE,FALSE,FALSE,TRUE,"""event"",""trial"",""time""
""fullscreenenter"",""5"",""26184""
","
","
","""event"",""trial"",""time""
""fullscreenenter"",""5"",""26184""
","
",329.04499999131076,NA,49,NA,NA,3000,1,NA,NA,images/earth.jpg,images/rocket1,images/rocket2,null,images/rocket2,NA,1,real,null,1,NA,NA,NA,sub81
d3-animate-choice,241,959853,0.0-76.0-1.35,FALSE,FALSE,FALSE,TRUE,"""event"",""trial"",""time""
""fullscreenenter"",""5"",""26184""
","
","
","""event"",""trial"",""time""
""fullscreenenter"",""5"",""26184""
","
",441.5750000043772,NA,49,NA,NA,3000,1,NA,NA,images/redplanet1.jpg,images/alien2,images/alien1,images/rocket2,images/alien1,images/nothing.png,2,real,true,1,common,0,2020-06-16T19:36:29Z,sub81
two-step-fixation,242,960859,0.0-76.0-2.35,FALSE,FALSE,FALSE,TRUE,"""event"",""trial"",""time""
""fullscreenenter"",""5"",""26184""
","
","
","""event"",""trial"",""time""
""fullscreenenter"",""5"",""26184""
","
",NA,images/earth.jpg,NA,NA,NA,NA,NA,NA,NA,NA,NA,NA,NA,NA,NA,fixation,NA,NA,NA,NA,NA,NA,sub81
d3-animate-choice,243,963203,0.0-76.0-0.36,FALSE,FALSE,FALSE,TRUE,"""event"",""trial"",""time""
""fullscreenenter"",""5"",""26184""
","
","
","""event"",""trial"",""time""
""fullscreenenter"",""5"",""26184""
","
",337.55999999993946,NA,49,NA,NA,3000,1,NA,NA,images/earth.jpg,images/rocket1,images/rocket2,null,images/rocket2,NA,1,real,null,1,NA,NA,NA,sub81
d3-animate-choice,244,965780,0.0-76.0-1.36,FALSE,FALSE,FALSE,TRUE,"""event"",""trial"",""time""
""fullscreenenter"",""5"",""26184""
","
","
","""event"",""trial"",""time""
""fullscreenenter"",""5"",""26184""
","
",570.0750000105472,NA,49,NA,NA,3000,1,NA,NA,images/redplanet1.jpg,images/alien2,images/alien1,images/rocket2,images/alien1,images/t.png,2,real,true,1,common,1,2020-06-16T19:36:35Z,sub81
two-step-fixation,245,966786,0.0-76.0-2.36,FALSE,FALSE,FALSE,TRUE,"""event"",""trial"",""time""
""fullscreenenter"",""5"",""26184""
","
","
","""event"",""trial"",""time""
""fullscreenenter"",""5"",""26184""
","
",NA,images/earth.jpg,NA,NA,NA,NA,NA,NA,NA,NA,NA,NA,NA,NA,NA,fixation,NA,NA,NA,NA,NA,NA,sub81
d3-animate-choice,246,969130,0.0-76.0-0.37,FALSE,FALSE,FALSE,TRUE,"""event"",""trial"",""time""
""fullscreenenter"",""5"",""26184""
","
","
","""event"",""trial"",""time""
""fullscreenenter"",""5"",""26184""
","
",337.67000000807457,NA,49,NA,NA,3000,1,NA,NA,images/earth.jpg,images/rocket1,images/rocket2,null,images/rocket2,NA,1,real,null,1,NA,NA,NA,sub81
d3-animate-choice,247,971851,0.0-76.0-1.37,FALSE,FALSE,FALSE,TRUE,"""event"",""trial"",""time""
""fullscreenenter"",""5"",""26184""
","
","
","""event"",""trial"",""time""
""fullscreenenter"",""5"",""26184""
","
",712.294999990263,NA,49,NA,NA,3000,1,NA,NA,images/redplanet1.jpg,images/alien2,images/alien1,images/rocket2,images/alien1,images/t.png,2,real,true,1,common,1,2020-06-16T19:36:41Z,sub81
two-step-fixation,248,972857,0.0-76.0-2.37,FALSE,FALSE,FALSE,TRUE,"""event"",""trial"",""time""
""fullscreenenter"",""5"",""26184""
","
","
","""event"",""trial"",""time""
""fullscreenenter"",""5"",""26184""
","
",NA,images/earth.jpg,NA,NA,NA,NA,NA,NA,NA,NA,NA,NA,NA,NA,NA,fixation,NA,NA,NA,NA,NA,NA,sub81
d3-animate-choice,249,975317,0.0-76.0-0.38,FALSE,FALSE,FALSE,TRUE,"""event"",""trial"",""time""
""fullscreenenter"",""5"",""26184""
","
","
","""event"",""trial"",""time""
""fullscreenenter"",""5"",""26184""
","
",453.32000000053085,NA,49,NA,NA,3000,1,NA,NA,images/earth.jpg,images/rocket1,images/rocket2,null,images/rocket2,NA,1,real,null,1,NA,NA,NA,sub81
d3-animate-choice,250,977670,0.0-76.0-1.38,FALSE,FALSE,FALSE,TRUE,"""event"",""trial"",""time""
""fullscreenenter"",""5"",""26184""
","
","
","""event"",""trial"",""time""
""fullscreenenter"",""5"",""26184""
","
",346.68500001134817,NA,49,NA,NA,3000,1,NA,NA,images/redplanet1.jpg,images/alien2,images/alien1,images/rocket2,images/alien1,images/t.png,2,real,true,1,common,1,2020-06-16T19:36:47Z,sub81
two-step-fixation,251,978676,0.0-76.0-2.38,FALSE,FALSE,FALSE,TRUE,"""event"",""trial"",""time""
""fullscreenenter"",""5"",""26184""
","
","
","""event"",""trial"",""time""
""fullscreenenter"",""5"",""26184""
","
",NA,images/earth.jpg,NA,NA,NA,NA,NA,NA,NA,NA,NA,NA,NA,NA,NA,fixation,NA,NA,NA,NA,NA,NA,sub81
d3-animate-choice,252,981203,0.0-76.0-0.39,FALSE,FALSE,FALSE,TRUE,"""event"",""trial"",""time""
""fullscreenenter"",""5"",""26184""
","
","
","""event"",""trial"",""time""
""fullscreenenter"",""5"",""26184""
","
",521.5049999969779,NA,49,NA,NA,3000,1,NA,NA,images/earth.jpg,images/rocket1,images/rocket2,null,images/rocket2,NA,1,real,null,1,NA,NA,NA,sub81
d3-animate-choice,253,983676,0.0-76.0-1.39,FALSE,FALSE,FALSE,TRUE,"""event"",""trial"",""time""
""fullscreenenter"",""5"",""26184""
","
","
","""event"",""trial"",""time""
""fullscreenenter"",""5"",""26184""
","
",466.2349999998696,NA,49,NA,NA,3000,1,NA,NA,images/redplanet1.jpg,images/alien2,images/alien1,images/rocket2,images/alien1,images/nothing.png,2,real,true,1,common,0,2020-06-16T19:36:53Z,sub81
two-step-fixation,254,984683,0.0-76.0-2.39,FALSE,FALSE,FALSE,TRUE,"""event"",""trial"",""time""
""fullscreenenter"",""5"",""26184""
","
","
","""event"",""trial"",""time""
""fullscreenenter"",""5"",""26184""
","
",NA,images/earth.jpg,NA,NA,NA,NA,NA,NA,NA,NA,NA,NA,NA,NA,NA,fixation,NA,NA,NA,NA,NA,NA,sub81
d3-animate-choice,255,987058,0.0-76.0-0.40,FALSE,FALSE,FALSE,TRUE,"""event"",""trial"",""time""
""fullscreenenter"",""5"",""26184""
","
","
","""event"",""trial"",""time""
""fullscreenenter"",""5"",""26184""
","
",369.0599999972619,NA,49,NA,NA,3000,1,NA,NA,images/earth.jpg,images/rocket1,images/rocket2,null,images/rocket2,NA,1,real,null,1,NA,NA,NA,sub81
d3-animate-choice,256,989578,0.0-76.0-1.40,FALSE,FALSE,FALSE,TRUE,"""event"",""trial"",""time""
""fullscreenenter"",""5"",""26184""
","
","
","""event"",""trial"",""time""
""fullscreenenter"",""5"",""26184""
","
",513.9849999977741,NA,49,NA,NA,3000,1,NA,NA,images/redplanet1.jpg,images/alien2,images/alien1,images/rocket2,images/alien1,images/t.png,2,real,true,1,common,1,2020-06-16T19:36:59Z,sub81
two-step-fixation,257,990584,0.0-76.0-2.40,FALSE,FALSE,FALSE,TRUE,"""event"",""trial"",""time""
""fullscreenenter"",""5"",""26184""
","
","
","""event"",""trial"",""time""
""fullscreenenter"",""5"",""26184""
","
",NA,images/earth.jpg,NA,NA,NA,NA,NA,NA,NA,NA,NA,NA,NA,NA,NA,fixation,NA,NA,NA,NA,NA,NA,sub81
d3-animate-choice,258,992940,0.0-76.0-0.41,FALSE,FALSE,FALSE,TRUE,"""event"",""trial"",""time""
""fullscreenenter"",""5"",""26184""
","
","
","""event"",""trial"",""time""
""fullscreenenter"",""5"",""26184""
","
",348.68499998992775,NA,48,NA,NA,3000,1,NA,NA,images/earth.jpg,images/rocket1,images/rocket2,null,images/rocket1,NA,1,real,null,2,NA,NA,NA,sub81
d3-animate-choice,259,996007,0.0-76.0-1.41,FALSE,FALSE,FALSE,TRUE,"""event"",""trial"",""time""
""fullscreenenter"",""5"",""26184""
","
","
","""event"",""trial"",""time""
""fullscreenenter"",""5"",""26184""
","
",1059.2999999935273,NA,49,NA,NA,3000,1,NA,NA,images/purpleplanet.jpg,images/alien4,images/alien3,images/rocket1,images/alien3,images/nothing.png,2,real,true,1,common,0,2020-06-16T19:37:06Z,sub81
two-step-fixation,260,997013,0.0-76.0-2.41,FALSE,FALSE,FALSE,TRUE,"""event"",""trial"",""time""
""fullscreenenter"",""5"",""26184""
","
","
","""event"",""trial"",""time""
""fullscreenenter"",""5"",""26184""
","
",NA,images/earth.jpg,NA,NA,NA,NA,NA,NA,NA,NA,NA,NA,NA,NA,NA,fixation,NA,NA,NA,NA,NA,NA,sub81
d3-animate-choice,261,999348,0.0-76.0-0.42,FALSE,FALSE,FALSE,TRUE,"""event"",""trial"",""time""
""fullscreenenter"",""5"",""26184""
","
","
","""event"",""trial"",""time""
""fullscreenenter"",""5"",""26184""
","
",328.4249999996973,NA,49,NA,NA,3000,1,NA,NA,images/earth.jpg,images/rocket1,images/rocket2,null,images/rocket2,NA,1,real,null,1,NA,NA,NA,sub81
d3-animate-choice,262,1002064,0.0-76.0-1.42,FALSE,FALSE,FALSE,TRUE,"""event"",""trial"",""time""
""fullscreenenter"",""5"",""26184""
","
","
","""event"",""trial"",""time""
""fullscreenenter"",""5"",""26184""
","
",708.9449999912176,NA,48,NA,NA,3000,1,NA,NA,images/purpleplanet.jpg,images/alien4,images/alien3,images/rocket2,images/alien4,images/t.png,2,real,false,2,rare,1,2020-06-16T19:37:12Z,sub81
two-step-fixation,263,1003071,0.0-76.0-2.42,FALSE,FALSE,FALSE,TRUE,"""event"",""trial"",""time""
""fullscreenenter"",""5"",""26184""
","
","
","""event"",""trial"",""time""
""fullscreenenter"",""5"",""26184""
","
",NA,images/earth.jpg,NA,NA,NA,NA,NA,NA,NA,NA,NA,NA,NA,NA,NA,fixation,NA,NA,NA,NA,NA,NA,sub81
d3-animate-choice,264,1005467,0.0-76.0-0.43,FALSE,FALSE,FALSE,TRUE,"""event"",""trial"",""time""
""fullscreenenter"",""5"",""26184""
","
","
","""event"",""trial"",""time""
""fullscreenenter"",""5"",""26184""
","
",390.6050000076648,NA,48,NA,NA,3000,1,NA,NA,images/earth.jpg,images/rocket1,images/rocket2,null,images/rocket1,NA,1,real,null,2,NA,NA,NA,sub81
d3-animate-choice,265,1007964,0.0-76.0-1.43,FALSE,FALSE,FALSE,TRUE,"""event"",""trial"",""time""
""fullscreenenter"",""5"",""26184""
","
","
","""event"",""trial"",""time""
""fullscreenenter"",""5"",""26184""
","
",488.8350000111386,NA,48,NA,NA,3000,1,NA,NA,images/purpleplanet.jpg,images/alien4,images/alien3,images/rocket1,images/alien4,images/t.png,2,real,true,2,common,1,2020-06-16T19:37:18Z,sub81
two-step-fixation,266,1008970,0.0-76.0-2.43,FALSE,FALSE,FALSE,TRUE,"""event"",""trial"",""time""
""fullscreenenter"",""5"",""26184""
","
","
","""event"",""trial"",""time""
""fullscreenenter"",""5"",""26184""
","
",NA,images/earth.jpg,NA,NA,NA,NA,NA,NA,NA,NA,NA,NA,NA,NA,NA,fixation,NA,NA,NA,NA,NA,NA,sub81
d3-animate-choice,267,1011303,0.0-76.0-0.44,FALSE,FALSE,FALSE,TRUE,"""event"",""trial"",""time""
""fullscreenenter"",""5"",""26184""
","
","
","""event"",""trial"",""time""
""fullscreenenter"",""5"",""26184""
","
",327.0049999989569,NA,48,NA,NA,3000,1,NA,NA,images/earth.jpg,images/rocket1,images/rocket2,null,images/rocket1,NA,1,real,null,2,NA,NA,NA,sub81
d3-animate-choice,268,1013656,0.0-76.0-1.44,FALSE,FALSE,FALSE,TRUE,"""event"",""trial"",""time""
""fullscreenenter"",""5"",""26184""
","
","
","""event"",""trial"",""time""
""fullscreenenter"",""5"",""26184""
","
",346.3400000038091,NA,48,NA,NA,3000,1,NA,NA,images/purpleplanet.jpg,images/alien4,images/alien3,images/rocket1,images/alien4,images/t.png,2,real,true,2,common,1,2020-06-16T19:37:23Z,sub81
two-step-fixation,269,1014662,0.0-76.0-2.44,FALSE,FALSE,FALSE,TRUE,"""event"",""trial"",""time""
""fullscreenenter"",""5"",""26184""
","
","
","""event"",""trial"",""time""
""fullscreenenter"",""5"",""26184""
","
",NA,images/earth.jpg,NA,NA,NA,NA,NA,NA,NA,NA,NA,NA,NA,NA,NA,fixation,NA,NA,NA,NA,NA,NA,sub81
d3-animate-choice,270,1017028,0.0-76.0-0.45,FALSE,FALSE,FALSE,TRUE,"""event"",""trial"",""time""
""fullscreenenter"",""5"",""26184""
","
","
","""event"",""trial"",""time""
""fullscreenenter"",""5"",""26184""
","
",358.7050000058953,NA,48,NA,NA,3000,1,NA,NA,images/earth.jpg,images/rocket1,images/rocket2,null,images/rocket1,NA,1,real,null,2,NA,NA,NA,sub81
d3-animate-choice,271,1019602,0.0-76.0-1.45,FALSE,FALSE,FALSE,TRUE,"""event"",""trial"",""time""
""fullscreenenter"",""5"",""26184""
","
","
","""event"",""trial"",""time""
""fullscreenenter"",""5"",""26184""
","
",568.8149999913294,NA,48,NA,NA,3000,1,NA,NA,images/purpleplanet.jpg,images/alien4,images/alien3,images/rocket1,images/alien4,images/t.png,2,real,true,2,common,1,2020-06-16T19:37:29Z,sub81
two-step-fixation,272,1020609,0.0-76.0-2.45,FALSE,FALSE,FALSE,TRUE,"""event"",""trial"",""time""
""fullscreenenter"",""5"",""26184""
","
","
","""event"",""trial"",""time""
""fullscreenenter"",""5"",""26184""
","
",NA,images/earth.jpg,NA,NA,NA,NA,NA,NA,NA,NA,NA,NA,NA,NA,NA,fixation,NA,NA,NA,NA,NA,NA,sub81
d3-animate-choice,273,1023101,0.0-76.0-0.46,FALSE,FALSE,FALSE,TRUE,"""event"",""trial"",""time""
""fullscreenenter"",""5"",""26184""
","
","
","""event"",""trial"",""time""
""fullscreenenter"",""5"",""26184""
","
",486.01499998755753,NA,48,NA,NA,3000,1,NA,NA,images/earth.jpg,images/rocket1,images/rocket2,null,images/rocket1,NA,1,real,null,2,NA,NA,NA,sub81
d3-animate-choice,274,1025582,0.0-76.0-1.46,FALSE,FALSE,FALSE,TRUE,"""event"",""trial"",""time""
""fullscreenenter"",""5"",""26184""
","
","
","""event"",""trial"",""time""
""fullscreenenter"",""5"",""26184""
","
",474.2249999982305,NA,48,NA,NA,3000,1,NA,NA,images/purpleplanet.jpg,images/alien4,images/alien3,images/rocket1,images/alien4,images/nothing.png,2,real,true,2,common,0,2020-06-16T19:37:35Z,sub81
two-step-fixation,275,1026589,0.0-76.0-2.46,FALSE,FALSE,FALSE,TRUE,"""event"",""trial"",""time""
""fullscreenenter"",""5"",""26184""
","
","
","""event"",""trial"",""time""
""fullscreenenter"",""5"",""26184""
","
",NA,images/earth.jpg,NA,NA,NA,NA,NA,NA,NA,NA,NA,NA,NA,NA,NA,fixation,NA,NA,NA,NA,NA,NA,sub81
d3-animate-choice,276,1028947,0.0-76.0-0.47,FALSE,FALSE,FALSE,TRUE,"""event"",""trial"",""time""
""fullscreenenter"",""5"",""26184""
","
","
","""event"",""trial"",""time""
""fullscreenenter"",""5"",""26184""
","
",350.584999992745,NA,48,NA,NA,3000,1,NA,NA,images/earth.jpg,images/rocket1,images/rocket2,null,images/rocket1,NA,1,real,null,2,NA,NA,NA,sub81
d3-animate-choice,277,1031435,0.0-76.0-1.47,FALSE,FALSE,FALSE,TRUE,"""event"",""trial"",""time""
""fullscreenenter"",""5"",""26184""
","
","
","""event"",""trial"",""time""
""fullscreenenter"",""5"",""26184""
","
",481.12500000558794,NA,48,NA,NA,3000,1,NA,NA,images/purpleplanet.jpg,images/alien4,images/alien3,images/rocket1,images/alien4,images/nothing.png,2,real,true,2,common,0,2020-06-16T19:37:41Z,sub81
two-step-fixation,278,1032442,0.0-76.0-2.47,FALSE,FALSE,FALSE,TRUE,"""event"",""trial"",""time""
""fullscreenenter"",""5"",""26184""
","
","
","""event"",""trial"",""time""
""fullscreenenter"",""5"",""26184""
","
",NA,images/earth.jpg,NA,NA,NA,NA,NA,NA,NA,NA,NA,NA,NA,NA,NA,fixation,NA,NA,NA,NA,NA,NA,sub81
d3-animate-choice,279,1034919,0.0-76.0-0.48,FALSE,FALSE,FALSE,TRUE,"""event"",""trial"",""time""
""fullscreenenter"",""5"",""26184""
","
","
","""event"",""trial"",""time""
""fullscreenenter"",""5"",""26184""
","
",470.1250000069849,NA,48,NA,NA,3000,1,NA,NA,images/earth.jpg,images/rocket1,images/rocket2,null,images/rocket1,NA,1,real,null,2,NA,NA,NA,sub81
d3-animate-choice,280,1037359,0.0-76.0-1.48,FALSE,FALSE,FALSE,TRUE,"""event"",""trial"",""time""
""fullscreenenter"",""5"",""26184""
","
","
","""event"",""trial"",""time""
""fullscreenenter"",""5"",""26184""
","
",433.79000001004897,NA,48,NA,NA,3000,1,NA,NA,images/purpleplanet.jpg,images/alien4,images/alien3,images/rocket1,images/alien4,images/t.png,2,real,true,2,common,1,2020-06-16T19:37:47Z,sub81
two-step-fixation,281,1038365,0.0-76.0-2.48,FALSE,FALSE,FALSE,TRUE,"""event"",""trial"",""time""
""fullscreenenter"",""5"",""26184""
","
","
","""event"",""trial"",""time""
""fullscreenenter"",""5"",""26184""
","
",NA,images/earth.jpg,NA,NA,NA,NA,NA,NA,NA,NA,NA,NA,NA,NA,NA,fixation,NA,NA,NA,NA,NA,NA,sub81
d3-animate-choice,282,1040721,0.0-76.0-0.49,FALSE,FALSE,FALSE,TRUE,"""event"",""trial"",""time""
""fullscreenenter"",""5"",""26184""
","
","
","""event"",""trial"",""time""
""fullscreenenter"",""5"",""26184""
","
",349.7850000131875,NA,49,NA,NA,3000,1,1525.3150000062305,49,images/earth.jpg,images/rocket1,images/rocket2,null,images/rocket2,NA,1,real,null,1,NA,NA,NA,sub81
