trial_type,trial_index,time_elapsed,internal_node_id,rocket_sides,red_planet_first_rocket,red_display_order,purple_display_order,interactions,blur_events,focus_events,fullscreenenter_events,fullscreenexit_events,rt,stimulus,key_press,button_pressed,success,duration,valid_pressed,rts,keys,planet_text,right_text,left_text,center_text,chosen_text,reward_text,trial_stage,practice_trial,transition_type,choice,transition,reward,timestamp,subject_id
pavlovia,0,7,0.0-0.0,FALSE,FALSE,TRUE,FALSE,"
","
","
","
","
",NA,NA,NA,NA,NA,NA,NA,NA,NA,NA,NA,NA,NA,NA,NA,NA,NA,NA,NA,NA,NA,NA,sub93
html-keyboard-response,1,3496,0.0-1.0,FALSE,FALSE,TRUE,FALSE,"
","
","
","
","
",3486.530000001949,Welcome! Press the space bar to begin.,32,NA,NA,NA,NA,NA,NA,NA,NA,NA,NA,NA,NA,NA,NA,NA,NA,NA,NA,NA,sub93
audio-keyboard-response,2,9575,0.0-2.0,FALSE,FALSE,TRUE,FALSE,"
","
","
","
","
",6072,audio/beep_loop.wav,32,NA,NA,NA,NA,NA,NA,NA,NA,NA,NA,NA,NA,NA,NA,NA,NA,NA,NA,NA,sub93
audio-button-response,3,12886,0.0-3.0,FALSE,FALSE,TRUE,FALSE,"
","
","
","
","
",NaN,audio/fish.mp3,NA,1,NA,NA,NA,NA,NA,NA,NA,NA,NA,NA,NA,NA,NA,NA,NA,NA,NA,NA,sub93
audio-button-response,4,16608,0.0-4.0,FALSE,FALSE,TRUE,FALSE,"""event"",""trial"",""time""
""fullscreenenter"",""5"",""24142""
","
","
","""event"",""trial"",""time""
""fullscreenenter"",""5"",""24142""
","
",NaN,audio/tiger.mp3,NA,4,NA,NA,NA,NA,NA,NA,NA,NA,NA,NA,NA,NA,NA,NA,NA,NA,NA,NA,sub93
fullscreen,5,25125,0.0-5.0,FALSE,FALSE,TRUE,FALSE,"""event"",""trial"",""time""
""fullscreenenter"",""5"",""24142""
","
","
","""event"",""trial"",""time""
""fullscreenenter"",""5"",""24142""
","
",NA,NA,NA,NA,TRUE,NA,NA,NA,NA,NA,NA,NA,NA,NA,NA,NA,NA,NA,NA,NA,NA,NA,sub93
d3-instructions,6,40318,0.0-6.0,FALSE,FALSE,TRUE,FALSE,"""event"",""trial"",""time""
""fullscreenenter"",""5"",""24142""
","
","
","""event"",""trial"",""time""
""fullscreenenter"",""5"",""24142""
","
",NA,NA,NA,NA,NA,NA,NA,NA,NA,NA,NA,NA,NA,NA,NA,NA,NA,NA,NA,NA,NA,NA,sub93
d3-instructions,7,49831,0.0-7.0,FALSE,FALSE,TRUE,FALSE,"""event"",""trial"",""time""
""fullscreenenter"",""5"",""24142""
","
","
","""event"",""trial"",""time""
""fullscreenenter"",""5"",""24142""
","
",NA,NA,NA,NA,NA,NA,NA,NA,NA,NA,NA,NA,NA,NA,NA,NA,NA,NA,NA,NA,NA,NA,sub93
d3-instructions,8,57814,0.0-8.0,FALSE,FALSE,TRUE,FALSE,"""event"",""trial"",""time""
""fullscreenenter"",""5"",""24142""
","
","
","""event"",""trial"",""time""
""fullscreenenter"",""5"",""24142""
","
",NA,NA,NA,NA,NA,NA,NA,NA,NA,NA,NA,NA,NA,NA,NA,NA,NA,NA,NA,NA,NA,NA,sub93
d3-instructions,9,70070,0.0-9.0,FALSE,FALSE,TRUE,FALSE,"""event"",""trial"",""time""
""fullscreenenter"",""5"",""24142""
","
","
","""event"",""trial"",""time""
""fullscreenenter"",""5"",""24142""
","
",NA,NA,NA,NA,NA,NA,NA,NA,NA,NA,NA,NA,NA,NA,NA,NA,NA,NA,NA,NA,NA,NA,sub93
d3-instructions,10,91204,0.0-10.0,FALSE,FALSE,TRUE,FALSE,"""event"",""trial"",""time""
""fullscreenenter"",""5"",""24142""
","
","
","""event"",""trial"",""time""
""fullscreenenter"",""5"",""24142""
","
",NA,NA,NA,NA,NA,NA,NA,NA,NA,NA,NA,NA,NA,NA,NA,NA,NA,NA,NA,NA,NA,NA,sub93
d3-animate-choice,11,100183,0.0-11.0,FALSE,FALSE,TRUE,FALSE,"""event"",""trial"",""time""
""fullscreenenter"",""5"",""24142""
","
","
","""event"",""trial"",""time""
""fullscreenenter"",""5"",""24142""
","
",6973.23999999935,NA,49,NA,NA,3000,1,NA,NA,images/tutgreenplanet.jpg,images/tutalien1,images/tutalien2,null,images/tutalien2,NA,NA,practice,null,NA,NA,NA,NA,sub93
d3-animate-choice,12,104886,0.0-12.0,FALSE,FALSE,TRUE,FALSE,"""event"",""trial"",""time""
""fullscreenenter"",""5"",""24142""
","
","
","""event"",""trial"",""time""
""fullscreenenter"",""5"",""24142""
","
",2699.319999999716,NA,48,NA,NA,3000,1,NA,NA,images/tutgreenplanet.jpg,images/tutalien1,images/tutalien2,null,images/tutalien1,NA,NA,practice,null,NA,NA,NA,NA,sub93
d3-animate-choice,13,111703,0.0-13.0,FALSE,FALSE,TRUE,FALSE,"""event"",""trial"",""time""
""fullscreenenter"",""5"",""24142""
","
","
","""event"",""trial"",""time""
""fullscreenenter"",""5"",""24142""
","
",4809.540000002016,NA,49,NA,NA,3000,1,NA,NA,images/tutgreenplanet.jpg,images/tutalien1,images/tutalien2,null,images/tutalien2,NA,NA,practice,null,NA,NA,NA,NA,sub93
d3-animate-choice,14,114170,0.0-14.0,FALSE,FALSE,TRUE,FALSE,"""event"",""trial"",""time""
""fullscreenenter"",""5"",""24142""
","
","
","""event"",""trial"",""time""
""fullscreenenter"",""5"",""24142""
","
",459.69999999942956,NA,48,NA,NA,3000,1,NA,NA,images/tutgreenplanet.jpg,images/tutalien1,images/tutalien2,null,images/tutalien1,NA,NA,practice,null,NA,NA,NA,NA,sub93
d3-instructions,15,121959,0.0-15.0,FALSE,FALSE,TRUE,FALSE,"""event"",""trial"",""time""
""fullscreenenter"",""5"",""24142""
","
","
","""event"",""trial"",""time""
""fullscreenenter"",""5"",""24142""
","
",NA,NA,NA,NA,NA,NA,NA,NA,NA,NA,NA,NA,NA,NA,NA,NA,NA,NA,NA,NA,NA,NA,sub93
d3-instructions,16,128809,0.0-16.0,FALSE,FALSE,TRUE,FALSE,"""event"",""trial"",""time""
""fullscreenenter"",""5"",""24142""
","
","
","""event"",""trial"",""time""
""fullscreenenter"",""5"",""24142""
","
",NA,NA,NA,NA,NA,NA,NA,NA,NA,NA,NA,NA,NA,NA,NA,NA,NA,NA,NA,NA,NA,NA,sub93
d3-instructions,17,137501,0.0-17.0,FALSE,FALSE,TRUE,FALSE,"""event"",""trial"",""time""
""fullscreenenter"",""5"",""24142""
","
","
","""event"",""trial"",""time""
""fullscreenenter"",""5"",""24142""
","
",NA,NA,NA,NA,NA,NA,NA,NA,NA,NA,NA,NA,NA,NA,NA,NA,NA,NA,NA,NA,NA,NA,sub93
d3-instructions,18,151065,0.0-18.0,FALSE,FALSE,TRUE,FALSE,"""event"",""trial"",""time""
""fullscreenenter"",""5"",""24142""
","
","
","""event"",""trial"",""time""
""fullscreenenter"",""5"",""24142""
","
",NA,NA,NA,NA,NA,NA,NA,NA,NA,NA,NA,NA,NA,NA,NA,NA,NA,NA,NA,NA,NA,NA,sub93
d3-instructions,19,165946,0.0-19.0,FALSE,FALSE,TRUE,FALSE,"""event"",""trial"",""time""
""fullscreenenter"",""5"",""24142""
","
","
","""event"",""trial"",""time""
""fullscreenenter"",""5"",""24142""
","
",NA,NA,NA,NA,NA,NA,NA,NA,NA,NA,NA,NA,NA,NA,NA,NA,NA,NA,NA,NA,NA,NA,sub93
d3-animate-choice,20,170670,0.0-20.0,FALSE,FALSE,TRUE,FALSE,"""event"",""trial"",""time""
""fullscreenenter"",""5"",""24142""
","
","
","""event"",""trial"",""time""
""fullscreenenter"",""5"",""24142""
","
",2717.495000004419,NA,49,NA,NA,3000,1,NA,NA,images/tutyellowplanet.jpg,null,images/tutalien3,null,images/tutalien3,images/t.png,NA,practice,null,NA,NA,NA,NA,sub93
d3-animate-choice,21,173222,0.0-21.0,FALSE,FALSE,TRUE,FALSE,"""event"",""trial"",""time""
""fullscreenenter"",""5"",""24142""
","
","
","""event"",""trial"",""time""
""fullscreenenter"",""5"",""24142""
","
",545.5349999974715,NA,49,NA,NA,3000,1,2401.9249999983003,49,images/tutyellowplanet.jpg,null,images/tutalien3,null,images/tutalien3,images/t.png,NA,practice,null,NA,NA,NA,NA,sub93
d3-animate-choice,22,176031,0.0-22.0,FALSE,FALSE,TRUE,FALSE,"""event"",""trial"",""time""
""fullscreenenter"",""5"",""24142""
","
","
","""event"",""trial"",""time""
""fullscreenenter"",""5"",""24142""
","
",806.0949999999139,NA,49,NA,NA,3000,1,NA,NA,images/tutyellowplanet.jpg,null,images/tutalien3,null,images/tutalien3,images/t.png,NA,practice,null,NA,NA,NA,NA,sub93
d3-animate-choice,23,179087,0.0-23.0,FALSE,FALSE,TRUE,FALSE,"""event"",""trial"",""time""
""fullscreenenter"",""5"",""24142""
","
","
","""event"",""trial"",""time""
""fullscreenenter"",""5"",""24142""
","
",283.9949999979581,NA,13,NA,NA,3000,1,1048.495000002731,49,images/tutyellowplanet.jpg,null,images/tutalien3,null,images/tutalien3,images/t.png,NA,practice,null,NA,NA,NA,NA,sub93
d3-animate-choice,24,184102,0.0-24.0,FALSE,FALSE,TRUE,FALSE,"""event"",""trial"",""time""
""fullscreenenter"",""5"",""24142""
","
","
","""event"",""trial"",""time""
""fullscreenenter"",""5"",""24142""
","
",3010.8199999958742,NA,49,NA,NA,3000,1,NA,NA,images/tutyellowplanet.jpg,null,images/tutalien3,null,images/tutalien3,images/t.png,NA,practice,null,NA,NA,NA,NA,sub93
d3-animate-choice,25,186664,0.0-25.0,FALSE,FALSE,TRUE,FALSE,"""event"",""trial"",""time""
""fullscreenenter"",""5"",""24142""
","
","
","""event"",""trial"",""time""
""fullscreenenter"",""5"",""24142""
","
",556.3099999999395,NA,49,NA,NA,3000,1,NA,NA,images/tutyellowplanet.jpg,null,images/tutalien3,null,images/tutalien3,images/t.png,NA,practice,null,NA,NA,NA,NA,sub93
d3-animate-choice,26,189372,0.0-26.0,FALSE,FALSE,TRUE,FALSE,"""event"",""trial"",""time""
""fullscreenenter"",""5"",""24142""
","
","
","""event"",""trial"",""time""
""fullscreenenter"",""5"",""24142""
","
",705.3749999977299,NA,49,NA,NA,3000,1,NA,NA,images/tutyellowplanet.jpg,null,images/tutalien3,null,images/tutalien3,images/nothing.png,NA,practice,null,NA,NA,NA,NA,sub93
d3-animate-choice,27,192734,0.0-27.0,FALSE,FALSE,TRUE,FALSE,"""event"",""trial"",""time""
""fullscreenenter"",""5"",""24142""
","
","
","""event"",""trial"",""time""
""fullscreenenter"",""5"",""24142""
","
",1357.2100000019418,NA,49,NA,NA,3000,1,NA,NA,images/tutyellowplanet.jpg,null,images/tutalien3,null,images/tutalien3,images/t.png,NA,practice,null,NA,NA,NA,NA,sub93
d3-animate-choice,28,195377,0.0-28.0,FALSE,FALSE,TRUE,FALSE,"""event"",""trial"",""time""
""fullscreenenter"",""5"",""24142""
","
","
","""event"",""trial"",""time""
""fullscreenenter"",""5"",""24142""
","
",637.0200000019395,NA,49,NA,NA,3000,1,NA,NA,images/tutyellowplanet.jpg,null,images/tutalien3,null,images/tutalien3,images/nothing.png,NA,practice,null,NA,NA,NA,NA,sub93
d3-animate-choice,29,198013,0.0-29.0,FALSE,FALSE,TRUE,FALSE,"""event"",""trial"",""time""
""fullscreenenter"",""5"",""24142""
","
","
","""event"",""trial"",""time""
""fullscreenenter"",""5"",""24142""
","
",629.8400000014226,NA,49,NA,NA,3000,1,NA,NA,images/tutyellowplanet.jpg,null,images/tutalien3,null,images/tutalien3,images/t.png,NA,practice,null,NA,NA,NA,NA,sub93
d3-instructions,30,205952,0.0-30.0,FALSE,FALSE,TRUE,FALSE,"""event"",""trial"",""time""
""fullscreenenter"",""5"",""24142""
","
","
","""event"",""trial"",""time""
""fullscreenenter"",""5"",""24142""
","
",NA,NA,NA,NA,NA,NA,NA,NA,NA,NA,NA,NA,NA,NA,NA,NA,NA,NA,NA,NA,NA,NA,sub93
d3-instructions,31,215827,0.0-31.0,FALSE,FALSE,TRUE,FALSE,"""event"",""trial"",""time""
""fullscreenenter"",""5"",""24142""
","
","
","""event"",""trial"",""time""
""fullscreenenter"",""5"",""24142""
","
",NA,NA,NA,NA,NA,NA,NA,NA,NA,NA,NA,NA,NA,NA,NA,NA,NA,NA,NA,NA,NA,NA,sub93
d3-instructions,32,223465,0.0-32.0,FALSE,FALSE,TRUE,FALSE,"""event"",""trial"",""time""
""fullscreenenter"",""5"",""24142""
","
","
","""event"",""trial"",""time""
""fullscreenenter"",""5"",""24142""
","
",NA,NA,NA,NA,NA,NA,NA,NA,NA,NA,NA,NA,NA,NA,NA,NA,NA,NA,NA,NA,NA,NA,sub93
d3-instructions,33,234884,0.0-33.0,FALSE,FALSE,TRUE,FALSE,"""event"",""trial"",""time""
""fullscreenenter"",""5"",""24142""
","
","
","""event"",""trial"",""time""
""fullscreenenter"",""5"",""24142""
","
",NA,NA,NA,NA,NA,NA,NA,NA,NA,NA,NA,NA,NA,NA,NA,NA,NA,NA,NA,NA,NA,NA,sub93
d3-animate-choice,34,239866,0.0-34.0,FALSE,FALSE,TRUE,FALSE,"""event"",""trial"",""time""
""fullscreenenter"",""5"",""24142""
","
","
","""event"",""trial"",""time""
""fullscreenenter"",""5"",""24142""
","
",2976.6400000007707,NA,49,NA,NA,3000,1,NA,NA,images/tutgreenplanet.jpg,images/tutalien1,images/tutalien2,null,images/tutalien2,images/t.png,NA,practice,null,NA,NA,NA,NA,sub93
d3-animate-choice,35,244657,0.0-35.0,FALSE,FALSE,TRUE,FALSE,"""event"",""trial"",""time""
""fullscreenenter"",""5"",""24142""
","
","
","""event"",""trial"",""time""
""fullscreenenter"",""5"",""24142""
","
",2787.4050000027637,NA,49,NA,NA,3000,1,NA,NA,images/tutgreenplanet.jpg,images/tutalien1,images/tutalien2,null,images/tutalien2,images/t.png,NA,practice,null,NA,NA,NA,NA,sub93
d3-animate-choice,36,247083,0.0-36.0,FALSE,FALSE,TRUE,FALSE,"""event"",""trial"",""time""
""fullscreenenter"",""5"",""24142""
","
","
","""event"",""trial"",""time""
""fullscreenenter"",""5"",""24142""
","
",420.734999999695,NA,48,NA,NA,3000,1,NA,NA,images/tutgreenplanet.jpg,images/tutalien1,images/tutalien2,null,images/tutalien1,images/nothing.png,NA,practice,null,NA,NA,NA,NA,sub93
d3-animate-choice,37,249599,0.0-37.0,FALSE,FALSE,TRUE,FALSE,"""event"",""trial"",""time""
""fullscreenenter"",""5"",""24142""
","
","
","""event"",""trial"",""time""
""fullscreenenter"",""5"",""24142""
","
",510.3649999946356,NA,49,NA,NA,3000,1,NA,NA,images/tutgreenplanet.jpg,images/tutalien1,images/tutalien2,null,images/tutalien2,images/t.png,NA,practice,null,NA,NA,NA,NA,sub93
d3-animate-choice,38,252071,0.0-38.0,FALSE,FALSE,TRUE,FALSE,"""event"",""trial"",""time""
""fullscreenenter"",""5"",""24142""
","
","
","""event"",""trial"",""time""
""fullscreenenter"",""5"",""24142""
","
",464.4400000033784,NA,48,NA,NA,3000,1,NA,NA,images/tutgreenplanet.jpg,images/tutalien1,images/tutalien2,null,images/tutalien1,images/nothing.png,NA,practice,null,NA,NA,NA,NA,sub93
d3-animate-choice,39,254529,0.0-39.0,FALSE,FALSE,TRUE,FALSE,"""event"",""trial"",""time""
""fullscreenenter"",""5"",""24142""
","
","
","""event"",""trial"",""time""
""fullscreenenter"",""5"",""24142""
","
",451.60999999643536,NA,49,NA,NA,3000,1,NA,NA,images/tutgreenplanet.jpg,images/tutalien1,images/tutalien2,null,images/tutalien2,images/t.png,NA,practice,null,NA,NA,NA,NA,sub93
d3-animate-choice,40,257065,0.0-40.0,FALSE,FALSE,TRUE,FALSE,"""event"",""trial"",""time""
""fullscreenenter"",""5"",""24142""
","
","
","""event"",""trial"",""time""
""fullscreenenter"",""5"",""24142""
","
",529.1849999994156,NA,49,NA,NA,3000,1,NA,NA,images/tutgreenplanet.jpg,images/tutalien1,images/tutalien2,null,images/tutalien2,images/t.png,NA,practice,null,NA,NA,NA,NA,sub93
d3-animate-choice,41,260137,0.0-41.0,FALSE,FALSE,TRUE,FALSE,"""event"",""trial"",""time""
""fullscreenenter"",""5"",""24142""
","
","
","""event"",""trial"",""time""
""fullscreenenter"",""5"",""24142""
","
",1065.985000001092,NA,48,NA,NA,3000,1,NA,NA,images/tutgreenplanet.jpg,images/tutalien1,images/tutalien2,null,images/tutalien1,images/nothing.png,NA,practice,null,NA,NA,NA,NA,sub93
d3-animate-choice,42,262670,0.0-42.0,FALSE,FALSE,TRUE,FALSE,"""event"",""trial"",""time""
""fullscreenenter"",""5"",""24142""
","
","
","""event"",""trial"",""time""
""fullscreenenter"",""5"",""24142""
","
",525.9850000002189,NA,49,NA,NA,3000,1,NA,NA,images/tutgreenplanet.jpg,images/tutalien1,images/tutalien2,null,images/tutalien2,images/nothing.png,NA,practice,null,NA,NA,NA,NA,sub93
d3-animate-choice,43,265173,0.0-43.0,FALSE,FALSE,TRUE,FALSE,"""event"",""trial"",""time""
""fullscreenenter"",""5"",""24142""
","
","
","""event"",""trial"",""time""
""fullscreenenter"",""5"",""24142""
","
",499.14500000159023,NA,48,NA,NA,3000,1,NA,NA,images/tutgreenplanet.jpg,images/tutalien1,images/tutalien2,null,images/tutalien1,images/nothing.png,NA,practice,null,NA,NA,NA,NA,sub93
d3-instructions,44,277902,0.0-44.0,FALSE,FALSE,TRUE,FALSE,"""event"",""trial"",""time""
""fullscreenenter"",""5"",""24142""
","
","
","""event"",""trial"",""time""
""fullscreenenter"",""5"",""24142""
","
",NA,NA,NA,NA,NA,NA,NA,NA,NA,NA,NA,NA,NA,NA,NA,NA,NA,NA,NA,NA,NA,NA,sub93
d3-instructions,45,283961,0.0-45.0,FALSE,FALSE,TRUE,FALSE,"""event"",""trial"",""time""
""fullscreenenter"",""5"",""24142""
","
","
","""event"",""trial"",""time""
""fullscreenenter"",""5"",""24142""
","
",NA,NA,NA,NA,NA,NA,NA,NA,NA,NA,NA,NA,NA,NA,NA,NA,NA,NA,NA,NA,NA,NA,sub93
d3-instructions,46,290662,0.0-46.0,FALSE,FALSE,TRUE,FALSE,"""event"",""trial"",""time""
""fullscreenenter"",""5"",""24142""
","
","
","""event"",""trial"",""time""
""fullscreenenter"",""5"",""24142""
","
",NA,NA,NA,NA,NA,NA,NA,NA,NA,NA,NA,NA,NA,NA,NA,NA,NA,NA,NA,NA,NA,NA,sub93
d3-instructions,47,308362,0.0-47.0,FALSE,FALSE,TRUE,FALSE,"""event"",""trial"",""time""
""fullscreenenter"",""5"",""24142""
","
","
","""event"",""trial"",""time""
""fullscreenenter"",""5"",""24142""
","
",NA,NA,NA,NA,NA,NA,NA,NA,NA,NA,NA,NA,NA,NA,NA,NA,NA,NA,NA,NA,NA,NA,sub93
d3-instructions,48,315066,0.0-48.0,FALSE,FALSE,TRUE,FALSE,"""event"",""trial"",""time""
""fullscreenenter"",""5"",""24142""
","
","
","""event"",""trial"",""time""
""fullscreenenter"",""5"",""24142""
","
",NA,NA,NA,NA,NA,NA,NA,NA,NA,NA,NA,NA,NA,NA,NA,NA,NA,NA,NA,NA,NA,NA,sub93
d3-instructions,49,327054,0.0-49.0,FALSE,FALSE,TRUE,FALSE,"""event"",""trial"",""time""
""fullscreenenter"",""5"",""24142""
","
","
","""event"",""trial"",""time""
""fullscreenenter"",""5"",""24142""
","
",NA,NA,NA,NA,NA,NA,NA,NA,NA,NA,NA,NA,NA,NA,NA,NA,NA,NA,NA,NA,NA,NA,sub93
d3-instructions,50,335956,0.0-50.0,FALSE,FALSE,TRUE,FALSE,"""event"",""trial"",""time""
""fullscreenenter"",""5"",""24142""
","
","
","""event"",""trial"",""time""
""fullscreenenter"",""5"",""24142""
","
",NA,NA,NA,NA,NA,NA,NA,NA,NA,NA,NA,NA,NA,NA,NA,NA,NA,NA,NA,NA,NA,NA,sub93
d3-instructions,51,338837,0.0-51.0,FALSE,FALSE,TRUE,FALSE,"""event"",""trial"",""time""
""fullscreenenter"",""5"",""24142""
","
","
","""event"",""trial"",""time""
""fullscreenenter"",""5"",""24142""
","
",NA,NA,NA,NA,NA,NA,NA,NA,NA,NA,NA,NA,NA,NA,NA,NA,NA,NA,NA,NA,NA,NA,sub93
d3-instructions,52,341440,0.0-52.0,FALSE,FALSE,TRUE,FALSE,"""event"",""trial"",""time""
""fullscreenenter"",""5"",""24142""
","
","
","""event"",""trial"",""time""
""fullscreenenter"",""5"",""24142""
","
",NA,NA,NA,NA,NA,NA,NA,NA,NA,NA,NA,NA,NA,NA,NA,NA,NA,NA,NA,NA,NA,NA,sub93
d3-instructions,53,355527,0.0-53.0,FALSE,FALSE,TRUE,FALSE,"""event"",""trial"",""time""
""fullscreenenter"",""5"",""24142""
","
","
","""event"",""trial"",""time""
""fullscreenenter"",""5"",""24142""
","
",NA,NA,NA,NA,NA,NA,NA,NA,NA,NA,NA,NA,NA,NA,NA,NA,NA,NA,NA,NA,NA,NA,sub93
d3-instructions,54,368367,0.0-54.0,FALSE,FALSE,TRUE,FALSE,"""event"",""trial"",""time""
""fullscreenenter"",""5"",""24142""
","
","
","""event"",""trial"",""time""
""fullscreenenter"",""5"",""24142""
","
",NA,NA,NA,NA,NA,NA,NA,NA,NA,NA,NA,NA,NA,NA,NA,NA,NA,NA,NA,NA,NA,NA,sub93
d3-instructions,55,378859,0.0-55.0,FALSE,FALSE,TRUE,FALSE,"""event"",""trial"",""time""
""fullscreenenter"",""5"",""24142""
","
","
","""event"",""trial"",""time""
""fullscreenenter"",""5"",""24142""
","
",NA,NA,NA,NA,NA,NA,NA,NA,NA,NA,NA,NA,NA,NA,NA,NA,NA,NA,NA,NA,NA,NA,sub93
d3-instructions,56,387303,0.0-56.0,FALSE,FALSE,TRUE,FALSE,"""event"",""trial"",""time""
""fullscreenenter"",""5"",""24142""
","
","
","""event"",""trial"",""time""
""fullscreenenter"",""5"",""24142""
","
",NA,NA,NA,NA,NA,NA,NA,NA,NA,NA,NA,NA,NA,NA,NA,NA,NA,NA,NA,NA,NA,NA,sub93
d3-instructions,57,396892,0.0-57.0,FALSE,FALSE,TRUE,FALSE,"""event"",""trial"",""time""
""fullscreenenter"",""5"",""24142""
","
","
","""event"",""trial"",""time""
""fullscreenenter"",""5"",""24142""
","
",NA,NA,NA,NA,NA,NA,NA,NA,NA,NA,NA,NA,NA,NA,NA,NA,NA,NA,NA,NA,NA,NA,sub93
d3-instructions,58,408718,0.0-58.0,FALSE,FALSE,TRUE,FALSE,"""event"",""trial"",""time""
""fullscreenenter"",""5"",""24142""
","
","
","""event"",""trial"",""time""
""fullscreenenter"",""5"",""24142""
","
",NA,NA,NA,NA,NA,NA,NA,NA,NA,NA,NA,NA,NA,NA,NA,NA,NA,NA,NA,NA,NA,NA,sub93
d3-instructions,59,414042,0.0-59.0,FALSE,FALSE,TRUE,FALSE,"""event"",""trial"",""time""
""fullscreenenter"",""5"",""24142""
","
","
","""event"",""trial"",""time""
""fullscreenenter"",""5"",""24142""
","
",NA,NA,NA,NA,NA,NA,NA,NA,NA,NA,NA,NA,NA,NA,NA,NA,NA,NA,NA,NA,NA,NA,sub93
d3-instructions,60,420925,0.0-60.0,FALSE,FALSE,TRUE,FALSE,"""event"",""trial"",""time""
""fullscreenenter"",""5"",""24142""
","
","
","""event"",""trial"",""time""
""fullscreenenter"",""5"",""24142""
","
",NA,NA,NA,NA,NA,NA,NA,NA,NA,NA,NA,NA,NA,NA,NA,NA,NA,NA,NA,NA,NA,NA,sub93
d3-animate-choice,61,424930,0.0-61.0-0.0,FALSE,FALSE,TRUE,FALSE,"""event"",""trial"",""time""
""fullscreenenter"",""5"",""24142""
","
","
","""event"",""trial"",""time""
""fullscreenenter"",""5"",""24142""
","
",2919.01499999949,NA,48,NA,NA,3000,1,NA,NA,images/earth.jpg,images/tutrocket2,images/tutrocket1,null,images/tutrocket2,NA,1,practice,null,2,NA,NA,NA,sub93
d3-animate-choice,62,428940,0.0-61.0-1.0,FALSE,FALSE,TRUE,FALSE,"""event"",""trial"",""time""
""fullscreenenter"",""5"",""24142""
","
","
","""event"",""trial"",""time""
""fullscreenenter"",""5"",""24142""
","
",3971.975000000384,NA,49,NA,NA,3000,0,NA,NA,images/tutyellowplanet.jpg,images/tutalien4,images/tutalien3,images/tutrocket2,NA,NA,2,practice,false,1,rare,0,2020-06-26T18:02:47Z,sub93
two-step-fixation,63,429946,0.0-61.0-2.0,FALSE,FALSE,TRUE,FALSE,"""event"",""trial"",""time""
""fullscreenenter"",""5"",""24142""
","
","
","""event"",""trial"",""time""
""fullscreenenter"",""5"",""24142""
","
",NA,images/earth.jpg,NA,NA,NA,NA,NA,NA,NA,NA,NA,NA,NA,NA,NA,fixation,NA,NA,NA,NA,NA,NA,sub93
d3-animate-choice,64,433952,0.0-61.0-0.1,FALSE,FALSE,TRUE,FALSE,"""event"",""trial"",""time""
""fullscreenenter"",""5"",""24142""
","
","
","""event"",""trial"",""time""
""fullscreenenter"",""5"",""24142""
","
",null,NA,null,NA,NA,3000,0,NA,NA,images/earth.jpg,images/tutrocket2,images/tutrocket1,null,NA,NA,1,practice,null,NA,NA,NA,NA,sub93
d3-animate-choice,65,434961,0.0-61.0-1.1,FALSE,FALSE,TRUE,FALSE,"""event"",""trial"",""time""
""fullscreenenter"",""5"",""24142""
","
","
","""event"",""trial"",""time""
""fullscreenenter"",""5"",""24142""
","
",null,NA,null,NA,NA,0,0,NA,NA,images/earth.jpg,images/tutrocket2,images/tutrocket1,null,NA,NA,2,practice,null,NA,NA,0,2020-06-26T18:02:53Z,sub93
two-step-fixation,66,435966,0.0-61.0-2.1,FALSE,FALSE,TRUE,FALSE,"""event"",""trial"",""time""
""fullscreenenter"",""5"",""24142""
","
","
","""event"",""trial"",""time""
""fullscreenenter"",""5"",""24142""
","
",NA,images/earth.jpg,NA,NA,NA,NA,NA,NA,NA,NA,NA,NA,NA,NA,NA,fixation,NA,NA,NA,NA,NA,NA,sub93
d3-animate-choice,67,438589,0.0-61.0-0.2,FALSE,FALSE,TRUE,FALSE,"""event"",""trial"",""time""
""fullscreenenter"",""5"",""24142""
","
","
","""event"",""trial"",""time""
""fullscreenenter"",""5"",""24142""
","
",618.5900000054971,NA,48,NA,NA,3000,1,NA,NA,images/earth.jpg,images/tutrocket2,images/tutrocket1,null,images/tutrocket2,NA,1,practice,null,2,NA,NA,NA,sub93
d3-animate-choice,68,442592,0.0-61.0-1.2,FALSE,FALSE,TRUE,FALSE,"""event"",""trial"",""time""
""fullscreenenter"",""5"",""24142""
","
","
","""event"",""trial"",""time""
""fullscreenenter"",""5"",""24142""
","
",3429.580000003625,NA,49,NA,NA,3000,0,NA,NA,images/tutgreenplanet.jpg,images/tutalien2,images/tutalien1,images/tutrocket2,NA,NA,2,practice,true,1,common,0,2020-06-26T18:03:00Z,sub93
two-step-fixation,69,443597,0.0-61.0-2.2,FALSE,FALSE,TRUE,FALSE,"""event"",""trial"",""time""
""fullscreenenter"",""5"",""24142""
","
","
","""event"",""trial"",""time""
""fullscreenenter"",""5"",""24142""
","
",NA,images/earth.jpg,NA,NA,NA,NA,NA,NA,NA,NA,NA,NA,NA,NA,NA,fixation,NA,NA,NA,NA,NA,NA,sub93
d3-animate-choice,70,447055,0.0-61.0-0.3,FALSE,FALSE,TRUE,FALSE,"""event"",""trial"",""time""
""fullscreenenter"",""5"",""24142""
","
","
","""event"",""trial"",""time""
""fullscreenenter"",""5"",""24142""
","
",1450.8950000017649,NA,49,NA,NA,3000,1,NA,NA,images/earth.jpg,images/tutrocket2,images/tutrocket1,null,images/tutrocket1,NA,1,practice,null,1,NA,NA,NA,sub93
d3-animate-choice,71,449597,0.0-61.0-1.3,FALSE,FALSE,TRUE,FALSE,"""event"",""trial"",""time""
""fullscreenenter"",""5"",""24142""
","
","
","""event"",""trial"",""time""
""fullscreenenter"",""5"",""24142""
","
",534.220000001369,NA,49,NA,NA,3000,1,NA,NA,images/tutyellowplanet.jpg,images/tutalien4,images/tutalien3,images/tutrocket1,images/tutalien3,images/t.png,2,practice,true,1,common,1,2020-06-26T18:03:07Z,sub93
two-step-fixation,72,450601,0.0-61.0-2.3,FALSE,FALSE,TRUE,FALSE,"""event"",""trial"",""time""
""fullscreenenter"",""5"",""24142""
","
","
","""event"",""trial"",""time""
""fullscreenenter"",""5"",""24142""
","
",NA,images/earth.jpg,NA,NA,NA,NA,NA,NA,NA,NA,NA,NA,NA,NA,NA,fixation,NA,NA,NA,NA,NA,NA,sub93
d3-animate-choice,73,453456,0.0-61.0-0.4,FALSE,FALSE,TRUE,FALSE,"""event"",""trial"",""time""
""fullscreenenter"",""5"",""24142""
","
","
","""event"",""trial"",""time""
""fullscreenenter"",""5"",""24142""
","
",847.9650000008405,NA,48,NA,NA,3000,1,NA,NA,images/earth.jpg,images/tutrocket2,images/tutrocket1,null,images/tutrocket2,NA,1,practice,null,2,NA,NA,NA,sub93
d3-animate-choice,74,455996,0.0-61.0-1.4,FALSE,FALSE,TRUE,FALSE,"""event"",""trial"",""time""
""fullscreenenter"",""5"",""24142""
","
","
","""event"",""trial"",""time""
""fullscreenenter"",""5"",""24142""
","
",532.5950000042212,NA,49,NA,NA,3000,1,NA,NA,images/tutgreenplanet.jpg,images/tutalien2,images/tutalien1,images/tutrocket2,images/tutalien1,images/nothing.png,2,practice,true,1,common,0,2020-06-26T18:03:14Z,sub93
two-step-fixation,75,457004,0.0-61.0-2.4,FALSE,FALSE,TRUE,FALSE,"""event"",""trial"",""time""
""fullscreenenter"",""5"",""24142""
","
","
","""event"",""trial"",""time""
""fullscreenenter"",""5"",""24142""
","
",NA,images/earth.jpg,NA,NA,NA,NA,NA,NA,NA,NA,NA,NA,NA,NA,NA,fixation,NA,NA,NA,NA,NA,NA,sub93
d3-animate-choice,76,459488,0.0-61.0-0.5,FALSE,FALSE,TRUE,FALSE,"""event"",""trial"",""time""
""fullscreenenter"",""5"",""24142""
","
","
","""event"",""trial"",""time""
""fullscreenenter"",""5"",""24142""
","
",478.3499999975902,NA,48,NA,NA,3000,1,NA,NA,images/earth.jpg,images/tutrocket2,images/tutrocket1,null,images/tutrocket2,NA,1,practice,null,2,NA,NA,NA,sub93
d3-animate-choice,77,462211,0.0-61.0-1.5,FALSE,FALSE,TRUE,FALSE,"""event"",""trial"",""time""
""fullscreenenter"",""5"",""24142""
","
","
","""event"",""trial"",""time""
""fullscreenenter"",""5"",""24142""
","
",715.7000000006519,NA,48,NA,NA,3000,1,NA,NA,images/tutgreenplanet.jpg,images/tutalien2,images/tutalien1,images/tutrocket2,images/tutalien2,images/nothing.png,2,practice,true,2,common,0,2020-06-26T18:03:20Z,sub93
two-step-fixation,78,463218,0.0-61.0-2.5,FALSE,FALSE,TRUE,FALSE,"""event"",""trial"",""time""
""fullscreenenter"",""5"",""24142""
","
","
","""event"",""trial"",""time""
""fullscreenenter"",""5"",""24142""
","
",NA,images/earth.jpg,NA,NA,NA,NA,NA,NA,NA,NA,NA,NA,NA,NA,NA,fixation,NA,NA,NA,NA,NA,NA,sub93
d3-animate-choice,79,465566,0.0-61.0-0.6,FALSE,FALSE,TRUE,FALSE,"""event"",""trial"",""time""
""fullscreenenter"",""5"",""24142""
","
","
","""event"",""trial"",""time""
""fullscreenenter"",""5"",""24142""
","
",343.2650000031572,NA,49,NA,NA,3000,1,994.3550000025425,49,images/earth.jpg,images/tutrocket2,images/tutrocket1,null,images/tutrocket1,NA,1,practice,null,1,NA,NA,NA,sub93
d3-animate-choice,80,468125,0.0-61.0-1.6,FALSE,FALSE,TRUE,FALSE,"""event"",""trial"",""time""
""fullscreenenter"",""5"",""24142""
","
","
","""event"",""trial"",""time""
""fullscreenenter"",""5"",""24142""
","
",553.4950000001118,NA,49,NA,NA,3000,1,NA,NA,images/tutyellowplanet.jpg,images/tutalien4,images/tutalien3,images/tutrocket1,images/tutalien3,images/nothing.png,2,practice,true,1,common,0,2020-06-26T18:03:26Z,sub93
two-step-fixation,81,469130,0.0-61.0-2.6,FALSE,FALSE,TRUE,FALSE,"""event"",""trial"",""time""
""fullscreenenter"",""5"",""24142""
","
","
","""event"",""trial"",""time""
""fullscreenenter"",""5"",""24142""
","
",NA,images/earth.jpg,NA,NA,NA,NA,NA,NA,NA,NA,NA,NA,NA,NA,NA,fixation,NA,NA,NA,NA,NA,NA,sub93
d3-animate-choice,82,471632,0.0-61.0-0.7,FALSE,FALSE,TRUE,FALSE,"""event"",""trial"",""time""
""fullscreenenter"",""5"",""24142""
","
","
","""event"",""trial"",""time""
""fullscreenenter"",""5"",""24142""
","
",498.48999999812804,NA,48,NA,NA,3000,1,NA,NA,images/earth.jpg,images/tutrocket2,images/tutrocket1,null,images/tutrocket2,NA,1,practice,null,2,NA,NA,NA,sub93
d3-animate-choice,83,474137,0.0-61.0-1.7,FALSE,FALSE,TRUE,FALSE,"""event"",""trial"",""time""
""fullscreenenter"",""5"",""24142""
","
","
","""event"",""trial"",""time""
""fullscreenenter"",""5"",""24142""
","
",499.7000000003027,NA,49,NA,NA,3000,1,NA,NA,images/tutyellowplanet.jpg,images/tutalien4,images/tutalien3,images/tutrocket2,images/tutalien3,images/nothing.png,2,practice,false,1,rare,0,2020-06-26T18:03:32Z,sub93
two-step-fixation,84,475144,0.0-61.0-2.7,FALSE,FALSE,TRUE,FALSE,"""event"",""trial"",""time""
""fullscreenenter"",""5"",""24142""
","
","
","""event"",""trial"",""time""
""fullscreenenter"",""5"",""24142""
","
",NA,images/earth.jpg,NA,NA,NA,NA,NA,NA,NA,NA,NA,NA,NA,NA,NA,fixation,NA,NA,NA,NA,NA,NA,sub93
d3-animate-choice,85,477581,0.0-61.0-0.8,FALSE,FALSE,TRUE,FALSE,"""event"",""trial"",""time""
""fullscreenenter"",""5"",""24142""
","
","
","""event"",""trial"",""time""
""fullscreenenter"",""5"",""24142""
","
",432.8449999957229,NA,48,NA,NA,3000,1,NA,NA,images/earth.jpg,images/tutrocket2,images/tutrocket1,null,images/tutrocket2,NA,1,practice,null,2,NA,NA,NA,sub93
d3-animate-choice,86,480164,0.0-61.0-1.8,FALSE,FALSE,TRUE,FALSE,"""event"",""trial"",""time""
""fullscreenenter"",""5"",""24142""
","
","
","""event"",""trial"",""time""
""fullscreenenter"",""5"",""24142""
","
",576.3000000006286,NA,48,NA,NA,3000,1,NA,NA,images/tutyellowplanet.jpg,images/tutalien4,images/tutalien3,images/tutrocket2,images/tutalien4,images/t.png,2,practice,false,2,rare,1,2020-06-26T18:03:38Z,sub93
two-step-fixation,87,481169,0.0-61.0-2.8,FALSE,FALSE,TRUE,FALSE,"""event"",""trial"",""time""
""fullscreenenter"",""5"",""24142""
","
","
","""event"",""trial"",""time""
""fullscreenenter"",""5"",""24142""
","
",NA,images/earth.jpg,NA,NA,NA,NA,NA,NA,NA,NA,NA,NA,NA,NA,NA,fixation,NA,NA,NA,NA,NA,NA,sub93
d3-animate-choice,88,485173,0.0-61.0-0.9,FALSE,FALSE,TRUE,FALSE,"""event"",""trial"",""time""
""fullscreenenter"",""5"",""24142""
","
","
","""event"",""trial"",""time""
""fullscreenenter"",""5"",""24142""
","
",2658.56000000349,NA,49,NA,NA,3000,1,NA,NA,images/earth.jpg,images/tutrocket2,images/tutrocket1,null,images/tutrocket1,NA,1,practice,null,1,NA,NA,NA,sub93
d3-animate-choice,89,487707,0.0-61.0-1.9,FALSE,FALSE,TRUE,FALSE,"""event"",""trial"",""time""
""fullscreenenter"",""5"",""24142""
","
","
","""event"",""trial"",""time""
""fullscreenenter"",""5"",""24142""
","
",526.7000000021653,NA,48,NA,NA,3000,1,NA,NA,images/tutgreenplanet.jpg,images/tutalien2,images/tutalien1,images/tutrocket1,images/tutalien2,images/nothing.png,2,practice,false,2,rare,0,2020-06-26T18:03:45Z,sub93
two-step-fixation,90,488715,0.0-61.0-2.9,FALSE,FALSE,TRUE,FALSE,"""event"",""trial"",""time""
""fullscreenenter"",""5"",""24142""
","
","
","""event"",""trial"",""time""
""fullscreenenter"",""5"",""24142""
","
",NA,images/earth.jpg,NA,NA,NA,NA,NA,NA,NA,NA,NA,NA,NA,NA,NA,fixation,NA,NA,NA,NA,NA,NA,sub93
d3-animate-choice,91,491092,0.0-61.0-0.10,FALSE,FALSE,TRUE,FALSE,"""event"",""trial"",""time""
""fullscreenenter"",""5"",""24142""
","
","
","""event"",""trial"",""time""
""fullscreenenter"",""5"",""24142""
","
",370.71499999728985,NA,48,NA,NA,3000,1,NA,NA,images/earth.jpg,images/tutrocket2,images/tutrocket1,null,images/tutrocket2,NA,1,practice,null,2,NA,NA,NA,sub93
d3-animate-choice,92,493629,0.0-61.0-1.10,FALSE,FALSE,TRUE,FALSE,"""event"",""trial"",""time""
""fullscreenenter"",""5"",""24142""
","
","
","""event"",""trial"",""time""
""fullscreenenter"",""5"",""24142""
","
",535.4000000006636,NA,49,NA,NA,3000,1,NA,NA,images/tutyellowplanet.jpg,images/tutalien4,images/tutalien3,images/tutrocket2,images/tutalien3,images/t.png,2,practice,false,1,rare,1,2020-06-26T18:03:51Z,sub93
two-step-fixation,93,494633,0.0-61.0-2.10,FALSE,FALSE,TRUE,FALSE,"""event"",""trial"",""time""
""fullscreenenter"",""5"",""24142""
","
","
","""event"",""trial"",""time""
""fullscreenenter"",""5"",""24142""
","
",NA,images/earth.jpg,NA,NA,NA,NA,NA,NA,NA,NA,NA,NA,NA,NA,NA,fixation,NA,NA,NA,NA,NA,NA,sub93
d3-animate-choice,94,496931,0.0-61.0-0.11,FALSE,FALSE,TRUE,FALSE,"""event"",""trial"",""time""
""fullscreenenter"",""5"",""24142""
","
","
","""event"",""trial"",""time""
""fullscreenenter"",""5"",""24142""
","
",292.9149999981746,NA,48,NA,NA,3000,1,NA,NA,images/earth.jpg,images/tutrocket2,images/tutrocket1,null,images/tutrocket2,NA,1,practice,null,2,NA,NA,NA,sub93
d3-animate-choice,95,499550,0.0-61.0-1.11,FALSE,FALSE,TRUE,FALSE,"""event"",""trial"",""time""
""fullscreenenter"",""5"",""24142""
","
","
","""event"",""trial"",""time""
""fullscreenenter"",""5"",""24142""
","
",613.8750000027358,NA,48,NA,NA,3000,1,NA,NA,images/tutgreenplanet.jpg,images/tutalien2,images/tutalien1,images/tutrocket2,images/tutalien2,images/nothing.png,2,practice,true,2,common,0,2020-06-26T18:03:57Z,sub93
two-step-fixation,96,500557,0.0-61.0-2.11,FALSE,FALSE,TRUE,FALSE,"""event"",""trial"",""time""
""fullscreenenter"",""5"",""24142""
","
","
","""event"",""trial"",""time""
""fullscreenenter"",""5"",""24142""
","
",NA,images/earth.jpg,NA,NA,NA,NA,NA,NA,NA,NA,NA,NA,NA,NA,NA,fixation,NA,NA,NA,NA,NA,NA,sub93
d3-animate-choice,97,502825,0.0-61.0-0.12,FALSE,FALSE,TRUE,FALSE,"""event"",""trial"",""time""
""fullscreenenter"",""5"",""24142""
","
","
","""event"",""trial"",""time""
""fullscreenenter"",""5"",""24142""
","
",264.0949999986333,NA,49,NA,NA,3000,1,NA,NA,images/earth.jpg,images/tutrocket2,images/tutrocket1,null,images/tutrocket1,NA,1,practice,null,1,NA,NA,NA,sub93
d3-animate-choice,98,505961,0.0-61.0-1.12,FALSE,FALSE,TRUE,FALSE,"""event"",""trial"",""time""
""fullscreenenter"",""5"",""24142""
","
","
","""event"",""trial"",""time""
""fullscreenenter"",""5"",""24142""
","
",1129.3000000005122,NA,49,NA,NA,3000,1,NA,NA,images/tutyellowplanet.jpg,images/tutalien4,images/tutalien3,images/tutrocket1,images/tutalien3,images/t.png,2,practice,true,1,common,1,2020-06-26T18:04:04Z,sub93
two-step-fixation,99,506965,0.0-61.0-2.12,FALSE,FALSE,TRUE,FALSE,"""event"",""trial"",""time""
""fullscreenenter"",""5"",""24142""
","
","
","""event"",""trial"",""time""
""fullscreenenter"",""5"",""24142""
","
",NA,images/earth.jpg,NA,NA,NA,NA,NA,NA,NA,NA,NA,NA,NA,NA,NA,fixation,NA,NA,NA,NA,NA,NA,sub93
d3-animate-choice,100,509132,0.0-61.0-0.13,FALSE,FALSE,TRUE,FALSE,"""event"",""trial"",""time""
""fullscreenenter"",""5"",""24142""
","
","
","""event"",""trial"",""time""
""fullscreenenter"",""5"",""24142""
","
",162.21499999664957,NA,48,NA,NA,3000,1,NA,NA,images/earth.jpg,images/tutrocket2,images/tutrocket1,null,images/tutrocket2,NA,1,practice,null,2,NA,NA,NA,sub93
d3-animate-choice,101,511765,0.0-61.0-1.13,FALSE,FALSE,TRUE,FALSE,"""event"",""trial"",""time""
""fullscreenenter"",""5"",""24142""
","
","
","""event"",""trial"",""time""
""fullscreenenter"",""5"",""24142""
","
",628.0600000027334,NA,48,NA,NA,3000,1,NA,NA,images/tutgreenplanet.jpg,images/tutalien2,images/tutalien1,images/tutrocket2,images/tutalien2,images/t.png,2,practice,true,2,common,1,2020-06-26T18:04:09Z,sub93
two-step-fixation,102,512770,0.0-61.0-2.13,FALSE,FALSE,TRUE,FALSE,"""event"",""trial"",""time""
""fullscreenenter"",""5"",""24142""
","
","
","""event"",""trial"",""time""
""fullscreenenter"",""5"",""24142""
","
",NA,images/earth.jpg,NA,NA,NA,NA,NA,NA,NA,NA,NA,NA,NA,NA,NA,fixation,NA,NA,NA,NA,NA,NA,sub93
d3-animate-choice,103,515193,0.0-61.0-0.14,FALSE,FALSE,TRUE,FALSE,"""event"",""trial"",""time""
""fullscreenenter"",""5"",""24142""
","
","
","""event"",""trial"",""time""
""fullscreenenter"",""5"",""24142""
","
",418.41500000009546,NA,49,NA,NA,3000,1,NA,NA,images/earth.jpg,images/tutrocket2,images/tutrocket1,null,images/tutrocket1,NA,1,practice,null,1,NA,NA,NA,sub93
d3-animate-choice,104,518027,0.0-61.0-1.14,FALSE,FALSE,TRUE,FALSE,"""event"",""trial"",""time""
""fullscreenenter"",""5"",""24142""
","
","
","""event"",""trial"",""time""
""fullscreenenter"",""5"",""24142""
","
",827.9549999933224,NA,49,NA,NA,3000,1,NA,NA,images/tutyellowplanet.jpg,images/tutalien4,images/tutalien3,images/tutrocket1,images/tutalien3,images/nothing.png,2,practice,true,1,common,0,2020-06-26T18:04:16Z,sub93
two-step-fixation,105,519032,0.0-61.0-2.14,FALSE,FALSE,TRUE,FALSE,"""event"",""trial"",""time""
""fullscreenenter"",""5"",""24142""
","
","
","""event"",""trial"",""time""
""fullscreenenter"",""5"",""24142""
","
",NA,images/earth.jpg,NA,NA,NA,NA,NA,NA,NA,NA,NA,NA,NA,NA,NA,fixation,NA,NA,NA,NA,NA,NA,sub93
d3-animate-choice,106,521649,0.0-61.0-0.15,FALSE,FALSE,TRUE,FALSE,"""event"",""trial"",""time""
""fullscreenenter"",""5"",""24142""
","
","
","""event"",""trial"",""time""
""fullscreenenter"",""5"",""24142""
","
",608.5049999965122,NA,48,NA,NA,3000,1,NA,NA,images/earth.jpg,images/tutrocket2,images/tutrocket1,null,images/tutrocket2,NA,1,practice,null,2,NA,NA,NA,sub93
d3-animate-choice,107,524109,0.0-61.0-1.15,FALSE,FALSE,TRUE,FALSE,"""event"",""trial"",""time""
""fullscreenenter"",""5"",""24142""
","
","
","""event"",""trial"",""time""
""fullscreenenter"",""5"",""24142""
","
",455.9450000014622,NA,48,NA,NA,3000,1,NA,NA,images/tutgreenplanet.jpg,images/tutalien2,images/tutalien1,images/tutrocket2,images/tutalien2,images/nothing.png,2,practice,true,2,common,0,2020-06-26T18:04:22Z,sub93
two-step-fixation,108,525112,0.0-61.0-2.15,FALSE,FALSE,TRUE,FALSE,"""event"",""trial"",""time""
""fullscreenenter"",""5"",""24142""
","
","
","""event"",""trial"",""time""
""fullscreenenter"",""5"",""24142""
","
",NA,images/earth.jpg,NA,NA,NA,NA,NA,NA,NA,NA,NA,NA,NA,NA,NA,fixation,NA,NA,NA,NA,NA,NA,sub93
d3-animate-choice,109,527510,0.0-61.0-0.16,FALSE,FALSE,TRUE,FALSE,"""event"",""trial"",""time""
""fullscreenenter"",""5"",""24142""
","
","
","""event"",""trial"",""time""
""fullscreenenter"",""5"",""24142""
","
",393.60000000311993,NA,49,NA,NA,3000,1,NA,NA,images/earth.jpg,images/tutrocket2,images/tutrocket1,null,images/tutrocket1,NA,1,practice,null,1,NA,NA,NA,sub93
d3-animate-choice,110,529944,0.0-61.0-1.16,FALSE,FALSE,TRUE,FALSE,"""event"",""trial"",""time""
""fullscreenenter"",""5"",""24142""
","
","
","""event"",""trial"",""time""
""fullscreenenter"",""5"",""24142""
","
",428.00500000151806,NA,48,NA,NA,3000,1,NA,NA,images/tutyellowplanet.jpg,images/tutalien4,images/tutalien3,images/tutrocket1,images/tutalien4,images/t.png,2,practice,true,2,common,1,2020-06-26T18:04:28Z,sub93
two-step-fixation,111,530953,0.0-61.0-2.16,FALSE,FALSE,TRUE,FALSE,"""event"",""trial"",""time""
""fullscreenenter"",""5"",""24142""
","
","
","""event"",""trial"",""time""
""fullscreenenter"",""5"",""24142""
","
",NA,images/earth.jpg,NA,NA,NA,NA,NA,NA,NA,NA,NA,NA,NA,NA,NA,fixation,NA,NA,NA,NA,NA,NA,sub93
d3-animate-choice,112,533545,0.0-61.0-0.17,FALSE,FALSE,TRUE,FALSE,"""event"",""trial"",""time""
""fullscreenenter"",""5"",""24142""
","
","
","""event"",""trial"",""time""
""fullscreenenter"",""5"",""24142""
","
",584.3299999978626,NA,48,NA,NA,3000,1,NA,NA,images/earth.jpg,images/tutrocket2,images/tutrocket1,null,images/tutrocket2,NA,1,practice,null,2,NA,NA,NA,sub93
d3-animate-choice,113,535956,0.0-61.0-1.17,FALSE,FALSE,TRUE,FALSE,"""event"",""trial"",""time""
""fullscreenenter"",""5"",""24142""
","
","
","""event"",""trial"",""time""
""fullscreenenter"",""5"",""24142""
","
",407.40000000363216,NA,49,NA,NA,3000,1,NA,NA,images/tutgreenplanet.jpg,images/tutalien2,images/tutalien1,images/tutrocket2,images/tutalien1,images/nothing.png,2,practice,true,1,common,0,2020-06-26T18:04:34Z,sub93
two-step-fixation,114,536959,0.0-61.0-2.17,FALSE,FALSE,TRUE,FALSE,"""event"",""trial"",""time""
""fullscreenenter"",""5"",""24142""
","
","
","""event"",""trial"",""time""
""fullscreenenter"",""5"",""24142""
","
",NA,images/earth.jpg,NA,NA,NA,NA,NA,NA,NA,NA,NA,NA,NA,NA,NA,fixation,NA,NA,NA,NA,NA,NA,sub93
d3-animate-choice,115,539533,0.0-61.0-0.18,FALSE,FALSE,TRUE,FALSE,"""event"",""trial"",""time""
""fullscreenenter"",""5"",""24142""
","
","
","""event"",""trial"",""time""
""fullscreenenter"",""5"",""24142""
","
",569.1749999969034,NA,49,NA,NA,3000,1,NA,NA,images/earth.jpg,images/tutrocket2,images/tutrocket1,null,images/tutrocket1,NA,1,practice,null,1,NA,NA,NA,sub93
d3-animate-choice,116,542058,0.0-61.0-1.18,FALSE,FALSE,TRUE,FALSE,"""event"",""trial"",""time""
""fullscreenenter"",""5"",""24142""
","
","
","""event"",""trial"",""time""
""fullscreenenter"",""5"",""24142""
","
",521.7399999964982,NA,48,NA,NA,3000,1,NA,NA,images/tutgreenplanet.jpg,images/tutalien2,images/tutalien1,images/tutrocket1,images/tutalien2,images/nothing.png,2,practice,false,2,rare,0,2020-06-26T18:04:40Z,sub93
two-step-fixation,117,543066,0.0-61.0-2.18,FALSE,FALSE,TRUE,FALSE,"""event"",""trial"",""time""
""fullscreenenter"",""5"",""24142""
","
","
","""event"",""trial"",""time""
""fullscreenenter"",""5"",""24142""
","
",NA,images/earth.jpg,NA,NA,NA,NA,NA,NA,NA,NA,NA,NA,NA,NA,NA,fixation,NA,NA,NA,NA,NA,NA,sub93
d3-animate-choice,118,545583,0.0-61.0-0.19,FALSE,FALSE,TRUE,FALSE,"""event"",""trial"",""time""
""fullscreenenter"",""5"",""24142""
","
","
","""event"",""trial"",""time""
""fullscreenenter"",""5"",""24142""
","
",511.73499999998603,NA,48,NA,NA,3000,1,NA,NA,images/earth.jpg,images/tutrocket2,images/tutrocket1,null,images/tutrocket2,NA,1,practice,null,2,NA,NA,NA,sub93
d3-animate-choice,119,548142,0.0-61.0-1.19,FALSE,FALSE,TRUE,FALSE,"""event"",""trial"",""time""
""fullscreenenter"",""5"",""24142""
","
","
","""event"",""trial"",""time""
""fullscreenenter"",""5"",""24142""
","
",553.5000000018626,NA,49,NA,NA,3000,1,NA,NA,images/tutgreenplanet.jpg,images/tutalien2,images/tutalien1,images/tutrocket2,images/tutalien1,images/t.png,2,practice,true,1,common,1,2020-06-26T18:04:46Z,sub93
two-step-fixation,120,549147,0.0-61.0-2.19,FALSE,FALSE,TRUE,FALSE,"""event"",""trial"",""time""
""fullscreenenter"",""5"",""24142""
","
","
","""event"",""trial"",""time""
""fullscreenenter"",""5"",""24142""
","
",NA,images/earth.jpg,NA,NA,NA,NA,NA,NA,NA,NA,NA,NA,NA,NA,NA,fixation,NA,NA,NA,NA,NA,NA,sub93
d3-instructions,121,557480,0.0-62.0,FALSE,FALSE,TRUE,FALSE,"""event"",""trial"",""time""
""fullscreenenter"",""5"",""24142""
","
","
","""event"",""trial"",""time""
""fullscreenenter"",""5"",""24142""
","
",NA,NA,NA,NA,NA,NA,NA,NA,NA,NA,NA,NA,NA,NA,NA,NA,NA,NA,NA,NA,NA,NA,sub93
audio-keyboard-response,122,566384,0.0-63.0,FALSE,FALSE,TRUE,FALSE,"""event"",""trial"",""time""
""fullscreenenter"",""5"",""24142""
","
","
","""event"",""trial"",""time""
""fullscreenenter"",""5"",""24142""
","
",8905,audio/instructions/treasure_feedback.wav,32,NA,NA,NA,NA,NA,NA,NA,NA,NA,NA,NA,NA,NA,NA,NA,NA,NA,NA,NA,sub93
d3-instructions,123,586546,0.0-64.0,FALSE,FALSE,TRUE,FALSE,"""event"",""trial"",""time""
""fullscreenenter"",""5"",""24142""
","
","
","""event"",""trial"",""time""
""fullscreenenter"",""5"",""24142""
","
",NA,NA,NA,NA,NA,NA,NA,NA,NA,NA,NA,NA,NA,NA,NA,NA,NA,NA,NA,NA,NA,NA,sub93
d3-instructions,124,600314,0.0-65.0,FALSE,FALSE,TRUE,FALSE,"""event"",""trial"",""time""
""fullscreenenter"",""5"",""24142""
","
","
","""event"",""trial"",""time""
""fullscreenenter"",""5"",""24142""
","
",NA,NA,NA,NA,NA,NA,NA,NA,NA,NA,NA,NA,NA,NA,NA,NA,NA,NA,NA,NA,NA,NA,sub93
d3-instructions,125,625533,0.0-66.0,FALSE,FALSE,TRUE,FALSE,"""event"",""trial"",""time""
""fullscreenenter"",""5"",""24142""
","
","
","""event"",""trial"",""time""
""fullscreenenter"",""5"",""24142""
","
",NA,NA,NA,NA,NA,NA,NA,NA,NA,NA,NA,NA,NA,NA,NA,NA,NA,NA,NA,NA,NA,NA,sub93
d3-instructions,126,641524,0.0-67.0,FALSE,FALSE,TRUE,FALSE,"""event"",""trial"",""time""
""fullscreenenter"",""5"",""24142""
","
","
","""event"",""trial"",""time""
""fullscreenenter"",""5"",""24142""
","
",NA,NA,NA,NA,NA,NA,NA,NA,NA,NA,NA,NA,NA,NA,NA,NA,NA,NA,NA,NA,NA,NA,sub93
d3-instructions,127,652300,0.0-68.0,FALSE,FALSE,TRUE,FALSE,"""event"",""trial"",""time""
""fullscreenenter"",""5"",""24142""
","
","
","""event"",""trial"",""time""
""fullscreenenter"",""5"",""24142""
","
",NA,NA,NA,NA,NA,NA,NA,NA,NA,NA,NA,NA,NA,NA,NA,NA,NA,NA,NA,NA,NA,NA,sub93
instructions-quiz,128,657822,0.0-69.0,FALSE,FALSE,TRUE,FALSE,"""event"",""trial"",""time""
""fullscreenenter"",""5"",""24142""
","
","
","""event"",""trial"",""time""
""fullscreenenter"",""5"",""24142""
","
",5520.430000004126,audio/quiz/Q1_Prompt.wav,NA,1,NA,NA,NA,NA,NA,NA,NA,NA,NA,NA,NA,NA,NA,NA,NA,NA,NA,NA,sub93
audio-keyboard-response,129,666996,0.0-70.0,FALSE,FALSE,TRUE,FALSE,"""event"",""trial"",""time""
""fullscreenenter"",""5"",""24142""
","
","
","""event"",""trial"",""time""
""fullscreenenter"",""5"",""24142""
","
",null,audio/quiz/Q1_Correct.wav,null,NA,NA,NA,NA,NA,NA,NA,NA,NA,NA,NA,NA,NA,NA,NA,NA,NA,NA,NA,sub93
instructions-quiz,130,676859,0.0-71.0,FALSE,FALSE,TRUE,FALSE,"""event"",""trial"",""time""
""fullscreenenter"",""5"",""24142""
","
","
","""event"",""trial"",""time""
""fullscreenenter"",""5"",""24142""
","
",9863.09500000067,audio/quiz/Q2_Prompt.wav,NA,0,NA,NA,NA,NA,NA,NA,NA,NA,NA,NA,NA,NA,NA,NA,NA,NA,NA,NA,sub93
audio-keyboard-response,131,689727,0.0-72.0,FALSE,FALSE,TRUE,FALSE,"""event"",""trial"",""time""
""fullscreenenter"",""5"",""24142""
","
","
","""event"",""trial"",""time""
""fullscreenenter"",""5"",""24142""
","
",null,audio/quiz/Q2_Correct.wav,null,NA,NA,NA,NA,NA,NA,NA,NA,NA,NA,NA,NA,NA,NA,NA,NA,NA,NA,NA,sub93
instructions-quiz,132,695425,0.0-73.0,FALSE,FALSE,TRUE,FALSE,"""event"",""trial"",""time""
""fullscreenenter"",""5"",""24142""
","
","
","""event"",""trial"",""time""
""fullscreenenter"",""5"",""24142""
","
",5697.18500000448,audio/quiz/Q3_Prompt.wav,NA,1,NA,NA,NA,NA,NA,NA,NA,NA,NA,NA,NA,NA,NA,NA,NA,NA,NA,NA,sub93
audio-keyboard-response,133,701220,0.0-74.0,FALSE,FALSE,TRUE,FALSE,"""event"",""trial"",""time""
""fullscreenenter"",""5"",""24142""
","
","
","""event"",""trial"",""time""
""fullscreenenter"",""5"",""24142""
","
",null,audio/quiz/Q3_Correct.wav,null,NA,NA,NA,NA,NA,NA,NA,NA,NA,NA,NA,NA,NA,NA,NA,NA,NA,NA,NA,sub93
d3-instructions,134,714378,0.0-75.0,FALSE,FALSE,TRUE,FALSE,"""event"",""trial"",""time""
""fullscreenenter"",""5"",""24142""
","
","
","""event"",""trial"",""time""
""fullscreenenter"",""5"",""24142""
","
",NA,NA,NA,NA,NA,NA,NA,NA,NA,NA,NA,NA,NA,NA,NA,NA,NA,NA,NA,NA,NA,NA,sub93
d3-animate-choice,135,718192,0.0-76.0-0.0,FALSE,FALSE,TRUE,FALSE,"""event"",""trial"",""time""
""fullscreenenter"",""5"",""24142""
","
","
","""event"",""trial"",""time""
""fullscreenenter"",""5"",""24142""
","
",1809.0400000001537,NA,48,NA,NA,3000,1,NA,NA,images/earth.jpg,images/rocket1,images/rocket2,null,images/rocket1,NA,1,real,null,2,NA,NA,NA,sub93
d3-animate-choice,136,721053,0.0-76.0-1.0,FALSE,FALSE,TRUE,FALSE,"""event"",""trial"",""time""
""fullscreenenter"",""5"",""24142""
","
","
","""event"",""trial"",""time""
""fullscreenenter"",""5"",""24142""
","
",856.4899999982445,NA,49,NA,NA,3000,1,NA,NA,images/redplanet1.jpg,images/alien2,images/alien1,images/rocket1,images/alien1,images/t.png,2,real,false,1,rare,1,2020-06-26T18:07:39Z,sub93
two-step-fixation,137,722059,0.0-76.0-2.0,FALSE,FALSE,TRUE,FALSE,"""event"",""trial"",""time""
""fullscreenenter"",""5"",""24142""
","
","
","""event"",""trial"",""time""
""fullscreenenter"",""5"",""24142""
","
",NA,images/earth.jpg,NA,NA,NA,NA,NA,NA,NA,NA,NA,NA,NA,NA,NA,fixation,NA,NA,NA,NA,NA,NA,sub93
d3-animate-choice,138,724531,0.0-76.0-0.1,FALSE,FALSE,TRUE,FALSE,"""event"",""trial"",""time""
""fullscreenenter"",""5"",""24142""
","
","
","""event"",""trial"",""time""
""fullscreenenter"",""5"",""24142""
","
",467.54499999957625,NA,49,NA,NA,3000,1,NA,NA,images/earth.jpg,images/rocket1,images/rocket2,null,images/rocket2,NA,1,real,null,1,NA,NA,NA,sub93
d3-animate-choice,139,727491,0.0-76.0-1.1,FALSE,FALSE,TRUE,FALSE,"""event"",""trial"",""time""
""fullscreenenter"",""5"",""24142""
","
","
","""event"",""trial"",""time""
""fullscreenenter"",""5"",""24142""
","
",957.1250000008149,NA,48,NA,NA,3000,1,NA,NA,images/redplanet1.jpg,images/alien2,images/alien1,images/rocket2,images/alien2,images/t.png,2,real,true,2,common,1,2020-06-26T18:07:45Z,sub93
two-step-fixation,140,728494,0.0-76.0-2.1,FALSE,FALSE,TRUE,FALSE,"""event"",""trial"",""time""
""fullscreenenter"",""5"",""24142""
","
","
","""event"",""trial"",""time""
""fullscreenenter"",""5"",""24142""
","
",NA,images/earth.jpg,NA,NA,NA,NA,NA,NA,NA,NA,NA,NA,NA,NA,NA,fixation,NA,NA,NA,NA,NA,NA,sub93
d3-animate-choice,141,730922,0.0-76.0-0.2,FALSE,FALSE,TRUE,FALSE,"""event"",""trial"",""time""
""fullscreenenter"",""5"",""24142""
","
","
","""event"",""trial"",""time""
""fullscreenenter"",""5"",""24142""
","
",424.40999999956694,NA,48,NA,NA,3000,1,NA,NA,images/earth.jpg,images/rocket1,images/rocket2,null,images/rocket1,NA,1,real,null,2,NA,NA,NA,sub93
d3-animate-choice,142,733407,0.0-76.0-1.2,FALSE,FALSE,TRUE,FALSE,"""event"",""trial"",""time""
""fullscreenenter"",""5"",""24142""
","
","
","""event"",""trial"",""time""
""fullscreenenter"",""5"",""24142""
","
",483.0999999977648,NA,49,NA,NA,3000,1,NA,NA,images/redplanet1.jpg,images/alien2,images/alien1,images/rocket1,images/alien1,images/nothing.png,2,real,false,1,rare,0,2020-06-26T18:07:51Z,sub93
two-step-fixation,143,734410,0.0-76.0-2.2,FALSE,FALSE,TRUE,FALSE,"""event"",""trial"",""time""
""fullscreenenter"",""5"",""24142""
","
","
","""event"",""trial"",""time""
""fullscreenenter"",""5"",""24142""
","
",NA,images/earth.jpg,NA,NA,NA,NA,NA,NA,NA,NA,NA,NA,NA,NA,NA,fixation,NA,NA,NA,NA,NA,NA,sub93
d3-animate-choice,144,736848,0.0-76.0-0.3,FALSE,FALSE,TRUE,FALSE,"""event"",""trial"",""time""
""fullscreenenter"",""5"",""24142""
","
","
","""event"",""trial"",""time""
""fullscreenenter"",""5"",""24142""
","
",432.2099999990314,NA,49,NA,NA,3000,1,NA,NA,images/earth.jpg,images/rocket1,images/rocket2,null,images/rocket2,NA,1,real,null,1,NA,NA,NA,sub93
d3-animate-choice,145,739889,0.0-76.0-1.3,FALSE,FALSE,TRUE,FALSE,"""event"",""trial"",""time""
""fullscreenenter"",""5"",""24142""
","
","
","""event"",""trial"",""time""
""fullscreenenter"",""5"",""24142""
","
",1038.5349999996834,NA,48,NA,NA,3000,1,NA,NA,images/redplanet1.jpg,images/alien2,images/alien1,images/rocket2,images/alien2,images/nothing.png,2,real,true,2,common,0,2020-06-26T18:07:57Z,sub93
two-step-fixation,146,740896,0.0-76.0-2.3,FALSE,FALSE,TRUE,FALSE,"""event"",""trial"",""time""
""fullscreenenter"",""5"",""24142""
","
","
","""event"",""trial"",""time""
""fullscreenenter"",""5"",""24142""
","
",NA,images/earth.jpg,NA,NA,NA,NA,NA,NA,NA,NA,NA,NA,NA,NA,NA,fixation,NA,NA,NA,NA,NA,NA,sub93
d3-animate-choice,147,743451,0.0-76.0-0.4,FALSE,FALSE,TRUE,FALSE,"""event"",""trial"",""time""
""fullscreenenter"",""5"",""24142""
","
","
","""event"",""trial"",""time""
""fullscreenenter"",""5"",""24142""
","
",551.8349999984493,NA,48,NA,NA,3000,1,NA,NA,images/earth.jpg,images/rocket1,images/rocket2,null,images/rocket1,NA,1,real,null,2,NA,NA,NA,sub93
d3-animate-choice,148,746098,0.0-76.0-1.4,FALSE,FALSE,TRUE,FALSE,"""event"",""trial"",""time""
""fullscreenenter"",""5"",""24142""
","
","
","""event"",""trial"",""time""
""fullscreenenter"",""5"",""24142""
","
",642.2549999989569,NA,49,NA,NA,3000,1,NA,NA,images/purpleplanet.jpg,images/alien4,images/alien3,images/rocket1,images/alien3,images/t.png,2,real,true,1,common,1,2020-06-26T18:08:04Z,sub93
two-step-fixation,149,747102,0.0-76.0-2.4,FALSE,FALSE,TRUE,FALSE,"""event"",""trial"",""time""
""fullscreenenter"",""5"",""24142""
","
","
","""event"",""trial"",""time""
""fullscreenenter"",""5"",""24142""
","
",NA,images/earth.jpg,NA,NA,NA,NA,NA,NA,NA,NA,NA,NA,NA,NA,NA,fixation,NA,NA,NA,NA,NA,NA,sub93
d3-animate-choice,150,749692,0.0-76.0-0.5,FALSE,FALSE,TRUE,FALSE,"""event"",""trial"",""time""
""fullscreenenter"",""5"",""24142""
","
","
","""event"",""trial"",""time""
""fullscreenenter"",""5"",""24142""
","
",584.8199999963399,NA,48,NA,NA,3000,1,NA,NA,images/earth.jpg,images/rocket1,images/rocket2,null,images/rocket1,NA,1,real,null,2,NA,NA,NA,sub93
d3-animate-choice,151,752420,0.0-76.0-1.5,FALSE,FALSE,TRUE,FALSE,"""event"",""trial"",""time""
""fullscreenenter"",""5"",""24142""
","
","
","""event"",""trial"",""time""
""fullscreenenter"",""5"",""24142""
","
",723.9049999988638,NA,48,NA,NA,3000,1,NA,NA,images/purpleplanet.jpg,images/alien4,images/alien3,images/rocket1,images/alien4,images/nothing.png,2,real,true,2,common,0,2020-06-26T18:08:10Z,sub93
two-step-fixation,152,753424,0.0-76.0-2.5,FALSE,FALSE,TRUE,FALSE,"""event"",""trial"",""time""
""fullscreenenter"",""5"",""24142""
","
","
","""event"",""trial"",""time""
""fullscreenenter"",""5"",""24142""
","
",NA,images/earth.jpg,NA,NA,NA,NA,NA,NA,NA,NA,NA,NA,NA,NA,NA,fixation,NA,NA,NA,NA,NA,NA,sub93
d3-animate-choice,153,755980,0.0-76.0-0.6,FALSE,FALSE,TRUE,FALSE,"""event"",""trial"",""time""
""fullscreenenter"",""5"",""24142""
","
","
","""event"",""trial"",""time""
""fullscreenenter"",""5"",""24142""
","
",547.2799999988638,NA,49,NA,NA,3000,1,1276.0849999977509,49,images/earth.jpg,images/rocket1,images/rocket2,null,images/rocket2,NA,1,real,null,1,NA,NA,NA,sub93
d3-animate-choice,154,758793,0.0-76.0-1.6,FALSE,FALSE,TRUE,FALSE,"""event"",""trial"",""time""
""fullscreenenter"",""5"",""24142""
","
","
","""event"",""trial"",""time""
""fullscreenenter"",""5"",""24142""
","
",807.8499999972992,NA,48,NA,NA,3000,1,NA,NA,images/redplanet1.jpg,images/alien2,images/alien1,images/rocket2,images/alien2,images/t.png,2,real,true,2,common,1,2020-06-26T18:08:16Z,sub93
two-step-fixation,155,759798,0.0-76.0-2.6,FALSE,FALSE,TRUE,FALSE,"""event"",""trial"",""time""
""fullscreenenter"",""5"",""24142""
","
","
","""event"",""trial"",""time""
""fullscreenenter"",""5"",""24142""
","
",NA,images/earth.jpg,NA,NA,NA,NA,NA,NA,NA,NA,NA,NA,NA,NA,NA,fixation,NA,NA,NA,NA,NA,NA,sub93
d3-animate-choice,156,762111,0.0-76.0-0.7,FALSE,FALSE,TRUE,FALSE,"""event"",""trial"",""time""
""fullscreenenter"",""5"",""24142""
","
","
","""event"",""trial"",""time""
""fullscreenenter"",""5"",""24142""
","
",307.89500000537373,NA,49,NA,NA,3000,1,NA,NA,images/earth.jpg,images/rocket1,images/rocket2,null,images/rocket2,NA,1,real,null,1,NA,NA,NA,sub93
d3-animate-choice,157,764639,0.0-76.0-1.7,FALSE,FALSE,TRUE,FALSE,"""event"",""trial"",""time""
""fullscreenenter"",""5"",""24142""
","
","
","""event"",""trial"",""time""
""fullscreenenter"",""5"",""24142""
","
",522.0899999985704,NA,48,NA,NA,3000,1,NA,NA,images/redplanet1.jpg,images/alien2,images/alien1,images/rocket2,images/alien2,images/t.png,2,real,true,2,common,1,2020-06-26T18:08:22Z,sub93
two-step-fixation,158,765647,0.0-76.0-2.7,FALSE,FALSE,TRUE,FALSE,"""event"",""trial"",""time""
""fullscreenenter"",""5"",""24142""
","
","
","""event"",""trial"",""time""
""fullscreenenter"",""5"",""24142""
","
",NA,images/earth.jpg,NA,NA,NA,NA,NA,NA,NA,NA,NA,NA,NA,NA,NA,fixation,NA,NA,NA,NA,NA,NA,sub93
d3-animate-choice,159,768482,0.0-76.0-0.8,FALSE,FALSE,TRUE,FALSE,"""event"",""trial"",""time""
""fullscreenenter"",""5"",""24142""
","
","
","""event"",""trial"",""time""
""fullscreenenter"",""5"",""24142""
","
",829.774999998277,NA,49,NA,NA,3000,1,NA,NA,images/earth.jpg,images/rocket1,images/rocket2,null,images/rocket2,NA,1,real,null,1,NA,NA,NA,sub93
d3-animate-choice,160,772049,0.0-76.0-1.8,FALSE,FALSE,TRUE,FALSE,"""event"",""trial"",""time""
""fullscreenenter"",""5"",""24142""
","
","
","""event"",""trial"",""time""
""fullscreenenter"",""5"",""24142""
","
",1562.0649999983143,NA,48,NA,NA,3000,1,NA,NA,images/purpleplanet.jpg,images/alien4,images/alien3,images/rocket2,images/alien4,images/t.png,2,real,false,2,rare,1,2020-06-26T18:08:30Z,sub93
two-step-fixation,161,773056,0.0-76.0-2.8,FALSE,FALSE,TRUE,FALSE,"""event"",""trial"",""time""
""fullscreenenter"",""5"",""24142""
","
","
","""event"",""trial"",""time""
""fullscreenenter"",""5"",""24142""
","
",NA,images/earth.jpg,NA,NA,NA,NA,NA,NA,NA,NA,NA,NA,NA,NA,NA,fixation,NA,NA,NA,NA,NA,NA,sub93
d3-animate-choice,162,775510,0.0-76.0-0.9,FALSE,FALSE,TRUE,FALSE,"""event"",""trial"",""time""
""fullscreenenter"",""5"",""24142""
","
","
","""event"",""trial"",""time""
""fullscreenenter"",""5"",""24142""
","
",449.32500000146683,NA,48,NA,NA,3000,1,NA,NA,images/earth.jpg,images/rocket1,images/rocket2,null,images/rocket1,NA,1,real,null,2,NA,NA,NA,sub93
d3-animate-choice,163,777986,0.0-76.0-1.9,FALSE,FALSE,TRUE,FALSE,"""event"",""trial"",""time""
""fullscreenenter"",""5"",""24142""
","
","
","""event"",""trial"",""time""
""fullscreenenter"",""5"",""24142""
","
",471.88000000454485,NA,48,NA,NA,3000,1,NA,NA,images/purpleplanet.jpg,images/alien4,images/alien3,images/rocket1,images/alien4,images/t.png,2,real,true,2,common,1,2020-06-26T18:08:36Z,sub93
two-step-fixation,164,778990,0.0-76.0-2.9,FALSE,FALSE,TRUE,FALSE,"""event"",""trial"",""time""
""fullscreenenter"",""5"",""24142""
","
","
","""event"",""trial"",""time""
""fullscreenenter"",""5"",""24142""
","
",NA,images/earth.jpg,NA,NA,NA,NA,NA,NA,NA,NA,NA,NA,NA,NA,NA,fixation,NA,NA,NA,NA,NA,NA,sub93
d3-animate-choice,165,781569,0.0-76.0-0.10,FALSE,FALSE,TRUE,FALSE,"""event"",""trial"",""time""
""fullscreenenter"",""5"",""24142""
","
","
","""event"",""trial"",""time""
""fullscreenenter"",""5"",""24142""
","
",574.6450000006007,NA,49,NA,NA,3000,1,NA,NA,images/earth.jpg,images/rocket1,images/rocket2,null,images/rocket2,NA,1,real,null,1,NA,NA,NA,sub93
d3-animate-choice,166,784284,0.0-76.0-1.10,FALSE,FALSE,TRUE,FALSE,"""event"",""trial"",""time""
""fullscreenenter"",""5"",""24142""
","
","
","""event"",""trial"",""time""
""fullscreenenter"",""5"",""24142""
","
",710.1849999962142,NA,48,NA,NA,3000,1,NA,NA,images/redplanet1.jpg,images/alien2,images/alien1,images/rocket2,images/alien2,images/t.png,2,real,true,2,common,1,2020-06-26T18:08:42Z,sub93
two-step-fixation,167,785290,0.0-76.0-2.10,FALSE,FALSE,TRUE,FALSE,"""event"",""trial"",""time""
""fullscreenenter"",""5"",""24142""
","
","
","""event"",""trial"",""time""
""fullscreenenter"",""5"",""24142""
","
",NA,images/earth.jpg,NA,NA,NA,NA,NA,NA,NA,NA,NA,NA,NA,NA,NA,fixation,NA,NA,NA,NA,NA,NA,sub93
d3-animate-choice,168,787723,0.0-76.0-0.11,FALSE,FALSE,TRUE,FALSE,"""event"",""trial"",""time""
""fullscreenenter"",""5"",""24142""
","
","
","""event"",""trial"",""time""
""fullscreenenter"",""5"",""24142""
","
",423.79499999515247,NA,48,NA,NA,3000,1,NA,NA,images/earth.jpg,images/rocket1,images/rocket2,null,images/rocket1,NA,1,real,null,2,NA,NA,NA,sub93
d3-animate-choice,169,790121,0.0-76.0-1.11,FALSE,FALSE,TRUE,FALSE,"""event"",""trial"",""time""
""fullscreenenter"",""5"",""24142""
","
","
","""event"",""trial"",""time""
""fullscreenenter"",""5"",""24142""
","
",391.335000000312,NA,49,NA,NA,3000,1,NA,NA,images/purpleplanet.jpg,images/alien4,images/alien3,images/rocket1,images/alien3,images/nothing.png,2,real,true,1,common,0,2020-06-26T18:08:48Z,sub93
two-step-fixation,170,791125,0.0-76.0-2.11,FALSE,FALSE,TRUE,FALSE,"""event"",""trial"",""time""
""fullscreenenter"",""5"",""24142""
","
","
","""event"",""trial"",""time""
""fullscreenenter"",""5"",""24142""
","
",NA,images/earth.jpg,NA,NA,NA,NA,NA,NA,NA,NA,NA,NA,NA,NA,NA,fixation,NA,NA,NA,NA,NA,NA,sub93
d3-animate-choice,171,793554,0.0-76.0-0.12,FALSE,FALSE,TRUE,FALSE,"""event"",""trial"",""time""
""fullscreenenter"",""5"",""24142""
","
","
","""event"",""trial"",""time""
""fullscreenenter"",""5"",""24142""
","
",420.060000004014,NA,48,NA,NA,3000,1,NA,NA,images/earth.jpg,images/rocket1,images/rocket2,null,images/rocket1,NA,1,real,null,2,NA,NA,NA,sub93
d3-animate-choice,172,796057,0.0-76.0-1.12,FALSE,FALSE,TRUE,FALSE,"""event"",""trial"",""time""
""fullscreenenter"",""5"",""24142""
","
","
","""event"",""trial"",""time""
""fullscreenenter"",""5"",""24142""
","
",496.67500000214204,NA,48,NA,NA,3000,1,NA,NA,images/purpleplanet.jpg,images/alien4,images/alien3,images/rocket1,images/alien4,images/t.png,2,real,true,2,common,1,2020-06-26T18:08:54Z,sub93
two-step-fixation,173,797061,0.0-76.0-2.12,FALSE,FALSE,TRUE,FALSE,"""event"",""trial"",""time""
""fullscreenenter"",""5"",""24142""
","
","
","""event"",""trial"",""time""
""fullscreenenter"",""5"",""24142""
","
",NA,images/earth.jpg,NA,NA,NA,NA,NA,NA,NA,NA,NA,NA,NA,NA,NA,fixation,NA,NA,NA,NA,NA,NA,sub93
d3-animate-choice,174,799647,0.0-76.0-0.13,FALSE,FALSE,TRUE,FALSE,"""event"",""trial"",""time""
""fullscreenenter"",""5"",""24142""
","
","
","""event"",""trial"",""time""
""fullscreenenter"",""5"",""24142""
","
",577.0649999976158,NA,49,NA,NA,3000,1,NA,NA,images/earth.jpg,images/rocket1,images/rocket2,null,images/rocket2,NA,1,real,null,1,NA,NA,NA,sub93
d3-animate-choice,175,802166,0.0-76.0-1.13,FALSE,FALSE,TRUE,FALSE,"""event"",""trial"",""time""
""fullscreenenter"",""5"",""24142""
","
","
","""event"",""trial"",""time""
""fullscreenenter"",""5"",""24142""
","
",514.9700000039302,NA,48,NA,NA,3000,1,NA,NA,images/redplanet1.jpg,images/alien2,images/alien1,images/rocket2,images/alien2,images/nothing.png,2,real,true,2,common,0,2020-06-26T18:09:00Z,sub93
two-step-fixation,176,803171,0.0-76.0-2.13,FALSE,FALSE,TRUE,FALSE,"""event"",""trial"",""time""
""fullscreenenter"",""5"",""24142""
","
","
","""event"",""trial"",""time""
""fullscreenenter"",""5"",""24142""
","
",NA,images/earth.jpg,NA,NA,NA,NA,NA,NA,NA,NA,NA,NA,NA,NA,NA,fixation,NA,NA,NA,NA,NA,NA,sub93
d3-animate-choice,177,805529,0.0-76.0-0.14,FALSE,FALSE,TRUE,FALSE,"""event"",""trial"",""time""
""fullscreenenter"",""5"",""24142""
","
","
","""event"",""trial"",""time""
""fullscreenenter"",""5"",""24142""
","
",353.71499999740627,NA,48,NA,NA,3000,1,NA,NA,images/earth.jpg,images/rocket1,images/rocket2,null,images/rocket1,NA,1,real,null,2,NA,NA,NA,sub93
d3-animate-choice,178,807959,0.0-76.0-1.14,FALSE,FALSE,TRUE,FALSE,"""event"",""trial"",""time""
""fullscreenenter"",""5"",""24142""
","
","
","""event"",""trial"",""time""
""fullscreenenter"",""5"",""24142""
","
",426.9149999964284,NA,49,NA,NA,3000,1,NA,NA,images/redplanet1.jpg,images/alien2,images/alien1,images/rocket1,images/alien1,images/nothing.png,2,real,false,1,rare,0,2020-06-26T18:09:06Z,sub93
two-step-fixation,179,808966,0.0-76.0-2.14,FALSE,FALSE,TRUE,FALSE,"""event"",""trial"",""time""
""fullscreenenter"",""5"",""24142""
","
","
","""event"",""trial"",""time""
""fullscreenenter"",""5"",""24142""
","
",NA,images/earth.jpg,NA,NA,NA,NA,NA,NA,NA,NA,NA,NA,NA,NA,NA,fixation,NA,NA,NA,NA,NA,NA,sub93
d3-animate-choice,180,811099,0.0-76.0-0.15,FALSE,FALSE,TRUE,FALSE,"""event"",""trial"",""time""
""fullscreenenter"",""5"",""24142""
","
","
","""event"",""trial"",""time""
""fullscreenenter"",""5"",""24142""
","
",127.48000000277534,NA,48,NA,NA,3000,1,NA,NA,images/earth.jpg,images/rocket1,images/rocket2,null,images/rocket1,NA,1,real,null,2,NA,NA,NA,sub93
d3-animate-choice,181,814257,0.0-76.0-1.15,FALSE,FALSE,TRUE,FALSE,"""event"",""trial"",""time""
""fullscreenenter"",""5"",""24142""
","
","
","""event"",""trial"",""time""
""fullscreenenter"",""5"",""24142""
","
",1151.7200000017183,NA,48,NA,NA,3000,1,NA,NA,images/purpleplanet.jpg,images/alien4,images/alien3,images/rocket1,images/alien4,images/t.png,2,real,true,2,common,1,2020-06-26T18:09:12Z,sub93
two-step-fixation,182,815262,0.0-76.0-2.15,FALSE,FALSE,TRUE,FALSE,"""event"",""trial"",""time""
""fullscreenenter"",""5"",""24142""
","
","
","""event"",""trial"",""time""
""fullscreenenter"",""5"",""24142""
","
",NA,images/earth.jpg,NA,NA,NA,NA,NA,NA,NA,NA,NA,NA,NA,NA,NA,fixation,NA,NA,NA,NA,NA,NA,sub93
d3-animate-choice,183,817946,0.0-76.0-0.16,FALSE,FALSE,TRUE,FALSE,"""event"",""trial"",""time""
""fullscreenenter"",""5"",""24142""
","
","
","""event"",""trial"",""time""
""fullscreenenter"",""5"",""24142""
","
",678.2949999979464,NA,49,NA,NA,3000,1,NA,NA,images/earth.jpg,images/rocket1,images/rocket2,null,images/rocket2,NA,1,real,null,1,NA,NA,NA,sub93
d3-animate-choice,184,820579,0.0-76.0-1.16,FALSE,FALSE,TRUE,FALSE,"""event"",""trial"",""time""
""fullscreenenter"",""5"",""24142""
","
","
","""event"",""trial"",""time""
""fullscreenenter"",""5"",""24142""
","
",616.3850000011735,NA,48,NA,NA,3000,1,NA,NA,images/redplanet1.jpg,images/alien2,images/alien1,images/rocket2,images/alien2,images/t.png,2,real,true,2,common,1,2020-06-26T18:09:18Z,sub93
two-step-fixation,185,821582,0.0-76.0-2.16,FALSE,FALSE,TRUE,FALSE,"""event"",""trial"",""time""
""fullscreenenter"",""5"",""24142""
","
","
","""event"",""trial"",""time""
""fullscreenenter"",""5"",""24142""
","
",NA,images/earth.jpg,NA,NA,NA,NA,NA,NA,NA,NA,NA,NA,NA,NA,NA,fixation,NA,NA,NA,NA,NA,NA,sub93
d3-animate-choice,186,824082,0.0-76.0-0.17,FALSE,FALSE,TRUE,FALSE,"""event"",""trial"",""time""
""fullscreenenter"",""5"",""24142""
","
","
","""event"",""trial"",""time""
""fullscreenenter"",""5"",""24142""
","
",494.9849999975413,NA,48,NA,NA,3000,1,NA,NA,images/earth.jpg,images/rocket1,images/rocket2,null,images/rocket1,NA,1,real,null,2,NA,NA,NA,sub93
d3-animate-choice,187,826992,0.0-76.0-1.17,FALSE,FALSE,TRUE,FALSE,"""event"",""trial"",""time""
""fullscreenenter"",""5"",""24142""
","
","
","""event"",""trial"",""time""
""fullscreenenter"",""5"",""24142""
","
",903.9049999990966,NA,48,NA,NA,3000,1,NA,NA,images/purpleplanet.jpg,images/alien4,images/alien3,images/rocket1,images/alien4,images/t.png,2,real,true,2,common,1,2020-06-26T18:09:25Z,sub93
two-step-fixation,188,827996,0.0-76.0-2.17,FALSE,FALSE,TRUE,FALSE,"""event"",""trial"",""time""
""fullscreenenter"",""5"",""24142""
","
","
","""event"",""trial"",""time""
""fullscreenenter"",""5"",""24142""
","
",NA,images/earth.jpg,NA,NA,NA,NA,NA,NA,NA,NA,NA,NA,NA,NA,NA,fixation,NA,NA,NA,NA,NA,NA,sub93
d3-animate-choice,189,830884,0.0-76.0-0.18,FALSE,FALSE,TRUE,FALSE,"""event"",""trial"",""time""
""fullscreenenter"",""5"",""24142""
","
","
","""event"",""trial"",""time""
""fullscreenenter"",""5"",""24142""
","
",883.7149999963585,NA,49,NA,NA,3000,1,NA,NA,images/earth.jpg,images/rocket1,images/rocket2,null,images/rocket2,NA,1,real,null,1,NA,NA,NA,sub93
d3-animate-choice,190,833558,0.0-76.0-1.18,FALSE,FALSE,TRUE,FALSE,"""event"",""trial"",""time""
""fullscreenenter"",""5"",""24142""
","
","
","""event"",""trial"",""time""
""fullscreenenter"",""5"",""24142""
","
",669.8300000061281,NA,49,NA,NA,3000,1,NA,NA,images/redplanet1.jpg,images/alien2,images/alien1,images/rocket2,images/alien1,images/t.png,2,real,true,1,common,1,2020-06-26T18:09:31Z,sub93
two-step-fixation,191,834561,0.0-76.0-2.18,FALSE,FALSE,TRUE,FALSE,"""event"",""trial"",""time""
""fullscreenenter"",""5"",""24142""
","
","
","""event"",""trial"",""time""
""fullscreenenter"",""5"",""24142""
","
",NA,images/earth.jpg,NA,NA,NA,NA,NA,NA,NA,NA,NA,NA,NA,NA,NA,fixation,NA,NA,NA,NA,NA,NA,sub93
d3-animate-choice,192,837092,0.0-76.0-0.19,FALSE,FALSE,TRUE,FALSE,"""event"",""trial"",""time""
""fullscreenenter"",""5"",""24142""
","
","
","""event"",""trial"",""time""
""fullscreenenter"",""5"",""24142""
","
",525.8449999964796,NA,48,NA,NA,3000,1,NA,NA,images/earth.jpg,images/rocket1,images/rocket2,null,images/rocket1,NA,1,real,null,2,NA,NA,NA,sub93
d3-animate-choice,193,839962,0.0-76.0-1.19,FALSE,FALSE,TRUE,FALSE,"""event"",""trial"",""time""
""fullscreenenter"",""5"",""24142""
","
","
","""event"",""trial"",""time""
""fullscreenenter"",""5"",""24142""
","
",865.8500000019558,NA,49,NA,NA,3000,1,NA,NA,images/purpleplanet.jpg,images/alien4,images/alien3,images/rocket1,images/alien3,images/nothing.png,2,real,true,1,common,0,2020-06-26T18:09:38Z,sub93
two-step-fixation,194,840967,0.0-76.0-2.19,FALSE,FALSE,TRUE,FALSE,"""event"",""trial"",""time""
""fullscreenenter"",""5"",""24142""
","
","
","""event"",""trial"",""time""
""fullscreenenter"",""5"",""24142""
","
",NA,images/earth.jpg,NA,NA,NA,NA,NA,NA,NA,NA,NA,NA,NA,NA,NA,fixation,NA,NA,NA,NA,NA,NA,sub93
d3-animate-choice,195,843425,0.0-76.0-0.20,FALSE,FALSE,TRUE,FALSE,"""event"",""trial"",""time""
""fullscreenenter"",""5"",""24142""
","
","
","""event"",""trial"",""time""
""fullscreenenter"",""5"",""24142""
","
",453.69499999657273,NA,49,NA,NA,3000,1,NA,NA,images/earth.jpg,images/rocket1,images/rocket2,null,images/rocket2,NA,1,real,null,1,NA,NA,NA,sub93
d3-animate-choice,196,845984,0.0-76.0-1.20,FALSE,FALSE,TRUE,FALSE,"""event"",""trial"",""time""
""fullscreenenter"",""5"",""24142""
","
","
","""event"",""trial"",""time""
""fullscreenenter"",""5"",""24142""
","
",554.2649999987334,NA,48,NA,NA,3000,1,NA,NA,images/purpleplanet.jpg,images/alien4,images/alien3,images/rocket2,images/alien4,images/nothing.png,2,real,false,2,rare,0,2020-06-26T18:09:44Z,sub93
two-step-fixation,197,846990,0.0-76.0-2.20,FALSE,FALSE,TRUE,FALSE,"""event"",""trial"",""time""
""fullscreenenter"",""5"",""24142""
","
","
","""event"",""trial"",""time""
""fullscreenenter"",""5"",""24142""
","
",NA,images/earth.jpg,NA,NA,NA,NA,NA,NA,NA,NA,NA,NA,NA,NA,NA,fixation,NA,NA,NA,NA,NA,NA,sub93
d3-animate-choice,198,849479,0.0-76.0-0.21,FALSE,FALSE,TRUE,FALSE,"""event"",""trial"",""time""
""fullscreenenter"",""5"",""24142""
","
","
","""event"",""trial"",""time""
""fullscreenenter"",""5"",""24142""
","
",482.1599999994505,NA,48,NA,NA,3000,1,NA,NA,images/earth.jpg,images/rocket1,images/rocket2,null,images/rocket1,NA,1,real,null,2,NA,NA,NA,sub93
d3-animate-choice,199,852008,0.0-76.0-1.21,FALSE,FALSE,TRUE,FALSE,"""event"",""trial"",""time""
""fullscreenenter"",""5"",""24142""
","
","
","""event"",""trial"",""time""
""fullscreenenter"",""5"",""24142""
","
",524.040000003879,NA,49,NA,NA,3000,1,NA,NA,images/purpleplanet.jpg,images/alien4,images/alien3,images/rocket1,images/alien3,images/nothing.png,2,real,true,1,common,0,2020-06-26T18:09:50Z,sub93
two-step-fixation,200,853014,0.0-76.0-2.21,FALSE,FALSE,TRUE,FALSE,"""event"",""trial"",""time""
""fullscreenenter"",""5"",""24142""
","
","
","""event"",""trial"",""time""
""fullscreenenter"",""5"",""24142""
","
",NA,images/earth.jpg,NA,NA,NA,NA,NA,NA,NA,NA,NA,NA,NA,NA,NA,fixation,NA,NA,NA,NA,NA,NA,sub93
d3-animate-choice,201,855379,0.0-76.0-0.22,FALSE,FALSE,TRUE,FALSE,"""event"",""trial"",""time""
""fullscreenenter"",""5"",""24142""
","
","
","""event"",""trial"",""time""
""fullscreenenter"",""5"",""24142""
","
",360.2049999971641,NA,48,NA,NA,3000,1,NA,NA,images/earth.jpg,images/rocket1,images/rocket2,null,images/rocket1,NA,1,real,null,2,NA,NA,NA,sub93
d3-animate-choice,202,858479,0.0-76.0-1.22,FALSE,FALSE,TRUE,FALSE,"""event"",""trial"",""time""
""fullscreenenter"",""5"",""24142""
","
","
","""event"",""trial"",""time""
""fullscreenenter"",""5"",""24142""
","
",1096.464999995078,NA,49,NA,NA,3000,1,NA,NA,images/redplanet1.jpg,images/alien2,images/alien1,images/rocket1,images/alien1,images/t.png,2,real,false,1,rare,1,2020-06-26T18:09:56Z,sub93
two-step-fixation,203,859483,0.0-76.0-2.22,FALSE,FALSE,TRUE,FALSE,"""event"",""trial"",""time""
""fullscreenenter"",""5"",""24142""
","
","
","""event"",""trial"",""time""
""fullscreenenter"",""5"",""24142""
","
",NA,images/earth.jpg,NA,NA,NA,NA,NA,NA,NA,NA,NA,NA,NA,NA,NA,fixation,NA,NA,NA,NA,NA,NA,sub93
d3-animate-choice,204,862426,0.0-76.0-0.23,FALSE,FALSE,TRUE,FALSE,"""event"",""trial"",""time""
""fullscreenenter"",""5"",""24142""
","
","
","""event"",""trial"",""time""
""fullscreenenter"",""5"",""24142""
","
",938.7199999983422,NA,49,NA,NA,3000,1,NA,NA,images/earth.jpg,images/rocket1,images/rocket2,null,images/rocket2,NA,1,real,null,1,NA,NA,NA,sub93
d3-animate-choice,205,865117,0.0-76.0-1.23,FALSE,FALSE,TRUE,FALSE,"""event"",""trial"",""time""
""fullscreenenter"",""5"",""24142""
","
","
","""event"",""trial"",""time""
""fullscreenenter"",""5"",""24142""
","
",684.6999999979744,NA,48,NA,NA,3000,1,NA,NA,images/redplanet1.jpg,images/alien2,images/alien1,images/rocket2,images/alien2,images/nothing.png,2,real,true,2,common,0,2020-06-26T18:10:03Z,sub93
two-step-fixation,206,866123,0.0-76.0-2.23,FALSE,FALSE,TRUE,FALSE,"""event"",""trial"",""time""
""fullscreenenter"",""5"",""24142""
","
","
","""event"",""trial"",""time""
""fullscreenenter"",""5"",""24142""
","
",NA,images/earth.jpg,NA,NA,NA,NA,NA,NA,NA,NA,NA,NA,NA,NA,NA,fixation,NA,NA,NA,NA,NA,NA,sub93
d3-animate-choice,207,868212,0.0-76.0-0.24,FALSE,FALSE,TRUE,FALSE,"""event"",""trial"",""time""
""fullscreenenter"",""5"",""24142""
","
","
","""event"",""trial"",""time""
""fullscreenenter"",""5"",""24142""
","
",84.36999999685213,NA,49,NA,NA,3000,1,NA,NA,images/earth.jpg,images/rocket1,images/rocket2,null,images/rocket2,NA,1,real,null,1,NA,NA,NA,sub93
d3-animate-choice,208,870669,0.0-76.0-1.24,FALSE,FALSE,TRUE,FALSE,"""event"",""trial"",""time""
""fullscreenenter"",""5"",""24142""
","
","
","""event"",""trial"",""time""
""fullscreenenter"",""5"",""24142""
","
",452.5450000000419,NA,49,NA,NA,3000,1,481.14499999792315,81,images/redplanet1.jpg,images/alien2,images/alien1,images/rocket2,images/alien1,images/t.png,2,real,true,1,common,1,2020-06-26T18:10:08Z,sub93
two-step-fixation,209,871676,0.0-76.0-2.24,FALSE,FALSE,TRUE,FALSE,"""event"",""trial"",""time""
""fullscreenenter"",""5"",""24142""
","
","
","""event"",""trial"",""time""
""fullscreenenter"",""5"",""24142""
","
",NA,images/earth.jpg,NA,NA,NA,NA,NA,NA,NA,NA,NA,NA,NA,NA,NA,fixation,NA,NA,NA,NA,NA,NA,sub93
d3-animate-choice,210,874185,0.0-76.0-0.25,FALSE,FALSE,TRUE,FALSE,"""event"",""trial"",""time""
""fullscreenenter"",""5"",""24142""
","
","
","""event"",""trial"",""time""
""fullscreenenter"",""5"",""24142""
","
",502.1550000018906,NA,48,NA,NA,3000,1,NA,NA,images/earth.jpg,images/rocket1,images/rocket2,null,images/rocket1,NA,1,real,null,2,NA,NA,NA,sub93
d3-animate-choice,211,876808,0.0-76.0-1.25,FALSE,FALSE,TRUE,FALSE,"""event"",""trial"",""time""
""fullscreenenter"",""5"",""24142""
","
","
","""event"",""trial"",""time""
""fullscreenenter"",""5"",""24142""
","
",618.5299999996787,NA,49,NA,NA,3000,1,NA,NA,images/redplanet1.jpg,images/alien2,images/alien1,images/rocket1,images/alien1,images/t.png,2,real,false,1,rare,1,2020-06-26T18:10:14Z,sub93
two-step-fixation,212,877812,0.0-76.0-2.25,FALSE,FALSE,TRUE,FALSE,"""event"",""trial"",""time""
""fullscreenenter"",""5"",""24142""
","
","
","""event"",""trial"",""time""
""fullscreenenter"",""5"",""24142""
","
",NA,images/earth.jpg,NA,NA,NA,NA,NA,NA,NA,NA,NA,NA,NA,NA,NA,fixation,NA,NA,NA,NA,NA,NA,sub93
d3-animate-choice,213,881593,0.0-76.0-0.26,FALSE,FALSE,TRUE,FALSE,"""event"",""trial"",""time""
""fullscreenenter"",""5"",""24142""
","
","
","""event"",""trial"",""time""
""fullscreenenter"",""5"",""24142""
","
",1776.679999995511,NA,49,NA,NA,3000,1,NA,NA,images/earth.jpg,images/rocket1,images/rocket2,null,images/rocket2,NA,1,real,null,1,NA,NA,NA,sub93
d3-animate-choice,214,884196,0.0-76.0-1.26,FALSE,FALSE,TRUE,FALSE,"""event"",""trial"",""time""
""fullscreenenter"",""5"",""24142""
","
","
","""event"",""trial"",""time""
""fullscreenenter"",""5"",""24142""
","
",595.9199999998091,NA,49,NA,NA,3000,1,NA,NA,images/redplanet1.jpg,images/alien2,images/alien1,images/rocket2,images/alien1,images/t.png,2,real,true,1,common,1,2020-06-26T18:10:22Z,sub93
two-step-fixation,215,885202,0.0-76.0-2.26,FALSE,FALSE,TRUE,FALSE,"""event"",""trial"",""time""
""fullscreenenter"",""5"",""24142""
","
","
","""event"",""trial"",""time""
""fullscreenenter"",""5"",""24142""
","
",NA,images/earth.jpg,NA,NA,NA,NA,NA,NA,NA,NA,NA,NA,NA,NA,NA,fixation,NA,NA,NA,NA,NA,NA,sub93
d3-animate-choice,216,887756,0.0-76.0-0.27,FALSE,FALSE,TRUE,FALSE,"""event"",""trial"",""time""
""fullscreenenter"",""5"",""24142""
","
","
","""event"",""trial"",""time""
""fullscreenenter"",""5"",""24142""
","
",549.1099999998696,NA,48,NA,NA,3000,1,NA,NA,images/earth.jpg,images/rocket1,images/rocket2,null,images/rocket1,NA,1,real,null,2,NA,NA,NA,sub93
d3-animate-choice,217,890535,0.0-76.0-1.27,FALSE,FALSE,TRUE,FALSE,"""event"",""trial"",""time""
""fullscreenenter"",""5"",""24142""
","
","
","""event"",""trial"",""time""
""fullscreenenter"",""5"",""24142""
","
",774.7000000016997,NA,49,NA,NA,3000,1,NA,NA,images/redplanet1.jpg,images/alien2,images/alien1,images/rocket1,images/alien1,images/t.png,2,real,false,1,rare,1,2020-06-26T18:10:28Z,sub93
two-step-fixation,218,891540,0.0-76.0-2.27,FALSE,FALSE,TRUE,FALSE,"""event"",""trial"",""time""
""fullscreenenter"",""5"",""24142""
","
","
","""event"",""trial"",""time""
""fullscreenenter"",""5"",""24142""
","
",NA,images/earth.jpg,NA,NA,NA,NA,NA,NA,NA,NA,NA,NA,NA,NA,NA,fixation,NA,NA,NA,NA,NA,NA,sub93
d3-animate-choice,219,894044,0.0-76.0-0.28,FALSE,FALSE,TRUE,FALSE,"""event"",""trial"",""time""
""fullscreenenter"",""5"",""24142""
","
","
","""event"",""trial"",""time""
""fullscreenenter"",""5"",""24142""
","
",498.4349999940023,NA,49,NA,NA,3000,1,NA,NA,images/earth.jpg,images/rocket1,images/rocket2,null,images/rocket2,NA,1,real,null,1,NA,NA,NA,sub93
d3-animate-choice,220,896563,0.0-76.0-1.28,FALSE,FALSE,TRUE,FALSE,"""event"",""trial"",""time""
""fullscreenenter"",""5"",""24142""
","
","
","""event"",""trial"",""time""
""fullscreenenter"",""5"",""24142""
","
",515.480000001844,NA,48,NA,NA,3000,1,NA,NA,images/redplanet1.jpg,images/alien2,images/alien1,images/rocket2,images/alien2,images/t.png,2,real,true,2,common,1,2020-06-26T18:10:34Z,sub93
two-step-fixation,221,897568,0.0-76.0-2.28,FALSE,FALSE,TRUE,FALSE,"""event"",""trial"",""time""
""fullscreenenter"",""5"",""24142""
","
","
","""event"",""trial"",""time""
""fullscreenenter"",""5"",""24142""
","
",NA,images/earth.jpg,NA,NA,NA,NA,NA,NA,NA,NA,NA,NA,NA,NA,NA,fixation,NA,NA,NA,NA,NA,NA,sub93
d3-animate-choice,222,900086,0.0-76.0-0.29,FALSE,FALSE,TRUE,FALSE,"""event"",""trial"",""time""
""fullscreenenter"",""5"",""24142""
","
","
","""event"",""trial"",""time""
""fullscreenenter"",""5"",""24142""
","
",511.6599999964237,NA,48,NA,NA,3000,1,NA,NA,images/earth.jpg,images/rocket1,images/rocket2,null,images/rocket1,NA,1,real,null,2,NA,NA,NA,sub93
d3-animate-choice,223,902623,0.0-76.0-1.29,FALSE,FALSE,TRUE,FALSE,"""event"",""trial"",""time""
""fullscreenenter"",""5"",""24142""
","
","
","""event"",""trial"",""time""
""fullscreenenter"",""5"",""24142""
","
",532.329999994603,NA,49,NA,NA,3000,1,NA,NA,images/purpleplanet.jpg,images/alien4,images/alien3,images/rocket1,images/alien3,images/nothing.png,2,real,true,1,common,0,2020-06-26T18:10:40Z,sub93
two-step-fixation,224,903627,0.0-76.0-2.29,FALSE,FALSE,TRUE,FALSE,"""event"",""trial"",""time""
""fullscreenenter"",""5"",""24142""
","
","
","""event"",""trial"",""time""
""fullscreenenter"",""5"",""24142""
","
",NA,images/earth.jpg,NA,NA,NA,NA,NA,NA,NA,NA,NA,NA,NA,NA,NA,fixation,NA,NA,NA,NA,NA,NA,sub93
d3-animate-choice,225,905914,0.0-76.0-0.30,FALSE,FALSE,TRUE,FALSE,"""event"",""trial"",""time""
""fullscreenenter"",""5"",""24142""
","
","
","""event"",""trial"",""time""
""fullscreenenter"",""5"",""24142""
","
",282.3149999968009,NA,48,NA,NA,3000,1,NA,NA,images/earth.jpg,images/rocket1,images/rocket2,null,images/rocket1,NA,1,real,null,2,NA,NA,NA,sub93
d3-animate-choice,226,908365,0.0-76.0-1.30,FALSE,FALSE,TRUE,FALSE,"""event"",""trial"",""time""
""fullscreenenter"",""5"",""24142""
","
","
","""event"",""trial"",""time""
""fullscreenenter"",""5"",""24142""
","
",446.59500000125263,NA,48,NA,NA,3000,1,NA,NA,images/purpleplanet.jpg,images/alien4,images/alien3,images/rocket1,images/alien4,images/t.png,2,real,true,2,common,1,2020-06-26T18:10:46Z,sub93
two-step-fixation,227,909369,0.0-76.0-2.30,FALSE,FALSE,TRUE,FALSE,"""event"",""trial"",""time""
""fullscreenenter"",""5"",""24142""
","
","
","""event"",""trial"",""time""
""fullscreenenter"",""5"",""24142""
","
",NA,images/earth.jpg,NA,NA,NA,NA,NA,NA,NA,NA,NA,NA,NA,NA,NA,fixation,NA,NA,NA,NA,NA,NA,sub93
d3-animate-choice,228,911725,0.0-76.0-0.31,FALSE,FALSE,TRUE,FALSE,"""event"",""trial"",""time""
""fullscreenenter"",""5"",""24142""
","
","
","""event"",""trial"",""time""
""fullscreenenter"",""5"",""24142""
","
",352.8000000005122,NA,48,NA,NA,3000,1,NA,NA,images/earth.jpg,images/rocket1,images/rocket2,null,images/rocket1,NA,1,real,null,2,NA,NA,NA,sub93
d3-animate-choice,229,914384,0.0-76.0-1.31,FALSE,FALSE,TRUE,FALSE,"""event"",""trial"",""time""
""fullscreenenter"",""5"",""24142""
","
","
","""event"",""trial"",""time""
""fullscreenenter"",""5"",""24142""
","
",654.4500000018161,NA,48,NA,NA,3000,1,NA,NA,images/purpleplanet.jpg,images/alien4,images/alien3,images/rocket1,images/alien4,images/t.png,2,real,true,2,common,1,2020-06-26T18:10:52Z,sub93
two-step-fixation,230,915388,0.0-76.0-2.31,FALSE,FALSE,TRUE,FALSE,"""event"",""trial"",""time""
""fullscreenenter"",""5"",""24142""
","
","
","""event"",""trial"",""time""
""fullscreenenter"",""5"",""24142""
","
",NA,images/earth.jpg,NA,NA,NA,NA,NA,NA,NA,NA,NA,NA,NA,NA,NA,fixation,NA,NA,NA,NA,NA,NA,sub93
d3-animate-choice,231,917844,0.0-76.0-0.32,FALSE,FALSE,TRUE,FALSE,"""event"",""trial"",""time""
""fullscreenenter"",""5"",""24142""
","
","
","""event"",""trial"",""time""
""fullscreenenter"",""5"",""24142""
","
",445.8749999976717,NA,49,NA,NA,3000,1,NA,NA,images/earth.jpg,images/rocket1,images/rocket2,null,images/rocket2,NA,1,real,null,1,NA,NA,NA,sub93
d3-animate-choice,232,920442,0.0-76.0-1.32,FALSE,FALSE,TRUE,FALSE,"""event"",""trial"",""time""
""fullscreenenter"",""5"",""24142""
","
","
","""event"",""trial"",""time""
""fullscreenenter"",""5"",""24142""
","
",593.2899999971269,NA,48,NA,NA,3000,1,NA,NA,images/redplanet1.jpg,images/alien2,images/alien1,images/rocket2,images/alien2,images/t.png,2,real,true,2,common,1,2020-06-26T18:10:58Z,sub93
two-step-fixation,233,921447,0.0-76.0-2.32,FALSE,FALSE,TRUE,FALSE,"""event"",""trial"",""time""
""fullscreenenter"",""5"",""24142""
","
","
","""event"",""trial"",""time""
""fullscreenenter"",""5"",""24142""
","
",NA,images/earth.jpg,NA,NA,NA,NA,NA,NA,NA,NA,NA,NA,NA,NA,NA,fixation,NA,NA,NA,NA,NA,NA,sub93
d3-animate-choice,234,923949,0.0-76.0-0.33,FALSE,FALSE,TRUE,FALSE,"""event"",""trial"",""time""
""fullscreenenter"",""5"",""24142""
","
","
","""event"",""trial"",""time""
""fullscreenenter"",""5"",""24142""
","
",494.83499999775086,NA,48,NA,NA,3000,1,NA,NA,images/earth.jpg,images/rocket1,images/rocket2,null,images/rocket1,NA,1,real,null,2,NA,NA,NA,sub93
d3-animate-choice,235,926481,0.0-76.0-1.33,FALSE,FALSE,TRUE,FALSE,"""event"",""trial"",""time""
""fullscreenenter"",""5"",""24142""
","
","
","""event"",""trial"",""time""
""fullscreenenter"",""5"",""24142""
","
",528.6950000008801,NA,48,NA,NA,3000,1,NA,NA,images/purpleplanet.jpg,images/alien4,images/alien3,images/rocket1,images/alien4,images/nothing.png,2,real,true,2,common,0,2020-06-26T18:11:04Z,sub93
two-step-fixation,236,927486,0.0-76.0-2.33,FALSE,FALSE,TRUE,FALSE,"""event"",""trial"",""time""
""fullscreenenter"",""5"",""24142""
","
","
","""event"",""trial"",""time""
""fullscreenenter"",""5"",""24142""
","
",NA,images/earth.jpg,NA,NA,NA,NA,NA,NA,NA,NA,NA,NA,NA,NA,NA,fixation,NA,NA,NA,NA,NA,NA,sub93
d3-animate-choice,237,930684,0.0-76.0-0.34,FALSE,FALSE,TRUE,FALSE,"""event"",""trial"",""time""
""fullscreenenter"",""5"",""24142""
","
","
","""event"",""trial"",""time""
""fullscreenenter"",""5"",""24142""
","
",1191.25999999966,NA,49,NA,NA,3000,1,NA,NA,images/earth.jpg,images/rocket1,images/rocket2,null,images/rocket2,NA,1,real,null,1,NA,NA,NA,sub93
d3-animate-choice,238,933311,0.0-76.0-1.34,FALSE,FALSE,TRUE,FALSE,"""event"",""trial"",""time""
""fullscreenenter"",""5"",""24142""
","
","
","""event"",""trial"",""time""
""fullscreenenter"",""5"",""24142""
","
",621.9449999990175,NA,48,NA,NA,3000,1,NA,NA,images/redplanet1.jpg,images/alien2,images/alien1,images/rocket2,images/alien2,images/nothing.png,2,real,true,2,common,0,2020-06-26T18:11:11Z,sub93
two-step-fixation,239,934316,0.0-76.0-2.34,FALSE,FALSE,TRUE,FALSE,"""event"",""trial"",""time""
""fullscreenenter"",""5"",""24142""
","
","
","""event"",""trial"",""time""
""fullscreenenter"",""5"",""24142""
","
",NA,images/earth.jpg,NA,NA,NA,NA,NA,NA,NA,NA,NA,NA,NA,NA,NA,fixation,NA,NA,NA,NA,NA,NA,sub93
d3-animate-choice,240,936653,0.0-76.0-0.35,FALSE,FALSE,TRUE,FALSE,"""event"",""trial"",""time""
""fullscreenenter"",""5"",""24142""
","
","
","""event"",""trial"",""time""
""fullscreenenter"",""5"",""24142""
","
",333.20999999693595,NA,49,NA,NA,3000,1,"1185.2349999970756,1933.8249999999534",4949,images/earth.jpg,images/rocket1,images/rocket2,null,images/rocket2,NA,1,real,null,1,NA,NA,NA,sub93
d3-animate-choice,241,939098,0.0-76.0-1.35,FALSE,FALSE,TRUE,FALSE,"""event"",""trial"",""time""
""fullscreenenter"",""5"",""24142""
","
","
","""event"",""trial"",""time""
""fullscreenenter"",""5"",""24142""
","
",438.675000004936,NA,49,NA,NA,3000,1,NA,NA,images/redplanet1.jpg,images/alien2,images/alien1,images/rocket2,images/alien1,images/nothing.png,2,real,true,1,common,0,2020-06-26T18:11:17Z,sub93
two-step-fixation,242,940104,0.0-76.0-2.35,FALSE,FALSE,TRUE,FALSE,"""event"",""trial"",""time""
""fullscreenenter"",""5"",""24142""
","
","
","""event"",""trial"",""time""
""fullscreenenter"",""5"",""24142""
","
",NA,images/earth.jpg,NA,NA,NA,NA,NA,NA,NA,NA,NA,NA,NA,NA,NA,fixation,NA,NA,NA,NA,NA,NA,sub93
d3-animate-choice,243,942494,0.0-76.0-0.36,FALSE,FALSE,TRUE,FALSE,"""event"",""trial"",""time""
""fullscreenenter"",""5"",""24142""
","
","
","""event"",""trial"",""time""
""fullscreenenter"",""5"",""24142""
","
",383.3999999987427,NA,48,NA,NA,3000,1,NA,NA,images/earth.jpg,images/rocket1,images/rocket2,null,images/rocket1,NA,1,real,null,2,NA,NA,NA,sub93
d3-animate-choice,244,945379,0.0-76.0-1.36,FALSE,FALSE,TRUE,FALSE,"""event"",""trial"",""time""
""fullscreenenter"",""5"",""24142""
","
","
","""event"",""trial"",""time""
""fullscreenenter"",""5"",""24142""
","
",793.9700000061421,NA,48,NA,NA,3000,1,NA,NA,images/redplanet1.jpg,images/alien2,images/alien1,images/rocket1,images/alien2,images/nothing.png,2,real,false,2,rare,0,2020-06-26T18:11:23Z,sub93
two-step-fixation,245,946385,0.0-76.0-2.36,FALSE,FALSE,TRUE,FALSE,"""event"",""trial"",""time""
""fullscreenenter"",""5"",""24142""
","
","
","""event"",""trial"",""time""
""fullscreenenter"",""5"",""24142""
","
",NA,images/earth.jpg,NA,NA,NA,NA,NA,NA,NA,NA,NA,NA,NA,NA,NA,fixation,NA,NA,NA,NA,NA,NA,sub93
d3-animate-choice,246,948798,0.0-76.0-0.37,FALSE,FALSE,TRUE,FALSE,"""event"",""trial"",""time""
""fullscreenenter"",""5"",""24142""
","
","
","""event"",""trial"",""time""
""fullscreenenter"",""5"",""24142""
","
",405.92499999911524,NA,49,NA,NA,3000,1,NA,NA,images/earth.jpg,images/rocket1,images/rocket2,null,images/rocket2,NA,1,real,null,1,NA,NA,NA,sub93
d3-animate-choice,247,952012,0.0-76.0-1.37,FALSE,FALSE,TRUE,FALSE,"""event"",""trial"",""time""
""fullscreenenter"",""5"",""24142""
","
","
","""event"",""trial"",""time""
""fullscreenenter"",""5"",""24142""
","
",1209.564999997383,NA,49,NA,NA,3000,1,NA,NA,images/redplanet1.jpg,images/alien2,images/alien1,images/rocket2,images/alien1,images/nothing.png,2,real,true,1,common,0,2020-06-26T18:11:30Z,sub93
two-step-fixation,248,953016,0.0-76.0-2.37,FALSE,FALSE,TRUE,FALSE,"""event"",""trial"",""time""
""fullscreenenter"",""5"",""24142""
","
","
","""event"",""trial"",""time""
""fullscreenenter"",""5"",""24142""
","
",NA,images/earth.jpg,NA,NA,NA,NA,NA,NA,NA,NA,NA,NA,NA,NA,NA,fixation,NA,NA,NA,NA,NA,NA,sub93
d3-animate-choice,249,955233,0.0-76.0-0.38,FALSE,FALSE,TRUE,FALSE,"""event"",""trial"",""time""
""fullscreenenter"",""5"",""24142""
","
","
","""event"",""trial"",""time""
""fullscreenenter"",""5"",""24142""
","
",211.41999999969266,NA,48,NA,NA,3000,1,NA,NA,images/earth.jpg,images/rocket1,images/rocket2,null,images/rocket1,NA,1,real,null,2,NA,NA,NA,sub93
d3-animate-choice,250,958088,0.0-76.0-1.38,FALSE,FALSE,TRUE,FALSE,"""event"",""trial"",""time""
""fullscreenenter"",""5"",""24142""
","
","
","""event"",""trial"",""time""
""fullscreenenter"",""5"",""24142""
","
",848.2900000016671,NA,48,NA,NA,3000,1,NA,NA,images/purpleplanet.jpg,images/alien4,images/alien3,images/rocket1,images/alien4,images/t.png,2,real,true,2,common,1,2020-06-26T18:11:36Z,sub93
two-step-fixation,251,959092,0.0-76.0-2.38,FALSE,FALSE,TRUE,FALSE,"""event"",""trial"",""time""
""fullscreenenter"",""5"",""24142""
","
","
","""event"",""trial"",""time""
""fullscreenenter"",""5"",""24142""
","
",NA,images/earth.jpg,NA,NA,NA,NA,NA,NA,NA,NA,NA,NA,NA,NA,NA,fixation,NA,NA,NA,NA,NA,NA,sub93
d3-animate-choice,252,961527,0.0-76.0-0.39,FALSE,FALSE,TRUE,FALSE,"""event"",""trial"",""time""
""fullscreenenter"",""5"",""24142""
","
","
","""event"",""trial"",""time""
""fullscreenenter"",""5"",""24142""
","
",428.2450000029057,NA,48,NA,NA,3000,1,NA,NA,images/earth.jpg,images/rocket1,images/rocket2,null,images/rocket1,NA,1,real,null,2,NA,NA,NA,sub93
d3-animate-choice,253,964143,0.0-76.0-1.39,FALSE,FALSE,TRUE,FALSE,"""event"",""trial"",""time""
""fullscreenenter"",""5"",""24142""
","
","
","""event"",""trial"",""time""
""fullscreenenter"",""5"",""24142""
","
",607.6450000037439,NA,48,NA,NA,3000,1,NA,NA,images/purpleplanet.jpg,images/alien4,images/alien3,images/rocket1,images/alien4,images/t.png,2,real,true,2,common,1,2020-06-26T18:11:42Z,sub93
two-step-fixation,254,965148,0.0-76.0-2.39,FALSE,FALSE,TRUE,FALSE,"""event"",""trial"",""time""
""fullscreenenter"",""5"",""24142""
","
","
","""event"",""trial"",""time""
""fullscreenenter"",""5"",""24142""
","
",NA,images/earth.jpg,NA,NA,NA,NA,NA,NA,NA,NA,NA,NA,NA,NA,NA,fixation,NA,NA,NA,NA,NA,NA,sub93
d3-animate-choice,255,967816,0.0-76.0-0.40,FALSE,FALSE,TRUE,FALSE,"""event"",""trial"",""time""
""fullscreenenter"",""5"",""24142""
","
","
","""event"",""trial"",""time""
""fullscreenenter"",""5"",""24142""
","
",664.0650000044843,NA,49,NA,NA,3000,1,NA,NA,images/earth.jpg,images/rocket1,images/rocket2,null,images/rocket2,NA,1,real,null,1,NA,NA,NA,sub93
d3-animate-choice,256,970410,0.0-76.0-1.40,FALSE,FALSE,TRUE,FALSE,"""event"",""trial"",""time""
""fullscreenenter"",""5"",""24142""
","
","
","""event"",""trial"",""time""
""fullscreenenter"",""5"",""24142""
","
",589.9849999987055,NA,48,NA,NA,3000,1,NA,NA,images/purpleplanet.jpg,images/alien4,images/alien3,images/rocket2,images/alien4,images/nothing.png,2,real,false,2,rare,0,2020-06-26T18:11:48Z,sub93
two-step-fixation,257,971415,0.0-76.0-2.40,FALSE,FALSE,TRUE,FALSE,"""event"",""trial"",""time""
""fullscreenenter"",""5"",""24142""
","
","
","""event"",""trial"",""time""
""fullscreenenter"",""5"",""24142""
","
",NA,images/earth.jpg,NA,NA,NA,NA,NA,NA,NA,NA,NA,NA,NA,NA,NA,fixation,NA,NA,NA,NA,NA,NA,sub93
d3-animate-choice,258,974494,0.0-76.0-0.41,FALSE,FALSE,TRUE,FALSE,"""event"",""trial"",""time""
""fullscreenenter"",""5"",""24142""
","
","
","""event"",""trial"",""time""
""fullscreenenter"",""5"",""24142""
","
",1073.375,NA,48,NA,NA,3000,1,NA,NA,images/earth.jpg,images/rocket1,images/rocket2,null,images/rocket1,NA,1,real,null,2,NA,NA,NA,sub93
d3-animate-choice,259,977061,0.0-76.0-1.41,FALSE,FALSE,TRUE,FALSE,"""event"",""trial"",""time""
""fullscreenenter"",""5"",""24142""
","
","
","""event"",""trial"",""time""
""fullscreenenter"",""5"",""24142""
","
",562.769999996759,NA,49,NA,NA,3000,1,NA,NA,images/purpleplanet.jpg,images/alien4,images/alien3,images/rocket1,images/alien3,images/nothing.png,2,real,true,1,common,0,2020-06-26T18:11:55Z,sub93
two-step-fixation,260,978065,0.0-76.0-2.41,FALSE,FALSE,TRUE,FALSE,"""event"",""trial"",""time""
""fullscreenenter"",""5"",""24142""
","
","
","""event"",""trial"",""time""
""fullscreenenter"",""5"",""24142""
","
",NA,images/earth.jpg,NA,NA,NA,NA,NA,NA,NA,NA,NA,NA,NA,NA,NA,fixation,NA,NA,NA,NA,NA,NA,sub93
d3-animate-choice,261,981492,0.0-76.0-0.42,FALSE,FALSE,TRUE,FALSE,"""event"",""trial"",""time""
""fullscreenenter"",""5"",""24142""
","
","
","""event"",""trial"",""time""
""fullscreenenter"",""5"",""24142""
","
",1422.4600000015926,NA,48,NA,NA,3000,1,NA,NA,images/earth.jpg,images/rocket1,images/rocket2,null,images/rocket1,NA,1,real,null,2,NA,NA,NA,sub93
d3-animate-choice,262,984072,0.0-76.0-1.42,FALSE,FALSE,TRUE,FALSE,"""event"",""trial"",""time""
""fullscreenenter"",""5"",""24142""
","
","
","""event"",""trial"",""time""
""fullscreenenter"",""5"",""24142""
","
",576.0300000037532,NA,48,NA,NA,3000,1,NA,NA,images/purpleplanet.jpg,images/alien4,images/alien3,images/rocket1,images/alien4,images/t.png,2,real,true,2,common,1,2020-06-26T18:12:02Z,sub93
two-step-fixation,263,985077,0.0-76.0-2.42,FALSE,FALSE,TRUE,FALSE,"""event"",""trial"",""time""
""fullscreenenter"",""5"",""24142""
","
","
","""event"",""trial"",""time""
""fullscreenenter"",""5"",""24142""
","
",NA,images/earth.jpg,NA,NA,NA,NA,NA,NA,NA,NA,NA,NA,NA,NA,NA,fixation,NA,NA,NA,NA,NA,NA,sub93
d3-animate-choice,264,987829,0.0-76.0-0.43,FALSE,FALSE,TRUE,FALSE,"""event"",""trial"",""time""
""fullscreenenter"",""5"",""24142""
","
","
","""event"",""trial"",""time""
""fullscreenenter"",""5"",""24142""
","
",747.4399999991292,NA,49,NA,NA,3000,1,NA,NA,images/earth.jpg,images/rocket1,images/rocket2,null,images/rocket2,NA,1,real,null,1,NA,NA,NA,sub93
d3-animate-choice,265,991270,0.0-76.0-1.43,FALSE,FALSE,TRUE,FALSE,"""event"",""trial"",""time""
""fullscreenenter"",""5"",""24142""
","
","
","""event"",""trial"",""time""
""fullscreenenter"",""5"",""24142""
","
",1435.0850000046194,NA,48,NA,NA,3000,1,NA,NA,images/redplanet1.jpg,images/alien2,images/alien1,images/rocket2,images/alien2,images/t.png,2,real,true,2,common,1,2020-06-26T18:12:09Z,sub93
two-step-fixation,266,992276,0.0-76.0-2.43,FALSE,FALSE,TRUE,FALSE,"""event"",""trial"",""time""
""fullscreenenter"",""5"",""24142""
","
","
","""event"",""trial"",""time""
""fullscreenenter"",""5"",""24142""
","
",NA,images/earth.jpg,NA,NA,NA,NA,NA,NA,NA,NA,NA,NA,NA,NA,NA,fixation,NA,NA,NA,NA,NA,NA,sub93
d3-animate-choice,267,994708,0.0-76.0-0.44,FALSE,FALSE,TRUE,FALSE,"""event"",""trial"",""time""
""fullscreenenter"",""5"",""24142""
","
","
","""event"",""trial"",""time""
""fullscreenenter"",""5"",""24142""
","
",426.8850000007078,NA,48,NA,NA,3000,1,NA,NA,images/earth.jpg,images/rocket1,images/rocket2,null,images/rocket1,NA,1,real,null,2,NA,NA,NA,sub93
d3-animate-choice,268,997500,0.0-76.0-1.44,FALSE,FALSE,TRUE,FALSE,"""event"",""trial"",""time""
""fullscreenenter"",""5"",""24142""
","
","
","""event"",""trial"",""time""
""fullscreenenter"",""5"",""24142""
","
",787.7350000052247,NA,49,NA,NA,3000,1,NA,NA,images/redplanet1.jpg,images/alien2,images/alien1,images/rocket1,images/alien1,images/t.png,2,real,false,1,rare,1,2020-06-26T18:12:15Z,sub93
two-step-fixation,269,998505,0.0-76.0-2.44,FALSE,FALSE,TRUE,FALSE,"""event"",""trial"",""time""
""fullscreenenter"",""5"",""24142""
","
","
","""event"",""trial"",""time""
""fullscreenenter"",""5"",""24142""
","
",NA,images/earth.jpg,NA,NA,NA,NA,NA,NA,NA,NA,NA,NA,NA,NA,NA,fixation,NA,NA,NA,NA,NA,NA,sub93
d3-animate-choice,270,1001197,0.0-76.0-0.45,FALSE,FALSE,TRUE,FALSE,"""event"",""trial"",""time""
""fullscreenenter"",""5"",""24142""
","
","
","""event"",""trial"",""time""
""fullscreenenter"",""5"",""24142""
","
",687.3399999968242,NA,48,NA,NA,3000,1,NA,NA,images/earth.jpg,images/rocket1,images/rocket2,null,images/rocket1,NA,1,real,null,2,NA,NA,NA,sub93
d3-animate-choice,271,1003613,0.0-76.0-1.45,FALSE,FALSE,TRUE,FALSE,"""event"",""trial"",""time""
""fullscreenenter"",""5"",""24142""
","
","
","""event"",""trial"",""time""
""fullscreenenter"",""5"",""24142""
","
",412.34499999694526,NA,48,NA,NA,3000,1,NA,NA,images/purpleplanet.jpg,images/alien4,images/alien3,images/rocket1,images/alien4,images/t.png,2,real,true,2,common,1,2020-06-26T18:12:21Z,sub93
two-step-fixation,272,1004619,0.0-76.0-2.45,FALSE,FALSE,TRUE,FALSE,"""event"",""trial"",""time""
""fullscreenenter"",""5"",""24142""
","
","
","""event"",""trial"",""time""
""fullscreenenter"",""5"",""24142""
","
",NA,images/earth.jpg,NA,NA,NA,NA,NA,NA,NA,NA,NA,NA,NA,NA,NA,fixation,NA,NA,NA,NA,NA,NA,sub93
d3-animate-choice,273,1007050,0.0-76.0-0.46,FALSE,FALSE,TRUE,FALSE,"""event"",""trial"",""time""
""fullscreenenter"",""5"",""24142""
","
","
","""event"",""trial"",""time""
""fullscreenenter"",""5"",""24142""
","
",425.4800000053365,NA,49,NA,NA,3000,1,NA,NA,images/earth.jpg,images/rocket1,images/rocket2,null,images/rocket2,NA,1,real,null,1,NA,NA,NA,sub93
d3-animate-choice,274,1010005,0.0-76.0-1.46,FALSE,FALSE,TRUE,FALSE,"""event"",""trial"",""time""
""fullscreenenter"",""5"",""24142""
","
","
","""event"",""trial"",""time""
""fullscreenenter"",""5"",""24142""
","
",949.6450000004843,NA,49,NA,NA,3000,1,NA,NA,images/purpleplanet.jpg,images/alien4,images/alien3,images/rocket2,images/alien3,images/nothing.png,2,real,false,1,rare,0,2020-06-26T18:12:28Z,sub93
two-step-fixation,275,1011009,0.0-76.0-2.46,FALSE,FALSE,TRUE,FALSE,"""event"",""trial"",""time""
""fullscreenenter"",""5"",""24142""
","
","
","""event"",""trial"",""time""
""fullscreenenter"",""5"",""24142""
","
",NA,images/earth.jpg,NA,NA,NA,NA,NA,NA,NA,NA,NA,NA,NA,NA,NA,fixation,NA,NA,NA,NA,NA,NA,sub93
d3-animate-choice,276,1013540,0.0-76.0-0.47,FALSE,FALSE,TRUE,FALSE,"""event"",""trial"",""time""
""fullscreenenter"",""5"",""24142""
","
","
","""event"",""trial"",""time""
""fullscreenenter"",""5"",""24142""
","
",527.2550000008196,NA,48,NA,NA,3000,1,NA,NA,images/earth.jpg,images/rocket1,images/rocket2,null,images/rocket1,NA,1,real,null,2,NA,NA,NA,sub93
d3-animate-choice,277,1016103,0.0-76.0-1.47,FALSE,FALSE,TRUE,FALSE,"""event"",""trial"",""time""
""fullscreenenter"",""5"",""24142""
","
","
","""event"",""trial"",""time""
""fullscreenenter"",""5"",""24142""
","
",557.974999996135,NA,48,NA,NA,3000,1,NA,NA,images/purpleplanet.jpg,images/alien4,images/alien3,images/rocket1,images/alien4,images/t.png,2,real,true,2,common,1,2020-06-26T18:12:34Z,sub93
two-step-fixation,278,1017107,0.0-76.0-2.47,FALSE,FALSE,TRUE,FALSE,"""event"",""trial"",""time""
""fullscreenenter"",""5"",""24142""
","
","
","""event"",""trial"",""time""
""fullscreenenter"",""5"",""24142""
","
",NA,images/earth.jpg,NA,NA,NA,NA,NA,NA,NA,NA,NA,NA,NA,NA,NA,fixation,NA,NA,NA,NA,NA,NA,sub93
d3-animate-choice,279,1019524,0.0-76.0-0.48,FALSE,FALSE,TRUE,FALSE,"""event"",""trial"",""time""
""fullscreenenter"",""5"",""24142""
","
","
","""event"",""trial"",""time""
""fullscreenenter"",""5"",""24142""
","
",413.44999999995343,NA,49,NA,NA,3000,1,NA,NA,images/earth.jpg,images/rocket1,images/rocket2,null,images/rocket2,NA,1,real,null,1,NA,NA,NA,sub93
d3-animate-choice,280,1022140,0.0-76.0-1.48,FALSE,FALSE,TRUE,FALSE,"""event"",""trial"",""time""
""fullscreenenter"",""5"",""24142""
","
","
","""event"",""trial"",""time""
""fullscreenenter"",""5"",""24142""
","
",609.6899999974994,NA,48,NA,NA,3000,1,NA,NA,images/purpleplanet.jpg,images/alien4,images/alien3,images/rocket2,images/alien4,images/nothing.png,2,real,false,2,rare,0,2020-06-26T18:12:40Z,sub93
two-step-fixation,281,1023144,0.0-76.0-2.48,FALSE,FALSE,TRUE,FALSE,"""event"",""trial"",""time""
""fullscreenenter"",""5"",""24142""
","
","
","""event"",""trial"",""time""
""fullscreenenter"",""5"",""24142""
","
",NA,images/earth.jpg,NA,NA,NA,NA,NA,NA,NA,NA,NA,NA,NA,NA,NA,fixation,NA,NA,NA,NA,NA,NA,sub93
d3-animate-choice,282,1025561,0.0-76.0-0.49,FALSE,FALSE,TRUE,FALSE,"""event"",""trial"",""time""
""fullscreenenter"",""5"",""24142""
","
","
","""event"",""trial"",""time""
""fullscreenenter"",""5"",""24142""
","
",412.87000000011176,NA,49,NA,NA,3000,1,NA,NA,images/earth.jpg,images/rocket1,images/rocket2,null,images/rocket2,NA,1,real,null,1,NA,NA,NA,sub93
d3-animate-choice,283,1028474,0.0-76.0-1.49,FALSE,FALSE,TRUE,FALSE,"""event"",""trial"",""time""
""fullscreenenter"",""5"",""24142""
","
","
