trial_type,trial_index,time_elapsed,internal_node_id,rocket_sides,red_planet_first_rocket,red_display_order,purple_display_order,interactions,blur_events,focus_events,fullscreenenter_events,fullscreenexit_events,rt,stimulus,key_press,button_pressed,success,duration,valid_pressed,rts,keys,planet_text,right_text,left_text,center_text,chosen_text,reward_text,trial_stage,practice_trial,transition_type,choice,transition,reward,timestamp,subject_id
pavlovia,0,7,0.0-0.0,TRUE,TRUE,FALSE,TRUE,"
","
","
","
","
",NA,NA,NA,NA,NA,NA,NA,NA,NA,NA,NA,NA,NA,NA,NA,NA,NA,NA,NA,NA,NA,NA,sub92
html-keyboard-response,1,6504,0.0-1.0,TRUE,TRUE,FALSE,TRUE,"
","
","
","
","
",6496,Welcome! Press the space bar to begin.,32,NA,NA,NA,NA,NA,NA,NA,NA,NA,NA,NA,NA,NA,NA,NA,NA,NA,NA,NA,sub92
audio-keyboard-response,2,11636,0.0-2.0,TRUE,TRUE,FALSE,TRUE,"
","
","
","
","
",5131,audio/beep_loop.wav,32,NA,NA,NA,NA,NA,NA,NA,NA,NA,NA,NA,NA,NA,NA,NA,NA,NA,NA,NA,sub92
audio-button-response,3,14641,0.0-3.0,TRUE,TRUE,FALSE,TRUE,"
","
","
","
","
",NaN,audio/fish.mp3,NA,1,NA,NA,NA,NA,NA,NA,NA,NA,NA,NA,NA,NA,NA,NA,NA,NA,NA,NA,sub92
audio-button-response,4,18482,0.0-4.0,TRUE,TRUE,FALSE,TRUE,"""event"",""trial"",""time""
""fullscreenenter"",""5"",""23456""
","
","
","""event"",""trial"",""time""
""fullscreenenter"",""5"",""23456""
","
",NaN,audio/tiger.mp3,NA,4,NA,NA,NA,NA,NA,NA,NA,NA,NA,NA,NA,NA,NA,NA,NA,NA,NA,NA,sub92
fullscreen,5,24189,0.0-5.0,TRUE,TRUE,FALSE,TRUE,"""event"",""trial"",""time""
""fullscreenenter"",""5"",""23456""
","
","
","""event"",""trial"",""time""
""fullscreenenter"",""5"",""23456""
","
",NA,NA,NA,NA,TRUE,NA,NA,NA,NA,NA,NA,NA,NA,NA,NA,NA,NA,NA,NA,NA,NA,NA,sub92
d3-instructions,6,40275,0.0-6.0,TRUE,TRUE,FALSE,TRUE,"""event"",""trial"",""time""
""fullscreenenter"",""5"",""23456""
","
","
","""event"",""trial"",""time""
""fullscreenenter"",""5"",""23456""
","
",NA,NA,NA,NA,NA,NA,NA,NA,NA,NA,NA,NA,NA,NA,NA,NA,NA,NA,NA,NA,NA,NA,sub92
d3-instructions,7,49405,0.0-7.0,TRUE,TRUE,FALSE,TRUE,"""event"",""trial"",""time""
""fullscreenenter"",""5"",""23456""
","
","
","""event"",""trial"",""time""
""fullscreenenter"",""5"",""23456""
","
",NA,NA,NA,NA,NA,NA,NA,NA,NA,NA,NA,NA,NA,NA,NA,NA,NA,NA,NA,NA,NA,NA,sub92
d3-instructions,8,56917,0.0-8.0,TRUE,TRUE,FALSE,TRUE,"""event"",""trial"",""time""
""fullscreenenter"",""5"",""23456""
","
","
","""event"",""trial"",""time""
""fullscreenenter"",""5"",""23456""
","
",NA,NA,NA,NA,NA,NA,NA,NA,NA,NA,NA,NA,NA,NA,NA,NA,NA,NA,NA,NA,NA,NA,sub92
d3-instructions,9,68687,0.0-9.0,TRUE,TRUE,FALSE,TRUE,"""event"",""trial"",""time""
""fullscreenenter"",""5"",""23456""
","
","
","""event"",""trial"",""time""
""fullscreenenter"",""5"",""23456""
","
",NA,NA,NA,NA,NA,NA,NA,NA,NA,NA,NA,NA,NA,NA,NA,NA,NA,NA,NA,NA,NA,NA,sub92
d3-instructions,10,88420,0.0-10.0,TRUE,TRUE,FALSE,TRUE,"""event"",""trial"",""time""
""fullscreenenter"",""5"",""23456""
","
","
","""event"",""trial"",""time""
""fullscreenenter"",""5"",""23456""
","
",NA,NA,NA,NA,NA,NA,NA,NA,NA,NA,NA,NA,NA,NA,NA,NA,NA,NA,NA,NA,NA,NA,sub92
d3-animate-choice,11,91837,0.0-11.0,TRUE,TRUE,FALSE,TRUE,"""event"",""trial"",""time""
""fullscreenenter"",""5"",""23456""
","
","
","""event"",""trial"",""time""
""fullscreenenter"",""5"",""23456""
","
",1394,NA,49,NA,NA,3000,1,21033253,4848,images/tutgreenplanet.jpg,images/tutalien1,images/tutalien2,null,images/tutalien2,NA,NA,practice,null,NA,NA,NA,NA,sub92
d3-animate-choice,12,94476,0.0-12.0,TRUE,TRUE,FALSE,TRUE,"""event"",""trial"",""time""
""fullscreenenter"",""5"",""23456""
","
","
","""event"",""trial"",""time""
""fullscreenenter"",""5"",""23456""
","
",624,NA,48,NA,NA,3000,1,1948,48,images/tutgreenplanet.jpg,images/tutalien1,images/tutalien2,null,images/tutalien1,NA,NA,practice,null,NA,NA,NA,NA,sub92
d3-animate-choice,13,96696,0.0-13.0,TRUE,TRUE,FALSE,TRUE,"""event"",""trial"",""time""
""fullscreenenter"",""5"",""23456""
","
","
","""event"",""trial"",""time""
""fullscreenenter"",""5"",""23456""
","
",206,NA,49,NA,NA,3000,1,103813781905,494848,images/tutgreenplanet.jpg,images/tutalien1,images/tutalien2,null,images/tutalien2,NA,NA,practice,null,NA,NA,NA,NA,sub92
d3-animate-choice,14,100996,0.0-14.0,TRUE,TRUE,FALSE,TRUE,"""event"",""trial"",""time""
""fullscreenenter"",""5"",""23456""
","
","
","""event"",""trial"",""time""
""fullscreenenter"",""5"",""23456""
","
",2288,NA,49,NA,NA,3000,1,23543480,4849,images/tutgreenplanet.jpg,images/tutalien1,images/tutalien2,null,images/tutalien2,NA,NA,practice,null,NA,NA,NA,NA,sub92
d3-instructions,15,109539,0.0-15.0,TRUE,TRUE,FALSE,TRUE,"""event"",""trial"",""time""
""fullscreenenter"",""5"",""23456""
","
","
","""event"",""trial"",""time""
""fullscreenenter"",""5"",""23456""
","
",NA,NA,NA,NA,NA,NA,NA,NA,NA,NA,NA,NA,NA,NA,NA,NA,NA,NA,NA,NA,NA,NA,sub92
d3-instructions,16,116409,0.0-16.0,TRUE,TRUE,FALSE,TRUE,"""event"",""trial"",""time""
""fullscreenenter"",""5"",""23456""
","
","
","""event"",""trial"",""time""
""fullscreenenter"",""5"",""23456""
","
",NA,NA,NA,NA,NA,NA,NA,NA,NA,NA,NA,NA,NA,NA,NA,NA,NA,NA,NA,NA,NA,NA,sub92
d3-instructions,17,124799,0.0-17.0,TRUE,TRUE,FALSE,TRUE,"""event"",""trial"",""time""
""fullscreenenter"",""5"",""23456""
","
","
","""event"",""trial"",""time""
""fullscreenenter"",""5"",""23456""
","
",NA,NA,NA,NA,NA,NA,NA,NA,NA,NA,NA,NA,NA,NA,NA,NA,NA,NA,NA,NA,NA,NA,sub92
d3-instructions,18,137750,0.0-18.0,TRUE,TRUE,FALSE,TRUE,"""event"",""trial"",""time""
""fullscreenenter"",""5"",""23456""
","
","
","""event"",""trial"",""time""
""fullscreenenter"",""5"",""23456""
","
",NA,NA,NA,NA,NA,NA,NA,NA,NA,NA,NA,NA,NA,NA,NA,NA,NA,NA,NA,NA,NA,NA,sub92
d3-instructions,19,152111,0.0-19.0,TRUE,TRUE,FALSE,TRUE,"""event"",""trial"",""time""
""fullscreenenter"",""5"",""23456""
","
","
","""event"",""trial"",""time""
""fullscreenenter"",""5"",""23456""
","
",NA,NA,NA,NA,NA,NA,NA,NA,NA,NA,NA,NA,NA,NA,NA,NA,NA,NA,NA,NA,NA,NA,sub92
d3-animate-choice,20,154887,0.0-20.0,TRUE,TRUE,FALSE,TRUE,"""event"",""trial"",""time""
""fullscreenenter"",""5"",""23456""
","
","
","""event"",""trial"",""time""
""fullscreenenter"",""5"",""23456""
","
",760,NA,49,NA,NA,3000,1,14912348,4949,images/tutyellowplanet.jpg,null,images/tutalien3,null,images/tutalien3,images/t.png,NA,practice,null,NA,NA,NA,NA,sub92
d3-animate-choice,21,158056,0.0-21.0,TRUE,TRUE,FALSE,TRUE,"""event"",""trial"",""time""
""fullscreenenter"",""5"",""23456""
","
","
","""event"",""trial"",""time""
""fullscreenenter"",""5"",""23456""
","
",1152,NA,49,NA,NA,3000,1,NA,NA,images/tutyellowplanet.jpg,null,images/tutalien3,null,images/tutalien3,images/t.png,NA,practice,null,NA,NA,NA,NA,sub92
d3-animate-choice,22,160666,0.0-22.0,TRUE,TRUE,FALSE,TRUE,"""event"",""trial"",""time""
""fullscreenenter"",""5"",""23456""
","
","
","""event"",""trial"",""time""
""fullscreenenter"",""5"",""23456""
","
",595,NA,49,NA,NA,3000,1,2425,49,images/tutyellowplanet.jpg,null,images/tutalien3,null,images/tutalien3,images/t.png,NA,practice,null,NA,NA,NA,NA,sub92
d3-animate-choice,23,163146,0.0-23.0,TRUE,TRUE,FALSE,TRUE,"""event"",""trial"",""time""
""fullscreenenter"",""5"",""23456""
","
","
","""event"",""trial"",""time""
""fullscreenenter"",""5"",""23456""
","
",464,NA,49,NA,NA,3000,1,2420,49,images/tutyellowplanet.jpg,null,images/tutalien3,null,images/tutalien3,images/nothing.png,NA,practice,null,NA,NA,NA,NA,sub92
d3-animate-choice,24,165626,0.0-24.0,TRUE,TRUE,FALSE,TRUE,"""event"",""trial"",""time""
""fullscreenenter"",""5"",""23456""
","
","
","""event"",""trial"",""time""
""fullscreenenter"",""5"",""23456""
","
",455,NA,49,NA,NA,3000,1,2215,49,images/tutyellowplanet.jpg,null,images/tutalien3,null,images/tutalien3,images/t.png,NA,practice,null,NA,NA,NA,NA,sub92
d3-animate-choice,25,168196,0.0-25.0,TRUE,TRUE,FALSE,TRUE,"""event"",""trial"",""time""
""fullscreenenter"",""5"",""23456""
","
","
","""event"",""trial"",""time""
""fullscreenenter"",""5"",""23456""
","
",549,NA,49,NA,NA,3000,1,NA,NA,images/tutyellowplanet.jpg,null,images/tutalien3,null,images/tutalien3,images/t.png,NA,practice,null,NA,NA,NA,NA,sub92
d3-animate-choice,26,170826,0.0-26.0,TRUE,TRUE,FALSE,TRUE,"""event"",""trial"",""time""
""fullscreenenter"",""5"",""23456""
","
","
","""event"",""trial"",""time""
""fullscreenenter"",""5"",""23456""
","
",605,NA,49,NA,NA,3000,1,NA,NA,images/tutyellowplanet.jpg,null,images/tutalien3,null,images/tutalien3,images/t.png,NA,practice,null,NA,NA,NA,NA,sub92
d3-animate-choice,27,173286,0.0-27.0,TRUE,TRUE,FALSE,TRUE,"""event"",""trial"",""time""
""fullscreenenter"",""5"",""23456""
","
","
","""event"",""trial"",""time""
""fullscreenenter"",""5"",""23456""
","
",448,NA,49,NA,NA,3000,1,NA,NA,images/tutyellowplanet.jpg,null,images/tutalien3,null,images/tutalien3,images/t.png,NA,practice,null,NA,NA,NA,NA,sub92
d3-animate-choice,28,175796,0.0-28.0,TRUE,TRUE,FALSE,TRUE,"""event"",""trial"",""time""
""fullscreenenter"",""5"",""23456""
","
","
","""event"",""trial"",""time""
""fullscreenenter"",""5"",""23456""
","
",496,NA,49,NA,NA,3000,1,NA,NA,images/tutyellowplanet.jpg,null,images/tutalien3,null,images/tutalien3,images/t.png,NA,practice,null,NA,NA,NA,NA,sub92
d3-animate-choice,29,178276,0.0-29.0,TRUE,TRUE,FALSE,TRUE,"""event"",""trial"",""time""
""fullscreenenter"",""5"",""23456""
","
","
","""event"",""trial"",""time""
""fullscreenenter"",""5"",""23456""
","
",460,NA,49,NA,NA,3000,1,NA,NA,images/tutyellowplanet.jpg,null,images/tutalien3,null,images/tutalien3,images/t.png,NA,practice,null,NA,NA,NA,NA,sub92
d3-instructions,30,185472,0.0-30.0,TRUE,TRUE,FALSE,TRUE,"""event"",""trial"",""time""
""fullscreenenter"",""5"",""23456""
","
","
","""event"",""trial"",""time""
""fullscreenenter"",""5"",""23456""
","
",NA,NA,NA,NA,NA,NA,NA,NA,NA,NA,NA,NA,NA,NA,NA,NA,NA,NA,NA,NA,NA,NA,sub92
d3-instructions,31,195686,0.0-31.0,TRUE,TRUE,FALSE,TRUE,"""event"",""trial"",""time""
""fullscreenenter"",""5"",""23456""
","
","
","""event"",""trial"",""time""
""fullscreenenter"",""5"",""23456""
","
",NA,NA,NA,NA,NA,NA,NA,NA,NA,NA,NA,NA,NA,NA,NA,NA,NA,NA,NA,NA,NA,NA,sub92
d3-instructions,32,203236,0.0-32.0,TRUE,TRUE,FALSE,TRUE,"""event"",""trial"",""time""
""fullscreenenter"",""5"",""23456""
","
","
","""event"",""trial"",""time""
""fullscreenenter"",""5"",""23456""
","
",NA,NA,NA,NA,NA,NA,NA,NA,NA,NA,NA,NA,NA,NA,NA,NA,NA,NA,NA,NA,NA,NA,sub92
d3-instructions,33,214497,0.0-33.0,TRUE,TRUE,FALSE,TRUE,"""event"",""trial"",""time""
""fullscreenenter"",""5"",""23456""
","
","
","""event"",""trial"",""time""
""fullscreenenter"",""5"",""23456""
","
",NA,NA,NA,NA,NA,NA,NA,NA,NA,NA,NA,NA,NA,NA,NA,NA,NA,NA,NA,NA,NA,NA,sub92
d3-animate-choice,34,218206,0.0-34.0,TRUE,TRUE,FALSE,TRUE,"""event"",""trial"",""time""
""fullscreenenter"",""5"",""23456""
","
","
","""event"",""trial"",""time""
""fullscreenenter"",""5"",""23456""
","
",1686,NA,49,NA,NA,3000,1,NA,NA,images/tutgreenplanet.jpg,images/tutalien1,images/tutalien2,null,images/tutalien2,images/nothing.png,NA,practice,null,NA,NA,NA,NA,sub92
d3-animate-choice,35,221246,0.0-35.0,TRUE,TRUE,FALSE,TRUE,"""event"",""trial"",""time""
""fullscreenenter"",""5"",""23456""
","
","
","""event"",""trial"",""time""
""fullscreenenter"",""5"",""23456""
","
",1016,NA,48,NA,NA,3000,1,NA,NA,images/tutgreenplanet.jpg,images/tutalien1,images/tutalien2,null,images/tutalien1,images/nothing.png,NA,practice,null,NA,NA,NA,NA,sub92
d3-animate-choice,36,223665,0.0-36.0,TRUE,TRUE,FALSE,TRUE,"""event"",""trial"",""time""
""fullscreenenter"",""5"",""23456""
","
","
","""event"",""trial"",""time""
""fullscreenenter"",""5"",""23456""
","
",407,NA,49,NA,NA,3000,1,NA,NA,images/tutgreenplanet.jpg,images/tutalien1,images/tutalien2,null,images/tutalien2,images/t.png,NA,practice,null,NA,NA,NA,NA,sub92
d3-animate-choice,37,226086,0.0-37.0,TRUE,TRUE,FALSE,TRUE,"""event"",""trial"",""time""
""fullscreenenter"",""5"",""23456""
","
","
","""event"",""trial"",""time""
""fullscreenenter"",""5"",""23456""
","
",402,NA,49,NA,NA,3000,1,NA,NA,images/tutgreenplanet.jpg,images/tutalien1,images/tutalien2,null,images/tutalien2,images/t.png,NA,practice,null,NA,NA,NA,NA,sub92
d3-animate-choice,38,228426,0.0-38.0,TRUE,TRUE,FALSE,TRUE,"""event"",""trial"",""time""
""fullscreenenter"",""5"",""23456""
","
","
","""event"",""trial"",""time""
""fullscreenenter"",""5"",""23456""
","
",333,NA,49,NA,NA,3000,1,NA,NA,images/tutgreenplanet.jpg,images/tutalien1,images/tutalien2,null,images/tutalien2,images/t.png,NA,practice,null,NA,NA,NA,NA,sub92
d3-animate-choice,39,230756,0.0-39.0,TRUE,TRUE,FALSE,TRUE,"""event"",""trial"",""time""
""fullscreenenter"",""5"",""23456""
","
","
","""event"",""trial"",""time""
""fullscreenenter"",""5"",""23456""
","
",324,NA,48,NA,NA,3000,1,NA,NA,images/tutgreenplanet.jpg,images/tutalien1,images/tutalien2,null,images/tutalien1,images/nothing.png,NA,practice,null,NA,NA,NA,NA,sub92
d3-animate-choice,40,233076,0.0-40.0,TRUE,TRUE,FALSE,TRUE,"""event"",""trial"",""time""
""fullscreenenter"",""5"",""23456""
","
","
","""event"",""trial"",""time""
""fullscreenenter"",""5"",""23456""
","
",312,NA,48,NA,NA,3000,1,NA,NA,images/tutgreenplanet.jpg,images/tutalien1,images/tutalien2,null,images/tutalien1,images/nothing.png,NA,practice,null,NA,NA,NA,NA,sub92
d3-animate-choice,41,235406,0.0-41.0,TRUE,TRUE,FALSE,TRUE,"""event"",""trial"",""time""
""fullscreenenter"",""5"",""23456""
","
","
","""event"",""trial"",""time""
""fullscreenenter"",""5"",""23456""
","
",318,NA,48,NA,NA,3000,1,NA,NA,images/tutgreenplanet.jpg,images/tutalien1,images/tutalien2,null,images/tutalien1,images/nothing.png,NA,practice,null,NA,NA,NA,NA,sub92
d3-animate-choice,42,237766,0.0-42.0,TRUE,TRUE,FALSE,TRUE,"""event"",""trial"",""time""
""fullscreenenter"",""5"",""23456""
","
","
","""event"",""trial"",""time""
""fullscreenenter"",""5"",""23456""
","
",350,NA,48,NA,NA,3000,1,NA,NA,images/tutgreenplanet.jpg,images/tutalien1,images/tutalien2,null,images/tutalien1,images/nothing.png,NA,practice,null,NA,NA,NA,NA,sub92
d3-animate-choice,43,240955,0.0-43.0,TRUE,TRUE,FALSE,TRUE,"""event"",""trial"",""time""
""fullscreenenter"",""5"",""23456""
","
","
","""event"",""trial"",""time""
""fullscreenenter"",""5"",""23456""
","
",1182,NA,49,NA,NA,3000,1,NA,NA,images/tutgreenplanet.jpg,images/tutalien1,images/tutalien2,null,images/tutalien2,images/t.png,NA,practice,null,NA,NA,NA,NA,sub92
d3-instructions,44,254216,0.0-44.0,TRUE,TRUE,FALSE,TRUE,"""event"",""trial"",""time""
""fullscreenenter"",""5"",""23456""
","
","
","""event"",""trial"",""time""
""fullscreenenter"",""5"",""23456""
","
",NA,NA,NA,NA,NA,NA,NA,NA,NA,NA,NA,NA,NA,NA,NA,NA,NA,NA,NA,NA,NA,NA,sub92
d3-instructions,45,260795,0.0-45.0,TRUE,TRUE,FALSE,TRUE,"""event"",""trial"",""time""
""fullscreenenter"",""5"",""23456""
","
","
","""event"",""trial"",""time""
""fullscreenenter"",""5"",""23456""
","
",NA,NA,NA,NA,NA,NA,NA,NA,NA,NA,NA,NA,NA,NA,NA,NA,NA,NA,NA,NA,NA,NA,sub92
d3-instructions,46,265913,0.0-46.0,TRUE,TRUE,FALSE,TRUE,"""event"",""trial"",""time""
""fullscreenenter"",""5"",""23456""
","
","
","""event"",""trial"",""time""
""fullscreenenter"",""5"",""23456""
","
",NA,NA,NA,NA,NA,NA,NA,NA,NA,NA,NA,NA,NA,NA,NA,NA,NA,NA,NA,NA,NA,NA,sub92
d3-instructions,47,283472,0.0-47.0,TRUE,TRUE,FALSE,TRUE,"""event"",""trial"",""time""
""fullscreenenter"",""5"",""23456""
","
","
","""event"",""trial"",""time""
""fullscreenenter"",""5"",""23456""
","
",NA,NA,NA,NA,NA,NA,NA,NA,NA,NA,NA,NA,NA,NA,NA,NA,NA,NA,NA,NA,NA,NA,sub92
d3-instructions,48,290651,0.0-48.0,TRUE,TRUE,FALSE,TRUE,"""event"",""trial"",""time""
""fullscreenenter"",""5"",""23456""
","
","
","""event"",""trial"",""time""
""fullscreenenter"",""5"",""23456""
","
",NA,NA,NA,NA,NA,NA,NA,NA,NA,NA,NA,NA,NA,NA,NA,NA,NA,NA,NA,NA,NA,NA,sub92
d3-instructions,49,302139,0.0-49.0,TRUE,TRUE,FALSE,TRUE,"""event"",""trial"",""time""
""fullscreenenter"",""5"",""23456""
","
","
","""event"",""trial"",""time""
""fullscreenenter"",""5"",""23456""
","
",NA,NA,NA,NA,NA,NA,NA,NA,NA,NA,NA,NA,NA,NA,NA,NA,NA,NA,NA,NA,NA,NA,sub92
d3-instructions,50,311509,0.0-50.0,TRUE,TRUE,FALSE,TRUE,"""event"",""trial"",""time""
""fullscreenenter"",""5"",""23456""
","
","
","""event"",""trial"",""time""
""fullscreenenter"",""5"",""23456""
","
",NA,NA,NA,NA,NA,NA,NA,NA,NA,NA,NA,NA,NA,NA,NA,NA,NA,NA,NA,NA,NA,NA,sub92
d3-instructions,51,314269,0.0-51.0,TRUE,TRUE,FALSE,TRUE,"""event"",""trial"",""time""
""fullscreenenter"",""5"",""23456""
","
","
","""event"",""trial"",""time""
""fullscreenenter"",""5"",""23456""
","
",NA,NA,NA,NA,NA,NA,NA,NA,NA,NA,NA,NA,NA,NA,NA,NA,NA,NA,NA,NA,NA,NA,sub92
d3-instructions,52,317417,0.0-52.0,TRUE,TRUE,FALSE,TRUE,"""event"",""trial"",""time""
""fullscreenenter"",""5"",""23456""
","
","
","""event"",""trial"",""time""
""fullscreenenter"",""5"",""23456""
","
",NA,NA,NA,NA,NA,NA,NA,NA,NA,NA,NA,NA,NA,NA,NA,NA,NA,NA,NA,NA,NA,NA,sub92
d3-instructions,53,329717,0.0-53.0,TRUE,TRUE,FALSE,TRUE,"""event"",""trial"",""time""
""fullscreenenter"",""5"",""23456""
","
","
","""event"",""trial"",""time""
""fullscreenenter"",""5"",""23456""
","
",NA,NA,NA,NA,NA,NA,NA,NA,NA,NA,NA,NA,NA,NA,NA,NA,NA,NA,NA,NA,NA,NA,sub92
d3-instructions,54,346249,0.0-54.0,TRUE,TRUE,FALSE,TRUE,"""event"",""trial"",""time""
""fullscreenenter"",""5"",""23456""
","
","
","""event"",""trial"",""time""
""fullscreenenter"",""5"",""23456""
","
",NA,NA,NA,NA,NA,NA,NA,NA,NA,NA,NA,NA,NA,NA,NA,NA,NA,NA,NA,NA,NA,NA,sub92
d3-instructions,55,356330,0.0-55.0,TRUE,TRUE,FALSE,TRUE,"""event"",""trial"",""time""
""fullscreenenter"",""5"",""23456""
","
","
","""event"",""trial"",""time""
""fullscreenenter"",""5"",""23456""
","
",NA,NA,NA,NA,NA,NA,NA,NA,NA,NA,NA,NA,NA,NA,NA,NA,NA,NA,NA,NA,NA,NA,sub92
d3-instructions,56,366165,0.0-56.0,TRUE,TRUE,FALSE,TRUE,"""event"",""trial"",""time""
""fullscreenenter"",""5"",""23456""
","
","
","""event"",""trial"",""time""
""fullscreenenter"",""5"",""23456""
","
",NA,NA,NA,NA,NA,NA,NA,NA,NA,NA,NA,NA,NA,NA,NA,NA,NA,NA,NA,NA,NA,NA,sub92
d3-instructions,57,376594,0.0-57.0,TRUE,TRUE,FALSE,TRUE,"""event"",""trial"",""time""
""fullscreenenter"",""5"",""23456""
","
","
","""event"",""trial"",""time""
""fullscreenenter"",""5"",""23456""
","
",NA,NA,NA,NA,NA,NA,NA,NA,NA,NA,NA,NA,NA,NA,NA,NA,NA,NA,NA,NA,NA,NA,sub92
d3-instructions,58,388347,0.0-58.0,TRUE,TRUE,FALSE,TRUE,"""event"",""trial"",""time""
""fullscreenenter"",""5"",""23456""
","
","
","""event"",""trial"",""time""
""fullscreenenter"",""5"",""23456""
","
",NA,NA,NA,NA,NA,NA,NA,NA,NA,NA,NA,NA,NA,NA,NA,NA,NA,NA,NA,NA,NA,NA,sub92
d3-instructions,59,393237,0.0-59.0,TRUE,TRUE,FALSE,TRUE,"""event"",""trial"",""time""
""fullscreenenter"",""5"",""23456""
","
","
","""event"",""trial"",""time""
""fullscreenenter"",""5"",""23456""
","
",NA,NA,NA,NA,NA,NA,NA,NA,NA,NA,NA,NA,NA,NA,NA,NA,NA,NA,NA,NA,NA,NA,sub92
d3-instructions,60,400046,0.0-60.0,TRUE,TRUE,FALSE,TRUE,"""event"",""trial"",""time""
""fullscreenenter"",""5"",""23456""
","
","
","""event"",""trial"",""time""
""fullscreenenter"",""5"",""23456""
","
",NA,NA,NA,NA,NA,NA,NA,NA,NA,NA,NA,NA,NA,NA,NA,NA,NA,NA,NA,NA,NA,NA,sub92
d3-animate-choice,61,403526,0.0-61.0-0.0,TRUE,TRUE,FALSE,TRUE,"""event"",""trial"",""time""
""fullscreenenter"",""5"",""23456""
","
","
","""event"",""trial"",""time""
""fullscreenenter"",""5"",""23456""
","
",1467,NA,49,NA,NA,3000,1,NA,NA,images/earth.jpg,images/tutrocket1,images/tutrocket2,null,images/tutrocket2,NA,1,practice,null,1,NA,NA,NA,sub92
d3-animate-choice,62,407546,0.0-61.0-1.0,TRUE,TRUE,FALSE,TRUE,"""event"",""trial"",""time""
""fullscreenenter"",""5"",""23456""
","
","
","""event"",""trial"",""time""
""fullscreenenter"",""5"",""23456""
","
",2510,NA,49,NA,NA,3000,1,NA,NA,images/tutyellowplanet.jpg,images/tutalien4,images/tutalien3,images/tutrocket2,images/tutalien3,images/t.png,2,practice,true,1,common,1,2020-06-23T19:36:12Z,sub92
two-step-fixation,63,408555,0.0-61.0-2.0,TRUE,TRUE,FALSE,TRUE,"""event"",""trial"",""time""
""fullscreenenter"",""5"",""23456""
","
","
","""event"",""trial"",""time""
""fullscreenenter"",""5"",""23456""
","
",NA,images/earth.jpg,NA,NA,NA,NA,NA,NA,NA,NA,NA,NA,NA,NA,NA,fixation,NA,NA,NA,NA,NA,NA,sub92
d3-animate-choice,64,412365,0.0-61.0-0.1,TRUE,TRUE,FALSE,TRUE,"""event"",""trial"",""time""
""fullscreenenter"",""5"",""23456""
","
","
","""event"",""trial"",""time""
""fullscreenenter"",""5"",""23456""
","
",1806,NA,48,NA,NA,3000,1,NA,NA,images/earth.jpg,images/tutrocket1,images/tutrocket2,null,images/tutrocket1,NA,1,practice,null,2,NA,NA,NA,sub92
d3-animate-choice,65,416406,0.0-61.0-1.1,TRUE,TRUE,FALSE,TRUE,"""event"",""trial"",""time""
""fullscreenenter"",""5"",""23456""
","
","
","""event"",""trial"",""time""
""fullscreenenter"",""5"",""23456""
","
",3681,NA,48,NA,NA,3000,0,NA,NA,images/tutyellowplanet.jpg,images/tutalien4,images/tutalien3,images/tutrocket1,NA,NA,2,practice,false,2,rare,0,2020-06-23T19:36:21Z,sub92
two-step-fixation,66,417426,0.0-61.0-2.1,TRUE,TRUE,FALSE,TRUE,"""event"",""trial"",""time""
""fullscreenenter"",""5"",""23456""
","
","
","""event"",""trial"",""time""
""fullscreenenter"",""5"",""23456""
","
",NA,images/earth.jpg,NA,NA,NA,NA,NA,NA,NA,NA,NA,NA,NA,NA,NA,fixation,NA,NA,NA,NA,NA,NA,sub92
d3-animate-choice,67,420546,0.0-61.0-0.2,TRUE,TRUE,FALSE,TRUE,"""event"",""trial"",""time""
""fullscreenenter"",""5"",""23456""
","
","
","""event"",""trial"",""time""
""fullscreenenter"",""5"",""23456""
","
",1110,NA,48,NA,NA,3000,1,NA,NA,images/earth.jpg,images/tutrocket1,images/tutrocket2,null,images/tutrocket1,NA,1,practice,null,2,NA,NA,NA,sub92
d3-animate-choice,68,423476,0.0-61.0-1.2,TRUE,TRUE,FALSE,TRUE,"""event"",""trial"",""time""
""fullscreenenter"",""5"",""23456""
","
","
","""event"",""trial"",""time""
""fullscreenenter"",""5"",""23456""
","
",921,NA,49,NA,NA,3000,1,NA,NA,images/tutgreenplanet.jpg,images/tutalien2,images/tutalien1,images/tutrocket1,images/tutalien1,images/nothing.png,2,practice,true,1,common,0,2020-06-23T19:36:28Z,sub92
two-step-fixation,69,424496,0.0-61.0-2.2,TRUE,TRUE,FALSE,TRUE,"""event"",""trial"",""time""
""fullscreenenter"",""5"",""23456""
","
","
","""event"",""trial"",""time""
""fullscreenenter"",""5"",""23456""
","
",NA,images/earth.jpg,NA,NA,NA,NA,NA,NA,NA,NA,NA,NA,NA,NA,NA,fixation,NA,NA,NA,NA,NA,NA,sub92
d3-animate-choice,70,427275,0.0-61.0-0.3,TRUE,TRUE,FALSE,TRUE,"""event"",""trial"",""time""
""fullscreenenter"",""5"",""23456""
","
","
","""event"",""trial"",""time""
""fullscreenenter"",""5"",""23456""
","
",762,NA,48,NA,NA,3000,1,NA,NA,images/earth.jpg,images/tutrocket1,images/tutrocket2,null,images/tutrocket1,NA,1,practice,null,2,NA,NA,NA,sub92
d3-animate-choice,71,431296,0.0-61.0-1.3,TRUE,TRUE,FALSE,TRUE,"""event"",""trial"",""time""
""fullscreenenter"",""5"",""23456""
","
","
","""event"",""trial"",""time""
""fullscreenenter"",""5"",""23456""
","
",2712,NA,48,NA,NA,3000,1,NA,NA,images/tutgreenplanet.jpg,images/tutalien2,images/tutalien1,images/tutrocket1,images/tutalien2,NA,2,practice,true,2,common,0,2020-06-23T19:36:36Z,sub92
two-step-fixation,72,432316,0.0-61.0-2.3,TRUE,TRUE,FALSE,TRUE,"""event"",""trial"",""time""
""fullscreenenter"",""5"",""23456""
","
","
","""event"",""trial"",""time""
""fullscreenenter"",""5"",""23456""
","
",NA,images/earth.jpg,NA,NA,NA,NA,NA,NA,NA,NA,NA,NA,NA,NA,NA,fixation,NA,NA,NA,NA,NA,NA,sub92
d3-animate-choice,73,435095,0.0-61.0-0.4,TRUE,TRUE,FALSE,TRUE,"""event"",""trial"",""time""
""fullscreenenter"",""5"",""23456""
","
","
","""event"",""trial"",""time""
""fullscreenenter"",""5"",""23456""
","
",755,NA,49,NA,NA,3000,1,NA,NA,images/earth.jpg,images/tutrocket1,images/tutrocket2,null,images/tutrocket2,NA,1,practice,null,1,NA,NA,NA,sub92
d3-animate-choice,74,437636,0.0-61.0-1.4,TRUE,TRUE,FALSE,TRUE,"""event"",""trial"",""time""
""fullscreenenter"",""5"",""23456""
","
","
","""event"",""trial"",""time""
""fullscreenenter"",""5"",""23456""
","
",520,NA,48,NA,NA,3000,1,NA,NA,images/tutyellowplanet.jpg,images/tutalien4,images/tutalien3,images/tutrocket2,images/tutalien4,images/t.png,2,practice,true,2,common,1,2020-06-23T19:36:43Z,sub92
two-step-fixation,75,438646,0.0-61.0-2.4,TRUE,TRUE,FALSE,TRUE,"""event"",""trial"",""time""
""fullscreenenter"",""5"",""23456""
","
","
","""event"",""trial"",""time""
""fullscreenenter"",""5"",""23456""
","
",NA,images/earth.jpg,NA,NA,NA,NA,NA,NA,NA,NA,NA,NA,NA,NA,NA,fixation,NA,NA,NA,NA,NA,NA,sub92
d3-animate-choice,76,441335,0.0-61.0-0.5,TRUE,TRUE,FALSE,TRUE,"""event"",""trial"",""time""
""fullscreenenter"",""5"",""23456""
","
","
","""event"",""trial"",""time""
""fullscreenenter"",""5"",""23456""
","
",673,NA,49,NA,NA,3000,1,NA,NA,images/earth.jpg,images/tutrocket1,images/tutrocket2,null,images/tutrocket2,NA,1,practice,null,1,NA,NA,NA,sub92
d3-animate-choice,77,444736,0.0-61.0-1.5,TRUE,TRUE,FALSE,TRUE,"""event"",""trial"",""time""
""fullscreenenter"",""5"",""23456""
","
","
","""event"",""trial"",""time""
""fullscreenenter"",""5"",""23456""
","
",1392,NA,49,NA,NA,3000,1,NA,NA,images/tutyellowplanet.jpg,images/tutalien4,images/tutalien3,images/tutrocket2,images/tutalien3,images/nothing.png,2,practice,true,1,common,0,2020-06-23T19:36:50Z,sub92
two-step-fixation,78,445756,0.0-61.0-2.5,TRUE,TRUE,FALSE,TRUE,"""event"",""trial"",""time""
""fullscreenenter"",""5"",""23456""
","
","
","""event"",""trial"",""time""
""fullscreenenter"",""5"",""23456""
","
",NA,images/earth.jpg,NA,NA,NA,NA,NA,NA,NA,NA,NA,NA,NA,NA,NA,fixation,NA,NA,NA,NA,NA,NA,sub92
d3-animate-choice,79,448506,0.0-61.0-0.6,TRUE,TRUE,FALSE,TRUE,"""event"",""trial"",""time""
""fullscreenenter"",""5"",""23456""
","
","
","""event"",""trial"",""time""
""fullscreenenter"",""5"",""23456""
","
",729,NA,49,NA,NA,3000,1,NA,NA,images/earth.jpg,images/tutrocket1,images/tutrocket2,null,images/tutrocket2,NA,1,practice,null,1,NA,NA,NA,sub92
d3-animate-choice,80,451476,0.0-61.0-1.6,TRUE,TRUE,FALSE,TRUE,"""event"",""trial"",""time""
""fullscreenenter"",""5"",""23456""
","
","
","""event"",""trial"",""time""
""fullscreenenter"",""5"",""23456""
","
",953,NA,48,NA,NA,3000,1,NA,NA,images/tutgreenplanet.jpg,images/tutalien2,images/tutalien1,images/tutrocket2,images/tutalien2,images/t.png,2,practice,false,2,rare,1,2020-06-23T19:36:56Z,sub92
two-step-fixation,81,452486,0.0-61.0-2.6,TRUE,TRUE,FALSE,TRUE,"""event"",""trial"",""time""
""fullscreenenter"",""5"",""23456""
","
","
","""event"",""trial"",""time""
""fullscreenenter"",""5"",""23456""
","
",NA,images/earth.jpg,NA,NA,NA,NA,NA,NA,NA,NA,NA,NA,NA,NA,NA,fixation,NA,NA,NA,NA,NA,NA,sub92
d3-animate-choice,82,455196,0.0-61.0-0.7,TRUE,TRUE,FALSE,TRUE,"""event"",""trial"",""time""
""fullscreenenter"",""5"",""23456""
","
","
","""event"",""trial"",""time""
""fullscreenenter"",""5"",""23456""
","
",698,NA,48,NA,NA,3000,1,NA,NA,images/earth.jpg,images/tutrocket1,images/tutrocket2,null,images/tutrocket1,NA,1,practice,null,2,NA,NA,NA,sub92
d3-animate-choice,83,458316,0.0-61.0-1.7,TRUE,TRUE,FALSE,TRUE,"""event"",""trial"",""time""
""fullscreenenter"",""5"",""23456""
","
","
","""event"",""trial"",""time""
""fullscreenenter"",""5"",""23456""
","
",1108,NA,48,NA,NA,3000,1,NA,NA,images/tutgreenplanet.jpg,images/tutalien2,images/tutalien1,images/tutrocket1,images/tutalien2,images/nothing.png,2,practice,true,2,common,0,2020-06-23T19:37:03Z,sub92
two-step-fixation,84,459335,0.0-61.0-2.7,TRUE,TRUE,FALSE,TRUE,"""event"",""trial"",""time""
""fullscreenenter"",""5"",""23456""
","
","
","""event"",""trial"",""time""
""fullscreenenter"",""5"",""23456""
","
",NA,images/earth.jpg,NA,NA,NA,NA,NA,NA,NA,NA,NA,NA,NA,NA,NA,fixation,NA,NA,NA,NA,NA,NA,sub92
d3-animate-choice,85,461996,0.0-61.0-0.8,TRUE,TRUE,FALSE,TRUE,"""event"",""trial"",""time""
""fullscreenenter"",""5"",""23456""
","
","
","""event"",""trial"",""time""
""fullscreenenter"",""5"",""23456""
","
",650,NA,49,NA,NA,3000,1,NA,NA,images/earth.jpg,images/tutrocket1,images/tutrocket2,null,images/tutrocket2,NA,1,practice,null,1,NA,NA,NA,sub92
d3-animate-choice,86,464366,0.0-61.0-1.8,TRUE,TRUE,FALSE,TRUE,"""event"",""trial"",""time""
""fullscreenenter"",""5"",""23456""
","
","
","""event"",""trial"",""time""
""fullscreenenter"",""5"",""23456""
","
",359,NA,48,NA,NA,3000,1,NA,NA,images/tutyellowplanet.jpg,images/tutalien4,images/tutalien3,images/tutrocket2,images/tutalien4,images/nothing.png,2,practice,true,2,common,0,2020-06-23T19:37:09Z,sub92
two-step-fixation,87,465386,0.0-61.0-2.8,TRUE,TRUE,FALSE,TRUE,"""event"",""trial"",""time""
""fullscreenenter"",""5"",""23456""
","
","
","""event"",""trial"",""time""
""fullscreenenter"",""5"",""23456""
","
",NA,images/earth.jpg,NA,NA,NA,NA,NA,NA,NA,NA,NA,NA,NA,NA,NA,fixation,NA,NA,NA,NA,NA,NA,sub92
d3-animate-choice,88,468205,0.0-61.0-0.9,TRUE,TRUE,FALSE,TRUE,"""event"",""trial"",""time""
""fullscreenenter"",""5"",""23456""
","
","
","""event"",""trial"",""time""
""fullscreenenter"",""5"",""23456""
","
",807,NA,49,NA,NA,3000,1,NA,NA,images/earth.jpg,images/tutrocket1,images/tutrocket2,null,images/tutrocket2,NA,1,practice,null,1,NA,NA,NA,sub92
d3-animate-choice,89,470656,0.0-61.0-1.9,TRUE,TRUE,FALSE,TRUE,"""event"",""trial"",""time""
""fullscreenenter"",""5"",""23456""
","
","
","""event"",""trial"",""time""
""fullscreenenter"",""5"",""23456""
","
",428,NA,48,NA,NA,3000,1,NA,NA,images/tutyellowplanet.jpg,images/tutalien4,images/tutalien3,images/tutrocket2,images/tutalien4,images/nothing.png,2,practice,true,2,common,0,2020-06-23T19:37:16Z,sub92
two-step-fixation,90,471676,0.0-61.0-2.9,TRUE,TRUE,FALSE,TRUE,"""event"",""trial"",""time""
""fullscreenenter"",""5"",""23456""
","
","
","""event"",""trial"",""time""
""fullscreenenter"",""5"",""23456""
","
",NA,images/earth.jpg,NA,NA,NA,NA,NA,NA,NA,NA,NA,NA,NA,NA,NA,fixation,NA,NA,NA,NA,NA,NA,sub92
d3-animate-choice,91,474195,0.0-61.0-0.10,TRUE,TRUE,FALSE,TRUE,"""event"",""trial"",""time""
""fullscreenenter"",""5"",""23456""
","
","
","""event"",""trial"",""time""
""fullscreenenter"",""5"",""23456""
","
",511,NA,49,NA,NA,3000,1,NA,NA,images/earth.jpg,images/tutrocket1,images/tutrocket2,null,images/tutrocket2,NA,1,practice,null,1,NA,NA,NA,sub92
d3-animate-choice,92,477186,0.0-61.0-1.10,TRUE,TRUE,FALSE,TRUE,"""event"",""trial"",""time""
""fullscreenenter"",""5"",""23456""
","
","
","""event"",""trial"",""time""
""fullscreenenter"",""5"",""23456""
","
",966,NA,49,NA,NA,3000,1,NA,NA,images/tutyellowplanet.jpg,images/tutalien4,images/tutalien3,images/tutrocket2,images/tutalien3,images/t.png,2,practice,true,1,common,1,2020-06-23T19:37:22Z,sub92
two-step-fixation,93,478206,0.0-61.0-2.10,TRUE,TRUE,FALSE,TRUE,"""event"",""trial"",""time""
""fullscreenenter"",""5"",""23456""
","
","
","""event"",""trial"",""time""
""fullscreenenter"",""5"",""23456""
","
",NA,images/earth.jpg,NA,NA,NA,NA,NA,NA,NA,NA,NA,NA,NA,NA,NA,fixation,NA,NA,NA,NA,NA,NA,sub92
d3-animate-choice,94,480576,0.0-61.0-0.11,TRUE,TRUE,FALSE,TRUE,"""event"",""trial"",""time""
""fullscreenenter"",""5"",""23456""
","
","
","""event"",""trial"",""time""
""fullscreenenter"",""5"",""23456""
","
",350,NA,49,NA,NA,3000,1,NA,NA,images/earth.jpg,images/tutrocket1,images/tutrocket2,null,images/tutrocket2,NA,1,practice,null,1,NA,NA,NA,sub92
d3-animate-choice,95,483015,0.0-61.0-1.11,TRUE,TRUE,FALSE,TRUE,"""event"",""trial"",""time""
""fullscreenenter"",""5"",""23456""
","
","
","""event"",""trial"",""time""
""fullscreenenter"",""5"",""23456""
","
",431,NA,49,NA,NA,3000,1,NA,NA,images/tutyellowplanet.jpg,images/tutalien4,images/tutalien3,images/tutrocket2,images/tutalien3,images/nothing.png,2,practice,true,1,common,0,2020-06-23T19:37:28Z,sub92
two-step-fixation,96,484035,0.0-61.0-2.11,TRUE,TRUE,FALSE,TRUE,"""event"",""trial"",""time""
""fullscreenenter"",""5"",""23456""
","
","
","""event"",""trial"",""time""
""fullscreenenter"",""5"",""23456""
","
",NA,images/earth.jpg,NA,NA,NA,NA,NA,NA,NA,NA,NA,NA,NA,NA,NA,fixation,NA,NA,NA,NA,NA,NA,sub92
d3-animate-choice,97,486216,0.0-61.0-0.12,TRUE,TRUE,FALSE,TRUE,"""event"",""trial"",""time""
""fullscreenenter"",""5"",""23456""
","
","
","""event"",""trial"",""time""
""fullscreenenter"",""5"",""23456""
","
",156,NA,49,NA,NA,3000,1,NA,NA,images/earth.jpg,images/tutrocket1,images/tutrocket2,null,images/tutrocket2,NA,1,practice,null,1,NA,NA,NA,sub92
d3-animate-choice,98,488676,0.0-61.0-1.12,TRUE,TRUE,FALSE,TRUE,"""event"",""trial"",""time""
""fullscreenenter"",""5"",""23456""
","
","
","""event"",""trial"",""time""
""fullscreenenter"",""5"",""23456""
","
",442,NA,49,NA,NA,3000,1,NA,NA,images/tutyellowplanet.jpg,images/tutalien4,images/tutalien3,images/tutrocket2,images/tutalien3,images/t.png,2,practice,true,1,common,1,2020-06-23T19:37:34Z,sub92
two-step-fixation,99,489696,0.0-61.0-2.12,TRUE,TRUE,FALSE,TRUE,"""event"",""trial"",""time""
""fullscreenenter"",""5"",""23456""
""fullscreenexit"",""100"",""490610""
","
","
","""event"",""trial"",""time""
""fullscreenenter"",""5"",""23456""
","""event"",""trial"",""time""
""fullscreenexit"",""100"",""490610""
",NA,images/earth.jpg,NA,NA,NA,NA,NA,NA,NA,NA,NA,NA,NA,NA,NA,fixation,NA,NA,NA,NA,NA,NA,sub92
d3-animate-choice,100,492205,0.0-61.0-0.13,TRUE,TRUE,FALSE,TRUE,"""event"",""trial"",""time""
""fullscreenenter"",""5"",""23456""
""fullscreenexit"",""100"",""490610""
","
","
","""event"",""trial"",""time""
""fullscreenenter"",""5"",""23456""
","""event"",""trial"",""time""
""fullscreenexit"",""100"",""490610""
",497,NA,48,NA,NA,3000,1,NA,NA,images/earth.jpg,images/tutrocket1,images/tutrocket2,null,images/tutrocket1,NA,1,practice,null,2,NA,NA,NA,sub92
d3-animate-choice,101,495865,0.0-61.0-1.13,TRUE,TRUE,FALSE,TRUE,"""event"",""trial"",""time""
""fullscreenenter"",""5"",""23456""
""fullscreenexit"",""100"",""490610""
","
","
","""event"",""trial"",""time""
""fullscreenenter"",""5"",""23456""
","""event"",""trial"",""time""
""fullscreenexit"",""100"",""490610""
",1641,NA,48,NA,NA,3000,1,NA,NA,images/tutgreenplanet.jpg,images/tutalien2,images/tutalien1,images/tutrocket1,images/tutalien2,images/t.png,2,practice,true,2,common,1,2020-06-23T19:37:41Z,sub92
two-step-fixation,102,496876,0.0-61.0-2.13,TRUE,TRUE,FALSE,TRUE,"""event"",""trial"",""time""
""fullscreenenter"",""5"",""23456""
""fullscreenexit"",""100"",""490610""
","
","
","""event"",""trial"",""time""
""fullscreenenter"",""5"",""23456""
","""event"",""trial"",""time""
""fullscreenexit"",""100"",""490610""
",NA,images/earth.jpg,NA,NA,NA,NA,NA,NA,NA,NA,NA,NA,NA,NA,NA,fixation,NA,NA,NA,NA,NA,NA,sub92
d3-animate-choice,103,500916,0.0-61.0-0.14,TRUE,TRUE,FALSE,TRUE,"""event"",""trial"",""time""
""fullscreenenter"",""5"",""23456""
""fullscreenexit"",""100"",""490610""
","
","
","""event"",""trial"",""time""
""fullscreenenter"",""5"",""23456""
","""event"",""trial"",""time""
""fullscreenexit"",""100"",""490610""
",null,NA,null,NA,NA,3000,0,NA,NA,images/earth.jpg,images/tutrocket1,images/tutrocket2,null,NA,NA,1,practice,null,NA,NA,NA,NA,sub92
d3-animate-choice,104,501955,0.0-61.0-1.14,TRUE,TRUE,FALSE,TRUE,"""event"",""trial"",""time""
""fullscreenenter"",""5"",""23456""
""fullscreenexit"",""100"",""490610""
""blur"",""105"",""502080""
","""event"",""trial"",""time""
""blur"",""105"",""502080""
","
","""event"",""trial"",""time""
""fullscreenenter"",""5"",""23456""
","""event"",""trial"",""time""
""fullscreenexit"",""100"",""490610""
",null,NA,null,NA,NA,0,0,NA,NA,images/earth.jpg,images/tutrocket1,images/tutrocket2,null,NA,NA,2,practice,null,NA,NA,0,2020-06-23T19:37:47Z,sub92
two-step-fixation,105,502974,0.0-61.0-2.14,TRUE,TRUE,FALSE,TRUE,"""event"",""trial"",""time""
""fullscreenenter"",""5"",""23456""
""fullscreenexit"",""100"",""490610""
""blur"",""105"",""502080""
""focus"",""106"",""504185""
","""event"",""trial"",""time""
""blur"",""105"",""502080""
","""event"",""trial"",""time""
""focus"",""106"",""504185""
","""event"",""trial"",""time""
""fullscreenenter"",""5"",""23456""
","""event"",""trial"",""time""
""fullscreenexit"",""100"",""490610""
",NA,images/earth.jpg,NA,NA,NA,NA,NA,NA,NA,NA,NA,NA,NA,NA,NA,fixation,NA,NA,NA,NA,NA,NA,sub92
d3-animate-choice,106,507003,0.0-61.0-0.15,TRUE,TRUE,FALSE,TRUE,"""event"",""trial"",""time""
""fullscreenenter"",""5"",""23456""
""fullscreenexit"",""100"",""490610""
""blur"",""105"",""502080""
""focus"",""106"",""504185""
","""event"",""trial"",""time""
""blur"",""105"",""502080""
","""event"",""trial"",""time""
""focus"",""106"",""504185""
","""event"",""trial"",""time""
""fullscreenenter"",""5"",""23456""
","""event"",""trial"",""time""
""fullscreenexit"",""100"",""490610""
",3183,NA,48,NA,NA,3000,0,NA,NA,images/earth.jpg,images/tutrocket1,images/tutrocket2,null,NA,NA,1,practice,null,2,NA,NA,NA,sub92
d3-animate-choice,107,508036,0.0-61.0-1.15,TRUE,TRUE,FALSE,TRUE,"""event"",""trial"",""time""
""fullscreenenter"",""5"",""23456""
""fullscreenexit"",""100"",""490610""
""blur"",""105"",""502080""
""focus"",""106"",""504185""
","""event"",""trial"",""time""
""blur"",""105"",""502080""
","""event"",""trial"",""time""
""focus"",""106"",""504185""
","""event"",""trial"",""time""
""fullscreenenter"",""5"",""23456""
","""event"",""trial"",""time""
""fullscreenexit"",""100"",""490610""
",null,NA,null,NA,NA,0,0,NA,NA,images/earth.jpg,images/tutrocket1,images/tutrocket2,null,NA,NA,2,practice,null,NA,NA,0,2020-06-23T19:37:53Z,sub92
two-step-fixation,108,509045,0.0-61.0-2.15,TRUE,TRUE,FALSE,TRUE,"""event"",""trial"",""time""
""fullscreenenter"",""5"",""23456""
""fullscreenexit"",""100"",""490610""
""blur"",""105"",""502080""
""focus"",""106"",""504185""
","""event"",""trial"",""time""
""blur"",""105"",""502080""
","""event"",""trial"",""time""
""focus"",""106"",""504185""
","""event"",""trial"",""time""
""fullscreenenter"",""5"",""23456""
","""event"",""trial"",""time""
""fullscreenexit"",""100"",""490610""
",NA,images/earth.jpg,NA,NA,NA,NA,NA,NA,NA,NA,NA,NA,NA,NA,NA,fixation,NA,NA,NA,NA,NA,NA,sub92
d3-animate-choice,109,511766,0.0-61.0-0.16,TRUE,TRUE,FALSE,TRUE,"""event"",""trial"",""time""
""fullscreenenter"",""5"",""23456""
""fullscreenexit"",""100"",""490610""
""blur"",""105"",""502080""
""focus"",""106"",""504185""
","""event"",""trial"",""time""
""blur"",""105"",""502080""
","""event"",""trial"",""time""
""focus"",""106"",""504185""
","""event"",""trial"",""time""
""fullscreenenter"",""5"",""23456""
","""event"",""trial"",""time""
""fullscreenexit"",""100"",""490610""
",704,NA,49,NA,NA,3000,1,NA,NA,images/earth.jpg,images/tutrocket1,images/tutrocket2,null,images/tutrocket2,NA,1,practice,null,1,NA,NA,NA,sub92
d3-animate-choice,110,514455,0.0-61.0-1.16,TRUE,TRUE,FALSE,TRUE,"""event"",""trial"",""time""
""fullscreenenter"",""5"",""23456""
""fullscreenexit"",""100"",""490610""
""blur"",""105"",""502080""
""focus"",""106"",""504185""
","""event"",""trial"",""time""
""blur"",""105"",""502080""
","""event"",""trial"",""time""
""focus"",""106"",""504185""
","""event"",""trial"",""time""
""fullscreenenter"",""5"",""23456""
","""event"",""trial"",""time""
""fullscreenexit"",""100"",""490610""
",673,NA,48,NA,NA,3000,1,NA,NA,images/tutyellowplanet.jpg,images/tutalien4,images/tutalien3,images/tutrocket2,images/tutalien4,images/nothing.png,2,practice,true,2,common,0,2020-06-23T19:37:59Z,sub92
two-step-fixation,111,515476,0.0-61.0-2.16,TRUE,TRUE,FALSE,TRUE,"""event"",""trial"",""time""
""fullscreenenter"",""5"",""23456""
""fullscreenexit"",""100"",""490610""
""blur"",""105"",""502080""
""focus"",""106"",""504185""
","""event"",""trial"",""time""
""blur"",""105"",""502080""
","""event"",""trial"",""time""
""focus"",""106"",""504185""
","""event"",""trial"",""time""
""fullscreenenter"",""5"",""23456""
","""event"",""trial"",""time""
""fullscreenexit"",""100"",""490610""
",NA,images/earth.jpg,NA,NA,NA,NA,NA,NA,NA,NA,NA,NA,NA,NA,NA,fixation,NA,NA,NA,NA,NA,NA,sub92
d3-animate-choice,112,518485,0.0-61.0-0.17,TRUE,TRUE,FALSE,TRUE,"""event"",""trial"",""time""
""fullscreenenter"",""5"",""23456""
""fullscreenexit"",""100"",""490610""
""blur"",""105"",""502080""
""focus"",""106"",""504185""
","""event"",""trial"",""time""
""blur"",""105"",""502080""
","""event"",""trial"",""time""
""focus"",""106"",""504185""
","""event"",""trial"",""time""
""fullscreenenter"",""5"",""23456""
","""event"",""trial"",""time""
""fullscreenexit"",""100"",""490610""
",993,NA,48,NA,NA,3000,1,NA,NA,images/earth.jpg,images/tutrocket1,images/tutrocket2,null,images/tutrocket1,NA,1,practice,null,2,NA,NA,NA,sub92
d3-animate-choice,113,521085,0.0-61.0-1.17,TRUE,TRUE,FALSE,TRUE,"""event"",""trial"",""time""
""fullscreenenter"",""5"",""23456""
""fullscreenexit"",""100"",""490610""
""blur"",""105"",""502080""
""focus"",""106"",""504185""
","""event"",""trial"",""time""
""blur"",""105"",""502080""
","""event"",""trial"",""time""
""focus"",""106"",""504185""
","""event"",""trial"",""time""
""fullscreenenter"",""5"",""23456""
","""event"",""trial"",""time""
""fullscreenexit"",""100"",""490610""
",595,NA,49,NA,NA,3000,1,NA,NA,images/tutgreenplanet.jpg,images/tutalien2,images/tutalien1,images/tutrocket1,images/tutalien1,images/nothing.png,2,practice,true,1,common,0,2020-06-23T19:38:06Z,sub92
two-step-fixation,114,522102,0.0-61.0-2.17,TRUE,TRUE,FALSE,TRUE,"""event"",""trial"",""time""
""fullscreenenter"",""5"",""23456""
""fullscreenexit"",""100"",""490610""
""blur"",""105"",""502080""
""focus"",""106"",""504185""
","""event"",""trial"",""time""
""blur"",""105"",""502080""
","""event"",""trial"",""time""
""focus"",""106"",""504185""
","""event"",""trial"",""time""
""fullscreenenter"",""5"",""23456""
","""event"",""trial"",""time""
""fullscreenexit"",""100"",""490610""
",NA,images/earth.jpg,NA,NA,NA,NA,NA,NA,NA,NA,NA,NA,NA,NA,NA,fixation,NA,NA,NA,NA,NA,NA,sub92
d3-animate-choice,115,524786,0.0-61.0-0.18,TRUE,TRUE,FALSE,TRUE,"""event"",""trial"",""time""
""fullscreenenter"",""5"",""23456""
""fullscreenexit"",""100"",""490610""
""blur"",""105"",""502080""
""focus"",""106"",""504185""
","""event"",""trial"",""time""
""blur"",""105"",""502080""
","""event"",""trial"",""time""
""focus"",""106"",""504185""
","""event"",""trial"",""time""
""fullscreenenter"",""5"",""23456""
","""event"",""trial"",""time""
""fullscreenexit"",""100"",""490610""
",681,NA,49,NA,NA,3000,1,NA,NA,images/earth.jpg,images/tutrocket1,images/tutrocket2,null,images/tutrocket2,NA,1,practice,null,1,NA,NA,NA,sub92
d3-animate-choice,116,527865,0.0-61.0-1.18,TRUE,TRUE,FALSE,TRUE,"""event"",""trial"",""time""
""fullscreenenter"",""5"",""23456""
""fullscreenexit"",""100"",""490610""
""blur"",""105"",""502080""
""focus"",""106"",""504185""
","""event"",""trial"",""time""
""blur"",""105"",""502080""
","""event"",""trial"",""time""
""focus"",""106"",""504185""
","""event"",""trial"",""time""
""fullscreenenter"",""5"",""23456""
","""event"",""trial"",""time""
""fullscreenexit"",""100"",""490610""
",1066,NA,49,NA,NA,3000,1,NA,NA,images/tutyellowplanet.jpg,images/tutalien4,images/tutalien3,images/tutrocket2,images/tutalien3,images/t.png,2,practice,true,1,common,1,2020-06-23T19:38:13Z,sub92
two-step-fixation,117,528885,0.0-61.0-2.18,TRUE,TRUE,FALSE,TRUE,"""event"",""trial"",""time""
""fullscreenenter"",""5"",""23456""
""fullscreenexit"",""100"",""490610""
""blur"",""105"",""502080""
""focus"",""106"",""504185""
","""event"",""trial"",""time""
""blur"",""105"",""502080""
","""event"",""trial"",""time""
""focus"",""106"",""504185""
","""event"",""trial"",""time""
""fullscreenenter"",""5"",""23456""
","""event"",""trial"",""time""
""fullscreenexit"",""100"",""490610""
",NA,images/earth.jpg,NA,NA,NA,NA,NA,NA,NA,NA,NA,NA,NA,NA,NA,fixation,NA,NA,NA,NA,NA,NA,sub92
d3-animate-choice,118,531266,0.0-61.0-0.19,TRUE,TRUE,FALSE,TRUE,"""event"",""trial"",""time""
""fullscreenenter"",""5"",""23456""
""fullscreenexit"",""100"",""490610""
""blur"",""105"",""502080""
""focus"",""106"",""504185""
","""event"",""trial"",""time""
""blur"",""105"",""502080""
","""event"",""trial"",""time""
""focus"",""106"",""504185""
","""event"",""trial"",""time""
""fullscreenenter"",""5"",""23456""
","""event"",""trial"",""time""
""fullscreenexit"",""100"",""490610""
",364,NA,49,NA,NA,3000,1,NA,NA,images/earth.jpg,images/tutrocket1,images/tutrocket2,null,images/tutrocket2,NA,1,practice,null,1,NA,NA,NA,sub92
d3-animate-choice,119,533925,0.0-61.0-1.19,TRUE,TRUE,FALSE,TRUE,"""event"",""trial"",""time""
""fullscreenenter"",""5"",""23456""
""fullscreenexit"",""100"",""490610""
""blur"",""105"",""502080""
""focus"",""106"",""504185""
","""event"",""trial"",""time""
""blur"",""105"",""502080""
","""event"",""trial"",""time""
""focus"",""106"",""504185""
","""event"",""trial"",""time""
""fullscreenenter"",""5"",""23456""
","""event"",""trial"",""time""
""fullscreenexit"",""100"",""490610""
",642,NA,49,NA,NA,3000,1,NA,NA,images/tutyellowplanet.jpg,images/tutalien4,images/tutalien3,images/tutrocket2,images/tutalien3,images/nothing.png,2,practice,true,1,common,0,2020-06-23T19:38:19Z,sub92
two-step-fixation,120,534946,0.0-61.0-2.19,TRUE,TRUE,FALSE,TRUE,"""event"",""trial"",""time""
""fullscreenenter"",""5"",""23456""
""fullscreenexit"",""100"",""490610""
""blur"",""105"",""502080""
""focus"",""106"",""504185""
","""event"",""trial"",""time""
""blur"",""105"",""502080""
","""event"",""trial"",""time""
""focus"",""106"",""504185""
","""event"",""trial"",""time""
""fullscreenenter"",""5"",""23456""
","""event"",""trial"",""time""
""fullscreenexit"",""100"",""490610""
",NA,images/earth.jpg,NA,NA,NA,NA,NA,NA,NA,NA,NA,NA,NA,NA,NA,fixation,NA,NA,NA,NA,NA,NA,sub92
d3-instructions,121,541747,0.0-62.0,TRUE,TRUE,FALSE,TRUE,"""event"",""trial"",""time""
""fullscreenenter"",""5"",""23456""
""fullscreenexit"",""100"",""490610""
""blur"",""105"",""502080""
""focus"",""106"",""504185""
","""event"",""trial"",""time""
""blur"",""105"",""502080""
","""event"",""trial"",""time""
""focus"",""106"",""504185""
","""event"",""trial"",""time""
""fullscreenenter"",""5"",""23456""
","""event"",""trial"",""time""
""fullscreenexit"",""100"",""490610""
",NA,NA,NA,NA,NA,NA,NA,NA,NA,NA,NA,NA,NA,NA,NA,NA,NA,NA,NA,NA,NA,NA,sub92
audio-keyboard-response,122,547004,0.0-63.0,TRUE,TRUE,FALSE,TRUE,"""event"",""trial"",""time""
""fullscreenenter"",""5"",""23456""
""fullscreenexit"",""100"",""490610""
""blur"",""105"",""502080""
""focus"",""106"",""504185""
","""event"",""trial"",""time""
""blur"",""105"",""502080""
","""event"",""trial"",""time""
""focus"",""106"",""504185""
","""event"",""trial"",""time""
""fullscreenenter"",""5"",""23456""
","""event"",""trial"",""time""
""fullscreenexit"",""100"",""490610""
",5261,audio/instructions/treasure_feedback.wav,32,NA,NA,NA,NA,NA,NA,NA,NA,NA,NA,NA,NA,NA,NA,NA,NA,NA,NA,NA,sub92
d3-instructions,123,567699,0.0-64.0,TRUE,TRUE,FALSE,TRUE,"""event"",""trial"",""time""
""fullscreenenter"",""5"",""23456""
""fullscreenexit"",""100"",""490610""
""blur"",""105"",""502080""
""focus"",""106"",""504185""
","""event"",""trial"",""time""
""blur"",""105"",""502080""
","""event"",""trial"",""time""
""focus"",""106"",""504185""
","""event"",""trial"",""time""
""fullscreenenter"",""5"",""23456""
","""event"",""trial"",""time""
""fullscreenexit"",""100"",""490610""
",NA,NA,NA,NA,NA,NA,NA,NA,NA,NA,NA,NA,NA,NA,NA,NA,NA,NA,NA,NA,NA,NA,sub92
d3-instructions,124,581603,0.0-65.0,TRUE,TRUE,FALSE,TRUE,"""event"",""trial"",""time""
""fullscreenenter"",""5"",""23456""
""fullscreenexit"",""100"",""490610""
""blur"",""105"",""502080""
""focus"",""106"",""504185""
","""event"",""trial"",""time""
""blur"",""105"",""502080""
","""event"",""trial"",""time""
""focus"",""106"",""504185""
","""event"",""trial"",""time""
""fullscreenenter"",""5"",""23456""
","""event"",""trial"",""time""
""fullscreenexit"",""100"",""490610""
",NA,NA,NA,NA,NA,NA,NA,NA,NA,NA,NA,NA,NA,NA,NA,NA,NA,NA,NA,NA,NA,NA,sub92
d3-instructions,125,606174,0.0-66.0,TRUE,TRUE,FALSE,TRUE,"""event"",""trial"",""time""
""fullscreenenter"",""5"",""23456""
""fullscreenexit"",""100"",""490610""
""blur"",""105"",""502080""
""focus"",""106"",""504185""
","""event"",""trial"",""time""
""blur"",""105"",""502080""
","""event"",""trial"",""time""
""focus"",""106"",""504185""
","""event"",""trial"",""time""
""fullscreenenter"",""5"",""23456""
","""event"",""trial"",""time""
""fullscreenexit"",""100"",""490610""
",NA,NA,NA,NA,NA,NA,NA,NA,NA,NA,NA,NA,NA,NA,NA,NA,NA,NA,NA,NA,NA,NA,sub92
d3-instructions,126,622280,0.0-67.0,TRUE,TRUE,FALSE,TRUE,"""event"",""trial"",""time""
""fullscreenenter"",""5"",""23456""
""fullscreenexit"",""100"",""490610""
""blur"",""105"",""502080""
""focus"",""106"",""504185""
","""event"",""trial"",""time""
""blur"",""105"",""502080""
","""event"",""trial"",""time""
""focus"",""106"",""504185""
","""event"",""trial"",""time""
""fullscreenenter"",""5"",""23456""
","""event"",""trial"",""time""
""fullscreenexit"",""100"",""490610""
",NA,NA,NA,NA,NA,NA,NA,NA,NA,NA,NA,NA,NA,NA,NA,NA,NA,NA,NA,NA,NA,NA,sub92
d3-instructions,127,630865,0.0-68.0,TRUE,TRUE,FALSE,TRUE,"""event"",""trial"",""time""
""fullscreenenter"",""5"",""23456""
""fullscreenexit"",""100"",""490610""
""blur"",""105"",""502080""
""focus"",""106"",""504185""
","""event"",""trial"",""time""
""blur"",""105"",""502080""
","""event"",""trial"",""time""
""focus"",""106"",""504185""
","""event"",""trial"",""time""
""fullscreenenter"",""5"",""23456""
","""event"",""trial"",""time""
""fullscreenexit"",""100"",""490610""
",NA,NA,NA,NA,NA,NA,NA,NA,NA,NA,NA,NA,NA,NA,NA,NA,NA,NA,NA,NA,NA,NA,sub92
instructions-quiz,128,635900,0.0-69.0,TRUE,TRUE,FALSE,TRUE,"""event"",""trial"",""time""
""fullscreenenter"",""5"",""23456""
""fullscreenexit"",""100"",""490610""
""blur"",""105"",""502080""
""focus"",""106"",""504185""
","""event"",""trial"",""time""
""blur"",""105"",""502080""
","""event"",""trial"",""time""
""focus"",""106"",""504185""
","""event"",""trial"",""time""
""fullscreenenter"",""5"",""23456""
","""event"",""trial"",""time""
""fullscreenexit"",""100"",""490610""
",5033,audio/quiz/Q1_Prompt.wav,NA,1,NA,NA,NA,NA,NA,NA,NA,NA,NA,NA,NA,NA,NA,NA,NA,NA,NA,NA,sub92
audio-keyboard-response,129,645079,0.0-70.0,TRUE,TRUE,FALSE,TRUE,"""event"",""trial"",""time""
""fullscreenenter"",""5"",""23456""
""fullscreenexit"",""100"",""490610""
""blur"",""105"",""502080""
""focus"",""106"",""504185""
","""event"",""trial"",""time""
""blur"",""105"",""502080""
","""event"",""trial"",""time""
""focus"",""106"",""504185""
","""event"",""trial"",""time""
""fullscreenenter"",""5"",""23456""
","""event"",""trial"",""time""
""fullscreenexit"",""100"",""490610""
",null,audio/quiz/Q1_Correct.wav,null,NA,NA,NA,NA,NA,NA,NA,NA,NA,NA,NA,NA,NA,NA,NA,NA,NA,NA,NA,sub92
instructions-quiz,130,649676,0.0-71.0,TRUE,TRUE,FALSE,TRUE,"""event"",""trial"",""time""
""fullscreenenter"",""5"",""23456""
""fullscreenexit"",""100"",""490610""
""blur"",""105"",""502080""
""focus"",""106"",""504185""
","""event"",""trial"",""time""
""blur"",""105"",""502080""
","""event"",""trial"",""time""
""focus"",""106"",""504185""
","""event"",""trial"",""time""
""fullscreenenter"",""5"",""23456""
","""event"",""trial"",""time""
""fullscreenexit"",""100"",""490610""
",4595,audio/quiz/Q2_Prompt.wav,NA,0,NA,NA,NA,NA,NA,NA,NA,NA,NA,NA,NA,NA,NA,NA,NA,NA,NA,NA,sub92
audio-keyboard-response,131,662558,0.0-72.0,TRUE,TRUE,FALSE,TRUE,"""event"",""trial"",""time""
""fullscreenenter"",""5"",""23456""
""fullscreenexit"",""100"",""490610""
""blur"",""105"",""502080""
""focus"",""106"",""504185""
","""event"",""trial"",""time""
""blur"",""105"",""502080""
","""event"",""trial"",""time""
""focus"",""106"",""504185""
","""event"",""trial"",""time""
""fullscreenenter"",""5"",""23456""
","""event"",""trial"",""time""
""fullscreenexit"",""100"",""490610""
",null,audio/quiz/Q2_Correct.wav,null,NA,NA,NA,NA,NA,NA,NA,NA,NA,NA,NA,NA,NA,NA,NA,NA,NA,NA,NA,sub92
instructions-quiz,132,665305,0.0-73.0,TRUE,TRUE,FALSE,TRUE,"""event"",""trial"",""time""
""fullscreenenter"",""5"",""23456""
""fullscreenexit"",""100"",""490610""
""blur"",""105"",""502080""
""focus"",""106"",""504185""
","""event"",""trial"",""time""
""blur"",""105"",""502080""
","""event"",""trial"",""time""
""focus"",""106"",""504185""
","""event"",""trial"",""time""
""fullscreenenter"",""5"",""23456""
","""event"",""trial"",""time""
""fullscreenexit"",""100"",""490610""
",2744,audio/quiz/Q3_Prompt.wav,NA,1,NA,NA,NA,NA,NA,NA,NA,NA,NA,NA,NA,NA,NA,NA,NA,NA,NA,NA,sub92
audio-keyboard-response,133,671117,0.0-74.0,TRUE,TRUE,FALSE,TRUE,"""event"",""trial"",""time""
""fullscreenenter"",""5"",""23456""
""fullscreenexit"",""100"",""490610""
""blur"",""105"",""502080""
""focus"",""106"",""504185""
","""event"",""trial"",""time""
""blur"",""105"",""502080""
","""event"",""trial"",""time""
""focus"",""106"",""504185""
","""event"",""trial"",""time""
""fullscreenenter"",""5"",""23456""
","""event"",""trial"",""time""
""fullscreenexit"",""100"",""490610""
",null,audio/quiz/Q3_Correct.wav,null,NA,NA,NA,NA,NA,NA,NA,NA,NA,NA,NA,NA,NA,NA,NA,NA,NA,NA,NA,sub92
d3-instructions,134,684820,0.0-75.0,TRUE,TRUE,FALSE,TRUE,"""event"",""trial"",""time""
""fullscreenenter"",""5"",""23456""
""fullscreenexit"",""100"",""490610""
""blur"",""105"",""502080""
""focus"",""106"",""504185""
","""event"",""trial"",""time""
""blur"",""105"",""502080""
","""event"",""trial"",""time""
""focus"",""106"",""504185""
","""event"",""trial"",""time""
""fullscreenenter"",""5"",""23456""
","""event"",""trial"",""time""
""fullscreenexit"",""100"",""490610""
",NA,NA,NA,NA,NA,NA,NA,NA,NA,NA,NA,NA,NA,NA,NA,NA,NA,NA,NA,NA,NA,NA,sub92
d3-animate-choice,135,688845,0.0-76.0-0.0,TRUE,TRUE,FALSE,TRUE,"""event"",""trial"",""time""
""fullscreenenter"",""5"",""23456""
""fullscreenexit"",""100"",""490610""
""blur"",""105"",""502080""
""focus"",""106"",""504185""
","""event"",""trial"",""time""
""blur"",""105"",""502080""
","""event"",""trial"",""time""
""focus"",""106"",""504185""
","""event"",""trial"",""time""
""fullscreenenter"",""5"",""23456""
","""event"",""trial"",""time""
""fullscreenexit"",""100"",""490610""
",2557,NA,48,NA,NA,3000,1,NA,NA,images/earth.jpg,images/rocket2,images/rocket1,null,images/rocket2,NA,1,real,null,2,NA,NA,NA,sub92
d3-animate-choice,136,692246,0.0-76.0-1.0,TRUE,TRUE,FALSE,TRUE,"""event"",""trial"",""time""
""fullscreenenter"",""5"",""23456""
""fullscreenexit"",""100"",""490610""
""blur"",""105"",""502080""
""focus"",""106"",""504185""
","""event"",""trial"",""time""
""blur"",""105"",""502080""
","""event"",""trial"",""time""
""focus"",""106"",""504185""
","""event"",""trial"",""time""
""fullscreenenter"",""5"",""23456""
","""event"",""trial"",""time""
""fullscreenexit"",""100"",""490610""
",1389,NA,49,NA,NA,3000,1,NA,NA,images/purpleplanet.jpg,images/alien4,images/alien3,images/rocket2,images/alien3,images/nothing.png,2,real,true,1,common,0,2020-06-23T19:40:57Z,sub92
two-step-fixation,137,693266,0.0-76.0-2.0,TRUE,TRUE,FALSE,TRUE,"""event"",""trial"",""time""
""fullscreenenter"",""5"",""23456""
""fullscreenexit"",""100"",""490610""
""blur"",""105"",""502080""
""focus"",""106"",""504185""
","""event"",""trial"",""time""
""blur"",""105"",""502080""
","""event"",""trial"",""time""
""focus"",""106"",""504185""
","""event"",""trial"",""time""
""fullscreenenter"",""5"",""23456""
","""event"",""trial"",""time""
""fullscreenexit"",""100"",""490610""
",NA,images/earth.jpg,NA,NA,NA,NA,NA,NA,NA,NA,NA,NA,NA,NA,NA,fixation,NA,NA,NA,NA,NA,NA,sub92
d3-animate-choice,138,696275,0.0-76.0-0.1,TRUE,TRUE,FALSE,TRUE,"""event"",""trial"",""time""
""fullscreenenter"",""5"",""23456""
""fullscreenexit"",""100"",""490610""
""blur"",""105"",""502080""
""focus"",""106"",""504185""
","""event"",""trial"",""time""
""blur"",""105"",""502080""
","""event"",""trial"",""time""
""focus"",""106"",""504185""
","""event"",""trial"",""time""
""fullscreenenter"",""5"",""23456""
","""event"",""trial"",""time""
""fullscreenexit"",""100"",""490610""
",986,NA,48,NA,NA,3000,1,NA,NA,images/earth.jpg,images/rocket2,images/rocket1,null,images/rocket2,NA,1,real,null,2,NA,NA,NA,sub92
d3-animate-choice,139,699296,0.0-76.0-1.1,TRUE,TRUE,FALSE,TRUE,"""event"",""trial"",""time""
""fullscreenenter"",""5"",""23456""
""fullscreenexit"",""100"",""490610""
""blur"",""105"",""502080""
""focus"",""106"",""504185""
","""event"",""trial"",""time""
""blur"",""105"",""502080""
","""event"",""trial"",""time""
""focus"",""106"",""504185""
","""event"",""trial"",""time""
""fullscreenenter"",""5"",""23456""
","""event"",""trial"",""time""
""fullscreenexit"",""100"",""490610""
",1013,NA,48,NA,NA,3000,1,NA,NA,images/redplanet1.jpg,images/alien2,images/alien1,images/rocket2,images/alien2,images/t.png,2,real,false,2,rare,1,2020-06-23T19:41:04Z,sub92
two-step-fixation,140,700316,0.0-76.0-2.1,TRUE,TRUE,FALSE,TRUE,"""event"",""trial"",""time""
""fullscreenenter"",""5"",""23456""
""fullscreenexit"",""100"",""490610""
""blur"",""105"",""502080""
""focus"",""106"",""504185""
","""event"",""trial"",""time""
""blur"",""105"",""502080""
","""event"",""trial"",""time""
""focus"",""106"",""504185""
","""event"",""trial"",""time""
""fullscreenenter"",""5"",""23456""
","""event"",""trial"",""time""
""fullscreenexit"",""100"",""490610""
",NA,images/earth.jpg,NA,NA,NA,NA,NA,NA,NA,NA,NA,NA,NA,NA,NA,fixation,NA,NA,NA,NA,NA,NA,sub92
d3-animate-choice,141,703035,0.0-76.0-0.2,TRUE,TRUE,FALSE,TRUE,"""event"",""trial"",""time""
""fullscreenenter"",""5"",""23456""
""fullscreenexit"",""100"",""490610""
""blur"",""105"",""502080""
""focus"",""106"",""504185""
","""event"",""trial"",""time""
""blur"",""105"",""502080""
","""event"",""trial"",""time""
""focus"",""106"",""504185""
","""event"",""trial"",""time""
""fullscreenenter"",""5"",""23456""
","""event"",""trial"",""time""
""fullscreenexit"",""100"",""490610""
",703,NA,49,NA,NA,3000,1,NA,NA,images/earth.jpg,images/rocket2,images/rocket1,null,images/rocket1,NA,1,real,null,1,NA,NA,NA,sub92
d3-animate-choice,142,706676,0.0-76.0-1.2,TRUE,TRUE,FALSE,TRUE,"""event"",""trial"",""time""
""fullscreenenter"",""5"",""23456""
""fullscreenexit"",""100"",""490610""
""blur"",""105"",""502080""
""focus"",""106"",""504185""
","""event"",""trial"",""time""
""blur"",""105"",""502080""
","""event"",""trial"",""time""
""focus"",""106"",""504185""
","""event"",""trial"",""time""
""fullscreenenter"",""5"",""23456""
","""event"",""trial"",""time""
""fullscreenexit"",""100"",""490610""
",1617,NA,49,NA,NA,3000,1,NA,NA,images/purpleplanet.jpg,images/alien4,images/alien3,images/rocket1,images/alien3,images/t.png,2,real,false,1,rare,1,2020-06-23T19:41:12Z,sub92
two-step-fixation,143,707695,0.0-76.0-2.2,TRUE,TRUE,FALSE,TRUE,"""event"",""trial"",""time""
""fullscreenenter"",""5"",""23456""
""fullscreenexit"",""100"",""490610""
""blur"",""105"",""502080""
""focus"",""106"",""504185""
","""event"",""trial"",""time""
""blur"",""105"",""502080""
","""event"",""trial"",""time""
""focus"",""106"",""504185""
","""event"",""trial"",""time""
""fullscreenenter"",""5"",""23456""
","""event"",""trial"",""time""
""fullscreenexit"",""100"",""490610""
",NA,images/earth.jpg,NA,NA,NA,NA,NA,NA,NA,NA,NA,NA,NA,NA,NA,fixation,NA,NA,NA,NA,NA,NA,sub92
d3-animate-choice,144,710455,0.0-76.0-0.3,TRUE,TRUE,FALSE,TRUE,"""event"",""trial"",""time""
""fullscreenenter"",""5"",""23456""
""fullscreenexit"",""100"",""490610""
""blur"",""105"",""502080""
""focus"",""106"",""504185""
","""event"",""trial"",""time""
""blur"",""105"",""502080""
","""event"",""trial"",""time""
""focus"",""106"",""504185""
","""event"",""trial"",""time""
""fullscreenenter"",""5"",""23456""
","""event"",""trial"",""time""
""fullscreenexit"",""100"",""490610""
",737,NA,49,NA,NA,3000,1,NA,NA,images/earth.jpg,images/rocket2,images/rocket1,null,images/rocket1,NA,1,real,null,1,NA,NA,NA,sub92
d3-animate-choice,145,714486,0.0-76.0-1.3,TRUE,TRUE,FALSE,TRUE,"""event"",""trial"",""time""
""fullscreenenter"",""5"",""23456""
""fullscreenexit"",""100"",""490610""
""blur"",""105"",""502080""
""focus"",""106"",""504185""
","""event"",""trial"",""time""
""blur"",""105"",""502080""
","""event"",""trial"",""time""
""focus"",""106"",""504185""
","""event"",""trial"",""time""
""fullscreenenter"",""5"",""23456""
","""event"",""trial"",""time""
""fullscreenexit"",""100"",""490610""
",2049,NA,48,NA,NA,3000,1,NA,NA,images/redplanet1.jpg,images/alien2,images/alien1,images/rocket1,images/alien2,images/nothing.png,2,real,true,2,common,0,2020-06-23T19:41:19Z,sub92
two-step-fixation,146,715495,0.0-76.0-2.3,TRUE,TRUE,FALSE,TRUE,"""event"",""trial"",""time""
""fullscreenenter"",""5"",""23456""
""fullscreenexit"",""100"",""490610""
""blur"",""105"",""502080""
""focus"",""106"",""504185""
","""event"",""trial"",""time""
""blur"",""105"",""502080""
","""event"",""trial"",""time""
""focus"",""106"",""504185""
","""event"",""trial"",""time""
""fullscreenenter"",""5"",""23456""
","""event"",""trial"",""time""
""fullscreenexit"",""100"",""490610""
",NA,images/earth.jpg,NA,NA,NA,NA,NA,NA,NA,NA,NA,NA,NA,NA,NA,fixation,NA,NA,NA,NA,NA,NA,sub92
d3-animate-choice,147,717715,0.0-76.0-0.4,TRUE,TRUE,FALSE,TRUE,"""event"",""trial"",""time""
""fullscreenenter"",""5"",""23456""
""fullscreenexit"",""100"",""490610""
""blur"",""105"",""502080""
""focus"",""106"",""504185""
","""event"",""trial"",""time""
""blur"",""105"",""502080""
","""event"",""trial"",""time""
""focus"",""106"",""504185""
","""event"",""trial"",""time""
""fullscreenenter"",""5"",""23456""
","""event"",""trial"",""time""
""fullscreenexit"",""100"",""490610""
",197,NA,49,NA,NA,3000,1,NA,NA,images/earth.jpg,images/rocket2,images/rocket1,null,images/rocket1,NA,1,real,null,1,NA,NA,NA,sub92
d3-animate-choice,148,720465,0.0-76.0-1.4,TRUE,TRUE,FALSE,TRUE,"""event"",""trial"",""time""
""fullscreenenter"",""5"",""23456""
""fullscreenexit"",""100"",""490610""
""blur"",""105"",""502080""
""focus"",""106"",""504185""
","""event"",""trial"",""time""
""blur"",""105"",""502080""
","""event"",""trial"",""time""
""focus"",""106"",""504185""
","""event"",""trial"",""time""
""fullscreenenter"",""5"",""23456""
","""event"",""trial"",""time""
""fullscreenexit"",""100"",""490610""
",740,NA,49,NA,NA,3000,1,NA,NA,images/redplanet1.jpg,images/alien2,images/alien1,images/rocket1,images/alien1,images/nothing.png,2,real,true,1,common,0,2020-06-23T19:41:25Z,sub92
two-step-fixation,149,721475,0.0-76.0-2.4,TRUE,TRUE,FALSE,TRUE,"""event"",""trial"",""time""
""fullscreenenter"",""5"",""23456""
""fullscreenexit"",""100"",""490610""
""blur"",""105"",""502080""
""focus"",""106"",""504185""
","""event"",""trial"",""time""
""blur"",""105"",""502080""
","""event"",""trial"",""time""
""focus"",""106"",""504185""
","""event"",""trial"",""time""
""fullscreenenter"",""5"",""23456""
","""event"",""trial"",""time""
""fullscreenexit"",""100"",""490610""
",NA,images/earth.jpg,NA,NA,NA,NA,NA,NA,NA,NA,NA,NA,NA,NA,NA,fixation,NA,NA,NA,NA,NA,NA,sub92
d3-animate-choice,150,724305,0.0-76.0-0.5,TRUE,TRUE,FALSE,TRUE,"""event"",""trial"",""time""
""fullscreenenter"",""5"",""23456""
""fullscreenexit"",""100"",""490610""
""blur"",""105"",""502080""
""focus"",""106"",""504185""
","""event"",""trial"",""time""
""blur"",""105"",""502080""
","""event"",""trial"",""time""
""focus"",""106"",""504185""
","""event"",""trial"",""time""
""fullscreenenter"",""5"",""23456""
","""event"",""trial"",""time""
""fullscreenexit"",""100"",""490610""
",814,NA,48,NA,NA,3000,1,NA,NA,images/earth.jpg,images/rocket2,images/rocket1,null,images/rocket2,NA,1,real,null,2,NA,NA,NA,sub92
d3-animate-choice,151,726735,0.0-76.0-1.5,TRUE,TRUE,FALSE,TRUE,"""event"",""trial"",""time""
""fullscreenenter"",""5"",""23456""
""fullscreenexit"",""100"",""490610""
""blur"",""105"",""502080""
""focus"",""106"",""504185""
","""event"",""trial"",""time""
""blur"",""105"",""502080""
","""event"",""trial"",""time""
""focus"",""106"",""504185""
","""event"",""trial"",""time""
""fullscreenenter"",""5"",""23456""
","""event"",""trial"",""time""
""fullscreenexit"",""100"",""490610""
",409,NA,49,NA,NA,3000,1,NA,NA,images/redplanet1.jpg,images/alien2,images/alien1,images/rocket2,images/alien1,images/nothing.png,2,real,false,1,rare,0,2020-06-23T19:41:32Z,sub92
two-step-fixation,152,727755,0.0-76.0-2.5,TRUE,TRUE,FALSE,TRUE,"""event"",""trial"",""time""
""fullscreenenter"",""5"",""23456""
""fullscreenexit"",""100"",""490610""
""blur"",""105"",""502080""
""focus"",""106"",""504185""
","""event"",""trial"",""time""
""blur"",""105"",""502080""
","""event"",""trial"",""time""
""focus"",""106"",""504185""
","""event"",""trial"",""time""
""fullscreenenter"",""5"",""23456""
","""event"",""trial"",""time""
""fullscreenexit"",""100"",""490610""
",NA,images/earth.jpg,NA,NA,NA,NA,NA,NA,NA,NA,NA,NA,NA,NA,NA,fixation,NA,NA,NA,NA,NA,NA,sub92
d3-animate-choice,153,730055,0.0-76.0-0.6,TRUE,TRUE,FALSE,TRUE,"""event"",""trial"",""time""
""fullscreenenter"",""5"",""23456""
""fullscreenexit"",""100"",""490610""
""blur"",""105"",""502080""
""focus"",""106"",""504185""
","""event"",""trial"",""time""
""blur"",""105"",""502080""
","""event"",""trial"",""time""
""focus"",""106"",""504185""
","""event"",""trial"",""time""
""fullscreenenter"",""5"",""23456""
","""event"",""trial"",""time""
""fullscreenexit"",""100"",""490610""
",291,NA,49,NA,NA,3000,1,NA,NA,images/earth.jpg,images/rocket2,images/rocket1,null,images/rocket1,NA,1,real,null,1,NA,NA,NA,sub92
d3-animate-choice,154,733726,0.0-76.0-1.6,TRUE,TRUE,FALSE,TRUE,"""event"",""trial"",""time""
""fullscreenenter"",""5"",""23456""
""fullscreenexit"",""100"",""490610""
""blur"",""105"",""502080""
""focus"",""106"",""504185""
","""event"",""trial"",""time""
""blur"",""105"",""502080""
","""event"",""trial"",""time""
""focus"",""106"",""504185""
","""event"",""trial"",""time""
""fullscreenenter"",""5"",""23456""
","""event"",""trial"",""time""
""fullscreenexit"",""100"",""490610""
",1659,NA,49,NA,NA,3000,1,NA,NA,images/redplanet1.jpg,images/alien2,images/alien1,images/rocket1,images/alien1,images/t.png,2,real,true,1,common,1,2020-06-23T19:41:39Z,sub92
two-step-fixation,155,734746,0.0-76.0-2.6,TRUE,TRUE,FALSE,TRUE,"""event"",""trial"",""time""
""fullscreenenter"",""5"",""23456""
""fullscreenexit"",""100"",""490610""
""blur"",""105"",""502080""
""focus"",""106"",""504185""
","""event"",""trial"",""time""
""blur"",""105"",""502080""
","""event"",""trial"",""time""
""focus"",""106"",""504185""
","""event"",""trial"",""time""
""fullscreenenter"",""5"",""23456""
","""event"",""trial"",""time""
""fullscreenexit"",""100"",""490610""
",NA,images/earth.jpg,NA,NA,NA,NA,NA,NA,NA,NA,NA,NA,NA,NA,NA,fixation,NA,NA,NA,NA,NA,NA,sub92
d3-animate-choice,156,737545,0.0-76.0-0.7,TRUE,TRUE,FALSE,TRUE,"""event"",""trial"",""time""
""fullscreenenter"",""5"",""23456""
""fullscreenexit"",""100"",""490610""
""blur"",""105"",""502080""
""focus"",""106"",""504185""
","""event"",""trial"",""time""
""blur"",""105"",""502080""
","""event"",""trial"",""time""
""focus"",""106"",""504185""
","""event"",""trial"",""time""
""fullscreenenter"",""5"",""23456""
","""event"",""trial"",""time""
""fullscreenexit"",""100"",""490610""
",791,NA,48,NA,NA,3000,1,NA,NA,images/earth.jpg,images/rocket2,images/rocket1,null,images/rocket2,NA,1,real,null,2,NA,NA,NA,sub92
d3-animate-choice,157,741435,0.0-76.0-1.7,TRUE,TRUE,FALSE,TRUE,"""event"",""trial"",""time""
""fullscreenenter"",""5"",""23456""
""fullscreenexit"",""100"",""490610""
""blur"",""105"",""502080""
""focus"",""106"",""504185""
","""event"",""trial"",""time""
""blur"",""105"",""502080""
","""event"",""trial"",""time""
""focus"",""106"",""504185""
","""event"",""trial"",""time""
""fullscreenenter"",""5"",""23456""
","""event"",""trial"",""time""
""fullscreenexit"",""100"",""490610""
",1882,NA,49,NA,NA,3000,1,NA,NA,images/purpleplanet.jpg,images/alien4,images/alien3,images/rocket2,images/alien3,images/nothing.png,2,real,true,1,common,0,2020-06-23T19:41:46Z,sub92
two-step-fixation,158,742455,0.0-76.0-2.7,TRUE,TRUE,FALSE,TRUE,"""event"",""trial"",""time""
""fullscreenenter"",""5"",""23456""
""fullscreenexit"",""100"",""490610""
""blur"",""105"",""502080""
""focus"",""106"",""504185""
","""event"",""trial"",""time""
""blur"",""105"",""502080""
","""event"",""trial"",""time""
""focus"",""106"",""504185""
","""event"",""trial"",""time""
""fullscreenenter"",""5"",""23456""
","""event"",""trial"",""time""
""fullscreenexit"",""100"",""490610""
",NA,images/earth.jpg,NA,NA,NA,NA,NA,NA,NA,NA,NA,NA,NA,NA,NA,fixation,NA,NA,NA,NA,NA,NA,sub92
d3-animate-choice,159,745215,0.0-76.0-0.8,TRUE,TRUE,FALSE,TRUE,"""event"",""trial"",""time""
""fullscreenenter"",""5"",""23456""
""fullscreenexit"",""100"",""490610""
""blur"",""105"",""502080""
""focus"",""106"",""504185""
","""event"",""trial"",""time""
""blur"",""105"",""502080""
","""event"",""trial"",""time""
""focus"",""106"",""504185""
","""event"",""trial"",""time""
""fullscreenenter"",""5"",""23456""
","""event"",""trial"",""time""
""fullscreenexit"",""100"",""490610""
",756,NA,48,NA,NA,3000,1,NA,NA,images/earth.jpg,images/rocket2,images/rocket1,null,images/rocket2,NA,1,real,null,2,NA,NA,NA,sub92
d3-animate-choice,160,748195,0.0-76.0-1.8,TRUE,TRUE,FALSE,TRUE,"""event"",""trial"",""time""
""fullscreenenter"",""5"",""23456""
""fullscreenexit"",""100"",""490610""
""blur"",""105"",""502080""
""focus"",""106"",""504185""
","""event"",""trial"",""time""
""blur"",""105"",""502080""
","""event"",""trial"",""time""
""focus"",""106"",""504185""
","""event"",""trial"",""time""
""fullscreenenter"",""5"",""23456""
","""event"",""trial"",""time""
""fullscreenexit"",""100"",""490610""
",968,NA,48,NA,NA,3000,1,NA,NA,images/purpleplanet.jpg,images/alien4,images/alien3,images/rocket2,images/alien4,images/nothing.png,2,real,true,2,common,0,2020-06-23T19:41:53Z,sub92
two-step-fixation,161,749206,0.0-76.0-2.8,TRUE,TRUE,FALSE,TRUE,"""event"",""trial"",""time""
""fullscreenenter"",""5"",""23456""
""fullscreenexit"",""100"",""490610""
""blur"",""105"",""502080""
""focus"",""106"",""504185""
","""event"",""trial"",""time""
""blur"",""105"",""502080""
","""event"",""trial"",""time""
""focus"",""106"",""504185""
","""event"",""trial"",""time""
""fullscreenenter"",""5"",""23456""
","""event"",""trial"",""time""
""fullscreenexit"",""100"",""490610""
",NA,images/earth.jpg,NA,NA,NA,NA,NA,NA,NA,NA,NA,NA,NA,NA,NA,fixation,NA,NA,NA,NA,NA,NA,sub92
d3-animate-choice,162,752006,0.0-76.0-0.9,TRUE,TRUE,FALSE,TRUE,"""event"",""trial"",""time""
""fullscreenenter"",""5"",""23456""
""fullscreenexit"",""100"",""490610""
""blur"",""105"",""502080""
""focus"",""106"",""504185""
","""event"",""trial"",""time""
""blur"",""105"",""502080""
","""event"",""trial"",""time""
""focus"",""106"",""504185""
","""event"",""trial"",""time""
""fullscreenenter"",""5"",""23456""
","""event"",""trial"",""time""
""fullscreenexit"",""100"",""490610""
",792,NA,49,NA,NA,3000,1,NA,NA,images/earth.jpg,images/rocket2,images/rocket1,null,images/rocket1,NA,1,real,null,1,NA,NA,NA,sub92
d3-animate-choice,163,754664,0.0-76.0-1.9,TRUE,TRUE,FALSE,TRUE,"""event"",""trial"",""time""
""fullscreenenter"",""5"",""23456""
""fullscreenexit"",""100"",""490610""
""blur"",""105"",""502080""
""focus"",""106"",""504185""
","""event"",""trial"",""time""
""blur"",""105"",""502080""
","""event"",""trial"",""time""
""focus"",""106"",""504185""
","""event"",""trial"",""time""
""fullscreenenter"",""5"",""23456""
","""event"",""trial"",""time""
""fullscreenexit"",""100"",""490610""
",647,NA,49,NA,NA,3000,1,NA,NA,images/redplanet1.jpg,images/alien2,images/alien1,images/rocket1,images/alien1,images/nothing.png,2,real,true,1,common,0,2020-06-23T19:42:00Z,sub92
two-step-fixation,164,755666,0.0-76.0-2.9,TRUE,TRUE,FALSE,TRUE,"""event"",""trial"",""time""
""fullscreenenter"",""5"",""23456""
""fullscreenexit"",""100"",""490610""
""blur"",""105"",""502080""
""focus"",""106"",""504185""
","""event"",""trial"",""time""
""blur"",""105"",""502080""
","""event"",""trial"",""time""
""focus"",""106"",""504185""
","""event"",""trial"",""time""
""fullscreenenter"",""5"",""23456""
","""event"",""trial"",""time""
""fullscreenexit"",""100"",""490610""
",NA,images/earth.jpg,NA,NA,NA,NA,NA,NA,NA,NA,NA,NA,NA,NA,NA,fixation,NA,NA,NA,NA,NA,NA,sub92
d3-animate-choice,165,758645,0.0-76.0-0.10,TRUE,TRUE,FALSE,TRUE,"""event"",""trial"",""time""
""fullscreenenter"",""5"",""23456""
""fullscreenexit"",""100"",""490610""
""blur"",""105"",""502080""
""focus"",""106"",""504185""
","""event"",""trial"",""time""
""blur"",""105"",""502080""
","""event"",""trial"",""time""
""focus"",""106"",""504185""
","""event"",""trial"",""time""
""fullscreenenter"",""5"",""23456""
","""event"",""trial"",""time""
""fullscreenexit"",""100"",""490610""
",963,NA,49,NA,NA,3000,1,NA,NA,images/earth.jpg,images/rocket2,images/rocket1,null,images/rocket1,NA,1,real,null,1,NA,NA,NA,sub92
d3-animate-choice,166,761126,0.0-76.0-1.10,TRUE,TRUE,FALSE,TRUE,"""event"",""trial"",""time""
""fullscreenenter"",""5"",""23456""
""fullscreenexit"",""100"",""490610""
""blur"",""105"",""502080""
""focus"",""106"",""504185""
","""event"",""trial"",""time""
""blur"",""105"",""502080""
","""event"",""trial"",""time""
""focus"",""106"",""504185""
","""event"",""trial"",""time""
""fullscreenenter"",""5"",""23456""
","""event"",""trial"",""time""
""fullscreenexit"",""100"",""490610""
",471,NA,48,NA,NA,3000,1,NA,NA,images/redplanet1.jpg,images/alien2,images/alien1,images/rocket1,images/alien2,images/nothing.png,2,real,true,2,common,0,2020-06-23T19:42:06Z,sub92
two-step-fixation,167,762145,0.0-76.0-2.10,TRUE,TRUE,FALSE,TRUE,"""event"",""trial"",""time""
""fullscreenenter"",""5"",""23456""
""fullscreenexit"",""100"",""490610""
""blur"",""105"",""502080""
""focus"",""106"",""504185""
","""event"",""trial"",""time""
""blur"",""105"",""502080""
","""event"",""trial"",""time""
""focus"",""106"",""504185""
","""event"",""trial"",""time""
""fullscreenenter"",""5"",""23456""
","""event"",""trial"",""time""
""fullscreenexit"",""100"",""490610""
",NA,images/earth.jpg,NA,NA,NA,NA,NA,NA,NA,NA,NA,NA,NA,NA,NA,fixation,NA,NA,NA,NA,NA,NA,sub92
d3-animate-choice,168,764785,0.0-76.0-0.11,TRUE,TRUE,FALSE,TRUE,"""event"",""trial"",""time""
""fullscreenenter"",""5"",""23456""
""fullscreenexit"",""100"",""490610""
""blur"",""105"",""502080""
""focus"",""106"",""504185""
","""event"",""trial"",""time""
""blur"",""105"",""502080""
","""event"",""trial"",""time""
""focus"",""106"",""504185""
","""event"",""trial"",""time""
""fullscreenenter"",""5"",""23456""
","""event"",""trial"",""time""
""fullscreenexit"",""100"",""490610""
",626,NA,49,NA,NA,3000,1,NA,NA,images/earth.jpg,images/rocket2,images/rocket1,null,images/rocket1,NA,1,real,null,1,NA,NA,NA,sub92
d3-animate-choice,169,767345,0.0-76.0-1.11,TRUE,TRUE,FALSE,TRUE,"""event"",""trial"",""time""
""fullscreenenter"",""5"",""23456""
""fullscreenexit"",""100"",""490610""
""blur"",""105"",""502080""
""focus"",""106"",""504185""
","""event"",""trial"",""time""
""blur"",""105"",""502080""
","""event"",""trial"",""time""
""focus"",""106"",""504185""
","""event"",""trial"",""time""
""fullscreenenter"",""5"",""23456""
","""event"",""trial"",""time""
""fullscreenexit"",""100"",""490610""
",536,NA,48,NA,NA,3000,1,NA,NA,images/redplanet1.jpg,images/alien2,images/alien1,images/rocket1,images/alien2,images/t.png,2,real,true,2,common,1,2020-06-23T19:42:12Z,sub92
two-step-fixation,170,768365,0.0-76.0-2.11,TRUE,TRUE,FALSE,TRUE,"""event"",""trial"",""time""
""fullscreenenter"",""5"",""23456""
""fullscreenexit"",""100"",""490610""
""blur"",""105"",""502080""
""focus"",""106"",""504185""
","""event"",""trial"",""time""
""blur"",""105"",""502080""
","""event"",""trial"",""time""
""focus"",""106"",""504185""
","""event"",""trial"",""time""
""fullscreenenter"",""5"",""23456""
","""event"",""trial"",""time""
""fullscreenexit"",""100"",""490610""
",NA,images/earth.jpg,NA,NA,NA,NA,NA,NA,NA,NA,NA,NA,NA,NA,NA,fixation,NA,NA,NA,NA,NA,NA,sub92
d3-animate-choice,171,771155,0.0-76.0-0.12,TRUE,TRUE,FALSE,TRUE,"""event"",""trial"",""time""
""fullscreenenter"",""5"",""23456""
""fullscreenexit"",""100"",""490610""
""blur"",""105"",""502080""
""focus"",""106"",""504185""
","""event"",""trial"",""time""
""blur"",""105"",""502080""
","""event"",""trial"",""time""
""focus"",""106"",""504185""
","""event"",""trial"",""time""
""fullscreenenter"",""5"",""23456""
","""event"",""trial"",""time""
""fullscreenexit"",""100"",""490610""
",780,NA,49,NA,NA,3000,1,NA,NA,images/earth.jpg,images/rocket2,images/rocket1,null,images/rocket1,NA,1,real,null,1,NA,NA,NA,sub92
d3-animate-choice,172,773875,0.0-76.0-1.12,TRUE,TRUE,FALSE,TRUE,"""event"",""trial"",""time""
""fullscreenenter"",""5"",""23456""
""fullscreenexit"",""100"",""490610""
""blur"",""105"",""502080""
""focus"",""106"",""504185""
","""event"",""trial"",""time""
""blur"",""105"",""502080""
","""event"",""trial"",""time""
""focus"",""106"",""504185""
","""event"",""trial"",""time""
""fullscreenenter"",""5"",""23456""
","""event"",""trial"",""time""
""fullscreenexit"",""100"",""490610""
",701,NA,48,NA,NA,3000,1,NA,NA,images/redplanet1.jpg,images/alien2,images/alien1,images/rocket1,images/alien2,images/nothing.png,2,real,true,2,common,0,2020-06-23T19:42:19Z,sub92
two-step-fixation,173,774891,0.0-76.0-2.12,TRUE,TRUE,FALSE,TRUE,"""event"",""trial"",""time""
""fullscreenenter"",""5"",""23456""
""fullscreenexit"",""100"",""490610""
""blur"",""105"",""502080""
""focus"",""106"",""504185""
","""event"",""trial"",""time""
""blur"",""105"",""502080""
","""event"",""trial"",""time""
""focus"",""106"",""504185""
","""event"",""trial"",""time""
""fullscreenenter"",""5"",""23456""
","""event"",""trial"",""time""
""fullscreenexit"",""100"",""490610""
",NA,images/earth.jpg,NA,NA,NA,NA,NA,NA,NA,NA,NA,NA,NA,NA,NA,fixation,NA,NA,NA,NA,NA,NA,sub92
d3-animate-choice,174,777555,0.0-76.0-0.13,TRUE,TRUE,FALSE,TRUE,"""event"",""trial"",""time""
""fullscreenenter"",""5"",""23456""
""fullscreenexit"",""100"",""490610""
""blur"",""105"",""502080""
""focus"",""106"",""504185""
","""event"",""trial"",""time""
""blur"",""105"",""502080""
","""event"",""trial"",""time""
""focus"",""106"",""504185""
","""event"",""trial"",""time""
""fullscreenenter"",""5"",""23456""
","""event"",""trial"",""time""
""fullscreenexit"",""100"",""490610""
",661,NA,49,NA,NA,3000,1,NA,NA,images/earth.jpg,images/rocket2,images/rocket1,null,images/rocket1,NA,1,real,null,1,NA,NA,NA,sub92
d3-animate-choice,175,780036,0.0-76.0-1.13,TRUE,TRUE,FALSE,TRUE,"""event"",""trial"",""time""
""fullscreenenter"",""5"",""23456""
""fullscreenexit"",""100"",""490610""
""blur"",""105"",""502080""
""focus"",""106"",""504185""
","""event"",""trial"",""time""
""blur"",""105"",""502080""
","""event"",""trial"",""time""
""focus"",""106"",""504185""
","""event"",""trial"",""time""
""fullscreenenter"",""5"",""23456""
","""event"",""trial"",""time""
""fullscreenexit"",""100"",""490610""
",460,NA,48,NA,NA,3000,1,NA,NA,images/redplanet1.jpg,images/alien2,images/alien1,images/rocket1,images/alien2,images/t.png,2,real,true,2,common,1,2020-06-23T19:42:25Z,sub92
two-step-fixation,176,781055,0.0-76.0-2.13,TRUE,TRUE,FALSE,TRUE,"""event"",""trial"",""time""
""fullscreenenter"",""5"",""23456""
""fullscreenexit"",""100"",""490610""
""blur"",""105"",""502080""
""focus"",""106"",""504185""
","""event"",""trial"",""time""
""blur"",""105"",""502080""
","""event"",""trial"",""time""
""focus"",""106"",""504185""
","""event"",""trial"",""time""
""fullscreenenter"",""5"",""23456""
","""event"",""trial"",""time""
""fullscreenexit"",""100"",""490610""
",NA,images/earth.jpg,NA,NA,NA,NA,NA,NA,NA,NA,NA,NA,NA,NA,NA,fixation,NA,NA,NA,NA,NA,NA,sub92
d3-animate-choice,177,785076,0.0-76.0-0.14,TRUE,TRUE,FALSE,TRUE,"""event"",""trial"",""time""
""fullscreenenter"",""5"",""23456""
""fullscreenexit"",""100"",""490610""
""blur"",""105"",""502080""
""focus"",""106"",""504185""
","""event"",""trial"",""time""
""blur"",""105"",""502080""
","""event"",""trial"",""time""
""focus"",""106"",""504185""
","""event"",""trial"",""time""
""fullscreenenter"",""5"",""23456""
","""event"",""trial"",""time""
""fullscreenexit"",""100"",""490610""
",2262,NA,49,NA,NA,3000,1,NA,NA,images/earth.jpg,images/rocket2,images/rocket1,null,images/rocket1,NA,1,real,null,1,NA,NA,NA,sub92
d3-animate-choice,178,787995,0.0-76.0-1.14,TRUE,TRUE,FALSE,TRUE,"""event"",""trial"",""time""
""fullscreenenter"",""5"",""23456""
""fullscreenexit"",""100"",""490610""
""blur"",""105"",""502080""
""focus"",""106"",""504185""
","""event"",""trial"",""time""
""blur"",""105"",""502080""
","""event"",""trial"",""time""
""focus"",""106"",""504185""
","""event"",""trial"",""time""
""fullscreenenter"",""5"",""23456""
","""event"",""trial"",""time""
""fullscreenexit"",""100"",""490610""
",905,NA,49,NA,NA,3000,1,NA,NA,images/redplanet1.jpg,images/alien2,images/alien1,images/rocket1,images/alien1,images/nothing.png,2,real,true,1,common,0,2020-06-23T19:42:33Z,sub92
two-step-fixation,179,789015,0.0-76.0-2.14,TRUE,TRUE,FALSE,TRUE,"""event"",""trial"",""time""
""fullscreenenter"",""5"",""23456""
""fullscreenexit"",""100"",""490610""
""blur"",""105"",""502080""
""focus"",""106"",""504185""
","""event"",""trial"",""time""
""blur"",""105"",""502080""
","""event"",""trial"",""time""
""focus"",""106"",""504185""
","""event"",""trial"",""time""
""fullscreenenter"",""5"",""23456""
","""event"",""trial"",""time""
""fullscreenexit"",""100"",""490610""
",NA,images/earth.jpg,NA,NA,NA,NA,NA,NA,NA,NA,NA,NA,NA,NA,NA,fixation,NA,NA,NA,NA,NA,NA,sub92
d3-animate-choice,180,791416,0.0-76.0-0.15,TRUE,TRUE,FALSE,TRUE,"""event"",""trial"",""time""
""fullscreenenter"",""5"",""23456""
""fullscreenexit"",""100"",""490610""
""blur"",""105"",""502080""
""focus"",""106"",""504185""
","""event"",""trial"",""time""
""blur"",""105"",""502080""
","""event"",""trial"",""time""
""focus"",""106"",""504185""
","""event"",""trial"",""time""
""fullscreenenter"",""5"",""23456""
","""event"",""trial"",""time""
""fullscreenexit"",""100"",""490610""
",379,NA,48,NA,NA,3000,1,NA,NA,images/earth.jpg,images/rocket2,images/rocket1,null,images/rocket2,NA,1,real,null,2,NA,NA,NA,sub92
d3-animate-choice,181,795206,0.0-76.0-1.15,TRUE,TRUE,FALSE,TRUE,"""event"",""trial"",""time""
""fullscreenenter"",""5"",""23456""
""fullscreenexit"",""100"",""490610""
""blur"",""105"",""502080""
""focus"",""106"",""504185""
","""event"",""trial"",""time""
""blur"",""105"",""502080""
","""event"",""trial"",""time""
""focus"",""106"",""504185""
","""event"",""trial"",""time""
""fullscreenenter"",""5"",""23456""
","""event"",""trial"",""time""
""fullscreenexit"",""100"",""490610""
",1772,NA,48,NA,NA,3000,1,NA,NA,images/purpleplanet.jpg,images/alien4,images/alien3,images/rocket2,images/alien4,images/nothing.png,2,real,true,2,common,0,2020-06-23T19:42:40Z,sub92
two-step-fixation,182,796215,0.0-76.0-2.15,TRUE,TRUE,FALSE,TRUE,"""event"",""trial"",""time""
""fullscreenenter"",""5"",""23456""
""fullscreenexit"",""100"",""490610""
""blur"",""105"",""502080""
""focus"",""106"",""504185""
","""event"",""trial"",""time""
""blur"",""105"",""502080""
","""event"",""trial"",""time""
""focus"",""106"",""504185""
","""event"",""trial"",""time""
""fullscreenenter"",""5"",""23456""
","""event"",""trial"",""time""
""fullscreenexit"",""100"",""490610""
",NA,images/earth.jpg,NA,NA,NA,NA,NA,NA,NA,NA,NA,NA,NA,NA,NA,fixation,NA,NA,NA,NA,NA,NA,sub92
d3-animate-choice,183,798895,0.0-76.0-0.16,TRUE,TRUE,FALSE,TRUE,"""event"",""trial"",""time""
""fullscreenenter"",""5"",""23456""
""fullscreenexit"",""100"",""490610""
""blur"",""105"",""502080""
""focus"",""106"",""504185""
","""event"",""trial"",""time""
""blur"",""105"",""502080""
","""event"",""trial"",""time""
""focus"",""106"",""504185""
","""event"",""trial"",""time""
""fullscreenenter"",""5"",""23456""
","""event"",""trial"",""time""
""fullscreenexit"",""100"",""490610""
",662,NA,48,NA,NA,3000,1,NA,NA,images/earth.jpg,images/rocket2,images/rocket1,null,images/rocket2,NA,1,real,null,2,NA,NA,NA,sub92
d3-animate-choice,184,801375,0.0-76.0-1.16,TRUE,TRUE,FALSE,TRUE,"""event"",""trial"",""time""
""fullscreenenter"",""5"",""23456""
""fullscreenexit"",""100"",""490610""
""blur"",""105"",""502080""
""focus"",""106"",""504185""
","""event"",""trial"",""time""
""blur"",""105"",""502080""
","""event"",""trial"",""time""
""focus"",""106"",""504185""
","""event"",""trial"",""time""
""fullscreenenter"",""5"",""23456""
","""event"",""trial"",""time""
""fullscreenexit"",""100"",""490610""
",463,NA,49,NA,NA,3000,1,NA,NA,images/purpleplanet.jpg,images/alien4,images/alien3,images/rocket2,images/alien3,images/t.png,2,real,true,1,common,1,2020-06-23T19:42:46Z,sub92
two-step-fixation,185,802386,0.0-76.0-2.16,TRUE,TRUE,FALSE,TRUE,"""event"",""trial"",""time""
""fullscreenenter"",""5"",""23456""
""fullscreenexit"",""100"",""490610""
""blur"",""105"",""502080""
""focus"",""106"",""504185""
","""event"",""trial"",""time""
""blur"",""105"",""502080""
","""event"",""trial"",""time""
""focus"",""106"",""504185""
","""event"",""trial"",""time""
""fullscreenenter"",""5"",""23456""
","""event"",""trial"",""time""
""fullscreenexit"",""100"",""490610""
",NA,images/earth.jpg,NA,NA,NA,NA,NA,NA,NA,NA,NA,NA,NA,NA,NA,fixation,NA,NA,NA,NA,NA,NA,sub92
d3-animate-choice,186,805055,0.0-76.0-0.17,TRUE,TRUE,FALSE,TRUE,"""event"",""trial"",""time""
""fullscreenenter"",""5"",""23456""
""fullscreenexit"",""100"",""490610""
""blur"",""105"",""502080""
""focus"",""106"",""504185""
","""event"",""trial"",""time""
""blur"",""105"",""502080""
","""event"",""trial"",""time""
""focus"",""106"",""504185""
","""event"",""trial"",""time""
""fullscreenenter"",""5"",""23456""
","""event"",""trial"",""time""
""fullscreenexit"",""100"",""490610""
",664,NA,49,NA,NA,3000,1,NA,NA,images/earth.jpg,images/rocket2,images/rocket1,null,images/rocket1,NA,1,real,null,1,NA,NA,NA,sub92
d3-animate-choice,187,807466,0.0-76.0-1.17,TRUE,TRUE,FALSE,TRUE,"""event"",""trial"",""time""
""fullscreenenter"",""5"",""23456""
""fullscreenexit"",""100"",""490610""
""blur"",""105"",""502080""
""focus"",""106"",""504185""
","""event"",""trial"",""time""
""blur"",""105"",""502080""
","""event"",""trial"",""time""
""focus"",""106"",""504185""
","""event"",""trial"",""time""
""fullscreenenter"",""5"",""23456""
","""event"",""trial"",""time""
""fullscreenexit"",""100"",""490610""
",386,NA,49,NA,NA,3000,1,NA,NA,images/purpleplanet.jpg,images/alien4,images/alien3,images/rocket1,images/alien3,images/nothing.png,2,real,false,1,rare,0,2020-06-23T19:42:52Z,sub92
two-step-fixation,188,808485,0.0-76.0-2.17,TRUE,TRUE,FALSE,TRUE,"""event"",""trial"",""time""
""fullscreenenter"",""5"",""23456""
""fullscreenexit"",""100"",""490610""
""blur"",""105"",""502080""
""focus"",""106"",""504185""
","""event"",""trial"",""time""
""blur"",""105"",""502080""
","""event"",""trial"",""time""
""focus"",""106"",""504185""
","""event"",""trial"",""time""
""fullscreenenter"",""5"",""23456""
","""event"",""trial"",""time""
""fullscreenexit"",""100"",""490610""
",NA,images/earth.jpg,NA,NA,NA,NA,NA,NA,NA,NA,NA,NA,NA,NA,NA,fixation,NA,NA,NA,NA,NA,NA,sub92
d3-animate-choice,189,811266,0.0-76.0-0.18,TRUE,TRUE,FALSE,TRUE,"""event"",""trial"",""time""
""fullscreenenter"",""5"",""23456""
""fullscreenexit"",""100"",""490610""
""blur"",""105"",""502080""
""focus"",""106"",""504185""
","""event"",""trial"",""time""
""blur"",""105"",""502080""
","""event"",""trial"",""time""
""focus"",""106"",""504185""
","""event"",""trial"",""time""
""fullscreenenter"",""5"",""23456""
","""event"",""trial"",""time""
""fullscreenexit"",""100"",""490610""
",766,NA,48,NA,NA,3000,1,867,39,images/earth.jpg,images/rocket2,images/rocket1,null,images/rocket2,NA,1,real,null,2,NA,NA,NA,sub92
d3-animate-choice,190,814786,0.0-76.0-1.18,TRUE,TRUE,FALSE,TRUE,"""event"",""trial"",""time""
""fullscreenenter"",""5"",""23456""
""fullscreenexit"",""100"",""490610""
""blur"",""105"",""502080""
""focus"",""106"",""504185""
","""event"",""trial"",""time""
""blur"",""105"",""502080""
","""event"",""trial"",""time""
""focus"",""106"",""504185""
","""event"",""trial"",""time""
""fullscreenenter"",""5"",""23456""
","""event"",""trial"",""time""
""fullscreenexit"",""100"",""490610""
",1503,NA,49,NA,NA,3000,1,NA,NA,images/purpleplanet.jpg,images/alien4,images/alien3,images/rocket2,images/alien3,images/t.png,2,real,true,1,common,1,2020-06-23T19:43:00Z,sub92
two-step-fixation,191,815805,0.0-76.0-2.18,TRUE,TRUE,FALSE,TRUE,"""event"",""trial"",""time""
""fullscreenenter"",""5"",""23456""
""fullscreenexit"",""100"",""490610""
""blur"",""105"",""502080""
""focus"",""106"",""504185""
","""event"",""trial"",""time""
""blur"",""105"",""502080""
","""event"",""trial"",""time""
""focus"",""106"",""504185""
","""event"",""trial"",""time""
""fullscreenenter"",""5"",""23456""
","""event"",""trial"",""time""
""fullscreenexit"",""100"",""490610""
",NA,images/earth.jpg,NA,NA,NA,NA,NA,NA,NA,NA,NA,NA,NA,NA,NA,fixation,NA,NA,NA,NA,NA,NA,sub92
d3-animate-choice,192,818595,0.0-76.0-0.19,TRUE,TRUE,FALSE,TRUE,"""event"",""trial"",""time""
""fullscreenenter"",""5"",""23456""
""fullscreenexit"",""100"",""490610""
""blur"",""105"",""502080""
""focus"",""106"",""504185""
","""event"",""trial"",""time""
""blur"",""105"",""502080""
","""event"",""trial"",""time""
""focus"",""106"",""504185""
","""event"",""trial"",""time""
""fullscreenenter"",""5"",""23456""
","""event"",""trial"",""time""
""fullscreenexit"",""100"",""490610""
",779,NA,49,NA,NA,3000,1,1461,39,images/earth.jpg,images/rocket2,images/rocket1,null,images/rocket1,NA,1,real,null,1,NA,NA,NA,sub92
d3-animate-choice,193,821505,0.0-76.0-1.19,TRUE,TRUE,FALSE,TRUE,"""event"",""trial"",""time""
""fullscreenenter"",""5"",""23456""
""fullscreenexit"",""100"",""490610""
""blur"",""105"",""502080""
""focus"",""106"",""504185""
","""event"",""trial"",""time""
""blur"",""105"",""502080""
","""event"",""trial"",""time""
""focus"",""106"",""504185""
","""event"",""trial"",""time""
""fullscreenenter"",""5"",""23456""
","""event"",""trial"",""time""
""fullscreenexit"",""100"",""490610""
",892,NA,49,NA,NA,3000,1,NA,NA,images/redplanet1.jpg,images/alien2,images/alien1,images/rocket1,images/alien1,images/t.png,2,real,true,1,common,1,2020-06-23T19:43:06Z,sub92
two-step-fixation,194,822525,0.0-76.0-2.19,TRUE,TRUE,FALSE,TRUE,"""event"",""trial"",""time""
""fullscreenenter"",""5"",""23456""
""fullscreenexit"",""100"",""490610""
""blur"",""105"",""502080""
""focus"",""106"",""504185""
","""event"",""trial"",""time""
""blur"",""105"",""502080""
","""event"",""trial"",""time""
""focus"",""106"",""504185""
","""event"",""trial"",""time""
""fullscreenenter"",""5"",""23456""
","""event"",""trial"",""time""
""fullscreenexit"",""100"",""490610""
",NA,images/earth.jpg,NA,NA,NA,NA,NA,NA,NA,NA,NA,NA,NA,NA,NA,fixation,NA,NA,NA,NA,NA,NA,sub92
d3-animate-choice,195,825145,0.0-76.0-0.20,TRUE,TRUE,FALSE,TRUE,"""event"",""trial"",""time""
""fullscreenenter"",""5"",""23456""
""fullscreenexit"",""100"",""490610""
""blur"",""105"",""502080""
""focus"",""106"",""504185""
","""event"",""trial"",""time""
""blur"",""105"",""502080""
","""event"",""trial"",""time""
""focus"",""106"",""504185""
","""event"",""trial"",""time""
""fullscreenenter"",""5"",""23456""
","""event"",""trial"",""time""
""fullscreenexit"",""100"",""490610""
",608,NA,48,NA,NA,3000,1,NA,NA,images/earth.jpg,images/rocket2,images/rocket1,null,images/rocket2,NA,1,real,null,2,NA,NA,NA,sub92
d3-animate-choice,196,828315,0.0-76.0-1.20,TRUE,TRUE,FALSE,TRUE,"""event"",""trial"",""time""
""fullscreenenter"",""5"",""23456""
""fullscreenexit"",""100"",""490610""
""blur"",""105"",""502080""
""focus"",""106"",""504185""
","""event"",""trial"",""time""
""blur"",""105"",""502080""
","""event"",""trial"",""time""
""focus"",""106"",""504185""
","""event"",""trial"",""time""
""fullscreenenter"",""5"",""23456""
","""event"",""trial"",""time""
""fullscreenexit"",""100"",""490610""
",1149,NA,48,NA,NA,3000,1,1236,39,images/purpleplanet.jpg,images/alien4,images/alien3,images/rocket2,images/alien4,images/nothing.png,2,real,true,2,common,0,2020-06-23T19:43:13Z,sub92
two-step-fixation,197,829325,0.0-76.0-2.20,TRUE,TRUE,FALSE,TRUE,"""event"",""trial"",""time""
""fullscreenenter"",""5"",""23456""
""fullscreenexit"",""100"",""490610""
""blur"",""105"",""502080""
""focus"",""106"",""504185""
","""event"",""trial"",""time""
""blur"",""105"",""502080""
","""event"",""trial"",""time""
""focus"",""106"",""504185""
","""event"",""trial"",""time""
""fullscreenenter"",""5"",""23456""
","""event"",""trial"",""time""
""fullscreenexit"",""100"",""490610""
",NA,images/earth.jpg,NA,NA,NA,NA,NA,NA,NA,NA,NA,NA,NA,NA,NA,fixation,NA,NA,NA,NA,NA,NA,sub92
d3-animate-choice,198,832185,0.0-76.0-0.21,TRUE,TRUE,FALSE,TRUE,"""event"",""trial"",""time""
""fullscreenenter"",""5"",""23456""
""fullscreenexit"",""100"",""490610""
""blur"",""105"",""502080""
""focus"",""106"",""504185""
","""event"",""trial"",""time""
""blur"",""105"",""502080""
","""event"",""trial"",""time""
""focus"",""106"",""504185""
","""event"",""trial"",""time""
""fullscreenenter"",""5"",""23456""
","""event"",""trial"",""time""
""fullscreenexit"",""100"",""490610""
",838,NA,49,NA,NA,3000,1,NA,NA,images/earth.jpg,images/rocket2,images/rocket1,null,images/rocket1,NA,1,real,null,1,NA,NA,NA,sub92
d3-animate-choice,199,835155,0.0-76.0-1.21,TRUE,TRUE,FALSE,TRUE,"""event"",""trial"",""time""
""fullscreenenter"",""5"",""23456""
""fullscreenexit"",""100"",""490610""
""blur"",""105"",""502080""
""focus"",""106"",""504185""
","""event"",""trial"",""time""
""blur"",""105"",""502080""
","""event"",""trial"",""time""
""focus"",""106"",""504185""
","""event"",""trial"",""time""
""fullscreenenter"",""5"",""23456""
","""event"",""trial"",""time""
""fullscreenexit"",""100"",""490610""
",956,NA,49,NA,NA,3000,1,NA,NA,images/purpleplanet.jpg,images/alien4,images/alien3,images/rocket1,images/alien3,images/t.png,2,real,false,1,rare,1,2020-06-23T19:43:20Z,sub92
two-step-fixation,200,836175,0.0-76.0-2.21,TRUE,TRUE,FALSE,TRUE,"""event"",""trial"",""time""
""fullscreenenter"",""5"",""23456""
""fullscreenexit"",""100"",""490610""
""blur"",""105"",""502080""
""focus"",""106"",""504185""
","""event"",""trial"",""time""
""blur"",""105"",""502080""
","""event"",""trial"",""time""
""focus"",""106"",""504185""
","""event"",""trial"",""time""
""fullscreenenter"",""5"",""23456""
","""event"",""trial"",""time""
""fullscreenexit"",""100"",""490610""
",NA,images/earth.jpg,NA,NA,NA,NA,NA,NA,NA,NA,NA,NA,NA,NA,NA,fixation,NA,NA,NA,NA,NA,NA,sub92
d3-animate-choice,201,839115,0.0-76.0-0.22,TRUE,TRUE,FALSE,TRUE,"""event"",""trial"",""time""
""fullscreenenter"",""5"",""23456""
""fullscreenexit"",""100"",""490610""
""blur"",""105"",""502080""
""focus"",""106"",""504185""
","""event"",""trial"",""time""
""blur"",""105"",""502080""
","""event"",""trial"",""time""
""focus"",""106"",""504185""
","""event"",""trial"",""time""
""fullscreenenter"",""5"",""23456""
","""event"",""trial"",""time""
""fullscreenexit"",""100"",""490610""
",925,NA,49,NA,NA,3000,1,NA,NA,images/earth.jpg,images/rocket2,images/rocket1,null,images/rocket1,NA,1,real,null,1,NA,NA,NA,sub92
d3-animate-choice,202,841455,0.0-76.0-1.22,TRUE,TRUE,FALSE,TRUE,"""event"",""trial"",""time""
""fullscreenenter"",""5"",""23456""
""fullscreenexit"",""100"",""490610""
""blur"",""105"",""502080""
""focus"",""106"",""504185""
","""event"",""trial"",""time""
""blur"",""105"",""502080""
","""event"",""trial"",""time""
""focus"",""106"",""504185""
","""event"",""trial"",""time""
""fullscreenenter"",""5"",""23456""
","""event"",""trial"",""time""
""fullscreenexit"",""100"",""490610""
",334,NA,49,NA,NA,3000,1,NA,NA,images/redplanet1.jpg,images/alien2,images/alien1,images/rocket1,images/alien1,images/nothing.png,2,real,true,1,common,0,2020-06-23T19:43:26Z,sub92
two-step-fixation,203,842465,0.0-76.0-2.22,TRUE,TRUE,FALSE,TRUE,"""event"",""trial"",""time""
""fullscreenenter"",""5"",""23456""
""fullscreenexit"",""100"",""490610""
""blur"",""105"",""502080""
""focus"",""106"",""504185""
","""event"",""trial"",""time""
""blur"",""105"",""502080""
","""event"",""trial"",""time""
""focus"",""106"",""504185""
","""event"",""trial"",""time""
""fullscreenenter"",""5"",""23456""
","""event"",""trial"",""time""
""fullscreenexit"",""100"",""490610""
",NA,images/earth.jpg,NA,NA,NA,NA,NA,NA,NA,NA,NA,NA,NA,NA,NA,fixation,NA,NA,NA,NA,NA,NA,sub92
d3-animate-choice,204,845255,0.0-76.0-0.23,TRUE,TRUE,FALSE,TRUE,"""event"",""trial"",""time""
""fullscreenenter"",""5"",""23456""
""fullscreenexit"",""100"",""490610""
""blur"",""105"",""502080""
""focus"",""106"",""504185""
","""event"",""trial"",""time""
""blur"",""105"",""502080""
","""event"",""trial"",""time""
""focus"",""106"",""504185""
","""event"",""trial"",""time""
""fullscreenenter"",""5"",""23456""
","""event"",""trial"",""time""
""fullscreenexit"",""100"",""490610""
",771,NA,49,NA,NA,3000,1,NA,NA,images/earth.jpg,images/rocket2,images/rocket1,null,images/rocket1,NA,1,real,null,1,NA,NA,NA,sub92
d3-animate-choice,205,847695,0.0-76.0-1.23,TRUE,TRUE,FALSE,TRUE,"""event"",""trial"",""time""
""fullscreenenter"",""5"",""23456""
""fullscreenexit"",""100"",""490610""
""blur"",""105"",""502080""
""focus"",""106"",""504185""
","""event"",""trial"",""time""
""blur"",""105"",""502080""
","""event"",""trial"",""time""
""focus"",""106"",""504185""
","""event"",""trial"",""time""
""fullscreenenter"",""5"",""23456""
","""event"",""trial"",""time""
""fullscreenexit"",""100"",""490610""
",428,NA,48,NA,NA,3000,1,NA,NA,images/redplanet1.jpg,images/alien2,images/alien1,images/rocket1,images/alien2,images/nothing.png,2,real,true,2,common,0,2020-06-23T19:43:33Z,sub92
two-step-fixation,206,848715,0.0-76.0-2.23,TRUE,TRUE,FALSE,TRUE,"""event"",""trial"",""time""
""fullscreenenter"",""5"",""23456""
""fullscreenexit"",""100"",""490610""
""blur"",""105"",""502080""
""focus"",""106"",""504185""
","""event"",""trial"",""time""
""blur"",""105"",""502080""
","""event"",""trial"",""time""
""focus"",""106"",""504185""
","""event"",""trial"",""time""
""fullscreenenter"",""5"",""23456""
","""event"",""trial"",""time""
""fullscreenexit"",""100"",""490610""
",NA,images/earth.jpg,NA,NA,NA,NA,NA,NA,NA,NA,NA,NA,NA,NA,NA,fixation,NA,NA,NA,NA,NA,NA,sub92
d3-animate-choice,207,851075,0.0-76.0-0.24,TRUE,TRUE,FALSE,TRUE,"""event"",""trial"",""time""
""fullscreenenter"",""5"",""23456""
""fullscreenexit"",""100"",""490610""
""blur"",""105"",""502080""
""focus"",""106"",""504185""
","""event"",""trial"",""time""
""blur"",""105"",""502080""
","""event"",""trial"",""time""
""focus"",""106"",""504185""
","""event"",""trial"",""time""
""fullscreenenter"",""5"",""23456""
","""event"",""trial"",""time""
