trial_type,trial_index,time_elapsed,internal_node_id,rocket_sides,red_planet_first_rocket,red_display_order,purple_display_order,interactions,blur_events,focus_events,fullscreenenter_events,fullscreenexit_events,rt,stimulus,key_press,button_pressed,success,duration,valid_pressed,rts,keys,planet_text,right_text,left_text,center_text,chosen_text,reward_text,trial_stage,practice_trial,transition_type,choice,transition,reward,timestamp,subject_id
pavlovia,0,12,0.0-0.0,FALSE,FALSE,FALSE,FALSE,"
","
","
","
","
",NA,NA,NA,NA,NA,NA,NA,NA,NA,NA,NA,NA,NA,NA,NA,NA,NA,NA,NA,NA,NA,NA,sub51
html-keyboard-response,1,1390,0.0-1.0,FALSE,FALSE,FALSE,FALSE,"
","
","
","
","
",1377.2199999948498,Welcome! Press the space bar to begin.,32,NA,NA,NA,NA,NA,NA,NA,NA,NA,NA,NA,NA,NA,NA,NA,NA,NA,NA,NA,sub51
audio-keyboard-response,2,4723,0.0-2.0,FALSE,FALSE,FALSE,FALSE,"
","
","
","
","
",3170,audio/beep_loop.wav,32,NA,NA,NA,NA,NA,NA,NA,NA,NA,NA,NA,NA,NA,NA,NA,NA,NA,NA,NA,sub51
audio-button-response,3,7230,0.0-3.0,FALSE,FALSE,FALSE,FALSE,"
","
","
","
","
",NaN,audio/fish.mp3,NA,1,NA,NA,NA,NA,NA,NA,NA,NA,NA,NA,NA,NA,NA,NA,NA,NA,NA,NA,sub51
audio-button-response,4,12207,0.0-4.0,FALSE,FALSE,FALSE,FALSE,"""event"",""trial"",""time""
""fullscreenenter"",""5"",""16590""
","
","
","""event"",""trial"",""time""
""fullscreenenter"",""5"",""16590""
","
",NaN,audio/tiger.mp3,NA,4,NA,NA,NA,NA,NA,NA,NA,NA,NA,NA,NA,NA,NA,NA,NA,NA,NA,NA,sub51
fullscreen,5,17573,0.0-5.0,FALSE,FALSE,FALSE,FALSE,"""event"",""trial"",""time""
""fullscreenenter"",""5"",""16590""
","
","
","""event"",""trial"",""time""
""fullscreenenter"",""5"",""16590""
","
",NA,NA,NA,NA,TRUE,NA,NA,NA,NA,NA,NA,NA,NA,NA,NA,NA,NA,NA,NA,NA,NA,NA,sub51
d3-instructions,6,31246,0.0-6.0,FALSE,FALSE,FALSE,FALSE,"""event"",""trial"",""time""
""fullscreenenter"",""5"",""16590""
","
","
","""event"",""trial"",""time""
""fullscreenenter"",""5"",""16590""
","
",NA,NA,NA,NA,NA,NA,NA,NA,NA,NA,NA,NA,NA,NA,NA,NA,NA,NA,NA,NA,NA,NA,sub51
d3-instructions,7,39517,0.0-7.0,FALSE,FALSE,FALSE,FALSE,"""event"",""trial"",""time""
""fullscreenenter"",""5"",""16590""
","
","
","""event"",""trial"",""time""
""fullscreenenter"",""5"",""16590""
","
",NA,NA,NA,NA,NA,NA,NA,NA,NA,NA,NA,NA,NA,NA,NA,NA,NA,NA,NA,NA,NA,NA,sub51
d3-instructions,8,45925,0.0-8.0,FALSE,FALSE,FALSE,FALSE,"""event"",""trial"",""time""
""fullscreenenter"",""5"",""16590""
","
","
","""event"",""trial"",""time""
""fullscreenenter"",""5"",""16590""
","
",NA,NA,NA,NA,NA,NA,NA,NA,NA,NA,NA,NA,NA,NA,NA,NA,NA,NA,NA,NA,NA,NA,sub51
d3-instructions,9,56619,0.0-9.0,FALSE,FALSE,FALSE,FALSE,"""event"",""trial"",""time""
""fullscreenenter"",""5"",""16590""
","
","
","""event"",""trial"",""time""
""fullscreenenter"",""5"",""16590""
","
",NA,NA,NA,NA,NA,NA,NA,NA,NA,NA,NA,NA,NA,NA,NA,NA,NA,NA,NA,NA,NA,NA,sub51
d3-instructions,10,82528,0.0-10.0,FALSE,FALSE,FALSE,FALSE,"""event"",""trial"",""time""
""fullscreenenter"",""5"",""16590""
","
","
","""event"",""trial"",""time""
""fullscreenenter"",""5"",""16590""
","
",NA,NA,NA,NA,NA,NA,NA,NA,NA,NA,NA,NA,NA,NA,NA,NA,NA,NA,NA,NA,NA,NA,sub51
d3-animate-choice,11,85407,0.0-11.0,FALSE,FALSE,FALSE,FALSE,"""event"",""trial"",""time""
""fullscreenenter"",""5"",""16590""
","
","
","""event"",""trial"",""time""
""fullscreenenter"",""5"",""16590""
","
",870.7750000030501,NA,48,NA,NA,3000,1,"1561.809999999241,2130.9699999983422,2848.0100000015227",494849,images/tutgreenplanet.jpg,images/tutalien1,images/tutalien2,null,images/tutalien1,NA,NA,practice,null,NA,NA,NA,NA,sub51
d3-animate-choice,12,88274,0.0-12.0,FALSE,FALSE,FALSE,FALSE,"""event"",""trial"",""time""
""fullscreenenter"",""5"",""16590""
","
","
","""event"",""trial"",""time""
""fullscreenenter"",""5"",""16590""
","
",863.9050000056159,NA,49,NA,NA,3000,1,"1672.6400000043213,2773.635000005015",4849,images/tutgreenplanet.jpg,images/tutalien1,images/tutalien2,null,images/tutalien2,NA,NA,practice,null,NA,NA,NA,NA,sub51
d3-animate-choice,13,91444,0.0-13.0,FALSE,FALSE,FALSE,FALSE,"""event"",""trial"",""time""
""fullscreenenter"",""5"",""16590""
","
","
","""event"",""trial"",""time""
""fullscreenenter"",""5"",""16590""
","
",1164.7050000028685,NA,49,NA,NA,3000,1,"1804.629999998724,2206.7499999975553,2808.839999997872",494949,images/tutgreenplanet.jpg,images/tutalien1,images/tutalien2,null,images/tutalien2,NA,NA,practice,null,NA,NA,NA,NA,sub51
d3-animate-choice,14,93557,0.0-14.0,FALSE,FALSE,FALSE,FALSE,"""event"",""trial"",""time""
""fullscreenenter"",""5"",""16590""
","
","
","""event"",""trial"",""time""
""fullscreenenter"",""5"",""16590""
","
",110.54999999760184,NA,48,NA,NA,3000,1,"539.3399999884423,1473.2999999978347",4832,images/tutgreenplanet.jpg,images/tutalien1,images/tutalien2,null,images/tutalien1,NA,NA,practice,null,NA,NA,NA,NA,sub51
d3-instructions,15,100250,0.0-15.0,FALSE,FALSE,FALSE,FALSE,"""event"",""trial"",""time""
""fullscreenenter"",""5"",""16590""
","
","
","""event"",""trial"",""time""
""fullscreenenter"",""5"",""16590""
","
",NA,NA,NA,NA,NA,NA,NA,NA,NA,NA,NA,NA,NA,NA,NA,NA,NA,NA,NA,NA,NA,NA,sub51
d3-instructions,16,116807,0.0-16.0,FALSE,FALSE,FALSE,FALSE,"""event"",""trial"",""time""
""fullscreenenter"",""5"",""16590""
","
","
","""event"",""trial"",""time""
""fullscreenenter"",""5"",""16590""
","
",NA,NA,NA,NA,NA,NA,NA,NA,NA,NA,NA,NA,NA,NA,NA,NA,NA,NA,NA,NA,NA,NA,sub51
d3-instructions,17,127283,0.0-17.0,FALSE,FALSE,FALSE,FALSE,"""event"",""trial"",""time""
""fullscreenenter"",""5"",""16590""
","
","
","""event"",""trial"",""time""
""fullscreenenter"",""5"",""16590""
","
",NA,NA,NA,NA,NA,NA,NA,NA,NA,NA,NA,NA,NA,NA,NA,NA,NA,NA,NA,NA,NA,NA,sub51
d3-instructions,18,136228,0.0-18.0,FALSE,FALSE,FALSE,FALSE,"""event"",""trial"",""time""
""fullscreenenter"",""5"",""16590""
","
","
","""event"",""trial"",""time""
""fullscreenenter"",""5"",""16590""
","
",NA,NA,NA,NA,NA,NA,NA,NA,NA,NA,NA,NA,NA,NA,NA,NA,NA,NA,NA,NA,NA,NA,sub51
d3-instructions,19,149187,0.0-19.0,FALSE,FALSE,FALSE,FALSE,"""event"",""trial"",""time""
""fullscreenenter"",""5"",""16590""
","
","
","""event"",""trial"",""time""
""fullscreenenter"",""5"",""16590""
","
",NA,NA,NA,NA,NA,NA,NA,NA,NA,NA,NA,NA,NA,NA,NA,NA,NA,NA,NA,NA,NA,NA,sub51
d3-animate-choice,20,152044,0.0-20.0,FALSE,FALSE,FALSE,FALSE,"""event"",""trial"",""time""
""fullscreenenter"",""5"",""16590""
","
","
","""event"",""trial"",""time""
""fullscreenenter"",""5"",""16590""
","
",853.9400000008754,NA,49,NA,NA,3000,1,"1224.97999999905,1730.8000000048196",4949,images/tutyellowplanet.jpg,null,images/tutalien3,null,images/tutalien3,images/t.png,NA,practice,null,NA,NA,NA,NA,sub51
d3-animate-choice,21,154153,0.0-21.0,FALSE,FALSE,FALSE,FALSE,"""event"",""trial"",""time""
""fullscreenenter"",""5"",""16590""
","
","
","""event"",""trial"",""time""
""fullscreenenter"",""5"",""16590""
","
",107.18000000633765,NA,49,NA,NA,3000,1,"526.5700000018114,814.0600000042468,1118.2800000096904,1436.630000011064,1724.6700000105193,2016.8200000043726",494949494949,images/tutyellowplanet.jpg,null,images/tutalien3,null,images/tutalien3,images/t.png,NA,practice,null,NA,NA,NA,NA,sub51
d3-animate-choice,22,156362,0.0-22.0,FALSE,FALSE,FALSE,FALSE,"""event"",""trial"",""time""
""fullscreenenter"",""5"",""16590""
","
","
","""event"",""trial"",""time""
""fullscreenenter"",""5"",""16590""
","
",205.18999999330845,NA,49,NA,NA,3000,1,"538.09000000183,844.4349999917904,1125.9500000014668,1437.7949999907287,1739.0999999915948,2049.270000003162",494949494949,images/tutyellowplanet.jpg,null,images/tutalien3,null,images/tutalien3,images/t.png,NA,practice,null,NA,NA,NA,NA,sub51
d3-animate-choice,23,158748,0.0-23.0,FALSE,FALSE,FALSE,FALSE,"""event"",""trial"",""time""
""fullscreenenter"",""5"",""16590""
","
","
","""event"",""trial"",""time""
""fullscreenenter"",""5"",""16590""
","
",381.24500001140404,NA,49,NA,NA,3000,1,"713.7650000076974,1044.5250000047963,1304.8800000105985,1574.7150000097463,1845.4950000013923,2131.7850000050385",494949494949,images/tutyellowplanet.jpg,null,images/tutalien3,null,images/tutalien3,images/t.png,NA,practice,null,NA,NA,NA,NA,sub51
d3-animate-choice,24,160786,0.0-24.0,FALSE,FALSE,FALSE,FALSE,"""event"",""trial"",""time""
""fullscreenenter"",""5"",""16590""
","
","
","""event"",""trial"",""time""
""fullscreenenter"",""5"",""16590""
","
",31.130000003031455,NA,49,NA,NA,3000,1,"321.00999999966007,585.0050000008196,878.4299999970244,1145.0199999962933,1416.624999998021,1772.3949999926845",494949494949,images/tutyellowplanet.jpg,null,images/tutalien3,null,images/tutalien3,images/nothing.png,NA,practice,null,NA,NA,NA,NA,sub51
d3-animate-choice,25,163129,0.0-25.0,FALSE,FALSE,FALSE,FALSE,"""event"",""trial"",""time""
""fullscreenenter"",""5"",""16590""
","
","
","""event"",""trial"",""time""
""fullscreenenter"",""5"",""16590""
","
",336.8650000047637,NA,49,NA,NA,3000,1,"586.5850000118371,1065.1450000004843,1303.9300000091316,1506.4250000141328,1711.5650000050664,1902.525000012247",494949494932,images/tutyellowplanet.jpg,null,images/tutalien3,null,images/tutalien3,images/t.png,NA,practice,null,NA,NA,NA,NA,sub51
d3-animate-choice,26,165326,0.0-26.0,FALSE,FALSE,FALSE,FALSE,"""event"",""trial"",""time""
""fullscreenenter"",""5"",""16590""
","
","
","""event"",""trial"",""time""
""fullscreenenter"",""5"",""16590""
","
",193.9799999963725,NA,49,NA,NA,3000,1,"448.789999994915,690.8599999878788,975.5299999960698,1235.8399999939138,1482.4099999968894,1688.7399999977788,1918.7799999926938",49494949494949,images/tutyellowplanet.jpg,null,images/tutalien3,null,images/tutalien3,images/t.png,NA,practice,null,NA,NA,NA,NA,sub51
d3-animate-choice,27,168507,0.0-27.0,FALSE,FALSE,FALSE,FALSE,"""event"",""trial"",""time""
""fullscreenenter"",""5"",""16590""
","
","
","""event"",""trial"",""time""
""fullscreenenter"",""5"",""16590""
","
",780.5999999982305,NA,32,NA,NA,3000,1,"983.9049999864073,1176.8149999988964,1453.6649999936344,1676.7799999943236,1904.9249999952735,2088.2949999941047,2329.2749999964144,2518.1699999957345,2870.539999988978,3168.9449999976205",3249494948494849e4,images/tutyellowplanet.jpg,null,images/tutalien3,null,images/tutalien3,images/t.png,NA,practice,null,NA,NA,NA,NA,sub51
d3-animate-choice,28,170730,0.0-28.0,FALSE,FALSE,FALSE,FALSE,"""event"",""trial"",""time""
""fullscreenenter"",""5"",""16590""
","
","
","""event"",""trial"",""time""
""fullscreenenter"",""5"",""16590""
","
",221.08999999181833,NA,49,NA,NA,3000,1,"417.7300000010291,633.3250000025146,826.4950000011595,1022.3200000036741,1223.440000001574,1506.3149999914458,1865.3550000017276,2051.2049999961164",4949494932323232,images/tutyellowplanet.jpg,null,images/tutalien3,null,images/tutalien3,images/t.png,NA,practice,null,NA,NA,NA,NA,sub51
d3-animate-choice,29,175027,0.0-29.0,FALSE,FALSE,FALSE,FALSE,"""event"",""trial"",""time""
""fullscreenenter"",""5"",""16590""
","
","
","""event"",""trial"",""time""
""fullscreenenter"",""5"",""16590""
","
",179.32999999902677,NA,13,NA,NA,3000,1,"2294.190000000526,2578.7750000017695,2781.9449999951757,3066.949999993085",49494949,images/tutyellowplanet.jpg,null,images/tutalien3,null,images/tutalien3,images/t.png,NA,practice,null,NA,NA,NA,NA,sub51
d3-instructions,30,178297,0.0-30.0,FALSE,FALSE,FALSE,FALSE,"""event"",""trial"",""time""
""fullscreenenter"",""5"",""16590""
","
","
","""event"",""trial"",""time""
""fullscreenenter"",""5"",""16590""
","
",NA,NA,NA,NA,NA,NA,NA,NA,NA,NA,NA,NA,NA,NA,NA,NA,NA,NA,NA,NA,NA,NA,sub51
d3-instructions,31,183033,0.0-31.0,FALSE,FALSE,FALSE,FALSE,"""event"",""trial"",""time""
""fullscreenenter"",""5"",""16590""
","
","
","""event"",""trial"",""time""
""fullscreenenter"",""5"",""16590""
","
",NA,NA,NA,NA,NA,NA,NA,NA,NA,NA,NA,NA,NA,NA,NA,NA,NA,NA,NA,NA,NA,NA,sub51
d3-instructions,32,189029,0.0-32.0,FALSE,FALSE,FALSE,FALSE,"""event"",""trial"",""time""
""fullscreenenter"",""5"",""16590""
","
","
","""event"",""trial"",""time""
""fullscreenenter"",""5"",""16590""
","
",NA,NA,NA,NA,NA,NA,NA,NA,NA,NA,NA,NA,NA,NA,NA,NA,NA,NA,NA,NA,NA,NA,sub51
d3-instructions,33,192758,0.0-33.0,FALSE,FALSE,FALSE,FALSE,"""event"",""trial"",""time""
""fullscreenenter"",""5"",""16590""
","
","
","""event"",""trial"",""time""
""fullscreenenter"",""5"",""16590""
","
",NA,NA,NA,NA,NA,NA,NA,NA,NA,NA,NA,NA,NA,NA,NA,NA,NA,NA,NA,NA,NA,NA,sub51
d3-animate-choice,34,195948,0.0-34.0,FALSE,FALSE,FALSE,FALSE,"""event"",""trial"",""time""
""fullscreenenter"",""5"",""16590""
","
","
","""event"",""trial"",""time""
""fullscreenenter"",""5"",""16590""
","
",1188.029999990249,NA,49,NA,NA,3000,1,"1826.7899999918882,2330.0599999929545,2646.7499999998836",494949,images/tutgreenplanet.jpg,images/tutalien1,images/tutalien2,null,images/tutalien2,images/t.png,NA,practice,null,NA,NA,NA,NA,sub51
d3-animate-choice,35,198183,0.0-35.0,FALSE,FALSE,FALSE,FALSE,"""event"",""trial"",""time""
""fullscreenenter"",""5"",""16590""
","
","
","""event"",""trial"",""time""
""fullscreenenter"",""5"",""16590""
","
",230.3200000023935,NA,48,NA,NA,3000,1,"592.7050000027521,812.1850000025006,1139.1399999993155,1351.8949999997858,1552.7900000015507,1711.5199999971082,1917.0650000014575,2100.829999995767",4848484848484848,images/tutgreenplanet.jpg,images/tutalien1,images/tutalien2,null,images/tutalien1,images/nothing.png,NA,practice,null,NA,NA,NA,NA,sub51
d3-animate-choice,36,200255,0.0-36.0,FALSE,FALSE,FALSE,FALSE,"""event"",""trial"",""time""
""fullscreenenter"",""5"",""16590""
","
","
","""event"",""trial"",""time""
""fullscreenenter"",""5"",""16590""
","
",68.4049999981653,NA,48,NA,NA,3000,1,"259.78500000201166,438.54499999724794,604.6199999982491,797.019999998156,981.290000010631,1178.8000000087777,1332.4799999973038,1507.4949999980163,1691.7600000015227,1856.7299999995157,2032.1550000080606",4848484848484848e6,images/tutgreenplanet.jpg,images/tutalien1,images/tutalien2,null,images/tutalien1,images/nothing.png,NA,practice,null,NA,NA,NA,NA,sub51
d3-animate-choice,37,202432,0.0-37.0,FALSE,FALSE,FALSE,FALSE,"""event"",""trial"",""time""
""fullscreenenter"",""5"",""16590""
","
","
","""event"",""trial"",""time""
""fullscreenenter"",""5"",""16590""
","
",174.77499999222346,NA,48,NA,NA,3000,1,"316.2999999913154,477.18000000168104,681.125000002794,842.4200000008568,1059.240000002319,1190.22999999288,1449.079999991227,1628.1099999905564,1845.08499999356,2027.715000003809",484848484848485e5,images/tutgreenplanet.jpg,images/tutalien1,images/tutalien2,null,images/tutalien1,images/nothing.png,NA,practice,null,NA,NA,NA,NA,sub51
d3-animate-choice,38,204476,0.0-38.0,FALSE,FALSE,FALSE,FALSE,"""event"",""trial"",""time""
""fullscreenenter"",""5"",""16590""
","
","
","""event"",""trial"",""time""
""fullscreenenter"",""5"",""16590""
","
",41.03500000201166,NA,49,NA,NA,3000,1,"234.73999999987427,439.20999999681953,621.1650000041118,830.4000000061933,980.649999997695,1169.9599999992643,1365.1450000033947,1556.2800000043353,1760.0749999983236,1950.3550000081304",4949494949494949e4,images/tutgreenplanet.jpg,images/tutalien1,images/tutalien2,null,images/tutalien2,images/t.png,NA,practice,null,NA,NA,NA,NA,sub51
d3-animate-choice,39,206589,0.0-39.0,FALSE,FALSE,FALSE,FALSE,"""event"",""trial"",""time""
""fullscreenenter"",""5"",""16590""
","
","
","""event"",""trial"",""time""
""fullscreenenter"",""5"",""16590""
","
",110.24999999790452,NA,49,NA,NA,3000,1,"294.90000000805594,533.5550000017975,731.3600000052247,1117.0600000041304,1358.0000000074506,1566.1899999977322,1767.7750000002561,1963.6949999985518",4949494949494949,images/tutgreenplanet.jpg,images/tutalien1,images/tutalien2,null,images/tutalien2,images/t.png,NA,practice,null,NA,NA,NA,NA,sub51
d3-animate-choice,40,208649,0.0-40.0,FALSE,FALSE,FALSE,FALSE,"""event"",""trial"",""time""
""fullscreenenter"",""5"",""16590""
","
","
","""event"",""trial"",""time""
""fullscreenenter"",""5"",""16590""
","
",56.309999999939464,NA,49,NA,NA,3000,1,"264.85500000126194,470.7500000076834,677.3000000102911,852.8200000000652,1100.1050000049872,1265.4050000128336,1477.7700000122422,1661.645000000135,1875.145000012708",494949494949494900,images/tutgreenplanet.jpg,images/tutalien1,images/tutalien2,null,images/tutalien2,images/t.png,NA,practice,null,NA,NA,NA,NA,sub51
d3-animate-choice,41,210670,0.0-41.0,FALSE,FALSE,FALSE,FALSE,"""event"",""trial"",""time""
""fullscreenenter"",""5"",""16590""
","
","
","""event"",""trial"",""time""
""fullscreenenter"",""5"",""16590""
","
",13.21000000461936,NA,49,NA,NA,3000,1,"545.1949999987846,853.690000003553",4949,images/tutgreenplanet.jpg,images/tutalien1,images/tutalien2,null,images/tutalien2,images/t.png,NA,practice,null,NA,NA,NA,NA,sub51
d3-animate-choice,42,213009,0.0-42.0,FALSE,FALSE,FALSE,FALSE,"""event"",""trial"",""time""
""fullscreenenter"",""5"",""16590""
","
","
","""event"",""trial"",""time""
""fullscreenenter"",""5"",""16590""
","
",336.13499999046326,NA,49,NA,NA,3000,1,NA,NA,images/tutgreenplanet.jpg,images/tutalien1,images/tutalien2,null,images/tutalien2,images/t.png,NA,practice,null,NA,NA,NA,NA,sub51
d3-animate-choice,43,215313,0.0-43.0,FALSE,FALSE,FALSE,FALSE,"""event"",""trial"",""time""
""fullscreenenter"",""5"",""16590""
","
","
","""event"",""trial"",""time""
""fullscreenenter"",""5"",""16590""
","
",300.36500000278465,NA,49,NA,NA,3000,1,NA,NA,images/tutgreenplanet.jpg,images/tutalien1,images/tutalien2,null,images/tutalien2,images/t.png,NA,practice,null,NA,NA,NA,NA,sub51
d3-instructions,44,221953,0.0-44.0,FALSE,FALSE,FALSE,FALSE,"""event"",""trial"",""time""
""fullscreenenter"",""5"",""16590""
","
","
","""event"",""trial"",""time""
""fullscreenenter"",""5"",""16590""
","
",NA,NA,NA,NA,NA,NA,NA,NA,NA,NA,NA,NA,NA,NA,NA,NA,NA,NA,NA,NA,NA,NA,sub51
d3-instructions,45,223820,0.0-45.0,FALSE,FALSE,FALSE,FALSE,"""event"",""trial"",""time""
""fullscreenenter"",""5"",""16590""
","
","
","""event"",""trial"",""time""
""fullscreenenter"",""5"",""16590""
","
",NA,NA,NA,NA,NA,NA,NA,NA,NA,NA,NA,NA,NA,NA,NA,NA,NA,NA,NA,NA,NA,NA,sub51
d3-instructions,46,226623,0.0-46.0,FALSE,FALSE,FALSE,FALSE,"""event"",""trial"",""time""
""fullscreenenter"",""5"",""16590""
","
","
","""event"",""trial"",""time""
""fullscreenenter"",""5"",""16590""
","
",NA,NA,NA,NA,NA,NA,NA,NA,NA,NA,NA,NA,NA,NA,NA,NA,NA,NA,NA,NA,NA,NA,sub51
d3-instructions,47,231793,0.0-47.0,FALSE,FALSE,FALSE,FALSE,"""event"",""trial"",""time""
""fullscreenenter"",""5"",""16590""
","
","
","""event"",""trial"",""time""
""fullscreenenter"",""5"",""16590""
","
",NA,NA,NA,NA,NA,NA,NA,NA,NA,NA,NA,NA,NA,NA,NA,NA,NA,NA,NA,NA,NA,NA,sub51
d3-instructions,48,234797,0.0-48.0,FALSE,FALSE,FALSE,FALSE,"""event"",""trial"",""time""
""fullscreenenter"",""5"",""16590""
","
","
","""event"",""trial"",""time""
""fullscreenenter"",""5"",""16590""
","
",NA,NA,NA,NA,NA,NA,NA,NA,NA,NA,NA,NA,NA,NA,NA,NA,NA,NA,NA,NA,NA,NA,sub51
d3-instructions,49,239181,0.0-49.0,FALSE,FALSE,FALSE,FALSE,"""event"",""trial"",""time""
""fullscreenenter"",""5"",""16590""
","
","
","""event"",""trial"",""time""
""fullscreenenter"",""5"",""16590""
","
",NA,NA,NA,NA,NA,NA,NA,NA,NA,NA,NA,NA,NA,NA,NA,NA,NA,NA,NA,NA,NA,NA,sub51
d3-instructions,50,245635,0.0-50.0,FALSE,FALSE,FALSE,FALSE,"""event"",""trial"",""time""
""fullscreenenter"",""5"",""16590""
","
","
","""event"",""trial"",""time""
""fullscreenenter"",""5"",""16590""
","
",NA,NA,NA,NA,NA,NA,NA,NA,NA,NA,NA,NA,NA,NA,NA,NA,NA,NA,NA,NA,NA,NA,sub51
d3-instructions,51,248248,0.0-51.0,FALSE,FALSE,FALSE,FALSE,"""event"",""trial"",""time""
""fullscreenenter"",""5"",""16590""
","
","
","""event"",""trial"",""time""
""fullscreenenter"",""5"",""16590""
","
",NA,NA,NA,NA,NA,NA,NA,NA,NA,NA,NA,NA,NA,NA,NA,NA,NA,NA,NA,NA,NA,NA,sub51
d3-instructions,52,251063,0.0-52.0,FALSE,FALSE,FALSE,FALSE,"""event"",""trial"",""time""
""fullscreenenter"",""5"",""16590""
","
","
","""event"",""trial"",""time""
""fullscreenenter"",""5"",""16590""
","
",NA,NA,NA,NA,NA,NA,NA,NA,NA,NA,NA,NA,NA,NA,NA,NA,NA,NA,NA,NA,NA,NA,sub51
d3-instructions,53,256845,0.0-53.0,FALSE,FALSE,FALSE,FALSE,"""event"",""trial"",""time""
""fullscreenenter"",""5"",""16590""
","
","
","""event"",""trial"",""time""
""fullscreenenter"",""5"",""16590""
","
",NA,NA,NA,NA,NA,NA,NA,NA,NA,NA,NA,NA,NA,NA,NA,NA,NA,NA,NA,NA,NA,NA,sub51
d3-instructions,54,264875,0.0-54.0,FALSE,FALSE,FALSE,FALSE,"""event"",""trial"",""time""
""fullscreenenter"",""5"",""16590""
","
","
","""event"",""trial"",""time""
""fullscreenenter"",""5"",""16590""
","
",NA,NA,NA,NA,NA,NA,NA,NA,NA,NA,NA,NA,NA,NA,NA,NA,NA,NA,NA,NA,NA,NA,sub51
d3-instructions,55,268085,0.0-55.0,FALSE,FALSE,FALSE,FALSE,"""event"",""trial"",""time""
""fullscreenenter"",""5"",""16590""
","
","
","""event"",""trial"",""time""
""fullscreenenter"",""5"",""16590""
","
",NA,NA,NA,NA,NA,NA,NA,NA,NA,NA,NA,NA,NA,NA,NA,NA,NA,NA,NA,NA,NA,NA,sub51
d3-instructions,56,270177,0.0-56.0,FALSE,FALSE,FALSE,FALSE,"""event"",""trial"",""time""
""fullscreenenter"",""5"",""16590""
","
","
","""event"",""trial"",""time""
""fullscreenenter"",""5"",""16590""
","
",NA,NA,NA,NA,NA,NA,NA,NA,NA,NA,NA,NA,NA,NA,NA,NA,NA,NA,NA,NA,NA,NA,sub51
d3-instructions,57,275786,0.0-57.0,FALSE,FALSE,FALSE,FALSE,"""event"",""trial"",""time""
""fullscreenenter"",""5"",""16590""
","
","
","""event"",""trial"",""time""
""fullscreenenter"",""5"",""16590""
","
",NA,NA,NA,NA,NA,NA,NA,NA,NA,NA,NA,NA,NA,NA,NA,NA,NA,NA,NA,NA,NA,NA,sub51
d3-instructions,58,287467,0.0-58.0,FALSE,FALSE,FALSE,FALSE,"""event"",""trial"",""time""
""fullscreenenter"",""5"",""16590""
","
","
","""event"",""trial"",""time""
""fullscreenenter"",""5"",""16590""
","
",NA,NA,NA,NA,NA,NA,NA,NA,NA,NA,NA,NA,NA,NA,NA,NA,NA,NA,NA,NA,NA,NA,sub51
d3-instructions,59,292144,0.0-59.0,FALSE,FALSE,FALSE,FALSE,"""event"",""trial"",""time""
""fullscreenenter"",""5"",""16590""
","
","
","""event"",""trial"",""time""
""fullscreenenter"",""5"",""16590""
","
",NA,NA,NA,NA,NA,NA,NA,NA,NA,NA,NA,NA,NA,NA,NA,NA,NA,NA,NA,NA,NA,NA,sub51
d3-instructions,60,295339,0.0-60.0,FALSE,FALSE,FALSE,FALSE,"""event"",""trial"",""time""
""fullscreenenter"",""5"",""16590""
","
","
","""event"",""trial"",""time""
""fullscreenenter"",""5"",""16590""
","
",NA,NA,NA,NA,NA,NA,NA,NA,NA,NA,NA,NA,NA,NA,NA,NA,NA,NA,NA,NA,NA,NA,sub51
d3-animate-choice,61,297939,0.0-61.0-0.0,FALSE,FALSE,FALSE,FALSE,"""event"",""trial"",""time""
""fullscreenenter"",""5"",""16590""
","
","
","""event"",""trial"",""time""
""fullscreenenter"",""5"",""16590""
","
",592.52999999444,NA,49,NA,NA,3000,1,NA,NA,images/earth.jpg,images/tutrocket2,images/tutrocket1,null,images/tutrocket1,NA,1,practice,null,1,NA,NA,NA,sub51
d3-animate-choice,62,300694,0.0-61.0-1.0,FALSE,FALSE,FALSE,FALSE,"""event"",""trial"",""time""
""fullscreenenter"",""5"",""16590""
","
","
","""event"",""trial"",""time""
""fullscreenenter"",""5"",""16590""
","
",748.9800000039395,NA,49,NA,NA,3000,1,"1153.6249999917345,1405.4899999900954,1653.2699999952456,1852.6049999927636,2135.5449999973644,2383.029999997234,2641.025000004447",49494949494949,images/tutyellowplanet.jpg,images/tutalien4,images/tutalien3,images/tutrocket1,images/tutalien3,images/nothing.png,2,practice,true,1,common,0,2020-06-10T03:37:22Z,sub51
two-step-fixation,63,301698,0.0-61.0-2.0,FALSE,FALSE,FALSE,FALSE,"""event"",""trial"",""time""
""fullscreenenter"",""5"",""16590""
","
","
","""event"",""trial"",""time""
""fullscreenenter"",""5"",""16590""
","
",NA,images/earth.jpg,NA,NA,NA,NA,NA,NA,NA,NA,NA,NA,NA,NA,NA,fixation,NA,NA,NA,NA,NA,NA,sub51
d3-animate-choice,64,305701,0.0-61.0-0.1,FALSE,FALSE,FALSE,FALSE,"""event"",""trial"",""time""
""fullscreenenter"",""5"",""16590""
","
","
","""event"",""trial"",""time""
""fullscreenenter"",""5"",""16590""
","
",2487.1449999918696,NA,48,NA,NA,3000,1,NA,NA,images/earth.jpg,images/tutrocket2,images/tutrocket1,null,images/tutrocket2,NA,1,practice,null,2,NA,NA,NA,sub51
d3-animate-choice,65,308260,0.0-61.0-1.1,FALSE,FALSE,FALSE,FALSE,"""event"",""trial"",""time""
""fullscreenenter"",""5"",""16590""
","
","
","""event"",""trial"",""time""
""fullscreenenter"",""5"",""16590""
","
",555.5900000035763,NA,48,NA,NA,3000,1,NA,NA,images/tutyellowplanet.jpg,images/tutalien4,images/tutalien3,images/tutrocket2,images/tutalien4,images/t.png,2,practice,false,2,rare,1,2020-06-10T03:37:29Z,sub51
two-step-fixation,66,309263,0.0-61.0-2.1,FALSE,FALSE,FALSE,FALSE,"""event"",""trial"",""time""
""fullscreenenter"",""5"",""16590""
","
","
","""event"",""trial"",""time""
""fullscreenenter"",""5"",""16590""
","
",NA,images/earth.jpg,NA,NA,NA,NA,NA,NA,NA,NA,NA,NA,NA,NA,NA,fixation,NA,NA,NA,NA,NA,NA,sub51
d3-animate-choice,67,311639,0.0-61.0-0.2,FALSE,FALSE,FALSE,FALSE,"""event"",""trial"",""time""
""fullscreenenter"",""5"",""16590""
","
","
","""event"",""trial"",""time""
""fullscreenenter"",""5"",""16590""
","
",371.1849999963306,NA,48,NA,NA,3000,1,NA,NA,images/earth.jpg,images/tutrocket2,images/tutrocket1,null,images/tutrocket2,NA,1,practice,null,2,NA,NA,NA,sub51
d3-animate-choice,68,314052,0.0-61.0-1.2,FALSE,FALSE,FALSE,FALSE,"""event"",""trial"",""time""
""fullscreenenter"",""5"",""16590""
","
","
","""event"",""trial"",""time""
""fullscreenenter"",""5"",""16590""
","
",410.71999999985565,NA,49,NA,NA,3000,1,NA,NA,images/tutgreenplanet.jpg,images/tutalien2,images/tutalien1,images/tutrocket2,images/tutalien1,images/nothing.png,2,practice,true,1,common,0,2020-06-10T03:37:35Z,sub51
two-step-fixation,69,315055,0.0-61.0-2.2,FALSE,FALSE,FALSE,FALSE,"""event"",""trial"",""time""
""fullscreenenter"",""5"",""16590""
","
","
","""event"",""trial"",""time""
""fullscreenenter"",""5"",""16590""
","
",NA,images/earth.jpg,NA,NA,NA,NA,NA,NA,NA,NA,NA,NA,NA,NA,NA,fixation,NA,NA,NA,NA,NA,NA,sub51
d3-animate-choice,70,317386,0.0-61.0-0.3,FALSE,FALSE,FALSE,FALSE,"""event"",""trial"",""time""
""fullscreenenter"",""5"",""16590""
","
","
","""event"",""trial"",""time""
""fullscreenenter"",""5"",""16590""
","
",324.65000000956934,NA,49,NA,NA,3000,1,NA,NA,images/earth.jpg,images/tutrocket2,images/tutrocket1,null,images/tutrocket1,NA,1,practice,null,1,NA,NA,NA,sub51
d3-animate-choice,71,320111,0.0-61.0-1.3,FALSE,FALSE,FALSE,FALSE,"""event"",""trial"",""time""
""fullscreenenter"",""5"",""16590""
","
","
","""event"",""trial"",""time""
""fullscreenenter"",""5"",""16590""
","
",720.4349999956321,NA,48,NA,NA,3000,1,NA,NA,images/tutyellowplanet.jpg,images/tutalien4,images/tutalien3,images/tutrocket1,images/tutalien4,images/t.png,2,practice,true,2,common,1,2020-06-10T03:37:41Z,sub51
two-step-fixation,72,321113,0.0-61.0-2.3,FALSE,FALSE,FALSE,FALSE,"""event"",""trial"",""time""
""fullscreenenter"",""5"",""16590""
","
","
","""event"",""trial"",""time""
""fullscreenenter"",""5"",""16590""
","
",NA,images/earth.jpg,NA,NA,NA,NA,NA,NA,NA,NA,NA,NA,NA,NA,NA,fixation,NA,NA,NA,NA,NA,NA,sub51
d3-animate-choice,73,323617,0.0-61.0-0.4,FALSE,FALSE,FALSE,FALSE,"""event"",""trial"",""time""
""fullscreenenter"",""5"",""16590""
","
","
","""event"",""trial"",""time""
""fullscreenenter"",""5"",""16590""
","
",500.7649999897694,NA,48,NA,NA,3000,1,NA,NA,images/earth.jpg,images/tutrocket2,images/tutrocket1,null,images/tutrocket2,NA,1,practice,null,2,NA,NA,NA,sub51
d3-animate-choice,74,326326,0.0-61.0-1.4,FALSE,FALSE,FALSE,FALSE,"""event"",""trial"",""time""
""fullscreenenter"",""5"",""16590""
","
","
","""event"",""trial"",""time""
""fullscreenenter"",""5"",""16590""
","
",702.1500000118976,NA,48,NA,NA,3000,1,NA,NA,images/tutgreenplanet.jpg,images/tutalien2,images/tutalien1,images/tutrocket2,images/tutalien2,images/t.png,2,practice,true,2,common,1,2020-06-10T03:37:47Z,sub51
two-step-fixation,75,327332,0.0-61.0-2.4,FALSE,FALSE,FALSE,FALSE,"""event"",""trial"",""time""
""fullscreenenter"",""5"",""16590""
","
","
","""event"",""trial"",""time""
""fullscreenenter"",""5"",""16590""
","
",NA,images/earth.jpg,NA,NA,NA,NA,NA,NA,NA,NA,NA,NA,NA,NA,NA,fixation,NA,NA,NA,NA,NA,NA,sub51
d3-animate-choice,76,329805,0.0-61.0-0.5,FALSE,FALSE,FALSE,FALSE,"""event"",""trial"",""time""
""fullscreenenter"",""5"",""16590""
","
","
","""event"",""trial"",""time""
""fullscreenenter"",""5"",""16590""
","
",468.7649999978021,NA,49,NA,NA,3000,1,NA,NA,images/earth.jpg,images/tutrocket2,images/tutrocket1,null,images/tutrocket1,NA,1,practice,null,1,NA,NA,NA,sub51
d3-animate-choice,77,333054,0.0-61.0-1.5,FALSE,FALSE,FALSE,FALSE,"""event"",""trial"",""time""
""fullscreenenter"",""5"",""16590""
","
","
","""event"",""trial"",""time""
""fullscreenenter"",""5"",""16590""
","
",1244.1799999942305,NA,48,NA,NA,3000,1,NA,NA,images/tutyellowplanet.jpg,images/tutalien4,images/tutalien3,images/tutrocket1,images/tutalien4,images/nothing.png,2,practice,true,2,common,0,2020-06-10T03:37:54Z,sub51
two-step-fixation,78,334059,0.0-61.0-2.5,FALSE,FALSE,FALSE,FALSE,"""event"",""trial"",""time""
""fullscreenenter"",""5"",""16590""
","
","
","""event"",""trial"",""time""
""fullscreenenter"",""5"",""16590""
","
",NA,images/earth.jpg,NA,NA,NA,NA,NA,NA,NA,NA,NA,NA,NA,NA,NA,fixation,NA,NA,NA,NA,NA,NA,sub51
d3-animate-choice,79,336973,0.0-61.0-0.6,FALSE,FALSE,FALSE,FALSE,"""event"",""trial"",""time""
""fullscreenenter"",""5"",""16590""
","
","
","""event"",""trial"",""time""
""fullscreenenter"",""5"",""16590""
","
",904.129999995348,NA,48,NA,NA,3000,1,NA,NA,images/earth.jpg,images/tutrocket2,images/tutrocket1,null,images/tutrocket2,NA,1,practice,null,2,NA,NA,NA,sub51
d3-animate-choice,80,339801,0.0-61.0-1.6,FALSE,FALSE,FALSE,FALSE,"""event"",""trial"",""time""
""fullscreenenter"",""5"",""16590""
","
","
","""event"",""trial"",""time""
""fullscreenenter"",""5"",""16590""
","
",822.889999995823,NA,49,NA,NA,3000,1,NA,NA,images/tutgreenplanet.jpg,images/tutalien2,images/tutalien1,images/tutrocket2,images/tutalien1,images/nothing.png,2,practice,true,1,common,0,2020-06-10T03:38:01Z,sub51
two-step-fixation,81,340804,0.0-61.0-2.6,FALSE,FALSE,FALSE,FALSE,"""event"",""trial"",""time""
""fullscreenenter"",""5"",""16590""
","
","
","""event"",""trial"",""time""
""fullscreenenter"",""5"",""16590""
","
",NA,images/earth.jpg,NA,NA,NA,NA,NA,NA,NA,NA,NA,NA,NA,NA,NA,fixation,NA,NA,NA,NA,NA,NA,sub51
d3-animate-choice,82,343298,0.0-61.0-0.7,FALSE,FALSE,FALSE,FALSE,"""event"",""trial"",""time""
""fullscreenenter"",""5"",""16590""
","
","
","""event"",""trial"",""time""
""fullscreenenter"",""5"",""16590""
","
",486.1749999981839,NA,49,NA,NA,3000,1,NA,NA,images/earth.jpg,images/tutrocket2,images/tutrocket1,null,images/tutrocket1,NA,1,practice,null,1,NA,NA,NA,sub51
d3-animate-choice,83,345966,0.0-61.0-1.7,FALSE,FALSE,FALSE,FALSE,"""event"",""trial"",""time""
""fullscreenenter"",""5"",""16590""
","
","
","""event"",""trial"",""time""
""fullscreenenter"",""5"",""16590""
","
",659.1100000077859,NA,48,NA,NA,3000,1,NA,NA,images/tutyellowplanet.jpg,images/tutalien4,images/tutalien3,images/tutrocket1,images/tutalien4,images/t.png,2,practice,true,2,common,1,2020-06-10T03:38:07Z,sub51
two-step-fixation,84,346970,0.0-61.0-2.7,FALSE,FALSE,FALSE,FALSE,"""event"",""trial"",""time""
""fullscreenenter"",""5"",""16590""
","
","
","""event"",""trial"",""time""
""fullscreenenter"",""5"",""16590""
","
",NA,images/earth.jpg,NA,NA,NA,NA,NA,NA,NA,NA,NA,NA,NA,NA,NA,fixation,NA,NA,NA,NA,NA,NA,sub51
d3-animate-choice,85,349316,0.0-61.0-0.8,FALSE,FALSE,FALSE,FALSE,"""event"",""trial"",""time""
""fullscreenenter"",""5"",""16590""
","
","
","""event"",""trial"",""time""
""fullscreenenter"",""5"",""16590""
","
",340.3950000065379,NA,49,NA,NA,3000,1,NA,NA,images/earth.jpg,images/tutrocket2,images/tutrocket1,null,images/tutrocket1,NA,1,practice,null,1,NA,NA,NA,sub51
d3-animate-choice,86,352315,0.0-61.0-1.8,FALSE,FALSE,FALSE,FALSE,"""event"",""trial"",""time""
""fullscreenenter"",""5"",""16590""
","
","
","""event"",""trial"",""time""
""fullscreenenter"",""5"",""16590""
","
",992.7949999982957,NA,48,NA,NA,3000,1,NA,NA,images/tutgreenplanet.jpg,images/tutalien2,images/tutalien1,images/tutrocket1,images/tutalien2,images/nothing.png,2,practice,false,2,rare,0,2020-06-10T03:38:13Z,sub51
two-step-fixation,87,353322,0.0-61.0-2.8,FALSE,FALSE,FALSE,FALSE,"""event"",""trial"",""time""
""fullscreenenter"",""5"",""16590""
","
","
","""event"",""trial"",""time""
""fullscreenenter"",""5"",""16590""
","
",NA,images/earth.jpg,NA,NA,NA,NA,NA,NA,NA,NA,NA,NA,NA,NA,NA,fixation,NA,NA,NA,NA,NA,NA,sub51
d3-animate-choice,88,355674,0.0-61.0-0.9,FALSE,FALSE,FALSE,FALSE,"""event"",""trial"",""time""
""fullscreenenter"",""5"",""16590""
","
","
","""event"",""trial"",""time""
""fullscreenenter"",""5"",""16590""
","
",346.4650000096299,NA,49,NA,NA,3000,1,NA,NA,images/earth.jpg,images/tutrocket2,images/tutrocket1,null,images/tutrocket1,NA,1,practice,null,1,NA,NA,NA,sub51
d3-animate-choice,89,358483,0.0-61.0-1.9,FALSE,FALSE,FALSE,FALSE,"""event"",""trial"",""time""
""fullscreenenter"",""5"",""16590""
","
","
","""event"",""trial"",""time""
""fullscreenenter"",""5"",""16590""
","
",806.2399999907939,NA,48,NA,NA,3000,1,NA,NA,images/tutyellowplanet.jpg,images/tutalien4,images/tutalien3,images/tutrocket1,images/tutalien4,images/t.png,2,practice,true,2,common,1,2020-06-10T03:38:20Z,sub51
two-step-fixation,90,359487,0.0-61.0-2.9,FALSE,FALSE,FALSE,FALSE,"""event"",""trial"",""time""
""fullscreenenter"",""5"",""16590""
","
","
","""event"",""trial"",""time""
""fullscreenenter"",""5"",""16590""
","
",NA,images/earth.jpg,NA,NA,NA,NA,NA,NA,NA,NA,NA,NA,NA,NA,NA,fixation,NA,NA,NA,NA,NA,NA,sub51
d3-animate-choice,91,361814,0.0-61.0-0.10,FALSE,FALSE,FALSE,FALSE,"""event"",""trial"",""time""
""fullscreenenter"",""5"",""16590""
","
","
","""event"",""trial"",""time""
""fullscreenenter"",""5"",""16590""
","
",323.4649999940302,NA,49,NA,NA,3000,1,NA,NA,images/earth.jpg,images/tutrocket2,images/tutrocket1,null,images/tutrocket1,NA,1,practice,null,1,NA,NA,NA,sub51
d3-animate-choice,92,364503,0.0-61.0-1.10,FALSE,FALSE,FALSE,FALSE,"""event"",""trial"",""time""
""fullscreenenter"",""5"",""16590""
","
","
","""event"",""trial"",""time""
""fullscreenenter"",""5"",""16590""
","
",681.349999998929,NA,48,NA,NA,3000,1,NA,NA,images/tutyellowplanet.jpg,images/tutalien4,images/tutalien3,images/tutrocket1,images/tutalien4,images/nothing.png,2,practice,true,2,common,0,2020-06-10T03:38:26Z,sub51
two-step-fixation,93,365512,0.0-61.0-2.10,FALSE,FALSE,FALSE,FALSE,"""event"",""trial"",""time""
""fullscreenenter"",""5"",""16590""
","
","
","""event"",""trial"",""time""
""fullscreenenter"",""5"",""16590""
","
",NA,images/earth.jpg,NA,NA,NA,NA,NA,NA,NA,NA,NA,NA,NA,NA,NA,fixation,NA,NA,NA,NA,NA,NA,sub51
d3-animate-choice,94,367845,0.0-61.0-0.11,FALSE,FALSE,FALSE,FALSE,"""event"",""trial"",""time""
""fullscreenenter"",""5"",""16590""
","
","
","""event"",""trial"",""time""
""fullscreenenter"",""5"",""16590""
","
",328.2400000025518,NA,49,NA,NA,3000,1,NA,NA,images/earth.jpg,images/tutrocket2,images/tutrocket1,null,images/tutrocket1,NA,1,practice,null,1,NA,NA,NA,sub51
d3-animate-choice,95,370188,0.0-61.0-1.11,FALSE,FALSE,FALSE,FALSE,"""event"",""trial"",""time""
""fullscreenenter"",""5"",""16590""
","
","
","""event"",""trial"",""time""
""fullscreenenter"",""5"",""16590""
","
",333.7549999996554,NA,49,NA,NA,3000,1,NA,NA,images/tutgreenplanet.jpg,images/tutalien2,images/tutalien1,images/tutrocket1,images/tutalien1,images/nothing.png,2,practice,false,1,rare,0,2020-06-10T03:38:31Z,sub51
two-step-fixation,96,371195,0.0-61.0-2.11,FALSE,FALSE,FALSE,FALSE,"""event"",""trial"",""time""
""fullscreenenter"",""5"",""16590""
","
","
","""event"",""trial"",""time""
""fullscreenenter"",""5"",""16590""
","
",NA,images/earth.jpg,NA,NA,NA,NA,NA,NA,NA,NA,NA,NA,NA,NA,NA,fixation,NA,NA,NA,NA,NA,NA,sub51
d3-animate-choice,97,373493,0.0-61.0-0.12,FALSE,FALSE,FALSE,FALSE,"""event"",""trial"",""time""
""fullscreenenter"",""5"",""16590""
","
","
","""event"",""trial"",""time""
""fullscreenenter"",""5"",""16590""
","
",292.8200000023935,NA,48,NA,NA,3000,1,NA,NA,images/earth.jpg,images/tutrocket2,images/tutrocket1,null,images/tutrocket2,NA,1,practice,null,2,NA,NA,NA,sub51
d3-animate-choice,98,375867,0.0-61.0-1.12,FALSE,FALSE,FALSE,FALSE,"""event"",""trial"",""time""
""fullscreenenter"",""5"",""16590""
","
","
","""event"",""trial"",""time""
""fullscreenenter"",""5"",""16590""
","
",367.0200000051409,NA,48,NA,NA,3000,1,NA,NA,images/tutgreenplanet.jpg,images/tutalien2,images/tutalien1,images/tutrocket2,images/tutalien2,images/nothing.png,2,practice,true,2,common,0,2020-06-10T03:38:37Z,sub51
two-step-fixation,99,376871,0.0-61.0-2.12,FALSE,FALSE,FALSE,FALSE,"""event"",""trial"",""time""
""fullscreenenter"",""5"",""16590""
","
","
","""event"",""trial"",""time""
""fullscreenenter"",""5"",""16590""
","
",NA,images/earth.jpg,NA,NA,NA,NA,NA,NA,NA,NA,NA,NA,NA,NA,NA,fixation,NA,NA,NA,NA,NA,NA,sub51
d3-animate-choice,100,379435,0.0-61.0-0.13,FALSE,FALSE,FALSE,FALSE,"""event"",""trial"",""time""
""fullscreenenter"",""5"",""16590""
","
","
","""event"",""trial"",""time""
""fullscreenenter"",""5"",""16590""
","
",558.1149999925401,NA,49,NA,NA,3000,1,NA,NA,images/earth.jpg,images/tutrocket2,images/tutrocket1,null,images/tutrocket1,NA,1,practice,null,1,NA,NA,NA,sub51
d3-animate-choice,101,381752,0.0-61.0-1.13,FALSE,FALSE,FALSE,FALSE,"""event"",""trial"",""time""
""fullscreenenter"",""5"",""16590""
","
","
","""event"",""trial"",""time""
""fullscreenenter"",""5"",""16590""
","
",312.4800000077812,NA,49,NA,NA,3000,1,NA,NA,images/tutyellowplanet.jpg,images/tutalien4,images/tutalien3,images/tutrocket1,images/tutalien3,images/nothing.png,2,practice,true,1,common,0,2020-06-10T03:38:43Z,sub51
two-step-fixation,102,382758,0.0-61.0-2.13,FALSE,FALSE,FALSE,FALSE,"""event"",""trial"",""time""
""fullscreenenter"",""5"",""16590""
","
","
","""event"",""trial"",""time""
""fullscreenenter"",""5"",""16590""
","
",NA,images/earth.jpg,NA,NA,NA,NA,NA,NA,NA,NA,NA,NA,NA,NA,NA,fixation,NA,NA,NA,NA,NA,NA,sub51
d3-animate-choice,103,385005,0.0-61.0-0.14,FALSE,FALSE,FALSE,FALSE,"""event"",""trial"",""time""
""fullscreenenter"",""5"",""16590""
","
","
","""event"",""trial"",""time""
""fullscreenenter"",""5"",""16590""
","
",239.19000000751112,NA,49,NA,NA,3000,1,NA,NA,images/earth.jpg,images/tutrocket2,images/tutrocket1,null,images/tutrocket1,NA,1,practice,null,1,NA,NA,NA,sub51
d3-animate-choice,104,387543,0.0-61.0-1.14,FALSE,FALSE,FALSE,FALSE,"""event"",""trial"",""time""
""fullscreenenter"",""5"",""16590""
","
","
","""event"",""trial"",""time""
""fullscreenenter"",""5"",""16590""
","
",533.6499999975786,NA,48,NA,NA,3000,1,NA,NA,images/tutgreenplanet.jpg,images/tutalien2,images/tutalien1,images/tutrocket1,images/tutalien2,images/t.png,2,practice,false,2,rare,1,2020-06-10T03:38:49Z,sub51
two-step-fixation,105,388547,0.0-61.0-2.14,FALSE,FALSE,FALSE,FALSE,"""event"",""trial"",""time""
""fullscreenenter"",""5"",""16590""
","
","
","""event"",""trial"",""time""
""fullscreenenter"",""5"",""16590""
","
",NA,images/earth.jpg,NA,NA,NA,NA,NA,NA,NA,NA,NA,NA,NA,NA,NA,fixation,NA,NA,NA,NA,NA,NA,sub51
d3-animate-choice,106,390923,0.0-61.0-0.15,FALSE,FALSE,FALSE,FALSE,"""event"",""trial"",""time""
""fullscreenenter"",""5"",""16590""
","
","
","""event"",""trial"",""time""
""fullscreenenter"",""5"",""16590""
","
",370.28999999165535,NA,48,NA,NA,3000,1,NA,NA,images/earth.jpg,images/tutrocket2,images/tutrocket1,null,images/tutrocket2,NA,1,practice,null,2,NA,NA,NA,sub51
d3-animate-choice,107,393511,0.0-61.0-1.15,FALSE,FALSE,FALSE,FALSE,"""event"",""trial"",""time""
""fullscreenenter"",""5"",""16590""
","
","
","""event"",""trial"",""time""
""fullscreenenter"",""5"",""16590""
","
",580.8949999918696,NA,48,NA,NA,3000,1,NA,NA,images/tutgreenplanet.jpg,images/tutalien2,images/tutalien1,images/tutrocket2,images/tutalien2,images/t.png,2,practice,true,2,common,1,2020-06-10T03:38:55Z,sub51
two-step-fixation,108,394520,0.0-61.0-2.15,FALSE,FALSE,FALSE,FALSE,"""event"",""trial"",""time""
""fullscreenenter"",""5"",""16590""
","
","
","""event"",""trial"",""time""
""fullscreenenter"",""5"",""16590""
","
",NA,images/earth.jpg,NA,NA,NA,NA,NA,NA,NA,NA,NA,NA,NA,NA,NA,fixation,NA,NA,NA,NA,NA,NA,sub51
d3-animate-choice,109,397098,0.0-61.0-0.16,FALSE,FALSE,FALSE,FALSE,"""event"",""trial"",""time""
""fullscreenenter"",""5"",""16590""
","
","
","""event"",""trial"",""time""
""fullscreenenter"",""5"",""16590""
","
",573.5199999908218,NA,49,NA,NA,3000,1,NA,NA,images/earth.jpg,images/tutrocket2,images/tutrocket1,null,images/tutrocket1,NA,1,practice,null,1,NA,NA,NA,sub51
d3-animate-choice,110,399544,0.0-61.0-1.16,FALSE,FALSE,FALSE,FALSE,"""event"",""trial"",""time""
""fullscreenenter"",""5"",""16590""
","
","
","""event"",""trial"",""time""
""fullscreenenter"",""5"",""16590""
","
",442.0699999900535,NA,48,NA,NA,3000,1,NA,NA,images/tutyellowplanet.jpg,images/tutalien4,images/tutalien3,images/tutrocket1,images/tutalien4,images/nothing.png,2,practice,true,2,common,0,2020-06-10T03:39:01Z,sub51
two-step-fixation,111,400550,0.0-61.0-2.16,FALSE,FALSE,FALSE,FALSE,"""event"",""trial"",""time""
""fullscreenenter"",""5"",""16590""
","
","
","""event"",""trial"",""time""
""fullscreenenter"",""5"",""16590""
","
",NA,images/earth.jpg,NA,NA,NA,NA,NA,NA,NA,NA,NA,NA,NA,NA,NA,fixation,NA,NA,NA,NA,NA,NA,sub51
d3-animate-choice,112,402924,0.0-61.0-0.17,FALSE,FALSE,FALSE,FALSE,"""event"",""trial"",""time""
""fullscreenenter"",""5"",""16590""
","
","
","""event"",""trial"",""time""
""fullscreenenter"",""5"",""16590""
","
",368.17499999597203,NA,48,NA,NA,3000,1,NA,NA,images/earth.jpg,images/tutrocket2,images/tutrocket1,null,images/tutrocket2,NA,1,practice,null,2,NA,NA,NA,sub51
d3-animate-choice,113,405277,0.0-61.0-1.17,FALSE,FALSE,FALSE,FALSE,"""event"",""trial"",""time""
""fullscreenenter"",""5"",""16590""
","
","
","""event"",""trial"",""time""
""fullscreenenter"",""5"",""16590""
","
",346.9199999963166,NA,48,NA,NA,3000,1,NA,NA,images/tutgreenplanet.jpg,images/tutalien2,images/tutalien1,images/tutrocket2,images/tutalien2,images/nothing.png,2,practice,true,2,common,0,2020-06-10T03:39:06Z,sub51
two-step-fixation,114,406283,0.0-61.0-2.17,FALSE,FALSE,FALSE,FALSE,"""event"",""trial"",""time""
""fullscreenenter"",""5"",""16590""
","
","
","""event"",""trial"",""time""
""fullscreenenter"",""5"",""16590""
","
",NA,images/earth.jpg,NA,NA,NA,NA,NA,NA,NA,NA,NA,NA,NA,NA,NA,fixation,NA,NA,NA,NA,NA,NA,sub51
d3-animate-choice,115,408643,0.0-61.0-0.18,FALSE,FALSE,FALSE,FALSE,"""event"",""trial"",""time""
""fullscreenenter"",""5"",""16590""
","
","
","""event"",""trial"",""time""
""fullscreenenter"",""5"",""16590""
","
",353.159999998752,NA,49,NA,NA,3000,1,NA,NA,images/earth.jpg,images/tutrocket2,images/tutrocket1,null,images/tutrocket1,NA,1,practice,null,1,NA,NA,NA,sub51
d3-animate-choice,116,412012,0.0-61.0-1.18,FALSE,FALSE,FALSE,FALSE,"""event"",""trial"",""time""
""fullscreenenter"",""5"",""16590""
","
","
","""event"",""trial"",""time""
""fullscreenenter"",""5"",""16590""
","
",1363.9799999946263,NA,49,NA,NA,3000,1,NA,NA,images/tutgreenplanet.jpg,images/tutalien2,images/tutalien1,images/tutrocket1,images/tutalien1,images/nothing.png,2,practice,false,1,rare,0,2020-06-10T03:39:13Z,sub51
two-step-fixation,117,413021,0.0-61.0-2.18,FALSE,FALSE,FALSE,FALSE,"""event"",""trial"",""time""
""fullscreenenter"",""5"",""16590""
","
","
","""event"",""trial"",""time""
""fullscreenenter"",""5"",""16590""
","
",NA,images/earth.jpg,NA,NA,NA,NA,NA,NA,NA,NA,NA,NA,NA,NA,NA,fixation,NA,NA,NA,NA,NA,NA,sub51
d3-animate-choice,118,415503,0.0-61.0-0.19,FALSE,FALSE,FALSE,FALSE,"""event"",""trial"",""time""
""fullscreenenter"",""5"",""16590""
","
","
","""event"",""trial"",""time""
""fullscreenenter"",""5"",""16590""
","
",476.4350000041304,NA,48,NA,NA,3000,1,NA,NA,images/earth.jpg,images/tutrocket2,images/tutrocket1,null,images/tutrocket2,NA,1,practice,null,2,NA,NA,NA,sub51
d3-animate-choice,119,417950,0.0-61.0-1.19,FALSE,FALSE,FALSE,FALSE,"""event"",""trial"",""time""
""fullscreenenter"",""5"",""16590""
","
","
","""event"",""trial"",""time""
""fullscreenenter"",""5"",""16590""
","
",442.87500000791624,NA,48,NA,NA,3000,1,NA,NA,images/tutgreenplanet.jpg,images/tutalien2,images/tutalien1,images/tutrocket2,images/tutalien2,images/t.png,2,practice,true,2,common,1,2020-06-10T03:39:19Z,sub51
two-step-fixation,120,418954,0.0-61.0-2.19,FALSE,FALSE,FALSE,FALSE,"""event"",""trial"",""time""
""fullscreenenter"",""5"",""16590""
","
","
","""event"",""trial"",""time""
""fullscreenenter"",""5"",""16590""
","
",NA,images/earth.jpg,NA,NA,NA,NA,NA,NA,NA,NA,NA,NA,NA,NA,NA,fixation,NA,NA,NA,NA,NA,NA,sub51
d3-instructions,121,423752,0.0-62.0,FALSE,FALSE,FALSE,FALSE,"""event"",""trial"",""time""
""fullscreenenter"",""5"",""16590""
","
","
","""event"",""trial"",""time""
""fullscreenenter"",""5"",""16590""
","
",NA,NA,NA,NA,NA,NA,NA,NA,NA,NA,NA,NA,NA,NA,NA,NA,NA,NA,NA,NA,NA,NA,sub51
audio-keyboard-response,122,426499,0.0-63.0,FALSE,FALSE,FALSE,FALSE,"""event"",""trial"",""time""
""fullscreenenter"",""5"",""16590""
","
","
","""event"",""trial"",""time""
""fullscreenenter"",""5"",""16590""
","
",2746,audio/instructions/treasure_feedback.wav,32,NA,NA,NA,NA,NA,NA,NA,NA,NA,NA,NA,NA,NA,NA,NA,NA,NA,NA,NA,sub51
d3-instructions,123,433474,0.0-64.0,FALSE,FALSE,FALSE,FALSE,"""event"",""trial"",""time""
""fullscreenenter"",""5"",""16590""
","
","
","""event"",""trial"",""time""
""fullscreenenter"",""5"",""16590""
","
",NA,NA,NA,NA,NA,NA,NA,NA,NA,NA,NA,NA,NA,NA,NA,NA,NA,NA,NA,NA,NA,NA,sub51
d3-instructions,124,438729,0.0-65.0,FALSE,FALSE,FALSE,FALSE,"""event"",""trial"",""time""
""fullscreenenter"",""5"",""16590""
","
","
","""event"",""trial"",""time""
""fullscreenenter"",""5"",""16590""
","
",NA,NA,NA,NA,NA,NA,NA,NA,NA,NA,NA,NA,NA,NA,NA,NA,NA,NA,NA,NA,NA,NA,sub51
d3-instructions,125,445256,0.0-66.0,FALSE,FALSE,FALSE,FALSE,"""event"",""trial"",""time""
""fullscreenenter"",""5"",""16590""
","
","
","""event"",""trial"",""time""
""fullscreenenter"",""5"",""16590""
","
",NA,NA,NA,NA,NA,NA,NA,NA,NA,NA,NA,NA,NA,NA,NA,NA,NA,NA,NA,NA,NA,NA,sub51
d3-instructions,126,450346,0.0-67.0,FALSE,FALSE,FALSE,FALSE,"""event"",""trial"",""time""
""fullscreenenter"",""5"",""16590""
","
","
","""event"",""trial"",""time""
""fullscreenenter"",""5"",""16590""
","
",NA,NA,NA,NA,NA,NA,NA,NA,NA,NA,NA,NA,NA,NA,NA,NA,NA,NA,NA,NA,NA,NA,sub51
d3-instructions,127,453424,0.0-68.0,FALSE,FALSE,FALSE,FALSE,"""event"",""trial"",""time""
""fullscreenenter"",""5"",""16590""
","
","
","""event"",""trial"",""time""
""fullscreenenter"",""5"",""16590""
","
",NA,NA,NA,NA,NA,NA,NA,NA,NA,NA,NA,NA,NA,NA,NA,NA,NA,NA,NA,NA,NA,NA,sub51
instructions-quiz,128,456702,0.0-69.0,FALSE,FALSE,FALSE,FALSE,"""event"",""trial"",""time""
""fullscreenenter"",""5"",""16590""
","
","
","""event"",""trial"",""time""
""fullscreenenter"",""5"",""16590""
","
",3276.429999998072,audio/quiz/Q1_Prompt.wav,NA,1,NA,NA,NA,NA,NA,NA,NA,NA,NA,NA,NA,NA,NA,NA,NA,NA,NA,NA,sub51
audio-keyboard-response,129,458098,0.0-70.0,FALSE,FALSE,FALSE,FALSE,"""event"",""trial"",""time""
""fullscreenenter"",""5"",""16590""
","
","
","""event"",""trial"",""time""
""fullscreenenter"",""5"",""16590""
","
",1399,audio/quiz/Q1_Correct.wav,32,NA,NA,NA,NA,NA,NA,NA,NA,NA,NA,NA,NA,NA,NA,NA,NA,NA,NA,NA,sub51
instructions-quiz,130,461000,0.0-71.0,FALSE,FALSE,FALSE,FALSE,"""event"",""trial"",""time""
""fullscreenenter"",""5"",""16590""
","
","
","""event"",""trial"",""time""
""fullscreenenter"",""5"",""16590""
","
",2900.8650000032503,audio/quiz/Q2_Prompt.wav,NA,1,NA,NA,NA,NA,NA,NA,NA,NA,NA,NA,NA,NA,NA,NA,NA,NA,NA,NA,sub51
audio-keyboard-response,131,463988,0.0-72.0,FALSE,FALSE,FALSE,FALSE,"""event"",""trial"",""time""
""fullscreenenter"",""5"",""16590""
","
","
","""event"",""trial"",""time""
""fullscreenenter"",""5"",""16590""
","
",2984,audio/quiz/Q2_Incorrect.wav,32,NA,NA,NA,NA,NA,NA,NA,NA,NA,NA,NA,NA,NA,NA,NA,NA,NA,NA,NA,sub51
instructions-quiz,132,466306,0.0-73.0,FALSE,FALSE,FALSE,FALSE,"""event"",""trial"",""time""
""fullscreenenter"",""5"",""16590""
","
","
","""event"",""trial"",""time""
""fullscreenenter"",""5"",""16590""
","
",2316.6950000013458,audio/quiz/Q3_Prompt.wav,NA,1,NA,NA,NA,NA,NA,NA,NA,NA,NA,NA,NA,NA,NA,NA,NA,NA,NA,NA,sub51
audio-keyboard-response,133,467585,0.0-74.0,FALSE,FALSE,FALSE,FALSE,"""event"",""trial"",""time""
""fullscreenenter"",""5"",""16590""
","
","
","""event"",""trial"",""time""
""fullscreenenter"",""5"",""16590""
","
",1277,audio/quiz/Q3_Correct.wav,32,NA,NA,NA,NA,NA,NA,NA,NA,NA,NA,NA,NA,NA,NA,NA,NA,NA,NA,NA,sub51
d3-instructions,134,474016,0.0-75.0,FALSE,FALSE,FALSE,FALSE,"""event"",""trial"",""time""
""fullscreenenter"",""5"",""16590""
","
","
","""event"",""trial"",""time""
""fullscreenenter"",""5"",""16590""
","
",NA,NA,NA,NA,NA,NA,NA,NA,NA,NA,NA,NA,NA,NA,NA,NA,NA,NA,NA,NA,NA,NA,sub51
d3-animate-choice,135,476616,0.0-76.0-0.0,FALSE,FALSE,FALSE,FALSE,"""event"",""trial"",""time""
""fullscreenenter"",""5"",""16590""
","
","
","""event"",""trial"",""time""
""fullscreenenter"",""5"",""16590""
","
",597.2599999950035,NA,49,NA,NA,3000,1,NA,NA,images/earth.jpg,images/rocket1,images/rocket2,null,images/rocket2,NA,1,real,null,1,NA,NA,NA,sub51
d3-animate-choice,136,479675,0.0-76.0-1.0,FALSE,FALSE,FALSE,FALSE,"""event"",""trial"",""time""
""fullscreenenter"",""5"",""16590""
","
","
","""event"",""trial"",""time""
""fullscreenenter"",""5"",""16590""
","
",1051.9150000036461,NA,48,NA,NA,3000,1,NA,NA,images/purpleplanet.jpg,images/alien4,images/alien3,images/rocket2,images/alien4,images/nothing.png,2,real,false,2,rare,0,2020-06-10T03:40:21Z,sub51
two-step-fixation,137,480680,0.0-76.0-2.0,FALSE,FALSE,FALSE,FALSE,"""event"",""trial"",""time""
""fullscreenenter"",""5"",""16590""
","
","
","""event"",""trial"",""time""
""fullscreenenter"",""5"",""16590""
","
",NA,images/earth.jpg,NA,NA,NA,NA,NA,NA,NA,NA,NA,NA,NA,NA,NA,fixation,NA,NA,NA,NA,NA,NA,sub51
d3-animate-choice,138,483193,0.0-76.0-0.1,FALSE,FALSE,FALSE,FALSE,"""event"",""trial"",""time""
""fullscreenenter"",""5"",""16590""
","
","
","""event"",""trial"",""time""
""fullscreenenter"",""5"",""16590""
","
",505.80500000796746,NA,48,NA,NA,3000,1,NA,NA,images/earth.jpg,images/rocket1,images/rocket2,null,images/rocket1,NA,1,real,null,2,NA,NA,NA,sub51
d3-animate-choice,139,485767,0.0-76.0-1.1,FALSE,FALSE,FALSE,FALSE,"""event"",""trial"",""time""
""fullscreenenter"",""5"",""16590""
","
","
","""event"",""trial"",""time""
""fullscreenenter"",""5"",""16590""
","
",570.0599999981932,NA,49,NA,NA,3000,1,NA,NA,images/redplanet1.jpg,images/alien2,images/alien1,images/rocket1,images/alien1,images/nothing.png,2,real,false,1,rare,0,2020-06-10T03:40:27Z,sub51
two-step-fixation,140,486775,0.0-76.0-2.1,FALSE,FALSE,FALSE,FALSE,"""event"",""trial"",""time""
""fullscreenenter"",""5"",""16590""
","
","
","""event"",""trial"",""time""
""fullscreenenter"",""5"",""16590""
","
",NA,images/earth.jpg,NA,NA,NA,NA,NA,NA,NA,NA,NA,NA,NA,NA,NA,fixation,NA,NA,NA,NA,NA,NA,sub51
d3-animate-choice,141,489103,0.0-76.0-0.2,FALSE,FALSE,FALSE,FALSE,"""event"",""trial"",""time""
""fullscreenenter"",""5"",""16590""
","
","
","""event"",""trial"",""time""
""fullscreenenter"",""5"",""16590""
","
",326.3149999984307,NA,49,NA,NA,3000,1,NA,NA,images/earth.jpg,images/rocket1,images/rocket2,null,images/rocket2,NA,1,real,null,1,NA,NA,NA,sub51
d3-animate-choice,142,491727,0.0-76.0-1.2,FALSE,FALSE,FALSE,FALSE,"""event"",""trial"",""time""
""fullscreenenter"",""5"",""16590""
","
","
","""event"",""trial"",""time""
""fullscreenenter"",""5"",""16590""
","
",619.154999993043,NA,49,NA,NA,3000,1,NA,NA,images/purpleplanet.jpg,images/alien4,images/alien3,images/rocket2,images/alien3,images/t.png,2,real,false,1,rare,1,2020-06-10T03:40:33Z,sub51
two-step-fixation,143,492730,0.0-76.0-2.2,FALSE,FALSE,FALSE,FALSE,"""event"",""trial"",""time""
""fullscreenenter"",""5"",""16590""
","
","
","""event"",""trial"",""time""
""fullscreenenter"",""5"",""16590""
","
",NA,images/earth.jpg,NA,NA,NA,NA,NA,NA,NA,NA,NA,NA,NA,NA,NA,fixation,NA,NA,NA,NA,NA,NA,sub51
d3-animate-choice,144,495111,0.0-76.0-0.3,FALSE,FALSE,FALSE,FALSE,"""event"",""trial"",""time""
""fullscreenenter"",""5"",""16590""
","
","
","""event"",""trial"",""time""
""fullscreenenter"",""5"",""16590""
","
",378.035000001546,NA,49,NA,NA,3000,1,NA,NA,images/earth.jpg,images/rocket1,images/rocket2,null,images/rocket2,NA,1,real,null,1,NA,NA,NA,sub51
d3-animate-choice,145,498298,0.0-76.0-1.3,FALSE,FALSE,FALSE,FALSE,"""event"",""trial"",""time""
""fullscreenenter"",""5"",""16590""
","
","
","""event"",""trial"",""time""
""fullscreenenter"",""5"",""16590""
","
",1183.9449999970384,NA,48,NA,NA,3000,1,NA,NA,images/redplanet1.jpg,images/alien2,images/alien1,images/rocket2,images/alien2,images/t.png,2,real,true,2,common,1,2020-06-10T03:40:39Z,sub51
two-step-fixation,146,499302,0.0-76.0-2.3,FALSE,FALSE,FALSE,FALSE,"""event"",""trial"",""time""
""fullscreenenter"",""5"",""16590""
","
","
","""event"",""trial"",""time""
""fullscreenenter"",""5"",""16590""
","
",NA,images/earth.jpg,NA,NA,NA,NA,NA,NA,NA,NA,NA,NA,NA,NA,NA,fixation,NA,NA,NA,NA,NA,NA,sub51
d3-animate-choice,147,501624,0.0-76.0-0.4,FALSE,FALSE,FALSE,FALSE,"""event"",""trial"",""time""
""fullscreenenter"",""5"",""16590""
","
","
","""event"",""trial"",""time""
""fullscreenenter"",""5"",""16590""
","
",319.2050000070594,NA,49,NA,NA,3000,1,NA,NA,images/earth.jpg,images/rocket1,images/rocket2,null,images/rocket2,NA,1,real,null,1,NA,NA,NA,sub51
d3-animate-choice,148,504345,0.0-76.0-1.4,FALSE,FALSE,FALSE,FALSE,"""event"",""trial"",""time""
""fullscreenenter"",""5"",""16590""
","
","
","""event"",""trial"",""time""
""fullscreenenter"",""5"",""16590""
","
",714.0250000084052,NA,48,NA,NA,3000,1,NA,NA,images/redplanet1.jpg,images/alien2,images/alien1,images/rocket2,images/alien2,images/nothing.png,2,real,true,2,common,0,2020-06-10T03:40:45Z,sub51
two-step-fixation,149,505353,0.0-76.0-2.4,FALSE,FALSE,FALSE,FALSE,"""event"",""trial"",""time""
""fullscreenenter"",""5"",""16590""
","
","
","""event"",""trial"",""time""
""fullscreenenter"",""5"",""16590""
","
",NA,images/earth.jpg,NA,NA,NA,NA,NA,NA,NA,NA,NA,NA,NA,NA,NA,fixation,NA,NA,NA,NA,NA,NA,sub51
d3-animate-choice,150,507867,0.0-76.0-0.5,FALSE,FALSE,FALSE,FALSE,"""event"",""trial"",""time""
""fullscreenenter"",""5"",""16590""
","
","
","""event"",""trial"",""time""
""fullscreenenter"",""5"",""16590""
","
",508.9049999951385,NA,48,NA,NA,3000,1,NA,NA,images/earth.jpg,images/rocket1,images/rocket2,null,images/rocket1,NA,1,real,null,2,NA,NA,NA,sub51
d3-animate-choice,151,510316,0.0-76.0-1.5,FALSE,FALSE,FALSE,FALSE,"""event"",""trial"",""time""
""fullscreenenter"",""5"",""16590""
","
","
","""event"",""trial"",""time""
""fullscreenenter"",""5"",""16590""
","
",444.38000000081956,NA,49,NA,NA,3000,1,NA,NA,images/purpleplanet.jpg,images/alien4,images/alien3,images/rocket1,images/alien3,images/nothing.png,2,real,true,1,common,0,2020-06-10T03:40:51Z,sub51
two-step-fixation,152,511321,0.0-76.0-2.5,FALSE,FALSE,FALSE,FALSE,"""event"",""trial"",""time""
""fullscreenenter"",""5"",""16590""
","
","
","""event"",""trial"",""time""
""fullscreenenter"",""5"",""16590""
","
",NA,images/earth.jpg,NA,NA,NA,NA,NA,NA,NA,NA,NA,NA,NA,NA,NA,fixation,NA,NA,NA,NA,NA,NA,sub51
d3-animate-choice,153,513689,0.0-76.0-0.6,FALSE,FALSE,FALSE,FALSE,"""event"",""trial"",""time""
""fullscreenenter"",""5"",""16590""
","
","
","""event"",""trial"",""time""
""fullscreenenter"",""5"",""16590""
","
",362.4299999937648,NA,48,NA,NA,3000,1,NA,NA,images/earth.jpg,images/rocket1,images/rocket2,null,images/rocket1,NA,1,real,null,2,NA,NA,NA,sub51
d3-animate-choice,154,516497,0.0-76.0-1.6,FALSE,FALSE,FALSE,FALSE,"""event"",""trial"",""time""
""fullscreenenter"",""5"",""16590""
","
","
","""event"",""trial"",""time""
""fullscreenenter"",""5"",""16590""
","
",800.4999999975553,NA,48,NA,NA,3000,1,NA,NA,images/purpleplanet.jpg,images/alien4,images/alien3,images/rocket1,images/alien4,images/nothing.png,2,real,true,2,common,0,2020-06-10T03:40:58Z,sub51
two-step-fixation,155,517502,0.0-76.0-2.6,FALSE,FALSE,FALSE,FALSE,"""event"",""trial"",""time""
""fullscreenenter"",""5"",""16590""
","
","
","""event"",""trial"",""time""
""fullscreenenter"",""5"",""16590""
","
",NA,images/earth.jpg,NA,NA,NA,NA,NA,NA,NA,NA,NA,NA,NA,NA,NA,fixation,NA,NA,NA,NA,NA,NA,sub51
d3-animate-choice,156,519886,0.0-76.0-0.7,FALSE,FALSE,FALSE,FALSE,"""event"",""trial"",""time""
""fullscreenenter"",""5"",""16590""
","
","
","""event"",""trial"",""time""
""fullscreenenter"",""5"",""16590""
","
",379.3149999983143,NA,49,NA,NA,3000,1,NA,NA,images/earth.jpg,images/rocket1,images/rocket2,null,images/rocket2,NA,1,real,null,1,NA,NA,NA,sub51
d3-animate-choice,157,522387,0.0-76.0-1.7,FALSE,FALSE,FALSE,FALSE,"""event"",""trial"",""time""
""fullscreenenter"",""5"",""16590""
","
","
","""event"",""trial"",""time""
""fullscreenenter"",""5"",""16590""
","
",496.7599999945378,NA,48,NA,NA,3000,1,NA,NA,images/redplanet1.jpg,images/alien2,images/alien1,images/rocket2,images/alien2,images/t.png,2,real,true,2,common,1,2020-06-10T03:41:03Z,sub51
two-step-fixation,158,523391,0.0-76.0-2.7,FALSE,FALSE,FALSE,FALSE,"""event"",""trial"",""time""
""fullscreenenter"",""5"",""16590""
","
","
","""event"",""trial"",""time""
""fullscreenenter"",""5"",""16590""
","
",NA,images/earth.jpg,NA,NA,NA,NA,NA,NA,NA,NA,NA,NA,NA,NA,NA,fixation,NA,NA,NA,NA,NA,NA,sub51
d3-animate-choice,159,525797,0.0-76.0-0.8,FALSE,FALSE,FALSE,FALSE,"""event"",""trial"",""time""
""fullscreenenter"",""5"",""16590""
","
","
","""event"",""trial"",""time""
""fullscreenenter"",""5"",""16590""
","
",401.51999999943655,NA,49,NA,NA,3000,1,NA,NA,images/earth.jpg,images/rocket1,images/rocket2,null,images/rocket2,NA,1,real,null,1,NA,NA,NA,sub51
d3-animate-choice,160,528347,0.0-76.0-1.8,FALSE,FALSE,FALSE,FALSE,"""event"",""trial"",""time""
""fullscreenenter"",""5"",""16590""
","
","
","""event"",""trial"",""time""
""fullscreenenter"",""5"",""16590""
","
",544.0349999989849,NA,48,NA,NA,3000,1,NA,NA,images/redplanet1.jpg,images/alien2,images/alien1,images/rocket2,images/alien2,images/t.png,2,real,true,2,common,1,2020-06-10T03:41:09Z,sub51
two-step-fixation,161,529354,0.0-76.0-2.8,FALSE,FALSE,FALSE,FALSE,"""event"",""trial"",""time""
""fullscreenenter"",""5"",""16590""
","
","
","""event"",""trial"",""time""
""fullscreenenter"",""5"",""16590""
","
",NA,images/earth.jpg,NA,NA,NA,NA,NA,NA,NA,NA,NA,NA,NA,NA,NA,fixation,NA,NA,NA,NA,NA,NA,sub51
d3-animate-choice,162,531702,0.0-76.0-0.9,FALSE,FALSE,FALSE,FALSE,"""event"",""trial"",""time""
""fullscreenenter"",""5"",""16590""
","
","
","""event"",""trial"",""time""
""fullscreenenter"",""5"",""16590""
","
",343.7849999900209,NA,48,NA,NA,3000,1,NA,NA,images/earth.jpg,images/rocket1,images/rocket2,null,images/rocket1,NA,1,real,null,2,NA,NA,NA,sub51
d3-animate-choice,163,534141,0.0-76.0-1.9,FALSE,FALSE,FALSE,FALSE,"""event"",""trial"",""time""
""fullscreenenter"",""5"",""16590""
","
","
","""event"",""trial"",""time""
""fullscreenenter"",""5"",""16590""
","
",432.0999999908963,NA,48,NA,NA,3000,1,NA,NA,images/purpleplanet.jpg,images/alien4,images/alien3,images/rocket1,images/alien4,images/t.png,2,real,true,2,common,1,2020-06-10T03:41:15Z,sub51
two-step-fixation,164,535146,0.0-76.0-2.9,FALSE,FALSE,FALSE,FALSE,"""event"",""trial"",""time""
""fullscreenenter"",""5"",""16590""
","
","
","""event"",""trial"",""time""
""fullscreenenter"",""5"",""16590""
","
",NA,images/earth.jpg,NA,NA,NA,NA,NA,NA,NA,NA,NA,NA,NA,NA,NA,fixation,NA,NA,NA,NA,NA,NA,sub51
d3-animate-choice,165,537499,0.0-76.0-0.10,FALSE,FALSE,FALSE,FALSE,"""event"",""trial"",""time""
""fullscreenenter"",""5"",""16590""
","
","
","""event"",""trial"",""time""
""fullscreenenter"",""5"",""16590""
","
",349.18499999912456,NA,49,NA,NA,3000,1,NA,NA,images/earth.jpg,images/rocket1,images/rocket2,null,images/rocket2,NA,1,real,null,1,NA,NA,NA,sub51
d3-animate-choice,166,539839,0.0-76.0-1.10,FALSE,FALSE,FALSE,FALSE,"""event"",""trial"",""time""
""fullscreenenter"",""5"",""16590""
","
","
","""event"",""trial"",""time""
""fullscreenenter"",""5"",""16590""
","
",332.79999998921994,NA,48,NA,NA,3000,1,NA,NA,images/redplanet1.jpg,images/alien2,images/alien1,images/rocket2,images/alien2,images/nothing.png,2,real,true,2,common,0,2020-06-10T03:41:21Z,sub51
two-step-fixation,167,540843,0.0-76.0-2.10,FALSE,FALSE,FALSE,FALSE,"""event"",""trial"",""time""
""fullscreenenter"",""5"",""16590""
","
","
","""event"",""trial"",""time""
""fullscreenenter"",""5"",""16590""
","
",NA,images/earth.jpg,NA,NA,NA,NA,NA,NA,NA,NA,NA,NA,NA,NA,NA,fixation,NA,NA,NA,NA,NA,NA,sub51
d3-animate-choice,168,543168,0.0-76.0-0.11,FALSE,FALSE,FALSE,FALSE,"""event"",""trial"",""time""
""fullscreenenter"",""5"",""16590""
","
","
","""event"",""trial"",""time""
""fullscreenenter"",""5"",""16590""
","
",320.41499999468215,NA,49,NA,NA,3000,1,NA,NA,images/earth.jpg,images/rocket1,images/rocket2,null,images/rocket2,NA,1,real,null,1,NA,NA,NA,sub51
d3-animate-choice,169,545737,0.0-76.0-1.11,FALSE,FALSE,FALSE,FALSE,"""event"",""trial"",""time""
""fullscreenenter"",""5"",""16590""
","
","
","""event"",""trial"",""time""
""fullscreenenter"",""5"",""16590""
","
",562.9150000022491,NA,48,NA,NA,3000,1,NA,NA,images/redplanet1.jpg,images/alien2,images/alien1,images/rocket2,images/alien2,images/nothing.png,2,real,true,2,common,0,2020-06-10T03:41:27Z,sub51
two-step-fixation,170,546742,0.0-76.0-2.11,FALSE,FALSE,FALSE,FALSE,"""event"",""trial"",""time""
""fullscreenenter"",""5"",""16590""
","
","
","""event"",""trial"",""time""
""fullscreenenter"",""5"",""16590""
","
",NA,images/earth.jpg,NA,NA,NA,NA,NA,NA,NA,NA,NA,NA,NA,NA,NA,fixation,NA,NA,NA,NA,NA,NA,sub51
d3-animate-choice,171,549075,0.0-76.0-0.12,FALSE,FALSE,FALSE,FALSE,"""event"",""trial"",""time""
""fullscreenenter"",""5"",""16590""
","
","
","""event"",""trial"",""time""
""fullscreenenter"",""5"",""16590""
","
",329.27999999083113,NA,48,NA,NA,3000,1,NA,NA,images/earth.jpg,images/rocket1,images/rocket2,null,images/rocket1,NA,1,real,null,2,NA,NA,NA,sub51
d3-animate-choice,172,551982,0.0-76.0-1.12,FALSE,FALSE,FALSE,FALSE,"""event"",""trial"",""time""
""fullscreenenter"",""5"",""16590""
","
","
","""event"",""trial"",""time""
""fullscreenenter"",""5"",""16590""
","
",902.5150000088615,NA,48,NA,NA,3000,1,NA,NA,images/purpleplanet.jpg,images/alien4,images/alien3,images/rocket1,images/alien4,images/t.png,2,real,true,2,common,1,2020-06-10T03:41:33Z,sub51
two-step-fixation,173,552989,0.0-76.0-2.12,FALSE,FALSE,FALSE,FALSE,"""event"",""trial"",""time""
""fullscreenenter"",""5"",""16590""
","
","
","""event"",""trial"",""time""
""fullscreenenter"",""5"",""16590""
","
",NA,images/earth.jpg,NA,NA,NA,NA,NA,NA,NA,NA,NA,NA,NA,NA,NA,fixation,NA,NA,NA,NA,NA,NA,sub51
d3-animate-choice,174,555268,0.0-76.0-0.13,FALSE,FALSE,FALSE,FALSE,"""event"",""trial"",""time""
""fullscreenenter"",""5"",""16590""
","
","
","""event"",""trial"",""time""
""fullscreenenter"",""5"",""16590""
","
",274.4949999905657,NA,48,NA,NA,3000,1,NA,NA,images/earth.jpg,images/rocket1,images/rocket2,null,images/rocket1,NA,1,real,null,2,NA,NA,NA,sub51
d3-animate-choice,175,558681,0.0-76.0-1.13,FALSE,FALSE,FALSE,FALSE,"""event"",""trial"",""time""
""fullscreenenter"",""5"",""16590""
","
","
","""event"",""trial"",""time""
""fullscreenenter"",""5"",""16590""
","
",1407.5299999967683,NA,48,NA,NA,3000,1,NA,NA,images/purpleplanet.jpg,images/alien4,images/alien3,images/rocket1,images/alien4,images/nothing.png,2,real,true,2,common,0,2020-06-10T03:41:40Z,sub51
two-step-fixation,176,559688,0.0-76.0-2.13,FALSE,FALSE,FALSE,FALSE,"""event"",""trial"",""time""
""fullscreenenter"",""5"",""16590""
","
","
","""event"",""trial"",""time""
""fullscreenenter"",""5"",""16590""
","
",NA,images/earth.jpg,NA,NA,NA,NA,NA,NA,NA,NA,NA,NA,NA,NA,NA,fixation,NA,NA,NA,NA,NA,NA,sub51
d3-animate-choice,177,562104,0.0-76.0-0.14,FALSE,FALSE,FALSE,FALSE,"""event"",""trial"",""time""
""fullscreenenter"",""5"",""16590""
","
","
","""event"",""trial"",""time""
""fullscreenenter"",""5"",""16590""
","
",412.31500000867527,NA,48,NA,NA,3000,1,NA,NA,images/earth.jpg,images/rocket1,images/rocket2,null,images/rocket1,NA,1,real,null,2,NA,NA,NA,sub51
d3-animate-choice,178,564493,0.0-76.0-1.14,FALSE,FALSE,FALSE,FALSE,"""event"",""trial"",""time""
""fullscreenenter"",""5"",""16590""
","
","
","""event"",""trial"",""time""
""fullscreenenter"",""5"",""16590""
","
",382.6149999949848,NA,49,NA,NA,3000,1,NA,NA,images/purpleplanet.jpg,images/alien4,images/alien3,images/rocket1,images/alien3,images/t.png,2,real,true,1,common,1,2020-06-10T03:41:46Z,sub51
two-step-fixation,179,565498,0.0-76.0-2.14,FALSE,FALSE,FALSE,FALSE,"""event"",""trial"",""time""
""fullscreenenter"",""5"",""16590""
","
","
","""event"",""trial"",""time""
""fullscreenenter"",""5"",""16590""
","
",NA,images/earth.jpg,NA,NA,NA,NA,NA,NA,NA,NA,NA,NA,NA,NA,NA,fixation,NA,NA,NA,NA,NA,NA,sub51
d3-animate-choice,180,567815,0.0-76.0-0.15,FALSE,FALSE,FALSE,FALSE,"""event"",""trial"",""time""
""fullscreenenter"",""5"",""16590""
","
","
","""event"",""trial"",""time""
""fullscreenenter"",""5"",""16590""
","
",309.32999998913147,NA,48,NA,NA,3000,1,NA,NA,images/earth.jpg,images/rocket1,images/rocket2,null,images/rocket1,NA,1,real,null,2,NA,NA,NA,sub51
d3-animate-choice,181,570576,0.0-76.0-1.15,FALSE,FALSE,FALSE,FALSE,"""event"",""trial"",""time""
""fullscreenenter"",""5"",""16590""
","
","
","""event"",""trial"",""time""
""fullscreenenter"",""5"",""16590""
","
",756.1900000000605,NA,49,NA,NA,3000,1,NA,NA,images/purpleplanet.jpg,images/alien4,images/alien3,images/rocket1,images/alien3,images/t.png,2,real,true,1,common,1,2020-06-10T03:41:52Z,sub51
two-step-fixation,182,571582,0.0-76.0-2.15,FALSE,FALSE,FALSE,FALSE,"""event"",""trial"",""time""
""fullscreenenter"",""5"",""16590""
","
","
","""event"",""trial"",""time""
""fullscreenenter"",""5"",""16590""
","
",NA,images/earth.jpg,NA,NA,NA,NA,NA,NA,NA,NA,NA,NA,NA,NA,NA,fixation,NA,NA,NA,NA,NA,NA,sub51
d3-animate-choice,183,573903,0.0-76.0-0.16,FALSE,FALSE,FALSE,FALSE,"""event"",""trial"",""time""
""fullscreenenter"",""5"",""16590""
","
","
","""event"",""trial"",""time""
""fullscreenenter"",""5"",""16590""
","
",315.43500001134817,NA,48,NA,NA,3000,1,NA,NA,images/earth.jpg,images/rocket1,images/rocket2,null,images/rocket1,NA,1,real,null,2,NA,NA,NA,sub51
d3-animate-choice,184,576557,0.0-76.0-1.16,FALSE,FALSE,FALSE,FALSE,"""event"",""trial"",""time""
""fullscreenenter"",""5"",""16590""
","
","
","""event"",""trial"",""time""
""fullscreenenter"",""5"",""16590""
","
",649.4399999937741,NA,49,NA,NA,3000,1,NA,NA,images/purpleplanet.jpg,images/alien4,images/alien3,images/rocket1,images/alien3,images/nothing.png,2,real,true,1,common,0,2020-06-10T03:41:58Z,sub51
two-step-fixation,185,577563,0.0-76.0-2.16,FALSE,FALSE,FALSE,FALSE,"""event"",""trial"",""time""
""fullscreenenter"",""5"",""16590""
","
","
","""event"",""trial"",""time""
""fullscreenenter"",""5"",""16590""
","
",NA,images/earth.jpg,NA,NA,NA,NA,NA,NA,NA,NA,NA,NA,NA,NA,NA,fixation,NA,NA,NA,NA,NA,NA,sub51
d3-animate-choice,186,579711,0.0-76.0-0.17,FALSE,FALSE,FALSE,FALSE,"""event"",""trial"",""time""
""fullscreenenter"",""5"",""16590""
","
","
","""event"",""trial"",""time""
""fullscreenenter"",""5"",""16590""
","
",142.69000000786036,NA,49,NA,NA,3000,1,NA,NA,images/earth.jpg,images/rocket1,images/rocket2,null,images/rocket2,NA,1,real,null,1,NA,NA,NA,sub51
d3-animate-choice,187,582164,0.0-76.0-1.17,FALSE,FALSE,FALSE,FALSE,"""event"",""trial"",""time""
""fullscreenenter"",""5"",""16590""
","
","
","""event"",""trial"",""time""
""fullscreenenter"",""5"",""16590""
","
",447.56499999493826,NA,48,NA,NA,3000,1,NA,NA,images/redplanet1.jpg,images/alien2,images/alien1,images/rocket2,images/alien2,images/t.png,2,real,true,2,common,1,2020-06-10T03:42:03Z,sub51
two-step-fixation,188,583169,0.0-76.0-2.17,FALSE,FALSE,FALSE,FALSE,"""event"",""trial"",""time""
""fullscreenenter"",""5"",""16590""
","
","
","""event"",""trial"",""time""
""fullscreenenter"",""5"",""16590""
","
",NA,images/earth.jpg,NA,NA,NA,NA,NA,NA,NA,NA,NA,NA,NA,NA,NA,fixation,NA,NA,NA,NA,NA,NA,sub51
d3-animate-choice,189,585582,0.0-76.0-0.18,FALSE,FALSE,FALSE,FALSE,"""event"",""trial"",""time""
""fullscreenenter"",""5"",""16590""
","
","
","""event"",""trial"",""time""
""fullscreenenter"",""5"",""16590""
","
",409.5300000044517,NA,49,NA,NA,3000,1,NA,NA,images/earth.jpg,images/rocket1,images/rocket2,null,images/rocket2,NA,1,real,null,1,NA,NA,NA,sub51
d3-animate-choice,190,588731,0.0-76.0-1.18,FALSE,FALSE,FALSE,FALSE,"""event"",""trial"",""time""
""fullscreenenter"",""5"",""16590""
","
","
","""event"",""trial"",""time""
""fullscreenenter"",""5"",""16590""
","
",1141.1900000093738,NA,48,NA,NA,3000,1,NA,NA,images/redplanet1.jpg,images/alien2,images/alien1,images/rocket2,images/alien2,images/t.png,2,real,true,2,common,1,2020-06-10T03:42:10Z,sub51
two-step-fixation,191,589736,0.0-76.0-2.18,FALSE,FALSE,FALSE,FALSE,"""event"",""trial"",""time""
""fullscreenenter"",""5"",""16590""
","
","
","""event"",""trial"",""time""
""fullscreenenter"",""5"",""16590""
","
",NA,images/earth.jpg,NA,NA,NA,NA,NA,NA,NA,NA,NA,NA,NA,NA,NA,fixation,NA,NA,NA,NA,NA,NA,sub51
d3-animate-choice,192,592139,0.0-76.0-0.19,FALSE,FALSE,FALSE,FALSE,"""event"",""trial"",""time""
""fullscreenenter"",""5"",""16590""
","
","
","""event"",""trial"",""time""
""fullscreenenter"",""5"",""16590""
","
",398.9149999979418,NA,49,NA,NA,3000,1,NA,NA,images/earth.jpg,images/rocket1,images/rocket2,null,images/rocket2,NA,1,real,null,1,NA,NA,NA,sub51
d3-animate-choice,193,594594,0.0-76.0-1.19,FALSE,FALSE,FALSE,FALSE,"""event"",""trial"",""time""
""fullscreenenter"",""5"",""16590""
","
","
","""event"",""trial"",""time""
""fullscreenenter"",""5"",""16590""
","
",449.37999999092426,NA,48,NA,NA,3000,1,NA,NA,images/purpleplanet.jpg,images/alien4,images/alien3,images/rocket2,images/alien4,images/t.png,2,real,false,2,rare,1,2020-06-10T03:42:16Z,sub51
two-step-fixation,194,595599,0.0-76.0-2.19,FALSE,FALSE,FALSE,FALSE,"""event"",""trial"",""time""
""fullscreenenter"",""5"",""16590""
","
","
","""event"",""trial"",""time""
""fullscreenenter"",""5"",""16590""
","
",NA,images/earth.jpg,NA,NA,NA,NA,NA,NA,NA,NA,NA,NA,NA,NA,NA,fixation,NA,NA,NA,NA,NA,NA,sub51
d3-animate-choice,195,597939,0.0-76.0-0.20,FALSE,FALSE,FALSE,FALSE,"""event"",""trial"",""time""
""fullscreenenter"",""5"",""16590""
","
","
","""event"",""trial"",""time""
""fullscreenenter"",""5"",""16590""
","
",334.29500000784174,NA,49,NA,NA,3000,1,NA,NA,images/earth.jpg,images/rocket1,images/rocket2,null,images/rocket2,NA,1,real,null,1,NA,NA,NA,sub51
d3-animate-choice,196,600453,0.0-76.0-1.20,FALSE,FALSE,FALSE,FALSE,"""event"",""trial"",""time""
""fullscreenenter"",""5"",""16590""
","
","
","""event"",""trial"",""time""
""fullscreenenter"",""5"",""16590""
","
",505.8549999957904,NA,49,NA,NA,3000,1,NA,NA,images/purpleplanet.jpg,images/alien4,images/alien3,images/rocket2,images/alien3,images/nothing.png,2,real,false,1,rare,0,2020-06-10T03:42:22Z,sub51
two-step-fixation,197,601460,0.0-76.0-2.20,FALSE,FALSE,FALSE,FALSE,"""event"",""trial"",""time""
""fullscreenenter"",""5"",""16590""
","
","
","""event"",""trial"",""time""
""fullscreenenter"",""5"",""16590""
","
",NA,images/earth.jpg,NA,NA,NA,NA,NA,NA,NA,NA,NA,NA,NA,NA,NA,fixation,NA,NA,NA,NA,NA,NA,sub51
d3-animate-choice,198,603832,0.0-76.0-0.21,FALSE,FALSE,FALSE,FALSE,"""event"",""trial"",""time""
""fullscreenenter"",""5"",""16590""
","
","
","""event"",""trial"",""time""
""fullscreenenter"",""5"",""16590""
","
",364.9899999873014,NA,49,NA,NA,3000,1,NA,NA,images/earth.jpg,images/rocket1,images/rocket2,null,images/rocket2,NA,1,real,null,1,NA,NA,NA,sub51
d3-animate-choice,199,606426,0.0-76.0-1.21,FALSE,FALSE,FALSE,FALSE,"""event"",""trial"",""time""
""fullscreenenter"",""5"",""16590""
","
","
","""event"",""trial"",""time""
""fullscreenenter"",""5"",""16590""
","
",589.4800000096438,NA,48,NA,NA,3000,1,NA,NA,images/purpleplanet.jpg,images/alien4,images/alien3,images/rocket2,images/alien4,images/t.png,2,real,false,2,rare,1,2020-06-10T03:42:27Z,sub51
two-step-fixation,200,607430,0.0-76.0-2.21,FALSE,FALSE,FALSE,FALSE,"""event"",""trial"",""time""
""fullscreenenter"",""5"",""16590""
","
","
","""event"",""trial"",""time""
""fullscreenenter"",""5"",""16590""
","
",NA,images/earth.jpg,NA,NA,NA,NA,NA,NA,NA,NA,NA,NA,NA,NA,NA,fixation,NA,NA,NA,NA,NA,NA,sub51
d3-animate-choice,201,609862,0.0-76.0-0.22,FALSE,FALSE,FALSE,FALSE,"""event"",""trial"",""time""
""fullscreenenter"",""5"",""16590""
","
","
","""event"",""trial"",""time""
""fullscreenenter"",""5"",""16590""
","
",424.75500000000466,NA,48,NA,NA,3000,1,NA,NA,images/earth.jpg,images/rocket1,images/rocket2,null,images/rocket1,NA,1,real,null,2,NA,NA,NA,sub51
d3-animate-choice,202,612550,0.0-76.0-1.22,FALSE,FALSE,FALSE,FALSE,"""event"",""trial"",""time""
""fullscreenenter"",""5"",""16590""
","
","
","""event"",""trial"",""time""
""fullscreenenter"",""5"",""16590""
","
",683.5049999936018,NA,48,NA,NA,3000,1,NA,NA,images/purpleplanet.jpg,images/alien4,images/alien3,images/rocket1,images/alien4,images/nothing.png,2,real,true,2,common,0,2020-06-10T03:42:34Z,sub51
two-step-fixation,203,613553,0.0-76.0-2.22,FALSE,FALSE,FALSE,FALSE,"""event"",""trial"",""time""
""fullscreenenter"",""5"",""16590""
","
","
","""event"",""trial"",""time""
""fullscreenenter"",""5"",""16590""
","
",NA,images/earth.jpg,NA,NA,NA,NA,NA,NA,NA,NA,NA,NA,NA,NA,NA,fixation,NA,NA,NA,NA,NA,NA,sub51
d3-animate-choice,204,615886,0.0-76.0-0.23,FALSE,FALSE,FALSE,FALSE,"""event"",""trial"",""time""
""fullscreenenter"",""5"",""16590""
","
","
","""event"",""trial"",""time""
""fullscreenenter"",""5"",""16590""
","
",326.759999996284,NA,49,NA,NA,3000,1,NA,NA,images/earth.jpg,images/rocket1,images/rocket2,null,images/rocket2,NA,1,real,null,1,NA,NA,NA,sub51
d3-animate-choice,205,618582,0.0-76.0-1.23,FALSE,FALSE,FALSE,FALSE,"""event"",""trial"",""time""
""fullscreenenter"",""5"",""16590""
","
","
","""event"",""trial"",""time""
""fullscreenenter"",""5"",""16590""
","
",689.1650000034133,NA,48,NA,NA,3000,1,NA,NA,images/redplanet1.jpg,images/alien2,images/alien1,images/rocket2,images/alien2,images/nothing.png,2,real,true,2,common,0,2020-06-10T03:42:40Z,sub51
two-step-fixation,206,619587,0.0-76.0-2.23,FALSE,FALSE,FALSE,FALSE,"""event"",""trial"",""time""
""fullscreenenter"",""5"",""16590""
","
","
","""event"",""trial"",""time""
""fullscreenenter"",""5"",""16590""
","
",NA,images/earth.jpg,NA,NA,NA,NA,NA,NA,NA,NA,NA,NA,NA,NA,NA,fixation,NA,NA,NA,NA,NA,NA,sub51
d3-animate-choice,207,622254,0.0-76.0-0.24,FALSE,FALSE,FALSE,FALSE,"""event"",""trial"",""time""
""fullscreenenter"",""5"",""16590""
","
","
","""event"",""trial"",""time""
""fullscreenenter"",""5"",""16590""
","
",662.8449999989243,NA,49,NA,NA,3000,1,NA,NA,images/earth.jpg,images/rocket1,images/rocket2,null,images/rocket2,NA,1,real,null,1,NA,NA,NA,sub51
d3-animate-choice,208,624678,0.0-76.0-1.24,FALSE,FALSE,FALSE,FALSE,"""event"",""trial"",""time""
""fullscreenenter"",""5"",""16590""
","
","
","""event"",""trial"",""time""
""fullscreenenter"",""5"",""16590""
","
",416.25499998917803,NA,49,NA,NA,3000,1,NA,NA,images/purpleplanet.jpg,images/alien4,images/alien3,images/rocket2,images/alien3,images/nothing.png,2,real,false,1,rare,0,2020-06-10T03:42:46Z,sub51
two-step-fixation,209,625682,0.0-76.0-2.24,FALSE,FALSE,FALSE,FALSE,"""event"",""trial"",""time""
""fullscreenenter"",""5"",""16590""
","
","
","""event"",""trial"",""time""
""fullscreenenter"",""5"",""16590""
","
",NA,images/earth.jpg,NA,NA,NA,NA,NA,NA,NA,NA,NA,NA,NA,NA,NA,fixation,NA,NA,NA,NA,NA,NA,sub51
d3-animate-choice,210,628032,0.0-76.0-0.25,FALSE,FALSE,FALSE,FALSE,"""event"",""trial"",""time""
""fullscreenenter"",""5"",""16590""
","
","
","""event"",""trial"",""time""
""fullscreenenter"",""5"",""16590""
","
",341.7899999913061,NA,48,NA,NA,3000,1,NA,NA,images/earth.jpg,images/rocket1,images/rocket2,null,images/rocket1,NA,1,real,null,2,NA,NA,NA,sub51
d3-animate-choice,211,630745,0.0-76.0-1.25,FALSE,FALSE,FALSE,FALSE,"""event"",""trial"",""time""
""fullscreenenter"",""5"",""16590""
","
","
","""event"",""trial"",""time""
""fullscreenenter"",""5"",""16590""
","
",708.3050000073854,NA,49,NA,NA,3000,1,NA,NA,images/purpleplanet.jpg,images/alien4,images/alien3,images/rocket1,images/alien3,images/t.png,2,real,true,1,common,1,2020-06-10T03:42:52Z,sub51
two-step-fixation,212,631749,0.0-76.0-2.25,FALSE,FALSE,FALSE,FALSE,"""event"",""trial"",""time""
""fullscreenenter"",""5"",""16590""
","
","
","""event"",""trial"",""time""
""fullscreenenter"",""5"",""16590""
","
",NA,images/earth.jpg,NA,NA,NA,NA,NA,NA,NA,NA,NA,NA,NA,NA,NA,fixation,NA,NA,NA,NA,NA,NA,sub51
d3-animate-choice,213,635261,0.0-76.0-0.26,FALSE,FALSE,FALSE,FALSE,"""event"",""trial"",""time""
""fullscreenenter"",""5"",""16590""
","
","
","""event"",""trial"",""time""
""fullscreenenter"",""5"",""16590""
","
",1506.1100000020815,NA,48,NA,NA,3000,1,NA,NA,images/earth.jpg,images/rocket1,images/rocket2,null,images/rocket1,NA,1,real,null,2,NA,NA,NA,sub51
d3-animate-choice,214,637738,0.0-76.0-1.26,FALSE,FALSE,FALSE,FALSE,"""event"",""trial"",""time""
""fullscreenenter"",""5"",""16590""
","
","
","""event"",""trial"",""time""
""fullscreenenter"",""5"",""16590""
","
",472.76000000420026,NA,48,NA,NA,3000,1,NA,NA,images/purpleplanet.jpg,images/alien4,images/alien3,images/rocket1,images/alien4,images/t.png,2,real,true,2,common,1,2020-06-10T03:42:59Z,sub51
two-step-fixation,215,638741,0.0-76.0-2.26,FALSE,FALSE,FALSE,FALSE,"""event"",""trial"",""time""
""fullscreenenter"",""5"",""16590""
","
","
","""event"",""trial"",""time""
""fullscreenenter"",""5"",""16590""
","
",NA,images/earth.jpg,NA,NA,NA,NA,NA,NA,NA,NA,NA,NA,NA,NA,NA,fixation,NA,NA,NA,NA,NA,NA,sub51
d3-animate-choice,216,641240,0.0-76.0-0.27,FALSE,FALSE,FALSE,FALSE,"""event"",""trial"",""time""
""fullscreenenter"",""5"",""16590""
","
","
","""event"",""trial"",""time""
""fullscreenenter"",""5"",""16590""
","
",494.77000000479165,NA,48,NA,NA,3000,1,NA,NA,images/earth.jpg,images/rocket1,images/rocket2,null,images/rocket1,NA,1,real,null,2,NA,NA,NA,sub51
d3-animate-choice,217,643738,0.0-76.0-1.27,FALSE,FALSE,FALSE,FALSE,"""event"",""trial"",""time""
""fullscreenenter"",""5"",""16590""
","
","
","""event"",""trial"",""time""
""fullscreenenter"",""5"",""16590""
","
",492.3500000004424,NA,49,NA,NA,3000,1,NA,NA,images/redplanet1.jpg,images/alien2,images/alien1,images/rocket1,images/alien1,images/t.png,2,real,false,1,rare,1,2020-06-10T03:43:05Z,sub51
two-step-fixation,218,644745,0.0-76.0-2.27,FALSE,FALSE,FALSE,FALSE,"""event"",""trial"",""time""
""fullscreenenter"",""5"",""16590""
","
","
","""event"",""trial"",""time""
""fullscreenenter"",""5"",""16590""
","
",NA,images/earth.jpg,NA,NA,NA,NA,NA,NA,NA,NA,NA,NA,NA,NA,NA,fixation,NA,NA,NA,NA,NA,NA,sub51
d3-animate-choice,219,647215,0.0-76.0-0.28,FALSE,FALSE,FALSE,FALSE,"""event"",""trial"",""time""
""fullscreenenter"",""5"",""16590""
","
","
","""event"",""trial"",""time""
""fullscreenenter"",""5"",""16590""
","
",466.02000000711996,NA,48,NA,NA,3000,1,NA,NA,images/earth.jpg,images/rocket1,images/rocket2,null,images/rocket1,NA,1,real,null,2,NA,NA,NA,sub51
d3-animate-choice,220,649616,0.0-76.0-1.28,FALSE,FALSE,FALSE,FALSE,"""event"",""trial"",""time""
""fullscreenenter"",""5"",""16590""
","
","
","""event"",""trial"",""time""
""fullscreenenter"",""5"",""16590""
","
",394.61999999184627,NA,49,NA,NA,3000,1,NA,NA,images/redplanet1.jpg,images/alien2,images/alien1,images/rocket1,images/alien1,images/nothing.png,2,real,false,1,rare,0,2020-06-10T03:43:11Z,sub51
two-step-fixation,221,650621,0.0-76.0-2.28,FALSE,FALSE,FALSE,FALSE,"""event"",""trial"",""time""
""fullscreenenter"",""5"",""16590""
","
","
","""event"",""trial"",""time""
""fullscreenenter"",""5"",""16590""
","
",NA,images/earth.jpg,NA,NA,NA,NA,NA,NA,NA,NA,NA,NA,NA,NA,NA,fixation,NA,NA,NA,NA,NA,NA,sub51
d3-animate-choice,222,653616,0.0-76.0-0.29,FALSE,FALSE,FALSE,FALSE,"""event"",""trial"",""time""
""fullscreenenter"",""5"",""16590""
","
","
","""event"",""trial"",""time""
""fullscreenenter"",""5"",""16590""
","
",988.9300000068033,NA,48,NA,NA,3000,1,NA,NA,images/earth.jpg,images/rocket1,images/rocket2,null,images/rocket1,NA,1,real,null,2,NA,NA,NA,sub51
d3-animate-choice,223,655941,0.0-76.0-1.29,FALSE,FALSE,FALSE,FALSE,"""event"",""trial"",""time""
""fullscreenenter"",""5"",""16590""
","
","
","""event"",""trial"",""time""
""fullscreenenter"",""5"",""16590""
","
",319.8649999976624,NA,48,NA,NA,3000,1,NA,NA,images/purpleplanet.jpg,images/alien4,images/alien3,images/rocket1,images/alien4,images/t.png,2,real,true,2,common,1,2020-06-10T03:43:17Z,sub51
two-step-fixation,224,656946,0.0-76.0-2.29,FALSE,FALSE,FALSE,FALSE,"""event"",""trial"",""time""
""fullscreenenter"",""5"",""16590""
","
","
","""event"",""trial"",""time""
""fullscreenenter"",""5"",""16590""
","
",NA,images/earth.jpg,NA,NA,NA,NA,NA,NA,NA,NA,NA,NA,NA,NA,NA,fixation,NA,NA,NA,NA,NA,NA,sub51
d3-animate-choice,225,659529,0.0-76.0-0.30,FALSE,FALSE,FALSE,FALSE,"""event"",""trial"",""time""
""fullscreenenter"",""5"",""16590""
","
","
","""event"",""trial"",""time""
""fullscreenenter"",""5"",""16590""
","
",576.7400000040652,NA,48,NA,NA,3000,1,NA,NA,images/earth.jpg,images/rocket1,images/rocket2,null,images/rocket1,NA,1,real,null,2,NA,NA,NA,sub51
d3-animate-choice,226,662154,0.0-76.0-1.30,FALSE,FALSE,FALSE,FALSE,"""event"",""trial"",""time""
""fullscreenenter"",""5"",""16590""
","
","
","""event"",""trial"",""time""
""fullscreenenter"",""5"",""16590""
","
",620.5649999901652,NA,48,NA,NA,3000,1,NA,NA,images/purpleplanet.jpg,images/alien4,images/alien3,images/rocket1,images/alien4,images/t.png,2,real,true,2,common,1,2020-06-10T03:43:23Z,sub51
two-step-fixation,227,663158,0.0-76.0-2.30,FALSE,FALSE,FALSE,FALSE,"""event"",""trial"",""time""
""fullscreenenter"",""5"",""16590""
","
","
","""event"",""trial"",""time""
""fullscreenenter"",""5"",""16590""
","
",NA,images/earth.jpg,NA,NA,NA,NA,NA,NA,NA,NA,NA,NA,NA,NA,NA,fixation,NA,NA,NA,NA,NA,NA,sub51
d3-animate-choice,228,666124,0.0-76.0-0.31,FALSE,FALSE,FALSE,FALSE,"""event"",""trial"",""time""
""fullscreenenter"",""5"",""16590""
","
","
","""event"",""trial"",""time""
""fullscreenenter"",""5"",""16590""
","
",959.6799999999348,NA,48,NA,NA,3000,1,NA,NA,images/earth.jpg,images/rocket1,images/rocket2,null,images/rocket1,NA,1,real,null,2,NA,NA,NA,sub51
d3-animate-choice,229,668610,0.0-76.0-1.31,FALSE,FALSE,FALSE,FALSE,"""event"",""trial"",""time""
""fullscreenenter"",""5"",""16590""
","
","
","""event"",""trial"",""time""
""fullscreenenter"",""5"",""16590""
","
",479.14499999023974,NA,48,NA,NA,3000,1,NA,NA,images/purpleplanet.jpg,images/alien4,images/alien3,images/rocket1,images/alien4,images/nothing.png,2,real,true,2,common,0,2020-06-10T03:43:30Z,sub51
two-step-fixation,230,669616,0.0-76.0-2.31,FALSE,FALSE,FALSE,FALSE,"""event"",""trial"",""time""
""fullscreenenter"",""5"",""16590""
","
","
","""event"",""trial"",""time""
""fullscreenenter"",""5"",""16590""
","
",NA,images/earth.jpg,NA,NA,NA,NA,NA,NA,NA,NA,NA,NA,NA,NA,NA,fixation,NA,NA,NA,NA,NA,NA,sub51
d3-animate-choice,231,672361,0.0-76.0-0.32,FALSE,FALSE,FALSE,FALSE,"""event"",""trial"",""time""
""fullscreenenter"",""5"",""16590""
","
","
","""event"",""trial"",""time""
""fullscreenenter"",""5"",""16590""
","
",737.2599999944214,NA,49,NA,NA,3000,1,NA,NA,images/earth.jpg,images/rocket1,images/rocket2,null,images/rocket2,NA,1,real,null,1,NA,NA,NA,sub51
d3-animate-choice,232,675124,0.0-76.0-1.32,FALSE,FALSE,FALSE,FALSE,"""event"",""trial"",""time""
""fullscreenenter"",""5"",""16590""
","
","
","""event"",""trial"",""time""
""fullscreenenter"",""5"",""16590""
","
",758.17499999539,NA,48,NA,NA,3000,1,NA,NA,images/redplanet1.jpg,images/alien2,images/alien1,images/rocket2,images/alien2,images/nothing.png,2,real,true,2,common,0,2020-06-10T03:43:36Z,sub51
two-step-fixation,233,676128,0.0-76.0-2.32,FALSE,FALSE,FALSE,FALSE,"""event"",""trial"",""time""
""fullscreenenter"",""5"",""16590""
","
","
","""event"",""trial"",""time""
""fullscreenenter"",""5"",""16590""
","
",NA,images/earth.jpg,NA,NA,NA,NA,NA,NA,NA,NA,NA,NA,NA,NA,NA,fixation,NA,NA,NA,NA,NA,NA,sub51
d3-animate-choice,234,678453,0.0-76.0-0.33,FALSE,FALSE,FALSE,FALSE,"""event"",""trial"",""time""
""fullscreenenter"",""5"",""16590""
","
","
","""event"",""trial"",""time""
""fullscreenenter"",""5"",""16590""
","
",319.87500000104774,NA,49,NA,NA,3000,1,NA,NA,images/earth.jpg,images/rocket1,images/rocket2,null,images/rocket2,NA,1,real,null,1,NA,NA,NA,sub51
d3-animate-choice,235,681083,0.0-76.0-1.33,FALSE,FALSE,FALSE,FALSE,"""event"",""trial"",""time""
""fullscreenenter"",""5"",""16590""
","
","
","""event"",""trial"",""time""
""fullscreenenter"",""5"",""16590""
","
",625.9649999992689,NA,49,NA,NA,3000,1,NA,NA,images/purpleplanet.jpg,images/alien4,images/alien3,images/rocket2,images/alien3,images/t.png,2,real,false,1,rare,1,2020-06-10T03:43:42Z,sub51
two-step-fixation,236,682091,0.0-76.0-2.33,FALSE,FALSE,FALSE,FALSE,"""event"",""trial"",""time""
""fullscreenenter"",""5"",""16590""
","
","
","""event"",""trial"",""time""
""fullscreenenter"",""5"",""16590""
","
",NA,images/earth.jpg,NA,NA,NA,NA,NA,NA,NA,NA,NA,NA,NA,NA,NA,fixation,NA,NA,NA,NA,NA,NA,sub51
d3-animate-choice,237,684616,0.0-76.0-0.34,FALSE,FALSE,FALSE,FALSE,"""event"",""trial"",""time""
""fullscreenenter"",""5"",""16590""
","
","
","""event"",""trial"",""time""
""fullscreenenter"",""5"",""16590""
","
",517.9449999995995,NA,48,NA,NA,3000,1,NA,NA,images/earth.jpg,images/rocket1,images/rocket2,null,images/rocket1,NA,1,real,null,2,NA,NA,NA,sub51
d3-animate-choice,238,687346,0.0-76.0-1.34,FALSE,FALSE,FALSE,FALSE,"""event"",""trial"",""time""
""fullscreenenter"",""5"",""16590""
","
","
","""event"",""trial"",""time""
""fullscreenenter"",""5"",""16590""
","
",726.4549999963492,NA,48,NA,NA,3000,1,NA,NA,images/redplanet1.jpg,images/alien2,images/alien1,images/rocket1,images/alien2,images/t.png,2,real,false,2,rare,1,2020-06-10T03:43:48Z,sub51
two-step-fixation,239,688350,0.0-76.0-2.34,FALSE,FALSE,FALSE,FALSE,"""event"",""trial"",""time""
""fullscreenenter"",""5"",""16590""
","
","
","""event"",""trial"",""time""
""fullscreenenter"",""5"",""16590""
","
",NA,images/earth.jpg,NA,NA,NA,NA,NA,NA,NA,NA,NA,NA,NA,NA,NA,fixation,NA,NA,NA,NA,NA,NA,sub51
d3-animate-choice,240,690738,0.0-76.0-0.35,FALSE,FALSE,FALSE,FALSE,"""event"",""trial"",""time""
""fullscreenenter"",""5"",""16590""
","
","
","""event"",""trial"",""time""
""fullscreenenter"",""5"",""16590""
","
",381.76499999826774,NA,48,NA,NA,3000,1,NA,NA,images/earth.jpg,images/rocket1,images/rocket2,null,images/rocket1,NA,1,real,null,2,NA,NA,NA,sub51
d3-animate-choice,241,694436,0.0-76.0-1.35,FALSE,FALSE,FALSE,FALSE,"""event"",""trial"",""time""
""fullscreenenter"",""5"",""16590""
","
","
","""event"",""trial"",""time""
""fullscreenenter"",""5"",""16590""
","
",1694.1550000046846,NA,49,NA,NA,3000,1,NA,NA,images/redplanet1.jpg,images/alien2,images/alien1,images/rocket1,images/alien1,images/nothing.png,2,real,false,1,rare,0,2020-06-10T03:43:55Z,sub51
two-step-fixation,242,695439,0.0-76.0-2.35,FALSE,FALSE,FALSE,FALSE,"""event"",""trial"",""time""
""fullscreenenter"",""5"",""16590""
","
","
","""event"",""trial"",""time""
""fullscreenenter"",""5"",""16590""
","
",NA,images/earth.jpg,NA,NA,NA,NA,NA,NA,NA,NA,NA,NA,NA,NA,NA,fixation,NA,NA,NA,NA,NA,NA,sub51
d3-animate-choice,243,697917,0.0-76.0-0.36,FALSE,FALSE,FALSE,FALSE,"""event"",""trial"",""time""
""fullscreenenter"",""5"",""16590""
","
","
","""event"",""trial"",""time""
""fullscreenenter"",""5"",""16590""
","
",472.40500000771135,NA,48,NA,NA,3000,1,NA,NA,images/earth.jpg,images/rocket1,images/rocket2,null,images/rocket1,NA,1,real,null,2,NA,NA,NA,sub51
d3-animate-choice,244,700461,0.0-76.0-1.36,FALSE,FALSE,FALSE,FALSE,"""event"",""trial"",""time""
""fullscreenenter"",""5"",""16590""
","
","
","""event"",""trial"",""time""
""fullscreenenter"",""5"",""16590""
","
",538.0149999982677,NA,48,NA,NA,3000,1,NA,NA,images/purpleplanet.jpg,images/alien4,images/alien3,images/rocket1,images/alien4,images/nothing.png,2,real,true,2,common,0,2020-06-10T03:44:02Z,sub51
two-step-fixation,245,701467,0.0-76.0-2.36,FALSE,FALSE,FALSE,FALSE,"""event"",""trial"",""time""
""fullscreenenter"",""5"",""16590""
","
","
","""event"",""trial"",""time""
""fullscreenenter"",""5"",""16590""
","
",NA,images/earth.jpg,NA,NA,NA,NA,NA,NA,NA,NA,NA,NA,NA,NA,NA,fixation,NA,NA,NA,NA,NA,NA,sub51
d3-animate-choice,246,703778,0.0-76.0-0.37,FALSE,FALSE,FALSE,FALSE,"""event"",""trial"",""time""
""fullscreenenter"",""5"",""16590""
","
","
","""event"",""trial"",""time""
""fullscreenenter"",""5"",""16590""
","
",305.48999999882653,NA,49,NA,NA,3000,1,NA,NA,images/earth.jpg,images/rocket1,images/rocket2,null,images/rocket2,NA,1,real,null,1,NA,NA,NA,sub51
d3-animate-choice,247,706192,0.0-76.0-1.37,FALSE,FALSE,FALSE,FALSE,"""event"",""trial"",""time""
""fullscreenenter"",""5"",""16590""
","
","
","""event"",""trial"",""time""
""fullscreenenter"",""5"",""16590""
","
",407.4300000065705,NA,48,NA,NA,3000,1,NA,NA,images/redplanet1.jpg,images/alien2,images/alien1,images/rocket2,images/alien2,images/nothing.png,2,real,true,2,common,0,2020-06-10T03:44:07Z,sub51
two-step-fixation,248,707200,0.0-76.0-2.37,FALSE,FALSE,FALSE,FALSE,"""event"",""trial"",""time""
""fullscreenenter"",""5"",""16590""
","
","
","""event"",""trial"",""time""
""fullscreenenter"",""5"",""16590""
","
",NA,images/earth.jpg,NA,NA,NA,NA,NA,NA,NA,NA,NA,NA,NA,NA,NA,fixation,NA,NA,NA,NA,NA,NA,sub51
d3-animate-choice,249,709825,0.0-76.0-0.38,FALSE,FALSE,FALSE,FALSE,"""event"",""trial"",""time""
""fullscreenenter"",""5"",""16590""
","
","
","""event"",""trial"",""time""
""fullscreenenter"",""5"",""16590""
","
",617.4800000007963,NA,48,NA,NA,3000,1,NA,NA,images/earth.jpg,images/rocket1,images/rocket2,null,images/rocket1,NA,1,real,null,2,NA,NA,NA,sub51
d3-animate-choice,250,712186,0.0-76.0-1.38,FALSE,FALSE,FALSE,FALSE,"""event"",""trial"",""time""
""fullscreenenter"",""5"",""16590""
","
","
","""event"",""trial"",""time""
""fullscreenenter"",""5"",""16590""
","
",356.0200000065379,NA,49,NA,NA,3000,1,NA,NA,images/purpleplanet.jpg,images/alien4,images/alien3,images/rocket1,images/alien3,images/t.png,2,real,true,1,common,1,2020-06-10T03:44:13Z,sub51
two-step-fixation,251,713191,0.0-76.0-2.38,FALSE,FALSE,FALSE,FALSE,"""event"",""trial"",""time""
""fullscreenenter"",""5"",""16590""
","
","
","""event"",""trial"",""time""
""fullscreenenter"",""5"",""16590""
","
",NA,images/earth.jpg,NA,NA,NA,NA,NA,NA,NA,NA,NA,NA,NA,NA,NA,fixation,NA,NA,NA,NA,NA,NA,sub51
d3-animate-choice,252,715657,0.0-76.0-0.39,FALSE,FALSE,FALSE,FALSE,"""event"",""trial"",""time""
""fullscreenenter"",""5"",""16590""
","
","
","""event"",""trial"",""time""
""fullscreenenter"",""5"",""16590""
","
",458.6799999960931,NA,48,NA,NA,3000,1,NA,NA,images/earth.jpg,images/rocket1,images/rocket2,null,images/rocket1,NA,1,real,null,2,NA,NA,NA,sub51
d3-animate-choice,253,718463,0.0-76.0-1.39,FALSE,FALSE,FALSE,FALSE,"""event"",""trial"",""time""
""fullscreenenter"",""5"",""16590""
","
","
","""event"",""trial"",""time""
""fullscreenenter"",""5"",""16590""
","
",800.9999999922002,NA,49,NA,NA,3000,1,NA,NA,images/purpleplanet.jpg,images/alien4,images/alien3,images/rocket1,images/alien3,images/nothing.png,2,real,true,1,common,0,2020-06-10T03:44:20Z,sub51
two-step-fixation,254,719468,0.0-76.0-2.39,FALSE,FALSE,FALSE,FALSE,"""event"",""trial"",""time""
""fullscreenenter"",""5"",""16590""
","
","
","""event"",""trial"",""time""
""fullscreenenter"",""5"",""16590""
","
",NA,images/earth.jpg,NA,NA,NA,NA,NA,NA,NA,NA,NA,NA,NA,NA,NA,fixation,NA,NA,NA,NA,NA,NA,sub51
d3-animate-choice,255,721681,0.0-76.0-0.40,FALSE,FALSE,FALSE,FALSE,"""event"",""trial"",""time""
""fullscreenenter"",""5"",""16590""
","
","
","""event"",""trial"",""time""
""fullscreenenter"",""5"",""16590""
","
",207.84000000276137,NA,49,NA,NA,3000,1,1037.4449999944773,49,images/earth.jpg,images/rocket1,images/rocket2,null,images/rocket2,NA,1,real,null,1,NA,NA,NA,sub51
d3-animate-choice,256,724289,0.0-76.0-1.40,FALSE,FALSE,FALSE,FALSE,"""event"",""trial"",""time""
""fullscreenenter"",""5"",""16590""
","
","
","""event"",""trial"",""time""
""fullscreenenter"",""5"",""16590""
","
",603.5049999918556,NA,48,NA,NA,3000,1,NA,NA,images/redplanet1.jpg,images/alien2,images/alien1,images/rocket2,images/alien2,images/t.png,2,real,true,2,common,1,2020-06-10T03:44:25Z,sub51
two-step-fixation,257,725295,0.0-76.0-2.40,FALSE,FALSE,FALSE,FALSE,"""event"",""trial"",""time""
""fullscreenenter"",""5"",""16590""
","
","
","""event"",""trial"",""time""
""fullscreenenter"",""5"",""16590""
","
",NA,images/earth.jpg,NA,NA,NA,NA,NA,NA,NA,NA,NA,NA,NA,NA,NA,fixation,NA,NA,NA,NA,NA,NA,sub51
d3-animate-choice,258,727829,0.0-76.0-0.41,FALSE,FALSE,FALSE,FALSE,"""event"",""trial"",""time""
""fullscreenenter"",""5"",""16590""
","
","
","""event"",""trial"",""time""
""fullscreenenter"",""5"",""16590""
","
",527.1000000066124,NA,48,NA,NA,3000,1,NA,NA,images/earth.jpg,images/rocket1,images/rocket2,null,images/rocket1,NA,1,real,null,2,NA,NA,NA,sub51
d3-animate-choice,259,730514,0.0-76.0-1.41,FALSE,FALSE,FALSE,FALSE,"""event"",""trial"",""time""
""fullscreenenter"",""5"",""16590""
","
","
","""event"",""trial"",""time""
""fullscreenenter"",""5"",""16590""
","
",677.8300000005402,NA,48,NA,NA,3000,1,NA,NA,images/purpleplanet.jpg,images/alien4,images/alien3,images/rocket1,images/alien4,images/nothing.png,2,real,true,2,common,0,2020-06-10T03:44:32Z,sub51
two-step-fixation,260,731518,0.0-76.0-2.41,FALSE,FALSE,FALSE,FALSE,"""event"",""trial"",""time""
""fullscreenenter"",""5"",""16590""
","
","
","""event"",""trial"",""time""
""fullscreenenter"",""5"",""16590""
","
",NA,images/earth.jpg,NA,NA,NA,NA,NA,NA,NA,NA,NA,NA,NA,NA,NA,fixation,NA,NA,NA,NA,NA,NA,sub51
d3-animate-choice,261,733618,0.0-76.0-0.42,FALSE,FALSE,FALSE,FALSE,"""event"",""trial"",""time""
""fullscreenenter"",""5"",""16590""
","
","
","""event"",""trial"",""time""
""fullscreenenter"",""5"",""16590""
","
",93.86500000255182,NA,49,NA,NA,3000,1,NA,NA,images/earth.jpg,images/rocket1,images/rocket2,null,images/rocket2,NA,1,real,null,1,NA,NA,NA,sub51
d3-animate-choice,262,736107,0.0-76.0-1.42,FALSE,FALSE,FALSE,FALSE,"""event"",""trial"",""time""
""fullscreenenter"",""5"",""16590""
","
","
","""event"",""trial"",""time""
""fullscreenenter"",""5"",""16590""
","
",484.03000000689644,NA,48,NA,NA,3000,1,NA,NA,images/redplanet1.jpg,images/alien2,images/alien1,images/rocket2,images/alien2,images/t.png,2,real,true,2,common,1,2020-06-10T03:44:37Z,sub51
two-step-fixation,263,737111,0.0-76.0-2.42,FALSE,FALSE,FALSE,FALSE,"""event"",""trial"",""time""
""fullscreenenter"",""5"",""16590""
","
","
","""event"",""trial"",""time""
""fullscreenenter"",""5"",""16590""
","
",NA,images/earth.jpg,NA,NA,NA,NA,NA,NA,NA,NA,NA,NA,NA,NA,NA,fixation,NA,NA,NA,NA,NA,NA,sub51
d3-animate-choice,264,739516,0.0-76.0-0.43,FALSE,FALSE,FALSE,FALSE,"""event"",""trial"",""time""
""fullscreenenter"",""5"",""16590""
","
","
","""event"",""trial"",""time""
""fullscreenenter"",""5"",""16590""
","
",398.5849999880884,NA,48,NA,NA,3000,1,NA,NA,images/earth.jpg,images/rocket1,images/rocket2,null,images/rocket1,NA,1,real,null,2,NA,NA,NA,sub51
d3-animate-choice,265,741951,0.0-76.0-1.43,FALSE,FALSE,FALSE,FALSE,"""event"",""trial"",""time""
""fullscreenenter"",""5"",""16590""
","
","
","""event"",""trial"",""time""
""fullscreenenter"",""5"",""16590""
","
",427.9850000020815,NA,49,NA,NA,3000,1,NA,NA,images/purpleplanet.jpg,images/alien4,images/alien3,images/rocket1,images/alien3,images/nothing.png,2,real,true,1,common,0,2020-06-10T03:44:43Z,sub51
two-step-fixation,266,742957,0.0-76.0-2.43,FALSE,FALSE,FALSE,FALSE,"""event"",""trial"",""time""
""fullscreenenter"",""5"",""16590""
","
","
","""event"",""trial"",""time""
""fullscreenenter"",""5"",""16590""
","
",NA,images/earth.jpg,NA,NA,NA,NA,NA,NA,NA,NA,NA,NA,NA,NA,NA,fixation,NA,NA,NA,NA,NA,NA,sub51
d3-animate-choice,267,745513,0.0-76.0-0.44,FALSE,FALSE,FALSE,FALSE,"""event"",""trial"",""time""
""fullscreenenter"",""5"",""16590""
","
","
","""event"",""trial"",""time""
""fullscreenenter"",""5"",""16590""
","
",548.9550000056624,NA,48,NA,NA,3000,1,NA,NA,images/earth.jpg,images/rocket1,images/rocket2,null,images/rocket1,NA,1,real,null,2,NA,NA,NA,sub51
d3-animate-choice,268,748060,0.0-76.0-1.44,FALSE,FALSE,FALSE,FALSE,"""event"",""trial"",""time""
""fullscreenenter"",""5"",""16590""
","
","
","""event"",""trial"",""time""
""fullscreenenter"",""5"",""16590""
","
",541.1999999923864,NA,48,NA,NA,3000,1,NA,NA,images/purpleplanet.jpg,images/alien4,images/alien3,images/rocket1,images/alien4,images/t.png,2,real,true,2,common,1,2020-06-10T03:44:49Z,sub51
two-step-fixation,269,749064,0.0-76.0-2.44,FALSE,FALSE,FALSE,FALSE,"""event"",""trial"",""time""
""fullscreenenter"",""5"",""16590""
","
","
","""event"",""trial"",""time""
""fullscreenenter"",""5"",""16590""
","
",NA,images/earth.jpg,NA,NA,NA,NA,NA,NA,NA,NA,NA,NA,NA,NA,NA,fixation,NA,NA,NA,NA,NA,NA,sub51
d3-animate-choice,270,751591,0.0-76.0-0.45,FALSE,FALSE,FALSE,FALSE,"""event"",""trial"",""time""
""fullscreenenter"",""5"",""16590""
","
","
","""event"",""trial"",""time""
""fullscreenenter"",""5"",""16590""
","
",517.2449999954551,NA,48,NA,NA,3000,1,NA,NA,images/earth.jpg,images/rocket1,images/rocket2,null,images/rocket1,NA,1,real,null,2,NA,NA,NA,sub51
d3-animate-choice,271,754764,0.0-76.0-1.45,FALSE,FALSE,FALSE,FALSE,"""event"",""trial"",""time""
""fullscreenenter"",""5"",""16590""
","
","
","""event"",""trial"",""time""
""fullscreenenter"",""5"",""16590""
","
",1167.010000004666,NA,48,NA,NA,3000,1,NA,NA,images/purpleplanet.jpg,images/alien4,images/alien3,images/rocket1,images/alien4,images/t.png,2,real,true,2,common,1,2020-06-10T03:44:56Z,sub51
two-step-fixation,272,755770,0.0-76.0-2.45,FALSE,FALSE,FALSE,FALSE,"""event"",""trial"",""time""
""fullscreenenter"",""5"",""16590""
","
","
","""event"",""trial"",""time""
""fullscreenenter"",""5"",""16590""
","
",NA,images/earth.jpg,NA,NA,NA,NA,NA,NA,NA,NA,NA,NA,NA,NA,NA,fixation,NA,NA,NA,NA,NA,NA,sub51
d3-animate-choice,273,758057,0.0-76.0-0.46,FALSE,FALSE,FALSE,FALSE,"""event"",""trial"",""time""
""fullscreenenter"",""5"",""16590""
","
","
","""event"",""trial"",""time""
""fullscreenenter"",""5"",""16590""
","
",283.16999999515247,NA,48,NA,NA,3000,1,2260.7500000012806,48,images/earth.jpg,images/rocket1,images/rocket2,null,images/rocket1,NA,1,real,null,2,NA,NA,NA,sub51
d3-animate-choice,274,761038,0.0-76.0-1.46,FALSE,FALSE,FALSE,FALSE,"""event"",""trial"",""time""
""fullscreenenter"",""5"",""16590""
","
","
","""event"",""trial"",""time""
""fullscreenenter"",""5"",""16590""
","
