trial_type,trial_index,time_elapsed,internal_node_id,rocket_sides,red_planet_first_rocket,red_display_order,purple_display_order,interactions,blur_events,focus_events,fullscreenenter_events,fullscreenexit_events,rt,stimulus,key_press,button_pressed,success,duration,valid_pressed,rts,keys,planet_text,right_text,left_text,center_text,chosen_text,reward_text,trial_stage,practice_trial,transition_type,choice,transition,reward,timestamp,subject_id
pavlovia,0,4,0.0-0.0,TRUE,FALSE,FALSE,TRUE,"
","
","
","
","
",NA,NA,NA,NA,NA,NA,NA,NA,NA,NA,NA,NA,NA,NA,NA,NA,NA,NA,NA,NA,NA,NA,sub36
html-keyboard-response,1,1620,0.0-1.0,TRUE,FALSE,FALSE,TRUE,"
","
","
","
","
",1613.4499999461696,Welcome! Press the space bar to begin.,32,NA,NA,NA,NA,NA,NA,NA,NA,NA,NA,NA,NA,NA,NA,NA,NA,NA,NA,NA,sub36
audio-keyboard-response,2,5858,0.0-2.0,TRUE,FALSE,FALSE,TRUE,"
","
","
","
","
",4069,audio/beep_loop.wav,32,NA,NA,NA,NA,NA,NA,NA,NA,NA,NA,NA,NA,NA,NA,NA,NA,NA,NA,NA,sub36
audio-button-response,3,13235,0.0-3.0,TRUE,FALSE,FALSE,TRUE,"
","
","
","
","
",NaN,audio/fish.mp3,NA,1,NA,NA,NA,NA,NA,NA,NA,NA,NA,NA,NA,NA,NA,NA,NA,NA,NA,NA,sub36
audio-button-response,4,17435,0.0-4.0,TRUE,FALSE,FALSE,TRUE,"""event"",""trial"",""time""
""fullscreenenter"",""5"",""26306""
","
","
","""event"",""trial"",""time""
""fullscreenenter"",""5"",""26306""
","
",NaN,audio/tiger.mp3,NA,4,NA,NA,NA,NA,NA,NA,NA,NA,NA,NA,NA,NA,NA,NA,NA,NA,NA,NA,sub36
fullscreen,5,27286,0.0-5.0,TRUE,FALSE,FALSE,TRUE,"""event"",""trial"",""time""
""fullscreenenter"",""5"",""26306""
""fullscreenexit"",""6"",""38519""
""blur"",""6"",""40760""
""focus"",""6"",""42694""
","""event"",""trial"",""time""
""blur"",""6"",""40760""
","""event"",""trial"",""time""
""focus"",""6"",""42694""
","""event"",""trial"",""time""
""fullscreenenter"",""5"",""26306""
","""event"",""trial"",""time""
""fullscreenexit"",""6"",""38519""
",NA,NA,NA,NA,TRUE,NA,NA,NA,NA,NA,NA,NA,NA,NA,NA,NA,NA,NA,NA,NA,NA,NA,sub36
d3-instructions,6,45233,0.0-6.0,TRUE,FALSE,FALSE,TRUE,"""event"",""trial"",""time""
""fullscreenenter"",""5"",""26306""
""fullscreenexit"",""6"",""38519""
""blur"",""6"",""40760""
""focus"",""6"",""42694""
","""event"",""trial"",""time""
""blur"",""6"",""40760""
","""event"",""trial"",""time""
""focus"",""6"",""42694""
","""event"",""trial"",""time""
""fullscreenenter"",""5"",""26306""
","""event"",""trial"",""time""
""fullscreenexit"",""6"",""38519""
",NA,NA,NA,NA,NA,NA,NA,NA,NA,NA,NA,NA,NA,NA,NA,NA,NA,NA,NA,NA,NA,NA,sub36
d3-instructions,7,55182,0.0-7.0,TRUE,FALSE,FALSE,TRUE,"""event"",""trial"",""time""
""fullscreenenter"",""5"",""26306""
""fullscreenexit"",""6"",""38519""
""blur"",""6"",""40760""
""focus"",""6"",""42694""
","""event"",""trial"",""time""
""blur"",""6"",""40760""
","""event"",""trial"",""time""
""focus"",""6"",""42694""
","""event"",""trial"",""time""
""fullscreenenter"",""5"",""26306""
","""event"",""trial"",""time""
""fullscreenexit"",""6"",""38519""
",NA,NA,NA,NA,NA,NA,NA,NA,NA,NA,NA,NA,NA,NA,NA,NA,NA,NA,NA,NA,NA,NA,sub36
d3-instructions,8,64198,0.0-8.0,TRUE,FALSE,FALSE,TRUE,"""event"",""trial"",""time""
""fullscreenenter"",""5"",""26306""
""fullscreenexit"",""6"",""38519""
""blur"",""6"",""40760""
""focus"",""6"",""42694""
","""event"",""trial"",""time""
""blur"",""6"",""40760""
","""event"",""trial"",""time""
""focus"",""6"",""42694""
","""event"",""trial"",""time""
""fullscreenenter"",""5"",""26306""
","""event"",""trial"",""time""
""fullscreenexit"",""6"",""38519""
",NA,NA,NA,NA,NA,NA,NA,NA,NA,NA,NA,NA,NA,NA,NA,NA,NA,NA,NA,NA,NA,NA,sub36
d3-instructions,9,77350,0.0-9.0,TRUE,FALSE,FALSE,TRUE,"""event"",""trial"",""time""
""fullscreenenter"",""5"",""26306""
""fullscreenexit"",""6"",""38519""
""blur"",""6"",""40760""
""focus"",""6"",""42694""
","""event"",""trial"",""time""
""blur"",""6"",""40760""
","""event"",""trial"",""time""
""focus"",""6"",""42694""
","""event"",""trial"",""time""
""fullscreenenter"",""5"",""26306""
","""event"",""trial"",""time""
""fullscreenexit"",""6"",""38519""
",NA,NA,NA,NA,NA,NA,NA,NA,NA,NA,NA,NA,NA,NA,NA,NA,NA,NA,NA,NA,NA,NA,sub36
d3-instructions,10,107744,0.0-10.0,TRUE,FALSE,FALSE,TRUE,"""event"",""trial"",""time""
""fullscreenenter"",""5"",""26306""
""fullscreenexit"",""6"",""38519""
""blur"",""6"",""40760""
""focus"",""6"",""42694""
","""event"",""trial"",""time""
""blur"",""6"",""40760""
","""event"",""trial"",""time""
""focus"",""6"",""42694""
","""event"",""trial"",""time""
""fullscreenenter"",""5"",""26306""
","""event"",""trial"",""time""
""fullscreenexit"",""6"",""38519""
",NA,NA,NA,NA,NA,NA,NA,NA,NA,NA,NA,NA,NA,NA,NA,NA,NA,NA,NA,NA,NA,NA,sub36
d3-animate-choice,11,113860,0.0-11.0,TRUE,FALSE,FALSE,TRUE,"""event"",""trial"",""time""
""fullscreenenter"",""5"",""26306""
""fullscreenexit"",""6"",""38519""
""blur"",""6"",""40760""
""focus"",""6"",""42694""
","""event"",""trial"",""time""
""blur"",""6"",""40760""
","""event"",""trial"",""time""
""focus"",""6"",""42694""
","""event"",""trial"",""time""
""fullscreenenter"",""5"",""26306""
","""event"",""trial"",""time""
""fullscreenexit"",""6"",""38519""
",4095.7150000031106,NA,49,NA,NA,3000,1,NA,NA,images/tutgreenplanet.jpg,images/tutalien1,images/tutalien2,null,images/tutalien2,NA,NA,practice,null,NA,NA,NA,NA,sub36
d3-animate-choice,12,122028,0.0-12.0,TRUE,FALSE,FALSE,TRUE,"""event"",""trial"",""time""
""fullscreenenter"",""5"",""26306""
""fullscreenexit"",""6"",""38519""
""blur"",""6"",""40760""
""focus"",""6"",""42694""
","""event"",""trial"",""time""
""blur"",""6"",""40760""
","""event"",""trial"",""time""
""focus"",""6"",""42694""
","""event"",""trial"",""time""
""fullscreenenter"",""5"",""26306""
","""event"",""trial"",""time""
""fullscreenexit"",""6"",""38519""
",2276.7100000055507,NA,96,NA,NA,3000,1,"3813.434999960009,4499.985000002198,4660.860000003595,4788.639999984298,4971.909999963827,5156.669999996666,5301.0099999955855,5436.654999968596,6156.62500000326",969696969696969600,images/tutgreenplanet.jpg,images/tutalien1,images/tutalien2,null,images/tutalien1,NA,NA,practice,null,NA,NA,NA,NA,sub36
d3-animate-choice,13,125330,0.0-13.0,TRUE,FALSE,FALSE,TRUE,"""event"",""trial"",""time""
""fullscreenenter"",""5"",""26306""
""fullscreenexit"",""6"",""38519""
""blur"",""6"",""40760""
""focus"",""6"",""42694""
","""event"",""trial"",""time""
""blur"",""6"",""40760""
","""event"",""trial"",""time""
""focus"",""6"",""42694""
","""event"",""trial"",""time""
""fullscreenenter"",""5"",""26306""
","""event"",""trial"",""time""
""fullscreenexit"",""6"",""38519""
",1294.2299999995157,NA,49,NA,NA,3000,1,3038.4699999704026,48,images/tutgreenplanet.jpg,images/tutalien1,images/tutalien2,null,images/tutalien2,NA,NA,practice,null,NA,NA,NA,NA,sub36
d3-animate-choice,14,127803,0.0-14.0,TRUE,FALSE,FALSE,TRUE,"""event"",""trial"",""time""
""fullscreenenter"",""5"",""26306""
""fullscreenexit"",""6"",""38519""
""blur"",""6"",""40760""
""focus"",""6"",""42694""
","""event"",""trial"",""time""
""blur"",""6"",""40760""
","""event"",""trial"",""time""
""focus"",""6"",""42694""
","""event"",""trial"",""time""
""fullscreenenter"",""5"",""26306""
","""event"",""trial"",""time""
""fullscreenexit"",""6"",""38519""
",464.6599999978207,NA,48,NA,NA,3000,1,2057.1099999942817,49,images/tutgreenplanet.jpg,images/tutalien1,images/tutalien2,null,images/tutalien1,NA,NA,practice,null,NA,NA,NA,NA,sub36
d3-instructions,15,135712,0.0-15.0,TRUE,FALSE,FALSE,TRUE,"""event"",""trial"",""time""
""fullscreenenter"",""5"",""26306""
""fullscreenexit"",""6"",""38519""
""blur"",""6"",""40760""
""focus"",""6"",""42694""
","""event"",""trial"",""time""
""blur"",""6"",""40760""
","""event"",""trial"",""time""
""focus"",""6"",""42694""
","""event"",""trial"",""time""
""fullscreenenter"",""5"",""26306""
","""event"",""trial"",""time""
""fullscreenexit"",""6"",""38519""
",NA,NA,NA,NA,NA,NA,NA,NA,NA,NA,NA,NA,NA,NA,NA,NA,NA,NA,NA,NA,NA,NA,sub36
d3-instructions,16,144944,0.0-16.0,TRUE,FALSE,FALSE,TRUE,"""event"",""trial"",""time""
""fullscreenenter"",""5"",""26306""
""fullscreenexit"",""6"",""38519""
""blur"",""6"",""40760""
""focus"",""6"",""42694""
","""event"",""trial"",""time""
""blur"",""6"",""40760""
","""event"",""trial"",""time""
""focus"",""6"",""42694""
","""event"",""trial"",""time""
""fullscreenenter"",""5"",""26306""
","""event"",""trial"",""time""
""fullscreenexit"",""6"",""38519""
",NA,NA,NA,NA,NA,NA,NA,NA,NA,NA,NA,NA,NA,NA,NA,NA,NA,NA,NA,NA,NA,NA,sub36
d3-instructions,17,154608,0.0-17.0,TRUE,FALSE,FALSE,TRUE,"""event"",""trial"",""time""
""fullscreenenter"",""5"",""26306""
""fullscreenexit"",""6"",""38519""
""blur"",""6"",""40760""
""focus"",""6"",""42694""
","""event"",""trial"",""time""
""blur"",""6"",""40760""
","""event"",""trial"",""time""
""focus"",""6"",""42694""
","""event"",""trial"",""time""
""fullscreenenter"",""5"",""26306""
","""event"",""trial"",""time""
""fullscreenexit"",""6"",""38519""
",NA,NA,NA,NA,NA,NA,NA,NA,NA,NA,NA,NA,NA,NA,NA,NA,NA,NA,NA,NA,NA,NA,sub36
d3-instructions,18,168935,0.0-18.0,TRUE,FALSE,FALSE,TRUE,"""event"",""trial"",""time""
""fullscreenenter"",""5"",""26306""
""fullscreenexit"",""6"",""38519""
""blur"",""6"",""40760""
""focus"",""6"",""42694""
","""event"",""trial"",""time""
""blur"",""6"",""40760""
","""event"",""trial"",""time""
""focus"",""6"",""42694""
","""event"",""trial"",""time""
""fullscreenenter"",""5"",""26306""
","""event"",""trial"",""time""
""fullscreenexit"",""6"",""38519""
",NA,NA,NA,NA,NA,NA,NA,NA,NA,NA,NA,NA,NA,NA,NA,NA,NA,NA,NA,NA,NA,NA,sub36
d3-instructions,19,183096,0.0-19.0,TRUE,FALSE,FALSE,TRUE,"""event"",""trial"",""time""
""fullscreenenter"",""5"",""26306""
""fullscreenexit"",""6"",""38519""
""blur"",""6"",""40760""
""focus"",""6"",""42694""
","""event"",""trial"",""time""
""blur"",""6"",""40760""
","""event"",""trial"",""time""
""focus"",""6"",""42694""
","""event"",""trial"",""time""
""fullscreenenter"",""5"",""26306""
","""event"",""trial"",""time""
""fullscreenexit"",""6"",""38519""
",NA,NA,NA,NA,NA,NA,NA,NA,NA,NA,NA,NA,NA,NA,NA,NA,NA,NA,NA,NA,NA,NA,sub36
d3-animate-choice,20,186274,0.0-20.0,TRUE,FALSE,FALSE,TRUE,"""event"",""trial"",""time""
""fullscreenenter"",""5"",""26306""
""fullscreenexit"",""6"",""38519""
""blur"",""6"",""40760""
""focus"",""6"",""42694""
","""event"",""trial"",""time""
""blur"",""6"",""40760""
","""event"",""trial"",""time""
""focus"",""6"",""42694""
","""event"",""trial"",""time""
""fullscreenenter"",""5"",""26306""
","""event"",""trial"",""time""
""fullscreenexit"",""6"",""38519""
",1167.2600000165403,NA,49,NA,NA,3000,1,NA,NA,images/tutyellowplanet.jpg,null,images/tutalien3,null,images/tutalien3,images/t.png,NA,practice,null,NA,NA,NA,NA,sub36
d3-animate-choice,21,188985,0.0-21.0,TRUE,FALSE,FALSE,TRUE,"""event"",""trial"",""time""
""fullscreenenter"",""5"",""26306""
""fullscreenexit"",""6"",""38519""
""blur"",""6"",""40760""
""focus"",""6"",""42694""
","""event"",""trial"",""time""
""blur"",""6"",""40760""
","""event"",""trial"",""time""
""focus"",""6"",""42694""
","""event"",""trial"",""time""
""fullscreenenter"",""5"",""26306""
","""event"",""trial"",""time""
""fullscreenexit"",""6"",""38519""
",704.7100000199862,NA,49,NA,NA,3000,1,NA,NA,images/tutyellowplanet.jpg,null,images/tutalien3,null,images/tutalien3,images/nothing.png,NA,practice,null,NA,NA,NA,NA,sub36
d3-animate-choice,22,191569,0.0-22.0,TRUE,FALSE,FALSE,TRUE,"""event"",""trial"",""time""
""fullscreenenter"",""5"",""26306""
""fullscreenexit"",""6"",""38519""
""blur"",""6"",""40760""
""focus"",""6"",""42694""
","""event"",""trial"",""time""
""blur"",""6"",""40760""
","""event"",""trial"",""time""
""focus"",""6"",""42694""
","""event"",""trial"",""time""
""fullscreenenter"",""5"",""26306""
","""event"",""trial"",""time""
""fullscreenexit"",""6"",""38519""
",578.429999994114,NA,49,NA,NA,3000,1,2306.3700000056997,49,images/tutyellowplanet.jpg,null,images/tutalien3,null,images/tutalien3,images/t.png,NA,practice,null,NA,NA,NA,NA,sub36
d3-animate-choice,23,193978,0.0-23.0,TRUE,FALSE,FALSE,TRUE,"""event"",""trial"",""time""
""fullscreenenter"",""5"",""26306""
""fullscreenexit"",""6"",""38519""
""blur"",""6"",""40760""
""focus"",""6"",""42694""
","""event"",""trial"",""time""
""blur"",""6"",""40760""
","""event"",""trial"",""time""
""focus"",""6"",""42694""
","""event"",""trial"",""time""
""fullscreenenter"",""5"",""26306""
","""event"",""trial"",""time""
""fullscreenexit"",""6"",""38519""
",401.4549999847077,NA,49,NA,NA,3000,1,NA,NA,images/tutyellowplanet.jpg,null,images/tutalien3,null,images/tutalien3,images/nothing.png,NA,practice,null,NA,NA,NA,NA,sub36
d3-animate-choice,24,196044,0.0-24.0,TRUE,FALSE,FALSE,TRUE,"""event"",""trial"",""time""
""fullscreenenter"",""5"",""26306""
""fullscreenexit"",""6"",""38519""
""blur"",""6"",""40760""
""focus"",""6"",""42694""
","""event"",""trial"",""time""
""blur"",""6"",""40760""
","""event"",""trial"",""time""
""focus"",""6"",""42694""
","""event"",""trial"",""time""
""fullscreenenter"",""5"",""26306""
","""event"",""trial"",""time""
""fullscreenexit"",""6"",""38519""
",57.56499996641651,NA,49,NA,NA,3000,1,NA,NA,images/tutyellowplanet.jpg,null,images/tutalien3,null,images/tutalien3,images/t.png,NA,practice,null,NA,NA,NA,NA,sub36
d3-animate-choice,25,198425,0.0-25.0,TRUE,FALSE,FALSE,TRUE,"""event"",""trial"",""time""
""fullscreenenter"",""5"",""26306""
""fullscreenexit"",""6"",""38519""
""blur"",""6"",""40760""
""focus"",""6"",""42694""
","""event"",""trial"",""time""
""blur"",""6"",""40760""
","""event"",""trial"",""time""
""focus"",""6"",""42694""
","""event"",""trial"",""time""
""fullscreenenter"",""5"",""26306""
","""event"",""trial"",""time""
""fullscreenexit"",""6"",""38519""
",374.4149999693036,NA,49,NA,NA,3000,1,NA,NA,images/tutyellowplanet.jpg,null,images/tutalien3,null,images/tutalien3,images/t.png,NA,practice,null,NA,NA,NA,NA,sub36
d3-animate-choice,26,200873,0.0-26.0,TRUE,FALSE,FALSE,TRUE,"""event"",""trial"",""time""
""fullscreenenter"",""5"",""26306""
""fullscreenexit"",""6"",""38519""
""blur"",""6"",""40760""
""focus"",""6"",""42694""
","""event"",""trial"",""time""
""blur"",""6"",""40760""
","""event"",""trial"",""time""
""focus"",""6"",""42694""
","""event"",""trial"",""time""
""fullscreenenter"",""5"",""26306""
","""event"",""trial"",""time""
""fullscreenexit"",""6"",""38519""
",441.81500002741814,NA,49,NA,NA,3000,1,NA,NA,images/tutyellowplanet.jpg,null,images/tutalien3,null,images/tutalien3,images/nothing.png,NA,practice,null,NA,NA,NA,NA,sub36
d3-animate-choice,27,203321,0.0-27.0,TRUE,FALSE,FALSE,TRUE,"""event"",""trial"",""time""
""fullscreenenter"",""5"",""26306""
""fullscreenexit"",""6"",""38519""
""blur"",""6"",""40760""
""focus"",""6"",""42694""
","""event"",""trial"",""time""
""blur"",""6"",""40760""
","""event"",""trial"",""time""
""focus"",""6"",""42694""
","""event"",""trial"",""time""
""fullscreenenter"",""5"",""26306""
","""event"",""trial"",""time""
""fullscreenexit"",""6"",""38519""
",442.2449999838136,NA,49,NA,NA,3000,1,NA,NA,images/tutyellowplanet.jpg,null,images/tutalien3,null,images/tutalien3,images/t.png,NA,practice,null,NA,NA,NA,NA,sub36
d3-animate-choice,28,205762,0.0-28.0,TRUE,FALSE,FALSE,TRUE,"""event"",""trial"",""time""
""fullscreenenter"",""5"",""26306""
""fullscreenexit"",""6"",""38519""
""blur"",""6"",""40760""
""focus"",""6"",""42694""
","""event"",""trial"",""time""
""blur"",""6"",""40760""
","""event"",""trial"",""time""
""focus"",""6"",""42694""
","""event"",""trial"",""time""
""fullscreenenter"",""5"",""26306""
","""event"",""trial"",""time""
""fullscreenexit"",""6"",""38519""
",434.5200000097975,NA,49,NA,NA,3000,1,2210.8949999674223,49,images/tutyellowplanet.jpg,null,images/tutalien3,null,images/tutalien3,images/t.png,NA,practice,null,NA,NA,NA,NA,sub36
d3-animate-choice,29,208233,0.0-29.0,TRUE,FALSE,FALSE,TRUE,"""event"",""trial"",""time""
""fullscreenenter"",""5"",""26306""
""fullscreenexit"",""6"",""38519""
""blur"",""6"",""40760""
""focus"",""6"",""42694""
","""event"",""trial"",""time""
""blur"",""6"",""40760""
","""event"",""trial"",""time""
""focus"",""6"",""42694""
","""event"",""trial"",""time""
""fullscreenenter"",""5"",""26306""
","""event"",""trial"",""time""
""fullscreenexit"",""6"",""38519""
",465.8400000189431,NA,49,NA,NA,3000,1,NA,NA,images/tutyellowplanet.jpg,null,images/tutalien3,null,images/tutalien3,images/t.png,NA,practice,null,NA,NA,NA,NA,sub36
d3-instructions,30,215448,0.0-30.0,TRUE,FALSE,FALSE,TRUE,"""event"",""trial"",""time""
""fullscreenenter"",""5"",""26306""
""fullscreenexit"",""6"",""38519""
""blur"",""6"",""40760""
""focus"",""6"",""42694""
","""event"",""trial"",""time""
""blur"",""6"",""40760""
","""event"",""trial"",""time""
""focus"",""6"",""42694""
","""event"",""trial"",""time""
""fullscreenenter"",""5"",""26306""
","""event"",""trial"",""time""
""fullscreenexit"",""6"",""38519""
",NA,NA,NA,NA,NA,NA,NA,NA,NA,NA,NA,NA,NA,NA,NA,NA,NA,NA,NA,NA,NA,NA,sub36
d3-instructions,31,224688,0.0-31.0,TRUE,FALSE,FALSE,TRUE,"""event"",""trial"",""time""
""fullscreenenter"",""5"",""26306""
""fullscreenexit"",""6"",""38519""
""blur"",""6"",""40760""
""focus"",""6"",""42694""
","""event"",""trial"",""time""
""blur"",""6"",""40760""
","""event"",""trial"",""time""
""focus"",""6"",""42694""
","""event"",""trial"",""time""
""fullscreenenter"",""5"",""26306""
","""event"",""trial"",""time""
""fullscreenexit"",""6"",""38519""
",NA,NA,NA,NA,NA,NA,NA,NA,NA,NA,NA,NA,NA,NA,NA,NA,NA,NA,NA,NA,NA,NA,sub36
d3-instructions,32,238503,0.0-32.0,TRUE,FALSE,FALSE,TRUE,"""event"",""trial"",""time""
""fullscreenenter"",""5"",""26306""
""fullscreenexit"",""6"",""38519""
""blur"",""6"",""40760""
""focus"",""6"",""42694""
","""event"",""trial"",""time""
""blur"",""6"",""40760""
","""event"",""trial"",""time""
""focus"",""6"",""42694""
","""event"",""trial"",""time""
""fullscreenenter"",""5"",""26306""
","""event"",""trial"",""time""
""fullscreenexit"",""6"",""38519""
",NA,NA,NA,NA,NA,NA,NA,NA,NA,NA,NA,NA,NA,NA,NA,NA,NA,NA,NA,NA,NA,NA,sub36
d3-instructions,33,250871,0.0-33.0,TRUE,FALSE,FALSE,TRUE,"""event"",""trial"",""time""
""fullscreenenter"",""5"",""26306""
""fullscreenexit"",""6"",""38519""
""blur"",""6"",""40760""
""focus"",""6"",""42694""
","""event"",""trial"",""time""
""blur"",""6"",""40760""
","""event"",""trial"",""time""
""focus"",""6"",""42694""
","""event"",""trial"",""time""
""fullscreenenter"",""5"",""26306""
","""event"",""trial"",""time""
""fullscreenexit"",""6"",""38519""
",NA,NA,NA,NA,NA,NA,NA,NA,NA,NA,NA,NA,NA,NA,NA,NA,NA,NA,NA,NA,NA,NA,sub36
d3-animate-choice,34,256489,0.0-34.0,TRUE,FALSE,FALSE,TRUE,"""event"",""trial"",""time""
""fullscreenenter"",""5"",""26306""
""fullscreenexit"",""6"",""38519""
""blur"",""6"",""40760""
""focus"",""6"",""42694""
","""event"",""trial"",""time""
""blur"",""6"",""40760""
","""event"",""trial"",""time""
""focus"",""6"",""42694""
","""event"",""trial"",""time""
""fullscreenenter"",""5"",""26306""
","""event"",""trial"",""time""
""fullscreenexit"",""6"",""38519""
",3610.584999958519,NA,49,NA,NA,3000,1,NA,NA,images/tutgreenplanet.jpg,images/tutalien1,images/tutalien2,null,images/tutalien2,images/t.png,NA,practice,null,NA,NA,NA,NA,sub36
d3-animate-choice,35,262283,0.0-35.0,TRUE,FALSE,FALSE,TRUE,"""event"",""trial"",""time""
""fullscreenenter"",""5"",""26306""
""fullscreenexit"",""6"",""38519""
""blur"",""6"",""40760""
""focus"",""6"",""42694""
","""event"",""trial"",""time""
""blur"",""6"",""40760""
","""event"",""trial"",""time""
""focus"",""6"",""42694""
","""event"",""trial"",""time""
""fullscreenenter"",""5"",""26306""
","""event"",""trial"",""time""
""fullscreenexit"",""6"",""38519""
",3786.8649999727495,NA,49,NA,NA,3000,1,NA,NA,images/tutgreenplanet.jpg,images/tutalien1,images/tutalien2,null,images/tutalien2,images/t.png,NA,practice,null,NA,NA,NA,NA,sub36
d3-animate-choice,36,269098,0.0-36.0,TRUE,FALSE,FALSE,TRUE,"""event"",""trial"",""time""
""fullscreenenter"",""5"",""26306""
""fullscreenexit"",""6"",""38519""
""blur"",""6"",""40760""
""focus"",""6"",""42694""
","""event"",""trial"",""time""
""blur"",""6"",""40760""
","""event"",""trial"",""time""
""focus"",""6"",""42694""
","""event"",""trial"",""time""
""fullscreenenter"",""5"",""26306""
","""event"",""trial"",""time""
""fullscreenexit"",""6"",""38519""
",4808.255000039935,NA,49,NA,NA,3000,1,NA,NA,images/tutgreenplanet.jpg,images/tutalien1,images/tutalien2,null,images/tutalien2,images/t.png,NA,practice,null,NA,NA,NA,NA,sub36
d3-animate-choice,37,273059,0.0-37.0,TRUE,FALSE,FALSE,TRUE,"""event"",""trial"",""time""
""fullscreenenter"",""5"",""26306""
""fullscreenexit"",""6"",""38519""
""blur"",""6"",""40760""
""focus"",""6"",""42694""
","""event"",""trial"",""time""
""blur"",""6"",""40760""
","""event"",""trial"",""time""
""focus"",""6"",""42694""
","""event"",""trial"",""time""
""fullscreenenter"",""5"",""26306""
","""event"",""trial"",""time""
""fullscreenexit"",""6"",""38519""
",1952.3949999711476,NA,49,NA,NA,3000,1,NA,NA,images/tutgreenplanet.jpg,images/tutalien1,images/tutalien2,null,images/tutalien2,images/nothing.png,NA,practice,null,NA,NA,NA,NA,sub36
d3-animate-choice,38,276489,0.0-38.0,TRUE,FALSE,FALSE,TRUE,"""event"",""trial"",""time""
""fullscreenenter"",""5"",""26306""
""fullscreenexit"",""6"",""38519""
""blur"",""6"",""40760""
""focus"",""6"",""42694""
","""event"",""trial"",""time""
""blur"",""6"",""40760""
","""event"",""trial"",""time""
""focus"",""6"",""42694""
","""event"",""trial"",""time""
""fullscreenenter"",""5"",""26306""
","""event"",""trial"",""time""
""fullscreenexit"",""6"",""38519""
",1423.3300000196323,NA,48,NA,NA,3000,1,NA,NA,images/tutgreenplanet.jpg,images/tutalien1,images/tutalien2,null,images/tutalien1,images/nothing.png,NA,practice,null,NA,NA,NA,NA,sub36
d3-animate-choice,39,278881,0.0-39.0,TRUE,FALSE,FALSE,TRUE,"""event"",""trial"",""time""
""fullscreenenter"",""5"",""26306""
""fullscreenexit"",""6"",""38519""
""blur"",""6"",""40760""
""focus"",""6"",""42694""
","""event"",""trial"",""time""
""blur"",""6"",""40760""
","""event"",""trial"",""time""
""focus"",""6"",""42694""
","""event"",""trial"",""time""
""fullscreenenter"",""5"",""26306""
","""event"",""trial"",""time""
""fullscreenexit"",""6"",""38519""
",386.5999999688938,NA,49,NA,NA,3000,1,NA,NA,images/tutgreenplanet.jpg,images/tutalien1,images/tutalien2,null,images/tutalien2,images/t.png,NA,practice,null,NA,NA,NA,NA,sub36
d3-animate-choice,40,282450,0.0-40.0,TRUE,FALSE,FALSE,TRUE,"""event"",""trial"",""time""
""fullscreenenter"",""5"",""26306""
""fullscreenexit"",""6"",""38519""
""blur"",""6"",""40760""
""focus"",""6"",""42694""
","""event"",""trial"",""time""
""blur"",""6"",""40760""
","""event"",""trial"",""time""
""focus"",""6"",""42694""
","""event"",""trial"",""time""
""fullscreenenter"",""5"",""26306""
","""event"",""trial"",""time""
""fullscreenexit"",""6"",""38519""
",1562.2750000329688,NA,49,NA,NA,3000,1,NA,NA,images/tutgreenplanet.jpg,images/tutalien1,images/tutalien2,null,images/tutalien2,images/t.png,NA,practice,null,NA,NA,NA,NA,sub36
d3-animate-choice,41,285899,0.0-41.0,TRUE,FALSE,FALSE,TRUE,"""event"",""trial"",""time""
""fullscreenenter"",""5"",""26306""
""fullscreenexit"",""6"",""38519""
""blur"",""6"",""40760""
""focus"",""6"",""42694""
","""event"",""trial"",""time""
""blur"",""6"",""40760""
","""event"",""trial"",""time""
""focus"",""6"",""42694""
","""event"",""trial"",""time""
""fullscreenenter"",""5"",""26306""
","""event"",""trial"",""time""
""fullscreenexit"",""6"",""38519""
",1439.1250000335276,NA,49,NA,NA,3000,1,NA,NA,images/tutgreenplanet.jpg,images/tutalien1,images/tutalien2,null,images/tutalien2,images/t.png,NA,practice,null,NA,NA,NA,NA,sub36
d3-animate-choice,42,288767,0.0-42.0,TRUE,FALSE,FALSE,TRUE,"""event"",""trial"",""time""
""fullscreenenter"",""5"",""26306""
""fullscreenexit"",""6"",""38519""
""blur"",""6"",""40760""
""focus"",""6"",""42694""
","""event"",""trial"",""time""
""blur"",""6"",""40760""
","""event"",""trial"",""time""
""focus"",""6"",""42694""
","""event"",""trial"",""time""
""fullscreenenter"",""5"",""26306""
","""event"",""trial"",""time""
""fullscreenexit"",""6"",""38519""
",862.2250000480562,NA,49,NA,NA,3000,1,NA,NA,images/tutgreenplanet.jpg,images/tutalien1,images/tutalien2,null,images/tutalien2,images/t.png,NA,practice,null,NA,NA,NA,NA,sub36
d3-animate-choice,43,291574,0.0-43.0,TRUE,FALSE,FALSE,TRUE,"""event"",""trial"",""time""
""fullscreenenter"",""5"",""26306""
""fullscreenexit"",""6"",""38519""
""blur"",""6"",""40760""
""focus"",""6"",""42694""
","""event"",""trial"",""time""
""blur"",""6"",""40760""
","""event"",""trial"",""time""
""focus"",""6"",""42694""
","""event"",""trial"",""time""
""fullscreenenter"",""5"",""26306""
","""event"",""trial"",""time""
""fullscreenexit"",""6"",""38519""
",804.2349999886937,NA,49,NA,NA,3000,1,NA,NA,images/tutgreenplanet.jpg,images/tutalien1,images/tutalien2,null,images/tutalien2,images/t.png,NA,practice,null,NA,NA,NA,NA,sub36
d3-instructions,44,305982,0.0-44.0,TRUE,FALSE,FALSE,TRUE,"""event"",""trial"",""time""
""fullscreenenter"",""5"",""26306""
""fullscreenexit"",""6"",""38519""
""blur"",""6"",""40760""
""focus"",""6"",""42694""
","""event"",""trial"",""time""
""blur"",""6"",""40760""
","""event"",""trial"",""time""
""focus"",""6"",""42694""
","""event"",""trial"",""time""
""fullscreenenter"",""5"",""26306""
","""event"",""trial"",""time""
""fullscreenexit"",""6"",""38519""
",NA,NA,NA,NA,NA,NA,NA,NA,NA,NA,NA,NA,NA,NA,NA,NA,NA,NA,NA,NA,NA,NA,sub36
d3-instructions,45,313583,0.0-45.0,TRUE,FALSE,FALSE,TRUE,"""event"",""trial"",""time""
""fullscreenenter"",""5"",""26306""
""fullscreenexit"",""6"",""38519""
""blur"",""6"",""40760""
""focus"",""6"",""42694""
","""event"",""trial"",""time""
""blur"",""6"",""40760""
","""event"",""trial"",""time""
""focus"",""6"",""42694""
","""event"",""trial"",""time""
""fullscreenenter"",""5"",""26306""
","""event"",""trial"",""time""
""fullscreenexit"",""6"",""38519""
",NA,NA,NA,NA,NA,NA,NA,NA,NA,NA,NA,NA,NA,NA,NA,NA,NA,NA,NA,NA,NA,NA,sub36
d3-instructions,46,321063,0.0-46.0,TRUE,FALSE,FALSE,TRUE,"""event"",""trial"",""time""
""fullscreenenter"",""5"",""26306""
""fullscreenexit"",""6"",""38519""
""blur"",""6"",""40760""
""focus"",""6"",""42694""
","""event"",""trial"",""time""
""blur"",""6"",""40760""
","""event"",""trial"",""time""
""focus"",""6"",""42694""
","""event"",""trial"",""time""
""fullscreenenter"",""5"",""26306""
","""event"",""trial"",""time""
""fullscreenexit"",""6"",""38519""
",NA,NA,NA,NA,NA,NA,NA,NA,NA,NA,NA,NA,NA,NA,NA,NA,NA,NA,NA,NA,NA,NA,sub36
d3-instructions,47,338047,0.0-47.0,TRUE,FALSE,FALSE,TRUE,"""event"",""trial"",""time""
""fullscreenenter"",""5"",""26306""
""fullscreenexit"",""6"",""38519""
""blur"",""6"",""40760""
""focus"",""6"",""42694""
","""event"",""trial"",""time""
""blur"",""6"",""40760""
","""event"",""trial"",""time""
""focus"",""6"",""42694""
","""event"",""trial"",""time""
""fullscreenenter"",""5"",""26306""
","""event"",""trial"",""time""
""fullscreenexit"",""6"",""38519""
",NA,NA,NA,NA,NA,NA,NA,NA,NA,NA,NA,NA,NA,NA,NA,NA,NA,NA,NA,NA,NA,NA,sub36
d3-instructions,48,345767,0.0-48.0,TRUE,FALSE,FALSE,TRUE,"""event"",""trial"",""time""
""fullscreenenter"",""5"",""26306""
""fullscreenexit"",""6"",""38519""
""blur"",""6"",""40760""
""focus"",""6"",""42694""
","""event"",""trial"",""time""
""blur"",""6"",""40760""
","""event"",""trial"",""time""
""focus"",""6"",""42694""
","""event"",""trial"",""time""
""fullscreenenter"",""5"",""26306""
","""event"",""trial"",""time""
""fullscreenexit"",""6"",""38519""
",NA,NA,NA,NA,NA,NA,NA,NA,NA,NA,NA,NA,NA,NA,NA,NA,NA,NA,NA,NA,NA,NA,sub36
d3-instructions,49,357583,0.0-49.0,TRUE,FALSE,FALSE,TRUE,"""event"",""trial"",""time""
""fullscreenenter"",""5"",""26306""
""fullscreenexit"",""6"",""38519""
""blur"",""6"",""40760""
""focus"",""6"",""42694""
","""event"",""trial"",""time""
""blur"",""6"",""40760""
","""event"",""trial"",""time""
""focus"",""6"",""42694""
","""event"",""trial"",""time""
""fullscreenenter"",""5"",""26306""
","""event"",""trial"",""time""
""fullscreenexit"",""6"",""38519""
",NA,NA,NA,NA,NA,NA,NA,NA,NA,NA,NA,NA,NA,NA,NA,NA,NA,NA,NA,NA,NA,NA,sub36
d3-instructions,50,366143,0.0-50.0,TRUE,FALSE,FALSE,TRUE,"""event"",""trial"",""time""
""fullscreenenter"",""5"",""26306""
""fullscreenexit"",""6"",""38519""
""blur"",""6"",""40760""
""focus"",""6"",""42694""
","""event"",""trial"",""time""
""blur"",""6"",""40760""
","""event"",""trial"",""time""
""focus"",""6"",""42694""
","""event"",""trial"",""time""
""fullscreenenter"",""5"",""26306""
","""event"",""trial"",""time""
""fullscreenexit"",""6"",""38519""
",NA,NA,NA,NA,NA,NA,NA,NA,NA,NA,NA,NA,NA,NA,NA,NA,NA,NA,NA,NA,NA,NA,sub36
d3-instructions,51,368727,0.0-51.0,TRUE,FALSE,FALSE,TRUE,"""event"",""trial"",""time""
""fullscreenenter"",""5"",""26306""
""fullscreenexit"",""6"",""38519""
""blur"",""6"",""40760""
""focus"",""6"",""42694""
","""event"",""trial"",""time""
""blur"",""6"",""40760""
","""event"",""trial"",""time""
""focus"",""6"",""42694""
","""event"",""trial"",""time""
""fullscreenenter"",""5"",""26306""
","""event"",""trial"",""time""
""fullscreenexit"",""6"",""38519""
",NA,NA,NA,NA,NA,NA,NA,NA,NA,NA,NA,NA,NA,NA,NA,NA,NA,NA,NA,NA,NA,NA,sub36
d3-instructions,52,372111,0.0-52.0,TRUE,FALSE,FALSE,TRUE,"""event"",""trial"",""time""
""fullscreenenter"",""5"",""26306""
""fullscreenexit"",""6"",""38519""
""blur"",""6"",""40760""
""focus"",""6"",""42694""
","""event"",""trial"",""time""
""blur"",""6"",""40760""
","""event"",""trial"",""time""
""focus"",""6"",""42694""
","""event"",""trial"",""time""
""fullscreenenter"",""5"",""26306""
","""event"",""trial"",""time""
""fullscreenexit"",""6"",""38519""
",NA,NA,NA,NA,NA,NA,NA,NA,NA,NA,NA,NA,NA,NA,NA,NA,NA,NA,NA,NA,NA,NA,sub36
d3-instructions,53,386815,0.0-53.0,TRUE,FALSE,FALSE,TRUE,"""event"",""trial"",""time""
""fullscreenenter"",""5"",""26306""
""fullscreenexit"",""6"",""38519""
""blur"",""6"",""40760""
""focus"",""6"",""42694""
","""event"",""trial"",""time""
""blur"",""6"",""40760""
","""event"",""trial"",""time""
""focus"",""6"",""42694""
","""event"",""trial"",""time""
""fullscreenenter"",""5"",""26306""
","""event"",""trial"",""time""
""fullscreenexit"",""6"",""38519""
",NA,NA,NA,NA,NA,NA,NA,NA,NA,NA,NA,NA,NA,NA,NA,NA,NA,NA,NA,NA,NA,NA,sub36
d3-instructions,54,399767,0.0-54.0,TRUE,FALSE,FALSE,TRUE,"""event"",""trial"",""time""
""fullscreenenter"",""5"",""26306""
""fullscreenexit"",""6"",""38519""
""blur"",""6"",""40760""
""focus"",""6"",""42694""
","""event"",""trial"",""time""
""blur"",""6"",""40760""
","""event"",""trial"",""time""
""focus"",""6"",""42694""
","""event"",""trial"",""time""
""fullscreenenter"",""5"",""26306""
","""event"",""trial"",""time""
""fullscreenexit"",""6"",""38519""
",NA,NA,NA,NA,NA,NA,NA,NA,NA,NA,NA,NA,NA,NA,NA,NA,NA,NA,NA,NA,NA,NA,sub36
d3-instructions,55,409935,0.0-55.0,TRUE,FALSE,FALSE,TRUE,"""event"",""trial"",""time""
""fullscreenenter"",""5"",""26306""
""fullscreenexit"",""6"",""38519""
""blur"",""6"",""40760""
""focus"",""6"",""42694""
","""event"",""trial"",""time""
""blur"",""6"",""40760""
","""event"",""trial"",""time""
""focus"",""6"",""42694""
","""event"",""trial"",""time""
""fullscreenenter"",""5"",""26306""
","""event"",""trial"",""time""
""fullscreenexit"",""6"",""38519""
",NA,NA,NA,NA,NA,NA,NA,NA,NA,NA,NA,NA,NA,NA,NA,NA,NA,NA,NA,NA,NA,NA,sub36
d3-instructions,56,420567,0.0-56.0,TRUE,FALSE,FALSE,TRUE,"""event"",""trial"",""time""
""fullscreenenter"",""5"",""26306""
""fullscreenexit"",""6"",""38519""
""blur"",""6"",""40760""
""focus"",""6"",""42694""
","""event"",""trial"",""time""
""blur"",""6"",""40760""
","""event"",""trial"",""time""
""focus"",""6"",""42694""
","""event"",""trial"",""time""
""fullscreenenter"",""5"",""26306""
","""event"",""trial"",""time""
""fullscreenexit"",""6"",""38519""
",NA,NA,NA,NA,NA,NA,NA,NA,NA,NA,NA,NA,NA,NA,NA,NA,NA,NA,NA,NA,NA,NA,sub36
d3-instructions,57,430983,0.0-57.0,TRUE,FALSE,FALSE,TRUE,"""event"",""trial"",""time""
""fullscreenenter"",""5"",""26306""
""fullscreenexit"",""6"",""38519""
""blur"",""6"",""40760""
""focus"",""6"",""42694""
","""event"",""trial"",""time""
""blur"",""6"",""40760""
","""event"",""trial"",""time""
""focus"",""6"",""42694""
","""event"",""trial"",""time""
""fullscreenenter"",""5"",""26306""
","""event"",""trial"",""time""
""fullscreenexit"",""6"",""38519""
",NA,NA,NA,NA,NA,NA,NA,NA,NA,NA,NA,NA,NA,NA,NA,NA,NA,NA,NA,NA,NA,NA,sub36
d3-instructions,58,442861,0.0-58.0,TRUE,FALSE,FALSE,TRUE,"""event"",""trial"",""time""
""fullscreenenter"",""5"",""26306""
""fullscreenexit"",""6"",""38519""
""blur"",""6"",""40760""
""focus"",""6"",""42694""
","""event"",""trial"",""time""
""blur"",""6"",""40760""
","""event"",""trial"",""time""
""focus"",""6"",""42694""
","""event"",""trial"",""time""
""fullscreenenter"",""5"",""26306""
","""event"",""trial"",""time""
""fullscreenexit"",""6"",""38519""
",NA,NA,NA,NA,NA,NA,NA,NA,NA,NA,NA,NA,NA,NA,NA,NA,NA,NA,NA,NA,NA,NA,sub36
d3-instructions,59,449629,0.0-59.0,TRUE,FALSE,FALSE,TRUE,"""event"",""trial"",""time""
""fullscreenenter"",""5"",""26306""
""fullscreenexit"",""6"",""38519""
""blur"",""6"",""40760""
""focus"",""6"",""42694""
","""event"",""trial"",""time""
""blur"",""6"",""40760""
","""event"",""trial"",""time""
""focus"",""6"",""42694""
","""event"",""trial"",""time""
""fullscreenenter"",""5"",""26306""
","""event"",""trial"",""time""
""fullscreenexit"",""6"",""38519""
",NA,NA,NA,NA,NA,NA,NA,NA,NA,NA,NA,NA,NA,NA,NA,NA,NA,NA,NA,NA,NA,NA,sub36
d3-instructions,60,456221,0.0-60.0,TRUE,FALSE,FALSE,TRUE,"""event"",""trial"",""time""
""fullscreenenter"",""5"",""26306""
""fullscreenexit"",""6"",""38519""
""blur"",""6"",""40760""
""focus"",""6"",""42694""
","""event"",""trial"",""time""
""blur"",""6"",""40760""
","""event"",""trial"",""time""
""focus"",""6"",""42694""
","""event"",""trial"",""time""
""fullscreenenter"",""5"",""26306""
","""event"",""trial"",""time""
""fullscreenexit"",""6"",""38519""
",NA,NA,NA,NA,NA,NA,NA,NA,NA,NA,NA,NA,NA,NA,NA,NA,NA,NA,NA,NA,NA,NA,sub36
d3-animate-choice,61,459112,0.0-61.0-0.0,TRUE,FALSE,FALSE,TRUE,"""event"",""trial"",""time""
""fullscreenenter"",""5"",""26306""
""fullscreenexit"",""6"",""38519""
""blur"",""6"",""40760""
""focus"",""6"",""42694""
","""event"",""trial"",""time""
""blur"",""6"",""40760""
","""event"",""trial"",""time""
""focus"",""6"",""42694""
","""event"",""trial"",""time""
""fullscreenenter"",""5"",""26306""
","""event"",""trial"",""time""
""fullscreenexit"",""6"",""38519""
",886.9849999900907,NA,49,NA,NA,3000,1,NA,NA,images/earth.jpg,images/tutrocket1,images/tutrocket2,null,images/tutrocket2,NA,1,practice,null,1,NA,NA,NA,sub36
d3-animate-choice,62,463118,0.0-61.0-1.0,TRUE,FALSE,FALSE,TRUE,"""event"",""trial"",""time""
""fullscreenenter"",""5"",""26306""
""fullscreenexit"",""6"",""38519""
""blur"",""6"",""40760""
""focus"",""6"",""42694""
","""event"",""trial"",""time""
""blur"",""6"",""40760""
","""event"",""trial"",""time""
""focus"",""6"",""42694""
","""event"",""trial"",""time""
""fullscreenenter"",""5"",""26306""
","""event"",""trial"",""time""
""fullscreenexit"",""6"",""38519""
",2688.285000040196,NA,48,NA,NA,3000,1,NA,NA,images/tutgreenplanet.jpg,images/tutalien2,images/tutalien1,images/tutrocket2,images/tutalien2,NA,2,practice,true,2,common,0,2020-06-15T17:45:45Z,sub36
two-step-fixation,63,464121,0.0-61.0-2.0,TRUE,FALSE,FALSE,TRUE,"""event"",""trial"",""time""
""fullscreenenter"",""5"",""26306""
""fullscreenexit"",""6"",""38519""
""blur"",""6"",""40760""
""focus"",""6"",""42694""
","""event"",""trial"",""time""
""blur"",""6"",""40760""
","""event"",""trial"",""time""
""focus"",""6"",""42694""
","""event"",""trial"",""time""
""fullscreenenter"",""5"",""26306""
","""event"",""trial"",""time""
""fullscreenexit"",""6"",""38519""
",NA,images/earth.jpg,NA,NA,NA,NA,NA,NA,NA,NA,NA,NA,NA,NA,NA,fixation,NA,NA,NA,NA,NA,NA,sub36
d3-animate-choice,64,468131,0.0-61.0-0.1,TRUE,FALSE,FALSE,TRUE,"""event"",""trial"",""time""
""fullscreenenter"",""5"",""26306""
""fullscreenexit"",""6"",""38519""
""blur"",""6"",""40760""
""focus"",""6"",""42694""
","""event"",""trial"",""time""
""blur"",""6"",""40760""
","""event"",""trial"",""time""
""focus"",""6"",""42694""
","""event"",""trial"",""time""
""fullscreenenter"",""5"",""26306""
","""event"",""trial"",""time""
""fullscreenexit"",""6"",""38519""
",3209.5749999862164,NA,49,NA,NA,3000,0,NA,NA,images/earth.jpg,images/tutrocket1,images/tutrocket2,null,NA,NA,1,practice,null,1,NA,NA,NA,sub36
d3-animate-choice,65,469143,0.0-61.0-1.1,TRUE,FALSE,FALSE,TRUE,"""event"",""trial"",""time""
""fullscreenenter"",""5"",""26306""
""fullscreenexit"",""6"",""38519""
""blur"",""6"",""40760""
""focus"",""6"",""42694""
","""event"",""trial"",""time""
""blur"",""6"",""40760""
","""event"",""trial"",""time""
""focus"",""6"",""42694""
","""event"",""trial"",""time""
""fullscreenenter"",""5"",""26306""
","""event"",""trial"",""time""
""fullscreenexit"",""6"",""38519""
",null,NA,null,NA,NA,0,0,NA,NA,images/earth.jpg,images/tutrocket1,images/tutrocket2,null,NA,NA,2,practice,null,NA,NA,0,2020-06-15T17:45:51Z,sub36
two-step-fixation,66,470148,0.0-61.0-2.1,TRUE,FALSE,FALSE,TRUE,"""event"",""trial"",""time""
""fullscreenenter"",""5"",""26306""
""fullscreenexit"",""6"",""38519""
""blur"",""6"",""40760""
""focus"",""6"",""42694""
","""event"",""trial"",""time""
""blur"",""6"",""40760""
","""event"",""trial"",""time""
""focus"",""6"",""42694""
","""event"",""trial"",""time""
""fullscreenenter"",""5"",""26306""
","""event"",""trial"",""time""
""fullscreenexit"",""6"",""38519""
",NA,images/earth.jpg,NA,NA,NA,NA,NA,NA,NA,NA,NA,NA,NA,NA,NA,fixation,NA,NA,NA,NA,NA,NA,sub36
d3-animate-choice,67,472466,0.0-61.0-0.2,TRUE,FALSE,FALSE,TRUE,"""event"",""trial"",""time""
""fullscreenenter"",""5"",""26306""
""fullscreenexit"",""6"",""38519""
""blur"",""6"",""40760""
""focus"",""6"",""42694""
","""event"",""trial"",""time""
""blur"",""6"",""40760""
","""event"",""trial"",""time""
""focus"",""6"",""42694""
","""event"",""trial"",""time""
""fullscreenenter"",""5"",""26306""
","""event"",""trial"",""time""
""fullscreenexit"",""6"",""38519""
",309.9899999797344,NA,48,NA,NA,3000,1,NA,NA,images/earth.jpg,images/tutrocket1,images/tutrocket2,null,images/tutrocket1,NA,1,practice,null,2,NA,NA,NA,sub36
d3-animate-choice,68,476408,0.0-61.0-1.2,TRUE,FALSE,FALSE,TRUE,"""event"",""trial"",""time""
""fullscreenenter"",""5"",""26306""
""fullscreenexit"",""6"",""38519""
""blur"",""6"",""40760""
""focus"",""6"",""42694""
","""event"",""trial"",""time""
""blur"",""6"",""40760""
","""event"",""trial"",""time""
""focus"",""6"",""42694""
","""event"",""trial"",""time""
""fullscreenenter"",""5"",""26306""
","""event"",""trial"",""time""
""fullscreenexit"",""6"",""38519""
",1932.390000030864,NA,48,NA,NA,3000,1,NA,NA,images/tutyellowplanet.jpg,images/tutalien4,images/tutalien3,images/tutrocket1,images/tutalien4,images/nothing.png,2,practice,true,2,common,0,2020-06-15T17:45:58Z,sub36
two-step-fixation,69,477414,0.0-61.0-2.2,TRUE,FALSE,FALSE,TRUE,"""event"",""trial"",""time""
""fullscreenenter"",""5"",""26306""
""fullscreenexit"",""6"",""38519""
""blur"",""6"",""40760""
""focus"",""6"",""42694""
","""event"",""trial"",""time""
""blur"",""6"",""40760""
","""event"",""trial"",""time""
""focus"",""6"",""42694""
","""event"",""trial"",""time""
""fullscreenenter"",""5"",""26306""
","""event"",""trial"",""time""
""fullscreenexit"",""6"",""38519""
",NA,images/earth.jpg,NA,NA,NA,NA,NA,NA,NA,NA,NA,NA,NA,NA,NA,fixation,NA,NA,NA,NA,NA,NA,sub36
d3-animate-choice,70,479907,0.0-61.0-0.3,TRUE,FALSE,FALSE,TRUE,"""event"",""trial"",""time""
""fullscreenenter"",""5"",""26306""
""fullscreenexit"",""6"",""38519""
""blur"",""6"",""40760""
""focus"",""6"",""42694""
","""event"",""trial"",""time""
""blur"",""6"",""40760""
","""event"",""trial"",""time""
""focus"",""6"",""42694""
","""event"",""trial"",""time""
""fullscreenenter"",""5"",""26306""
","""event"",""trial"",""time""
""fullscreenexit"",""6"",""38519""
",481.8049999885261,NA,49,NA,NA,3000,1,NA,NA,images/earth.jpg,images/tutrocket1,images/tutrocket2,null,images/tutrocket2,NA,1,practice,null,1,NA,NA,NA,sub36
d3-animate-choice,71,483520,0.0-61.0-1.3,TRUE,FALSE,FALSE,TRUE,"""event"",""trial"",""time""
""fullscreenenter"",""5"",""26306""
""fullscreenexit"",""6"",""38519""
""blur"",""6"",""40760""
""focus"",""6"",""42694""
","""event"",""trial"",""time""
""blur"",""6"",""40760""
","""event"",""trial"",""time""
""focus"",""6"",""42694""
","""event"",""trial"",""time""
""fullscreenenter"",""5"",""26306""
","""event"",""trial"",""time""
""fullscreenexit"",""6"",""38519""
",1600.380000018049,NA,49,NA,NA,3000,1,NA,NA,images/tutgreenplanet.jpg,images/tutalien2,images/tutalien1,images/tutrocket2,images/tutalien1,images/nothing.png,2,practice,true,1,common,0,2020-06-15T17:46:05Z,sub36
two-step-fixation,72,484529,0.0-61.0-2.3,TRUE,FALSE,FALSE,TRUE,"""event"",""trial"",""time""
""fullscreenenter"",""5"",""26306""
""fullscreenexit"",""6"",""38519""
""blur"",""6"",""40760""
""focus"",""6"",""42694""
","""event"",""trial"",""time""
""blur"",""6"",""40760""
","""event"",""trial"",""time""
""focus"",""6"",""42694""
","""event"",""trial"",""time""
""fullscreenenter"",""5"",""26306""
","""event"",""trial"",""time""
""fullscreenexit"",""6"",""38519""
",NA,images/earth.jpg,NA,NA,NA,NA,NA,NA,NA,NA,NA,NA,NA,NA,NA,fixation,NA,NA,NA,NA,NA,NA,sub36
d3-animate-choice,73,487128,0.0-61.0-0.4,TRUE,FALSE,FALSE,TRUE,"""event"",""trial"",""time""
""fullscreenenter"",""5"",""26306""
""fullscreenexit"",""6"",""38519""
""blur"",""6"",""40760""
""focus"",""6"",""42694""
","""event"",""trial"",""time""
""blur"",""6"",""40760""
","""event"",""trial"",""time""
""focus"",""6"",""42694""
","""event"",""trial"",""time""
""fullscreenenter"",""5"",""26306""
","""event"",""trial"",""time""
""fullscreenexit"",""6"",""38519""
",589.4850000040606,NA,49,NA,NA,3000,1,NA,NA,images/earth.jpg,images/tutrocket1,images/tutrocket2,null,images/tutrocket2,NA,1,practice,null,1,NA,NA,NA,sub36
d3-animate-choice,74,489544,0.0-61.0-1.4,TRUE,FALSE,FALSE,TRUE,"""event"",""trial"",""time""
""fullscreenenter"",""5"",""26306""
""fullscreenexit"",""6"",""38519""
""blur"",""6"",""40760""
""focus"",""6"",""42694""
","""event"",""trial"",""time""
""blur"",""6"",""40760""
","""event"",""trial"",""time""
""focus"",""6"",""42694""
","""event"",""trial"",""time""
""fullscreenenter"",""5"",""26306""
","""event"",""trial"",""time""
""fullscreenexit"",""6"",""38519""
",407.89499995298684,NA,48,NA,NA,3000,1,NA,NA,images/tutgreenplanet.jpg,images/tutalien2,images/tutalien1,images/tutrocket2,images/tutalien2,images/nothing.png,2,practice,true,2,common,0,2020-06-15T17:46:11Z,sub36
two-step-fixation,75,490551,0.0-61.0-2.4,TRUE,FALSE,FALSE,TRUE,"""event"",""trial"",""time""
""fullscreenenter"",""5"",""26306""
""fullscreenexit"",""6"",""38519""
""blur"",""6"",""40760""
""focus"",""6"",""42694""
","""event"",""trial"",""time""
""blur"",""6"",""40760""
","""event"",""trial"",""time""
""focus"",""6"",""42694""
","""event"",""trial"",""time""
""fullscreenenter"",""5"",""26306""
","""event"",""trial"",""time""
""fullscreenexit"",""6"",""38519""
",NA,images/earth.jpg,NA,NA,NA,NA,NA,NA,NA,NA,NA,NA,NA,NA,NA,fixation,NA,NA,NA,NA,NA,NA,sub36
d3-animate-choice,76,493033,0.0-61.0-0.5,TRUE,FALSE,FALSE,TRUE,"""event"",""trial"",""time""
""fullscreenenter"",""5"",""26306""
""fullscreenexit"",""6"",""38519""
""blur"",""6"",""40760""
""focus"",""6"",""42694""
","""event"",""trial"",""time""
""blur"",""6"",""40760""
","""event"",""trial"",""time""
""focus"",""6"",""42694""
","""event"",""trial"",""time""
""fullscreenenter"",""5"",""26306""
","""event"",""trial"",""time""
""fullscreenexit"",""6"",""38519""
",468.40499999234453,NA,48,NA,NA,3000,1,NA,NA,images/earth.jpg,images/tutrocket1,images/tutrocket2,null,images/tutrocket1,NA,1,practice,null,2,NA,NA,NA,sub36
d3-animate-choice,77,495712,0.0-61.0-1.5,TRUE,FALSE,FALSE,TRUE,"""event"",""trial"",""time""
""fullscreenenter"",""5"",""26306""
""fullscreenexit"",""6"",""38519""
""blur"",""6"",""40760""
""focus"",""6"",""42694""
","""event"",""trial"",""time""
""blur"",""6"",""40760""
","""event"",""trial"",""time""
""focus"",""6"",""42694""
","""event"",""trial"",""time""
""fullscreenenter"",""5"",""26306""
","""event"",""trial"",""time""
""fullscreenexit"",""6"",""38519""
",669.6999999694526,NA,49,NA,NA,3000,1,NA,NA,images/tutyellowplanet.jpg,images/tutalien4,images/tutalien3,images/tutrocket1,images/tutalien3,images/t.png,2,practice,true,1,common,1,2020-06-15T17:46:17Z,sub36
two-step-fixation,78,496719,0.0-61.0-2.5,TRUE,FALSE,FALSE,TRUE,"""event"",""trial"",""time""
""fullscreenenter"",""5"",""26306""
""fullscreenexit"",""6"",""38519""
""blur"",""6"",""40760""
""focus"",""6"",""42694""
","""event"",""trial"",""time""
""blur"",""6"",""40760""
","""event"",""trial"",""time""
""focus"",""6"",""42694""
","""event"",""trial"",""time""
""fullscreenenter"",""5"",""26306""
","""event"",""trial"",""time""
""fullscreenexit"",""6"",""38519""
",NA,images/earth.jpg,NA,NA,NA,NA,NA,NA,NA,NA,NA,NA,NA,NA,NA,fixation,NA,NA,NA,NA,NA,NA,sub36
d3-animate-choice,79,499086,0.0-61.0-0.6,TRUE,FALSE,FALSE,TRUE,"""event"",""trial"",""time""
""fullscreenenter"",""5"",""26306""
""fullscreenexit"",""6"",""38519""
""blur"",""6"",""40760""
""focus"",""6"",""42694""
","""event"",""trial"",""time""
""blur"",""6"",""40760""
","""event"",""trial"",""time""
""focus"",""6"",""42694""
","""event"",""trial"",""time""
""fullscreenenter"",""5"",""26306""
","""event"",""trial"",""time""
""fullscreenexit"",""6"",""38519""
",358.94000000553206,NA,48,NA,NA,3000,1,NA,NA,images/earth.jpg,images/tutrocket1,images/tutrocket2,null,images/tutrocket1,NA,1,practice,null,2,NA,NA,NA,sub36
d3-animate-choice,80,501545,0.0-61.0-1.6,TRUE,FALSE,FALSE,TRUE,"""event"",""trial"",""time""
""fullscreenenter"",""5"",""26306""
""fullscreenexit"",""6"",""38519""
""blur"",""6"",""40760""
""focus"",""6"",""42694""
","""event"",""trial"",""time""
""blur"",""6"",""40760""
","""event"",""trial"",""time""
""focus"",""6"",""42694""
","""event"",""trial"",""time""
""fullscreenenter"",""5"",""26306""
","""event"",""trial"",""time""
""fullscreenexit"",""6"",""38519""
",449.93499998236075,NA,49,NA,NA,3000,1,NA,NA,images/tutgreenplanet.jpg,images/tutalien2,images/tutalien1,images/tutrocket1,images/tutalien1,images/t.png,2,practice,false,1,rare,1,2020-06-15T17:46:23Z,sub36
two-step-fixation,81,502553,0.0-61.0-2.6,TRUE,FALSE,FALSE,TRUE,"""event"",""trial"",""time""
""fullscreenenter"",""5"",""26306""
""fullscreenexit"",""6"",""38519""
""blur"",""6"",""40760""
""focus"",""6"",""42694""
","""event"",""trial"",""time""
""blur"",""6"",""40760""
","""event"",""trial"",""time""
""focus"",""6"",""42694""
","""event"",""trial"",""time""
""fullscreenenter"",""5"",""26306""
","""event"",""trial"",""time""
""fullscreenexit"",""6"",""38519""
",NA,images/earth.jpg,NA,NA,NA,NA,NA,NA,NA,NA,NA,NA,NA,NA,NA,fixation,NA,NA,NA,NA,NA,NA,sub36
d3-animate-choice,82,504938,0.0-61.0-0.7,TRUE,FALSE,FALSE,TRUE,"""event"",""trial"",""time""
""fullscreenenter"",""5"",""26306""
""fullscreenexit"",""6"",""38519""
""blur"",""6"",""40760""
""focus"",""6"",""42694""
","""event"",""trial"",""time""
""blur"",""6"",""40760""
","""event"",""trial"",""time""
""focus"",""6"",""42694""
","""event"",""trial"",""time""
""fullscreenenter"",""5"",""26306""
","""event"",""trial"",""time""
""fullscreenexit"",""6"",""38519""
",375.3349999897182,NA,48,NA,NA,3000,1,NA,NA,images/earth.jpg,images/tutrocket1,images/tutrocket2,null,images/tutrocket1,NA,1,practice,null,2,NA,NA,NA,sub36
d3-animate-choice,83,507407,0.0-61.0-1.7,TRUE,FALSE,FALSE,TRUE,"""event"",""trial"",""time""
""fullscreenenter"",""5"",""26306""
""fullscreenexit"",""6"",""38519""
""blur"",""6"",""40760""
""focus"",""6"",""42694""
","""event"",""trial"",""time""
""blur"",""6"",""40760""
","""event"",""trial"",""time""
""focus"",""6"",""42694""
","""event"",""trial"",""time""
""fullscreenenter"",""5"",""26306""
","""event"",""trial"",""time""
""fullscreenexit"",""6"",""38519""
",461.65000001201406,NA,49,NA,NA,3000,1,NA,NA,images/tutyellowplanet.jpg,images/tutalien4,images/tutalien3,images/tutrocket1,images/tutalien3,images/t.png,2,practice,true,1,common,1,2020-06-15T17:46:29Z,sub36
two-step-fixation,84,508414,0.0-61.0-2.7,TRUE,FALSE,FALSE,TRUE,"""event"",""trial"",""time""
""fullscreenenter"",""5"",""26306""
""fullscreenexit"",""6"",""38519""
""blur"",""6"",""40760""
""focus"",""6"",""42694""
","""event"",""trial"",""time""
""blur"",""6"",""40760""
","""event"",""trial"",""time""
""focus"",""6"",""42694""
","""event"",""trial"",""time""
""fullscreenenter"",""5"",""26306""
","""event"",""trial"",""time""
""fullscreenexit"",""6"",""38519""
",NA,images/earth.jpg,NA,NA,NA,NA,NA,NA,NA,NA,NA,NA,NA,NA,NA,fixation,NA,NA,NA,NA,NA,NA,sub36
d3-animate-choice,85,510840,0.0-61.0-0.8,TRUE,FALSE,FALSE,TRUE,"""event"",""trial"",""time""
""fullscreenenter"",""5"",""26306""
""fullscreenexit"",""6"",""38519""
""blur"",""6"",""40760""
""focus"",""6"",""42694""
","""event"",""trial"",""time""
""blur"",""6"",""40760""
","""event"",""trial"",""time""
""focus"",""6"",""42694""
","""event"",""trial"",""time""
""fullscreenenter"",""5"",""26306""
","""event"",""trial"",""time""
""fullscreenexit"",""6"",""38519""
",416.18000000016764,NA,48,NA,NA,3000,1,648.0350000201724,48,images/earth.jpg,images/tutrocket1,images/tutrocket2,null,images/tutrocket1,NA,1,practice,null,2,NA,NA,NA,sub36
d3-animate-choice,86,513320,0.0-61.0-1.8,TRUE,FALSE,FALSE,TRUE,"""event"",""trial"",""time""
""fullscreenenter"",""5"",""26306""
""fullscreenexit"",""6"",""38519""
""blur"",""6"",""40760""
""focus"",""6"",""42694""
","""event"",""trial"",""time""
""blur"",""6"",""40760""
","""event"",""trial"",""time""
""focus"",""6"",""42694""
","""event"",""trial"",""time""
""fullscreenenter"",""5"",""26306""
","""event"",""trial"",""time""
""fullscreenexit"",""6"",""38519""
",471.785000001546,NA,49,NA,NA,3000,1,NA,NA,images/tutyellowplanet.jpg,images/tutalien4,images/tutalien3,images/tutrocket1,images/tutalien3,images/nothing.png,2,practice,true,1,common,0,2020-06-15T17:46:35Z,sub36
two-step-fixation,87,514327,0.0-61.0-2.8,TRUE,FALSE,FALSE,TRUE,"""event"",""trial"",""time""
""fullscreenenter"",""5"",""26306""
""fullscreenexit"",""6"",""38519""
""blur"",""6"",""40760""
""focus"",""6"",""42694""
","""event"",""trial"",""time""
""blur"",""6"",""40760""
","""event"",""trial"",""time""
""focus"",""6"",""42694""
","""event"",""trial"",""time""
""fullscreenenter"",""5"",""26306""
","""event"",""trial"",""time""
""fullscreenexit"",""6"",""38519""
",NA,images/earth.jpg,NA,NA,NA,NA,NA,NA,NA,NA,NA,NA,NA,NA,NA,fixation,NA,NA,NA,NA,NA,NA,sub36
d3-animate-choice,88,517281,0.0-61.0-0.9,TRUE,FALSE,FALSE,TRUE,"""event"",""trial"",""time""
""fullscreenenter"",""5"",""26306""
""fullscreenexit"",""6"",""38519""
""blur"",""6"",""40760""
""focus"",""6"",""42694""
","""event"",""trial"",""time""
""blur"",""6"",""40760""
","""event"",""trial"",""time""
""focus"",""6"",""42694""
","""event"",""trial"",""time""
""fullscreenenter"",""5"",""26306""
","""event"",""trial"",""time""
""fullscreenexit"",""6"",""38519""
",945.2499999897555,NA,49,NA,NA,3000,1,NA,NA,images/earth.jpg,images/tutrocket1,images/tutrocket2,null,images/tutrocket2,NA,1,practice,null,1,NA,NA,NA,sub36
d3-animate-choice,89,520392,0.0-61.0-1.9,TRUE,FALSE,FALSE,TRUE,"""event"",""trial"",""time""
""fullscreenenter"",""5"",""26306""
""fullscreenexit"",""6"",""38519""
""blur"",""6"",""40760""
""focus"",""6"",""42694""
","""event"",""trial"",""time""
""blur"",""6"",""40760""
","""event"",""trial"",""time""
""focus"",""6"",""42694""
","""event"",""trial"",""time""
""fullscreenenter"",""5"",""26306""
","""event"",""trial"",""time""
""fullscreenexit"",""6"",""38519""
",1100.8900000015274,NA,49,NA,NA,3000,1,NA,NA,images/tutgreenplanet.jpg,images/tutalien2,images/tutalien1,images/tutrocket2,images/tutalien1,images/t.png,2,practice,true,1,common,1,2020-06-15T17:46:42Z,sub36
two-step-fixation,90,521398,0.0-61.0-2.9,TRUE,FALSE,FALSE,TRUE,"""event"",""trial"",""time""
""fullscreenenter"",""5"",""26306""
""fullscreenexit"",""6"",""38519""
""blur"",""6"",""40760""
""focus"",""6"",""42694""
","""event"",""trial"",""time""
""blur"",""6"",""40760""
","""event"",""trial"",""time""
""focus"",""6"",""42694""
","""event"",""trial"",""time""
""fullscreenenter"",""5"",""26306""
","""event"",""trial"",""time""
""fullscreenexit"",""6"",""38519""
",NA,images/earth.jpg,NA,NA,NA,NA,NA,NA,NA,NA,NA,NA,NA,NA,NA,fixation,NA,NA,NA,NA,NA,NA,sub36
d3-animate-choice,91,523744,0.0-61.0-0.10,TRUE,FALSE,FALSE,TRUE,"""event"",""trial"",""time""
""fullscreenenter"",""5"",""26306""
""fullscreenexit"",""6"",""38519""
""blur"",""6"",""40760""
""focus"",""6"",""42694""
","""event"",""trial"",""time""
""blur"",""6"",""40760""
","""event"",""trial"",""time""
""focus"",""6"",""42694""
","""event"",""trial"",""time""
""fullscreenenter"",""5"",""26306""
","""event"",""trial"",""time""
""fullscreenexit"",""6"",""38519""
",338.30499998293817,NA,49,NA,NA,3000,1,NA,NA,images/earth.jpg,images/tutrocket1,images/tutrocket2,null,images/tutrocket2,NA,1,practice,null,1,NA,NA,NA,sub36
d3-animate-choice,92,525754,0.0-61.0-1.10,TRUE,FALSE,FALSE,TRUE,"""event"",""trial"",""time""
""fullscreenenter"",""5"",""26306""
""fullscreenexit"",""6"",""38519""
""blur"",""6"",""40760""
""focus"",""6"",""42694""
","""event"",""trial"",""time""
""blur"",""6"",""40760""
","""event"",""trial"",""time""
""focus"",""6"",""42694""
","""event"",""trial"",""time""
""fullscreenenter"",""5"",""26306""
","""event"",""trial"",""time""
""fullscreenexit"",""6"",""38519""
",0.4349999944679439,NA,49,NA,NA,3000,1,380.36000001011416,49,images/tutgreenplanet.jpg,images/tutalien2,images/tutalien1,images/tutrocket2,images/tutalien1,images/t.png,2,practice,true,1,common,1,2020-06-15T17:46:47Z,sub36
two-step-fixation,93,526761,0.0-61.0-2.10,TRUE,FALSE,FALSE,TRUE,"""event"",""trial"",""time""
""fullscreenenter"",""5"",""26306""
""fullscreenexit"",""6"",""38519""
""blur"",""6"",""40760""
""focus"",""6"",""42694""
","""event"",""trial"",""time""
""blur"",""6"",""40760""
","""event"",""trial"",""time""
""focus"",""6"",""42694""
","""event"",""trial"",""time""
""fullscreenenter"",""5"",""26306""
","""event"",""trial"",""time""
""fullscreenexit"",""6"",""38519""
",NA,images/earth.jpg,NA,NA,NA,NA,NA,NA,NA,NA,NA,NA,NA,NA,NA,fixation,NA,NA,NA,NA,NA,NA,sub36
d3-animate-choice,94,529096,0.0-61.0-0.11,TRUE,FALSE,FALSE,TRUE,"""event"",""trial"",""time""
""fullscreenenter"",""5"",""26306""
""fullscreenexit"",""6"",""38519""
""blur"",""6"",""40760""
""focus"",""6"",""42694""
","""event"",""trial"",""time""
""blur"",""6"",""40760""
","""event"",""trial"",""time""
""focus"",""6"",""42694""
","""event"",""trial"",""time""
""fullscreenenter"",""5"",""26306""
","""event"",""trial"",""time""
""fullscreenexit"",""6"",""38519""
",327.83500000368804,NA,48,NA,NA,3000,1,NA,NA,images/earth.jpg,images/tutrocket1,images/tutrocket2,null,images/tutrocket1,NA,1,practice,null,2,NA,NA,NA,sub36
d3-animate-choice,95,531352,0.0-61.0-1.11,TRUE,FALSE,FALSE,TRUE,"""event"",""trial"",""time""
""fullscreenenter"",""5"",""26306""
""fullscreenexit"",""6"",""38519""
""blur"",""6"",""40760""
""focus"",""6"",""42694""
","""event"",""trial"",""time""
""blur"",""6"",""40760""
","""event"",""trial"",""time""
""focus"",""6"",""42694""
","""event"",""trial"",""time""
""fullscreenenter"",""5"",""26306""
","""event"",""trial"",""time""
""fullscreenexit"",""6"",""38519""
",248.30999999539927,NA,49,NA,NA,3000,1,NA,NA,images/tutyellowplanet.jpg,images/tutalien4,images/tutalien3,images/tutrocket1,images/tutalien3,images/nothing.png,2,practice,true,1,common,0,2020-06-15T17:46:53Z,sub36
two-step-fixation,96,532359,0.0-61.0-2.11,TRUE,FALSE,FALSE,TRUE,"""event"",""trial"",""time""
""fullscreenenter"",""5"",""26306""
""fullscreenexit"",""6"",""38519""
""blur"",""6"",""40760""
""focus"",""6"",""42694""
","""event"",""trial"",""time""
""blur"",""6"",""40760""
","""event"",""trial"",""time""
""focus"",""6"",""42694""
","""event"",""trial"",""time""
""fullscreenenter"",""5"",""26306""
","""event"",""trial"",""time""
""fullscreenexit"",""6"",""38519""
",NA,images/earth.jpg,NA,NA,NA,NA,NA,NA,NA,NA,NA,NA,NA,NA,NA,fixation,NA,NA,NA,NA,NA,NA,sub36
d3-animate-choice,97,534752,0.0-61.0-0.12,TRUE,FALSE,FALSE,TRUE,"""event"",""trial"",""time""
""fullscreenenter"",""5"",""26306""
""fullscreenexit"",""6"",""38519""
""blur"",""6"",""40760""
""focus"",""6"",""42694""
","""event"",""trial"",""time""
""blur"",""6"",""40760""
","""event"",""trial"",""time""
""focus"",""6"",""42694""
","""event"",""trial"",""time""
""fullscreenenter"",""5"",""26306""
","""event"",""trial"",""time""
""fullscreenexit"",""6"",""38519""
",385.56000002427027,NA,49,NA,NA,3000,1,NA,NA,images/earth.jpg,images/tutrocket1,images/tutrocket2,null,images/tutrocket2,NA,1,practice,null,1,NA,NA,NA,sub36
d3-animate-choice,98,537031,0.0-61.0-1.12,TRUE,FALSE,FALSE,TRUE,"""event"",""trial"",""time""
""fullscreenenter"",""5"",""26306""
""fullscreenexit"",""6"",""38519""
""blur"",""6"",""40760""
""focus"",""6"",""42694""
","""event"",""trial"",""time""
""blur"",""6"",""40760""
","""event"",""trial"",""time""
""focus"",""6"",""42694""
","""event"",""trial"",""time""
""fullscreenenter"",""5"",""26306""
","""event"",""trial"",""time""
""fullscreenexit"",""6"",""38519""
",272.5349999964237,NA,49,NA,NA,3000,1,NA,NA,images/tutgreenplanet.jpg,images/tutalien2,images/tutalien1,images/tutrocket2,images/tutalien1,images/t.png,2,practice,true,1,common,1,2020-06-15T17:46:59Z,sub36
two-step-fixation,99,538038,0.0-61.0-2.12,TRUE,FALSE,FALSE,TRUE,"""event"",""trial"",""time""
""fullscreenenter"",""5"",""26306""
""fullscreenexit"",""6"",""38519""
""blur"",""6"",""40760""
""focus"",""6"",""42694""
","""event"",""trial"",""time""
""blur"",""6"",""40760""
","""event"",""trial"",""time""
""focus"",""6"",""42694""
","""event"",""trial"",""time""
""fullscreenenter"",""5"",""26306""
","""event"",""trial"",""time""
""fullscreenexit"",""6"",""38519""
",NA,images/earth.jpg,NA,NA,NA,NA,NA,NA,NA,NA,NA,NA,NA,NA,NA,fixation,NA,NA,NA,NA,NA,NA,sub36
d3-animate-choice,100,540312,0.0-61.0-0.13,TRUE,FALSE,FALSE,TRUE,"""event"",""trial"",""time""
""fullscreenenter"",""5"",""26306""
""fullscreenexit"",""6"",""38519""
""blur"",""6"",""40760""
""focus"",""6"",""42694""
","""event"",""trial"",""time""
""blur"",""6"",""40760""
","""event"",""trial"",""time""
""focus"",""6"",""42694""
","""event"",""trial"",""time""
""fullscreenenter"",""5"",""26306""
","""event"",""trial"",""time""
""fullscreenexit"",""6"",""38519""
",266.9549999991432,NA,49,NA,NA,3000,1,NA,NA,images/earth.jpg,images/tutrocket1,images/tutrocket2,null,images/tutrocket2,NA,1,practice,null,1,NA,NA,NA,sub36
d3-animate-choice,101,542655,0.0-61.0-1.13,TRUE,FALSE,FALSE,TRUE,"""event"",""trial"",""time""
""fullscreenenter"",""5"",""26306""
""fullscreenexit"",""6"",""38519""
""blur"",""6"",""40760""
""focus"",""6"",""42694""
","""event"",""trial"",""time""
""blur"",""6"",""40760""
","""event"",""trial"",""time""
""focus"",""6"",""42694""
","""event"",""trial"",""time""
""fullscreenenter"",""5"",""26306""
","""event"",""trial"",""time""
""fullscreenexit"",""6"",""38519""
",332.04999996814877,NA,49,NA,NA,3000,1,NA,NA,images/tutyellowplanet.jpg,images/tutalien4,images/tutalien3,images/tutrocket2,images/tutalien3,images/t.png,2,practice,false,1,rare,1,2020-06-15T17:47:04Z,sub36
two-step-fixation,102,543664,0.0-61.0-2.13,TRUE,FALSE,FALSE,TRUE,"""event"",""trial"",""time""
""fullscreenenter"",""5"",""26306""
""fullscreenexit"",""6"",""38519""
""blur"",""6"",""40760""
""focus"",""6"",""42694""
","""event"",""trial"",""time""
""blur"",""6"",""40760""
","""event"",""trial"",""time""
""focus"",""6"",""42694""
","""event"",""trial"",""time""
""fullscreenenter"",""5"",""26306""
","""event"",""trial"",""time""
""fullscreenexit"",""6"",""38519""
",NA,images/earth.jpg,NA,NA,NA,NA,NA,NA,NA,NA,NA,NA,NA,NA,NA,fixation,NA,NA,NA,NA,NA,NA,sub36
d3-animate-choice,103,545815,0.0-61.0-0.14,TRUE,FALSE,FALSE,TRUE,"""event"",""trial"",""time""
""fullscreenenter"",""5"",""26306""
""fullscreenexit"",""6"",""38519""
""blur"",""6"",""40760""
""focus"",""6"",""42694""
","""event"",""trial"",""time""
""blur"",""6"",""40760""
","""event"",""trial"",""time""
""focus"",""6"",""42694""
","""event"",""trial"",""time""
""fullscreenenter"",""5"",""26306""
","""event"",""trial"",""time""
""fullscreenexit"",""6"",""38519""
",144.0699999802746,NA,49,NA,NA,3000,1,NA,NA,images/earth.jpg,images/tutrocket1,images/tutrocket2,null,images/tutrocket2,NA,1,practice,null,1,NA,NA,NA,sub36
d3-animate-choice,104,548079,0.0-61.0-1.14,TRUE,FALSE,FALSE,TRUE,"""event"",""trial"",""time""
""fullscreenenter"",""5"",""26306""
""fullscreenexit"",""6"",""38519""
""blur"",""6"",""40760""
""focus"",""6"",""42694""
","""event"",""trial"",""time""
""blur"",""6"",""40760""
","""event"",""trial"",""time""
""focus"",""6"",""42694""
","""event"",""trial"",""time""
""fullscreenenter"",""5"",""26306""
","""event"",""trial"",""time""
""fullscreenexit"",""6"",""38519""
",256.5100000356324,NA,49,NA,NA,3000,1,NA,NA,images/tutgreenplanet.jpg,images/tutalien2,images/tutalien1,images/tutrocket2,images/tutalien1,images/nothing.png,2,practice,true,1,common,0,2020-06-15T17:47:10Z,sub36
two-step-fixation,105,549088,0.0-61.0-2.14,TRUE,FALSE,FALSE,TRUE,"""event"",""trial"",""time""
""fullscreenenter"",""5"",""26306""
""fullscreenexit"",""6"",""38519""
""blur"",""6"",""40760""
""focus"",""6"",""42694""
","""event"",""trial"",""time""
""blur"",""6"",""40760""
","""event"",""trial"",""time""
""focus"",""6"",""42694""
","""event"",""trial"",""time""
""fullscreenenter"",""5"",""26306""
","""event"",""trial"",""time""
""fullscreenexit"",""6"",""38519""
",NA,images/earth.jpg,NA,NA,NA,NA,NA,NA,NA,NA,NA,NA,NA,NA,NA,fixation,NA,NA,NA,NA,NA,NA,sub36
d3-animate-choice,106,551440,0.0-61.0-0.15,TRUE,FALSE,FALSE,TRUE,"""event"",""trial"",""time""
""fullscreenenter"",""5"",""26306""
""fullscreenexit"",""6"",""38519""
""blur"",""6"",""40760""
""focus"",""6"",""42694""
","""event"",""trial"",""time""
""blur"",""6"",""40760""
","""event"",""trial"",""time""
""focus"",""6"",""42694""
","""event"",""trial"",""time""
""fullscreenenter"",""5"",""26306""
","""event"",""trial"",""time""
""fullscreenexit"",""6"",""38519""
",345.1800000038929,NA,49,NA,NA,3000,1,NA,NA,images/earth.jpg,images/tutrocket1,images/tutrocket2,null,images/tutrocket2,NA,1,practice,null,1,NA,NA,NA,sub36
d3-animate-choice,107,553632,0.0-61.0-1.15,TRUE,FALSE,FALSE,TRUE,"""event"",""trial"",""time""
""fullscreenenter"",""5"",""26306""
""fullscreenexit"",""6"",""38519""
""blur"",""6"",""40760""
""focus"",""6"",""42694""
","""event"",""trial"",""time""
""blur"",""6"",""40760""
","""event"",""trial"",""time""
""focus"",""6"",""42694""
","""event"",""trial"",""time""
""fullscreenenter"",""5"",""26306""
","""event"",""trial"",""time""
""fullscreenexit"",""6"",""38519""
",179.75999996997416,NA,49,NA,NA,3000,1,NA,NA,images/tutgreenplanet.jpg,images/tutalien2,images/tutalien1,images/tutrocket2,images/tutalien1,images/nothing.png,2,practice,true,1,common,0,2020-06-15T17:47:15Z,sub36
two-step-fixation,108,554639,0.0-61.0-2.15,TRUE,FALSE,FALSE,TRUE,"""event"",""trial"",""time""
""fullscreenenter"",""5"",""26306""
""fullscreenexit"",""6"",""38519""
""blur"",""6"",""40760""
""focus"",""6"",""42694""
","""event"",""trial"",""time""
""blur"",""6"",""40760""
","""event"",""trial"",""time""
""focus"",""6"",""42694""
","""event"",""trial"",""time""
""fullscreenenter"",""5"",""26306""
","""event"",""trial"",""time""
""fullscreenexit"",""6"",""38519""
",NA,images/earth.jpg,NA,NA,NA,NA,NA,NA,NA,NA,NA,NA,NA,NA,NA,fixation,NA,NA,NA,NA,NA,NA,sub36
d3-animate-choice,109,557014,0.0-61.0-0.16,TRUE,FALSE,FALSE,TRUE,"""event"",""trial"",""time""
""fullscreenenter"",""5"",""26306""
""fullscreenexit"",""6"",""38519""
""blur"",""6"",""40760""
""focus"",""6"",""42694""
","""event"",""trial"",""time""
""blur"",""6"",""40760""
","""event"",""trial"",""time""
""focus"",""6"",""42694""
","""event"",""trial"",""time""
""fullscreenenter"",""5"",""26306""
","""event"",""trial"",""time""
""fullscreenexit"",""6"",""38519""
",368.0850000237115,NA,48,NA,NA,3000,1,NA,NA,images/earth.jpg,images/tutrocket1,images/tutrocket2,null,images/tutrocket1,NA,1,practice,null,2,NA,NA,NA,sub36
d3-animate-choice,110,559328,0.0-61.0-1.16,TRUE,FALSE,FALSE,TRUE,"""event"",""trial"",""time""
""fullscreenenter"",""5"",""26306""
""fullscreenexit"",""6"",""38519""
""blur"",""6"",""40760""
""focus"",""6"",""42694""
","""event"",""trial"",""time""
""blur"",""6"",""40760""
","""event"",""trial"",""time""
""focus"",""6"",""42694""
","""event"",""trial"",""time""
""fullscreenenter"",""5"",""26306""
","""event"",""trial"",""time""
""fullscreenexit"",""6"",""38519""
",306.21999996947125,NA,48,NA,NA,3000,1,NA,NA,images/tutyellowplanet.jpg,images/tutalien4,images/tutalien3,images/tutrocket1,images/tutalien4,images/t.png,2,practice,true,2,common,1,2020-06-15T17:47:21Z,sub36
two-step-fixation,111,560337,0.0-61.0-2.16,TRUE,FALSE,FALSE,TRUE,"""event"",""trial"",""time""
""fullscreenenter"",""5"",""26306""
""fullscreenexit"",""6"",""38519""
""blur"",""6"",""40760""
""focus"",""6"",""42694""
","""event"",""trial"",""time""
""blur"",""6"",""40760""
","""event"",""trial"",""time""
""focus"",""6"",""42694""
","""event"",""trial"",""time""
""fullscreenenter"",""5"",""26306""
","""event"",""trial"",""time""
""fullscreenexit"",""6"",""38519""
",NA,images/earth.jpg,NA,NA,NA,NA,NA,NA,NA,NA,NA,NA,NA,NA,NA,fixation,NA,NA,NA,NA,NA,NA,sub36
d3-animate-choice,112,562696,0.0-61.0-0.17,TRUE,FALSE,FALSE,TRUE,"""event"",""trial"",""time""
""fullscreenenter"",""5"",""26306""
""fullscreenexit"",""6"",""38519""
""blur"",""6"",""40760""
""focus"",""6"",""42694""
","""event"",""trial"",""time""
""blur"",""6"",""40760""
","""event"",""trial"",""time""
""focus"",""6"",""42694""
","""event"",""trial"",""time""
""fullscreenenter"",""5"",""26306""
","""event"",""trial"",""time""
""fullscreenexit"",""6"",""38519""
",351.0699999751523,NA,49,NA,NA,3000,1,1942.4049999797717,48,images/earth.jpg,images/tutrocket1,images/tutrocket2,null,images/tutrocket2,NA,1,practice,null,1,NA,NA,NA,sub36
d3-animate-choice,113,564920,0.0-61.0-1.17,TRUE,FALSE,FALSE,TRUE,"""event"",""trial"",""time""
""fullscreenenter"",""5"",""26306""
""fullscreenexit"",""6"",""38519""
""blur"",""6"",""40760""
""focus"",""6"",""42694""
","""event"",""trial"",""time""
""blur"",""6"",""40760""
","""event"",""trial"",""time""
""focus"",""6"",""42694""
","""event"",""trial"",""time""
""fullscreenenter"",""5"",""26306""
","""event"",""trial"",""time""
""fullscreenexit"",""6"",""38519""
",214.17499997187406,NA,48,NA,NA,3000,1,NA,NA,images/tutgreenplanet.jpg,images/tutalien2,images/tutalien1,images/tutrocket2,images/tutalien2,images/nothing.png,2,practice,true,2,common,0,2020-06-15T17:47:27Z,sub36
two-step-fixation,114,565926,0.0-61.0-2.17,TRUE,FALSE,FALSE,TRUE,"""event"",""trial"",""time""
""fullscreenenter"",""5"",""26306""
""fullscreenexit"",""6"",""38519""
""blur"",""6"",""40760""
""focus"",""6"",""42694""
","""event"",""trial"",""time""
""blur"",""6"",""40760""
","""event"",""trial"",""time""
""focus"",""6"",""42694""
","""event"",""trial"",""time""
""fullscreenenter"",""5"",""26306""
","""event"",""trial"",""time""
""fullscreenexit"",""6"",""38519""
",NA,images/earth.jpg,NA,NA,NA,NA,NA,NA,NA,NA,NA,NA,NA,NA,NA,fixation,NA,NA,NA,NA,NA,NA,sub36
d3-animate-choice,115,568336,0.0-61.0-0.18,TRUE,FALSE,FALSE,TRUE,"""event"",""trial"",""time""
""fullscreenenter"",""5"",""26306""
""fullscreenexit"",""6"",""38519""
""blur"",""6"",""40760""
""focus"",""6"",""42694""
","""event"",""trial"",""time""
""blur"",""6"",""40760""
","""event"",""trial"",""time""
""focus"",""6"",""42694""
","""event"",""trial"",""time""
""fullscreenenter"",""5"",""26306""
","""event"",""trial"",""time""
""fullscreenexit"",""6"",""38519""
",400.7650000276044,NA,48,NA,NA,3000,1,NA,NA,images/earth.jpg,images/tutrocket1,images/tutrocket2,null,images/tutrocket1,NA,1,practice,null,2,NA,NA,NA,sub36
d3-animate-choice,116,570664,0.0-61.0-1.18,TRUE,FALSE,FALSE,TRUE,"""event"",""trial"",""time""
""fullscreenenter"",""5"",""26306""
""fullscreenexit"",""6"",""38519""
""blur"",""6"",""40760""
""focus"",""6"",""42694""
","""event"",""trial"",""time""
""blur"",""6"",""40760""
","""event"",""trial"",""time""
""focus"",""6"",""42694""
","""event"",""trial"",""time""
""fullscreenenter"",""5"",""26306""
","""event"",""trial"",""time""
""fullscreenexit"",""6"",""38519""
",319.6800000150688,NA,48,NA,NA,3000,1,NA,NA,images/tutyellowplanet.jpg,images/tutalien4,images/tutalien3,images/tutrocket1,images/tutalien4,images/nothing.png,2,practice,true,2,common,0,2020-06-15T17:47:32Z,sub36
two-step-fixation,117,571671,0.0-61.0-2.18,TRUE,FALSE,FALSE,TRUE,"""event"",""trial"",""time""
""fullscreenenter"",""5"",""26306""
""fullscreenexit"",""6"",""38519""
""blur"",""6"",""40760""
""focus"",""6"",""42694""
","""event"",""trial"",""time""
""blur"",""6"",""40760""
","""event"",""trial"",""time""
""focus"",""6"",""42694""
","""event"",""trial"",""time""
""fullscreenenter"",""5"",""26306""
","""event"",""trial"",""time""
""fullscreenexit"",""6"",""38519""
",NA,images/earth.jpg,NA,NA,NA,NA,NA,NA,NA,NA,NA,NA,NA,NA,NA,fixation,NA,NA,NA,NA,NA,NA,sub36
d3-animate-choice,118,574054,0.0-61.0-0.19,TRUE,FALSE,FALSE,TRUE,"""event"",""trial"",""time""
""fullscreenenter"",""5"",""26306""
""fullscreenexit"",""6"",""38519""
""blur"",""6"",""40760""
""focus"",""6"",""42694""
","""event"",""trial"",""time""
""blur"",""6"",""40760""
","""event"",""trial"",""time""
""focus"",""6"",""42694""
","""event"",""trial"",""time""
""fullscreenenter"",""5"",""26306""
","""event"",""trial"",""time""
""fullscreenexit"",""6"",""38519""
",375.9200000204146,NA,49,NA,NA,3000,1,1912.8400000045076,49,images/earth.jpg,images/tutrocket1,images/tutrocket2,null,images/tutrocket2,NA,1,practice,null,1,NA,NA,NA,sub36
d3-animate-choice,119,576425,0.0-61.0-1.19,TRUE,FALSE,FALSE,TRUE,"""event"",""trial"",""time""
""fullscreenenter"",""5"",""26306""
""fullscreenexit"",""6"",""38519""
""blur"",""6"",""40760""
""focus"",""6"",""42694""
","""event"",""trial"",""time""
""blur"",""6"",""40760""
","""event"",""trial"",""time""
""focus"",""6"",""42694""
","""event"",""trial"",""time""
""fullscreenenter"",""5"",""26306""
","""event"",""trial"",""time""
""fullscreenexit"",""6"",""38519""
",361.65999999502674,NA,49,NA,NA,3000,1,NA,NA,images/tutgreenplanet.jpg,images/tutalien2,images/tutalien1,images/tutrocket2,images/tutalien1,images/nothing.png,2,practice,true,1,common,0,2020-06-15T17:47:38Z,sub36
two-step-fixation,120,577433,0.0-61.0-2.19,TRUE,FALSE,FALSE,TRUE,"""event"",""trial"",""time""
""fullscreenenter"",""5"",""26306""
""fullscreenexit"",""6"",""38519""
""blur"",""6"",""40760""
""focus"",""6"",""42694""
","""event"",""trial"",""time""
""blur"",""6"",""40760""
","""event"",""trial"",""time""
""focus"",""6"",""42694""
","""event"",""trial"",""time""
""fullscreenenter"",""5"",""26306""
","""event"",""trial"",""time""
""fullscreenexit"",""6"",""38519""
",NA,images/earth.jpg,NA,NA,NA,NA,NA,NA,NA,NA,NA,NA,NA,NA,NA,fixation,NA,NA,NA,NA,NA,NA,sub36
d3-instructions,121,585732,0.0-62.0,TRUE,FALSE,FALSE,TRUE,"""event"",""trial"",""time""
""fullscreenenter"",""5"",""26306""
""fullscreenexit"",""6"",""38519""
""blur"",""6"",""40760""
""focus"",""6"",""42694""
","""event"",""trial"",""time""
""blur"",""6"",""40760""
","""event"",""trial"",""time""
""focus"",""6"",""42694""
","""event"",""trial"",""time""
""fullscreenenter"",""5"",""26306""
","""event"",""trial"",""time""
""fullscreenexit"",""6"",""38519""
",NA,NA,NA,NA,NA,NA,NA,NA,NA,NA,NA,NA,NA,NA,NA,NA,NA,NA,NA,NA,NA,NA,sub36
audio-keyboard-response,122,590798,0.0-63.0,TRUE,FALSE,FALSE,TRUE,"""event"",""trial"",""time""
""fullscreenenter"",""5"",""26306""
""fullscreenexit"",""6"",""38519""
""blur"",""6"",""40760""
""focus"",""6"",""42694""
","""event"",""trial"",""time""
""blur"",""6"",""40760""
","""event"",""trial"",""time""
""focus"",""6"",""42694""
","""event"",""trial"",""time""
""fullscreenenter"",""5"",""26306""
","""event"",""trial"",""time""
""fullscreenexit"",""6"",""38519""
",5059,audio/instructions/treasure_feedback.wav,32,NA,NA,NA,NA,NA,NA,NA,NA,NA,NA,NA,NA,NA,NA,NA,NA,NA,NA,NA,sub36
d3-instructions,123,609246,0.0-64.0,TRUE,FALSE,FALSE,TRUE,"""event"",""trial"",""time""
""fullscreenenter"",""5"",""26306""
""fullscreenexit"",""6"",""38519""
""blur"",""6"",""40760""
""focus"",""6"",""42694""
","""event"",""trial"",""time""
""blur"",""6"",""40760""
","""event"",""trial"",""time""
""focus"",""6"",""42694""
","""event"",""trial"",""time""
""fullscreenenter"",""5"",""26306""
","""event"",""trial"",""time""
""fullscreenexit"",""6"",""38519""
",NA,NA,NA,NA,NA,NA,NA,NA,NA,NA,NA,NA,NA,NA,NA,NA,NA,NA,NA,NA,NA,NA,sub36
d3-instructions,124,621988,0.0-65.0,TRUE,FALSE,FALSE,TRUE,"""event"",""trial"",""time""
""fullscreenenter"",""5"",""26306""
""fullscreenexit"",""6"",""38519""
""blur"",""6"",""40760""
""focus"",""6"",""42694""
","""event"",""trial"",""time""
""blur"",""6"",""40760""
","""event"",""trial"",""time""
""focus"",""6"",""42694""
","""event"",""trial"",""time""
""fullscreenenter"",""5"",""26306""
","""event"",""trial"",""time""
""fullscreenexit"",""6"",""38519""
",NA,NA,NA,NA,NA,NA,NA,NA,NA,NA,NA,NA,NA,NA,NA,NA,NA,NA,NA,NA,NA,NA,sub36
d3-instructions,125,649262,0.0-66.0,TRUE,FALSE,FALSE,TRUE,"""event"",""trial"",""time""
""fullscreenenter"",""5"",""26306""
""fullscreenexit"",""6"",""38519""
""blur"",""6"",""40760""
""focus"",""6"",""42694""
","""event"",""trial"",""time""
""blur"",""6"",""40760""
","""event"",""trial"",""time""
""focus"",""6"",""42694""
","""event"",""trial"",""time""
""fullscreenenter"",""5"",""26306""
","""event"",""trial"",""time""
""fullscreenexit"",""6"",""38519""
",NA,NA,NA,NA,NA,NA,NA,NA,NA,NA,NA,NA,NA,NA,NA,NA,NA,NA,NA,NA,NA,NA,sub36
d3-instructions,126,667031,0.0-67.0,TRUE,FALSE,FALSE,TRUE,"""event"",""trial"",""time""
""fullscreenenter"",""5"",""26306""
""fullscreenexit"",""6"",""38519""
""blur"",""6"",""40760""
""focus"",""6"",""42694""
","""event"",""trial"",""time""
""blur"",""6"",""40760""
","""event"",""trial"",""time""
""focus"",""6"",""42694""
","""event"",""trial"",""time""
""fullscreenenter"",""5"",""26306""
","""event"",""trial"",""time""
""fullscreenexit"",""6"",""38519""
",NA,NA,NA,NA,NA,NA,NA,NA,NA,NA,NA,NA,NA,NA,NA,NA,NA,NA,NA,NA,NA,NA,sub36
d3-instructions,127,677141,0.0-68.0,TRUE,FALSE,FALSE,TRUE,"""event"",""trial"",""time""
""fullscreenenter"",""5"",""26306""
""fullscreenexit"",""6"",""38519""
""blur"",""6"",""40760""
""focus"",""6"",""42694""
","""event"",""trial"",""time""
""blur"",""6"",""40760""
","""event"",""trial"",""time""
""focus"",""6"",""42694""
","""event"",""trial"",""time""
""fullscreenenter"",""5"",""26306""
","""event"",""trial"",""time""
""fullscreenexit"",""6"",""38519""
",NA,NA,NA,NA,NA,NA,NA,NA,NA,NA,NA,NA,NA,NA,NA,NA,NA,NA,NA,NA,NA,NA,sub36
instructions-quiz,128,682936,0.0-69.0,TRUE,FALSE,FALSE,TRUE,"""event"",""trial"",""time""
""fullscreenenter"",""5"",""26306""
""fullscreenexit"",""6"",""38519""
""blur"",""6"",""40760""
""focus"",""6"",""42694""
","""event"",""trial"",""time""
""blur"",""6"",""40760""
","""event"",""trial"",""time""
""focus"",""6"",""42694""
","""event"",""trial"",""time""
""fullscreenenter"",""5"",""26306""
","""event"",""trial"",""time""
""fullscreenexit"",""6"",""38519""
",5790.984999970533,audio/quiz/Q1_Prompt.wav,NA,1,NA,NA,NA,NA,NA,NA,NA,NA,NA,NA,NA,NA,NA,NA,NA,NA,NA,NA,sub36
audio-keyboard-response,129,692107,0.0-70.0,TRUE,FALSE,FALSE,TRUE,"""event"",""trial"",""time""
""fullscreenenter"",""5"",""26306""
""fullscreenexit"",""6"",""38519""
""blur"",""6"",""40760""
""focus"",""6"",""42694""
","""event"",""trial"",""time""
""blur"",""6"",""40760""
","""event"",""trial"",""time""
""focus"",""6"",""42694""
","""event"",""trial"",""time""
""fullscreenenter"",""5"",""26306""
","""event"",""trial"",""time""
""fullscreenexit"",""6"",""38519""
",null,audio/quiz/Q1_Correct.wav,null,NA,NA,NA,NA,NA,NA,NA,NA,NA,NA,NA,NA,NA,NA,NA,NA,NA,NA,NA,sub36
instructions-quiz,130,700071,0.0-71.0,TRUE,FALSE,FALSE,TRUE,"""event"",""trial"",""time""
""fullscreenenter"",""5"",""26306""
""fullscreenexit"",""6"",""38519""
""blur"",""6"",""40760""
""focus"",""6"",""42694""
","""event"",""trial"",""time""
""blur"",""6"",""40760""
","""event"",""trial"",""time""
""focus"",""6"",""42694""
","""event"",""trial"",""time""
""fullscreenenter"",""5"",""26306""
","""event"",""trial"",""time""
""fullscreenexit"",""6"",""38519""
",7961.914999992587,audio/quiz/Q2_Prompt.wav,NA,0,NA,NA,NA,NA,NA,NA,NA,NA,NA,NA,NA,NA,NA,NA,NA,NA,NA,NA,sub36
audio-keyboard-response,131,712938,0.0-72.0,TRUE,FALSE,FALSE,TRUE,"""event"",""trial"",""time""
""fullscreenenter"",""5"",""26306""
""fullscreenexit"",""6"",""38519""
""blur"",""6"",""40760""
""focus"",""6"",""42694""
","""event"",""trial"",""time""
""blur"",""6"",""40760""
","""event"",""trial"",""time""
""focus"",""6"",""42694""
","""event"",""trial"",""time""
""fullscreenenter"",""5"",""26306""
","""event"",""trial"",""time""
""fullscreenexit"",""6"",""38519""
",null,audio/quiz/Q2_Correct.wav,null,NA,NA,NA,NA,NA,NA,NA,NA,NA,NA,NA,NA,NA,NA,NA,NA,NA,NA,NA,sub36
instructions-quiz,132,716704,0.0-73.0,TRUE,FALSE,FALSE,TRUE,"""event"",""trial"",""time""
""fullscreenenter"",""5"",""26306""
""fullscreenexit"",""6"",""38519""
""blur"",""6"",""40760""
""focus"",""6"",""42694""
","""event"",""trial"",""time""
""blur"",""6"",""40760""
","""event"",""trial"",""time""
""focus"",""6"",""42694""
","""event"",""trial"",""time""
""fullscreenenter"",""5"",""26306""
","""event"",""trial"",""time""
""fullscreenexit"",""6"",""38519""
",3763.5250000166707,audio/quiz/Q3_Prompt.wav,NA,1,NA,NA,NA,NA,NA,NA,NA,NA,NA,NA,NA,NA,NA,NA,NA,NA,NA,NA,sub36
audio-keyboard-response,133,722497,0.0-74.0,TRUE,FALSE,FALSE,TRUE,"""event"",""trial"",""time""
""fullscreenenter"",""5"",""26306""
""fullscreenexit"",""6"",""38519""
""blur"",""6"",""40760""
""focus"",""6"",""42694""
","""event"",""trial"",""time""
""blur"",""6"",""40760""
","""event"",""trial"",""time""
""focus"",""6"",""42694""
","""event"",""trial"",""time""
""fullscreenenter"",""5"",""26306""
","""event"",""trial"",""time""
""fullscreenexit"",""6"",""38519""
",null,audio/quiz/Q3_Correct.wav,null,NA,NA,NA,NA,NA,NA,NA,NA,NA,NA,NA,NA,NA,NA,NA,NA,NA,NA,NA,sub36
d3-instructions,134,738125,0.0-75.0,TRUE,FALSE,FALSE,TRUE,"""event"",""trial"",""time""
""fullscreenenter"",""5"",""26306""
""fullscreenexit"",""6"",""38519""
""blur"",""6"",""40760""
""focus"",""6"",""42694""
","""event"",""trial"",""time""
""blur"",""6"",""40760""
","""event"",""trial"",""time""
""focus"",""6"",""42694""
","""event"",""trial"",""time""
""fullscreenenter"",""5"",""26306""
","""event"",""trial"",""time""
""fullscreenexit"",""6"",""38519""
",NA,NA,NA,NA,NA,NA,NA,NA,NA,NA,NA,NA,NA,NA,NA,NA,NA,NA,NA,NA,NA,NA,sub36
d3-animate-choice,135,741352,0.0-76.0-0.0,TRUE,FALSE,FALSE,TRUE,"""event"",""trial"",""time""
""fullscreenenter"",""5"",""26306""
""fullscreenexit"",""6"",""38519""
""blur"",""6"",""40760""
""focus"",""6"",""42694""
","""event"",""trial"",""time""
""blur"",""6"",""40760""
","""event"",""trial"",""time""
""focus"",""6"",""42694""
","""event"",""trial"",""time""
""fullscreenenter"",""5"",""26306""
","""event"",""trial"",""time""
""fullscreenexit"",""6"",""38519""
",1215.6499999691732,NA,49,NA,NA,3000,1,NA,NA,images/earth.jpg,images/rocket2,images/rocket1,null,images/rocket1,NA,1,real,null,1,NA,NA,NA,sub36
d3-animate-choice,136,744063,0.0-76.0-1.0,TRUE,FALSE,FALSE,TRUE,"""event"",""trial"",""time""
""fullscreenenter"",""5"",""26306""
""fullscreenexit"",""6"",""38519""
""blur"",""6"",""40760""
""focus"",""6"",""42694""
","""event"",""trial"",""time""
""blur"",""6"",""40760""
","""event"",""trial"",""time""
""focus"",""6"",""42694""
","""event"",""trial"",""time""
""fullscreenenter"",""5"",""26306""
","""event"",""trial"",""time""
""fullscreenexit"",""6"",""38519""
",703.3550000051036,NA,49,NA,NA,3000,1,NA,NA,images/redplanet1.jpg,images/alien2,images/alien1,images/rocket1,images/alien1,images/t.png,2,real,false,1,rare,1,2020-06-15T17:50:26Z,sub36
two-step-fixation,137,745071,0.0-76.0-2.0,TRUE,FALSE,FALSE,TRUE,"""event"",""trial"",""time""
""fullscreenenter"",""5"",""26306""
""fullscreenexit"",""6"",""38519""
""blur"",""6"",""40760""
""focus"",""6"",""42694""
","""event"",""trial"",""time""
""blur"",""6"",""40760""
","""event"",""trial"",""time""
""focus"",""6"",""42694""
","""event"",""trial"",""time""
""fullscreenenter"",""5"",""26306""
","""event"",""trial"",""time""
""fullscreenexit"",""6"",""38519""
",NA,images/earth.jpg,NA,NA,NA,NA,NA,NA,NA,NA,NA,NA,NA,NA,NA,fixation,NA,NA,NA,NA,NA,NA,sub36
d3-animate-choice,138,747625,0.0-76.0-0.1,TRUE,FALSE,FALSE,TRUE,"""event"",""trial"",""time""
""fullscreenenter"",""5"",""26306""
""fullscreenexit"",""6"",""38519""
""blur"",""6"",""40760""
""focus"",""6"",""42694""
","""event"",""trial"",""time""
""blur"",""6"",""40760""
","""event"",""trial"",""time""
""focus"",""6"",""42694""
","""event"",""trial"",""time""
""fullscreenenter"",""5"",""26306""
","""event"",""trial"",""time""
""fullscreenexit"",""6"",""38519""
",544.1800000262447,NA,49,NA,NA,3000,1,NA,NA,images/earth.jpg,images/rocket2,images/rocket1,null,images/rocket1,NA,1,real,null,1,NA,NA,NA,sub36
d3-animate-choice,139,750974,0.0-76.0-1.1,TRUE,FALSE,FALSE,TRUE,"""event"",""trial"",""time""
""fullscreenenter"",""5"",""26306""
""fullscreenexit"",""6"",""38519""
""blur"",""6"",""40760""
""focus"",""6"",""42694""
","""event"",""trial"",""time""
""blur"",""6"",""40760""
","""event"",""trial"",""time""
""focus"",""6"",""42694""
","""event"",""trial"",""time""
""fullscreenenter"",""5"",""26306""
","""event"",""trial"",""time""
""fullscreenexit"",""6"",""38519""
",1341.1549999727868,NA,49,NA,NA,3000,1,NA,NA,images/purpleplanet.jpg,images/alien4,images/alien3,images/rocket1,images/alien3,images/t.png,2,real,true,1,common,1,2020-06-15T17:50:33Z,sub36
two-step-fixation,140,751981,0.0-76.0-2.1,TRUE,FALSE,FALSE,TRUE,"""event"",""trial"",""time""
""fullscreenenter"",""5"",""26306""
""fullscreenexit"",""6"",""38519""
""blur"",""6"",""40760""
""focus"",""6"",""42694""
","""event"",""trial"",""time""
""blur"",""6"",""40760""
","""event"",""trial"",""time""
""focus"",""6"",""42694""
","""event"",""trial"",""time""
""fullscreenenter"",""5"",""26306""
","""event"",""trial"",""time""
""fullscreenexit"",""6"",""38519""
",NA,images/earth.jpg,NA,NA,NA,NA,NA,NA,NA,NA,NA,NA,NA,NA,NA,fixation,NA,NA,NA,NA,NA,NA,sub36
d3-animate-choice,141,754790,0.0-76.0-0.2,TRUE,FALSE,FALSE,TRUE,"""event"",""trial"",""time""
""fullscreenenter"",""5"",""26306""
""fullscreenexit"",""6"",""38519""
""blur"",""6"",""40760""
""focus"",""6"",""42694""
","""event"",""trial"",""time""
""blur"",""6"",""40760""
","""event"",""trial"",""time""
""focus"",""6"",""42694""
","""event"",""trial"",""time""
""fullscreenenter"",""5"",""26306""
","""event"",""trial"",""time""
""fullscreenexit"",""6"",""38519""
",801.7999999574386,NA,49,NA,NA,3000,1,NA,NA,images/earth.jpg,images/rocket2,images/rocket1,null,images/rocket1,NA,1,real,null,1,NA,NA,NA,sub36
d3-animate-choice,142,758031,0.0-76.0-1.2,TRUE,FALSE,FALSE,TRUE,"""event"",""trial"",""time""
""fullscreenenter"",""5"",""26306""
""fullscreenexit"",""6"",""38519""
""blur"",""6"",""40760""
""focus"",""6"",""42694""
","""event"",""trial"",""time""
""blur"",""6"",""40760""
","""event"",""trial"",""time""
""focus"",""6"",""42694""
","""event"",""trial"",""time""
""fullscreenenter"",""5"",""26306""
","""event"",""trial"",""time""
""fullscreenexit"",""6"",""38519""
",1234.6499999985099,NA,49,NA,NA,3000,1,NA,NA,images/purpleplanet.jpg,images/alien4,images/alien3,images/rocket1,images/alien3,images/nothing.png,2,real,true,1,common,0,2020-06-15T17:50:40Z,sub36
two-step-fixation,143,759039,0.0-76.0-2.2,TRUE,FALSE,FALSE,TRUE,"""event"",""trial"",""time""
""fullscreenenter"",""5"",""26306""
""fullscreenexit"",""6"",""38519""
""blur"",""6"",""40760""
""focus"",""6"",""42694""
","""event"",""trial"",""time""
""blur"",""6"",""40760""
","""event"",""trial"",""time""
""focus"",""6"",""42694""
","""event"",""trial"",""time""
""fullscreenenter"",""5"",""26306""
","""event"",""trial"",""time""
""fullscreenexit"",""6"",""38519""
",NA,images/earth.jpg,NA,NA,NA,NA,NA,NA,NA,NA,NA,NA,NA,NA,NA,fixation,NA,NA,NA,NA,NA,NA,sub36
d3-animate-choice,144,761505,0.0-76.0-0.3,TRUE,FALSE,FALSE,TRUE,"""event"",""trial"",""time""
""fullscreenenter"",""5"",""26306""
""fullscreenexit"",""6"",""38519""
""blur"",""6"",""40760""
""focus"",""6"",""42694""
","""event"",""trial"",""time""
""blur"",""6"",""40760""
","""event"",""trial"",""time""
""focus"",""6"",""42694""
","""event"",""trial"",""time""
""fullscreenenter"",""5"",""26306""
","""event"",""trial"",""time""
""fullscreenexit"",""6"",""38519""
",457.45499996701255,NA,48,NA,NA,3000,1,NA,NA,images/earth.jpg,images/rocket2,images/rocket1,null,images/rocket2,NA,1,real,null,2,NA,NA,NA,sub36
d3-animate-choice,145,764367,0.0-76.0-1.3,TRUE,FALSE,FALSE,TRUE,"""event"",""trial"",""time""
""fullscreenenter"",""5"",""26306""
""fullscreenexit"",""6"",""38519""
""blur"",""6"",""40760""
""focus"",""6"",""42694""
","""event"",""trial"",""time""
""blur"",""6"",""40760""
","""event"",""trial"",""time""
""focus"",""6"",""42694""
","""event"",""trial"",""time""
""fullscreenenter"",""5"",""26306""
","""event"",""trial"",""time""
""fullscreenexit"",""6"",""38519""
",853.449999995064,NA,48,NA,NA,3000,1,NA,NA,images/redplanet1.jpg,images/alien2,images/alien1,images/rocket2,images/alien2,images/t.png,2,real,true,2,common,1,2020-06-15T17:50:46Z,sub36
two-step-fixation,146,765373,0.0-76.0-2.3,TRUE,FALSE,FALSE,TRUE,"""event"",""trial"",""time""
""fullscreenenter"",""5"",""26306""
""fullscreenexit"",""6"",""38519""
""blur"",""6"",""40760""
""focus"",""6"",""42694""
","""event"",""trial"",""time""
""blur"",""6"",""40760""
","""event"",""trial"",""time""
""focus"",""6"",""42694""
","""event"",""trial"",""time""
""fullscreenenter"",""5"",""26306""
","""event"",""trial"",""time""
""fullscreenexit"",""6"",""38519""
",NA,images/earth.jpg,NA,NA,NA,NA,NA,NA,NA,NA,NA,NA,NA,NA,NA,fixation,NA,NA,NA,NA,NA,NA,sub36
d3-animate-choice,147,768022,0.0-76.0-0.4,TRUE,FALSE,FALSE,TRUE,"""event"",""trial"",""time""
""fullscreenenter"",""5"",""26306""
""fullscreenexit"",""6"",""38519""
""blur"",""6"",""40760""
""focus"",""6"",""42694""
","""event"",""trial"",""time""
""blur"",""6"",""40760""
","""event"",""trial"",""time""
""focus"",""6"",""42694""
","""event"",""trial"",""time""
""fullscreenenter"",""5"",""26306""
","""event"",""trial"",""time""
""fullscreenexit"",""6"",""38519""
",641.3949999841861,NA,48,NA,NA,3000,1,NA,NA,images/earth.jpg,images/rocket2,images/rocket1,null,images/rocket2,NA,1,real,null,2,NA,NA,NA,sub36
d3-animate-choice,148,770526,0.0-76.0-1.4,TRUE,FALSE,FALSE,TRUE,"""event"",""trial"",""time""
""fullscreenenter"",""5"",""26306""
""fullscreenexit"",""6"",""38519""
""blur"",""6"",""40760""
""focus"",""6"",""42694""
","""event"",""trial"",""time""
""blur"",""6"",""40760""
","""event"",""trial"",""time""
""focus"",""6"",""42694""
","""event"",""trial"",""time""
""fullscreenenter"",""5"",""26306""
","""event"",""trial"",""time""
""fullscreenexit"",""6"",""38519""
",496.5000000083819,NA,48,NA,NA,3000,1,NA,NA,images/redplanet1.jpg,images/alien2,images/alien1,images/rocket2,images/alien2,images/t.png,2,real,true,2,common,1,2020-06-15T17:50:52Z,sub36
two-step-fixation,149,771528,0.0-76.0-2.4,TRUE,FALSE,FALSE,TRUE,"""event"",""trial"",""time""
""fullscreenenter"",""5"",""26306""
""fullscreenexit"",""6"",""38519""
""blur"",""6"",""40760""
""focus"",""6"",""42694""
","""event"",""trial"",""time""
""blur"",""6"",""40760""
","""event"",""trial"",""time""
""focus"",""6"",""42694""
","""event"",""trial"",""time""
""fullscreenenter"",""5"",""26306""
","""event"",""trial"",""time""
""fullscreenexit"",""6"",""38519""
",NA,images/earth.jpg,NA,NA,NA,NA,NA,NA,NA,NA,NA,NA,NA,NA,NA,fixation,NA,NA,NA,NA,NA,NA,sub36
d3-animate-choice,150,773894,0.0-76.0-0.5,TRUE,FALSE,FALSE,TRUE,"""event"",""trial"",""time""
""fullscreenenter"",""5"",""26306""
""fullscreenexit"",""6"",""38519""
""blur"",""6"",""40760""
""focus"",""6"",""42694""
","""event"",""trial"",""time""
""blur"",""6"",""40760""
","""event"",""trial"",""time""
""focus"",""6"",""42694""
","""event"",""trial"",""time""
""fullscreenenter"",""5"",""26306""
","""event"",""trial"",""time""
""fullscreenexit"",""6"",""38519""
",359.34000002453104,NA,48,NA,NA,3000,1,NA,NA,images/earth.jpg,images/rocket2,images/rocket1,null,images/rocket2,NA,1,real,null,2,NA,NA,NA,sub36
d3-animate-choice,151,777334,0.0-76.0-1.5,TRUE,FALSE,FALSE,TRUE,"""event"",""trial"",""time""
""fullscreenenter"",""5"",""26306""
""fullscreenexit"",""6"",""38519""
""blur"",""6"",""40760""
""focus"",""6"",""42694""
","""event"",""trial"",""time""
""blur"",""6"",""40760""
","""event"",""trial"",""time""
""focus"",""6"",""42694""
","""event"",""trial"",""time""
""fullscreenenter"",""5"",""26306""
","""event"",""trial"",""time""
""fullscreenexit"",""6"",""38519""
",1431.2950000166893,NA,49,NA,NA,3000,1,NA,NA,images/purpleplanet.jpg,images/alien4,images/alien3,images/rocket2,images/alien3,images/t.png,2,real,false,1,rare,1,2020-06-15T17:50:59Z,sub36
two-step-fixation,152,778341,0.0-76.0-2.5,TRUE,FALSE,FALSE,TRUE,"""event"",""trial"",""time""
""fullscreenenter"",""5"",""26306""
""fullscreenexit"",""6"",""38519""
""blur"",""6"",""40760""
""focus"",""6"",""42694""
","""event"",""trial"",""time""
""blur"",""6"",""40760""
","""event"",""trial"",""time""
""focus"",""6"",""42694""
","""event"",""trial"",""time""
""fullscreenenter"",""5"",""26306""
","""event"",""trial"",""time""
""fullscreenexit"",""6"",""38519""
",NA,images/earth.jpg,NA,NA,NA,NA,NA,NA,NA,NA,NA,NA,NA,NA,NA,fixation,NA,NA,NA,NA,NA,NA,sub36
d3-animate-choice,153,780870,0.0-76.0-0.6,TRUE,FALSE,FALSE,TRUE,"""event"",""trial"",""time""
""fullscreenenter"",""5"",""26306""
""fullscreenexit"",""6"",""38519""
""blur"",""6"",""40760""
""focus"",""6"",""42694""
","""event"",""trial"",""time""
""blur"",""6"",""40760""
","""event"",""trial"",""time""
""focus"",""6"",""42694""
","""event"",""trial"",""time""
""fullscreenenter"",""5"",""26306""
","""event"",""trial"",""time""
""fullscreenexit"",""6"",""38519""
",522.2399999620393,NA,48,NA,NA,3000,1,NA,NA,images/earth.jpg,images/rocket2,images/rocket1,null,images/rocket2,NA,1,real,null,2,NA,NA,NA,sub36
d3-animate-choice,154,783693,0.0-76.0-1.6,TRUE,FALSE,FALSE,TRUE,"""event"",""trial"",""time""
""fullscreenenter"",""5"",""26306""
""fullscreenexit"",""6"",""38519""
""blur"",""6"",""40760""
""focus"",""6"",""42694""
","""event"",""trial"",""time""
""blur"",""6"",""40760""
","""event"",""trial"",""time""
""focus"",""6"",""42694""
","""event"",""trial"",""time""
""fullscreenenter"",""5"",""26306""
","""event"",""trial"",""time""
""fullscreenexit"",""6"",""38519""
",815.9100000048056,NA,48,NA,NA,3000,1,NA,NA,images/redplanet1.jpg,images/alien2,images/alien1,images/rocket2,images/alien2,images/t.png,2,real,true,2,common,1,2020-06-15T17:51:05Z,sub36
two-step-fixation,155,784703,0.0-76.0-2.6,TRUE,FALSE,FALSE,TRUE,"""event"",""trial"",""time""
""fullscreenenter"",""5"",""26306""
""fullscreenexit"",""6"",""38519""
""blur"",""6"",""40760""
""focus"",""6"",""42694""
","""event"",""trial"",""time""
""blur"",""6"",""40760""
","""event"",""trial"",""time""
""focus"",""6"",""42694""
","""event"",""trial"",""time""
""fullscreenenter"",""5"",""26306""
","""event"",""trial"",""time""
""fullscreenexit"",""6"",""38519""
",NA,images/earth.jpg,NA,NA,NA,NA,NA,NA,NA,NA,NA,NA,NA,NA,NA,fixation,NA,NA,NA,NA,NA,NA,sub36
d3-animate-choice,156,787103,0.0-76.0-0.7,TRUE,FALSE,FALSE,TRUE,"""event"",""trial"",""time""
""fullscreenenter"",""5"",""26306""
""fullscreenexit"",""6"",""38519""
""blur"",""6"",""40760""
""focus"",""6"",""42694""
","""event"",""trial"",""time""
""blur"",""6"",""40760""
","""event"",""trial"",""time""
""focus"",""6"",""42694""
","""event"",""trial"",""time""
""fullscreenenter"",""5"",""26306""
","""event"",""trial"",""time""
""fullscreenexit"",""6"",""38519""
",391.9499999610707,NA,48,NA,NA,3000,1,NA,NA,images/earth.jpg,images/rocket2,images/rocket1,null,images/rocket2,NA,1,real,null,2,NA,NA,NA,sub36
d3-animate-choice,157,789854,0.0-76.0-1.7,TRUE,FALSE,FALSE,TRUE,"""event"",""trial"",""time""
""fullscreenenter"",""5"",""26306""
""fullscreenexit"",""6"",""38519""
""blur"",""6"",""40760""
""focus"",""6"",""42694""
","""event"",""trial"",""time""
""blur"",""6"",""40760""
","""event"",""trial"",""time""
""focus"",""6"",""42694""
","""event"",""trial"",""time""
""fullscreenenter"",""5"",""26306""
","""event"",""trial"",""time""
""fullscreenexit"",""6"",""38519""
",743.3949999976903,NA,48,NA,NA,3000,1,NA,NA,images/redplanet1.jpg,images/alien2,images/alien1,images/rocket2,images/alien2,images/nothing.png,2,real,true,2,common,0,2020-06-15T17:51:11Z,sub36
two-step-fixation,158,790861,0.0-76.0-2.7,TRUE,FALSE,FALSE,TRUE,"""event"",""trial"",""time""
""fullscreenenter"",""5"",""26306""
""fullscreenexit"",""6"",""38519""
""blur"",""6"",""40760""
""focus"",""6"",""42694""
","""event"",""trial"",""time""
""blur"",""6"",""40760""
","""event"",""trial"",""time""
""focus"",""6"",""42694""
","""event"",""trial"",""time""
""fullscreenenter"",""5"",""26306""
","""event"",""trial"",""time""
""fullscreenexit"",""6"",""38519""
",NA,images/earth.jpg,NA,NA,NA,NA,NA,NA,NA,NA,NA,NA,NA,NA,NA,fixation,NA,NA,NA,NA,NA,NA,sub36
d3-animate-choice,159,793160,0.0-76.0-0.8,TRUE,FALSE,FALSE,TRUE,"""event"",""trial"",""time""
""fullscreenenter"",""5"",""26306""
""fullscreenexit"",""6"",""38519""
""blur"",""6"",""40760""
""focus"",""6"",""42694""
","""event"",""trial"",""time""
""blur"",""6"",""40760""
","""event"",""trial"",""time""
""focus"",""6"",""42694""
","""event"",""trial"",""time""
""fullscreenenter"",""5"",""26306""
","""event"",""trial"",""time""
""fullscreenexit"",""6"",""38519""
",291.96499998215586,NA,49,NA,NA,3000,1,NA,NA,images/earth.jpg,images/rocket2,images/rocket1,null,images/rocket1,NA,1,real,null,1,NA,NA,NA,sub36
d3-animate-choice,160,795863,0.0-76.0-1.8,TRUE,FALSE,FALSE,TRUE,"""event"",""trial"",""time""
""fullscreenenter"",""5"",""26306""
""fullscreenexit"",""6"",""38519""
""blur"",""6"",""40760""
""focus"",""6"",""42694""
","""event"",""trial"",""time""
""blur"",""6"",""40760""
","""event"",""trial"",""time""
""focus"",""6"",""42694""
","""event"",""trial"",""time""
""fullscreenenter"",""5"",""26306""
","""event"",""trial"",""time""
""fullscreenexit"",""6"",""38519""
",695.3000000212342,NA,48,NA,NA,3000,1,NA,NA,images/purpleplanet.jpg,images/alien4,images/alien3,images/rocket1,images/alien4,images/t.png,2,real,true,2,common,1,2020-06-15T17:51:17Z,sub36
two-step-fixation,161,796870,0.0-76.0-2.8,TRUE,FALSE,FALSE,TRUE,"""event"",""trial"",""time""
""fullscreenenter"",""5"",""26306""
""fullscreenexit"",""6"",""38519""
""blur"",""6"",""40760""
""focus"",""6"",""42694""
","""event"",""trial"",""time""
""blur"",""6"",""40760""
","""event"",""trial"",""time""
""focus"",""6"",""42694""
","""event"",""trial"",""time""
""fullscreenenter"",""5"",""26306""
","""event"",""trial"",""time""
""fullscreenexit"",""6"",""38519""
",NA,images/earth.jpg,NA,NA,NA,NA,NA,NA,NA,NA,NA,NA,NA,NA,NA,fixation,NA,NA,NA,NA,NA,NA,sub36
d3-animate-choice,162,800110,0.0-76.0-0.9,TRUE,FALSE,FALSE,TRUE,"""event"",""trial"",""time""
""fullscreenenter"",""5"",""26306""
""fullscreenexit"",""6"",""38519""
""blur"",""6"",""40760""
""focus"",""6"",""42694""
","""event"",""trial"",""time""
""blur"",""6"",""40760""
","""event"",""trial"",""time""
""focus"",""6"",""42694""
","""event"",""trial"",""time""
""fullscreenenter"",""5"",""26306""
","""event"",""trial"",""time""
""fullscreenexit"",""6"",""38519""
",1233.6449999711476,NA,48,NA,NA,3000,1,NA,NA,images/earth.jpg,images/rocket2,images/rocket1,null,images/rocket2,NA,1,real,null,2,NA,NA,NA,sub36
d3-animate-choice,163,802902,0.0-76.0-1.9,TRUE,FALSE,FALSE,TRUE,"""event"",""trial"",""time""
""fullscreenenter"",""5"",""26306""
""fullscreenexit"",""6"",""38519""
""blur"",""6"",""40760""
""focus"",""6"",""42694""
","""event"",""trial"",""time""
""blur"",""6"",""40760""
","""event"",""trial"",""time""
""focus"",""6"",""42694""
","""event"",""trial"",""time""
""fullscreenenter"",""5"",""26306""
","""event"",""trial"",""time""
""fullscreenexit"",""6"",""38519""
",784.2149999924004,NA,49,NA,NA,3000,1,NA,NA,images/redplanet1.jpg,images/alien2,images/alien1,images/rocket2,images/alien1,images/nothing.png,2,real,true,1,common,0,2020-06-15T17:51:25Z,sub36
two-step-fixation,164,803911,0.0-76.0-2.9,TRUE,FALSE,FALSE,TRUE,"""event"",""trial"",""time""
""fullscreenenter"",""5"",""26306""
""fullscreenexit"",""6"",""38519""
""blur"",""6"",""40760""
""focus"",""6"",""42694""
","""event"",""trial"",""time""
""blur"",""6"",""40760""
","""event"",""trial"",""time""
""focus"",""6"",""42694""
","""event"",""trial"",""time""
""fullscreenenter"",""5"",""26306""
","""event"",""trial"",""time""
""fullscreenexit"",""6"",""38519""
",NA,images/earth.jpg,NA,NA,NA,NA,NA,NA,NA,NA,NA,NA,NA,NA,NA,fixation,NA,NA,NA,NA,NA,NA,sub36
d3-animate-choice,165,806214,0.0-76.0-0.10,TRUE,FALSE,FALSE,TRUE,"""event"",""trial"",""time""
""fullscreenenter"",""5"",""26306""
""fullscreenexit"",""6"",""38519""
""blur"",""6"",""40760""
""focus"",""6"",""42694""
","""event"",""trial"",""time""
""blur"",""6"",""40760""
","""event"",""trial"",""time""
""focus"",""6"",""42694""
","""event"",""trial"",""time""
""fullscreenenter"",""5"",""26306""
","""event"",""trial"",""time""
""fullscreenexit"",""6"",""38519""
",295.830000017304,NA,48,NA,NA,3000,1,NA,NA,images/earth.jpg,images/rocket2,images/rocket1,null,images/rocket2,NA,1,real,null,2,NA,NA,NA,sub36
d3-animate-choice,166,808662,0.0-76.0-1.10,TRUE,FALSE,FALSE,TRUE,"""event"",""trial"",""time""
""fullscreenenter"",""5"",""26306""
""fullscreenexit"",""6"",""38519""
""blur"",""6"",""40760""
""focus"",""6"",""42694""
