trial_type,trial_index,time_elapsed,internal_node_id,rocket_sides,red_planet_first_rocket,red_display_order,purple_display_order,interactions,blur_events,focus_events,fullscreenenter_events,fullscreenexit_events,rt,stimulus,key_press,button_pressed,success,duration,valid_pressed,rts,keys,planet_text,right_text,left_text,center_text,chosen_text,reward_text,trial_stage,practice_trial,transition_type,choice,transition,reward,timestamp,subject_id
pavlovia,0,5,0.0-0.0,TRUE,TRUE,TRUE,TRUE,"
","
","
","
","
",NA,NA,NA,NA,NA,NA,NA,NA,NA,NA,NA,NA,NA,NA,NA,NA,NA,NA,NA,NA,NA,NA,sub126
html-keyboard-response,1,1525,0.0-1.0,TRUE,TRUE,TRUE,TRUE,"
","
","
","
","
",1519.2049999022856,Welcome! Press the space bar to begin.,32,NA,NA,NA,NA,NA,NA,NA,NA,NA,NA,NA,NA,NA,NA,NA,NA,NA,NA,NA,sub126
audio-keyboard-response,2,5996,0.0-2.0,TRUE,TRUE,TRUE,TRUE,"
","
","
","
","
",4400,audio/beep_loop.wav,32,NA,NA,NA,NA,NA,NA,NA,NA,NA,NA,NA,NA,NA,NA,NA,NA,NA,NA,NA,sub126
audio-button-response,3,8917,0.0-3.0,TRUE,TRUE,TRUE,TRUE,"
","
","
","
","
",NaN,audio/fish.mp3,NA,1,NA,NA,NA,NA,NA,NA,NA,NA,NA,NA,NA,NA,NA,NA,NA,NA,NA,NA,sub126
audio-button-response,4,12007,0.0-4.0,TRUE,TRUE,TRUE,TRUE,"""event"",""trial"",""time""
""fullscreenenter"",""5"",""17435""
","
","
","""event"",""trial"",""time""
""fullscreenenter"",""5"",""17435""
","
",NaN,audio/tiger.mp3,NA,4,NA,NA,NA,NA,NA,NA,NA,NA,NA,NA,NA,NA,NA,NA,NA,NA,NA,NA,sub126
fullscreen,5,18407,0.0-5.0,TRUE,TRUE,TRUE,TRUE,"""event"",""trial"",""time""
""fullscreenenter"",""5"",""17435""
","
","
","""event"",""trial"",""time""
""fullscreenenter"",""5"",""17435""
","
",NA,NA,NA,NA,TRUE,NA,NA,NA,NA,NA,NA,NA,NA,NA,NA,NA,NA,NA,NA,NA,NA,NA,sub126
d3-instructions,6,31356,0.0-6.0,TRUE,TRUE,TRUE,TRUE,"""event"",""trial"",""time""
""fullscreenenter"",""5"",""17435""
","
","
","""event"",""trial"",""time""
""fullscreenenter"",""5"",""17435""
","
",NA,NA,NA,NA,NA,NA,NA,NA,NA,NA,NA,NA,NA,NA,NA,NA,NA,NA,NA,NA,NA,NA,sub126
d3-instructions,7,44048,0.0-7.0,TRUE,TRUE,TRUE,TRUE,"""event"",""trial"",""time""
""fullscreenenter"",""5"",""17435""
","
","
","""event"",""trial"",""time""
""fullscreenenter"",""5"",""17435""
","
",NA,NA,NA,NA,NA,NA,NA,NA,NA,NA,NA,NA,NA,NA,NA,NA,NA,NA,NA,NA,NA,NA,sub126
d3-instructions,8,50565,0.0-8.0,TRUE,TRUE,TRUE,TRUE,"""event"",""trial"",""time""
""fullscreenenter"",""5"",""17435""
","
","
","""event"",""trial"",""time""
""fullscreenenter"",""5"",""17435""
","
",NA,NA,NA,NA,NA,NA,NA,NA,NA,NA,NA,NA,NA,NA,NA,NA,NA,NA,NA,NA,NA,NA,sub126
d3-instructions,9,61402,0.0-9.0,TRUE,TRUE,TRUE,TRUE,"""event"",""trial"",""time""
""fullscreenenter"",""5"",""17435""
","
","
","""event"",""trial"",""time""
""fullscreenenter"",""5"",""17435""
","
",NA,NA,NA,NA,NA,NA,NA,NA,NA,NA,NA,NA,NA,NA,NA,NA,NA,NA,NA,NA,NA,NA,sub126
d3-instructions,10,82716,0.0-10.0,TRUE,TRUE,TRUE,TRUE,"""event"",""trial"",""time""
""fullscreenenter"",""5"",""17435""
","
","
","""event"",""trial"",""time""
""fullscreenenter"",""5"",""17435""
","
",NA,NA,NA,NA,NA,NA,NA,NA,NA,NA,NA,NA,NA,NA,NA,NA,NA,NA,NA,NA,NA,NA,sub126
d3-animate-choice,11,96260,0.0-11.0,TRUE,TRUE,TRUE,TRUE,"""event"",""trial"",""time""
""fullscreenenter"",""5"",""17435""
","
","
","""event"",""trial"",""time""
""fullscreenenter"",""5"",""17435""
","
",2183.9900000486523,NA,97,NA,NA,3000,1,"3633.0150000285357,4844.064999953844,5118.774999980815,5672.050000051968,5881.550000049174,6329.4300000416115,6716.909999959171,6791.1999999778345,6965.059999958612,7119.76000003051,7330.214999965392,8752.54000001587,9458.950000000186,9647.710000048392,9900.434999959543,10067.004999960773,10252.725000027567,10430.430000065826,11530.039999983273,13443.410000065342",9697969796979792e25,images/tutgreenplanet.jpg,images/tutalien1,images/tutalien2,null,images/tutalien2,NA,NA,practice,null,NA,NA,NA,NA,sub126
d3-animate-choice,12,99410,0.0-12.0,TRUE,TRUE,TRUE,TRUE,"""event"",""trial"",""time""
""fullscreenenter"",""5"",""17435""
","
","
","""event"",""trial"",""time""
""fullscreenenter"",""5"",""17435""
","
",1142.8999999770895,NA,49,NA,NA,3000,1,"1874.4449999649078,2645.299999974668,3129.674999974668",484849,images/tutgreenplanet.jpg,images/tutalien1,images/tutalien2,null,images/tutalien2,NA,NA,practice,null,NA,NA,NA,NA,sub126
d3-animate-choice,13,101948,0.0-13.0,TRUE,TRUE,TRUE,TRUE,"""event"",""trial"",""time""
""fullscreenenter"",""5"",""17435""
","
","
","""event"",""trial"",""time""
""fullscreenenter"",""5"",""17435""
","
",532.0350000401959,NA,48,NA,NA,3000,1,"1085.9150000615045,2389.7750000469387",4848,images/tutgreenplanet.jpg,images/tutalien1,images/tutalien2,null,images/tutalien1,NA,NA,practice,null,NA,NA,NA,NA,sub126
d3-animate-choice,14,104860,0.0-14.0,TRUE,TRUE,TRUE,TRUE,"""event"",""trial"",""time""
""fullscreenenter"",""5"",""17435""
","
","
","""event"",""trial"",""time""
""fullscreenenter"",""5"",""17435""
","
",906.3150000292808,NA,49,NA,NA,3000,1,1117.0050000073388,48,images/tutgreenplanet.jpg,images/tutalien1,images/tutalien2,null,images/tutalien2,NA,NA,practice,null,NA,NA,NA,NA,sub126
d3-instructions,15,113067,0.0-15.0,TRUE,TRUE,TRUE,TRUE,"""event"",""trial"",""time""
""fullscreenenter"",""5"",""17435""
","
","
","""event"",""trial"",""time""
""fullscreenenter"",""5"",""17435""
","
",NA,NA,NA,NA,NA,NA,NA,NA,NA,NA,NA,NA,NA,NA,NA,NA,NA,NA,NA,NA,NA,NA,sub126
d3-instructions,16,123687,0.0-16.0,TRUE,TRUE,TRUE,TRUE,"""event"",""trial"",""time""
""fullscreenenter"",""5"",""17435""
","
","
","""event"",""trial"",""time""
""fullscreenenter"",""5"",""17435""
","
",NA,NA,NA,NA,NA,NA,NA,NA,NA,NA,NA,NA,NA,NA,NA,NA,NA,NA,NA,NA,NA,NA,sub126
d3-instructions,17,131713,0.0-17.0,TRUE,TRUE,TRUE,TRUE,"""event"",""trial"",""time""
""fullscreenenter"",""5"",""17435""
","
","
","""event"",""trial"",""time""
""fullscreenenter"",""5"",""17435""
","
",NA,NA,NA,NA,NA,NA,NA,NA,NA,NA,NA,NA,NA,NA,NA,NA,NA,NA,NA,NA,NA,NA,sub126
d3-instructions,18,143302,0.0-18.0,TRUE,TRUE,TRUE,TRUE,"""event"",""trial"",""time""
""fullscreenenter"",""5"",""17435""
","
","
","""event"",""trial"",""time""
""fullscreenenter"",""5"",""17435""
","
",NA,NA,NA,NA,NA,NA,NA,NA,NA,NA,NA,NA,NA,NA,NA,NA,NA,NA,NA,NA,NA,NA,sub126
d3-instructions,19,157295,0.0-19.0,TRUE,TRUE,TRUE,TRUE,"""event"",""trial"",""time""
""fullscreenenter"",""5"",""17435""
","
","
","""event"",""trial"",""time""
""fullscreenenter"",""5"",""17435""
","
",NA,NA,NA,NA,NA,NA,NA,NA,NA,NA,NA,NA,NA,NA,NA,NA,NA,NA,NA,NA,NA,NA,sub126
d3-animate-choice,20,160050,0.0-20.0,TRUE,TRUE,TRUE,TRUE,"""event"",""trial"",""time""
""fullscreenenter"",""5"",""17435""
","
","
","""event"",""trial"",""time""
""fullscreenenter"",""5"",""17435""
","
",748.2849999796599,NA,49,NA,NA,3000,1,NA,NA,images/tutyellowplanet.jpg,null,images/tutalien3,null,images/tutalien3,images/t.png,NA,practice,null,NA,NA,NA,NA,sub126
d3-animate-choice,21,162623,0.0-21.0,TRUE,TRUE,TRUE,TRUE,"""event"",""trial"",""time""
""fullscreenenter"",""5"",""17435""
","
","
","""event"",""trial"",""time""
""fullscreenenter"",""5"",""17435""
","
",567.3200000310317,NA,49,NA,NA,3000,1,NA,NA,images/tutyellowplanet.jpg,null,images/tutalien3,null,images/tutalien3,images/t.png,NA,practice,null,NA,NA,NA,NA,sub126
d3-animate-choice,22,164953,0.0-22.0,TRUE,TRUE,TRUE,TRUE,"""event"",""trial"",""time""
""fullscreenenter"",""5"",""17435""
","
","
","""event"",""trial"",""time""
""fullscreenenter"",""5"",""17435""
","
",324.70500003546476,NA,49,NA,NA,3000,1,NA,NA,images/tutyellowplanet.jpg,null,images/tutalien3,null,images/tutalien3,images/t.png,NA,practice,null,NA,NA,NA,NA,sub126
d3-animate-choice,23,167337,0.0-23.0,TRUE,TRUE,TRUE,TRUE,"""event"",""trial"",""time""
""fullscreenenter"",""5"",""17435""
","
","
","""event"",""trial"",""time""
""fullscreenenter"",""5"",""17435""
","
",379.45999996736646,NA,49,NA,NA,3000,1,NA,NA,images/tutyellowplanet.jpg,null,images/tutalien3,null,images/tutalien3,images/t.png,NA,practice,null,NA,NA,NA,NA,sub126
d3-animate-choice,24,169756,0.0-24.0,TRUE,TRUE,TRUE,TRUE,"""event"",""trial"",""time""
""fullscreenenter"",""5"",""17435""
","
","
","""event"",""trial"",""time""
""fullscreenenter"",""5"",""17435""
","
",413.9299999224022,NA,49,NA,NA,3000,1,NA,NA,images/tutyellowplanet.jpg,null,images/tutalien3,null,images/tutalien3,images/t.png,NA,practice,null,NA,NA,NA,NA,sub126
d3-animate-choice,25,172089,0.0-25.0,TRUE,TRUE,TRUE,TRUE,"""event"",""trial"",""time""
""fullscreenenter"",""5"",""17435""
","
","
","""event"",""trial"",""time""
""fullscreenenter"",""5"",""17435""
","
",327.3800000315532,NA,49,NA,NA,3000,1,NA,NA,images/tutyellowplanet.jpg,null,images/tutalien3,null,images/tutalien3,images/nothing.png,NA,practice,null,NA,NA,NA,NA,sub126
d3-animate-choice,26,174432,0.0-26.0,TRUE,TRUE,TRUE,TRUE,"""event"",""trial"",""time""
""fullscreenenter"",""5"",""17435""
","
","
","""event"",""trial"",""time""
""fullscreenenter"",""5"",""17435""
","
",338.65499997045845,NA,49,NA,NA,3000,1,NA,NA,images/tutyellowplanet.jpg,null,images/tutalien3,null,images/tutalien3,images/t.png,NA,practice,null,NA,NA,NA,NA,sub126
d3-animate-choice,27,176804,0.0-27.0,TRUE,TRUE,TRUE,TRUE,"""event"",""trial"",""time""
""fullscreenenter"",""5"",""17435""
","
","
","""event"",""trial"",""time""
""fullscreenenter"",""5"",""17435""
","
",365.45000004116446,NA,49,NA,NA,3000,1,NA,NA,images/tutyellowplanet.jpg,null,images/tutalien3,null,images/tutalien3,images/t.png,NA,practice,null,NA,NA,NA,NA,sub126
d3-animate-choice,28,179096,0.0-28.0,TRUE,TRUE,TRUE,TRUE,"""event"",""trial"",""time""
""fullscreenenter"",""5"",""17435""
","
","
","""event"",""trial"",""time""
""fullscreenenter"",""5"",""17435""
","
",286.8599999928847,NA,49,NA,NA,3000,1,NA,NA,images/tutyellowplanet.jpg,null,images/tutalien3,null,images/tutalien3,images/nothing.png,NA,practice,null,NA,NA,NA,NA,sub126
d3-animate-choice,29,181580,0.0-29.0,TRUE,TRUE,TRUE,TRUE,"""event"",""trial"",""time""
""fullscreenenter"",""5"",""17435""
","
","
","""event"",""trial"",""time""
""fullscreenenter"",""5"",""17435""
","
",481.06499994173646,NA,49,NA,NA,3000,1,NA,NA,images/tutyellowplanet.jpg,null,images/tutalien3,null,images/tutalien3,images/t.png,NA,practice,null,NA,NA,NA,NA,sub126
d3-instructions,30,186082,0.0-30.0,TRUE,TRUE,TRUE,TRUE,"""event"",""trial"",""time""
""fullscreenenter"",""5"",""17435""
","
","
","""event"",""trial"",""time""
""fullscreenenter"",""5"",""17435""
","
",NA,NA,NA,NA,NA,NA,NA,NA,NA,NA,NA,NA,NA,NA,NA,NA,NA,NA,NA,NA,NA,NA,sub126
d3-instructions,31,195249,0.0-31.0,TRUE,TRUE,TRUE,TRUE,"""event"",""trial"",""time""
""fullscreenenter"",""5"",""17435""
","
","
","""event"",""trial"",""time""
""fullscreenenter"",""5"",""17435""
","
",NA,NA,NA,NA,NA,NA,NA,NA,NA,NA,NA,NA,NA,NA,NA,NA,NA,NA,NA,NA,NA,NA,sub126
d3-instructions,32,202658,0.0-32.0,TRUE,TRUE,TRUE,TRUE,"""event"",""trial"",""time""
""fullscreenenter"",""5"",""17435""
","
","
","""event"",""trial"",""time""
""fullscreenenter"",""5"",""17435""
","
",NA,NA,NA,NA,NA,NA,NA,NA,NA,NA,NA,NA,NA,NA,NA,NA,NA,NA,NA,NA,NA,NA,sub126
d3-instructions,33,206877,0.0-33.0,TRUE,TRUE,TRUE,TRUE,"""event"",""trial"",""time""
""fullscreenenter"",""5"",""17435""
","
","
","""event"",""trial"",""time""
""fullscreenenter"",""5"",""17435""
","
",NA,NA,NA,NA,NA,NA,NA,NA,NA,NA,NA,NA,NA,NA,NA,NA,NA,NA,NA,NA,NA,NA,sub126
d3-animate-choice,34,212083,0.0-34.0,TRUE,TRUE,TRUE,TRUE,"""event"",""trial"",""time""
""fullscreenenter"",""5"",""17435""
","
","
","""event"",""trial"",""time""
""fullscreenenter"",""5"",""17435""
","
",3201.089999987744,NA,49,NA,NA,3000,1,NA,NA,images/tutgreenplanet.jpg,images/tutalien1,images/tutalien2,null,images/tutalien2,images/nothing.png,NA,practice,null,NA,NA,NA,NA,sub126
d3-animate-choice,35,214428,0.0-35.0,TRUE,TRUE,TRUE,TRUE,"""event"",""trial"",""time""
""fullscreenenter"",""5"",""17435""
","
","
","""event"",""trial"",""time""
""fullscreenenter"",""5"",""17435""
","
",340.3150000376627,NA,49,NA,NA,3000,1,NA,NA,images/tutgreenplanet.jpg,images/tutalien1,images/tutalien2,null,images/tutalien2,images/nothing.png,NA,practice,null,NA,NA,NA,NA,sub126
d3-animate-choice,36,216820,0.0-36.0,TRUE,TRUE,TRUE,TRUE,"""event"",""trial"",""time""
""fullscreenenter"",""5"",""17435""
","
","
","""event"",""trial"",""time""
""fullscreenenter"",""5"",""17435""
","
",383.70500004384667,NA,48,NA,NA,3000,1,NA,NA,images/tutgreenplanet.jpg,images/tutalien1,images/tutalien2,null,images/tutalien1,images/nothing.png,NA,practice,null,NA,NA,NA,NA,sub126
d3-animate-choice,37,219000,0.0-37.0,TRUE,TRUE,TRUE,TRUE,"""event"",""trial"",""time""
""fullscreenenter"",""5"",""17435""
","
","
","""event"",""trial"",""time""
""fullscreenenter"",""5"",""17435""
","
",174.48499996680766,NA,48,NA,NA,3000,1,NA,NA,images/tutgreenplanet.jpg,images/tutalien1,images/tutalien2,null,images/tutalien1,images/nothing.png,NA,practice,null,NA,NA,NA,NA,sub126
d3-animate-choice,38,221360,0.0-38.0,TRUE,TRUE,TRUE,TRUE,"""event"",""trial"",""time""
""fullscreenenter"",""5"",""17435""
","
","
","""event"",""trial"",""time""
""fullscreenenter"",""5"",""17435""
","
",354.65500003192574,NA,49,NA,NA,3000,1,NA,NA,images/tutgreenplanet.jpg,images/tutalien1,images/tutalien2,null,images/tutalien2,images/t.png,NA,practice,null,NA,NA,NA,NA,sub126
d3-animate-choice,39,223683,0.0-39.0,TRUE,TRUE,TRUE,TRUE,"""event"",""trial"",""time""
""fullscreenenter"",""5"",""17435""
","
","
","""event"",""trial"",""time""
""fullscreenenter"",""5"",""17435""
","
",316.58499990589917,NA,49,NA,NA,3000,1,1781.7400000058115,49,images/tutgreenplanet.jpg,images/tutalien1,images/tutalien2,null,images/tutalien2,images/t.png,NA,practice,null,NA,NA,NA,NA,sub126
d3-animate-choice,40,226015,0.0-40.0,TRUE,TRUE,TRUE,TRUE,"""event"",""trial"",""time""
""fullscreenenter"",""5"",""17435""
","
","
","""event"",""trial"",""time""
""fullscreenenter"",""5"",""17435""
","
",327.8649999992922,NA,49,NA,NA,3000,1,NA,NA,images/tutgreenplanet.jpg,images/tutalien1,images/tutalien2,null,images/tutalien2,images/t.png,NA,practice,null,NA,NA,NA,NA,sub126
d3-animate-choice,41,228307,0.0-41.0,TRUE,TRUE,TRUE,TRUE,"""event"",""trial"",""time""
""fullscreenenter"",""5"",""17435""
","
","
","""event"",""trial"",""time""
""fullscreenenter"",""5"",""17435""
","
",285.78499995637685,NA,49,NA,NA,3000,1,1742.7349999779835,49,images/tutgreenplanet.jpg,images/tutalien1,images/tutalien2,null,images/tutalien2,images/t.png,NA,practice,null,NA,NA,NA,NA,sub126
d3-animate-choice,42,230680,0.0-42.0,TRUE,TRUE,TRUE,TRUE,"""event"",""trial"",""time""
""fullscreenenter"",""5"",""17435""
","
","
","""event"",""trial"",""time""
""fullscreenenter"",""5"",""17435""
","
",365.62499997671694,NA,49,NA,NA,3000,1,1815.4399999184534,49,images/tutgreenplanet.jpg,images/tutalien1,images/tutalien2,null,images/tutalien2,images/t.png,NA,practice,null,NA,NA,NA,NA,sub126
d3-animate-choice,43,233022,0.0-43.0,TRUE,TRUE,TRUE,TRUE,"""event"",""trial"",""time""
""fullscreenenter"",""5"",""17435""
","
","
","""event"",""trial"",""time""
""fullscreenenter"",""5"",""17435""
","
",339.1099999425933,NA,49,NA,NA,3000,1,NA,NA,images/tutgreenplanet.jpg,images/tutalien1,images/tutalien2,null,images/tutalien2,images/t.png,NA,practice,null,NA,NA,NA,NA,sub126
d3-instructions,44,245515,0.0-44.0,TRUE,TRUE,TRUE,TRUE,"""event"",""trial"",""time""
""fullscreenenter"",""5"",""17435""
","
","
","""event"",""trial"",""time""
""fullscreenenter"",""5"",""17435""
","
",NA,NA,NA,NA,NA,NA,NA,NA,NA,NA,NA,NA,NA,NA,NA,NA,NA,NA,NA,NA,NA,NA,sub126
d3-instructions,45,249490,0.0-45.0,TRUE,TRUE,TRUE,TRUE,"""event"",""trial"",""time""
""fullscreenenter"",""5"",""17435""
","
","
","""event"",""trial"",""time""
""fullscreenenter"",""5"",""17435""
","
",NA,NA,NA,NA,NA,NA,NA,NA,NA,NA,NA,NA,NA,NA,NA,NA,NA,NA,NA,NA,NA,NA,sub126
d3-instructions,46,255716,0.0-46.0,TRUE,TRUE,TRUE,TRUE,"""event"",""trial"",""time""
""fullscreenenter"",""5"",""17435""
","
","
","""event"",""trial"",""time""
""fullscreenenter"",""5"",""17435""
","
",NA,NA,NA,NA,NA,NA,NA,NA,NA,NA,NA,NA,NA,NA,NA,NA,NA,NA,NA,NA,NA,NA,sub126
d3-instructions,47,274148,0.0-47.0,TRUE,TRUE,TRUE,TRUE,"""event"",""trial"",""time""
""fullscreenenter"",""5"",""17435""
","
","
","""event"",""trial"",""time""
""fullscreenenter"",""5"",""17435""
","
",NA,NA,NA,NA,NA,NA,NA,NA,NA,NA,NA,NA,NA,NA,NA,NA,NA,NA,NA,NA,NA,NA,sub126
d3-instructions,48,280591,0.0-48.0,TRUE,TRUE,TRUE,TRUE,"""event"",""trial"",""time""
""fullscreenenter"",""5"",""17435""
","
","
","""event"",""trial"",""time""
""fullscreenenter"",""5"",""17435""
","
",NA,NA,NA,NA,NA,NA,NA,NA,NA,NA,NA,NA,NA,NA,NA,NA,NA,NA,NA,NA,NA,NA,sub126
d3-instructions,49,291901,0.0-49.0,TRUE,TRUE,TRUE,TRUE,"""event"",""trial"",""time""
""fullscreenenter"",""5"",""17435""
","
","
","""event"",""trial"",""time""
""fullscreenenter"",""5"",""17435""
","
",NA,NA,NA,NA,NA,NA,NA,NA,NA,NA,NA,NA,NA,NA,NA,NA,NA,NA,NA,NA,NA,NA,sub126
d3-instructions,50,300829,0.0-50.0,TRUE,TRUE,TRUE,TRUE,"""event"",""trial"",""time""
""fullscreenenter"",""5"",""17435""
","
","
","""event"",""trial"",""time""
""fullscreenenter"",""5"",""17435""
","
",NA,NA,NA,NA,NA,NA,NA,NA,NA,NA,NA,NA,NA,NA,NA,NA,NA,NA,NA,NA,NA,NA,sub126
d3-instructions,51,303061,0.0-51.0,TRUE,TRUE,TRUE,TRUE,"""event"",""trial"",""time""
""fullscreenenter"",""5"",""17435""
","
","
","""event"",""trial"",""time""
""fullscreenenter"",""5"",""17435""
","
",NA,NA,NA,NA,NA,NA,NA,NA,NA,NA,NA,NA,NA,NA,NA,NA,NA,NA,NA,NA,NA,NA,sub126
d3-instructions,52,304779,0.0-52.0,TRUE,TRUE,TRUE,TRUE,"""event"",""trial"",""time""
""fullscreenenter"",""5"",""17435""
","
","
","""event"",""trial"",""time""
""fullscreenenter"",""5"",""17435""
","
",NA,NA,NA,NA,NA,NA,NA,NA,NA,NA,NA,NA,NA,NA,NA,NA,NA,NA,NA,NA,NA,NA,sub126
d3-instructions,53,316790,0.0-53.0,TRUE,TRUE,TRUE,TRUE,"""event"",""trial"",""time""
""fullscreenenter"",""5"",""17435""
","
","
","""event"",""trial"",""time""
""fullscreenenter"",""5"",""17435""
","
",NA,NA,NA,NA,NA,NA,NA,NA,NA,NA,NA,NA,NA,NA,NA,NA,NA,NA,NA,NA,NA,NA,sub126
d3-instructions,54,330118,0.0-54.0,TRUE,TRUE,TRUE,TRUE,"""event"",""trial"",""time""
""fullscreenenter"",""5"",""17435""
","
","
","""event"",""trial"",""time""
""fullscreenenter"",""5"",""17435""
","
",NA,NA,NA,NA,NA,NA,NA,NA,NA,NA,NA,NA,NA,NA,NA,NA,NA,NA,NA,NA,NA,NA,sub126
d3-instructions,55,340234,0.0-55.0,TRUE,TRUE,TRUE,TRUE,"""event"",""trial"",""time""
""fullscreenenter"",""5"",""17435""
","
","
","""event"",""trial"",""time""
""fullscreenenter"",""5"",""17435""
","
",NA,NA,NA,NA,NA,NA,NA,NA,NA,NA,NA,NA,NA,NA,NA,NA,NA,NA,NA,NA,NA,NA,sub126
d3-instructions,56,349298,0.0-56.0,TRUE,TRUE,TRUE,TRUE,"""event"",""trial"",""time""
""fullscreenenter"",""5"",""17435""
","
","
","""event"",""trial"",""time""
""fullscreenenter"",""5"",""17435""
","
",NA,NA,NA,NA,NA,NA,NA,NA,NA,NA,NA,NA,NA,NA,NA,NA,NA,NA,NA,NA,NA,NA,sub126
d3-instructions,57,360953,0.0-57.0,TRUE,TRUE,TRUE,TRUE,"""event"",""trial"",""time""
""fullscreenenter"",""5"",""17435""
","
","
","""event"",""trial"",""time""
""fullscreenenter"",""5"",""17435""
","
",NA,NA,NA,NA,NA,NA,NA,NA,NA,NA,NA,NA,NA,NA,NA,NA,NA,NA,NA,NA,NA,NA,sub126
d3-instructions,58,376068,0.0-58.0,TRUE,TRUE,TRUE,TRUE,"""event"",""trial"",""time""
""fullscreenenter"",""5"",""17435""
","
","
","""event"",""trial"",""time""
""fullscreenenter"",""5"",""17435""
","
",NA,NA,NA,NA,NA,NA,NA,NA,NA,NA,NA,NA,NA,NA,NA,NA,NA,NA,NA,NA,NA,NA,sub126
d3-instructions,59,380810,0.0-59.0,TRUE,TRUE,TRUE,TRUE,"""event"",""trial"",""time""
""fullscreenenter"",""5"",""17435""
","
","
","""event"",""trial"",""time""
""fullscreenenter"",""5"",""17435""
","
",NA,NA,NA,NA,NA,NA,NA,NA,NA,NA,NA,NA,NA,NA,NA,NA,NA,NA,NA,NA,NA,NA,sub126
d3-instructions,60,392715,0.0-60.0,TRUE,TRUE,TRUE,TRUE,"""event"",""trial"",""time""
""fullscreenenter"",""5"",""17435""
","
","
","""event"",""trial"",""time""
""fullscreenenter"",""5"",""17435""
","
",NA,NA,NA,NA,NA,NA,NA,NA,NA,NA,NA,NA,NA,NA,NA,NA,NA,NA,NA,NA,NA,NA,sub126
d3-animate-choice,61,395394,0.0-61.0-0.0,TRUE,TRUE,TRUE,TRUE,"""event"",""trial"",""time""
""fullscreenenter"",""5"",""17435""
","
","
","""event"",""trial"",""time""
""fullscreenenter"",""5"",""17435""
","
",670.97500001546,NA,48,NA,NA,3000,1,NA,NA,images/earth.jpg,images/tutrocket2,images/tutrocket1,null,images/tutrocket2,NA,1,practice,null,2,NA,NA,NA,sub126
d3-animate-choice,62,398108,0.0-61.0-1.0,TRUE,TRUE,TRUE,TRUE,"""event"",""trial"",""time""
""fullscreenenter"",""5"",""17435""
","
","
","""event"",""trial"",""time""
""fullscreenenter"",""5"",""17435""
","
",701.8299999181181,NA,48,NA,NA,3000,1,NA,NA,images/tutyellowplanet.jpg,images/tutalien4,images/tutalien3,images/tutrocket2,images/tutalien4,images/nothing.png,2,practice,true,2,common,0,2020-06-23T17:33:10Z,sub126
two-step-fixation,63,399118,0.0-61.0-2.0,TRUE,TRUE,TRUE,TRUE,"""event"",""trial"",""time""
""fullscreenenter"",""5"",""17435""
","
","
","""event"",""trial"",""time""
""fullscreenenter"",""5"",""17435""
","
",NA,images/earth.jpg,NA,NA,NA,NA,NA,NA,NA,NA,NA,NA,NA,NA,NA,fixation,NA,NA,NA,NA,NA,NA,sub126
d3-animate-choice,64,403122,0.0-61.0-0.1,TRUE,TRUE,TRUE,TRUE,"""event"",""trial"",""time""
""fullscreenenter"",""5"",""17435""
","
","
","""event"",""trial"",""time""
""fullscreenenter"",""5"",""17435""
","
",2480.449999915436,NA,49,NA,NA,3000,1,NA,NA,images/earth.jpg,images/tutrocket2,images/tutrocket1,null,images/tutrocket1,NA,1,practice,null,1,NA,NA,NA,sub126
d3-animate-choice,65,406639,0.0-61.0-1.1,TRUE,TRUE,TRUE,TRUE,"""event"",""trial"",""time""
""fullscreenenter"",""5"",""17435""
","
","
","""event"",""trial"",""time""
""fullscreenenter"",""5"",""17435""
","
",1508.6199999786913,NA,48,NA,NA,3000,1,NA,NA,images/tutyellowplanet.jpg,images/tutalien4,images/tutalien3,images/tutrocket1,images/tutalien4,images/nothing.png,2,practice,false,2,rare,0,2020-06-23T17:33:19Z,sub126
two-step-fixation,66,407646,0.0-61.0-2.1,TRUE,TRUE,TRUE,TRUE,"""event"",""trial"",""time""
""fullscreenenter"",""5"",""17435""
","
","
","""event"",""trial"",""time""
""fullscreenenter"",""5"",""17435""
","
",NA,images/earth.jpg,NA,NA,NA,NA,NA,NA,NA,NA,NA,NA,NA,NA,NA,fixation,NA,NA,NA,NA,NA,NA,sub126
d3-animate-choice,67,410686,0.0-61.0-0.2,TRUE,TRUE,TRUE,TRUE,"""event"",""trial"",""time""
""fullscreenenter"",""5"",""17435""
","
","
","""event"",""trial"",""time""
""fullscreenenter"",""5"",""17435""
","
",1031.749999965541,NA,49,NA,NA,3000,1,NA,NA,images/earth.jpg,images/tutrocket2,images/tutrocket1,null,images/tutrocket1,NA,1,practice,null,1,NA,NA,NA,sub126
d3-animate-choice,68,413702,0.0-61.0-1.2,TRUE,TRUE,TRUE,TRUE,"""event"",""trial"",""time""
""fullscreenenter"",""5"",""17435""
","
","
","""event"",""trial"",""time""
""fullscreenenter"",""5"",""17435""
","
",1009.2699999222532,NA,48,NA,NA,3000,1,NA,NA,images/tutyellowplanet.jpg,images/tutalien4,images/tutalien3,images/tutrocket1,images/tutalien4,images/nothing.png,2,practice,false,2,rare,0,2020-06-23T17:33:26Z,sub126
two-step-fixation,69,414709,0.0-61.0-2.2,TRUE,TRUE,TRUE,TRUE,"""event"",""trial"",""time""
""fullscreenenter"",""5"",""17435""
","
","
","""event"",""trial"",""time""
""fullscreenenter"",""5"",""17435""
","
",NA,images/earth.jpg,NA,NA,NA,NA,NA,NA,NA,NA,NA,NA,NA,NA,NA,fixation,NA,NA,NA,NA,NA,NA,sub126
d3-animate-choice,70,417711,0.0-61.0-0.3,TRUE,TRUE,TRUE,TRUE,"""event"",""trial"",""time""
""fullscreenenter"",""5"",""17435""
","
","
","""event"",""trial"",""time""
""fullscreenenter"",""5"",""17435""
","
",995.6799999345094,NA,49,NA,NA,3000,1,NA,NA,images/earth.jpg,images/tutrocket2,images/tutrocket1,null,images/tutrocket1,NA,1,practice,null,1,NA,NA,NA,sub126
d3-animate-choice,71,420418,0.0-61.0-1.3,TRUE,TRUE,TRUE,TRUE,"""event"",""trial"",""time""
""fullscreenenter"",""5"",""17435""
","
","
","""event"",""trial"",""time""
""fullscreenenter"",""5"",""17435""
","
",697.7199999382719,NA,48,NA,NA,3000,1,NA,NA,images/tutyellowplanet.jpg,images/tutalien4,images/tutalien3,images/tutrocket1,images/tutalien4,images/nothing.png,2,practice,false,2,rare,0,2020-06-23T17:33:33Z,sub126
two-step-fixation,72,421424,0.0-61.0-2.3,TRUE,TRUE,TRUE,TRUE,"""event"",""trial"",""time""
""fullscreenenter"",""5"",""17435""
","
","
","""event"",""trial"",""time""
""fullscreenenter"",""5"",""17435""
","
",NA,images/earth.jpg,NA,NA,NA,NA,NA,NA,NA,NA,NA,NA,NA,NA,NA,fixation,NA,NA,NA,NA,NA,NA,sub126
d3-animate-choice,73,424911,0.0-61.0-0.4,TRUE,TRUE,TRUE,TRUE,"""event"",""trial"",""time""
""fullscreenenter"",""5"",""17435""
","
","
","""event"",""trial"",""time""
""fullscreenenter"",""5"",""17435""
","
",585.205000010319,NA,50,NA,NA,3000,1,1479.1700000641868,49,images/earth.jpg,images/tutrocket2,images/tutrocket1,null,images/tutrocket1,NA,1,practice,null,NA,NA,NA,NA,sub126
d3-animate-choice,74,427849,0.0-61.0-1.4,TRUE,TRUE,TRUE,TRUE,"""event"",""trial"",""time""
""fullscreenenter"",""5"",""17435""
","
","
","""event"",""trial"",""time""
""fullscreenenter"",""5"",""17435""
","
",932.2750000283122,NA,49,NA,NA,3000,1,NA,NA,images/tutgreenplanet.jpg,images/tutalien2,images/tutalien1,images/tutrocket1,images/tutalien1,images/nothing.png,2,practice,true,1,common,0,2020-06-23T17:33:40Z,sub126
two-step-fixation,75,428856,0.0-61.0-2.4,TRUE,TRUE,TRUE,TRUE,"""event"",""trial"",""time""
""fullscreenenter"",""5"",""17435""
","
","
","""event"",""trial"",""time""
""fullscreenenter"",""5"",""17435""
","
",NA,images/earth.jpg,NA,NA,NA,NA,NA,NA,NA,NA,NA,NA,NA,NA,NA,fixation,NA,NA,NA,NA,NA,NA,sub126
d3-animate-choice,76,431543,0.0-61.0-0.5,TRUE,TRUE,TRUE,TRUE,"""event"",""trial"",""time""
""fullscreenenter"",""5"",""17435""
","
","
","""event"",""trial"",""time""
""fullscreenenter"",""5"",""17435""
","
",679.6399999875575,NA,49,NA,NA,3000,1,NA,NA,images/earth.jpg,images/tutrocket2,images/tutrocket1,null,images/tutrocket1,NA,1,practice,null,1,NA,NA,NA,sub126
d3-animate-choice,77,434718,0.0-61.0-1.5,TRUE,TRUE,TRUE,TRUE,"""event"",""trial"",""time""
""fullscreenenter"",""5"",""17435""
","
","
","""event"",""trial"",""time""
""fullscreenenter"",""5"",""17435""
","
",1167.295000050217,NA,48,NA,NA,3000,1,NA,NA,images/tutyellowplanet.jpg,images/tutalien4,images/tutalien3,images/tutrocket1,images/tutalien4,images/t.png,2,practice,false,2,rare,1,2020-06-23T17:33:47Z,sub126
two-step-fixation,78,435725,0.0-61.0-2.5,TRUE,TRUE,TRUE,TRUE,"""event"",""trial"",""time""
""fullscreenenter"",""5"",""17435""
","
","
","""event"",""trial"",""time""
""fullscreenenter"",""5"",""17435""
","
",NA,images/earth.jpg,NA,NA,NA,NA,NA,NA,NA,NA,NA,NA,NA,NA,NA,fixation,NA,NA,NA,NA,NA,NA,sub126
d3-animate-choice,79,438162,0.0-61.0-0.6,TRUE,TRUE,TRUE,TRUE,"""event"",""trial"",""time""
""fullscreenenter"",""5"",""17435""
","
","
","""event"",""trial"",""time""
""fullscreenenter"",""5"",""17435""
","
",430.8449999662116,NA,49,NA,NA,3000,1,NA,NA,images/earth.jpg,images/tutrocket2,images/tutrocket1,null,images/tutrocket1,NA,1,practice,null,1,NA,NA,NA,sub126
d3-animate-choice,80,441774,0.0-61.0-1.6,TRUE,TRUE,TRUE,TRUE,"""event"",""trial"",""time""
""fullscreenenter"",""5"",""17435""
","
","
","""event"",""trial"",""time""
""fullscreenenter"",""5"",""17435""
","
",1605.174999916926,NA,49,NA,NA,3000,1,NA,NA,images/tutgreenplanet.jpg,images/tutalien2,images/tutalien1,images/tutrocket1,images/tutalien1,images/nothing.png,2,practice,true,1,common,0,2020-06-23T17:33:54Z,sub126
two-step-fixation,81,442780,0.0-61.0-2.6,TRUE,TRUE,TRUE,TRUE,"""event"",""trial"",""time""
""fullscreenenter"",""5"",""17435""
","
","
","""event"",""trial"",""time""
""fullscreenenter"",""5"",""17435""
","
",NA,images/earth.jpg,NA,NA,NA,NA,NA,NA,NA,NA,NA,NA,NA,NA,NA,fixation,NA,NA,NA,NA,NA,NA,sub126
d3-animate-choice,82,445148,0.0-61.0-0.7,TRUE,TRUE,TRUE,TRUE,"""event"",""trial"",""time""
""fullscreenenter"",""5"",""17435""
","
","
","""event"",""trial"",""time""
""fullscreenenter"",""5"",""17435""
","
",361.3400000613183,NA,49,NA,NA,3000,1,NA,NA,images/earth.jpg,images/tutrocket2,images/tutrocket1,null,images/tutrocket1,NA,1,practice,null,1,NA,NA,NA,sub126
d3-animate-choice,83,448196,0.0-61.0-1.7,TRUE,TRUE,TRUE,TRUE,"""event"",""trial"",""time""
""fullscreenenter"",""5"",""17435""
","
","
","""event"",""trial"",""time""
""fullscreenenter"",""5"",""17435""
","
",1043.6400000471622,NA,48,NA,NA,3000,1,NA,NA,images/tutgreenplanet.jpg,images/tutalien2,images/tutalien1,images/tutrocket1,images/tutalien2,images/t.png,2,practice,true,2,common,1,2020-06-23T17:34:00Z,sub126
two-step-fixation,84,449205,0.0-61.0-2.7,TRUE,TRUE,TRUE,TRUE,"""event"",""trial"",""time""
""fullscreenenter"",""5"",""17435""
","
","
","""event"",""trial"",""time""
""fullscreenenter"",""5"",""17435""
","
",NA,images/earth.jpg,NA,NA,NA,NA,NA,NA,NA,NA,NA,NA,NA,NA,NA,fixation,NA,NA,NA,NA,NA,NA,sub126
d3-animate-choice,85,451646,0.0-61.0-0.8,TRUE,TRUE,TRUE,TRUE,"""event"",""trial"",""time""
""fullscreenenter"",""5"",""17435""
","
","
","""event"",""trial"",""time""
""fullscreenenter"",""5"",""17435""
","
",434.32999996002764,NA,49,NA,NA,3000,1,NA,NA,images/earth.jpg,images/tutrocket2,images/tutrocket1,null,images/tutrocket1,NA,1,practice,null,1,NA,NA,NA,sub126
d3-animate-choice,86,454879,0.0-61.0-1.8,TRUE,TRUE,TRUE,TRUE,"""event"",""trial"",""time""
""fullscreenenter"",""5"",""17435""
","
","
","""event"",""trial"",""time""
""fullscreenenter"",""5"",""17435""
","
",1227.530000032857,NA,48,NA,NA,3000,1,NA,NA,images/tutyellowplanet.jpg,images/tutalien4,images/tutalien3,images/tutrocket1,images/tutalien4,images/t.png,2,practice,false,2,rare,1,2020-06-23T17:34:07Z,sub126
two-step-fixation,87,455887,0.0-61.0-2.8,TRUE,TRUE,TRUE,TRUE,"""event"",""trial"",""time""
""fullscreenenter"",""5"",""17435""
","
","
","""event"",""trial"",""time""
""fullscreenenter"",""5"",""17435""
","
",NA,images/earth.jpg,NA,NA,NA,NA,NA,NA,NA,NA,NA,NA,NA,NA,NA,fixation,NA,NA,NA,NA,NA,NA,sub126
d3-animate-choice,88,458378,0.0-61.0-0.9,TRUE,TRUE,TRUE,TRUE,"""event"",""trial"",""time""
""fullscreenenter"",""5"",""17435""
","
","
","""event"",""trial"",""time""
""fullscreenenter"",""5"",""17435""
","
",485.2399999508634,NA,49,NA,NA,3000,1,NA,NA,images/earth.jpg,images/tutrocket2,images/tutrocket1,null,images/tutrocket1,NA,1,practice,null,1,NA,NA,NA,sub126
d3-animate-choice,89,461426,0.0-61.0-1.9,TRUE,TRUE,TRUE,TRUE,"""event"",""trial"",""time""
""fullscreenenter"",""5"",""17435""
","
","
","""event"",""trial"",""time""
""fullscreenenter"",""5"",""17435""
","
",1040.510000078939,NA,48,NA,NA,3000,1,NA,NA,images/tutgreenplanet.jpg,images/tutalien2,images/tutalien1,images/tutrocket1,images/tutalien2,images/nothing.png,2,practice,true,2,common,0,2020-06-23T17:34:14Z,sub126
two-step-fixation,90,462433,0.0-61.0-2.9,TRUE,TRUE,TRUE,TRUE,"""event"",""trial"",""time""
""fullscreenenter"",""5"",""17435""
","
","
","""event"",""trial"",""time""
""fullscreenenter"",""5"",""17435""
","
",NA,images/earth.jpg,NA,NA,NA,NA,NA,NA,NA,NA,NA,NA,NA,NA,NA,fixation,NA,NA,NA,NA,NA,NA,sub126
d3-animate-choice,91,464995,0.0-61.0-0.10,TRUE,TRUE,TRUE,TRUE,"""event"",""trial"",""time""
""fullscreenenter"",""5"",""17435""
","
","
","""event"",""trial"",""time""
""fullscreenenter"",""5"",""17435""
","
",555.1949999062344,NA,49,NA,NA,3000,1,NA,NA,images/earth.jpg,images/tutrocket2,images/tutrocket1,null,images/tutrocket1,NA,1,practice,null,1,NA,NA,NA,sub126
d3-animate-choice,92,467953,0.0-61.0-1.10,TRUE,TRUE,TRUE,TRUE,"""event"",""trial"",""time""
""fullscreenenter"",""5"",""17435""
","
","
","""event"",""trial"",""time""
""fullscreenenter"",""5"",""17435""
","
",952.750000054948,NA,48,NA,NA,3000,1,NA,NA,images/tutgreenplanet.jpg,images/tutalien2,images/tutalien1,images/tutrocket1,images/tutalien2,images/nothing.png,2,practice,true,2,common,0,2020-06-23T17:34:20Z,sub126
two-step-fixation,93,468960,0.0-61.0-2.10,TRUE,TRUE,TRUE,TRUE,"""event"",""trial"",""time""
""fullscreenenter"",""5"",""17435""
","
","
","""event"",""trial"",""time""
""fullscreenenter"",""5"",""17435""
","
",NA,images/earth.jpg,NA,NA,NA,NA,NA,NA,NA,NA,NA,NA,NA,NA,NA,fixation,NA,NA,NA,NA,NA,NA,sub126
d3-animate-choice,94,471603,0.0-61.0-0.11,TRUE,TRUE,TRUE,TRUE,"""event"",""trial"",""time""
""fullscreenenter"",""5"",""17435""
","
","
","""event"",""trial"",""time""
""fullscreenenter"",""5"",""17435""
","
",637.5300000654534,NA,49,NA,NA,3000,1,NA,NA,images/earth.jpg,images/tutrocket2,images/tutrocket1,null,images/tutrocket1,NA,1,practice,null,1,NA,NA,NA,sub126
d3-animate-choice,95,474159,0.0-61.0-1.11,TRUE,TRUE,TRUE,TRUE,"""event"",""trial"",""time""
""fullscreenenter"",""5"",""17435""
","
","
","""event"",""trial"",""time""
""fullscreenenter"",""5"",""17435""
","
",552.2450000280514,NA,49,NA,NA,3000,1,NA,NA,images/tutgreenplanet.jpg,images/tutalien2,images/tutalien1,images/tutrocket1,images/tutalien1,images/nothing.png,2,practice,true,1,common,0,2020-06-23T17:34:26Z,sub126
two-step-fixation,96,475166,0.0-61.0-2.11,TRUE,TRUE,TRUE,TRUE,"""event"",""trial"",""time""
""fullscreenenter"",""5"",""17435""
","
","
","""event"",""trial"",""time""
""fullscreenenter"",""5"",""17435""
","
",NA,images/earth.jpg,NA,NA,NA,NA,NA,NA,NA,NA,NA,NA,NA,NA,NA,fixation,NA,NA,NA,NA,NA,NA,sub126
d3-animate-choice,97,477608,0.0-61.0-0.12,TRUE,TRUE,TRUE,TRUE,"""event"",""trial"",""time""
""fullscreenenter"",""5"",""17435""
","
","
","""event"",""trial"",""time""
""fullscreenenter"",""5"",""17435""
","
",434.68000006396323,NA,49,NA,NA,3000,1,NA,NA,images/earth.jpg,images/tutrocket2,images/tutrocket1,null,images/tutrocket1,NA,1,practice,null,1,NA,NA,NA,sub126
d3-animate-choice,98,480096,0.0-61.0-1.12,TRUE,TRUE,TRUE,TRUE,"""event"",""trial"",""time""
""fullscreenenter"",""5"",""17435""
","
","
","""event"",""trial"",""time""
""fullscreenenter"",""5"",""17435""
","
",482.55499999504536,NA,49,NA,NA,3000,1,NA,NA,images/tutgreenplanet.jpg,images/tutalien2,images/tutalien1,images/tutrocket1,images/tutalien1,images/nothing.png,2,practice,true,1,common,0,2020-06-23T17:34:32Z,sub126
two-step-fixation,99,481101,0.0-61.0-2.12,TRUE,TRUE,TRUE,TRUE,"""event"",""trial"",""time""
""fullscreenenter"",""5"",""17435""
","
","
","""event"",""trial"",""time""
""fullscreenenter"",""5"",""17435""
","
",NA,images/earth.jpg,NA,NA,NA,NA,NA,NA,NA,NA,NA,NA,NA,NA,NA,fixation,NA,NA,NA,NA,NA,NA,sub126
d3-animate-choice,100,483452,0.0-61.0-0.13,TRUE,TRUE,TRUE,TRUE,"""event"",""trial"",""time""
""fullscreenenter"",""5"",""17435""
","
","
","""event"",""trial"",""time""
""fullscreenenter"",""5"",""17435""
","
",345.9599999478087,NA,49,NA,NA,3000,1,NA,NA,images/earth.jpg,images/tutrocket2,images/tutrocket1,null,images/tutrocket1,NA,1,practice,null,1,NA,NA,NA,sub126
d3-animate-choice,101,485967,0.0-61.0-1.13,TRUE,TRUE,TRUE,TRUE,"""event"",""trial"",""time""
""fullscreenenter"",""5"",""17435""
","
","
","""event"",""trial"",""time""
""fullscreenenter"",""5"",""17435""
","
",509.13999998010695,NA,48,NA,NA,3000,1,NA,NA,images/tutgreenplanet.jpg,images/tutalien2,images/tutalien1,images/tutrocket1,images/tutalien2,images/nothing.png,2,practice,true,2,common,0,2020-06-23T17:34:38Z,sub126
two-step-fixation,102,486976,0.0-61.0-2.13,TRUE,TRUE,TRUE,TRUE,"""event"",""trial"",""time""
""fullscreenenter"",""5"",""17435""
","
","
","""event"",""trial"",""time""
""fullscreenenter"",""5"",""17435""
","
",NA,images/earth.jpg,NA,NA,NA,NA,NA,NA,NA,NA,NA,NA,NA,NA,NA,fixation,NA,NA,NA,NA,NA,NA,sub126
d3-animate-choice,103,490292,0.0-61.0-0.14,TRUE,TRUE,TRUE,TRUE,"""event"",""trial"",""time""
""fullscreenenter"",""5"",""17435""
","
","
","""event"",""trial"",""time""
""fullscreenenter"",""5"",""17435""
","
",550.539999967441,NA,50,NA,NA,3000,1,1312.7049999311566,48,images/earth.jpg,images/tutrocket2,images/tutrocket1,null,images/tutrocket2,NA,1,practice,null,NA,NA,NA,NA,sub126
d3-animate-choice,104,493078,0.0-61.0-1.14,TRUE,TRUE,TRUE,TRUE,"""event"",""trial"",""time""
""fullscreenenter"",""5"",""17435""
","
","
","""event"",""trial"",""time""
""fullscreenenter"",""5"",""17435""
","
",779.6200000448152,NA,49,NA,NA,3000,1,NA,NA,images/tutyellowplanet.jpg,images/tutalien4,images/tutalien3,images/tutrocket2,images/tutalien3,images/t.png,2,practice,true,1,common,1,2020-06-23T17:34:45Z,sub126
two-step-fixation,105,494082,0.0-61.0-2.14,TRUE,TRUE,TRUE,TRUE,"""event"",""trial"",""time""
""fullscreenenter"",""5"",""17435""
","
","
","""event"",""trial"",""time""
""fullscreenenter"",""5"",""17435""
","
",NA,images/earth.jpg,NA,NA,NA,NA,NA,NA,NA,NA,NA,NA,NA,NA,NA,fixation,NA,NA,NA,NA,NA,NA,sub126
d3-animate-choice,106,496491,0.0-61.0-0.15,TRUE,TRUE,TRUE,TRUE,"""event"",""trial"",""time""
""fullscreenenter"",""5"",""17435""
","
","
","""event"",""trial"",""time""
""fullscreenenter"",""5"",""17435""
","
",403.1699999468401,NA,48,NA,NA,3000,1,NA,NA,images/earth.jpg,images/tutrocket2,images/tutrocket1,null,images/tutrocket2,NA,1,practice,null,2,NA,NA,NA,sub126
d3-animate-choice,107,498947,0.0-61.0-1.15,TRUE,TRUE,TRUE,TRUE,"""event"",""trial"",""time""
""fullscreenenter"",""5"",""17435""
","
","
","""event"",""trial"",""time""
""fullscreenenter"",""5"",""17435""
","
",451.5850000316277,NA,49,NA,NA,3000,1,NA,NA,images/tutyellowplanet.jpg,images/tutalien4,images/tutalien3,images/tutrocket2,images/tutalien3,images/t.png,2,practice,true,1,common,1,2020-06-23T17:34:51Z,sub126
two-step-fixation,108,499954,0.0-61.0-2.15,TRUE,TRUE,TRUE,TRUE,"""event"",""trial"",""time""
""fullscreenenter"",""5"",""17435""
","
","
","""event"",""trial"",""time""
""fullscreenenter"",""5"",""17435""
","
",NA,images/earth.jpg,NA,NA,NA,NA,NA,NA,NA,NA,NA,NA,NA,NA,NA,fixation,NA,NA,NA,NA,NA,NA,sub126
d3-animate-choice,109,502353,0.0-61.0-0.16,TRUE,TRUE,TRUE,TRUE,"""event"",""trial"",""time""
""fullscreenenter"",""5"",""17435""
","
","
","""event"",""trial"",""time""
""fullscreenenter"",""5"",""17435""
","
",391.925000003539,NA,48,NA,NA,3000,1,NA,NA,images/earth.jpg,images/tutrocket2,images/tutrocket1,null,images/tutrocket2,NA,1,practice,null,2,NA,NA,NA,sub126
d3-animate-choice,110,505565,0.0-61.0-1.16,TRUE,TRUE,TRUE,TRUE,"""event"",""trial"",""time""
""fullscreenenter"",""5"",""17435""
","
","
","""event"",""trial"",""time""
""fullscreenenter"",""5"",""17435""
","
",1206.2800000421703,NA,48,NA,NA,3000,1,NA,NA,images/tutgreenplanet.jpg,images/tutalien2,images/tutalien1,images/tutrocket2,images/tutalien2,images/t.png,2,practice,false,2,rare,1,2020-06-23T17:34:58Z,sub126
two-step-fixation,111,506572,0.0-61.0-2.16,TRUE,TRUE,TRUE,TRUE,"""event"",""trial"",""time""
""fullscreenenter"",""5"",""17435""
","
","
","""event"",""trial"",""time""
""fullscreenenter"",""5"",""17435""
","
",NA,images/earth.jpg,NA,NA,NA,NA,NA,NA,NA,NA,NA,NA,NA,NA,NA,fixation,NA,NA,NA,NA,NA,NA,sub126
d3-animate-choice,112,509059,0.0-61.0-0.17,TRUE,TRUE,TRUE,TRUE,"""event"",""trial"",""time""
""fullscreenenter"",""5"",""17435""
","
","
","""event"",""trial"",""time""
""fullscreenenter"",""5"",""17435""
","
",481.43000004347414,NA,48,NA,NA,3000,1,NA,NA,images/earth.jpg,images/tutrocket2,images/tutrocket1,null,images/tutrocket2,NA,1,practice,null,2,NA,NA,NA,sub126
d3-animate-choice,113,512176,0.0-61.0-1.17,TRUE,TRUE,TRUE,TRUE,"""event"",""trial"",""time""
""fullscreenenter"",""5"",""17435""
","
","
","""event"",""trial"",""time""
""fullscreenenter"",""5"",""17435""
","
",1110.690000001341,NA,49,NA,NA,3000,1,NA,NA,images/tutyellowplanet.jpg,images/tutalien4,images/tutalien3,images/tutrocket2,images/tutalien3,images/nothing.png,2,practice,true,1,common,0,2020-06-23T17:35:04Z,sub126
two-step-fixation,114,513183,0.0-61.0-2.17,TRUE,TRUE,TRUE,TRUE,"""event"",""trial"",""time""
""fullscreenenter"",""5"",""17435""
","
","
","""event"",""trial"",""time""
""fullscreenenter"",""5"",""17435""
","
",NA,images/earth.jpg,NA,NA,NA,NA,NA,NA,NA,NA,NA,NA,NA,NA,NA,fixation,NA,NA,NA,NA,NA,NA,sub126
d3-animate-choice,115,515712,0.0-61.0-0.18,TRUE,TRUE,TRUE,TRUE,"""event"",""trial"",""time""
""fullscreenenter"",""5"",""17435""
","
","
","""event"",""trial"",""time""
""fullscreenenter"",""5"",""17435""
","
",522.7799999993294,NA,48,NA,NA,3000,1,NA,NA,images/earth.jpg,images/tutrocket2,images/tutrocket1,null,images/tutrocket2,NA,1,practice,null,2,NA,NA,NA,sub126
d3-animate-choice,116,518304,0.0-61.0-1.18,TRUE,TRUE,TRUE,TRUE,"""event"",""trial"",""time""
""fullscreenenter"",""5"",""17435""
","
","
","""event"",""trial"",""time""
""fullscreenenter"",""5"",""17435""
","
",585.3800000622869,NA,49,NA,NA,3000,1,NA,NA,images/tutyellowplanet.jpg,images/tutalien4,images/tutalien3,images/tutrocket2,images/tutalien3,images/nothing.png,2,practice,true,1,common,0,2020-06-23T17:35:10Z,sub126
two-step-fixation,117,519312,0.0-61.0-2.18,TRUE,TRUE,TRUE,TRUE,"""event"",""trial"",""time""
""fullscreenenter"",""5"",""17435""
","
","
","""event"",""trial"",""time""
""fullscreenenter"",""5"",""17435""
","
",NA,images/earth.jpg,NA,NA,NA,NA,NA,NA,NA,NA,NA,NA,NA,NA,NA,fixation,NA,NA,NA,NA,NA,NA,sub126
d3-animate-choice,118,521989,0.0-61.0-0.19,TRUE,TRUE,TRUE,TRUE,"""event"",""trial"",""time""
""fullscreenenter"",""5"",""17435""
","
","
","""event"",""trial"",""time""
""fullscreenenter"",""5"",""17435""
","
",668.6200000112876,NA,48,NA,NA,3000,1,NA,NA,images/earth.jpg,images/tutrocket2,images/tutrocket1,null,images/tutrocket2,NA,1,practice,null,2,NA,NA,NA,sub126
d3-animate-choice,119,524469,0.0-61.0-1.19,TRUE,TRUE,TRUE,TRUE,"""event"",""trial"",""time""
""fullscreenenter"",""5"",""17435""
","
","
","""event"",""trial"",""time""
""fullscreenenter"",""5"",""17435""
","
",476.1250000447035,NA,49,NA,NA,3000,1,NA,NA,images/tutgreenplanet.jpg,images/tutalien2,images/tutalien1,images/tutrocket2,images/tutalien1,images/t.png,2,practice,false,1,rare,1,2020-06-23T17:35:17Z,sub126
two-step-fixation,120,525476,0.0-61.0-2.19,TRUE,TRUE,TRUE,TRUE,"""event"",""trial"",""time""
""fullscreenenter"",""5"",""17435""
","
","
","""event"",""trial"",""time""
""fullscreenenter"",""5"",""17435""
","
",NA,images/earth.jpg,NA,NA,NA,NA,NA,NA,NA,NA,NA,NA,NA,NA,NA,fixation,NA,NA,NA,NA,NA,NA,sub126
d3-instructions,121,530167,0.0-62.0,TRUE,TRUE,TRUE,TRUE,"""event"",""trial"",""time""
""fullscreenenter"",""5"",""17435""
","
","
","""event"",""trial"",""time""
""fullscreenenter"",""5"",""17435""
","
",NA,NA,NA,NA,NA,NA,NA,NA,NA,NA,NA,NA,NA,NA,NA,NA,NA,NA,NA,NA,NA,NA,sub126
audio-keyboard-response,122,533026,0.0-63.0,TRUE,TRUE,TRUE,TRUE,"""event"",""trial"",""time""
""fullscreenenter"",""5"",""17435""
","
","
","""event"",""trial"",""time""
""fullscreenenter"",""5"",""17435""
","
",2848,audio/instructions/treasure_feedback.wav,32,NA,NA,NA,NA,NA,NA,NA,NA,NA,NA,NA,NA,NA,NA,NA,NA,NA,NA,NA,sub126
d3-instructions,123,549982,0.0-64.0,TRUE,TRUE,TRUE,TRUE,"""event"",""trial"",""time""
""fullscreenenter"",""5"",""17435""
","
","
","""event"",""trial"",""time""
""fullscreenenter"",""5"",""17435""
","
",NA,NA,NA,NA,NA,NA,NA,NA,NA,NA,NA,NA,NA,NA,NA,NA,NA,NA,NA,NA,NA,NA,sub126
d3-instructions,124,562274,0.0-65.0,TRUE,TRUE,TRUE,TRUE,"""event"",""trial"",""time""
""fullscreenenter"",""5"",""17435""
","
","
","""event"",""trial"",""time""
""fullscreenenter"",""5"",""17435""
","
",NA,NA,NA,NA,NA,NA,NA,NA,NA,NA,NA,NA,NA,NA,NA,NA,NA,NA,NA,NA,NA,NA,sub126
d3-instructions,125,602859,0.0-66.0,TRUE,TRUE,TRUE,TRUE,"""event"",""trial"",""time""
""fullscreenenter"",""5"",""17435""
","
","
","""event"",""trial"",""time""
""fullscreenenter"",""5"",""17435""
","
",NA,NA,NA,NA,NA,NA,NA,NA,NA,NA,NA,NA,NA,NA,NA,NA,NA,NA,NA,NA,NA,NA,sub126
d3-instructions,126,623925,0.0-67.0,TRUE,TRUE,TRUE,TRUE,"""event"",""trial"",""time""
""fullscreenenter"",""5"",""17435""
","
","
","""event"",""trial"",""time""
""fullscreenenter"",""5"",""17435""
","
",NA,NA,NA,NA,NA,NA,NA,NA,NA,NA,NA,NA,NA,NA,NA,NA,NA,NA,NA,NA,NA,NA,sub126
d3-instructions,127,629350,0.0-68.0,TRUE,TRUE,TRUE,TRUE,"""event"",""trial"",""time""
""fullscreenenter"",""5"",""17435""
","
","
","""event"",""trial"",""time""
""fullscreenenter"",""5"",""17435""
","
",NA,NA,NA,NA,NA,NA,NA,NA,NA,NA,NA,NA,NA,NA,NA,NA,NA,NA,NA,NA,NA,NA,sub126
instructions-quiz,128,635977,0.0-69.0,TRUE,TRUE,TRUE,TRUE,"""event"",""trial"",""time""
""fullscreenenter"",""5"",""17435""
","
","
","""event"",""trial"",""time""
""fullscreenenter"",""5"",""17435""
","
",6624.02500002645,audio/quiz/Q1_Prompt.wav,NA,1,NA,NA,NA,NA,NA,NA,NA,NA,NA,NA,NA,NA,NA,NA,NA,NA,NA,NA,sub126
audio-keyboard-response,129,645146,0.0-70.0,TRUE,TRUE,TRUE,TRUE,"""event"",""trial"",""time""
""fullscreenenter"",""5"",""17435""
","
","
","""event"",""trial"",""time""
""fullscreenenter"",""5"",""17435""
","
",null,audio/quiz/Q1_Correct.wav,null,NA,NA,NA,NA,NA,NA,NA,NA,NA,NA,NA,NA,NA,NA,NA,NA,NA,NA,NA,sub126
instructions-quiz,130,654146,0.0-71.0,TRUE,TRUE,TRUE,TRUE,"""event"",""trial"",""time""
""fullscreenenter"",""5"",""17435""
","
","
","""event"",""trial"",""time""
""fullscreenenter"",""5"",""17435""
","
",8998.20999999065,audio/quiz/Q2_Prompt.wav,NA,0,NA,NA,NA,NA,NA,NA,NA,NA,NA,NA,NA,NA,NA,NA,NA,NA,NA,NA,sub126
audio-keyboard-response,131,667017,0.0-72.0,TRUE,TRUE,TRUE,TRUE,"""event"",""trial"",""time""
""fullscreenenter"",""5"",""17435""
","
","
","""event"",""trial"",""time""
""fullscreenenter"",""5"",""17435""
","
",null,audio/quiz/Q2_Correct.wav,null,NA,NA,NA,NA,NA,NA,NA,NA,NA,NA,NA,NA,NA,NA,NA,NA,NA,NA,NA,sub126
instructions-quiz,132,671130,0.0-73.0,TRUE,TRUE,TRUE,TRUE,"""event"",""trial"",""time""
""fullscreenenter"",""5"",""17435""
","
","
","""event"",""trial"",""time""
""fullscreenenter"",""5"",""17435""
","
",4110.325000016019,audio/quiz/Q3_Prompt.wav,NA,1,NA,NA,NA,NA,NA,NA,NA,NA,NA,NA,NA,NA,NA,NA,NA,NA,NA,NA,sub126
audio-keyboard-response,133,676927,0.0-74.0,TRUE,TRUE,TRUE,TRUE,"""event"",""trial"",""time""
""fullscreenenter"",""5"",""17435""
","
","
","""event"",""trial"",""time""
""fullscreenenter"",""5"",""17435""
","
",null,audio/quiz/Q3_Correct.wav,null,NA,NA,NA,NA,NA,NA,NA,NA,NA,NA,NA,NA,NA,NA,NA,NA,NA,NA,NA,sub126
d3-instructions,134,691658,0.0-75.0,TRUE,TRUE,TRUE,TRUE,"""event"",""trial"",""time""
""fullscreenenter"",""5"",""17435""
","
","
","""event"",""trial"",""time""
""fullscreenenter"",""5"",""17435""
","
",NA,NA,NA,NA,NA,NA,NA,NA,NA,NA,NA,NA,NA,NA,NA,NA,NA,NA,NA,NA,NA,NA,sub126
d3-animate-choice,135,695104,0.0-76.0-0.0,TRUE,TRUE,TRUE,TRUE,"""event"",""trial"",""time""
""fullscreenenter"",""5"",""17435""
","
","
","""event"",""trial"",""time""
""fullscreenenter"",""5"",""17435""
","
",1439.2049999441952,NA,49,NA,NA,3000,1,NA,NA,images/earth.jpg,images/rocket2,images/rocket1,null,images/rocket1,NA,1,real,null,1,NA,NA,NA,sub126
d3-animate-choice,136,698421,0.0-76.0-1.0,TRUE,TRUE,TRUE,TRUE,"""event"",""trial"",""time""
""fullscreenenter"",""5"",""17435""
","
","
","""event"",""trial"",""time""
""fullscreenenter"",""5"",""17435""
","
",1311.8399999802932,NA,49,NA,NA,3000,1,NA,NA,images/redplanet1.jpg,images/alien2,images/alien1,images/rocket1,images/alien1,images/nothing.png,2,real,true,1,common,0,2020-06-23T17:38:11Z,sub126
two-step-fixation,137,699427,0.0-76.0-2.0,TRUE,TRUE,TRUE,TRUE,"""event"",""trial"",""time""
""fullscreenenter"",""5"",""17435""
","
","
","""event"",""trial"",""time""
""fullscreenenter"",""5"",""17435""
","
",NA,images/earth.jpg,NA,NA,NA,NA,NA,NA,NA,NA,NA,NA,NA,NA,NA,fixation,NA,NA,NA,NA,NA,NA,sub126
d3-animate-choice,138,702142,0.0-76.0-0.1,TRUE,TRUE,TRUE,TRUE,"""event"",""trial"",""time""
""fullscreenenter"",""5"",""17435""
","
","
","""event"",""trial"",""time""
""fullscreenenter"",""5"",""17435""
","
",709.7500000381842,NA,49,NA,NA,3000,1,NA,NA,images/earth.jpg,images/rocket2,images/rocket1,null,images/rocket1,NA,1,real,null,1,NA,NA,NA,sub126
d3-animate-choice,139,704699,0.0-76.0-1.1,TRUE,TRUE,TRUE,TRUE,"""event"",""trial"",""time""
""fullscreenenter"",""5"",""17435""
","
","
","""event"",""trial"",""time""
""fullscreenenter"",""5"",""17435""
","
",551.6499999212101,NA,48,NA,NA,3000,1,NA,NA,images/redplanet1.jpg,images/alien2,images/alien1,images/rocket1,images/alien2,images/nothing.png,2,real,true,2,common,0,2020-06-23T17:38:17Z,sub126
two-step-fixation,140,705707,0.0-76.0-2.1,TRUE,TRUE,TRUE,TRUE,"""event"",""trial"",""time""
""fullscreenenter"",""5"",""17435""
","
","
","""event"",""trial"",""time""
""fullscreenenter"",""5"",""17435""
","
",NA,images/earth.jpg,NA,NA,NA,NA,NA,NA,NA,NA,NA,NA,NA,NA,NA,fixation,NA,NA,NA,NA,NA,NA,sub126
d3-animate-choice,141,708435,0.0-76.0-0.2,TRUE,TRUE,TRUE,TRUE,"""event"",""trial"",""time""
""fullscreenenter"",""5"",""17435""
","
","
","""event"",""trial"",""time""
""fullscreenenter"",""5"",""17435""
","
",721.8499999726191,NA,49,NA,NA,3000,1,NA,NA,images/earth.jpg,images/rocket2,images/rocket1,null,images/rocket1,NA,1,real,null,1,NA,NA,NA,sub126
d3-animate-choice,142,711058,0.0-76.0-1.2,TRUE,TRUE,TRUE,TRUE,"""event"",""trial"",""time""
""fullscreenenter"",""5"",""17435""
","
","
","""event"",""trial"",""time""
""fullscreenenter"",""5"",""17435""
","
",618.5699999332428,NA,49,NA,NA,3000,1,NA,NA,images/redplanet1.jpg,images/alien2,images/alien1,images/rocket1,images/alien1,images/nothing.png,2,real,true,1,common,0,2020-06-23T17:38:23Z,sub126
two-step-fixation,143,712061,0.0-76.0-2.2,TRUE,TRUE,TRUE,TRUE,"""event"",""trial"",""time""
""fullscreenenter"",""5"",""17435""
","
","
","""event"",""trial"",""time""
""fullscreenenter"",""5"",""17435""
","
",NA,images/earth.jpg,NA,NA,NA,NA,NA,NA,NA,NA,NA,NA,NA,NA,NA,fixation,NA,NA,NA,NA,NA,NA,sub126
d3-animate-choice,144,714508,0.0-76.0-0.3,TRUE,TRUE,TRUE,TRUE,"""event"",""trial"",""time""
""fullscreenenter"",""5"",""17435""
","
","
","""event"",""trial"",""time""
""fullscreenenter"",""5"",""17435""
","
",440.3300000121817,NA,49,NA,NA,3000,1,NA,NA,images/earth.jpg,images/rocket2,images/rocket1,null,images/rocket1,NA,1,real,null,1,NA,NA,NA,sub126
d3-animate-choice,145,717004,0.0-76.0-1.3,TRUE,TRUE,TRUE,TRUE,"""event"",""trial"",""time""
""fullscreenenter"",""5"",""17435""
","
","
","""event"",""trial"",""time""
""fullscreenenter"",""5"",""17435""
","
",489.0050000976771,NA,48,NA,NA,3000,1,NA,NA,images/purpleplanet.jpg,images/alien4,images/alien3,images/rocket1,images/alien4,images/nothing.png,2,real,false,2,rare,0,2020-06-23T17:38:29Z,sub126
two-step-fixation,146,718012,0.0-76.0-2.3,TRUE,TRUE,TRUE,TRUE,"""event"",""trial"",""time""
""fullscreenenter"",""5"",""17435""
","
","
","""event"",""trial"",""time""
""fullscreenenter"",""5"",""17435""
","
",NA,images/earth.jpg,NA,NA,NA,NA,NA,NA,NA,NA,NA,NA,NA,NA,NA,fixation,NA,NA,NA,NA,NA,NA,sub126
d3-animate-choice,147,720390,0.0-76.0-0.4,TRUE,TRUE,TRUE,TRUE,"""event"",""trial"",""time""
""fullscreenenter"",""5"",""17435""
","
","
","""event"",""trial"",""time""
""fullscreenenter"",""5"",""17435""
","
",371.4000000618398,NA,49,NA,NA,3000,1,NA,NA,images/earth.jpg,images/rocket2,images/rocket1,null,images/rocket1,NA,1,real,null,1,NA,NA,NA,sub126
d3-animate-choice,148,723961,0.0-76.0-1.4,TRUE,TRUE,TRUE,TRUE,"""event"",""trial"",""time""
""fullscreenenter"",""5"",""17435""
","
","
","""event"",""trial"",""time""
""fullscreenenter"",""5"",""17435""
","
",1565.9450000384822,NA,48,NA,NA,3000,1,NA,NA,images/redplanet1.jpg,images/alien2,images/alien1,images/rocket1,images/alien2,images/nothing.png,2,real,true,2,common,0,2020-06-23T17:38:36Z,sub126
two-step-fixation,149,724967,0.0-76.0-2.4,TRUE,TRUE,TRUE,TRUE,"""event"",""trial"",""time""
""fullscreenenter"",""5"",""17435""
","
","
","""event"",""trial"",""time""
""fullscreenenter"",""5"",""17435""
","
",NA,images/earth.jpg,NA,NA,NA,NA,NA,NA,NA,NA,NA,NA,NA,NA,NA,fixation,NA,NA,NA,NA,NA,NA,sub126
d3-animate-choice,150,728045,0.0-76.0-0.5,TRUE,TRUE,TRUE,TRUE,"""event"",""trial"",""time""
""fullscreenenter"",""5"",""17435""
","
","
","""event"",""trial"",""time""
""fullscreenenter"",""5"",""17435""
","
",1072.2400000086054,NA,49,NA,NA,3000,1,NA,NA,images/earth.jpg,images/rocket2,images/rocket1,null,images/rocket1,NA,1,real,null,1,NA,NA,NA,sub126
d3-animate-choice,151,730947,0.0-76.0-1.5,TRUE,TRUE,TRUE,TRUE,"""event"",""trial"",""time""
""fullscreenenter"",""5"",""17435""
","
","
","""event"",""trial"",""time""
""fullscreenenter"",""5"",""17435""
","
",897.9199999012053,NA,49,NA,NA,3000,1,NA,NA,images/redplanet1.jpg,images/alien2,images/alien1,images/rocket1,images/alien1,images/t.png,2,real,true,1,common,1,2020-06-23T17:38:43Z,sub126
two-step-fixation,152,731952,0.0-76.0-2.5,TRUE,TRUE,TRUE,TRUE,"""event"",""trial"",""time""
""fullscreenenter"",""5"",""17435""
","
","
","""event"",""trial"",""time""
""fullscreenenter"",""5"",""17435""
","
",NA,images/earth.jpg,NA,NA,NA,NA,NA,NA,NA,NA,NA,NA,NA,NA,NA,fixation,NA,NA,NA,NA,NA,NA,sub126
d3-animate-choice,153,735942,0.0-76.0-0.6,TRUE,TRUE,TRUE,TRUE,"""event"",""trial"",""time""
""fullscreenenter"",""5"",""17435""
","
","
","""event"",""trial"",""time""
""fullscreenenter"",""5"",""17435""
","
",1983.1549999071285,NA,49,NA,NA,3000,1,NA,NA,images/earth.jpg,images/rocket2,images/rocket1,null,images/rocket1,NA,1,real,null,1,NA,NA,NA,sub126
d3-animate-choice,154,738440,0.0-76.0-1.6,TRUE,TRUE,TRUE,TRUE,"""event"",""trial"",""time""
""fullscreenenter"",""5"",""17435""
","
","
","""event"",""trial"",""time""
""fullscreenenter"",""5"",""17435""
","
",491.1650000140071,NA,49,NA,NA,3000,1,NA,NA,images/redplanet1.jpg,images/alien2,images/alien1,images/rocket1,images/alien1,images/nothing.png,2,real,true,1,common,0,2020-06-23T17:38:51Z,sub126
two-step-fixation,155,739447,0.0-76.0-2.6,TRUE,TRUE,TRUE,TRUE,"""event"",""trial"",""time""
""fullscreenenter"",""5"",""17435""
","
","
","""event"",""trial"",""time""
""fullscreenenter"",""5"",""17435""
","
",NA,images/earth.jpg,NA,NA,NA,NA,NA,NA,NA,NA,NA,NA,NA,NA,NA,fixation,NA,NA,NA,NA,NA,NA,sub126
d3-animate-choice,156,742606,0.0-76.0-0.7,TRUE,TRUE,TRUE,TRUE,"""event"",""trial"",""time""
""fullscreenenter"",""5"",""17435""
","
","
","""event"",""trial"",""time""
""fullscreenenter"",""5"",""17435""
","
",1156.239999923855,NA,49,NA,NA,3000,1,NA,NA,images/earth.jpg,images/rocket2,images/rocket1,null,images/rocket1,NA,1,real,null,1,NA,NA,NA,sub126
d3-animate-choice,157,745018,0.0-76.0-1.7,TRUE,TRUE,TRUE,TRUE,"""event"",""trial"",""time""
""fullscreenenter"",""5"",""17435""
","
","
","""event"",""trial"",""time""
""fullscreenenter"",""5"",""17435""
","
",403.6049999995157,NA,48,NA,NA,3000,1,NA,NA,images/purpleplanet.jpg,images/alien4,images/alien3,images/rocket1,images/alien4,images/t.png,2,real,false,2,rare,1,2020-06-23T17:38:57Z,sub126
two-step-fixation,158,746025,0.0-76.0-2.7,TRUE,TRUE,TRUE,TRUE,"""event"",""trial"",""time""
""fullscreenenter"",""5"",""17435""
","
","
","""event"",""trial"",""time""
""fullscreenenter"",""5"",""17435""
","
",NA,images/earth.jpg,NA,NA,NA,NA,NA,NA,NA,NA,NA,NA,NA,NA,NA,fixation,NA,NA,NA,NA,NA,NA,sub126
d3-animate-choice,159,749335,0.0-76.0-0.8,TRUE,TRUE,TRUE,TRUE,"""event"",""trial"",""time""
""fullscreenenter"",""5"",""17435""
","
","
","""event"",""trial"",""time""
""fullscreenenter"",""5"",""17435""
","
",1303.5150000359863,NA,49,NA,NA,3000,1,NA,NA,images/earth.jpg,images/rocket2,images/rocket1,null,images/rocket1,NA,1,real,null,1,NA,NA,NA,sub126
d3-animate-choice,160,751966,0.0-76.0-1.8,TRUE,TRUE,TRUE,TRUE,"""event"",""trial"",""time""
""fullscreenenter"",""5"",""17435""
","
","
","""event"",""trial"",""time""
""fullscreenenter"",""5"",""17435""
","
",623.035000055097,NA,49,NA,NA,3000,1,NA,NA,images/purpleplanet.jpg,images/alien4,images/alien3,images/rocket1,images/alien3,images/t.png,2,real,false,1,rare,1,2020-06-23T17:39:04Z,sub126
two-step-fixation,161,752972,0.0-76.0-2.8,TRUE,TRUE,TRUE,TRUE,"""event"",""trial"",""time""
""fullscreenenter"",""5"",""17435""
","
","
","""event"",""trial"",""time""
""fullscreenenter"",""5"",""17435""
","
",NA,images/earth.jpg,NA,NA,NA,NA,NA,NA,NA,NA,NA,NA,NA,NA,NA,fixation,NA,NA,NA,NA,NA,NA,sub126
d3-animate-choice,162,755908,0.0-76.0-0.9,TRUE,TRUE,TRUE,TRUE,"""event"",""trial"",""time""
""fullscreenenter"",""5"",""17435""
","
","
","""event"",""trial"",""time""
""fullscreenenter"",""5"",""17435""
","
",930.0150000490248,NA,49,NA,NA,3000,1,NA,NA,images/earth.jpg,images/rocket2,images/rocket1,null,images/rocket1,NA,1,real,null,1,NA,NA,NA,sub126
d3-animate-choice,163,758593,0.0-76.0-1.9,TRUE,TRUE,TRUE,TRUE,"""event"",""trial"",""time""
""fullscreenenter"",""5"",""17435""
","
","
","""event"",""trial"",""time""
""fullscreenenter"",""5"",""17435""
","
",678.2850000308827,NA,48,NA,NA,3000,1,NA,NA,images/redplanet1.jpg,images/alien2,images/alien1,images/rocket1,images/alien2,images/t.png,2,real,true,2,common,1,2020-06-23T17:39:11Z,sub126
two-step-fixation,164,759599,0.0-76.0-2.9,TRUE,TRUE,TRUE,TRUE,"""event"",""trial"",""time""
""fullscreenenter"",""5"",""17435""
","
","
","""event"",""trial"",""time""
""fullscreenenter"",""5"",""17435""
","
",NA,images/earth.jpg,NA,NA,NA,NA,NA,NA,NA,NA,NA,NA,NA,NA,NA,fixation,NA,NA,NA,NA,NA,NA,sub126
d3-animate-choice,165,762089,0.0-76.0-0.10,TRUE,TRUE,TRUE,TRUE,"""event"",""trial"",""time""
""fullscreenenter"",""5"",""17435""
","
","
","""event"",""trial"",""time""
""fullscreenenter"",""5"",""17435""
","
",483.1750000594184,NA,49,NA,NA,3000,1,NA,NA,images/earth.jpg,images/rocket2,images/rocket1,null,images/rocket1,NA,1,real,null,1,NA,NA,NA,sub126
d3-animate-choice,166,764771,0.0-76.0-1.10,TRUE,TRUE,TRUE,TRUE,"""event"",""trial"",""time""
""fullscreenenter"",""5"",""17435""
","
","
","""event"",""trial"",""time""
""fullscreenenter"",""5"",""17435""
","
",676.3199999695644,NA,49,NA,NA,3000,1,NA,NA,images/redplanet1.jpg,images/alien2,images/alien1,images/rocket1,images/alien1,images/nothing.png,2,real,true,1,common,0,2020-06-23T17:39:17Z,sub126
two-step-fixation,167,765777,0.0-76.0-2.10,TRUE,TRUE,TRUE,TRUE,"""event"",""trial"",""time""
""fullscreenenter"",""5"",""17435""
","
","
","""event"",""trial"",""time""
""fullscreenenter"",""5"",""17435""
","
",NA,images/earth.jpg,NA,NA,NA,NA,NA,NA,NA,NA,NA,NA,NA,NA,NA,fixation,NA,NA,NA,NA,NA,NA,sub126
d3-animate-choice,168,768193,0.0-76.0-0.11,TRUE,TRUE,TRUE,TRUE,"""event"",""trial"",""time""
""fullscreenenter"",""5"",""17435""
","
","
","""event"",""trial"",""time""
""fullscreenenter"",""5"",""17435""
","
",409.1699999989942,NA,49,NA,NA,3000,1,NA,NA,images/earth.jpg,images/rocket2,images/rocket1,null,images/rocket1,NA,1,real,null,1,NA,NA,NA,sub126
d3-animate-choice,169,770587,0.0-76.0-1.11,TRUE,TRUE,TRUE,TRUE,"""event"",""trial"",""time""
""fullscreenenter"",""5"",""17435""
","
","
","""event"",""trial"",""time""
""fullscreenenter"",""5"",""17435""
","
",390.13499999418855,NA,48,NA,NA,3000,1,NA,NA,images/redplanet1.jpg,images/alien2,images/alien1,images/rocket1,images/alien2,images/t.png,2,real,true,2,common,1,2020-06-23T17:39:23Z,sub126
two-step-fixation,170,771592,0.0-76.0-2.11,TRUE,TRUE,TRUE,TRUE,"""event"",""trial"",""time""
""fullscreenenter"",""5"",""17435""
","
","
","""event"",""trial"",""time""
""fullscreenenter"",""5"",""17435""
","
",NA,images/earth.jpg,NA,NA,NA,NA,NA,NA,NA,NA,NA,NA,NA,NA,NA,fixation,NA,NA,NA,NA,NA,NA,sub126
d3-animate-choice,171,773951,0.0-76.0-0.12,TRUE,TRUE,TRUE,TRUE,"""event"",""trial"",""time""
""fullscreenenter"",""5"",""17435""
","
","
","""event"",""trial"",""time""
""fullscreenenter"",""5"",""17435""
","
",353.53500000201166,NA,49,NA,NA,3000,1,NA,NA,images/earth.jpg,images/rocket2,images/rocket1,null,images/rocket1,NA,1,real,null,1,NA,NA,NA,sub126
d3-animate-choice,172,776304,0.0-76.0-1.12,TRUE,TRUE,TRUE,TRUE,"""event"",""trial"",""time""
""fullscreenenter"",""5"",""17435""
","
","
","""event"",""trial"",""time""
""fullscreenenter"",""5"",""17435""
","
",346.14000003784895,NA,48,NA,NA,3000,1,NA,NA,images/purpleplanet.jpg,images/alien4,images/alien3,images/rocket1,images/alien4,images/nothing.png,2,real,false,2,rare,0,2020-06-23T17:39:28Z,sub126
two-step-fixation,173,777310,0.0-76.0-2.12,TRUE,TRUE,TRUE,TRUE,"""event"",""trial"",""time""
""fullscreenenter"",""5"",""17435""
","
","
","""event"",""trial"",""time""
""fullscreenenter"",""5"",""17435""
","
",NA,images/earth.jpg,NA,NA,NA,NA,NA,NA,NA,NA,NA,NA,NA,NA,NA,fixation,NA,NA,NA,NA,NA,NA,sub126
d3-animate-choice,174,779628,0.0-76.0-0.13,TRUE,TRUE,TRUE,TRUE,"""event"",""trial"",""time""
""fullscreenenter"",""5"",""17435""
","
","
","""event"",""trial"",""time""
""fullscreenenter"",""5"",""17435""
","
",309.58999996073544,NA,49,NA,NA,3000,1,NA,NA,images/earth.jpg,images/rocket2,images/rocket1,null,images/rocket1,NA,1,real,null,1,NA,NA,NA,sub126
d3-animate-choice,175,782171,0.0-76.0-1.13,TRUE,TRUE,TRUE,TRUE,"""event"",""trial"",""time""
""fullscreenenter"",""5"",""17435""
","
","
","""event"",""trial"",""time""
""fullscreenenter"",""5"",""17435""
","
",537.9699999466538,NA,48,NA,NA,3000,1,NA,NA,images/redplanet1.jpg,images/alien2,images/alien1,images/rocket1,images/alien2,images/t.png,2,real,true,2,common,1,2020-06-23T17:39:34Z,sub126
two-step-fixation,176,783174,0.0-76.0-2.13,TRUE,TRUE,TRUE,TRUE,"""event"",""trial"",""time""
""fullscreenenter"",""5"",""17435""
","
","
","""event"",""trial"",""time""
""fullscreenenter"",""5"",""17435""
","
",NA,images/earth.jpg,NA,NA,NA,NA,NA,NA,NA,NA,NA,NA,NA,NA,NA,fixation,NA,NA,NA,NA,NA,NA,sub126
d3-animate-choice,177,785553,0.0-76.0-0.14,TRUE,TRUE,TRUE,TRUE,"""event"",""trial"",""time""
""fullscreenenter"",""5"",""17435""
","
","
","""event"",""trial"",""time""
""fullscreenenter"",""5"",""17435""
","
",371.5599999995902,NA,49,NA,NA,3000,1,NA,NA,images/earth.jpg,images/rocket2,images/rocket1,null,images/rocket1,NA,1,real,null,1,NA,NA,NA,sub126
d3-animate-choice,178,788105,0.0-76.0-1.14,TRUE,TRUE,TRUE,TRUE,"""event"",""trial"",""time""
""fullscreenenter"",""5"",""17435""
","
","
","""event"",""trial"",""time""
""fullscreenenter"",""5"",""17435""
","
",546.7599999392405,NA,48,NA,NA,3000,1,NA,NA,images/redplanet1.jpg,images/alien2,images/alien1,images/rocket1,images/alien2,images/t.png,2,real,true,2,common,1,2020-06-23T17:39:40Z,sub126
two-step-fixation,179,789110,0.0-76.0-2.14,TRUE,TRUE,TRUE,TRUE,"""event"",""trial"",""time""
""fullscreenenter"",""5"",""17435""
","
","
","""event"",""trial"",""time""
""fullscreenenter"",""5"",""17435""
","
",NA,images/earth.jpg,NA,NA,NA,NA,NA,NA,NA,NA,NA,NA,NA,NA,NA,fixation,NA,NA,NA,NA,NA,NA,sub126
d3-animate-choice,180,791651,0.0-76.0-0.15,TRUE,TRUE,TRUE,TRUE,"""event"",""trial"",""time""
""fullscreenenter"",""5"",""17435""
","
","
","""event"",""trial"",""time""
""fullscreenenter"",""5"",""17435""
","
",533.7750000180677,NA,49,NA,NA,3000,1,NA,NA,images/earth.jpg,images/rocket2,images/rocket1,null,images/rocket1,NA,1,real,null,1,NA,NA,NA,sub126
d3-animate-choice,181,794146,0.0-76.0-1.15,TRUE,TRUE,TRUE,TRUE,"""event"",""trial"",""time""
""fullscreenenter"",""5"",""17435""
","
","
","""event"",""trial"",""time""
""fullscreenenter"",""5"",""17435""
","
",490.6649999320507,NA,48,NA,NA,3000,1,NA,NA,images/redplanet1.jpg,images/alien2,images/alien1,images/rocket1,images/alien2,images/t.png,2,real,true,2,common,1,2020-06-23T17:39:46Z,sub126
two-step-fixation,182,795153,0.0-76.0-2.15,TRUE,TRUE,TRUE,TRUE,"""event"",""trial"",""time""
""fullscreenenter"",""5"",""17435""
","
","
","""event"",""trial"",""time""
""fullscreenenter"",""5"",""17435""
","
",NA,images/earth.jpg,NA,NA,NA,NA,NA,NA,NA,NA,NA,NA,NA,NA,NA,fixation,NA,NA,NA,NA,NA,NA,sub126
d3-animate-choice,183,797585,0.0-76.0-0.16,TRUE,TRUE,TRUE,TRUE,"""event"",""trial"",""time""
""fullscreenenter"",""5"",""17435""
","
","
","""event"",""trial"",""time""
""fullscreenenter"",""5"",""17435""
","
",427.6200000895187,NA,49,NA,NA,3000,1,NA,NA,images/earth.jpg,images/rocket2,images/rocket1,null,images/rocket1,NA,1,real,null,1,NA,NA,NA,sub126
d3-animate-choice,184,800967,0.0-76.0-1.16,TRUE,TRUE,TRUE,TRUE,"""event"",""trial"",""time""
""fullscreenenter"",""5"",""17435""
","
","
","""event"",""trial"",""time""
""fullscreenenter"",""5"",""17435""
","
",1379.1600000113249,NA,49,NA,NA,3000,1,NA,NA,images/purpleplanet.jpg,images/alien4,images/alien3,images/rocket1,images/alien3,images/nothing.png,2,real,false,1,rare,0,2020-06-23T17:39:53Z,sub126
two-step-fixation,185,801973,0.0-76.0-2.16,TRUE,TRUE,TRUE,TRUE,"""event"",""trial"",""time""
""fullscreenenter"",""5"",""17435""
","
","
","""event"",""trial"",""time""
""fullscreenenter"",""5"",""17435""
","
",NA,images/earth.jpg,NA,NA,NA,NA,NA,NA,NA,NA,NA,NA,NA,NA,NA,fixation,NA,NA,NA,NA,NA,NA,sub126
d3-animate-choice,186,804382,0.0-76.0-0.17,TRUE,TRUE,TRUE,TRUE,"""event"",""trial"",""time""
""fullscreenenter"",""5"",""17435""
","
","
","""event"",""trial"",""time""
""fullscreenenter"",""5"",""17435""
","
",403.2250000163913,NA,49,NA,NA,3000,1,NA,NA,images/earth.jpg,images/rocket2,images/rocket1,null,images/rocket1,NA,1,real,null,1,NA,NA,NA,sub126
d3-animate-choice,187,806774,0.0-76.0-1.17,TRUE,TRUE,TRUE,TRUE,"""event"",""trial"",""time""
""fullscreenenter"",""5"",""17435""
","
","
","""event"",""trial"",""time""
""fullscreenenter"",""5"",""17435""
","
",384.4850000459701,NA,48,NA,NA,3000,1,NA,NA,images/redplanet1.jpg,images/alien2,images/alien1,images/rocket1,images/alien2,images/nothing.png,2,real,true,2,common,0,2020-06-23T17:39:59Z,sub126
two-step-fixation,188,807781,0.0-76.0-2.17,TRUE,TRUE,TRUE,TRUE,"""event"",""trial"",""time""
""fullscreenenter"",""5"",""17435""
","
","
","""event"",""trial"",""time""
""fullscreenenter"",""5"",""17435""
","
",NA,images/earth.jpg,NA,NA,NA,NA,NA,NA,NA,NA,NA,NA,NA,NA,NA,fixation,NA,NA,NA,NA,NA,NA,sub126
d3-animate-choice,189,810220,0.0-76.0-0.18,TRUE,TRUE,TRUE,TRUE,"""event"",""trial"",""time""
""fullscreenenter"",""5"",""17435""
","
","
","""event"",""trial"",""time""
""fullscreenenter"",""5"",""17435""
","
",431.8999999668449,NA,49,NA,NA,3000,1,NA,NA,images/earth.jpg,images/rocket2,images/rocket1,null,images/rocket1,NA,1,real,null,1,NA,NA,NA,sub126
d3-animate-choice,190,812835,0.0-76.0-1.18,TRUE,TRUE,TRUE,TRUE,"""event"",""trial"",""time""
""fullscreenenter"",""5"",""17435""
","
","
","""event"",""trial"",""time""
""fullscreenenter"",""5"",""17435""
","
",609.969999990426,NA,48,NA,NA,3000,1,NA,NA,images/redplanet1.jpg,images/alien2,images/alien1,images/rocket1,images/alien2,images/t.png,2,real,true,2,common,1,2020-06-23T17:40:05Z,sub126
two-step-fixation,191,813843,0.0-76.0-2.18,TRUE,TRUE,TRUE,TRUE,"""event"",""trial"",""time""
""fullscreenenter"",""5"",""17435""
","
","
","""event"",""trial"",""time""
""fullscreenenter"",""5"",""17435""
","
",NA,images/earth.jpg,NA,NA,NA,NA,NA,NA,NA,NA,NA,NA,NA,NA,NA,fixation,NA,NA,NA,NA,NA,NA,sub126
d3-animate-choice,192,816418,0.0-76.0-0.19,TRUE,TRUE,TRUE,TRUE,"""event"",""trial"",""time""
""fullscreenenter"",""5"",""17435""
","
","
","""event"",""trial"",""time""
""fullscreenenter"",""5"",""17435""
","
",568.1399999884889,NA,49,NA,NA,3000,1,NA,NA,images/earth.jpg,images/rocket2,images/rocket1,null,images/rocket1,NA,1,real,null,1,NA,NA,NA,sub126
d3-animate-choice,193,818830,0.0-76.0-1.19,TRUE,TRUE,TRUE,TRUE,"""event"",""trial"",""time""
""fullscreenenter"",""5"",""17435""
","
","
","""event"",""trial"",""time""
""fullscreenenter"",""5"",""17435""
","
",406.86500002630055,NA,48,NA,NA,3000,1,NA,NA,images/redplanet1.jpg,images/alien2,images/alien1,images/rocket1,images/alien2,images/t.png,2,real,true,2,common,1,2020-06-23T17:40:11Z,sub126
two-step-fixation,194,819837,0.0-76.0-2.19,TRUE,TRUE,TRUE,TRUE,"""event"",""trial"",""time""
""fullscreenenter"",""5"",""17435""
","
","
","""event"",""trial"",""time""
""fullscreenenter"",""5"",""17435""
","
",NA,images/earth.jpg,NA,NA,NA,NA,NA,NA,NA,NA,NA,NA,NA,NA,NA,fixation,NA,NA,NA,NA,NA,NA,sub126
d3-animate-choice,195,822155,0.0-76.0-0.20,TRUE,TRUE,TRUE,TRUE,"""event"",""trial"",""time""
""fullscreenenter"",""5"",""17435""
","
","
","""event"",""trial"",""time""
""fullscreenenter"",""5"",""17435""
","
",311.5700000198558,NA,49,NA,NA,3000,1,NA,NA,images/earth.jpg,images/rocket2,images/rocket1,null,images/rocket1,NA,1,real,null,1,NA,NA,NA,sub126
d3-animate-choice,196,824561,0.0-76.0-1.20,TRUE,TRUE,TRUE,TRUE,"""event"",""trial"",""time""
""fullscreenenter"",""5"",""17435""
","
","
","""event"",""trial"",""time""
""fullscreenenter"",""5"",""17435""
","
",399.56499997060746,NA,48,NA,NA,3000,1,NA,NA,images/redplanet1.jpg,images/alien2,images/alien1,images/rocket1,images/alien2,images/nothing.png,2,real,true,2,common,0,2020-06-23T17:40:17Z,sub126
two-step-fixation,197,825568,0.0-76.0-2.20,TRUE,TRUE,TRUE,TRUE,"""event"",""trial"",""time""
""fullscreenenter"",""5"",""17435""
","
","
","""event"",""trial"",""time""
""fullscreenenter"",""5"",""17435""
","
",NA,images/earth.jpg,NA,NA,NA,NA,NA,NA,NA,NA,NA,NA,NA,NA,NA,fixation,NA,NA,NA,NA,NA,NA,sub126
d3-animate-choice,198,828316,0.0-76.0-0.21,TRUE,TRUE,TRUE,TRUE,"""event"",""trial"",""time""
""fullscreenenter"",""5"",""17435""
","
","
","""event"",""trial"",""time""
""fullscreenenter"",""5"",""17435""
","
",739.0649999724701,NA,49,NA,NA,3000,1,NA,NA,images/earth.jpg,images/rocket2,images/rocket1,null,images/rocket1,NA,1,real,null,1,NA,NA,NA,sub126
d3-animate-choice,199,830735,0.0-76.0-1.21,TRUE,TRUE,TRUE,TRUE,"""event"",""trial"",""time""
""fullscreenenter"",""5"",""17435""
","
","
","""event"",""trial"",""time""
""fullscreenenter"",""5"",""17435""
","
",412.41500002797693,NA,48,NA,NA,3000,1,NA,NA,images/redplanet1.jpg,images/alien2,images/alien1,images/rocket1,images/alien2,images/t.png,2,real,true,2,common,1,2020-06-23T17:40:23Z,sub126
two-step-fixation,200,831743,0.0-76.0-2.21,TRUE,TRUE,TRUE,TRUE,"""event"",""trial"",""time""
""fullscreenenter"",""5"",""17435""
","
","
","""event"",""trial"",""time""
""fullscreenenter"",""5"",""17435""
","
",NA,images/earth.jpg,NA,NA,NA,NA,NA,NA,NA,NA,NA,NA,NA,NA,NA,fixation,NA,NA,NA,NA,NA,NA,sub126
d3-animate-choice,201,834147,0.0-76.0-0.22,TRUE,TRUE,TRUE,TRUE,"""event"",""trial"",""time""
""fullscreenenter"",""5"",""17435""
","
","
","""event"",""trial"",""time""
""fullscreenenter"",""5"",""17435""
","
",396.77499991375953,NA,49,NA,NA,3000,1,758.7599999969825,48,images/earth.jpg,images/rocket2,images/rocket1,null,images/rocket1,NA,1,real,null,1,NA,NA,NA,sub126
d3-animate-choice,202,836662,0.0-76.0-1.22,TRUE,TRUE,TRUE,TRUE,"""event"",""trial"",""time""
""fullscreenenter"",""5"",""17435""
","
","
","""event"",""trial"",""time""
""fullscreenenter"",""5"",""17435""
","
",509.96000005397946,NA,48,NA,NA,3000,1,NA,NA,images/redplanet1.jpg,images/alien2,images/alien1,images/rocket1,images/alien2,images/t.png,2,real,true,2,common,1,2020-06-23T17:40:29Z,sub126
two-step-fixation,203,837669,0.0-76.0-2.22,TRUE,TRUE,TRUE,TRUE,"""event"",""trial"",""time""
""fullscreenenter"",""5"",""17435""
","
","
","""event"",""trial"",""time""
""fullscreenenter"",""5"",""17435""
","
",NA,images/earth.jpg,NA,NA,NA,NA,NA,NA,NA,NA,NA,NA,NA,NA,NA,fixation,NA,NA,NA,NA,NA,NA,sub126
d3-animate-choice,204,841314,0.0-76.0-0.23,TRUE,TRUE,TRUE,TRUE,"""event"",""trial"",""time""
""fullscreenenter"",""5"",""17435""
","
","
","""event"",""trial"",""time""
""fullscreenenter"",""5"",""17435""
","
",1638.0849999841303,NA,48,NA,NA,3000,1,NA,NA,images/earth.jpg,images/rocket2,images/rocket1,null,images/rocket2,NA,1,real,null,2,NA,NA,NA,sub126
d3-animate-choice,205,844110,0.0-76.0-1.23,TRUE,TRUE,TRUE,TRUE,"""event"",""trial"",""time""
""fullscreenenter"",""5"",""17435""
","
","
","""event"",""trial"",""time""
""fullscreenenter"",""5"",""17435""
","
",790.2349999640137,NA,48,NA,NA,3000,1,NA,NA,images/redplanet1.jpg,images/alien2,images/alien1,images/rocket2,images/alien2,images/t.png,2,real,false,2,rare,1,2020-06-23T17:40:36Z,sub126
two-step-fixation,206,845116,0.0-76.0-2.23,TRUE,TRUE,TRUE,TRUE,"""event"",""trial"",""time""
""fullscreenenter"",""5"",""17435""
","
","
","""event"",""trial"",""time""
""fullscreenenter"",""5"",""17435""
","
",NA,images/earth.jpg,NA,NA,NA,NA,NA,NA,NA,NA,NA,NA,NA,NA,NA,fixation,NA,NA,NA,NA,NA,NA,sub126
d3-animate-choice,207,847442,0.0-76.0-0.24,TRUE,TRUE,TRUE,TRUE,"""event"",""trial"",""time""
""fullscreenenter"",""5"",""17435""
","
","
","""event"",""trial"",""time""
""fullscreenenter"",""5"",""17435""
","
",319.27999993786216,NA,48,NA,NA,3000,1,NA,NA,images/earth.jpg,images/rocket2,images/rocket1,null,images/rocket2,NA,1,real,null,2,NA,NA,NA,sub126
d3-animate-choice,208,850356,0.0-76.0-1.24,TRUE,TRUE,TRUE,TRUE,"""event"",""trial"",""time""
""fullscreenenter"",""5"",""17435""
","
","
","""event"",""trial"",""time""
""fullscreenenter"",""5"",""17435""
","
",908.4199999924749,NA,48,NA,NA,3000,1,NA,NA,images/purpleplanet.jpg,images/alien4,images/alien3,images/rocket2,images/alien4,images/t.png,2,real,true,2,common,1,2020-06-23T17:40:42Z,sub126
two-step-fixation,209,851363,0.0-76.0-2.24,TRUE,TRUE,TRUE,TRUE,"""event"",""trial"",""time""
""fullscreenenter"",""5"",""17435""
","
","
","""event"",""trial"",""time""
""fullscreenenter"",""5"",""17435""
","
",NA,images/earth.jpg,NA,NA,NA,NA,NA,NA,NA,NA,NA,NA,NA,NA,NA,fixation,NA,NA,NA,NA,NA,NA,sub126
d3-animate-choice,210,853604,0.0-76.0-0.25,TRUE,TRUE,TRUE,TRUE,"""event"",""trial"",""time""
""fullscreenenter"",""5"",""17435""
","
","
","""event"",""trial"",""time""
""fullscreenenter"",""5"",""17435""
","
",235.6800000416115,NA,48,NA,NA,3000,1,NA,NA,images/earth.jpg,images/rocket2,images/rocket1,null,images/rocket2,NA,1,real,null,2,NA,NA,NA,sub126
d3-animate-choice,211,856061,0.0-76.0-1.25,TRUE,TRUE,TRUE,TRUE,"""event"",""trial"",""time""
""fullscreenenter"",""5"",""17435""
","
","
","""event"",""trial"",""time""
""fullscreenenter"",""5"",""17435""
","
",454.0799999376759,NA,48,NA,NA,3000,1,NA,NA,images/purpleplanet.jpg,images/alien4,images/alien3,images/rocket2,images/alien4,images/t.png,2,real,true,2,common,1,2020-06-23T17:40:48Z,sub126
two-step-fixation,212,857067,0.0-76.0-2.25,TRUE,TRUE,TRUE,TRUE,"""event"",""trial"",""time""
""fullscreenenter"",""5"",""17435""
","
","
","""event"",""trial"",""time""
""fullscreenenter"",""5"",""17435""
","
",NA,images/earth.jpg,NA,NA,NA,NA,NA,NA,NA,NA,NA,NA,NA,NA,NA,fixation,NA,NA,NA,NA,NA,NA,sub126
d3-animate-choice,213,859406,0.0-76.0-0.26,TRUE,TRUE,TRUE,TRUE,"""event"",""trial"",""time""
""fullscreenenter"",""5"",""17435""
","
","
","""event"",""trial"",""time""
""fullscreenenter"",""5"",""17435""
","
",332.24000001791865,NA,48,NA,NA,3000,1,NA,NA,images/earth.jpg,images/rocket2,images/rocket1,null,images/rocket2,NA,1,real,null,2,NA,NA,NA,sub126
d3-animate-choice,214,862030,0.0-76.0-1.26,TRUE,TRUE,TRUE,TRUE,"""event"",""trial"",""time""
""fullscreenenter"",""5"",""17435""
","
","
","""event"",""trial"",""time""
""fullscreenenter"",""5"",""17435""
","
",617.2600000863895,NA,48,NA,NA,3000,1,NA,NA,images/purpleplanet.jpg,images/alien4,images/alien3,images/rocket2,images/alien4,images/t.png,2,real,true,2,common,1,2020-06-23T17:40:54Z,sub126
two-step-fixation,215,863038,0.0-76.0-2.26,TRUE,TRUE,TRUE,TRUE,"""event"",""trial"",""time""
""fullscreenenter"",""5"",""17435""
","
","
","""event"",""trial"",""time""
""fullscreenenter"",""5"",""17435""
","
",NA,images/earth.jpg,NA,NA,NA,NA,NA,NA,NA,NA,NA,NA,NA,NA,NA,fixation,NA,NA,NA,NA,NA,NA,sub126
d3-animate-choice,216,865350,0.0-76.0-0.27,TRUE,TRUE,TRUE,TRUE,"""event"",""trial"",""time""
""fullscreenenter"",""5"",""17435""
","
","
","""event"",""trial"",""time""
""fullscreenenter"",""5"",""17435""
","
",306.4700000686571,NA,48,NA,NA,3000,1,NA,NA,images/earth.jpg,images/rocket2,images/rocket1,null,images/rocket2,NA,1,real,null,2,NA,NA,NA,sub126
d3-animate-choice,217,867852,0.0-76.0-1.27,TRUE,TRUE,TRUE,TRUE,"""event"",""trial"",""time""
""fullscreenenter"",""5"",""17435""
","
","
","""event"",""trial"",""time""
""fullscreenenter"",""5"",""17435""
","
",497.58500000461936,NA,48,NA,NA,3000,1,NA,NA,images/purpleplanet.jpg,images/alien4,images/alien3,images/rocket2,images/alien4,images/t.png,2,real,true,2,common,1,2020-06-23T17:41:00Z,sub126
two-step-fixation,218,868859,0.0-76.0-2.27,TRUE,TRUE,TRUE,TRUE,"""event"",""trial"",""time""
""fullscreenenter"",""5"",""17435""
","
","
","""event"",""trial"",""time""
""fullscreenenter"",""5"",""17435""
","
",NA,images/earth.jpg,NA,NA,NA,NA,NA,NA,NA,NA,NA,NA,NA,NA,NA,fixation,NA,NA,NA,NA,NA,NA,sub126
d3-animate-choice,219,871194,0.0-76.0-0.28,TRUE,TRUE,TRUE,TRUE,"""event"",""trial"",""time""
""fullscreenenter"",""5"",""17435""
","
","
","""event"",""trial"",""time""
""fullscreenenter"",""5"",""17435""
","
",331.0950000304729,NA,48,NA,NA,3000,1,NA,NA,images/earth.jpg,images/rocket2,images/rocket1,null,images/rocket2,NA,1,real,null,2,NA,NA,NA,sub126
d3-animate-choice,220,873630,0.0-76.0-1.28,TRUE,TRUE,TRUE,TRUE,"""event"",""trial"",""time""
""fullscreenenter"",""5"",""17435""
","
","
","""event"",""trial"",""time""
""fullscreenenter"",""5"",""17435""
","
",429.9899999750778,NA,48,NA,NA,3000,1,NA,NA,images/purpleplanet.jpg,images/alien4,images/alien3,images/rocket2,images/alien4,images/nothing.png,2,real,true,2,common,0,2020-06-23T17:41:06Z,sub126
two-step-fixation,221,874636,0.0-76.0-2.28,TRUE,TRUE,TRUE,TRUE,"""event"",""trial"",""time""
""fullscreenenter"",""5"",""17435""
","
","
","""event"",""trial"",""time""
""fullscreenenter"",""5"",""17435""
","
",NA,images/earth.jpg,NA,NA,NA,NA,NA,NA,NA,NA,NA,NA,NA,NA,NA,fixation,NA,NA,NA,NA,NA,NA,sub126
d3-animate-choice,222,876971,0.0-76.0-0.29,TRUE,TRUE,TRUE,TRUE,"""event"",""trial"",""time""
""fullscreenenter"",""5"",""17435""
","
","
","""event"",""trial"",""time""
""fullscreenenter"",""5"",""17435""
","
",329.4749999186024,NA,48,NA,NA,3000,1,NA,NA,images/earth.jpg,images/rocket2,images/rocket1,null,images/rocket2,NA,1,real,null,2,NA,NA,NA,sub126
d3-animate-choice,223,879616,0.0-76.0-1.29,TRUE,TRUE,TRUE,TRUE,"""event"",""trial"",""time""
""fullscreenenter"",""5"",""17435""
","
","
","""event"",""trial"",""time""
""fullscreenenter"",""5"",""17435""
","
",639.1499999444932,NA,48,NA,NA,3000,1,NA,NA,images/redplanet1.jpg,images/alien2,images/alien1,images/rocket2,images/alien2,images/t.png,2,real,false,2,rare,1,2020-06-23T17:41:12Z,sub126
two-step-fixation,224,880620,0.0-76.0-2.29,TRUE,TRUE,TRUE,TRUE,"""event"",""trial"",""time""
""fullscreenenter"",""5"",""17435""
","
","
","""event"",""trial"",""time""
""fullscreenenter"",""5"",""17435""
","
",NA,images/earth.jpg,NA,NA,NA,NA,NA,NA,NA,NA,NA,NA,NA,NA,NA,fixation,NA,NA,NA,NA,NA,NA,sub126
d3-animate-choice,225,882936,0.0-76.0-0.30,TRUE,TRUE,TRUE,TRUE,"""event"",""trial"",""time""
""fullscreenenter"",""5"",""17435""
","
","
","""event"",""trial"",""time""
""fullscreenenter"",""5"",""17435""
","
",310.22500002291054,NA,48,NA,NA,3000,1,NA,NA,images/earth.jpg,images/rocket2,images/rocket1,null,images/rocket2,NA,1,real,null,2,NA,NA,NA,sub126
d3-animate-choice,226,885720,0.0-76.0-1.30,TRUE,TRUE,TRUE,TRUE,"""event"",""trial"",""time""
""fullscreenenter"",""5"",""17435""
","
","
","""event"",""trial"",""time""
""fullscreenenter"",""5"",""17435""
","
",779.5449999393895,NA,48,NA,NA,3000,1,NA,NA,images/redplanet1.jpg,images/alien2,images/alien1,images/rocket2,images/alien2,images/nothing.png,2,real,false,2,rare,0,2020-06-23T17:41:18Z,sub126
two-step-fixation,227,886726,0.0-76.0-2.30,TRUE,TRUE,TRUE,TRUE,"""event"",""trial"",""time""
""fullscreenenter"",""5"",""17435""
","
","
","""event"",""trial"",""time""
""fullscreenenter"",""5"",""17435""
","
",NA,images/earth.jpg,NA,NA,NA,NA,NA,NA,NA,NA,NA,NA,NA,NA,NA,fixation,NA,NA,NA,NA,NA,NA,sub126
d3-animate-choice,228,889098,0.0-76.0-0.31,TRUE,TRUE,TRUE,TRUE,"""event"",""trial"",""time""
""fullscreenenter"",""5"",""17435""
","
","
","""event"",""trial"",""time""
""fullscreenenter"",""5"",""17435""
","
",366.52999999932945,NA,48,NA,NA,3000,1,NA,NA,images/earth.jpg,images/rocket2,images/rocket1,null,images/rocket2,NA,1,real,null,2,NA,NA,NA,sub126
d3-animate-choice,229,891745,0.0-76.0-1.31,TRUE,TRUE,TRUE,TRUE,"""event"",""trial"",""time""
""fullscreenenter"",""5"",""17435""
","
","
","""event"",""trial"",""time""
""fullscreenenter"",""5"",""17435""
","
",640.6499999575317,NA,48,NA,NA,3000,1,NA,NA,images/purpleplanet.jpg,images/alien4,images/alien3,images/rocket2,images/alien4,images/t.png,2,real,true,2,common,1,2020-06-23T17:41:24Z,sub126
two-step-fixation,230,892751,0.0-76.0-2.31,TRUE,TRUE,TRUE,TRUE,"""event"",""trial"",""time""
""fullscreenenter"",""5"",""17435""
","
","
","""event"",""trial"",""time""
""fullscreenenter"",""5"",""17435""
","
",NA,images/earth.jpg,NA,NA,NA,NA,NA,NA,NA,NA,NA,NA,NA,NA,NA,fixation,NA,NA,NA,NA,NA,NA,sub126
d3-animate-choice,231,895135,0.0-76.0-0.32,TRUE,TRUE,TRUE,TRUE,"""event"",""trial"",""time""
""fullscreenenter"",""5"",""17435""
","
","
","""event"",""trial"",""time""
""fullscreenenter"",""5"",""17435""
","
",378.00999998580664,NA,48,NA,NA,3000,1,NA,NA,images/earth.jpg,images/rocket2,images/rocket1,null,images/rocket2,NA,1,real,null,2,NA,NA,NA,sub126
d3-animate-choice,232,897689,0.0-76.0-1.32,TRUE,TRUE,TRUE,TRUE,"""event"",""trial"",""time""
""fullscreenenter"",""5"",""17435""
","
","
","""event"",""trial"",""time""
""fullscreenenter"",""5"",""17435""
","
",549.4849999668077,NA,48,NA,NA,3000,1,NA,NA,images/purpleplanet.jpg,images/alien4,images/alien3,images/rocket2,images/alien4,images/t.png,2,real,true,2,common,1,2020-06-23T17:41:30Z,sub126
two-step-fixation,233,898696,0.0-76.0-2.32,TRUE,TRUE,TRUE,TRUE,"""event"",""trial"",""time""
""fullscreenenter"",""5"",""17435""
","
","
","""event"",""trial"",""time""
""fullscreenenter"",""5"",""17435""
","
",NA,images/earth.jpg,NA,NA,NA,NA,NA,NA,NA,NA,NA,NA,NA,NA,NA,fixation,NA,NA,NA,NA,NA,NA,sub126
d3-animate-choice,234,901086,0.0-76.0-0.33,TRUE,TRUE,TRUE,TRUE,"""event"",""trial"",""time""
""fullscreenenter"",""5"",""17435""
","
","
","""event"",""trial"",""time""
""fullscreenenter"",""5"",""17435""
","
",385.065000038594,NA,48,NA,NA,3000,1,NA,NA,images/earth.jpg,images/rocket2,images/rocket1,null,images/rocket2,NA,1,real,null,2,NA,NA,NA,sub126
d3-animate-choice,235,903648,0.0-76.0-1.33,TRUE,TRUE,TRUE,TRUE,"""event"",""trial"",""time""
""fullscreenenter"",""5"",""17435""
","
","
","""event"",""trial"",""time""
""fullscreenenter"",""5"",""17435""
","
",557.2150000371039,NA,48,NA,NA,3000,1,NA,NA,images/purpleplanet.jpg,images/alien4,images/alien3,images/rocket2,images/alien4,images/nothing.png,2,real,true,2,common,0,2020-06-23T17:41:36Z,sub126
two-step-fixation,236,904656,0.0-76.0-2.33,TRUE,TRUE,TRUE,TRUE,"""event"",""trial"",""time""
""fullscreenenter"",""5"",""17435""
","
","
","""event"",""trial"",""time""
""fullscreenenter"",""5"",""17435""
","
",NA,images/earth.jpg,NA,NA,NA,NA,NA,NA,NA,NA,NA,NA,NA,NA,NA,fixation,NA,NA,NA,NA,NA,NA,sub126
d3-animate-choice,237,906929,0.0-76.0-0.34,TRUE,TRUE,TRUE,TRUE,"""event"",""trial"",""time""
""fullscreenenter"",""5"",""17435""
","
","
","""event"",""trial"",""time""
""fullscreenenter"",""5"",""17435""
","
",264.09999991301447,NA,48,NA,NA,3000,1,NA,NA,images/earth.jpg,images/rocket2,images/rocket1,null,images/rocket2,NA,1,real,null,2,NA,NA,NA,sub126
d3-animate-choice,238,909558,0.0-76.0-1.34,TRUE,TRUE,TRUE,TRUE,"""event"",""trial"",""time""
""fullscreenenter"",""5"",""17435""
","
","
","""event"",""trial"",""time""
""fullscreenenter"",""5"",""17435""
","
",624.695000005886,NA,48,NA,NA,3000,1,NA,NA,images/redplanet1.jpg,images/alien2,images/alien1,images/rocket2,images/alien2,images/t.png,2,real,false,2,rare,1,2020-06-23T17:41:42Z,sub126
two-step-fixation,239,910562,0.0-76.0-2.34,TRUE,TRUE,TRUE,TRUE,"""event"",""trial"",""time""
""fullscreenenter"",""5"",""17435""
","
","
","""event"",""trial"",""time""
""fullscreenenter"",""5"",""17435""
","
",NA,images/earth.jpg,NA,NA,NA,NA,NA,NA,NA,NA,NA,NA,NA,NA,NA,fixation,NA,NA,NA,NA,NA,NA,sub126
d3-animate-choice,240,913029,0.0-76.0-0.35,TRUE,TRUE,TRUE,TRUE,"""event"",""trial"",""time""
""fullscreenenter"",""5"",""17435""
","
","
","""event"",""trial"",""time""
""fullscreenenter"",""5"",""17435""
","
",459.84500006306916,NA,48,NA,NA,3000,1,NA,NA,images/earth.jpg,images/rocket2,images/rocket1,null,images/rocket2,NA,1,real,null,2,NA,NA,NA,sub126
d3-animate-choice,241,915538,0.0-76.0-1.35,TRUE,TRUE,TRUE,TRUE,"""event"",""trial"",""time""
""fullscreenenter"",""5"",""17435""
","
","
","""event"",""trial"",""time""
""fullscreenenter"",""5"",""17435""
","
",503.0499999411404,NA,48,NA,NA,3000,1,NA,NA,images/redplanet1.jpg,images/alien2,images/alien1,images/rocket2,images/alien2,images/nothing.png,2,real,false,2,rare,0,2020-06-23T17:41:48Z,sub126
two-step-fixation,242,916545,0.0-76.0-2.35,TRUE,TRUE,TRUE,TRUE,"""event"",""trial"",""time""
""fullscreenenter"",""5"",""17435""
","
","
","""event"",""trial"",""time""
""fullscreenenter"",""5"",""17435""
","
",NA,images/earth.jpg,NA,NA,NA,NA,NA,NA,NA,NA,NA,NA,NA,NA,NA,fixation,NA,NA,NA,NA,NA,NA,sub126
d3-animate-choice,243,918873,0.0-76.0-0.36,TRUE,TRUE,TRUE,TRUE,"""event"",""trial"",""time""
""fullscreenenter"",""5"",""17435""
","
","
","""event"",""trial"",""time""
""fullscreenenter"",""5"",""17435""
","
",321.1149999406189,NA,48,NA,NA,3000,1,NA,NA,images/earth.jpg,images/rocket2,images/rocket1,null,images/rocket2,NA,1,real,null,2,NA,NA,NA,sub126
d3-animate-choice,244,921447,0.0-76.0-1.36,TRUE,TRUE,TRUE,TRUE,"""event"",""trial"",""time""
""fullscreenenter"",""5"",""17435""
","
","
","""event"",""trial"",""time""
""fullscreenenter"",""5"",""17435""
","
",568.1249999906868,NA,48,NA,NA,3000,1,NA,NA,images/purpleplanet.jpg,images/alien4,images/alien3,images/rocket2,images/alien4,images/nothing.png,2,real,true,2,common,0,2020-06-23T17:41:54Z,sub126
two-step-fixation,245,922450,0.0-76.0-2.36,TRUE,TRUE,TRUE,TRUE,"""event"",""trial"",""time""
""fullscreenenter"",""5"",""17435""
","
","
","""event"",""trial"",""time""
""fullscreenenter"",""5"",""17435""
","
",NA,images/earth.jpg,NA,NA,NA,NA,NA,NA,NA,NA,NA,NA,NA,NA,NA,fixation,NA,NA,NA,NA,NA,NA,sub126
d3-animate-choice,246,926113,0.0-76.0-0.37,TRUE,TRUE,TRUE,TRUE,"""event"",""trial"",""time""
""fullscreenenter"",""5"",""17435""
","
","
","""event"",""trial"",""time""
""fullscreenenter"",""5"",""17435""
","
",1658.8300000876188,NA,48,NA,NA,3000,1,NA,NA,images/earth.jpg,images/rocket2,images/rocket1,null,images/rocket2,NA,1,real,null,2,NA,NA,NA,sub126
d3-animate-choice,247,929338,0.0-76.0-1.37,TRUE,TRUE,TRUE,TRUE,"""event"",""trial"",""time""
""fullscreenenter"",""5"",""17435""
","
","
","""event"",""trial"",""time""
""fullscreenenter"",""5"",""17435""
","
",1220.7099999068305,NA,49,NA,NA,3000,1,NA,NA,images/purpleplanet.jpg,images/alien4,images/alien3,images/rocket2,images/alien3,images/nothing.png,2,real,true,1,common,0,2020-06-23T17:42:01Z,sub126
two-step-fixation,248,930345,0.0-76.0-2.37,TRUE,TRUE,TRUE,TRUE,"""event"",""trial"",""time""
""fullscreenenter"",""5"",""17435""
","
","
","""event"",""trial"",""time""
""fullscreenenter"",""5"",""17435""
","
",NA,images/earth.jpg,NA,NA,NA,NA,NA,NA,NA,NA,NA,NA,NA,NA,NA,fixation,NA,NA,NA,NA,NA,NA,sub126
d3-animate-choice,249,932657,0.0-76.0-0.38,TRUE,TRUE,TRUE,TRUE,"""event"",""trial"",""time""
""fullscreenenter"",""5"",""17435""
","
","
","""event"",""trial"",""time""
""fullscreenenter"",""5"",""17435""
","
",304.8699999926612,NA,48,NA,NA,3000,1,NA,NA,images/earth.jpg,images/rocket2,images/rocket1,null,images/rocket2,NA,1,real,null,2,NA,NA,NA,sub126
d3-animate-choice,250,935144,0.0-76.0-1.38,TRUE,TRUE,TRUE,TRUE,"""event"",""trial"",""time""
""fullscreenenter"",""5"",""17435""
","
","
","""event"",""trial"",""time""
""fullscreenenter"",""5"",""17435""
","
",483.7200000183657,NA,48,NA,NA,3000,1,NA,NA,images/purpleplanet.jpg,images/alien4,images/alien3,images/rocket2,images/alien4,images/t.png,2,real,true,2,common,1,2020-06-23T17:42:07Z,sub126
two-step-fixation,251,936148,0.0-76.0-2.38,TRUE,TRUE,TRUE,TRUE,"""event"",""trial"",""time""
""fullscreenenter"",""5"",""17435""
","
","
","""event"",""trial"",""time""
""fullscreenenter"",""5"",""17435""
","
",NA,images/earth.jpg,NA,NA,NA,NA,NA,NA,NA,NA,NA,NA,NA,NA,NA,fixation,NA,NA,NA,NA,NA,NA,sub126
d3-animate-choice,252,938474,0.0-76.0-0.39,TRUE,TRUE,TRUE,TRUE,"""event"",""trial"",""time""
""fullscreenenter"",""5"",""17435""
","
","
","""event"",""trial"",""time""
""fullscreenenter"",""5"",""17435""
","
",319.89000004250556,NA,48,NA,NA,3000,1,NA,NA,images/earth.jpg,images/rocket2,images/rocket1,null,images/rocket2,NA,1,real,null,2,NA,NA,NA,sub126
d3-animate-choice,253,940939,0.0-76.0-1.39,TRUE,TRUE,TRUE,TRUE,"""event"",""trial"",""time""
""fullscreenenter"",""5"",""17435""
","
","
","""event"",""trial"",""time""
""fullscreenenter"",""5"",""17435""
","
",460.0750000681728,NA,48,NA,NA,3000,1,NA,NA,images/purpleplanet.jpg,images/alien4,images/alien3,images/rocket2,images/alien4,images/t.png,2,real,true,2,common,1,2020-06-23T17:42:13Z,sub126
two-step-fixation,254,941945,0.0-76.0-2.39,TRUE,TRUE,TRUE,TRUE,"""event"",""trial"",""time""
""fullscreenenter"",""5"",""17435""
","
","
","""event"",""trial"",""time""
""fullscreenenter"",""5"",""17435""
","
",NA,images/earth.jpg,NA,NA,NA,NA,NA,NA,NA,NA,NA,NA,NA,NA,NA,fixation,NA,NA,NA,NA,NA,NA,sub126
d3-animate-choice,255,944266,0.0-76.0-0.40,TRUE,TRUE,TRUE,TRUE,"""event"",""trial"",""time""
""fullscreenenter"",""5"",""17435""
","
","
","""event"",""trial"",""time""
""fullscreenenter"",""5"",""17435""
","
",312.7099999692291,NA,48,NA,NA,3000,1,NA,NA,images/earth.jpg,images/rocket2,images/rocket1,null,images/rocket2,NA,1,real,null,2,NA,NA,NA,sub126
d3-animate-choice,256,946775,0.0-76.0-1.40,TRUE,TRUE,TRUE,TRUE,"""event"",""trial"",""time""
""fullscreenenter"",""5"",""17435""
","
","
","""event"",""trial"",""time""
""fullscreenenter"",""5"",""17435""
","
",503.0049999477342,NA,48,NA,NA,3000,1,NA,NA,images/purpleplanet.jpg,images/alien4,images/alien3,images/rocket2,images/alien4,images/t.png,2,real,true,2,common,1,2020-06-23T17:42:19Z,sub126
two-step-fixation,257,947783,0.0-76.0-2.40,TRUE,TRUE,TRUE,TRUE,"""event"",""trial"",""time""
""fullscreenenter"",""5"",""17435""
","
","
","""event"",""trial"",""time""
""fullscreenenter"",""5"",""17435""
","
",NA,images/earth.jpg,NA,NA,NA,NA,NA,NA,NA,NA,NA,NA,NA,NA,NA,fixation,NA,NA,NA,NA,NA,NA,sub126
d3-animate-choice,258,950125,0.0-76.0-0.41,TRUE,TRUE,TRUE,TRUE,"""event"",""trial"",""time""
""fullscreenenter"",""5"",""17435""
","
","
","""event"",""trial"",""time""
""fullscreenenter"",""5"",""17435""
","
",334.14000004995614,NA,48,NA,NA,3000,1,NA,NA,images/earth.jpg,images/rocket2,images/rocket1,null,images/rocket2,NA,1,real,null,2,NA,NA,NA,sub126
d3-animate-choice,259,952669,0.0-76.0-1.41,TRUE,TRUE,TRUE,TRUE,"""event"",""trial"",""time""
""fullscreenenter"",""5"",""17435""
","
","
","""event"",""trial"",""time""
""fullscreenenter"",""5"",""17435""
","
",538.5650000534952,NA,48,NA,NA,3000,1,NA,NA,images/purpleplanet.jpg,images/alien4,images/alien3,images/rocket2,images/alien4,images/nothing.png,2,real,true,2,common,0,2020-06-23T17:42:25Z,sub126
two-step-fixation,260,953674,0.0-76.0-2.41,TRUE,TRUE,TRUE,TRUE,"""event"",""trial"",""time""
""fullscreenenter"",""5"",""17435""
","
","
","""event"",""trial"",""time""
""fullscreenenter"",""5"",""17435""
","
",NA,images/earth.jpg,NA,NA,NA,NA,NA,NA,NA,NA,NA,NA,NA,NA,NA,fixation,NA,NA,NA,NA,NA,NA,sub126
d3-animate-choice,261,956034,0.0-76.0-0.42,TRUE,TRUE,TRUE,TRUE,"""event"",""trial"",""time""
""fullscreenenter"",""5"",""17435""
","
","
","""event"",""trial"",""time""
""fullscreenenter"",""5"",""17435""
","
",352.67000005114824,NA,48,NA,NA,3000,1,NA,NA,images/earth.jpg,images/rocket2,images/rocket1,null,images/rocket2,NA,1,real,null,2,NA,NA,NA,sub126
d3-animate-choice,262,958678,0.0-76.0-1.42,TRUE,TRUE,TRUE,TRUE,"""event"",""trial"",""time""
""fullscreenenter"",""5"",""17435""
","
","
","""event"",""trial"",""time""
""fullscreenenter"",""5"",""17435""
","
",637.0500000193715,NA,48,NA,NA,3000,1,NA,NA,images/redplanet1.jpg,images/alien2,images/alien1,images/rocket2,images/alien2,images/t.png,2,real,false,2,rare,1,2020-06-23T17:42:31Z,sub126
two-step-fixation,263,959684,0.0-76.0-2.42,TRUE,TRUE,TRUE,TRUE,"""event"",""trial"",""time""
""fullscreenenter"",""5"",""17435""
","
","
","""event"",""trial"",""time""
""fullscreenenter"",""5"",""17435""
","
",NA,images/earth.jpg,NA,NA,NA,NA,NA,NA,NA,NA,NA,NA,NA,NA,NA,fixation,NA,NA,NA,NA,NA,NA,sub126
d3-animate-choice,264,962122,0.0-76.0-0.43,TRUE,TRUE,TRUE,TRUE,"""event"",""trial"",""time""
""fullscreenenter"",""5"",""17435""
","
","
","""event"",""trial"",""time""
""fullscreenenter"",""5"",""17435""
","
",432.2999999858439,NA,48,NA,NA,3000,1,NA,NA,images/earth.jpg,images/rocket2,images/rocket1,null,images/rocket2,NA,1,real,null,2,NA,NA,NA,sub126
d3-animate-choice,265,964629,0.0-76.0-1.43,TRUE,TRUE,TRUE,TRUE,"""event"",""trial"",""time""
""fullscreenenter"",""5"",""17435""
","
","
","""event"",""trial"",""time""
""fullscreenenter"",""5"",""17435""
","
",500.95000001601875,NA,48,NA,NA,3000,1,2398.3500000322238,48,images/purpleplanet.jpg,images/alien4,images/alien3,images/rocket2,images/alien4,images/t.png,2,real,true,2,common,1,2020-06-23T17:42:37Z,sub126
two-step-fixation,266,965636,0.0-76.0-2.43,TRUE,TRUE,TRUE,TRUE,"""event"",""trial"",""time""
""fullscreenenter"",""5"",""17435""
","
","
","""event"",""trial"",""time""
""fullscreenenter"",""5"",""17435""
","
",NA,images/earth.jpg,NA,NA,NA,NA,NA,NA,NA,NA,NA,NA,NA,NA,NA,fixation,NA,NA,NA,NA,NA,NA,sub126
d3-animate-choice,267,967951,0.0-76.0-0.44,TRUE,TRUE,TRUE,TRUE,"""event"",""trial"",""time""
""fullscreenenter"",""5"",""17435""
","
","
","""event"",""trial"",""time""
""fullscreenenter"",""5"",""17435""
","
",308.6050000274554,NA,48,NA,NA,3000,1,NA,NA,images/earth.jpg,images/rocket2,images/rocket1,null,images/rocket2,NA,1,real,null,2,NA,NA,NA,sub126
d3-animate-choice,268,970411,0.0-76.0-1.44,TRUE,TRUE,TRUE,TRUE,"""event"",""trial"",""time""
""fullscreenenter"",""5"",""17435""
","
","
","""event"",""trial"",""time""
""fullscreenenter"",""5"",""17435""
","
",453.4849999472499,NA,48,NA,NA,3000,1,NA,NA,images/purpleplanet.jpg,images/alien4,images/alien3,images/rocket2,images/alien4,images/nothing.png,2,real,true,2,common,0,2020-06-23T17:42:43Z,sub126
two-step-fixation,269,971419,0.0-76.0-2.44,TRUE,TRUE,TRUE,TRUE,"""event"",""trial"",""time""
""fullscreenenter"",""5"",""17435""
","
","
","""event"",""trial"",""time""
""fullscreenenter"",""5"",""17435""
","
",NA,images/earth.jpg,NA,NA,NA,NA,NA,NA,NA,NA,NA,NA,NA,NA,NA,fixation,NA,NA,NA,NA,NA,NA,sub126
d3-animate-choice,270,973906,0.0-76.0-0.45,TRUE,TRUE,TRUE,TRUE,"""event"",""trial"",""time""
""fullscreenenter"",""5"",""17435""
","
","
","""event"",""trial"",""time""
""fullscreenenter"",""5"",""17435""
","
",481.2650000676513,NA,48,NA,NA,3000,1,NA,NA,images/earth.jpg,images/rocket2,images/rocket1,null,images/rocket2,NA,1,real,null,2,NA,NA,NA,sub126
d3-animate-choice,271,976329,0.0-76.0-1.45,TRUE,TRUE,TRUE,TRUE,"""event"",""trial"",""time""
""fullscreenenter"",""5"",""17435""
","
","
","""event"",""trial"",""time""
""fullscreenenter"",""5"",""17435""
","
",416.14000010304153,NA,48,NA,NA,3000,1,NA,NA,images/redplanet1.jpg,images/alien2,images/alien1,images/rocket2,images/alien2,images/nothing.png,2,real,false,2,rare,0,2020-06-23T17:42:48Z,sub126
two-step-fixation,272,977337,0.0-76.0-2.45,TRUE,TRUE,TRUE,TRUE,"""event"",""trial"",""time""
""fullscreenenter"",""5"",""17435""
","
","
","""event"",""trial"",""time""
""fullscreenenter"",""5"",""17435""
","
",NA,images/earth.jpg,NA,NA,NA,NA,NA,NA,NA,NA,NA,NA,NA,NA,NA,fixation,NA,NA,NA,NA,NA,NA,sub126
d3-animate-choice,273,979679,0.0-76.0-0.46,TRUE,TRUE,TRUE,TRUE,"""event"",""trial"",""time""
""fullscreenenter"",""5"",""17435""
","
","
","""event"",""trial"",""time""
""fullscreenenter"",""5"",""17435""
","
",336.0200000461191,NA,48,NA,NA,3000,1,NA,NA,images/earth.jpg,images/rocket2,images/rocket1,null,images/rocket2,NA,1,real,null,2,NA,NA,NA,sub126
d3-animate-choice,274,982947,0.0-76.0-1.46,TRUE,TRUE,TRUE,TRUE,"""event"",""trial"",""time""
""fullscreenenter"",""5"",""17435""
","
","
","""event"",""trial"",""time""
""fullscreenenter"",""5"",""17435""
","
",1262.8000000258908,NA,49,NA,NA,3000,1,NA,NA,images/purpleplanet.jpg,images/alien4,images/alien3,images/rocket2,images/alien3,images/nothing.png,2,real,true,1,common,0,2020-06-23T17:42:55Z,sub126
two-step-fixation,275,983951,0.0-76.0-2.46,TRUE,TRUE,TRUE,TRUE,"""event"",""trial"",""time""
""fullscreenenter"",""5"",""17435""
","
","
","""event"",""trial"",""time""
""fullscreenenter"",""5"",""17435""
","
",NA,images/earth.jpg,NA,NA,NA,NA,NA,NA,NA,NA,NA,NA,NA,NA,NA,fixation,NA,NA,NA,NA,NA,NA,sub126
d3-animate-choice,276,986363,0.0-76.0-0.47,TRUE,TRUE,TRUE,TRUE,"""event"",""trial"",""time""
""fullscreenenter"",""5"",""17435""
","
","
","""event"",""trial"",""time""
""fullscreenenter"",""5"",""17435""
","
",390.8150000497699,NA,48,NA,NA,3000,1,NA,NA,images/earth.jpg,images/rocket2,images/rocket1,null,images/rocket2,NA,1,real,null,2,NA,NA,NA,sub126
d3-animate-choice,277,988860,0.0-76.0-1.47,TRUE,TRUE,TRUE,TRUE,"""event"",""trial"",""time""
""fullscreenenter"",""5"",""17435""
","
","
","""event"",""trial"",""time""
""fullscreenenter"",""5"",""17435""
","
",491.8000000761822,NA,48,NA,NA,3000,1,NA,NA,images/purpleplanet.jpg,images/alien4,images/alien3,images/rocket2,images/alien4,images/nothing.png,2,real,true,2,common,0,2020-06-23T17:43:01Z,sub126
two-step-fixation,278,989867,0.0-76.0-2.47,TRUE,TRUE,TRUE,TRUE,"""event"",""trial"",""time""
""fullscreenenter"",""5"",""17435""
","
","
","""event"",""trial"",""time""
""fullscreenenter"",""5"",""17435""
","
",NA,images/earth.jpg,NA,NA,NA,NA,NA,NA,NA,NA,NA,NA,NA,NA,NA,fixation,NA,NA,NA,NA,NA,NA,sub126
d3-animate-choice,279,992249,0.0-76.0-0.48,TRUE,TRUE,TRUE,TRUE,"""event"",""trial"",""time""
""fullscreenenter"",""5"",""17435""
","
","
","""event"",""trial"",""time""
""fullscreenenter"",""5"",""17435""
","
",376.7750000115484,NA,48,NA,NA,3000,1,NA,NA,images/earth.jpg,images/rocket2,images/rocket1,null,images/rocket2,NA,1,real,null,2,NA,NA,NA,sub126
d3-animate-choice,280,994876,0.0-76.0-1.48,TRUE,TRUE,TRUE,TRUE,"""event"",""trial"",""time""
""fullscreenenter"",""5"",""17435""
","
","
","""event"",""trial"",""time""
""fullscreenenter"",""5"",""17435""
","
",623.6750000389293,NA,48,NA,NA,3000,1,NA,NA,images/purpleplanet.jpg,images/alien4,images/alien3,images/rocket2,images/alien4,images/nothing.png,2,real,true,2,common,0,2020-06-23T17:43:07Z,sub126
two-step-fixation,281,995883,0.0-76.0-2.48,TRUE,TRUE,TRUE,TRUE,"""event"",""trial"",""time""
""fullscreenenter"",""5"",""17435""
","
","
","""event"",""trial"",""time""
""fullscreenenter"",""5"",""17435""
","
",NA,images/earth.jpg,NA,NA,NA,NA,NA,NA,NA,NA,NA,NA,NA,NA,NA,fixation,NA,NA,NA,NA,NA,NA,sub126
d3-animate-choice,282,998227,0.0-76.0-0.49,TRUE,TRUE,TRUE,TRUE,"""event"",""trial"",""time""
""fullscreenenter"",""5"",""17435""
","
","
","""event"",""trial"",""time""
""fullscreenenter"",""5"",""17435""
","
",337.4949999852106,NA,48,NA,NA,3000,1,NA,NA,images/earth.jpg,images/rocket2,images/rocket1,null,images/rocket2,NA,1,real,null,2,NA,NA,NA,sub126
