trial_type,trial_index,time_elapsed,internal_node_id,rocket_sides,red_planet_first_rocket,red_display_order,purple_display_order,interactions,blur_events,focus_events,fullscreenenter_events,fullscreenexit_events,rt,stimulus,key_press,button_pressed,success,duration,valid_pressed,rts,keys,planet_text,right_text,left_text,center_text,chosen_text,reward_text,trial_stage,practice_trial,transition_type,choice,transition,reward,timestamp,subject_id
pavlovia,0,13,0.0-0.0,TRUE,FALSE,TRUE,FALSE,"
","
","
","
","
",NA,NA,NA,NA,NA,NA,NA,NA,NA,NA,NA,NA,NA,NA,NA,NA,NA,NA,NA,NA,NA,NA,sub137
html-keyboard-response,1,2136,0.0-1.0,TRUE,FALSE,TRUE,FALSE,"""event"",""trial"",""time""
""blur"",""2"",""7036""
""focus"",""2"",""26371""
","""event"",""trial"",""time""
""blur"",""2"",""7036""
","""event"",""trial"",""time""
""focus"",""2"",""26371""
","
","
",2117.9949999786913,Welcome! Press the space bar to begin.,32,NA,NA,NA,NA,NA,NA,NA,NA,NA,NA,NA,NA,NA,NA,NA,NA,NA,NA,NA,sub137
audio-keyboard-response,2,28196,0.0-2.0,TRUE,FALSE,TRUE,FALSE,"""event"",""trial"",""time""
""blur"",""2"",""7036""
""focus"",""2"",""26371""
","""event"",""trial"",""time""
""blur"",""2"",""7036""
","""event"",""trial"",""time""
""focus"",""2"",""26371""
","
","
",24309,audio/beep_loop.wav,32,NA,NA,NA,NA,NA,NA,NA,NA,NA,NA,NA,NA,NA,NA,NA,NA,NA,NA,NA,sub137
audio-button-response,3,31364,0.0-3.0,TRUE,FALSE,TRUE,FALSE,"""event"",""trial"",""time""
""blur"",""2"",""7036""
""focus"",""2"",""26371""
","""event"",""trial"",""time""
""blur"",""2"",""7036""
","""event"",""trial"",""time""
""focus"",""2"",""26371""
","
","
",NaN,audio/fish.mp3,NA,1,NA,NA,NA,NA,NA,NA,NA,NA,NA,NA,NA,NA,NA,NA,NA,NA,NA,NA,sub137
audio-button-response,4,34542,0.0-4.0,TRUE,FALSE,TRUE,FALSE,"""event"",""trial"",""time""
""blur"",""2"",""7036""
""focus"",""2"",""26371""
""fullscreenenter"",""5"",""40689""
","""event"",""trial"",""time""
""blur"",""2"",""7036""
","""event"",""trial"",""time""
""focus"",""2"",""26371""
","""event"",""trial"",""time""
""fullscreenenter"",""5"",""40689""
","
",NaN,audio/tiger.mp3,NA,4,NA,NA,NA,NA,NA,NA,NA,NA,NA,NA,NA,NA,NA,NA,NA,NA,NA,NA,sub137
fullscreen,5,40691,0.0-5.0,TRUE,FALSE,TRUE,FALSE,"""event"",""trial"",""time""
""blur"",""2"",""7036""
""focus"",""2"",""26371""
""fullscreenenter"",""5"",""40689""
","""event"",""trial"",""time""
""blur"",""2"",""7036""
","""event"",""trial"",""time""
""focus"",""2"",""26371""
","""event"",""trial"",""time""
""fullscreenenter"",""5"",""40689""
","
",NA,NA,NA,NA,TRUE,NA,NA,NA,NA,NA,NA,NA,NA,NA,NA,NA,NA,NA,NA,NA,NA,NA,sub137
d3-instructions,6,95525,0.0-6.0,TRUE,FALSE,TRUE,FALSE,"""event"",""trial"",""time""
""blur"",""2"",""7036""
""focus"",""2"",""26371""
""fullscreenenter"",""5"",""40689""
","""event"",""trial"",""time""
""blur"",""2"",""7036""
","""event"",""trial"",""time""
""focus"",""2"",""26371""
","""event"",""trial"",""time""
""fullscreenenter"",""5"",""40689""
","
",NA,NA,NA,NA,NA,NA,NA,NA,NA,NA,NA,NA,NA,NA,NA,NA,NA,NA,NA,NA,NA,NA,sub137
d3-instructions,7,111597,0.0-7.0,TRUE,FALSE,TRUE,FALSE,"""event"",""trial"",""time""
""blur"",""2"",""7036""
""focus"",""2"",""26371""
""fullscreenenter"",""5"",""40689""
","""event"",""trial"",""time""
""blur"",""2"",""7036""
","""event"",""trial"",""time""
""focus"",""2"",""26371""
","""event"",""trial"",""time""
""fullscreenenter"",""5"",""40689""
","
",NA,NA,NA,NA,NA,NA,NA,NA,NA,NA,NA,NA,NA,NA,NA,NA,NA,NA,NA,NA,NA,NA,sub137
d3-instructions,8,119578,0.0-8.0,TRUE,FALSE,TRUE,FALSE,"""event"",""trial"",""time""
""blur"",""2"",""7036""
""focus"",""2"",""26371""
""fullscreenenter"",""5"",""40689""
","""event"",""trial"",""time""
""blur"",""2"",""7036""
","""event"",""trial"",""time""
""focus"",""2"",""26371""
","""event"",""trial"",""time""
""fullscreenenter"",""5"",""40689""
","
",NA,NA,NA,NA,NA,NA,NA,NA,NA,NA,NA,NA,NA,NA,NA,NA,NA,NA,NA,NA,NA,NA,sub137
d3-instructions,9,130873,0.0-9.0,TRUE,FALSE,TRUE,FALSE,"""event"",""trial"",""time""
""blur"",""2"",""7036""
""focus"",""2"",""26371""
""fullscreenenter"",""5"",""40689""
","""event"",""trial"",""time""
""blur"",""2"",""7036""
","""event"",""trial"",""time""
""focus"",""2"",""26371""
","""event"",""trial"",""time""
""fullscreenenter"",""5"",""40689""
","
",NA,NA,NA,NA,NA,NA,NA,NA,NA,NA,NA,NA,NA,NA,NA,NA,NA,NA,NA,NA,NA,NA,sub137
d3-instructions,10,150711,0.0-10.0,TRUE,FALSE,TRUE,FALSE,"""event"",""trial"",""time""
""blur"",""2"",""7036""
""focus"",""2"",""26371""
""fullscreenenter"",""5"",""40689""
","""event"",""trial"",""time""
""blur"",""2"",""7036""
","""event"",""trial"",""time""
""focus"",""2"",""26371""
","""event"",""trial"",""time""
""fullscreenenter"",""5"",""40689""
","
",NA,NA,NA,NA,NA,NA,NA,NA,NA,NA,NA,NA,NA,NA,NA,NA,NA,NA,NA,NA,NA,NA,sub137
d3-animate-choice,11,158931,0.0-11.0,TRUE,FALSE,TRUE,FALSE,"""event"",""trial"",""time""
""blur"",""2"",""7036""
""focus"",""2"",""26371""
""fullscreenenter"",""5"",""40689""
","""event"",""trial"",""time""
""blur"",""2"",""7036""
","""event"",""trial"",""time""
""focus"",""2"",""26371""
","""event"",""trial"",""time""
""fullscreenenter"",""5"",""40689""
","
",804.5599998440593,NA,97,NA,NA,3000,1,"2464.380000019446,3353.069999953732,3900.219999952242,4812.094999942929,6195.994999958202,7608.675000024959",969796504948,images/tutgreenplanet.jpg,images/tutalien1,images/tutalien2,null,images/tutalien2,NA,NA,practice,null,NA,NA,NA,NA,sub137
d3-animate-choice,12,161920,0.0-12.0,TRUE,FALSE,TRUE,FALSE,"""event"",""trial"",""time""
""blur"",""2"",""7036""
""focus"",""2"",""26371""
""fullscreenenter"",""5"",""40689""
","""event"",""trial"",""time""
""blur"",""2"",""7036""
","""event"",""trial"",""time""
""focus"",""2"",""26371""
","""event"",""trial"",""time""
""fullscreenenter"",""5"",""40689""
","
",968.0899998638779,NA,48,NA,NA,3000,1,NA,NA,images/tutgreenplanet.jpg,images/tutalien1,images/tutalien2,null,images/tutalien1,NA,NA,practice,null,NA,NA,NA,NA,sub137
d3-animate-choice,13,165791,0.0-13.0,TRUE,FALSE,TRUE,FALSE,"""event"",""trial"",""time""
""blur"",""2"",""7036""
""focus"",""2"",""26371""
""fullscreenenter"",""5"",""40689""
","""event"",""trial"",""time""
""blur"",""2"",""7036""
","""event"",""trial"",""time""
""focus"",""2"",""26371""
","""event"",""trial"",""time""
""fullscreenenter"",""5"",""40689""
","
",1858.059999998659,NA,49,NA,NA,3000,1,3417.314999969676,48,images/tutgreenplanet.jpg,images/tutalien1,images/tutalien2,null,images/tutalien2,NA,NA,practice,null,NA,NA,NA,NA,sub137
d3-animate-choice,14,168200,0.0-14.0,TRUE,FALSE,TRUE,FALSE,"""event"",""trial"",""time""
""blur"",""2"",""7036""
""focus"",""2"",""26371""
""fullscreenenter"",""5"",""40689""
","""event"",""trial"",""time""
""blur"",""2"",""7036""
","""event"",""trial"",""time""
""focus"",""2"",""26371""
","""event"",""trial"",""time""
""fullscreenenter"",""5"",""40689""
","
",394.3449999205768,NA,48,NA,NA,3000,1,NA,NA,images/tutgreenplanet.jpg,images/tutalien1,images/tutalien2,null,images/tutalien1,NA,NA,practice,null,NA,NA,NA,NA,sub137
d3-instructions,15,175976,0.0-15.0,TRUE,FALSE,TRUE,FALSE,"""event"",""trial"",""time""
""blur"",""2"",""7036""
""focus"",""2"",""26371""
""fullscreenenter"",""5"",""40689""
","""event"",""trial"",""time""
""blur"",""2"",""7036""
","""event"",""trial"",""time""
""focus"",""2"",""26371""
","""event"",""trial"",""time""
""fullscreenenter"",""5"",""40689""
","
",NA,NA,NA,NA,NA,NA,NA,NA,NA,NA,NA,NA,NA,NA,NA,NA,NA,NA,NA,NA,NA,NA,sub137
d3-instructions,16,183555,0.0-16.0,TRUE,FALSE,TRUE,FALSE,"""event"",""trial"",""time""
""blur"",""2"",""7036""
""focus"",""2"",""26371""
""fullscreenenter"",""5"",""40689""
","""event"",""trial"",""time""
""blur"",""2"",""7036""
","""event"",""trial"",""time""
""focus"",""2"",""26371""
","""event"",""trial"",""time""
""fullscreenenter"",""5"",""40689""
","
",NA,NA,NA,NA,NA,NA,NA,NA,NA,NA,NA,NA,NA,NA,NA,NA,NA,NA,NA,NA,NA,NA,sub137
d3-instructions,17,194100,0.0-17.0,TRUE,FALSE,TRUE,FALSE,"""event"",""trial"",""time""
""blur"",""2"",""7036""
""focus"",""2"",""26371""
""fullscreenenter"",""5"",""40689""
","""event"",""trial"",""time""
""blur"",""2"",""7036""
","""event"",""trial"",""time""
""focus"",""2"",""26371""
","""event"",""trial"",""time""
""fullscreenenter"",""5"",""40689""
","
",NA,NA,NA,NA,NA,NA,NA,NA,NA,NA,NA,NA,NA,NA,NA,NA,NA,NA,NA,NA,NA,NA,sub137
d3-instructions,18,207873,0.0-18.0,TRUE,FALSE,TRUE,FALSE,"""event"",""trial"",""time""
""blur"",""2"",""7036""
""focus"",""2"",""26371""
""fullscreenenter"",""5"",""40689""
","""event"",""trial"",""time""
""blur"",""2"",""7036""
","""event"",""trial"",""time""
""focus"",""2"",""26371""
","""event"",""trial"",""time""
""fullscreenenter"",""5"",""40689""
","
",NA,NA,NA,NA,NA,NA,NA,NA,NA,NA,NA,NA,NA,NA,NA,NA,NA,NA,NA,NA,NA,NA,sub137
d3-instructions,19,225757,0.0-19.0,TRUE,FALSE,TRUE,FALSE,"""event"",""trial"",""time""
""blur"",""2"",""7036""
""focus"",""2"",""26371""
""fullscreenenter"",""5"",""40689""
","""event"",""trial"",""time""
""blur"",""2"",""7036""
","""event"",""trial"",""time""
""focus"",""2"",""26371""
","""event"",""trial"",""time""
""fullscreenenter"",""5"",""40689""
","
",NA,NA,NA,NA,NA,NA,NA,NA,NA,NA,NA,NA,NA,NA,NA,NA,NA,NA,NA,NA,NA,NA,sub137
d3-animate-choice,20,229499,0.0-20.0,TRUE,FALSE,TRUE,FALSE,"""event"",""trial"",""time""
""blur"",""2"",""7036""
""focus"",""2"",""26371""
""fullscreenenter"",""5"",""40689""
","""event"",""trial"",""time""
""blur"",""2"",""7036""
","""event"",""trial"",""time""
""focus"",""2"",""26371""
","""event"",""trial"",""time""
""fullscreenenter"",""5"",""40689""
","
",1729.3149998877198,NA,49,NA,NA,3000,1,NA,NA,images/tutyellowplanet.jpg,null,images/tutalien3,null,images/tutalien3,images/t.png,NA,practice,null,NA,NA,NA,NA,sub137
d3-animate-choice,21,232469,0.0-21.0,TRUE,FALSE,TRUE,FALSE,"""event"",""trial"",""time""
""blur"",""2"",""7036""
""focus"",""2"",""26371""
""fullscreenenter"",""5"",""40689""
","""event"",""trial"",""time""
""blur"",""2"",""7036""
","""event"",""trial"",""time""
""focus"",""2"",""26371""
","""event"",""trial"",""time""
""fullscreenenter"",""5"",""40689""
","
",957.399999955669,NA,49,NA,NA,3000,1,NA,NA,images/tutyellowplanet.jpg,null,images/tutalien3,null,images/tutalien3,images/t.png,NA,practice,null,NA,NA,NA,NA,sub137
d3-animate-choice,22,234798,0.0-22.0,TRUE,FALSE,TRUE,FALSE,"""event"",""trial"",""time""
""blur"",""2"",""7036""
""focus"",""2"",""26371""
""fullscreenenter"",""5"",""40689""
","""event"",""trial"",""time""
""blur"",""2"",""7036""
","""event"",""trial"",""time""
""focus"",""2"",""26371""
","""event"",""trial"",""time""
""fullscreenenter"",""5"",""40689""
","
",314.7350000217557,NA,49,NA,NA,3000,1,NA,NA,images/tutyellowplanet.jpg,null,images/tutalien3,null,images/tutalien3,images/t.png,NA,practice,null,NA,NA,NA,NA,sub137
d3-animate-choice,23,237169,0.0-23.0,TRUE,FALSE,TRUE,FALSE,"""event"",""trial"",""time""
""blur"",""2"",""7036""
""focus"",""2"",""26371""
""fullscreenenter"",""5"",""40689""
","""event"",""trial"",""time""
""blur"",""2"",""7036""
","""event"",""trial"",""time""
""focus"",""2"",""26371""
","""event"",""trial"",""time""
""fullscreenenter"",""5"",""40689""
","
",359.0150000527501,NA,49,NA,NA,3000,1,NA,NA,images/tutyellowplanet.jpg,null,images/tutalien3,null,images/tutalien3,images/t.png,NA,practice,null,NA,NA,NA,NA,sub137
d3-animate-choice,24,239389,0.0-24.0,TRUE,FALSE,TRUE,FALSE,"""event"",""trial"",""time""
""blur"",""2"",""7036""
""focus"",""2"",""26371""
""fullscreenenter"",""5"",""40689""
","""event"",""trial"",""time""
""blur"",""2"",""7036""
","""event"",""trial"",""time""
""focus"",""2"",""26371""
","""event"",""trial"",""time""
""fullscreenenter"",""5"",""40689""
","
",207.64500019140542,NA,49,NA,NA,3000,1,NA,NA,images/tutyellowplanet.jpg,null,images/tutalien3,null,images/tutalien3,images/t.png,NA,practice,null,NA,NA,NA,NA,sub137
d3-animate-choice,25,241480,0.0-25.0,TRUE,FALSE,TRUE,FALSE,"""event"",""trial"",""time""
""blur"",""2"",""7036""
""focus"",""2"",""26371""
""fullscreenenter"",""5"",""40689""
","""event"",""trial"",""time""
""blur"",""2"",""7036""
","""event"",""trial"",""time""
""focus"",""2"",""26371""
","""event"",""trial"",""time""
""fullscreenenter"",""5"",""40689""
","
",76.62499998696148,NA,49,NA,NA,3000,1,2028.1950000207871,49,images/tutyellowplanet.jpg,null,images/tutalien3,null,images/tutalien3,images/t.png,NA,practice,null,NA,NA,NA,NA,sub137
d3-animate-choice,26,245039,0.0-26.0,TRUE,FALSE,TRUE,FALSE,"""event"",""trial"",""time""
""blur"",""2"",""7036""
""focus"",""2"",""26371""
""fullscreenenter"",""5"",""40689""
","""event"",""trial"",""time""
""blur"",""2"",""7036""
","""event"",""trial"",""time""
""focus"",""2"",""26371""
","""event"",""trial"",""time""
""fullscreenenter"",""5"",""40689""
","
",1546.5500000864267,NA,49,NA,NA,3000,1,NA,NA,images/tutyellowplanet.jpg,null,images/tutalien3,null,images/tutalien3,images/t.png,NA,practice,null,NA,NA,NA,NA,sub137
d3-animate-choice,27,247569,0.0-27.0,TRUE,FALSE,TRUE,FALSE,"""event"",""trial"",""time""
""blur"",""2"",""7036""
""focus"",""2"",""26371""
""fullscreenenter"",""5"",""40689""
","""event"",""trial"",""time""
""blur"",""2"",""7036""
","""event"",""trial"",""time""
""focus"",""2"",""26371""
","""event"",""trial"",""time""
""fullscreenenter"",""5"",""40689""
","
",509.70000005327165,NA,49,NA,NA,3000,1,NA,NA,images/tutyellowplanet.jpg,null,images/tutalien3,null,images/tutalien3,images/t.png,NA,practice,null,NA,NA,NA,NA,sub137
d3-animate-choice,28,249909,0.0-28.0,TRUE,FALSE,TRUE,FALSE,"""event"",""trial"",""time""
""blur"",""2"",""7036""
""focus"",""2"",""26371""
""fullscreenenter"",""5"",""40689""
","""event"",""trial"",""time""
""blur"",""2"",""7036""
","""event"",""trial"",""time""
""focus"",""2"",""26371""
","""event"",""trial"",""time""
""fullscreenenter"",""5"",""40689""
","
",324.9749999959022,NA,49,NA,NA,3000,1,NA,NA,images/tutyellowplanet.jpg,null,images/tutalien3,null,images/tutalien3,images/t.png,NA,practice,null,NA,NA,NA,NA,sub137
d3-animate-choice,29,252456,0.0-29.0,TRUE,FALSE,TRUE,FALSE,"""event"",""trial"",""time""
""blur"",""2"",""7036""
""focus"",""2"",""26371""
""fullscreenenter"",""5"",""40689""
","""event"",""trial"",""time""
""blur"",""2"",""7036""
","""event"",""trial"",""time""
""focus"",""2"",""26371""
","""event"",""trial"",""time""
""fullscreenenter"",""5"",""40689""
","
",534.3150000553578,NA,49,NA,NA,3000,1,NA,NA,images/tutyellowplanet.jpg,null,images/tutalien3,null,images/tutalien3,images/t.png,NA,practice,null,NA,NA,NA,NA,sub137
d3-instructions,30,258750,0.0-30.0,TRUE,FALSE,TRUE,FALSE,"""event"",""trial"",""time""
""blur"",""2"",""7036""
""focus"",""2"",""26371""
""fullscreenenter"",""5"",""40689""
","""event"",""trial"",""time""
""blur"",""2"",""7036""
","""event"",""trial"",""time""
""focus"",""2"",""26371""
","""event"",""trial"",""time""
""fullscreenenter"",""5"",""40689""
","
",NA,NA,NA,NA,NA,NA,NA,NA,NA,NA,NA,NA,NA,NA,NA,NA,NA,NA,NA,NA,NA,NA,sub137
d3-instructions,31,269217,0.0-31.0,TRUE,FALSE,TRUE,FALSE,"""event"",""trial"",""time""
""blur"",""2"",""7036""
""focus"",""2"",""26371""
""fullscreenenter"",""5"",""40689""
","""event"",""trial"",""time""
""blur"",""2"",""7036""
","""event"",""trial"",""time""
""focus"",""2"",""26371""
","""event"",""trial"",""time""
""fullscreenenter"",""5"",""40689""
","
",NA,NA,NA,NA,NA,NA,NA,NA,NA,NA,NA,NA,NA,NA,NA,NA,NA,NA,NA,NA,NA,NA,sub137
d3-instructions,32,277119,0.0-32.0,TRUE,FALSE,TRUE,FALSE,"""event"",""trial"",""time""
""blur"",""2"",""7036""
""focus"",""2"",""26371""
""fullscreenenter"",""5"",""40689""
","""event"",""trial"",""time""
""blur"",""2"",""7036""
","""event"",""trial"",""time""
""focus"",""2"",""26371""
","""event"",""trial"",""time""
""fullscreenenter"",""5"",""40689""
","
",NA,NA,NA,NA,NA,NA,NA,NA,NA,NA,NA,NA,NA,NA,NA,NA,NA,NA,NA,NA,NA,NA,sub137
d3-instructions,33,287458,0.0-33.0,TRUE,FALSE,TRUE,FALSE,"""event"",""trial"",""time""
""blur"",""2"",""7036""
""focus"",""2"",""26371""
""fullscreenenter"",""5"",""40689""
","""event"",""trial"",""time""
""blur"",""2"",""7036""
","""event"",""trial"",""time""
""focus"",""2"",""26371""
","""event"",""trial"",""time""
""fullscreenenter"",""5"",""40689""
","
",NA,NA,NA,NA,NA,NA,NA,NA,NA,NA,NA,NA,NA,NA,NA,NA,NA,NA,NA,NA,NA,NA,sub137
d3-animate-choice,34,293181,0.0-34.0,TRUE,FALSE,TRUE,FALSE,"""event"",""trial"",""time""
""blur"",""2"",""7036""
""focus"",""2"",""26371""
""fullscreenenter"",""5"",""40689""
","""event"",""trial"",""time""
""blur"",""2"",""7036""
","""event"",""trial"",""time""
""focus"",""2"",""26371""
","""event"",""trial"",""time""
""fullscreenenter"",""5"",""40689""
","
",3706.8750001490116,NA,48,NA,NA,3000,1,NA,NA,images/tutgreenplanet.jpg,images/tutalien1,images/tutalien2,null,images/tutalien1,images/nothing.png,NA,practice,null,NA,NA,NA,NA,sub137
d3-animate-choice,35,296962,0.0-35.0,TRUE,FALSE,TRUE,FALSE,"""event"",""trial"",""time""
""blur"",""2"",""7036""
""focus"",""2"",""26371""
""fullscreenenter"",""5"",""40689""
","""event"",""trial"",""time""
""blur"",""2"",""7036""
","""event"",""trial"",""time""
""focus"",""2"",""26371""
","""event"",""trial"",""time""
""fullscreenenter"",""5"",""40689""
","
",1770.374999847263,NA,48,NA,NA,3000,1,NA,NA,images/tutgreenplanet.jpg,images/tutalien1,images/tutalien2,null,images/tutalien1,images/nothing.png,NA,practice,null,NA,NA,NA,NA,sub137
d3-animate-choice,36,299793,0.0-36.0,TRUE,FALSE,TRUE,FALSE,"""event"",""trial"",""time""
""blur"",""2"",""7036""
""focus"",""2"",""26371""
""fullscreenenter"",""5"",""40689""
","""event"",""trial"",""time""
""blur"",""2"",""7036""
","""event"",""trial"",""time""
""focus"",""2"",""26371""
","""event"",""trial"",""time""
""fullscreenenter"",""5"",""40689""
","
",820.2849999070168,NA,49,NA,NA,3000,1,NA,NA,images/tutgreenplanet.jpg,images/tutalien1,images/tutalien2,null,images/tutalien2,images/t.png,NA,practice,null,NA,NA,NA,NA,sub137
d3-animate-choice,37,303200,0.0-37.0,TRUE,FALSE,TRUE,FALSE,"""event"",""trial"",""time""
""blur"",""2"",""7036""
""focus"",""2"",""26371""
""fullscreenenter"",""5"",""40689""
","""event"",""trial"",""time""
""blur"",""2"",""7036""
","""event"",""trial"",""time""
""focus"",""2"",""26371""
","""event"",""trial"",""time""
""fullscreenenter"",""5"",""40689""
","
",482.13499994017184,NA,50,NA,NA,3000,1,1398.1800000183284,49,images/tutgreenplanet.jpg,images/tutalien1,images/tutalien2,null,images/tutalien2,images/t.png,NA,practice,null,NA,NA,NA,NA,sub137
d3-animate-choice,38,306033,0.0-38.0,TRUE,FALSE,TRUE,FALSE,"""event"",""trial"",""time""
""blur"",""2"",""7036""
""focus"",""2"",""26371""
""fullscreenenter"",""5"",""40689""
","""event"",""trial"",""time""
""blur"",""2"",""7036""
","""event"",""trial"",""time""
""focus"",""2"",""26371""
","""event"",""trial"",""time""
""fullscreenenter"",""5"",""40689""
","
",819.2249999847263,NA,49,NA,NA,3000,1,NA,NA,images/tutgreenplanet.jpg,images/tutalien1,images/tutalien2,null,images/tutalien2,images/nothing.png,NA,practice,null,NA,NA,NA,NA,sub137
d3-animate-choice,39,309482,0.0-39.0,TRUE,FALSE,TRUE,FALSE,"""event"",""trial"",""time""
""blur"",""2"",""7036""
""focus"",""2"",""26371""
""fullscreenenter"",""5"",""40689""
","""event"",""trial"",""time""
""blur"",""2"",""7036""
","""event"",""trial"",""time""
""focus"",""2"",""26371""
","""event"",""trial"",""time""
""fullscreenenter"",""5"",""40689""
","
",1439.1999999061227,NA,48,NA,NA,3000,1,NA,NA,images/tutgreenplanet.jpg,images/tutalien1,images/tutalien2,null,images/tutalien1,images/nothing.png,NA,practice,null,NA,NA,NA,NA,sub137
d3-animate-choice,40,312263,0.0-40.0,TRUE,FALSE,TRUE,FALSE,"""event"",""trial"",""time""
""blur"",""2"",""7036""
""focus"",""2"",""26371""
""fullscreenenter"",""5"",""40689""
","""event"",""trial"",""time""
""blur"",""2"",""7036""
","""event"",""trial"",""time""
""focus"",""2"",""26371""
","""event"",""trial"",""time""
""fullscreenenter"",""5"",""40689""
","
",763.0799999460578,NA,49,NA,NA,3000,1,NA,NA,images/tutgreenplanet.jpg,images/tutalien1,images/tutalien2,null,images/tutalien2,images/t.png,NA,practice,null,NA,NA,NA,NA,sub137
d3-animate-choice,41,317382,0.0-41.0,TRUE,FALSE,TRUE,FALSE,"""event"",""trial"",""time""
""blur"",""2"",""7036""
""focus"",""2"",""26371""
""fullscreenenter"",""5"",""40689""
","""event"",""trial"",""time""
""blur"",""2"",""7036""
","""event"",""trial"",""time""
""focus"",""2"",""26371""
","""event"",""trial"",""time""
""fullscreenenter"",""5"",""40689""
","
",3102.919999975711,NA,49,NA,NA,3000,1,NA,NA,images/tutgreenplanet.jpg,images/tutalien1,images/tutalien2,null,images/tutalien2,images/nothing.png,NA,practice,null,NA,NA,NA,NA,sub137
d3-animate-choice,42,320283,0.0-42.0,TRUE,FALSE,TRUE,FALSE,"""event"",""trial"",""time""
""blur"",""2"",""7036""
""focus"",""2"",""26371""
""fullscreenenter"",""5"",""40689""
","""event"",""trial"",""time""
""blur"",""2"",""7036""
","""event"",""trial"",""time""
""focus"",""2"",""26371""
","""event"",""trial"",""time""
""fullscreenenter"",""5"",""40689""
","
",890.9599999897182,NA,49,NA,NA,3000,1,NA,NA,images/tutgreenplanet.jpg,images/tutalien1,images/tutalien2,null,images/tutalien2,images/t.png,NA,practice,null,NA,NA,NA,NA,sub137
d3-animate-choice,43,322883,0.0-43.0,TRUE,FALSE,TRUE,FALSE,"""event"",""trial"",""time""
""blur"",""2"",""7036""
""focus"",""2"",""26371""
""fullscreenenter"",""5"",""40689""
","""event"",""trial"",""time""
""blur"",""2"",""7036""
","""event"",""trial"",""time""
""focus"",""2"",""26371""
","""event"",""trial"",""time""
""fullscreenenter"",""5"",""40689""
","
",585.2999999187887,NA,49,NA,NA,3000,1,NA,NA,images/tutgreenplanet.jpg,images/tutalien1,images/tutalien2,null,images/tutalien2,images/t.png,NA,practice,null,NA,NA,NA,NA,sub137
d3-instructions,44,336950,0.0-44.0,TRUE,FALSE,TRUE,FALSE,"""event"",""trial"",""time""
""blur"",""2"",""7036""
""focus"",""2"",""26371""
""fullscreenenter"",""5"",""40689""
","""event"",""trial"",""time""
""blur"",""2"",""7036""
","""event"",""trial"",""time""
""focus"",""2"",""26371""
","""event"",""trial"",""time""
""fullscreenenter"",""5"",""40689""
","
",NA,NA,NA,NA,NA,NA,NA,NA,NA,NA,NA,NA,NA,NA,NA,NA,NA,NA,NA,NA,NA,NA,sub137
d3-instructions,45,344187,0.0-45.0,TRUE,FALSE,TRUE,FALSE,"""event"",""trial"",""time""
""blur"",""2"",""7036""
""focus"",""2"",""26371""
""fullscreenenter"",""5"",""40689""
","""event"",""trial"",""time""
""blur"",""2"",""7036""
","""event"",""trial"",""time""
""focus"",""2"",""26371""
","""event"",""trial"",""time""
""fullscreenenter"",""5"",""40689""
","
",NA,NA,NA,NA,NA,NA,NA,NA,NA,NA,NA,NA,NA,NA,NA,NA,NA,NA,NA,NA,NA,NA,sub137
d3-instructions,46,348955,0.0-46.0,TRUE,FALSE,TRUE,FALSE,"""event"",""trial"",""time""
""blur"",""2"",""7036""
""focus"",""2"",""26371""
""fullscreenenter"",""5"",""40689""
","""event"",""trial"",""time""
""blur"",""2"",""7036""
","""event"",""trial"",""time""
""focus"",""2"",""26371""
","""event"",""trial"",""time""
""fullscreenenter"",""5"",""40689""
","
",NA,NA,NA,NA,NA,NA,NA,NA,NA,NA,NA,NA,NA,NA,NA,NA,NA,NA,NA,NA,NA,NA,sub137
d3-instructions,47,367635,0.0-47.0,TRUE,FALSE,TRUE,FALSE,"""event"",""trial"",""time""
""blur"",""2"",""7036""
""focus"",""2"",""26371""
""fullscreenenter"",""5"",""40689""
","""event"",""trial"",""time""
""blur"",""2"",""7036""
","""event"",""trial"",""time""
""focus"",""2"",""26371""
","""event"",""trial"",""time""
""fullscreenenter"",""5"",""40689""
","
",NA,NA,NA,NA,NA,NA,NA,NA,NA,NA,NA,NA,NA,NA,NA,NA,NA,NA,NA,NA,NA,NA,sub137
d3-instructions,48,374820,0.0-48.0,TRUE,FALSE,TRUE,FALSE,"""event"",""trial"",""time""
""blur"",""2"",""7036""
""focus"",""2"",""26371""
""fullscreenenter"",""5"",""40689""
","""event"",""trial"",""time""
""blur"",""2"",""7036""
","""event"",""trial"",""time""
""focus"",""2"",""26371""
","""event"",""trial"",""time""
""fullscreenenter"",""5"",""40689""
","
",NA,NA,NA,NA,NA,NA,NA,NA,NA,NA,NA,NA,NA,NA,NA,NA,NA,NA,NA,NA,NA,NA,sub137
d3-instructions,49,385593,0.0-49.0,TRUE,FALSE,TRUE,FALSE,"""event"",""trial"",""time""
""blur"",""2"",""7036""
""focus"",""2"",""26371""
""fullscreenenter"",""5"",""40689""
","""event"",""trial"",""time""
""blur"",""2"",""7036""
","""event"",""trial"",""time""
""focus"",""2"",""26371""
","""event"",""trial"",""time""
""fullscreenenter"",""5"",""40689""
","
",NA,NA,NA,NA,NA,NA,NA,NA,NA,NA,NA,NA,NA,NA,NA,NA,NA,NA,NA,NA,NA,NA,sub137
d3-instructions,50,393930,0.0-50.0,TRUE,FALSE,TRUE,FALSE,"""event"",""trial"",""time""
""blur"",""2"",""7036""
""focus"",""2"",""26371""
""fullscreenenter"",""5"",""40689""
","""event"",""trial"",""time""
""blur"",""2"",""7036""
","""event"",""trial"",""time""
""focus"",""2"",""26371""
","""event"",""trial"",""time""
""fullscreenenter"",""5"",""40689""
","
",NA,NA,NA,NA,NA,NA,NA,NA,NA,NA,NA,NA,NA,NA,NA,NA,NA,NA,NA,NA,NA,NA,sub137
d3-instructions,51,395853,0.0-51.0,TRUE,FALSE,TRUE,FALSE,"""event"",""trial"",""time""
""blur"",""2"",""7036""
""focus"",""2"",""26371""
""fullscreenenter"",""5"",""40689""
","""event"",""trial"",""time""
""blur"",""2"",""7036""
","""event"",""trial"",""time""
""focus"",""2"",""26371""
","""event"",""trial"",""time""
""fullscreenenter"",""5"",""40689""
","
",NA,NA,NA,NA,NA,NA,NA,NA,NA,NA,NA,NA,NA,NA,NA,NA,NA,NA,NA,NA,NA,NA,sub137
d3-instructions,52,399650,0.0-52.0,TRUE,FALSE,TRUE,FALSE,"""event"",""trial"",""time""
""blur"",""2"",""7036""
""focus"",""2"",""26371""
""fullscreenenter"",""5"",""40689""
","""event"",""trial"",""time""
""blur"",""2"",""7036""
","""event"",""trial"",""time""
""focus"",""2"",""26371""
","""event"",""trial"",""time""
""fullscreenenter"",""5"",""40689""
","
",NA,NA,NA,NA,NA,NA,NA,NA,NA,NA,NA,NA,NA,NA,NA,NA,NA,NA,NA,NA,NA,NA,sub137
d3-instructions,53,411314,0.0-53.0,TRUE,FALSE,TRUE,FALSE,"""event"",""trial"",""time""
""blur"",""2"",""7036""
""focus"",""2"",""26371""
""fullscreenenter"",""5"",""40689""
","""event"",""trial"",""time""
""blur"",""2"",""7036""
","""event"",""trial"",""time""
""focus"",""2"",""26371""
","""event"",""trial"",""time""
""fullscreenenter"",""5"",""40689""
","
",NA,NA,NA,NA,NA,NA,NA,NA,NA,NA,NA,NA,NA,NA,NA,NA,NA,NA,NA,NA,NA,NA,sub137
d3-instructions,54,423884,0.0-54.0,TRUE,FALSE,TRUE,FALSE,"""event"",""trial"",""time""
""blur"",""2"",""7036""
""focus"",""2"",""26371""
""fullscreenenter"",""5"",""40689""
","""event"",""trial"",""time""
""blur"",""2"",""7036""
","""event"",""trial"",""time""
""focus"",""2"",""26371""
","""event"",""trial"",""time""
""fullscreenenter"",""5"",""40689""
","
",NA,NA,NA,NA,NA,NA,NA,NA,NA,NA,NA,NA,NA,NA,NA,NA,NA,NA,NA,NA,NA,NA,sub137
d3-instructions,55,433850,0.0-55.0,TRUE,FALSE,TRUE,FALSE,"""event"",""trial"",""time""
""blur"",""2"",""7036""
""focus"",""2"",""26371""
""fullscreenenter"",""5"",""40689""
","""event"",""trial"",""time""
""blur"",""2"",""7036""
","""event"",""trial"",""time""
""focus"",""2"",""26371""
","""event"",""trial"",""time""
""fullscreenenter"",""5"",""40689""
","
",NA,NA,NA,NA,NA,NA,NA,NA,NA,NA,NA,NA,NA,NA,NA,NA,NA,NA,NA,NA,NA,NA,sub137
d3-instructions,56,441929,0.0-56.0,TRUE,FALSE,TRUE,FALSE,"""event"",""trial"",""time""
""blur"",""2"",""7036""
""focus"",""2"",""26371""
""fullscreenenter"",""5"",""40689""
","""event"",""trial"",""time""
""blur"",""2"",""7036""
","""event"",""trial"",""time""
""focus"",""2"",""26371""
","""event"",""trial"",""time""
""fullscreenenter"",""5"",""40689""
","
",NA,NA,NA,NA,NA,NA,NA,NA,NA,NA,NA,NA,NA,NA,NA,NA,NA,NA,NA,NA,NA,NA,sub137
d3-instructions,57,453411,0.0-57.0,TRUE,FALSE,TRUE,FALSE,"""event"",""trial"",""time""
""blur"",""2"",""7036""
""focus"",""2"",""26371""
""fullscreenenter"",""5"",""40689""
","""event"",""trial"",""time""
""blur"",""2"",""7036""
","""event"",""trial"",""time""
""focus"",""2"",""26371""
","""event"",""trial"",""time""
""fullscreenenter"",""5"",""40689""
","
",NA,NA,NA,NA,NA,NA,NA,NA,NA,NA,NA,NA,NA,NA,NA,NA,NA,NA,NA,NA,NA,NA,sub137
d3-instructions,58,466191,0.0-58.0,TRUE,FALSE,TRUE,FALSE,"""event"",""trial"",""time""
""blur"",""2"",""7036""
""focus"",""2"",""26371""
""fullscreenenter"",""5"",""40689""
","""event"",""trial"",""time""
""blur"",""2"",""7036""
","""event"",""trial"",""time""
""focus"",""2"",""26371""
","""event"",""trial"",""time""
""fullscreenenter"",""5"",""40689""
","
",NA,NA,NA,NA,NA,NA,NA,NA,NA,NA,NA,NA,NA,NA,NA,NA,NA,NA,NA,NA,NA,NA,sub137
d3-instructions,59,472736,0.0-59.0,TRUE,FALSE,TRUE,FALSE,"""event"",""trial"",""time""
""blur"",""2"",""7036""
""focus"",""2"",""26371""
""fullscreenenter"",""5"",""40689""
","""event"",""trial"",""time""
""blur"",""2"",""7036""
","""event"",""trial"",""time""
""focus"",""2"",""26371""
","""event"",""trial"",""time""
""fullscreenenter"",""5"",""40689""
","
",NA,NA,NA,NA,NA,NA,NA,NA,NA,NA,NA,NA,NA,NA,NA,NA,NA,NA,NA,NA,NA,NA,sub137
d3-instructions,60,481442,0.0-60.0,TRUE,FALSE,TRUE,FALSE,"""event"",""trial"",""time""
""blur"",""2"",""7036""
""focus"",""2"",""26371""
""fullscreenenter"",""5"",""40689""
","""event"",""trial"",""time""
""blur"",""2"",""7036""
","""event"",""trial"",""time""
""focus"",""2"",""26371""
","""event"",""trial"",""time""
""fullscreenenter"",""5"",""40689""
","
",NA,NA,NA,NA,NA,NA,NA,NA,NA,NA,NA,NA,NA,NA,NA,NA,NA,NA,NA,NA,NA,NA,sub137
d3-animate-choice,61,485365,0.0-61.0-0.0,TRUE,FALSE,TRUE,FALSE,"""event"",""trial"",""time""
""blur"",""2"",""7036""
""focus"",""2"",""26371""
""fullscreenenter"",""5"",""40689""
","""event"",""trial"",""time""
""blur"",""2"",""7036""
","""event"",""trial"",""time""
""focus"",""2"",""26371""
","""event"",""trial"",""time""
""fullscreenenter"",""5"",""40689""
","
",1905.8299998287112,NA,49,NA,NA,3000,1,NA,NA,images/earth.jpg,images/tutrocket2,images/tutrocket1,null,images/tutrocket1,NA,1,practice,null,1,NA,NA,NA,sub137
d3-animate-choice,62,489390,0.0-61.0-1.0,TRUE,FALSE,TRUE,FALSE,"""event"",""trial"",""time""
""blur"",""2"",""7036""
""focus"",""2"",""26371""
""fullscreenenter"",""5"",""40689""
","""event"",""trial"",""time""
""blur"",""2"",""7036""
","""event"",""trial"",""time""
""focus"",""2"",""26371""
","""event"",""trial"",""time""
""fullscreenenter"",""5"",""40689""
","
",2337.4600000679493,NA,49,NA,NA,3000,1,NA,NA,images/tutyellowplanet.jpg,images/tutalien4,images/tutalien3,images/tutrocket1,images/tutalien3,images/nothing.png,2,practice,true,1,common,0,2020-06-29T05:06:38Z,sub137
two-step-fixation,63,490434,0.0-61.0-2.0,TRUE,FALSE,TRUE,FALSE,"""event"",""trial"",""time""
""blur"",""2"",""7036""
""focus"",""2"",""26371""
""fullscreenenter"",""5"",""40689""
","""event"",""trial"",""time""
""blur"",""2"",""7036""
","""event"",""trial"",""time""
""focus"",""2"",""26371""
","""event"",""trial"",""time""
""fullscreenenter"",""5"",""40689""
","
",NA,images/earth.jpg,NA,NA,NA,NA,NA,NA,NA,NA,NA,NA,NA,NA,NA,fixation,NA,NA,NA,NA,NA,NA,sub137
d3-animate-choice,64,493033,0.0-61.0-0.1,TRUE,FALSE,TRUE,FALSE,"""event"",""trial"",""time""
""blur"",""2"",""7036""
""focus"",""2"",""26371""
""fullscreenenter"",""5"",""40689""
","""event"",""trial"",""time""
""blur"",""2"",""7036""
","""event"",""trial"",""time""
""focus"",""2"",""26371""
","""event"",""trial"",""time""
""fullscreenenter"",""5"",""40689""
","
",579.8599999397993,NA,48,NA,NA,3000,1,NA,NA,images/earth.jpg,images/tutrocket2,images/tutrocket1,null,images/tutrocket2,NA,1,practice,null,2,NA,NA,NA,sub137
d3-animate-choice,65,496342,0.0-61.0-1.1,TRUE,FALSE,TRUE,FALSE,"""event"",""trial"",""time""
""blur"",""2"",""7036""
""focus"",""2"",""26371""
""fullscreenenter"",""5"",""40689""
","""event"",""trial"",""time""
""blur"",""2"",""7036""
","""event"",""trial"",""time""
""focus"",""2"",""26371""
","""event"",""trial"",""time""
""fullscreenenter"",""5"",""40689""
","
",1294.9899998493493,NA,49,NA,NA,3000,1,NA,NA,images/tutgreenplanet.jpg,images/tutalien2,images/tutalien1,images/tutrocket2,images/tutalien1,images/nothing.png,2,practice,true,1,common,0,2020-06-29T05:06:45Z,sub137
two-step-fixation,66,497353,0.0-61.0-2.1,TRUE,FALSE,TRUE,FALSE,"""event"",""trial"",""time""
""blur"",""2"",""7036""
""focus"",""2"",""26371""
""fullscreenenter"",""5"",""40689""
","""event"",""trial"",""time""
""blur"",""2"",""7036""
","""event"",""trial"",""time""
""focus"",""2"",""26371""
","""event"",""trial"",""time""
""fullscreenenter"",""5"",""40689""
","
",NA,images/earth.jpg,NA,NA,NA,NA,NA,NA,NA,NA,NA,NA,NA,NA,NA,fixation,NA,NA,NA,NA,NA,NA,sub137
d3-animate-choice,67,500003,0.0-61.0-0.2,TRUE,FALSE,TRUE,FALSE,"""event"",""trial"",""time""
""blur"",""2"",""7036""
""focus"",""2"",""26371""
""fullscreenenter"",""5"",""40689""
","""event"",""trial"",""time""
""blur"",""2"",""7036""
","""event"",""trial"",""time""
""focus"",""2"",""26371""
","""event"",""trial"",""time""
""fullscreenenter"",""5"",""40689""
","
",637.3900000471622,NA,49,NA,NA,3000,1,NA,NA,images/earth.jpg,images/tutrocket2,images/tutrocket1,null,images/tutrocket1,NA,1,practice,null,1,NA,NA,NA,sub137
d3-animate-choice,68,503592,0.0-61.0-1.2,TRUE,FALSE,TRUE,FALSE,"""event"",""trial"",""time""
""blur"",""2"",""7036""
""focus"",""2"",""26371""
""fullscreenenter"",""5"",""40689""
","""event"",""trial"",""time""
""blur"",""2"",""7036""
","""event"",""trial"",""time""
""focus"",""2"",""26371""
","""event"",""trial"",""time""
""fullscreenenter"",""5"",""40689""
","
",1575.8099998347461,NA,48,NA,NA,3000,1,NA,NA,images/tutyellowplanet.jpg,images/tutalien4,images/tutalien3,images/tutrocket1,images/tutalien4,images/nothing.png,2,practice,true,2,common,0,2020-06-29T05:06:52Z,sub137
two-step-fixation,69,504603,0.0-61.0-2.2,TRUE,FALSE,TRUE,FALSE,"""event"",""trial"",""time""
""blur"",""2"",""7036""
""focus"",""2"",""26371""
""fullscreenenter"",""5"",""40689""
","""event"",""trial"",""time""
""blur"",""2"",""7036""
","""event"",""trial"",""time""
""focus"",""2"",""26371""
","""event"",""trial"",""time""
""fullscreenenter"",""5"",""40689""
","
",NA,images/earth.jpg,NA,NA,NA,NA,NA,NA,NA,NA,NA,NA,NA,NA,NA,fixation,NA,NA,NA,NA,NA,NA,sub137
d3-animate-choice,70,506916,0.0-61.0-0.3,TRUE,FALSE,TRUE,FALSE,"""event"",""trial"",""time""
""blur"",""2"",""7036""
""focus"",""2"",""26371""
""fullscreenenter"",""5"",""40689""
","""event"",""trial"",""time""
""blur"",""2"",""7036""
","""event"",""trial"",""time""
""focus"",""2"",""26371""
","""event"",""trial"",""time""
""fullscreenenter"",""5"",""40689""
","
",294.75499992258847,NA,49,NA,NA,3000,1,NA,NA,images/earth.jpg,images/tutrocket2,images/tutrocket1,null,images/tutrocket1,NA,1,practice,null,1,NA,NA,NA,sub137
d3-animate-choice,71,509541,0.0-61.0-1.3,TRUE,FALSE,TRUE,FALSE,"""event"",""trial"",""time""
""blur"",""2"",""7036""
""focus"",""2"",""26371""
""fullscreenenter"",""5"",""40689""
","""event"",""trial"",""time""
""blur"",""2"",""7036""
","""event"",""trial"",""time""
""focus"",""2"",""26371""
","""event"",""trial"",""time""
""fullscreenenter"",""5"",""40689""
","
",610.215000109747,NA,49,NA,NA,3000,1,NA,NA,images/tutyellowplanet.jpg,images/tutalien4,images/tutalien3,images/tutrocket1,images/tutalien3,images/t.png,2,practice,true,1,common,1,2020-06-29T05:06:58Z,sub137
two-step-fixation,72,510557,0.0-61.0-2.3,TRUE,FALSE,TRUE,FALSE,"""event"",""trial"",""time""
""blur"",""2"",""7036""
""focus"",""2"",""26371""
""fullscreenenter"",""5"",""40689""
","""event"",""trial"",""time""
""blur"",""2"",""7036""
","""event"",""trial"",""time""
""focus"",""2"",""26371""
","""event"",""trial"",""time""
""fullscreenenter"",""5"",""40689""
","
",NA,images/earth.jpg,NA,NA,NA,NA,NA,NA,NA,NA,NA,NA,NA,NA,NA,fixation,NA,NA,NA,NA,NA,NA,sub137
d3-animate-choice,73,513044,0.0-61.0-0.4,TRUE,FALSE,TRUE,FALSE,"""event"",""trial"",""time""
""blur"",""2"",""7036""
""focus"",""2"",""26371""
""fullscreenenter"",""5"",""40689""
","""event"",""trial"",""time""
""blur"",""2"",""7036""
","""event"",""trial"",""time""
""focus"",""2"",""26371""
","""event"",""trial"",""time""
""fullscreenenter"",""5"",""40689""
","
",470.3800000716001,NA,49,NA,NA,3000,1,NA,NA,images/earth.jpg,images/tutrocket2,images/tutrocket1,null,images/tutrocket1,NA,1,practice,null,1,NA,NA,NA,sub137
d3-animate-choice,74,515985,0.0-61.0-1.4,TRUE,FALSE,TRUE,FALSE,"""event"",""trial"",""time""
""blur"",""2"",""7036""
""focus"",""2"",""26371""
""fullscreenenter"",""5"",""40689""
","""event"",""trial"",""time""
""blur"",""2"",""7036""
","""event"",""trial"",""time""
""focus"",""2"",""26371""
","""event"",""trial"",""time""
""fullscreenenter"",""5"",""40689""
","
",921.6000000014901,NA,49,NA,NA,3000,1,NA,NA,images/tutgreenplanet.jpg,images/tutalien2,images/tutalien1,images/tutrocket1,images/tutalien1,images/nothing.png,2,practice,false,1,rare,0,2020-06-29T05:07:04Z,sub137
two-step-fixation,75,516995,0.0-61.0-2.4,TRUE,FALSE,TRUE,FALSE,"""event"",""trial"",""time""
""blur"",""2"",""7036""
""focus"",""2"",""26371""
""fullscreenenter"",""5"",""40689""
","""event"",""trial"",""time""
""blur"",""2"",""7036""
","""event"",""trial"",""time""
""focus"",""2"",""26371""
","""event"",""trial"",""time""
""fullscreenenter"",""5"",""40689""
","
",NA,images/earth.jpg,NA,NA,NA,NA,NA,NA,NA,NA,NA,NA,NA,NA,NA,fixation,NA,NA,NA,NA,NA,NA,sub137
d3-animate-choice,76,519536,0.0-61.0-0.5,TRUE,FALSE,TRUE,FALSE,"""event"",""trial"",""time""
""blur"",""2"",""7036""
""focus"",""2"",""26371""
""fullscreenenter"",""5"",""40689""
","""event"",""trial"",""time""
""blur"",""2"",""7036""
","""event"",""trial"",""time""
""focus"",""2"",""26371""
","""event"",""trial"",""time""
""fullscreenenter"",""5"",""40689""
","
",526.6100000590086,NA,49,NA,NA,3000,1,NA,NA,images/earth.jpg,images/tutrocket2,images/tutrocket1,null,images/tutrocket1,NA,1,practice,null,1,NA,NA,NA,sub137
d3-animate-choice,77,521968,0.0-61.0-1.5,TRUE,FALSE,TRUE,FALSE,"""event"",""trial"",""time""
""blur"",""2"",""7036""
""focus"",""2"",""26371""
""fullscreenenter"",""5"",""40689""
","""event"",""trial"",""time""
""blur"",""2"",""7036""
","""event"",""trial"",""time""
""focus"",""2"",""26371""
","""event"",""trial"",""time""
""fullscreenenter"",""5"",""40689""
","
",414.72000000067055,NA,48,NA,NA,3000,1,NA,NA,images/tutgreenplanet.jpg,images/tutalien2,images/tutalien1,images/tutrocket1,images/tutalien2,images/nothing.png,2,practice,false,2,rare,0,2020-06-29T05:07:10Z,sub137
two-step-fixation,78,522984,0.0-61.0-2.5,TRUE,FALSE,TRUE,FALSE,"""event"",""trial"",""time""
""blur"",""2"",""7036""
""focus"",""2"",""26371""
""fullscreenenter"",""5"",""40689""
","""event"",""trial"",""time""
""blur"",""2"",""7036""
","""event"",""trial"",""time""
""focus"",""2"",""26371""
","""event"",""trial"",""time""
""fullscreenenter"",""5"",""40689""
","
",NA,images/earth.jpg,NA,NA,NA,NA,NA,NA,NA,NA,NA,NA,NA,NA,NA,fixation,NA,NA,NA,NA,NA,NA,sub137
d3-animate-choice,79,525449,0.0-61.0-0.6,TRUE,FALSE,TRUE,FALSE,"""event"",""trial"",""time""
""blur"",""2"",""7036""
""focus"",""2"",""26371""
""fullscreenenter"",""5"",""40689""
","""event"",""trial"",""time""
""blur"",""2"",""7036""
","""event"",""trial"",""time""
""focus"",""2"",""26371""
","""event"",""trial"",""time""
""fullscreenenter"",""5"",""40689""
","
",450.4949999973178,NA,49,NA,NA,3000,1,NA,NA,images/earth.jpg,images/tutrocket2,images/tutrocket1,null,images/tutrocket1,NA,1,practice,null,1,NA,NA,NA,sub137
d3-animate-choice,80,527768,0.0-61.0-1.6,TRUE,FALSE,TRUE,FALSE,"""event"",""trial"",""time""
""blur"",""2"",""7036""
""focus"",""2"",""26371""
""fullscreenenter"",""5"",""40689""
","""event"",""trial"",""time""
""blur"",""2"",""7036""
","""event"",""trial"",""time""
""focus"",""2"",""26371""
","""event"",""trial"",""time""
""fullscreenenter"",""5"",""40689""
","
",303.36000001989305,NA,48,NA,NA,3000,1,NA,NA,images/tutyellowplanet.jpg,images/tutalien4,images/tutalien3,images/tutrocket1,images/tutalien4,images/nothing.png,2,practice,true,2,common,0,2020-06-29T05:07:16Z,sub137
two-step-fixation,81,528784,0.0-61.0-2.6,TRUE,FALSE,TRUE,FALSE,"""event"",""trial"",""time""
""blur"",""2"",""7036""
""focus"",""2"",""26371""
""fullscreenenter"",""5"",""40689""
","""event"",""trial"",""time""
""blur"",""2"",""7036""
","""event"",""trial"",""time""
""focus"",""2"",""26371""
","""event"",""trial"",""time""
""fullscreenenter"",""5"",""40689""
","
",NA,images/earth.jpg,NA,NA,NA,NA,NA,NA,NA,NA,NA,NA,NA,NA,NA,fixation,NA,NA,NA,NA,NA,NA,sub137
d3-animate-choice,82,531208,0.0-61.0-0.7,TRUE,FALSE,TRUE,FALSE,"""event"",""trial"",""time""
""blur"",""2"",""7036""
""focus"",""2"",""26371""
""fullscreenenter"",""5"",""40689""
","""event"",""trial"",""time""
""blur"",""2"",""7036""
","""event"",""trial"",""time""
""focus"",""2"",""26371""
","""event"",""trial"",""time""
""fullscreenenter"",""5"",""40689""
","
",405.3950000088662,NA,49,NA,NA,3000,1,NA,NA,images/earth.jpg,images/tutrocket2,images/tutrocket1,null,images/tutrocket1,NA,1,practice,null,1,NA,NA,NA,sub137
d3-animate-choice,83,535233,0.0-61.0-1.7,TRUE,FALSE,TRUE,FALSE,"""event"",""trial"",""time""
""blur"",""2"",""7036""
""focus"",""2"",""26371""
""fullscreenenter"",""5"",""40689""
","""event"",""trial"",""time""
""blur"",""2"",""7036""
","""event"",""trial"",""time""
""focus"",""2"",""26371""
","""event"",""trial"",""time""
""fullscreenenter"",""5"",""40689""
","
",3423.7100000027567,NA,48,NA,NA,3000,0,NA,NA,images/tutyellowplanet.jpg,images/tutalien4,images/tutalien3,images/tutrocket1,NA,NA,2,practice,true,2,common,0,2020-06-29T05:07:23Z,sub137
two-step-fixation,84,536248,0.0-61.0-2.7,TRUE,FALSE,TRUE,FALSE,"""event"",""trial"",""time""
""blur"",""2"",""7036""
""focus"",""2"",""26371""
""fullscreenenter"",""5"",""40689""
","""event"",""trial"",""time""
""blur"",""2"",""7036""
","""event"",""trial"",""time""
""focus"",""2"",""26371""
","""event"",""trial"",""time""
""fullscreenenter"",""5"",""40689""
","
",NA,images/earth.jpg,NA,NA,NA,NA,NA,NA,NA,NA,NA,NA,NA,NA,NA,fixation,NA,NA,NA,NA,NA,NA,sub137
d3-animate-choice,85,538596,0.0-61.0-0.8,TRUE,FALSE,TRUE,FALSE,"""event"",""trial"",""time""
""blur"",""2"",""7036""
""focus"",""2"",""26371""
""fullscreenenter"",""5"",""40689""
","""event"",""trial"",""time""
""blur"",""2"",""7036""
","""event"",""trial"",""time""
""focus"",""2"",""26371""
","""event"",""trial"",""time""
""fullscreenenter"",""5"",""40689""
","
",336.88500011339784,NA,49,NA,NA,3000,1,NA,NA,images/earth.jpg,images/tutrocket2,images/tutrocket1,null,images/tutrocket1,NA,1,practice,null,1,NA,NA,NA,sub137
d3-animate-choice,86,540888,0.0-61.0-1.8,TRUE,FALSE,TRUE,FALSE,"""event"",""trial"",""time""
""blur"",""2"",""7036""
""focus"",""2"",""26371""
""fullscreenenter"",""5"",""40689""
","""event"",""trial"",""time""
""blur"",""2"",""7036""
","""event"",""trial"",""time""
""focus"",""2"",""26371""
","""event"",""trial"",""time""
""fullscreenenter"",""5"",""40689""
","
",273.7250002101064,NA,48,NA,NA,3000,1,NA,NA,images/tutyellowplanet.jpg,images/tutalien4,images/tutalien3,images/tutrocket1,images/tutalien4,images/t.png,2,practice,true,2,common,1,2020-06-29T05:07:29Z,sub137
two-step-fixation,87,541904,0.0-61.0-2.8,TRUE,FALSE,TRUE,FALSE,"""event"",""trial"",""time""
""blur"",""2"",""7036""
""focus"",""2"",""26371""
""fullscreenenter"",""5"",""40689""
","""event"",""trial"",""time""
""blur"",""2"",""7036""
","""event"",""trial"",""time""
""focus"",""2"",""26371""
","""event"",""trial"",""time""
""fullscreenenter"",""5"",""40689""
","
",NA,images/earth.jpg,NA,NA,NA,NA,NA,NA,NA,NA,NA,NA,NA,NA,NA,fixation,NA,NA,NA,NA,NA,NA,sub137
d3-animate-choice,88,544752,0.0-61.0-0.9,TRUE,FALSE,TRUE,FALSE,"""event"",""trial"",""time""
""blur"",""2"",""7036""
""focus"",""2"",""26371""
""fullscreenenter"",""5"",""40689""
","""event"",""trial"",""time""
""blur"",""2"",""7036""
","""event"",""trial"",""time""
""focus"",""2"",""26371""
","""event"",""trial"",""time""
""fullscreenenter"",""5"",""40689""
","
",836.2900000065565,NA,48,NA,NA,3000,1,NA,NA,images/earth.jpg,images/tutrocket2,images/tutrocket1,null,images/tutrocket2,NA,1,practice,null,2,NA,NA,NA,sub137
d3-animate-choice,89,547864,0.0-61.0-1.9,TRUE,FALSE,TRUE,FALSE,"""event"",""trial"",""time""
""blur"",""2"",""7036""
""focus"",""2"",""26371""
""fullscreenenter"",""5"",""40689""
","""event"",""trial"",""time""
""blur"",""2"",""7036""
","""event"",""trial"",""time""
""focus"",""2"",""26371""
","""event"",""trial"",""time""
""fullscreenenter"",""5"",""40689""
","
",1095.075000077486,NA,48,NA,NA,3000,1,NA,NA,images/tutgreenplanet.jpg,images/tutalien2,images/tutalien1,images/tutrocket2,images/tutalien2,images/nothing.png,2,practice,true,2,common,0,2020-06-29T05:07:36Z,sub137
two-step-fixation,90,548880,0.0-61.0-2.9,TRUE,FALSE,TRUE,FALSE,"""event"",""trial"",""time""
""blur"",""2"",""7036""
""focus"",""2"",""26371""
""fullscreenenter"",""5"",""40689""
","""event"",""trial"",""time""
""blur"",""2"",""7036""
","""event"",""trial"",""time""
""focus"",""2"",""26371""
","""event"",""trial"",""time""
""fullscreenenter"",""5"",""40689""
","
",NA,images/earth.jpg,NA,NA,NA,NA,NA,NA,NA,NA,NA,NA,NA,NA,NA,fixation,NA,NA,NA,NA,NA,NA,sub137
d3-animate-choice,91,551224,0.0-61.0-0.10,TRUE,FALSE,TRUE,FALSE,"""event"",""trial"",""time""
""blur"",""2"",""7036""
""focus"",""2"",""26371""
""fullscreenenter"",""5"",""40689""
","""event"",""trial"",""time""
""blur"",""2"",""7036""
","""event"",""trial"",""time""
""focus"",""2"",""26371""
","""event"",""trial"",""time""
""fullscreenenter"",""5"",""40689""
","
",330.3000000305474,NA,49,NA,NA,3000,1,NA,NA,images/earth.jpg,images/tutrocket2,images/tutrocket1,null,images/tutrocket1,NA,1,practice,null,1,NA,NA,NA,sub137
d3-animate-choice,92,554336,0.0-61.0-1.10,TRUE,FALSE,TRUE,FALSE,"""event"",""trial"",""time""
""blur"",""2"",""7036""
""focus"",""2"",""26371""
""fullscreenenter"",""5"",""40689""
","""event"",""trial"",""time""
""blur"",""2"",""7036""
","""event"",""trial"",""time""
""focus"",""2"",""26371""
","""event"",""trial"",""time""
""fullscreenenter"",""5"",""40689""
","
",1097.6700000464916,NA,48,NA,NA,3000,1,NA,NA,images/tutyellowplanet.jpg,images/tutalien4,images/tutalien3,images/tutrocket1,images/tutalien4,images/nothing.png,2,practice,true,2,common,0,2020-06-29T05:07:43Z,sub137
two-step-fixation,93,555345,0.0-61.0-2.10,TRUE,FALSE,TRUE,FALSE,"""event"",""trial"",""time""
""blur"",""2"",""7036""
""focus"",""2"",""26371""
""fullscreenenter"",""5"",""40689""
","""event"",""trial"",""time""
""blur"",""2"",""7036""
","""event"",""trial"",""time""
""focus"",""2"",""26371""
","""event"",""trial"",""time""
""fullscreenenter"",""5"",""40689""
","
",NA,images/earth.jpg,NA,NA,NA,NA,NA,NA,NA,NA,NA,NA,NA,NA,NA,fixation,NA,NA,NA,NA,NA,NA,sub137
d3-animate-choice,94,557469,0.0-61.0-0.11,TRUE,FALSE,TRUE,FALSE,"""event"",""trial"",""time""
""blur"",""2"",""7036""
""focus"",""2"",""26371""
""fullscreenenter"",""5"",""40689""
","""event"",""trial"",""time""
""blur"",""2"",""7036""
","""event"",""trial"",""time""
""focus"",""2"",""26371""
","""event"",""trial"",""time""
""fullscreenenter"",""5"",""40689""
","
",114.23499998636544,NA,49,NA,NA,3000,1,NA,NA,images/earth.jpg,images/tutrocket2,images/tutrocket1,null,images/tutrocket1,NA,1,practice,null,1,NA,NA,NA,sub137
d3-animate-choice,95,560557,0.0-61.0-1.11,TRUE,FALSE,TRUE,FALSE,"""event"",""trial"",""time""
""blur"",""2"",""7036""
""focus"",""2"",""26371""
""fullscreenenter"",""5"",""40689""
","""event"",""trial"",""time""
""blur"",""2"",""7036""
","""event"",""trial"",""time""
""focus"",""2"",""26371""
","""event"",""trial"",""time""
""fullscreenenter"",""5"",""40689""
","
",1077.0799999590963,NA,49,NA,NA,3000,1,NA,NA,images/tutgreenplanet.jpg,images/tutalien2,images/tutalien1,images/tutrocket1,images/tutalien1,images/nothing.png,2,practice,false,1,rare,0,2020-06-29T05:07:49Z,sub137
two-step-fixation,96,561574,0.0-61.0-2.11,TRUE,FALSE,TRUE,FALSE,"""event"",""trial"",""time""
""blur"",""2"",""7036""
""focus"",""2"",""26371""
""fullscreenenter"",""5"",""40689""
","""event"",""trial"",""time""
""blur"",""2"",""7036""
","""event"",""trial"",""time""
""focus"",""2"",""26371""
","""event"",""trial"",""time""
""fullscreenenter"",""5"",""40689""
","
",NA,images/earth.jpg,NA,NA,NA,NA,NA,NA,NA,NA,NA,NA,NA,NA,NA,fixation,NA,NA,NA,NA,NA,NA,sub137
d3-animate-choice,97,563845,0.0-61.0-0.12,TRUE,FALSE,TRUE,FALSE,"""event"",""trial"",""time""
""blur"",""2"",""7036""
""focus"",""2"",""26371""
""fullscreenenter"",""5"",""40689""
","""event"",""trial"",""time""
""blur"",""2"",""7036""
","""event"",""trial"",""time""
""focus"",""2"",""26371""
","""event"",""trial"",""time""
""fullscreenenter"",""5"",""40689""
","
",259.4399999361485,NA,49,NA,NA,3000,1,NA,NA,images/earth.jpg,images/tutrocket2,images/tutrocket1,null,images/tutrocket1,NA,1,practice,null,1,NA,NA,NA,sub137
d3-animate-choice,98,566349,0.0-61.0-1.12,TRUE,FALSE,TRUE,FALSE,"""event"",""trial"",""time""
""blur"",""2"",""7036""
""focus"",""2"",""26371""
""fullscreenenter"",""5"",""40689""
","""event"",""trial"",""time""
""blur"",""2"",""7036""
","""event"",""trial"",""time""
""focus"",""2"",""26371""
","""event"",""trial"",""time""
""fullscreenenter"",""5"",""40689""
","
",486.9399999734014,NA,49,NA,NA,3000,1,NA,NA,images/tutgreenplanet.jpg,images/tutalien2,images/tutalien1,images/tutrocket1,images/tutalien1,images/nothing.png,2,practice,false,1,rare,0,2020-06-29T05:07:55Z,sub137
two-step-fixation,99,567365,0.0-61.0-2.12,TRUE,FALSE,TRUE,FALSE,"""event"",""trial"",""time""
""blur"",""2"",""7036""
""focus"",""2"",""26371""
""fullscreenenter"",""5"",""40689""
","""event"",""trial"",""time""
""blur"",""2"",""7036""
","""event"",""trial"",""time""
""focus"",""2"",""26371""
","""event"",""trial"",""time""
""fullscreenenter"",""5"",""40689""
","
",NA,images/earth.jpg,NA,NA,NA,NA,NA,NA,NA,NA,NA,NA,NA,NA,NA,fixation,NA,NA,NA,NA,NA,NA,sub137
d3-animate-choice,100,569685,0.0-61.0-0.13,TRUE,FALSE,TRUE,FALSE,"""event"",""trial"",""time""
""blur"",""2"",""7036""
""focus"",""2"",""26371""
""fullscreenenter"",""5"",""40689""
","""event"",""trial"",""time""
""blur"",""2"",""7036""
","""event"",""trial"",""time""
""focus"",""2"",""26371""
","""event"",""trial"",""time""
""fullscreenenter"",""5"",""40689""
","
",303.3799999393523,NA,48,NA,NA,3000,1,NA,NA,images/earth.jpg,images/tutrocket2,images/tutrocket1,null,images/tutrocket2,NA,1,practice,null,2,NA,NA,NA,sub137
d3-animate-choice,101,573701,0.0-61.0-1.13,TRUE,FALSE,TRUE,FALSE,"""event"",""trial"",""time""
""blur"",""2"",""7036""
""focus"",""2"",""26371""
""fullscreenenter"",""5"",""40689""
","""event"",""trial"",""time""
""blur"",""2"",""7036""
","""event"",""trial"",""time""
""focus"",""2"",""26371""
","""event"",""trial"",""time""
""fullscreenenter"",""5"",""40689""
","
",2577.6549999136478,NA,48,NA,NA,3000,1,NA,NA,images/tutgreenplanet.jpg,images/tutalien2,images/tutalien1,images/tutrocket2,images/tutalien2,images/t.png,2,practice,true,2,common,1,2020-06-29T05:08:02Z,sub137
two-step-fixation,102,574717,0.0-61.0-2.13,TRUE,FALSE,TRUE,FALSE,"""event"",""trial"",""time""
""blur"",""2"",""7036""
""focus"",""2"",""26371""
""fullscreenenter"",""5"",""40689""
","""event"",""trial"",""time""
""blur"",""2"",""7036""
","""event"",""trial"",""time""
""focus"",""2"",""26371""
","""event"",""trial"",""time""
""fullscreenenter"",""5"",""40689""
","
",NA,images/earth.jpg,NA,NA,NA,NA,NA,NA,NA,NA,NA,NA,NA,NA,NA,fixation,NA,NA,NA,NA,NA,NA,sub137
d3-animate-choice,103,577164,0.0-61.0-0.14,TRUE,FALSE,TRUE,FALSE,"""event"",""trial"",""time""
""blur"",""2"",""7036""
""focus"",""2"",""26371""
""fullscreenenter"",""5"",""40689""
","""event"",""trial"",""time""
""blur"",""2"",""7036""
","""event"",""trial"",""time""
""focus"",""2"",""26371""
","""event"",""trial"",""time""
""fullscreenenter"",""5"",""40689""
","
",435.1899998728186,NA,48,NA,NA,3000,1,NA,NA,images/earth.jpg,images/tutrocket2,images/tutrocket1,null,images/tutrocket2,NA,1,practice,null,2,NA,NA,NA,sub137
d3-animate-choice,104,579916,0.0-61.0-1.14,TRUE,FALSE,TRUE,FALSE,"""event"",""trial"",""time""
""blur"",""2"",""7036""
""focus"",""2"",""26371""
""fullscreenenter"",""5"",""40689""
","""event"",""trial"",""time""
""blur"",""2"",""7036""
","""event"",""trial"",""time""
""focus"",""2"",""26371""
","""event"",""trial"",""time""
""fullscreenenter"",""5"",""40689""
","
",734.9900000263005,NA,48,NA,NA,3000,1,NA,NA,images/tutgreenplanet.jpg,images/tutalien2,images/tutalien1,images/tutrocket2,images/tutalien2,images/nothing.png,2,practice,true,2,common,0,2020-06-29T05:08:08Z,sub137
two-step-fixation,105,580932,0.0-61.0-2.14,TRUE,FALSE,TRUE,FALSE,"""event"",""trial"",""time""
""blur"",""2"",""7036""
""focus"",""2"",""26371""
""fullscreenenter"",""5"",""40689""
","""event"",""trial"",""time""
""blur"",""2"",""7036""
","""event"",""trial"",""time""
""focus"",""2"",""26371""
","""event"",""trial"",""time""
""fullscreenenter"",""5"",""40689""
","
",NA,images/earth.jpg,NA,NA,NA,NA,NA,NA,NA,NA,NA,NA,NA,NA,NA,fixation,NA,NA,NA,NA,NA,NA,sub137
d3-animate-choice,106,583340,0.0-61.0-0.15,TRUE,FALSE,TRUE,FALSE,"""event"",""trial"",""time""
""blur"",""2"",""7036""
""focus"",""2"",""26371""
""fullscreenenter"",""5"",""40689""
","""event"",""trial"",""time""
""blur"",""2"",""7036""
","""event"",""trial"",""time""
""focus"",""2"",""26371""
","""event"",""trial"",""time""
""fullscreenenter"",""5"",""40689""
","
",394.7500002104789,NA,48,NA,NA,3000,1,NA,NA,images/earth.jpg,images/tutrocket2,images/tutrocket1,null,images/tutrocket2,NA,1,practice,null,2,NA,NA,NA,sub137
d3-animate-choice,107,585892,0.0-61.0-1.15,TRUE,FALSE,TRUE,FALSE,"""event"",""trial"",""time""
""blur"",""2"",""7036""
""focus"",""2"",""26371""
""fullscreenenter"",""5"",""40689""
","""event"",""trial"",""time""
""blur"",""2"",""7036""
","""event"",""trial"",""time""
""focus"",""2"",""26371""
","""event"",""trial"",""time""
""fullscreenenter"",""5"",""40689""
","
",535.9600000083447,NA,49,NA,NA,3000,1,NA,NA,images/tutgreenplanet.jpg,images/tutalien2,images/tutalien1,images/tutrocket2,images/tutalien1,images/nothing.png,2,practice,true,1,common,0,2020-06-29T05:08:14Z,sub137
two-step-fixation,108,586909,0.0-61.0-2.15,TRUE,FALSE,TRUE,FALSE,"""event"",""trial"",""time""
""blur"",""2"",""7036""
""focus"",""2"",""26371""
""fullscreenenter"",""5"",""40689""
","""event"",""trial"",""time""
""blur"",""2"",""7036""
","""event"",""trial"",""time""
""focus"",""2"",""26371""
","""event"",""trial"",""time""
""fullscreenenter"",""5"",""40689""
","
",NA,images/earth.jpg,NA,NA,NA,NA,NA,NA,NA,NA,NA,NA,NA,NA,NA,fixation,NA,NA,NA,NA,NA,NA,sub137
d3-animate-choice,109,589452,0.0-61.0-0.16,TRUE,FALSE,TRUE,FALSE,"""event"",""trial"",""time""
""blur"",""2"",""7036""
""focus"",""2"",""26371""
""fullscreenenter"",""5"",""40689""
","""event"",""trial"",""time""
""blur"",""2"",""7036""
","""event"",""trial"",""time""
""focus"",""2"",""26371""
","""event"",""trial"",""time""
""fullscreenenter"",""5"",""40689""
","
",525.2549999859184,NA,48,NA,NA,3000,1,NA,NA,images/earth.jpg,images/tutrocket2,images/tutrocket1,null,images/tutrocket2,NA,1,practice,null,2,NA,NA,NA,sub137
d3-animate-choice,110,593380,0.0-61.0-1.16,TRUE,FALSE,TRUE,FALSE,"""event"",""trial"",""time""
""blur"",""2"",""7036""
""focus"",""2"",""26371""
""fullscreenenter"",""5"",""40689""
","""event"",""trial"",""time""
""blur"",""2"",""7036""
","""event"",""trial"",""time""
""focus"",""2"",""26371""
","""event"",""trial"",""time""
""fullscreenenter"",""5"",""40689""
","
",1562.05500010401,NA,50,NA,NA,3000,1,1907.2100000921637,48,images/tutgreenplanet.jpg,images/tutalien2,images/tutalien1,images/tutrocket2,images/tutalien2,images/t.png,2,practice,true,NA,common,1,2020-06-29T05:08:22Z,sub137
two-step-fixation,111,594396,0.0-61.0-2.16,TRUE,FALSE,TRUE,FALSE,"""event"",""trial"",""time""
""blur"",""2"",""7036""
""focus"",""2"",""26371""
""fullscreenenter"",""5"",""40689""
","""event"",""trial"",""time""
""blur"",""2"",""7036""
","""event"",""trial"",""time""
""focus"",""2"",""26371""
","""event"",""trial"",""time""
""fullscreenenter"",""5"",""40689""
","
",NA,images/earth.jpg,NA,NA,NA,NA,NA,NA,NA,NA,NA,NA,NA,NA,NA,fixation,NA,NA,NA,NA,NA,NA,sub137
d3-animate-choice,112,597314,0.0-61.0-0.17,TRUE,FALSE,TRUE,FALSE,"""event"",""trial"",""time""
""blur"",""2"",""7036""
""focus"",""2"",""26371""
""fullscreenenter"",""5"",""40689""
","""event"",""trial"",""time""
""blur"",""2"",""7036""
","""event"",""trial"",""time""
""focus"",""2"",""26371""
","""event"",""trial"",""time""
""fullscreenenter"",""5"",""40689""
","
",906.0499998740852,NA,48,NA,NA,3000,1,NA,NA,images/earth.jpg,images/tutrocket2,images/tutrocket1,null,images/tutrocket2,NA,1,practice,null,2,NA,NA,NA,sub137
d3-animate-choice,113,600146,0.0-61.0-1.17,TRUE,FALSE,TRUE,FALSE,"""event"",""trial"",""time""
""blur"",""2"",""7036""
""focus"",""2"",""26371""
""fullscreenenter"",""5"",""40689""
","""event"",""trial"",""time""
""blur"",""2"",""7036""
","""event"",""trial"",""time""
""focus"",""2"",""26371""
","""event"",""trial"",""time""
""fullscreenenter"",""5"",""40689""
","
",817.490000044927,NA,48,NA,NA,3000,1,NA,NA,images/tutgreenplanet.jpg,images/tutalien2,images/tutalien1,images/tutrocket2,images/tutalien2,images/t.png,2,practice,true,2,common,1,2020-06-29T05:08:28Z,sub137
two-step-fixation,114,601156,0.0-61.0-2.17,TRUE,FALSE,TRUE,FALSE,"""event"",""trial"",""time""
""blur"",""2"",""7036""
""focus"",""2"",""26371""
""fullscreenenter"",""5"",""40689""
","""event"",""trial"",""time""
""blur"",""2"",""7036""
","""event"",""trial"",""time""
""focus"",""2"",""26371""
","""event"",""trial"",""time""
""fullscreenenter"",""5"",""40689""
","
",NA,images/earth.jpg,NA,NA,NA,NA,NA,NA,NA,NA,NA,NA,NA,NA,NA,fixation,NA,NA,NA,NA,NA,NA,sub137
d3-animate-choice,115,603956,0.0-61.0-0.18,TRUE,FALSE,TRUE,FALSE,"""event"",""trial"",""time""
""blur"",""2"",""7036""
""focus"",""2"",""26371""
""fullscreenenter"",""5"",""40689""
","""event"",""trial"",""time""
""blur"",""2"",""7036""
","""event"",""trial"",""time""
""focus"",""2"",""26371""
","""event"",""trial"",""time""
""fullscreenenter"",""5"",""40689""
","
",786.0050001181662,NA,48,NA,NA,3000,1,NA,NA,images/earth.jpg,images/tutrocket2,images/tutrocket1,null,images/tutrocket2,NA,1,practice,null,2,NA,NA,NA,sub137
d3-animate-choice,116,606556,0.0-61.0-1.18,TRUE,FALSE,TRUE,FALSE,"""event"",""trial"",""time""
""blur"",""2"",""7036""
""focus"",""2"",""26371""
""fullscreenenter"",""5"",""40689""
","""event"",""trial"",""time""
""blur"",""2"",""7036""
","""event"",""trial"",""time""
""focus"",""2"",""26371""
","""event"",""trial"",""time""
""fullscreenenter"",""5"",""40689""
","
",585.2299998514354,NA,48,NA,NA,3000,1,NA,NA,images/tutgreenplanet.jpg,images/tutalien2,images/tutalien1,images/tutrocket2,images/tutalien2,images/nothing.png,2,practice,true,2,common,0,2020-06-29T05:08:35Z,sub137
two-step-fixation,117,607572,0.0-61.0-2.18,TRUE,FALSE,TRUE,FALSE,"""event"",""trial"",""time""
""blur"",""2"",""7036""
""focus"",""2"",""26371""
""fullscreenenter"",""5"",""40689""
","""event"",""trial"",""time""
""blur"",""2"",""7036""
","""event"",""trial"",""time""
""focus"",""2"",""26371""
","""event"",""trial"",""time""
""fullscreenenter"",""5"",""40689""
","
",NA,images/earth.jpg,NA,NA,NA,NA,NA,NA,NA,NA,NA,NA,NA,NA,NA,fixation,NA,NA,NA,NA,NA,NA,sub137
d3-animate-choice,118,610484,0.0-61.0-0.19,TRUE,FALSE,TRUE,FALSE,"""event"",""trial"",""time""
""blur"",""2"",""7036""
""focus"",""2"",""26371""
""fullscreenenter"",""5"",""40689""
","""event"",""trial"",""time""
""blur"",""2"",""7036""
","""event"",""trial"",""time""
""focus"",""2"",""26371""
","""event"",""trial"",""time""
""fullscreenenter"",""5"",""40689""
","
",895.4700001049787,NA,49,NA,NA,3000,1,NA,NA,images/earth.jpg,images/tutrocket2,images/tutrocket1,null,images/tutrocket1,NA,1,practice,null,1,NA,NA,NA,sub137
d3-animate-choice,119,613364,0.0-61.0-1.19,TRUE,FALSE,TRUE,FALSE,"""event"",""trial"",""time""
""blur"",""2"",""7036""
""focus"",""2"",""26371""
""fullscreenenter"",""5"",""40689""
","""event"",""trial"",""time""
""blur"",""2"",""7036""
","""event"",""trial"",""time""
""focus"",""2"",""26371""
","""event"",""trial"",""time""
""fullscreenenter"",""5"",""40689""
","
",866.6399999056011,NA,48,NA,NA,3000,1,NA,NA,images/tutgreenplanet.jpg,images/tutalien2,images/tutalien1,images/tutrocket1,images/tutalien2,images/t.png,2,practice,false,2,rare,1,2020-06-29T05:08:42Z,sub137
two-step-fixation,120,614376,0.0-61.0-2.19,TRUE,FALSE,TRUE,FALSE,"""event"",""trial"",""time""
""blur"",""2"",""7036""
""focus"",""2"",""26371""
""fullscreenenter"",""5"",""40689""
","""event"",""trial"",""time""
""blur"",""2"",""7036""
","""event"",""trial"",""time""
""focus"",""2"",""26371""
","""event"",""trial"",""time""
""fullscreenenter"",""5"",""40689""
","
",NA,images/earth.jpg,NA,NA,NA,NA,NA,NA,NA,NA,NA,NA,NA,NA,NA,fixation,NA,NA,NA,NA,NA,NA,sub137
d3-instructions,121,619043,0.0-62.0,TRUE,FALSE,TRUE,FALSE,"""event"",""trial"",""time""
""blur"",""2"",""7036""
""focus"",""2"",""26371""
""fullscreenenter"",""5"",""40689""
","""event"",""trial"",""time""
""blur"",""2"",""7036""
","""event"",""trial"",""time""
""focus"",""2"",""26371""
","""event"",""trial"",""time""
""fullscreenenter"",""5"",""40689""
","
",NA,NA,NA,NA,NA,NA,NA,NA,NA,NA,NA,NA,NA,NA,NA,NA,NA,NA,NA,NA,NA,NA,sub137
audio-keyboard-response,122,623741,0.0-63.0,TRUE,FALSE,TRUE,FALSE,"""event"",""trial"",""time""
""blur"",""2"",""7036""
""focus"",""2"",""26371""
""fullscreenenter"",""5"",""40689""
","""event"",""trial"",""time""
""blur"",""2"",""7036""
","""event"",""trial"",""time""
""focus"",""2"",""26371""
","""event"",""trial"",""time""
""fullscreenenter"",""5"",""40689""
","
",4691,audio/instructions/treasure_feedback.wav,32,NA,NA,NA,NA,NA,NA,NA,NA,NA,NA,NA,NA,NA,NA,NA,NA,NA,NA,NA,sub137
d3-instructions,123,642367,0.0-64.0,TRUE,FALSE,TRUE,FALSE,"""event"",""trial"",""time""
""blur"",""2"",""7036""
""focus"",""2"",""26371""
""fullscreenenter"",""5"",""40689""
","""event"",""trial"",""time""
""blur"",""2"",""7036""
","""event"",""trial"",""time""
""focus"",""2"",""26371""
","""event"",""trial"",""time""
""fullscreenenter"",""5"",""40689""
","
",NA,NA,NA,NA,NA,NA,NA,NA,NA,NA,NA,NA,NA,NA,NA,NA,NA,NA,NA,NA,NA,NA,sub137
d3-instructions,124,661088,0.0-65.0,TRUE,FALSE,TRUE,FALSE,"""event"",""trial"",""time""
""blur"",""2"",""7036""
""focus"",""2"",""26371""
""fullscreenenter"",""5"",""40689""
","""event"",""trial"",""time""
""blur"",""2"",""7036""
","""event"",""trial"",""time""
""focus"",""2"",""26371""
","""event"",""trial"",""time""
""fullscreenenter"",""5"",""40689""
","
",NA,NA,NA,NA,NA,NA,NA,NA,NA,NA,NA,NA,NA,NA,NA,NA,NA,NA,NA,NA,NA,NA,sub137
d3-instructions,125,691722,0.0-66.0,TRUE,FALSE,TRUE,FALSE,"""event"",""trial"",""time""
""blur"",""2"",""7036""
""focus"",""2"",""26371""
""fullscreenenter"",""5"",""40689""
","""event"",""trial"",""time""
""blur"",""2"",""7036""
","""event"",""trial"",""time""
""focus"",""2"",""26371""
","""event"",""trial"",""time""
""fullscreenenter"",""5"",""40689""
","
",NA,NA,NA,NA,NA,NA,NA,NA,NA,NA,NA,NA,NA,NA,NA,NA,NA,NA,NA,NA,NA,NA,sub137
d3-instructions,126,708824,0.0-67.0,TRUE,FALSE,TRUE,FALSE,"""event"",""trial"",""time""
""blur"",""2"",""7036""
""focus"",""2"",""26371""
""fullscreenenter"",""5"",""40689""
","""event"",""trial"",""time""
""blur"",""2"",""7036""
","""event"",""trial"",""time""
""focus"",""2"",""26371""
","""event"",""trial"",""time""
""fullscreenenter"",""5"",""40689""
","
",NA,NA,NA,NA,NA,NA,NA,NA,NA,NA,NA,NA,NA,NA,NA,NA,NA,NA,NA,NA,NA,NA,sub137
d3-instructions,127,720570,0.0-68.0,TRUE,FALSE,TRUE,FALSE,"""event"",""trial"",""time""
""blur"",""2"",""7036""
""focus"",""2"",""26371""
""fullscreenenter"",""5"",""40689""
","""event"",""trial"",""time""
""blur"",""2"",""7036""
","""event"",""trial"",""time""
""focus"",""2"",""26371""
","""event"",""trial"",""time""
""fullscreenenter"",""5"",""40689""
","
",NA,NA,NA,NA,NA,NA,NA,NA,NA,NA,NA,NA,NA,NA,NA,NA,NA,NA,NA,NA,NA,NA,sub137
instructions-quiz,128,729950,0.0-69.0,TRUE,FALSE,TRUE,FALSE,"""event"",""trial"",""time""
""blur"",""2"",""7036""
""focus"",""2"",""26371""
""fullscreenenter"",""5"",""40689""
","""event"",""trial"",""time""
""blur"",""2"",""7036""
","""event"",""trial"",""time""
""focus"",""2"",""26371""
","""event"",""trial"",""time""
""fullscreenenter"",""5"",""40689""
","
",9372.77500005439,audio/quiz/Q1_Prompt.wav,NA,1,NA,NA,NA,NA,NA,NA,NA,NA,NA,NA,NA,NA,NA,NA,NA,NA,NA,NA,sub137
audio-keyboard-response,129,739124,0.0-70.0,TRUE,FALSE,TRUE,FALSE,"""event"",""trial"",""time""
""blur"",""2"",""7036""
""focus"",""2"",""26371""
""fullscreenenter"",""5"",""40689""
","""event"",""trial"",""time""
""blur"",""2"",""7036""
","""event"",""trial"",""time""
""focus"",""2"",""26371""
","""event"",""trial"",""time""
""fullscreenenter"",""5"",""40689""
","
",null,audio/quiz/Q1_Correct.wav,null,NA,NA,NA,NA,NA,NA,NA,NA,NA,NA,NA,NA,NA,NA,NA,NA,NA,NA,NA,sub137
instructions-quiz,130,747942,0.0-71.0,TRUE,FALSE,TRUE,FALSE,"""event"",""trial"",""time""
""blur"",""2"",""7036""
""focus"",""2"",""26371""
""fullscreenenter"",""5"",""40689""
","""event"",""trial"",""time""
""blur"",""2"",""7036""
","""event"",""trial"",""time""
""focus"",""2"",""26371""
","""event"",""trial"",""time""
""fullscreenenter"",""5"",""40689""
","
",8812.679999973625,audio/quiz/Q2_Prompt.wav,NA,0,NA,NA,NA,NA,NA,NA,NA,NA,NA,NA,NA,NA,NA,NA,NA,NA,NA,NA,sub137
audio-keyboard-response,131,760812,0.0-72.0,TRUE,FALSE,TRUE,FALSE,"""event"",""trial"",""time""
""blur"",""2"",""7036""
""focus"",""2"",""26371""
""fullscreenenter"",""5"",""40689""
","""event"",""trial"",""time""
""blur"",""2"",""7036""
","""event"",""trial"",""time""
""focus"",""2"",""26371""
","""event"",""trial"",""time""
""fullscreenenter"",""5"",""40689""
","
",null,audio/quiz/Q2_Correct.wav,null,NA,NA,NA,NA,NA,NA,NA,NA,NA,NA,NA,NA,NA,NA,NA,NA,NA,NA,NA,sub137
instructions-quiz,132,764721,0.0-73.0,TRUE,FALSE,TRUE,FALSE,"""event"",""trial"",""time""
""blur"",""2"",""7036""
""focus"",""2"",""26371""
""fullscreenenter"",""5"",""40689""
","""event"",""trial"",""time""
""blur"",""2"",""7036""
","""event"",""trial"",""time""
""focus"",""2"",""26371""
","""event"",""trial"",""time""
""fullscreenenter"",""5"",""40689""
","
",3904.009999940172,audio/quiz/Q3_Prompt.wav,NA,1,NA,NA,NA,NA,NA,NA,NA,NA,NA,NA,NA,NA,NA,NA,NA,NA,NA,NA,sub137
audio-keyboard-response,133,770522,0.0-74.0,TRUE,FALSE,TRUE,FALSE,"""event"",""trial"",""time""
""blur"",""2"",""7036""
""focus"",""2"",""26371""
""fullscreenenter"",""5"",""40689""
","""event"",""trial"",""time""
""blur"",""2"",""7036""
","""event"",""trial"",""time""
""focus"",""2"",""26371""
","""event"",""trial"",""time""
""fullscreenenter"",""5"",""40689""
","
",null,audio/quiz/Q3_Correct.wav,null,NA,NA,NA,NA,NA,NA,NA,NA,NA,NA,NA,NA,NA,NA,NA,NA,NA,NA,NA,sub137
d3-instructions,134,783894,0.0-75.0,TRUE,FALSE,TRUE,FALSE,"""event"",""trial"",""time""
""blur"",""2"",""7036""
""focus"",""2"",""26371""
""fullscreenenter"",""5"",""40689""
","""event"",""trial"",""time""
""blur"",""2"",""7036""
","""event"",""trial"",""time""
""focus"",""2"",""26371""
","""event"",""trial"",""time""
""fullscreenenter"",""5"",""40689""
","
",NA,NA,NA,NA,NA,NA,NA,NA,NA,NA,NA,NA,NA,NA,NA,NA,NA,NA,NA,NA,NA,NA,sub137
d3-animate-choice,135,787259,0.0-76.0-0.0,TRUE,FALSE,TRUE,FALSE,"""event"",""trial"",""time""
""blur"",""2"",""7036""
""focus"",""2"",""26371""
""fullscreenenter"",""5"",""40689""
","""event"",""trial"",""time""
""blur"",""2"",""7036""
","""event"",""trial"",""time""
""focus"",""2"",""26371""
","""event"",""trial"",""time""
""fullscreenenter"",""5"",""40689""
","
",1351.6400000080466,NA,48,NA,NA,3000,1,NA,NA,images/earth.jpg,images/rocket2,images/rocket1,null,images/rocket2,NA,1,real,null,2,NA,NA,NA,sub137
d3-animate-choice,136,790739,0.0-76.0-1.0,TRUE,FALSE,TRUE,FALSE,"""event"",""trial"",""time""
""blur"",""2"",""7036""
""focus"",""2"",""26371""
""fullscreenenter"",""5"",""40689""
","""event"",""trial"",""time""
""blur"",""2"",""7036""
","""event"",""trial"",""time""
""focus"",""2"",""26371""
","""event"",""trial"",""time""
""fullscreenenter"",""5"",""40689""
","
",1465.3249999973923,NA,49,NA,NA,3000,1,NA,NA,images/redplanet1.jpg,images/alien2,images/alien1,images/rocket2,images/alien1,images/nothing.png,2,real,true,1,common,0,2020-06-29T05:11:39Z,sub137
two-step-fixation,137,791749,0.0-76.0-2.0,TRUE,FALSE,TRUE,FALSE,"""event"",""trial"",""time""
""blur"",""2"",""7036""
""focus"",""2"",""26371""
""fullscreenenter"",""5"",""40689""
","""event"",""trial"",""time""
""blur"",""2"",""7036""
","""event"",""trial"",""time""
""focus"",""2"",""26371""
","""event"",""trial"",""time""
""fullscreenenter"",""5"",""40689""
","
",NA,images/earth.jpg,NA,NA,NA,NA,NA,NA,NA,NA,NA,NA,NA,NA,NA,fixation,NA,NA,NA,NA,NA,NA,sub137
d3-animate-choice,138,794820,0.0-76.0-0.1,TRUE,FALSE,TRUE,FALSE,"""event"",""trial"",""time""
""blur"",""2"",""7036""
""focus"",""2"",""26371""
""fullscreenenter"",""5"",""40689""
","""event"",""trial"",""time""
""blur"",""2"",""7036""
","""event"",""trial"",""time""
""focus"",""2"",""26371""
","""event"",""trial"",""time""
""fullscreenenter"",""5"",""40689""
","
",1056.7499999888241,NA,49,NA,NA,3000,1,NA,NA,images/earth.jpg,images/rocket2,images/rocket1,null,images/rocket1,NA,1,real,null,1,NA,NA,NA,sub137
d3-animate-choice,139,798159,0.0-76.0-1.1,TRUE,FALSE,TRUE,FALSE,"""event"",""trial"",""time""
""blur"",""2"",""7036""
""focus"",""2"",""26371""
""fullscreenenter"",""5"",""40689""
","""event"",""trial"",""time""
""blur"",""2"",""7036""
","""event"",""trial"",""time""
""focus"",""2"",""26371""
","""event"",""trial"",""time""
""fullscreenenter"",""5"",""40689""
","
",1326.6900000162423,NA,48,NA,NA,3000,1,NA,NA,images/redplanet1.jpg,images/alien2,images/alien1,images/rocket1,images/alien2,images/t.png,2,real,false,2,rare,1,2020-06-29T05:11:46Z,sub137
two-step-fixation,140,799169,0.0-76.0-2.1,TRUE,FALSE,TRUE,FALSE,"""event"",""trial"",""time""
""blur"",""2"",""7036""
""focus"",""2"",""26371""
""fullscreenenter"",""5"",""40689""
","""event"",""trial"",""time""
""blur"",""2"",""7036""
","""event"",""trial"",""time""
""focus"",""2"",""26371""
","""event"",""trial"",""time""
""fullscreenenter"",""5"",""40689""
","
",NA,images/earth.jpg,NA,NA,NA,NA,NA,NA,NA,NA,NA,NA,NA,NA,NA,fixation,NA,NA,NA,NA,NA,NA,sub137
d3-animate-choice,141,801971,0.0-76.0-0.2,TRUE,FALSE,TRUE,FALSE,"""event"",""trial"",""time""
""blur"",""2"",""7036""
""focus"",""2"",""26371""
""fullscreenenter"",""5"",""40689""
","""event"",""trial"",""time""
""blur"",""2"",""7036""
","""event"",""trial"",""time""
""focus"",""2"",""26371""
","""event"",""trial"",""time""
""fullscreenenter"",""5"",""40689""
","
",779.4550000689924,NA,48,NA,NA,3000,1,NA,NA,images/earth.jpg,images/rocket2,images/rocket1,null,images/rocket2,NA,1,real,null,2,NA,NA,NA,sub137
d3-animate-choice,142,805067,0.0-76.0-1.2,TRUE,FALSE,TRUE,FALSE,"""event"",""trial"",""time""
""blur"",""2"",""7036""
""focus"",""2"",""26371""
""fullscreenenter"",""5"",""40689""
","""event"",""trial"",""time""
""blur"",""2"",""7036""
","""event"",""trial"",""time""
""focus"",""2"",""26371""
","""event"",""trial"",""time""
""fullscreenenter"",""5"",""40689""
","
",1077.4950000923127,NA,48,NA,NA,3000,1,NA,NA,images/redplanet1.jpg,images/alien2,images/alien1,images/rocket2,images/alien2,images/t.png,2,real,true,2,common,1,2020-06-29T05:11:53Z,sub137
two-step-fixation,143,806089,0.0-76.0-2.2,TRUE,FALSE,TRUE,FALSE,"""event"",""trial"",""time""
""blur"",""2"",""7036""
""focus"",""2"",""26371""
""fullscreenenter"",""5"",""40689""
","""event"",""trial"",""time""
""blur"",""2"",""7036""
","""event"",""trial"",""time""
""focus"",""2"",""26371""
","""event"",""trial"",""time""
""fullscreenenter"",""5"",""40689""
","
",NA,images/earth.jpg,NA,NA,NA,NA,NA,NA,NA,NA,NA,NA,NA,NA,NA,fixation,NA,NA,NA,NA,NA,NA,sub137
d3-animate-choice,144,808759,0.0-76.0-0.3,TRUE,FALSE,TRUE,FALSE,"""event"",""trial"",""time""
""blur"",""2"",""7036""
""focus"",""2"",""26371""
""fullscreenenter"",""5"",""40689""
","""event"",""trial"",""time""
""blur"",""2"",""7036""
","""event"",""trial"",""time""
""focus"",""2"",""26371""
","""event"",""trial"",""time""
""fullscreenenter"",""5"",""40689""
","
",656.8750001024455,NA,49,NA,NA,3000,1,NA,NA,images/earth.jpg,images/rocket2,images/rocket1,null,images/rocket1,NA,1,real,null,1,NA,NA,NA,sub137
d3-animate-choice,145,812159,0.0-76.0-1.3,TRUE,FALSE,TRUE,FALSE,"""event"",""trial"",""time""
""blur"",""2"",""7036""
""focus"",""2"",""26371""
""fullscreenenter"",""5"",""40689""
","""event"",""trial"",""time""
""blur"",""2"",""7036""
","""event"",""trial"",""time""
""focus"",""2"",""26371""
","""event"",""trial"",""time""
""fullscreenenter"",""5"",""40689""
","
",1384.9049999844283,NA,49,NA,NA,3000,1,NA,NA,images/purpleplanet.jpg,images/alien4,images/alien3,images/rocket1,images/alien3,images/nothing.png,2,real,true,1,common,0,2020-06-29T05:12:00Z,sub137
two-step-fixation,146,813169,0.0-76.0-2.3,TRUE,FALSE,TRUE,FALSE,"""event"",""trial"",""time""
""blur"",""2"",""7036""
""focus"",""2"",""26371""
""fullscreenenter"",""5"",""40689""
","""event"",""trial"",""time""
""blur"",""2"",""7036""
","""event"",""trial"",""time""
""focus"",""2"",""26371""
","""event"",""trial"",""time""
""fullscreenenter"",""5"",""40689""
","
",NA,images/earth.jpg,NA,NA,NA,NA,NA,NA,NA,NA,NA,NA,NA,NA,NA,fixation,NA,NA,NA,NA,NA,NA,sub137
d3-animate-choice,147,815852,0.0-76.0-0.4,TRUE,FALSE,TRUE,FALSE,"""event"",""trial"",""time""
""blur"",""2"",""7036""
""focus"",""2"",""26371""
""fullscreenenter"",""5"",""40689""
","""event"",""trial"",""time""
""blur"",""2"",""7036""
","""event"",""trial"",""time""
""focus"",""2"",""26371""
","""event"",""trial"",""time""
""fullscreenenter"",""5"",""40689""
","
",668.5799998231232,NA,48,NA,NA,3000,1,NA,NA,images/earth.jpg,images/rocket2,images/rocket1,null,images/rocket2,NA,1,real,null,2,NA,NA,NA,sub137
d3-animate-choice,148,819876,0.0-76.0-1.4,TRUE,FALSE,TRUE,FALSE,"""event"",""trial"",""time""
""blur"",""2"",""7036""
""focus"",""2"",""26371""
""fullscreenenter"",""5"",""40689""
","""event"",""trial"",""time""
""blur"",""2"",""7036""
","""event"",""trial"",""time""
""focus"",""2"",""26371""
","""event"",""trial"",""time""
""fullscreenenter"",""5"",""40689""
","
",2349.1000002250075,NA,48,NA,NA,3000,1,NA,NA,images/purpleplanet.jpg,images/alien4,images/alien3,images/rocket2,images/alien4,images/t.png,2,real,false,2,rare,1,2020-06-29T05:12:08Z,sub137
two-step-fixation,149,820892,0.0-76.0-2.4,TRUE,FALSE,TRUE,FALSE,"""event"",""trial"",""time""
""blur"",""2"",""7036""
""focus"",""2"",""26371""
""fullscreenenter"",""5"",""40689""
","""event"",""trial"",""time""
""blur"",""2"",""7036""
","""event"",""trial"",""time""
""focus"",""2"",""26371""
","""event"",""trial"",""time""
""fullscreenenter"",""5"",""40689""
","
",NA,images/earth.jpg,NA,NA,NA,NA,NA,NA,NA,NA,NA,NA,NA,NA,NA,fixation,NA,NA,NA,NA,NA,NA,sub137
d3-animate-choice,150,823772,0.0-76.0-0.5,TRUE,FALSE,TRUE,FALSE,"""event"",""trial"",""time""
""blur"",""2"",""7036""
""focus"",""2"",""26371""
""fullscreenenter"",""5"",""40689""
","""event"",""trial"",""time""
""blur"",""2"",""7036""
","""event"",""trial"",""time""
""focus"",""2"",""26371""
","""event"",""trial"",""time""
""fullscreenenter"",""5"",""40689""
","
",867.4950001295656,NA,48,NA,NA,3000,1,NA,NA,images/earth.jpg,images/rocket2,images/rocket1,null,images/rocket2,NA,1,real,null,2,NA,NA,NA,sub137
d3-animate-choice,151,827244,0.0-76.0-1.5,TRUE,FALSE,TRUE,FALSE,"""event"",""trial"",""time""
""blur"",""2"",""7036""
""focus"",""2"",""26371""
""fullscreenenter"",""5"",""40689""
","""event"",""trial"",""time""
""blur"",""2"",""7036""
","""event"",""trial"",""time""
""focus"",""2"",""26371""
","""event"",""trial"",""time""
""fullscreenenter"",""5"",""40689""
","
",1458.4900001063943,NA,48,NA,NA,3000,1,NA,NA,images/redplanet1.jpg,images/alien2,images/alien1,images/rocket2,images/alien2,images/nothing.png,2,real,true,2,common,0,2020-06-29T05:12:15Z,sub137
two-step-fixation,152,828254,0.0-76.0-2.5,TRUE,FALSE,TRUE,FALSE,"""event"",""trial"",""time""
""blur"",""2"",""7036""
""focus"",""2"",""26371""
""fullscreenenter"",""5"",""40689""
","""event"",""trial"",""time""
""blur"",""2"",""7036""
","""event"",""trial"",""time""
""focus"",""2"",""26371""
","""event"",""trial"",""time""
""fullscreenenter"",""5"",""40689""
","
",NA,images/earth.jpg,NA,NA,NA,NA,NA,NA,NA,NA,NA,NA,NA,NA,NA,fixation,NA,NA,NA,NA,NA,NA,sub137
d3-animate-choice,153,830932,0.0-76.0-0.6,TRUE,FALSE,TRUE,FALSE,"""event"",""trial"",""time""
""blur"",""2"",""7036""
""focus"",""2"",""26371""
""fullscreenenter"",""5"",""40689""
","""event"",""trial"",""time""
""blur"",""2"",""7036""
","""event"",""trial"",""time""
""focus"",""2"",""26371""
","""event"",""trial"",""time""
""fullscreenenter"",""5"",""40689""
","
",667.2900000121444,NA,49,NA,NA,3000,1,NA,NA,images/earth.jpg,images/rocket2,images/rocket1,null,images/rocket1,NA,1,real,null,1,NA,NA,NA,sub137
d3-animate-choice,154,834950,0.0-76.0-1.6,TRUE,FALSE,TRUE,FALSE,"""event"",""trial"",""time""
""blur"",""2"",""7036""
""focus"",""2"",""26371""
""fullscreenenter"",""5"",""40689""
","""event"",""trial"",""time""
""blur"",""2"",""7036""
","""event"",""trial"",""time""
""focus"",""2"",""26371""
","""event"",""trial"",""time""
""fullscreenenter"",""5"",""40689""
","
",2354.4899998232722,NA,48,NA,NA,3000,1,NA,NA,images/redplanet1.jpg,images/alien2,images/alien1,images/rocket1,images/alien2,images/nothing.png,2,real,false,2,rare,0,2020-06-29T05:12:23Z,sub137
two-step-fixation,155,835964,0.0-76.0-2.6,TRUE,FALSE,TRUE,FALSE,"""event"",""trial"",""time""
""blur"",""2"",""7036""
""focus"",""2"",""26371""
""fullscreenenter"",""5"",""40689""
","""event"",""trial"",""time""
""blur"",""2"",""7036""
","""event"",""trial"",""time""
""focus"",""2"",""26371""
","""event"",""trial"",""time""
""fullscreenenter"",""5"",""40689""
","
",NA,images/earth.jpg,NA,NA,NA,NA,NA,NA,NA,NA,NA,NA,NA,NA,NA,fixation,NA,NA,NA,NA,NA,NA,sub137
d3-animate-choice,156,838772,0.0-76.0-0.7,TRUE,FALSE,TRUE,FALSE,"""event"",""trial"",""time""
""blur"",""2"",""7036""
""focus"",""2"",""26371""
""fullscreenenter"",""5"",""40689""
","""event"",""trial"",""time""
""blur"",""2"",""7036""
","""event"",""trial"",""time""
""focus"",""2"",""26371""
","""event"",""trial"",""time""
""fullscreenenter"",""5"",""40689""
","
",796.9600001815706,NA,48,NA,NA,3000,1,NA,NA,images/earth.jpg,images/rocket2,images/rocket1,null,images/rocket2,NA,1,real,null,2,NA,NA,NA,sub137
d3-animate-choice,157,842084,0.0-76.0-1.7,TRUE,FALSE,TRUE,FALSE,"""event"",""trial"",""time""
""blur"",""2"",""7036""
""focus"",""2"",""26371""
""fullscreenenter"",""5"",""40689""
","""event"",""trial"",""time""
""blur"",""2"",""7036""
","""event"",""trial"",""time""
""focus"",""2"",""26371""
","""event"",""trial"",""time""
""fullscreenenter"",""5"",""40689""
","
",1294.8399998713285,NA,49,NA,NA,3000,1,NA,NA,images/purpleplanet.jpg,images/alien4,images/alien3,images/rocket2,images/alien3,images/nothing.png,2,real,false,1,rare,0,2020-06-29T05:12:30Z,sub137
two-step-fixation,158,843094,0.0-76.0-2.7,TRUE,FALSE,TRUE,FALSE,"""event"",""trial"",""time""
""blur"",""2"",""7036""
""focus"",""2"",""26371""
""fullscreenenter"",""5"",""40689""
","""event"",""trial"",""time""
""blur"",""2"",""7036""
","""event"",""trial"",""time""
""focus"",""2"",""26371""
","""event"",""trial"",""time""
""fullscreenenter"",""5"",""40689""
","
",NA,images/earth.jpg,NA,NA,NA,NA,NA,NA,NA,NA,NA,NA,NA,NA,NA,fixation,NA,NA,NA,NA,NA,NA,sub137
d3-animate-choice,159,845756,0.0-76.0-0.8,TRUE,FALSE,TRUE,FALSE,"""event"",""trial"",""time""
""blur"",""2"",""7036""
""focus"",""2"",""26371""
""fullscreenenter"",""5"",""40689""
","""event"",""trial"",""time""
""blur"",""2"",""7036""
","""event"",""trial"",""time""
""focus"",""2"",""26371""
","""event"",""trial"",""time""
""fullscreenenter"",""5"",""40689""
","
",643.8299999572337,NA,49,NA,NA,3000,1,NA,NA,images/earth.jpg,images/rocket2,images/rocket1,null,images/rocket1,NA,1,real,null,1,NA,NA,NA,sub137
d3-animate-choice,160,849244,0.0-76.0-1.8,TRUE,FALSE,TRUE,FALSE,"""event"",""trial"",""time""
""blur"",""2"",""7036""
""focus"",""2"",""26371""
""fullscreenenter"",""5"",""40689""
","""event"",""trial"",""time""
""blur"",""2"",""7036""
","""event"",""trial"",""time""
""focus"",""2"",""26371""
","""event"",""trial"",""time""
""fullscreenenter"",""5"",""40689""
","
",1470.8499999251217,NA,48,NA,NA,3000,1,NA,NA,images/purpleplanet.jpg,images/alien4,images/alien3,images/rocket1,images/alien4,images/t.png,2,real,true,2,common,1,2020-06-29T05:12:37Z,sub137
two-step-fixation,161,850254,0.0-76.0-2.8,TRUE,FALSE,TRUE,FALSE,"""event"",""trial"",""time""
""blur"",""2"",""7036""
""focus"",""2"",""26371""
""fullscreenenter"",""5"",""40689""
","""event"",""trial"",""time""
""blur"",""2"",""7036""
","""event"",""trial"",""time""
""focus"",""2"",""26371""
","""event"",""trial"",""time""
""fullscreenenter"",""5"",""40689""
","
",NA,images/earth.jpg,NA,NA,NA,NA,NA,NA,NA,NA,NA,NA,NA,NA,NA,fixation,NA,NA,NA,NA,NA,NA,sub137
d3-animate-choice,162,853508,0.0-76.0-0.9,TRUE,FALSE,TRUE,FALSE,"""event"",""trial"",""time""
""blur"",""2"",""7036""
""focus"",""2"",""26371""
""fullscreenenter"",""5"",""40689""
","""event"",""trial"",""time""
""blur"",""2"",""7036""
","""event"",""trial"",""time""
""focus"",""2"",""26371""
","""event"",""trial"",""time""
""fullscreenenter"",""5"",""40689""
","
",1234.45999994874,NA,48,NA,NA,3000,1,NA,NA,images/earth.jpg,images/rocket2,images/rocket1,null,images/rocket2,NA,1,real,null,2,NA,NA,NA,sub137
d3-animate-choice,163,857436,0.0-76.0-1.9,TRUE,FALSE,TRUE,FALSE,"""event"",""trial"",""time""
""blur"",""2"",""7036""
""focus"",""2"",""26371""
""fullscreenenter"",""5"",""40689""
","""event"",""trial"",""time""
""blur"",""2"",""7036""
","""event"",""trial"",""time""
""focus"",""2"",""26371""
","""event"",""trial"",""time""
""fullscreenenter"",""5"",""40689""
","
",1909.4549999572337,NA,48,NA,NA,3000,1,NA,NA,images/redplanet1.jpg,images/alien2,images/alien1,images/rocket2,images/alien2,images/nothing.png,2,real,true,2,common,0,2020-06-29T05:12:46Z,sub137
two-step-fixation,164,858452,0.0-76.0-2.9,TRUE,FALSE,TRUE,FALSE,"""event"",""trial"",""time""
""blur"",""2"",""7036""
""focus"",""2"",""26371""
""fullscreenenter"",""5"",""40689""
","""event"",""trial"",""time""
""blur"",""2"",""7036""
","""event"",""trial"",""time""
""focus"",""2"",""26371""
","""event"",""trial"",""time""
""fullscreenenter"",""5"",""40689""
","
",NA,images/earth.jpg,NA,NA,NA,NA,NA,NA,NA,NA,NA,NA,NA,NA,NA,fixation,NA,NA,NA,NA,NA,NA,sub137
d3-animate-choice,165,861010,0.0-76.0-0.10,TRUE,FALSE,TRUE,FALSE,"""event"",""trial"",""time""
""blur"",""2"",""7036""
""focus"",""2"",""26371""
""fullscreenenter"",""5"",""40689""
","""event"",""trial"",""time""
""blur"",""2"",""7036""
","""event"",""trial"",""time""
""focus"",""2"",""26371""
","""event"",""trial"",""time""
""fullscreenenter"",""5"",""40689""
","
",542.4750000238419,NA,49,NA,NA,3000,1,NA,NA,images/earth.jpg,images/rocket2,images/rocket1,null,images/rocket1,NA,1,real,null,1,NA,NA,NA,sub137
d3-animate-choice,166,864812,0.0-76.0-1.10,TRUE,FALSE,TRUE,FALSE,"""event"",""trial"",""time""
""blur"",""2"",""7036""
""focus"",""2"",""26371""
""fullscreenenter"",""5"",""40689""
","""event"",""trial"",""time""
""blur"",""2"",""7036""
","""event"",""trial"",""time""
""focus"",""2"",""26371""
","""event"",""trial"",""time""
""fullscreenenter"",""5"",""40689""
","
",1789.769999915734,NA,48,NA,NA,3000,1,NA,NA,images/purpleplanet.jpg,images/alien4,images/alien3,images/rocket1,images/alien4,images/t.png,2,real,true,2,common,1,2020-06-29T05:12:53Z,sub137
two-step-fixation,167,865828,0.0-76.0-2.10,TRUE,FALSE,TRUE,FALSE,"""event"",""trial"",""time""
""blur"",""2"",""7036""
""focus"",""2"",""26371""
""fullscreenenter"",""5"",""40689""
","""event"",""trial"",""time""
""blur"",""2"",""7036""
","""event"",""trial"",""time""
""focus"",""2"",""26371""
","""event"",""trial"",""time""
""fullscreenenter"",""5"",""40689""
","
",NA,images/earth.jpg,NA,NA,NA,NA,NA,NA,NA,NA,NA,NA,NA,NA,NA,fixation,NA,NA,NA,NA,NA,NA,sub137
d3-animate-choice,168,868340,0.0-76.0-0.11,TRUE,FALSE,TRUE,FALSE,"""event"",""trial"",""time""
""blur"",""2"",""7036""
""focus"",""2"",""26371""
""fullscreenenter"",""5"",""40689""
","""event"",""trial"",""time""
""blur"",""2"",""7036""
","""event"",""trial"",""time""
""focus"",""2"",""26371""
","""event"",""trial"",""time""
""fullscreenenter"",""5"",""40689""
","
",499.3650000542402,NA,49,NA,NA,3000,1,NA,NA,images/earth.jpg,images/rocket2,images/rocket1,null,images/rocket1,NA,1,real,null,1,NA,NA,NA,sub137
d3-animate-choice,169,871572,0.0-76.0-1.11,TRUE,FALSE,TRUE,FALSE,"""event"",""trial"",""time""
""blur"",""2"",""7036""
""focus"",""2"",""26371""
""fullscreenenter"",""5"",""40689""
","""event"",""trial"",""time""
""blur"",""2"",""7036""
","""event"",""trial"",""time""
""focus"",""2"",""26371""
","""event"",""trial"",""time""
""fullscreenenter"",""5"",""40689""
","
",1216.8499999679625,NA,48,NA,NA,3000,1,NA,NA,images/purpleplanet.jpg,images/alien4,images/alien3,images/rocket1,images/alien4,images/t.png,2,real,true,2,common,1,2020-06-29T05:13:00Z,sub137
two-step-fixation,170,872588,0.0-76.0-2.11,TRUE,FALSE,TRUE,FALSE,"""event"",""trial"",""time""
""blur"",""2"",""7036""
""focus"",""2"",""26371""
""fullscreenenter"",""5"",""40689""
","""event"",""trial"",""time""
""blur"",""2"",""7036""
","""event"",""trial"",""time""
""focus"",""2"",""26371""
","""event"",""trial"",""time""
""fullscreenenter"",""5"",""40689""
","
",NA,images/earth.jpg,NA,NA,NA,NA,NA,NA,NA,NA,NA,NA,NA,NA,NA,fixation,NA,NA,NA,NA,NA,NA,sub137
d3-animate-choice,171,875299,0.0-76.0-0.12,TRUE,FALSE,TRUE,FALSE,"""event"",""trial"",""time""
""blur"",""2"",""7036""
""focus"",""2"",""26371""
""fullscreenenter"",""5"",""40689""
","""event"",""trial"",""time""
""blur"",""2"",""7036""
","""event"",""trial"",""time""
""focus"",""2"",""26371""
","""event"",""trial"",""time""
""fullscreenenter"",""5"",""40689""
","
",693.1100001093,NA,49,NA,NA,3000,1,NA,NA,images/earth.jpg,images/rocket2,images/rocket1,null,images/rocket1,NA,1,real,null,1,NA,NA,NA,sub137
d3-animate-choice,172,878147,0.0-76.0-1.12,TRUE,FALSE,TRUE,FALSE,"""event"",""trial"",""time""
""blur"",""2"",""7036""
""focus"",""2"",""26371""
""fullscreenenter"",""5"",""40689""
","""event"",""trial"",""time""
""blur"",""2"",""7036""
","""event"",""trial"",""time""
""focus"",""2"",""26371""
","""event"",""trial"",""time""
""fullscreenenter"",""5"",""40689""
","
",833.7349998764694,NA,48,NA,NA,3000,1,NA,NA,images/purpleplanet.jpg,images/alien4,images/alien3,images/rocket1,images/alien4,images/t.png,2,real,true,2,common,1,2020-06-29T05:13:06Z,sub137
two-step-fixation,173,879163,0.0-76.0-2.12,TRUE,FALSE,TRUE,FALSE,"""event"",""trial"",""time""
""blur"",""2"",""7036""
""focus"",""2"",""26371""
""fullscreenenter"",""5"",""40689""
","""event"",""trial"",""time""
""blur"",""2"",""7036""
","""event"",""trial"",""time""
""focus"",""2"",""26371""
","""event"",""trial"",""time""
""fullscreenenter"",""5"",""40689""
","
",NA,images/earth.jpg,NA,NA,NA,NA,NA,NA,NA,NA,NA,NA,NA,NA,NA,fixation,NA,NA,NA,NA,NA,NA,sub137
d3-animate-choice,174,882540,0.0-76.0-0.13,TRUE,FALSE,TRUE,FALSE,"""event"",""trial"",""time""
""blur"",""2"",""7036""
""focus"",""2"",""26371""
""fullscreenenter"",""5"",""40689""
","""event"",""trial"",""time""
""blur"",""2"",""7036""
","""event"",""trial"",""time""
""focus"",""2"",""26371""
","""event"",""trial"",""time""
""fullscreenenter"",""5"",""40689""
","
",1369.4150000810623,NA,48,NA,NA,3000,1,NA,NA,images/earth.jpg,images/rocket2,images/rocket1,null,images/rocket2,NA,1,real,null,2,NA,NA,NA,sub137
d3-animate-choice,175,886555,0.0-76.0-1.13,TRUE,FALSE,TRUE,FALSE,"""event"",""trial"",""time""
""blur"",""2"",""7036""
""focus"",""2"",""26371""
""fullscreenenter"",""5"",""40689""
","""event"",""trial"",""time""
""blur"",""2"",""7036""
","""event"",""trial"",""time""
""focus"",""2"",""26371""
","""event"",""trial"",""time""
""fullscreenenter"",""5"",""40689""
","
",2156.5300000365824,NA,48,NA,NA,3000,1,NA,NA,images/purpleplanet.jpg,images/alien4,images/alien3,images/rocket2,images/alien4,images/t.png,2,real,false,2,rare,1,2020-06-29T05:13:15Z,sub137
two-step-fixation,176,887568,0.0-76.0-2.13,TRUE,FALSE,TRUE,FALSE,"""event"",""trial"",""time""
""blur"",""2"",""7036""
""focus"",""2"",""26371""
""fullscreenenter"",""5"",""40689""
","""event"",""trial"",""time""
""blur"",""2"",""7036""
","""event"",""trial"",""time""
""focus"",""2"",""26371""
","""event"",""trial"",""time""
""fullscreenenter"",""5"",""40689""
","
",NA,images/earth.jpg,NA,NA,NA,NA,NA,NA,NA,NA,NA,NA,NA,NA,NA,fixation,NA,NA,NA,NA,NA,NA,sub137
d3-animate-choice,177,890563,0.0-76.0-0.14,TRUE,FALSE,TRUE,FALSE,"""event"",""trial"",""time""
""blur"",""2"",""7036""
""focus"",""2"",""26371""
""fullscreenenter"",""5"",""40689""
","""event"",""trial"",""time""
""blur"",""2"",""7036""
","""event"",""trial"",""time""
""focus"",""2"",""26371""
","""event"",""trial"",""time""
""fullscreenenter"",""5"",""40689""
","
",980.0400000531226,NA,48,NA,NA,3000,1,NA,NA,images/earth.jpg,images/rocket2,images/rocket1,null,images/rocket2,NA,1,real,null,2,NA,NA,NA,sub137
d3-animate-choice,178,894403,0.0-76.0-1.14,TRUE,FALSE,TRUE,FALSE,"""event"",""trial"",""time""
""blur"",""2"",""7036""
""focus"",""2"",""26371""
""fullscreenenter"",""5"",""40689""
","""event"",""trial"",""time""
""blur"",""2"",""7036""
","""event"",""trial"",""time""
""focus"",""2"",""26371""
","""event"",""trial"",""time""
""fullscreenenter"",""5"",""40689""
","
",1828.8499999325722,NA,49,NA,NA,3000,1,NA,NA,images/redplanet1.jpg,images/alien2,images/alien1,images/rocket2,images/alien1,images/t.png,2,real,true,1,common,1,2020-06-29T05:13:23Z,sub137
two-step-fixation,179,895420,0.0-76.0-2.14,TRUE,FALSE,TRUE,FALSE,"""event"",""trial"",""time""
""blur"",""2"",""7036""
""focus"",""2"",""26371""
""fullscreenenter"",""5"",""40689""
","""event"",""trial"",""time""
""blur"",""2"",""7036""
","""event"",""trial"",""time""
""focus"",""2"",""26371""
","""event"",""trial"",""time""
""fullscreenenter"",""5"",""40689""
","
",NA,images/earth.jpg,NA,NA,NA,NA,NA,NA,NA,NA,NA,NA,NA,NA,NA,fixation,NA,NA,NA,NA,NA,NA,sub137
d3-animate-choice,180,898116,0.0-76.0-0.15,TRUE,FALSE,TRUE,FALSE,"""event"",""trial"",""time""
""blur"",""2"",""7036""
""focus"",""2"",""26371""
""fullscreenenter"",""5"",""40689""
","""event"",""trial"",""time""
""blur"",""2"",""7036""
","""event"",""trial"",""time""
""focus"",""2"",""26371""
","""event"",""trial"",""time""
""fullscreenenter"",""5"",""40689""
","
",681.6800001543015,NA,48,NA,NA,3000,1,NA,NA,images/earth.jpg,images/rocket2,images/rocket1,null,images/rocket2,NA,1,real,null,2,NA,NA,NA,sub137
d3-animate-choice,181,900755,0.0-76.0-1.15,TRUE,FALSE,TRUE,FALSE,"""event"",""trial"",""time""
""blur"",""2"",""7036""
""focus"",""2"",""26371""
""fullscreenenter"",""5"",""40689""
","""event"",""trial"",""time""
""blur"",""2"",""7036""
","""event"",""trial"",""time""
""focus"",""2"",""26371""
","""event"",""trial"",""time""
""fullscreenenter"",""5"",""40689""
","
",623.3600000850856,NA,49,NA,NA,3000,1,NA,NA,images/redplanet1.jpg,images/alien2,images/alien1,images/rocket2,images/alien1,images/t.png,2,real,true,1,common,1,2020-06-29T05:13:29Z,sub137
two-step-fixation,182,901764,0.0-76.0-2.15,TRUE,FALSE,TRUE,FALSE,"""event"",""trial"",""time""
""blur"",""2"",""7036""
""focus"",""2"",""26371""
""fullscreenenter"",""5"",""40689""
","""event"",""trial"",""time""
""blur"",""2"",""7036""
","""event"",""trial"",""time""
""focus"",""2"",""26371""
","""event"",""trial"",""time""
""fullscreenenter"",""5"",""40689""
","
",NA,images/earth.jpg,NA,NA,NA,NA,NA,NA,NA,NA,NA,NA,NA,NA,NA,fixation,NA,NA,NA,NA,NA,NA,sub137
d3-animate-choice,183,904281,0.0-76.0-0.16,TRUE,FALSE,TRUE,FALSE,"""event"",""trial"",""time""
""blur"",""2"",""7036""
""focus"",""2"",""26371""
""fullscreenenter"",""5"",""40689""
","""event"",""trial"",""time""
""blur"",""2"",""7036""
","""event"",""trial"",""time""
""focus"",""2"",""26371""
","""event"",""trial"",""time""
""fullscreenenter"",""5"",""40689""
","
",504.674999974668,NA,48,NA,NA,3000,1,NA,NA,images/earth.jpg,images/rocket2,images/rocket1,null,images/rocket2,NA,1,real,null,2,NA,NA,NA,sub137
d3-animate-choice,184,908147,0.0-76.0-1.16,TRUE,FALSE,TRUE,FALSE,"""event"",""trial"",""time""
""blur"",""2"",""7036""
""focus"",""2"",""26371""
""fullscreenenter"",""5"",""40689""
","""event"",""trial"",""time""
""blur"",""2"",""7036""
","""event"",""trial"",""time""
""focus"",""2"",""26371""
","""event"",""trial"",""time""
""fullscreenenter"",""5"",""40689""
","
",1849.8949999921024,NA,48,NA,NA,3000,1,NA,NA,images/purpleplanet.jpg,images/alien4,images/alien3,images/rocket2,images/alien4,images/nothing.png,2,real,false,2,rare,0,2020-06-29T05:13:36Z,sub137
two-step-fixation,185,909163,0.0-76.0-2.16,TRUE,FALSE,TRUE,FALSE,"""event"",""trial"",""time""
""blur"",""2"",""7036""
""focus"",""2"",""26371""
""fullscreenenter"",""5"",""40689""
","""event"",""trial"",""time""
""blur"",""2"",""7036""
","""event"",""trial"",""time""
""focus"",""2"",""26371""
","""event"",""trial"",""time""
""fullscreenenter"",""5"",""40689""
","
",NA,images/earth.jpg,NA,NA,NA,NA,NA,NA,NA,NA,NA,NA,NA,NA,NA,fixation,NA,NA,NA,NA,NA,NA,sub137
d3-animate-choice,186,911979,0.0-76.0-0.17,TRUE,FALSE,TRUE,FALSE,"""event"",""trial"",""time""
""blur"",""2"",""7036""
""focus"",""2"",""26371""
""fullscreenenter"",""5"",""40689""
","""event"",""trial"",""time""
""blur"",""2"",""7036""
","""event"",""trial"",""time""
""focus"",""2"",""26371""
","""event"",""trial"",""time""
""fullscreenenter"",""5"",""40689""
","
",800.0849999953061,NA,48,NA,NA,3000,1,NA,NA,images/earth.jpg,images/rocket2,images/rocket1,null,images/rocket2,NA,1,real,null,2,NA,NA,NA,sub137
d3-animate-choice,187,915355,0.0-76.0-1.17,TRUE,FALSE,TRUE,FALSE,"""event"",""trial"",""time""
""blur"",""2"",""7036""
""focus"",""2"",""26371""
""fullscreenenter"",""5"",""40689""
","""event"",""trial"",""time""
""blur"",""2"",""7036""
","""event"",""trial"",""time""
""focus"",""2"",""26371""
","""event"",""trial"",""time""
""fullscreenenter"",""5"",""40689""
","
",1360.880000051111,NA,49,NA,NA,3000,1,NA,NA,images/purpleplanet.jpg,images/alien4,images/alien3,images/rocket2,images/alien3,images/nothing.png,2,real,false,1,rare,0,2020-06-29T05:13:44Z,sub137
two-step-fixation,188,916371,0.0-76.0-2.17,TRUE,FALSE,TRUE,FALSE,"""event"",""trial"",""time""
""blur"",""2"",""7036""
""focus"",""2"",""26371""
""fullscreenenter"",""5"",""40689""
","""event"",""trial"",""time""
""blur"",""2"",""7036""
","""event"",""trial"",""time""
""focus"",""2"",""26371""
","""event"",""trial"",""time""
""fullscreenenter"",""5"",""40689""
","
",NA,images/earth.jpg,NA,NA,NA,NA,NA,NA,NA,NA,NA,NA,NA,NA,NA,fixation,NA,NA,NA,NA,NA,NA,sub137
d3-animate-choice,189,918994,0.0-76.0-0.18,TRUE,FALSE,TRUE,FALSE,"""event"",""trial"",""time""
""blur"",""2"",""7036""
""focus"",""2"",""26371""
""fullscreenenter"",""5"",""40689""
","""event"",""trial"",""time""
""blur"",""2"",""7036""
","""event"",""trial"",""time""
""focus"",""2"",""26371""
","""event"",""trial"",""time""
""fullscreenenter"",""5"",""40689""
","
",609.9350000731647,NA,48,NA,NA,3000,1,NA,NA,images/earth.jpg,images/rocket2,images/rocket1,null,images/rocket2,NA,1,real,null,2,NA,NA,NA,sub137
d3-animate-choice,190,922609,0.0-76.0-1.18,TRUE,FALSE,TRUE,FALSE,"""event"",""trial"",""time""
""blur"",""2"",""7036""
""focus"",""2"",""26371""
""fullscreenenter"",""5"",""40689""
","""event"",""trial"",""time""
""blur"",""2"",""7036""
","""event"",""trial"",""time""
""focus"",""2"",""26371""
","""event"",""trial"",""time""
""fullscreenenter"",""5"",""40689""
","
",1599.8800001107156,NA,49,NA,NA,3000,1,NA,NA,images/redplanet1.jpg,images/alien2,images/alien1,images/rocket2,images/alien1,images/nothing.png,2,real,true,1,common,0,2020-06-29T05:13:51Z,sub137
two-step-fixation,191,923619,0.0-76.0-2.18,TRUE,FALSE,TRUE,FALSE,"""event"",""trial"",""time""
""blur"",""2"",""7036""
""focus"",""2"",""26371""
""fullscreenenter"",""5"",""40689""
","""event"",""trial"",""time""
""blur"",""2"",""7036""
","""event"",""trial"",""time""
""focus"",""2"",""26371""
","""event"",""trial"",""time""
""fullscreenenter"",""5"",""40689""
","
",NA,images/earth.jpg,NA,NA,NA,NA,NA,NA,NA,NA,NA,NA,NA,NA,NA,fixation,NA,NA,NA,NA,NA,NA,sub137
d3-animate-choice,192,926059,0.0-76.0-0.19,TRUE,FALSE,TRUE,FALSE,"""event"",""trial"",""time""
""blur"",""2"",""7036""
""focus"",""2"",""26371""
""fullscreenenter"",""5"",""40689""
","""event"",""trial"",""time""
""blur"",""2"",""7036""
","""event"",""trial"",""time""
""focus"",""2"",""26371""
","""event"",""trial"",""time""
""fullscreenenter"",""5"",""40689""
","
",427.8299999423325,NA,48,NA,NA,3000,1,NA,NA,images/earth.jpg,images/rocket2,images/rocket1,null,images/rocket2,NA,1,real,null,2,NA,NA,NA,sub137
d3-animate-choice,193,930083,0.0-76.0-1.19,TRUE,FALSE,TRUE,FALSE,"""event"",""trial"",""time""
""blur"",""2"",""7036""
""focus"",""2"",""26371""
""fullscreenenter"",""5"",""40689""
","""event"",""trial"",""time""
""blur"",""2"",""7036""
","""event"",""trial"",""time""
""focus"",""2"",""26371""
","""event"",""trial"",""time""
""fullscreenenter"",""5"",""40689""
","
",2068.079999880865,NA,48,NA,NA,3000,1,NA,NA,images/redplanet1.jpg,images/alien2,images/alien1,images/rocket2,images/alien2,images/t.png,2,real,true,2,common,1,2020-06-29T05:13:58Z,sub137
two-step-fixation,194,931094,0.0-76.0-2.19,TRUE,FALSE,TRUE,FALSE,"""event"",""trial"",""time""
""blur"",""2"",""7036""
""focus"",""2"",""26371""
""fullscreenenter"",""5"",""40689""
","""event"",""trial"",""time""
""blur"",""2"",""7036""
","""event"",""trial"",""time""
""focus"",""2"",""26371""
","""event"",""trial"",""time""
""fullscreenenter"",""5"",""40689""
","
",NA,images/earth.jpg,NA,NA,NA,NA,NA,NA,NA,NA,NA,NA,NA,NA,NA,fixation,NA,NA,NA,NA,NA,NA,sub137
d3-animate-choice,195,933860,0.0-76.0-0.20,TRUE,FALSE,TRUE,FALSE,"""event"",""trial"",""time""
""blur"",""2"",""7036""
""focus"",""2"",""26371""
""fullscreenenter"",""5"",""40689""
","""event"",""trial"",""time""
""blur"",""2"",""7036""
","""event"",""trial"",""time""
""focus"",""2"",""26371""
","""event"",""trial"",""time""
""fullscreenenter"",""5"",""40689""
","
",753.4300000406802,NA,49,NA,NA,3000,1,NA,NA,images/earth.jpg,images/rocket2,images/rocket1,null,images/rocket1,NA,1,real,null,1,NA,NA,NA,sub137
d3-animate-choice,196,937882,0.0-76.0-1.20,TRUE,FALSE,TRUE,FALSE,"""event"",""trial"",""time""
""blur"",""2"",""7036""
""focus"",""2"",""26371""
