trial_type,trial_index,time_elapsed,internal_node_id,rocket_sides,red_planet_first_rocket,red_display_order,purple_display_order,interactions,blur_events,focus_events,fullscreenenter_events,fullscreenexit_events,rt,stimulus,key_press,button_pressed,success,duration,valid_pressed,rts,keys,planet_text,right_text,left_text,center_text,chosen_text,reward_text,trial_stage,practice_trial,transition_type,reward,timestamp,choice,transition,subject_id
pavlovia,0,4,0.0-0.0,FALSE,FALSE,TRUE,FALSE,"
","
","
","
","
",NA,NA,NA,NA,NA,NA,NA,NA,NA,NA,NA,NA,NA,NA,NA,NA,NA,NA,NA,NA,NA,NA,sub58
html-keyboard-response,1,3180,0.0-1.0,FALSE,FALSE,TRUE,FALSE,"
","
","
","
","
",3174.554999997781,Welcome! Press the space bar to begin.,32,NA,NA,NA,NA,NA,NA,NA,NA,NA,NA,NA,NA,NA,NA,NA,NA,NA,NA,NA,sub58
audio-keyboard-response,2,8788,0.0-2.0,FALSE,FALSE,TRUE,FALSE,"
","
","
","
","
",4304,audio/beep_loop.wav,175,NA,NA,NA,NA,NA,NA,NA,NA,NA,NA,NA,NA,NA,NA,NA,NA,NA,NA,NA,sub58
audio-button-response,3,38113,0.0-3.0,FALSE,FALSE,TRUE,FALSE,"
","
","
","
","
",NaN,audio/fish.mp3,NA,1,NA,NA,NA,NA,NA,NA,NA,NA,NA,NA,NA,NA,NA,NA,NA,NA,NA,NA,sub58
audio-button-response,4,44495,0.0-4.0,FALSE,FALSE,TRUE,FALSE,"""event"",""trial"",""time""
""fullscreenenter"",""5"",""51639""
","
","
","""event"",""trial"",""time""
""fullscreenenter"",""5"",""51639""
","
",NaN,audio/tiger.mp3,NA,4,NA,NA,NA,NA,NA,NA,NA,NA,NA,NA,NA,NA,NA,NA,NA,NA,NA,NA,sub58
fullscreen,5,52625,0.0-5.0,FALSE,FALSE,TRUE,FALSE,"""event"",""trial"",""time""
""fullscreenenter"",""5"",""51639""
","
","
","""event"",""trial"",""time""
""fullscreenenter"",""5"",""51639""
","
",NA,NA,NA,NA,TRUE,NA,NA,NA,NA,NA,NA,NA,NA,NA,NA,NA,NA,NA,NA,NA,NA,NA,sub58
d3-instructions,6,67961,0.0-6.0,FALSE,FALSE,TRUE,FALSE,"""event"",""trial"",""time""
""fullscreenenter"",""5"",""51639""
","
","
","""event"",""trial"",""time""
""fullscreenenter"",""5"",""51639""
","
",NA,NA,NA,NA,NA,NA,NA,NA,NA,NA,NA,NA,NA,NA,NA,NA,NA,NA,NA,NA,NA,NA,sub58
d3-instructions,7,76514,0.0-7.0,FALSE,FALSE,TRUE,FALSE,"""event"",""trial"",""time""
""fullscreenenter"",""5"",""51639""
","
","
","""event"",""trial"",""time""
""fullscreenenter"",""5"",""51639""
","
",NA,NA,NA,NA,NA,NA,NA,NA,NA,NA,NA,NA,NA,NA,NA,NA,NA,NA,NA,NA,NA,NA,sub58
d3-instructions,8,84979,0.0-8.0,FALSE,FALSE,TRUE,FALSE,"""event"",""trial"",""time""
""fullscreenenter"",""5"",""51639""
","
","
","""event"",""trial"",""time""
""fullscreenenter"",""5"",""51639""
","
",NA,NA,NA,NA,NA,NA,NA,NA,NA,NA,NA,NA,NA,NA,NA,NA,NA,NA,NA,NA,NA,NA,sub58
d3-instructions,9,99946,0.0-9.0,FALSE,FALSE,TRUE,FALSE,"""event"",""trial"",""time""
""fullscreenenter"",""5"",""51639""
","
","
","""event"",""trial"",""time""
""fullscreenenter"",""5"",""51639""
","
",NA,NA,NA,NA,NA,NA,NA,NA,NA,NA,NA,NA,NA,NA,NA,NA,NA,NA,NA,NA,NA,NA,sub58
d3-instructions,10,120964,0.0-10.0,FALSE,FALSE,TRUE,FALSE,"""event"",""trial"",""time""
""fullscreenenter"",""5"",""51639""
","
","
","""event"",""trial"",""time""
""fullscreenenter"",""5"",""51639""
","
",NA,NA,NA,NA,NA,NA,NA,NA,NA,NA,NA,NA,NA,NA,NA,NA,NA,NA,NA,NA,NA,NA,sub58
d3-animate-choice,11,125012,0.0-11.0,FALSE,FALSE,TRUE,FALSE,"""event"",""trial"",""time""
""fullscreenenter"",""5"",""51639""
","
","
","""event"",""trial"",""time""
""fullscreenenter"",""5"",""51639""
","
",2040.6950000033248,NA,48,NA,NA,3000,1,3862.444999998843,49,images/tutgreenplanet.jpg,images/tutalien1,images/tutalien2,null,images/tutalien1,NA,NA,practice,null,NA,NA,NA,NA,sub58
d3-animate-choice,12,129108,0.0-12.0,FALSE,FALSE,TRUE,FALSE,"""event"",""trial"",""time""
""fullscreenenter"",""5"",""51639""
","
","
","""event"",""trial"",""time""
""fullscreenenter"",""5"",""51639""
","
",2090.1799999992363,NA,49,NA,NA,3000,1,NA,NA,images/tutgreenplanet.jpg,images/tutalien1,images/tutalien2,null,images/tutalien2,NA,NA,practice,null,NA,NA,NA,NA,sub58
d3-animate-choice,13,134193,0.0-13.0,FALSE,FALSE,TRUE,FALSE,"""event"",""trial"",""time""
""fullscreenenter"",""5"",""51639""
","
","
","""event"",""trial"",""time""
""fullscreenenter"",""5"",""51639""
","
",3083.024999999907,NA,48,NA,NA,3000,1,NA,NA,images/tutgreenplanet.jpg,images/tutalien1,images/tutalien2,null,images/tutalien1,NA,NA,practice,null,NA,NA,NA,NA,sub58
d3-animate-choice,14,137039,0.0-14.0,FALSE,FALSE,TRUE,FALSE,"""event"",""trial"",""time""
""fullscreenenter"",""5"",""51639""
","
","
","""event"",""trial"",""time""
""fullscreenenter"",""5"",""51639""
","
",842.930000006163,NA,49,NA,NA,3000,1,NA,NA,images/tutgreenplanet.jpg,images/tutalien1,images/tutalien2,null,images/tutalien2,NA,NA,practice,null,NA,NA,NA,NA,sub58
d3-instructions,15,145031,0.0-15.0,FALSE,FALSE,TRUE,FALSE,"""event"",""trial"",""time""
""fullscreenenter"",""5"",""51639""
","
","
","""event"",""trial"",""time""
""fullscreenenter"",""5"",""51639""
","
",NA,NA,NA,NA,NA,NA,NA,NA,NA,NA,NA,NA,NA,NA,NA,NA,NA,NA,NA,NA,NA,NA,sub58
d3-instructions,16,153099,0.0-16.0,FALSE,FALSE,TRUE,FALSE,"""event"",""trial"",""time""
""fullscreenenter"",""5"",""51639""
","
","
","""event"",""trial"",""time""
""fullscreenenter"",""5"",""51639""
","
",NA,NA,NA,NA,NA,NA,NA,NA,NA,NA,NA,NA,NA,NA,NA,NA,NA,NA,NA,NA,NA,NA,sub58
d3-instructions,17,162391,0.0-17.0,FALSE,FALSE,TRUE,FALSE,"""event"",""trial"",""time""
""fullscreenenter"",""5"",""51639""
","
","
","""event"",""trial"",""time""
""fullscreenenter"",""5"",""51639""
","
",NA,NA,NA,NA,NA,NA,NA,NA,NA,NA,NA,NA,NA,NA,NA,NA,NA,NA,NA,NA,NA,NA,sub58
d3-instructions,18,175806,0.0-18.0,FALSE,FALSE,TRUE,FALSE,"""event"",""trial"",""time""
""fullscreenenter"",""5"",""51639""
","
","
","""event"",""trial"",""time""
""fullscreenenter"",""5"",""51639""
","
",NA,NA,NA,NA,NA,NA,NA,NA,NA,NA,NA,NA,NA,NA,NA,NA,NA,NA,NA,NA,NA,NA,sub58
d3-instructions,19,190307,0.0-19.0,FALSE,FALSE,TRUE,FALSE,"""event"",""trial"",""time""
""fullscreenenter"",""5"",""51639""
","
","
","""event"",""trial"",""time""
""fullscreenenter"",""5"",""51639""
","
",NA,NA,NA,NA,NA,NA,NA,NA,NA,NA,NA,NA,NA,NA,NA,NA,NA,NA,NA,NA,NA,NA,sub58
d3-animate-choice,20,193942,0.0-20.0,FALSE,FALSE,TRUE,FALSE,"""event"",""trial"",""time""
""fullscreenenter"",""5"",""51639""
","
","
","""event"",""trial"",""time""
""fullscreenenter"",""5"",""51639""
","
",1631.2900000048103,NA,49,NA,NA,3000,1,NA,NA,images/tutyellowplanet.jpg,null,images/tutalien3,null,images/tutalien3,images/t.png,NA,practice,null,NA,NA,NA,NA,sub58
d3-animate-choice,21,196442,0.0-21.0,FALSE,FALSE,TRUE,FALSE,"""event"",""trial"",""time""
""fullscreenenter"",""5"",""51639""
","
","
","""event"",""trial"",""time""
""fullscreenenter"",""5"",""51639""
","
",497.42500000138534,NA,49,NA,NA,3000,1,NA,NA,images/tutyellowplanet.jpg,null,images/tutalien3,null,images/tutalien3,images/t.png,NA,practice,null,NA,NA,NA,NA,sub58
d3-animate-choice,22,199695,0.0-22.0,FALSE,FALSE,TRUE,FALSE,"""event"",""trial"",""time""
""fullscreenenter"",""5"",""51639""
","
","
","""event"",""trial"",""time""
""fullscreenenter"",""5"",""51639""
","
",1251.5999999959604,NA,49,NA,NA,3000,1,NA,NA,images/tutyellowplanet.jpg,null,images/tutalien3,null,images/tutalien3,images/t.png,NA,practice,null,NA,NA,NA,NA,sub58
d3-animate-choice,23,202212,0.0-23.0,FALSE,FALSE,TRUE,FALSE,"""event"",""trial"",""time""
""fullscreenenter"",""5"",""51639""
","
","
","""event"",""trial"",""time""
""fullscreenenter"",""5"",""51639""
","
",514.5549999942887,NA,49,NA,NA,3000,1,NA,NA,images/tutyellowplanet.jpg,null,images/tutalien3,null,images/tutalien3,images/t.png,NA,practice,null,NA,NA,NA,NA,sub58
d3-animate-choice,24,205431,0.0-24.0,FALSE,FALSE,TRUE,FALSE,"""event"",""trial"",""time""
""fullscreenenter"",""5"",""51639""
","
","
","""event"",""trial"",""time""
""fullscreenenter"",""5"",""51639""
","
",1217.6800000015646,NA,49,NA,NA,3000,1,NA,NA,images/tutyellowplanet.jpg,null,images/tutalien3,null,images/tutalien3,images/t.png,NA,practice,null,NA,NA,NA,NA,sub58
d3-animate-choice,25,208006,0.0-25.0,FALSE,FALSE,TRUE,FALSE,"""event"",""trial"",""time""
""fullscreenenter"",""5"",""51639""
","
","
","""event"",""trial"",""time""
""fullscreenenter"",""5"",""51639""
","
",571.0199999957695,NA,49,NA,NA,3000,1,NA,NA,images/tutyellowplanet.jpg,null,images/tutalien3,null,images/tutalien3,images/t.png,NA,practice,null,NA,NA,NA,NA,sub58
d3-animate-choice,26,210518,0.0-26.0,FALSE,FALSE,TRUE,FALSE,"""event"",""trial"",""time""
""fullscreenenter"",""5"",""51639""
","
","
","""event"",""trial"",""time""
""fullscreenenter"",""5"",""51639""
","
",509.185000002617,NA,49,NA,NA,3000,1,NA,NA,images/tutyellowplanet.jpg,null,images/tutalien3,null,images/tutalien3,images/t.png,NA,practice,null,NA,NA,NA,NA,sub58
d3-animate-choice,27,212957,0.0-27.0,FALSE,FALSE,TRUE,FALSE,"""event"",""trial"",""time""
""fullscreenenter"",""5"",""51639""
","
","
","""event"",""trial"",""time""
""fullscreenenter"",""5"",""51639""
","
",434.78500000492204,NA,49,NA,NA,3000,1,NA,NA,images/tutyellowplanet.jpg,null,images/tutalien3,null,images/tutalien3,images/t.png,NA,practice,null,NA,NA,NA,NA,sub58
d3-animate-choice,28,215518,0.0-28.0,FALSE,FALSE,TRUE,FALSE,"""event"",""trial"",""time""
""fullscreenenter"",""5"",""51639""
","
","
","""event"",""trial"",""time""
""fullscreenenter"",""5"",""51639""
","
",555.8850000015809,NA,49,NA,NA,3000,1,NA,NA,images/tutyellowplanet.jpg,null,images/tutalien3,null,images/tutalien3,images/t.png,NA,practice,null,NA,NA,NA,NA,sub58
d3-animate-choice,29,218048,0.0-29.0,FALSE,FALSE,TRUE,FALSE,"""event"",""trial"",""time""
""fullscreenenter"",""5"",""51639""
","
","
","""event"",""trial"",""time""
""fullscreenenter"",""5"",""51639""
","
",528.1049999975949,NA,49,NA,NA,3000,1,NA,NA,images/tutyellowplanet.jpg,null,images/tutalien3,null,images/tutalien3,images/t.png,NA,practice,null,NA,NA,NA,NA,sub58
d3-instructions,30,225155,0.0-30.0,FALSE,FALSE,TRUE,FALSE,"""event"",""trial"",""time""
""fullscreenenter"",""5"",""51639""
","
","
","""event"",""trial"",""time""
""fullscreenenter"",""5"",""51639""
","
",NA,NA,NA,NA,NA,NA,NA,NA,NA,NA,NA,NA,NA,NA,NA,NA,NA,NA,NA,NA,NA,NA,sub58
d3-instructions,31,235643,0.0-31.0,FALSE,FALSE,TRUE,FALSE,"""event"",""trial"",""time""
""fullscreenenter"",""5"",""51639""
","
","
","""event"",""trial"",""time""
""fullscreenenter"",""5"",""51639""
","
",NA,NA,NA,NA,NA,NA,NA,NA,NA,NA,NA,NA,NA,NA,NA,NA,NA,NA,NA,NA,NA,NA,sub58
d3-instructions,32,246418,0.0-32.0,FALSE,FALSE,TRUE,FALSE,"""event"",""trial"",""time""
""fullscreenenter"",""5"",""51639""
","
","
","""event"",""trial"",""time""
""fullscreenenter"",""5"",""51639""
","
",NA,NA,NA,NA,NA,NA,NA,NA,NA,NA,NA,NA,NA,NA,NA,NA,NA,NA,NA,NA,NA,NA,sub58
d3-instructions,33,257474,0.0-33.0,FALSE,FALSE,TRUE,FALSE,"""event"",""trial"",""time""
""fullscreenenter"",""5"",""51639""
","
","
","""event"",""trial"",""time""
""fullscreenenter"",""5"",""51639""
","
",NA,NA,NA,NA,NA,NA,NA,NA,NA,NA,NA,NA,NA,NA,NA,NA,NA,NA,NA,NA,NA,NA,sub58
d3-animate-choice,34,261226,0.0-34.0,FALSE,FALSE,TRUE,FALSE,"""event"",""trial"",""time""
""fullscreenenter"",""5"",""51639""
","
","
","""event"",""trial"",""time""
""fullscreenenter"",""5"",""51639""
","
",1748.9100000020699,NA,49,NA,NA,3000,1,NA,NA,images/tutgreenplanet.jpg,images/tutalien1,images/tutalien2,null,images/tutalien2,images/t.png,NA,practice,null,NA,NA,NA,NA,sub58
d3-animate-choice,35,264820,0.0-35.0,FALSE,FALSE,TRUE,FALSE,"""event"",""trial"",""time""
""fullscreenenter"",""5"",""51639""
","
","
","""event"",""trial"",""time""
""fullscreenenter"",""5"",""51639""
","
",1592.6949999993667,NA,48,NA,NA,3000,1,NA,NA,images/tutgreenplanet.jpg,images/tutalien1,images/tutalien2,null,images/tutalien1,images/nothing.png,NA,practice,null,NA,NA,NA,NA,sub58
d3-animate-choice,36,267216,0.0-36.0,FALSE,FALSE,TRUE,FALSE,"""event"",""trial"",""time""
""fullscreenenter"",""5"",""51639""
","
","
","""event"",""trial"",""time""
""fullscreenenter"",""5"",""51639""
","
",392.5549999985378,NA,49,NA,NA,3000,1,NA,NA,images/tutgreenplanet.jpg,images/tutalien1,images/tutalien2,null,images/tutalien2,images/t.png,NA,practice,null,NA,NA,NA,NA,sub58
d3-animate-choice,37,269603,0.0-37.0,FALSE,FALSE,TRUE,FALSE,"""event"",""trial"",""time""
""fullscreenenter"",""5"",""51639""
","
","
","""event"",""trial"",""time""
""fullscreenenter"",""5"",""51639""
","
",383.5200000030454,NA,49,NA,NA,3000,1,NA,NA,images/tutgreenplanet.jpg,images/tutalien1,images/tutalien2,null,images/tutalien2,images/t.png,NA,practice,null,NA,NA,NA,NA,sub58
d3-animate-choice,38,273021,0.0-38.0,FALSE,FALSE,TRUE,FALSE,"""event"",""trial"",""time""
""fullscreenenter"",""5"",""51639""
","
","
","""event"",""trial"",""time""
""fullscreenenter"",""5"",""51639""
","
",1415.5299999983981,NA,48,NA,NA,3000,1,NA,NA,images/tutgreenplanet.jpg,images/tutalien1,images/tutalien2,null,images/tutalien1,images/t.png,NA,practice,null,NA,NA,NA,NA,sub58
d3-animate-choice,39,275977,0.0-39.0,FALSE,FALSE,TRUE,FALSE,"""event"",""trial"",""time""
""fullscreenenter"",""5"",""51639""
","
","
","""event"",""trial"",""time""
""fullscreenenter"",""5"",""51639""
","
",953.895000006014,NA,48,NA,NA,3000,1,NA,NA,images/tutgreenplanet.jpg,images/tutalien1,images/tutalien2,null,images/tutalien1,images/nothing.png,NA,practice,null,NA,NA,NA,NA,sub58
d3-animate-choice,40,278351,0.0-40.0,FALSE,FALSE,TRUE,FALSE,"""event"",""trial"",""time""
""fullscreenenter"",""5"",""51639""
","
","
","""event"",""trial"",""time""
""fullscreenenter"",""5"",""51639""
","
",371.50000000110595,NA,49,NA,NA,3000,1,NA,NA,images/tutgreenplanet.jpg,images/tutalien1,images/tutalien2,null,images/tutalien2,images/t.png,NA,practice,null,NA,NA,NA,NA,sub58
d3-animate-choice,41,280945,0.0-41.0,FALSE,FALSE,TRUE,FALSE,"""event"",""trial"",""time""
""fullscreenenter"",""5"",""51639""
","
","
","""event"",""trial"",""time""
""fullscreenenter"",""5"",""51639""
","
",591.9149999972433,NA,49,NA,NA,3000,1,NA,NA,images/tutgreenplanet.jpg,images/tutalien1,images/tutalien2,null,images/tutalien2,images/nothing.png,NA,practice,null,NA,NA,NA,NA,sub58
d3-animate-choice,42,284445,0.0-42.0,FALSE,FALSE,TRUE,FALSE,"""event"",""trial"",""time""
""fullscreenenter"",""5"",""51639""
","
","
","""event"",""trial"",""time""
""fullscreenenter"",""5"",""51639""
","
",1497.8200000041397,NA,48,NA,NA,3000,1,NA,NA,images/tutgreenplanet.jpg,images/tutalien1,images/tutalien2,null,images/tutalien1,images/nothing.png,NA,practice,null,NA,NA,NA,NA,sub58
d3-animate-choice,43,286703,0.0-43.0,FALSE,FALSE,TRUE,FALSE,"""event"",""trial"",""time""
""fullscreenenter"",""5"",""51639""
","
","
","""event"",""trial"",""time""
""fullscreenenter"",""5"",""51639""
","
",255.61500000185333,NA,49,NA,NA,3000,1,NA,NA,images/tutgreenplanet.jpg,images/tutalien1,images/tutalien2,null,images/tutalien2,images/t.png,NA,practice,null,NA,NA,NA,NA,sub58
d3-instructions,44,300592,0.0-44.0,FALSE,FALSE,TRUE,FALSE,"""event"",""trial"",""time""
""fullscreenenter"",""5"",""51639""
","
","
","""event"",""trial"",""time""
""fullscreenenter"",""5"",""51639""
","
",NA,NA,NA,NA,NA,NA,NA,NA,NA,NA,NA,NA,NA,NA,NA,NA,NA,NA,NA,NA,NA,NA,sub58
d3-instructions,45,307257,0.0-45.0,FALSE,FALSE,TRUE,FALSE,"""event"",""trial"",""time""
""fullscreenenter"",""5"",""51639""
","
","
","""event"",""trial"",""time""
""fullscreenenter"",""5"",""51639""
","
",NA,NA,NA,NA,NA,NA,NA,NA,NA,NA,NA,NA,NA,NA,NA,NA,NA,NA,NA,NA,NA,NA,sub58
d3-instructions,46,312569,0.0-46.0,FALSE,FALSE,TRUE,FALSE,"""event"",""trial"",""time""
""fullscreenenter"",""5"",""51639""
","
","
","""event"",""trial"",""time""
""fullscreenenter"",""5"",""51639""
","
",NA,NA,NA,NA,NA,NA,NA,NA,NA,NA,NA,NA,NA,NA,NA,NA,NA,NA,NA,NA,NA,NA,sub58
d3-instructions,47,329881,0.0-47.0,FALSE,FALSE,TRUE,FALSE,"""event"",""trial"",""time""
""fullscreenenter"",""5"",""51639""
","
","
","""event"",""trial"",""time""
""fullscreenenter"",""5"",""51639""
","
",NA,NA,NA,NA,NA,NA,NA,NA,NA,NA,NA,NA,NA,NA,NA,NA,NA,NA,NA,NA,NA,NA,sub58
d3-instructions,48,337311,0.0-48.0,FALSE,FALSE,TRUE,FALSE,"""event"",""trial"",""time""
""fullscreenenter"",""5"",""51639""
","
","
","""event"",""trial"",""time""
""fullscreenenter"",""5"",""51639""
","
",NA,NA,NA,NA,NA,NA,NA,NA,NA,NA,NA,NA,NA,NA,NA,NA,NA,NA,NA,NA,NA,NA,sub58
d3-instructions,49,348357,0.0-49.0,FALSE,FALSE,TRUE,FALSE,"""event"",""trial"",""time""
""fullscreenenter"",""5"",""51639""
","
","
","""event"",""trial"",""time""
""fullscreenenter"",""5"",""51639""
","
",NA,NA,NA,NA,NA,NA,NA,NA,NA,NA,NA,NA,NA,NA,NA,NA,NA,NA,NA,NA,NA,NA,sub58
d3-instructions,50,357693,0.0-50.0,FALSE,FALSE,TRUE,FALSE,"""event"",""trial"",""time""
""fullscreenenter"",""5"",""51639""
","
","
","""event"",""trial"",""time""
""fullscreenenter"",""5"",""51639""
","
",NA,NA,NA,NA,NA,NA,NA,NA,NA,NA,NA,NA,NA,NA,NA,NA,NA,NA,NA,NA,NA,NA,sub58
d3-instructions,51,360769,0.0-51.0,FALSE,FALSE,TRUE,FALSE,"""event"",""trial"",""time""
""fullscreenenter"",""5"",""51639""
","
","
","""event"",""trial"",""time""
""fullscreenenter"",""5"",""51639""
","
",NA,NA,NA,NA,NA,NA,NA,NA,NA,NA,NA,NA,NA,NA,NA,NA,NA,NA,NA,NA,NA,NA,sub58
d3-instructions,52,363507,0.0-52.0,FALSE,FALSE,TRUE,FALSE,"""event"",""trial"",""time""
""fullscreenenter"",""5"",""51639""
","
","
","""event"",""trial"",""time""
""fullscreenenter"",""5"",""51639""
","
",NA,NA,NA,NA,NA,NA,NA,NA,NA,NA,NA,NA,NA,NA,NA,NA,NA,NA,NA,NA,NA,NA,sub58
d3-instructions,53,376963,0.0-53.0,FALSE,FALSE,TRUE,FALSE,"""event"",""trial"",""time""
""fullscreenenter"",""5"",""51639""
","
","
","""event"",""trial"",""time""
""fullscreenenter"",""5"",""51639""
","
",NA,NA,NA,NA,NA,NA,NA,NA,NA,NA,NA,NA,NA,NA,NA,NA,NA,NA,NA,NA,NA,NA,sub58
d3-instructions,54,389603,0.0-54.0,FALSE,FALSE,TRUE,FALSE,"""event"",""trial"",""time""
""fullscreenenter"",""5"",""51639""
","
","
","""event"",""trial"",""time""
""fullscreenenter"",""5"",""51639""
","
",NA,NA,NA,NA,NA,NA,NA,NA,NA,NA,NA,NA,NA,NA,NA,NA,NA,NA,NA,NA,NA,NA,sub58
d3-instructions,55,400020,0.0-55.0,FALSE,FALSE,TRUE,FALSE,"""event"",""trial"",""time""
""fullscreenenter"",""5"",""51639""
","
","
","""event"",""trial"",""time""
""fullscreenenter"",""5"",""51639""
","
",NA,NA,NA,NA,NA,NA,NA,NA,NA,NA,NA,NA,NA,NA,NA,NA,NA,NA,NA,NA,NA,NA,sub58
d3-instructions,56,408841,0.0-56.0,FALSE,FALSE,TRUE,FALSE,"""event"",""trial"",""time""
""fullscreenenter"",""5"",""51639""
","
","
","""event"",""trial"",""time""
""fullscreenenter"",""5"",""51639""
","
",NA,NA,NA,NA,NA,NA,NA,NA,NA,NA,NA,NA,NA,NA,NA,NA,NA,NA,NA,NA,NA,NA,sub58
d3-instructions,57,419954,0.0-57.0,FALSE,FALSE,TRUE,FALSE,"""event"",""trial"",""time""
""fullscreenenter"",""5"",""51639""
","
","
","""event"",""trial"",""time""
""fullscreenenter"",""5"",""51639""
","
",NA,NA,NA,NA,NA,NA,NA,NA,NA,NA,NA,NA,NA,NA,NA,NA,NA,NA,NA,NA,NA,NA,sub58
d3-instructions,58,431663,0.0-58.0,FALSE,FALSE,TRUE,FALSE,"""event"",""trial"",""time""
""fullscreenenter"",""5"",""51639""
","
","
","""event"",""trial"",""time""
""fullscreenenter"",""5"",""51639""
","
",NA,NA,NA,NA,NA,NA,NA,NA,NA,NA,NA,NA,NA,NA,NA,NA,NA,NA,NA,NA,NA,NA,sub58
d3-instructions,59,437000,0.0-59.0,FALSE,FALSE,TRUE,FALSE,"""event"",""trial"",""time""
""fullscreenenter"",""5"",""51639""
","
","
","""event"",""trial"",""time""
""fullscreenenter"",""5"",""51639""
","
",NA,NA,NA,NA,NA,NA,NA,NA,NA,NA,NA,NA,NA,NA,NA,NA,NA,NA,NA,NA,NA,NA,sub58
d3-instructions,60,445175,0.0-60.0,FALSE,FALSE,TRUE,FALSE,"""event"",""trial"",""time""
""fullscreenenter"",""5"",""51639""
","
","
","""event"",""trial"",""time""
""fullscreenenter"",""5"",""51639""
","
",NA,NA,NA,NA,NA,NA,NA,NA,NA,NA,NA,NA,NA,NA,NA,NA,NA,NA,NA,NA,NA,NA,sub58
d3-animate-choice,61,449186,0.0-61.0-0.0,FALSE,FALSE,TRUE,FALSE,"""event"",""trial"",""time""
""fullscreenenter"",""5"",""51639""
","
","
","""event"",""trial"",""time""
""fullscreenenter"",""5"",""51639""
","
",null,NA,null,NA,NA,3000,0,NA,NA,images/earth.jpg,images/tutrocket2,images/tutrocket1,null,NA,NA,1,practice,null,NA,NA,NA,NA,sub58
d3-animate-choice,62,450198,0.0-61.0-1.0,FALSE,FALSE,TRUE,FALSE,"""event"",""trial"",""time""
""fullscreenenter"",""5"",""51639""
","
","
","""event"",""trial"",""time""
""fullscreenenter"",""5"",""51639""
","
",null,NA,null,NA,NA,0,0,NA,NA,images/earth.jpg,images/tutrocket2,images/tutrocket1,null,NA,NA,2,practice,null,0,2020-06-11T14:30:36Z,NA,NA,sub58
two-step-fixation,63,451218,0.0-61.0-2.0,FALSE,FALSE,TRUE,FALSE,"""event"",""trial"",""time""
""fullscreenenter"",""5"",""51639""
","
","
","""event"",""trial"",""time""
""fullscreenenter"",""5"",""51639""
","
",NA,images/earth.jpg,NA,NA,NA,NA,NA,NA,NA,NA,NA,NA,NA,NA,NA,fixation,NA,NA,NA,NA,NA,NA,sub58
d3-animate-choice,64,455224,0.0-61.0-0.1,FALSE,FALSE,TRUE,FALSE,"""event"",""trial"",""time""
""fullscreenenter"",""5"",""51639""
","
","
","""event"",""trial"",""time""
""fullscreenenter"",""5"",""51639""
","
",null,NA,null,NA,NA,3000,0,NA,NA,images/earth.jpg,images/tutrocket2,images/tutrocket1,null,NA,NA,1,practice,null,NA,NA,NA,NA,sub58
d3-animate-choice,65,456233,0.0-61.0-1.1,FALSE,FALSE,TRUE,FALSE,"""event"",""trial"",""time""
""fullscreenenter"",""5"",""51639""
","
","
","""event"",""trial"",""time""
""fullscreenenter"",""5"",""51639""
","
",null,NA,null,NA,NA,0,0,NA,NA,images/earth.jpg,images/tutrocket2,images/tutrocket1,null,NA,NA,2,practice,null,0,2020-06-11T14:30:42Z,NA,NA,sub58
two-step-fixation,66,457241,0.0-61.0-2.1,FALSE,FALSE,TRUE,FALSE,"""event"",""trial"",""time""
""fullscreenenter"",""5"",""51639""
","
","
","""event"",""trial"",""time""
""fullscreenenter"",""5"",""51639""
","
",NA,images/earth.jpg,NA,NA,NA,NA,NA,NA,NA,NA,NA,NA,NA,NA,NA,fixation,NA,NA,NA,NA,NA,NA,sub58
d3-animate-choice,67,459727,0.0-61.0-0.2,FALSE,FALSE,TRUE,FALSE,"""event"",""trial"",""time""
""fullscreenenter"",""5"",""51639""
","
","
","""event"",""trial"",""time""
""fullscreenenter"",""5"",""51639""
","
",478.10000000026776,NA,48,NA,NA,3000,1,NA,NA,images/earth.jpg,images/tutrocket2,images/tutrocket1,null,images/tutrocket2,NA,1,practice,null,NA,NA,2,NA,sub58
d3-animate-choice,68,463734,0.0-61.0-1.2,FALSE,FALSE,TRUE,FALSE,"""event"",""trial"",""time""
""fullscreenenter"",""5"",""51639""
","
","
","""event"",""trial"",""time""
""fullscreenenter"",""5"",""51639""
","
",2598.565000000235,NA,49,NA,NA,3000,1,NA,NA,images/tutgreenplanet.jpg,images/tutalien2,images/tutalien1,images/tutrocket2,images/tutalien1,images/nothing.png,2,practice,true,0,2020-06-11T14:30:50Z,1,common,sub58
two-step-fixation,69,464739,0.0-61.0-2.2,FALSE,FALSE,TRUE,FALSE,"""event"",""trial"",""time""
""fullscreenenter"",""5"",""51639""
","
","
","""event"",""trial"",""time""
""fullscreenenter"",""5"",""51639""
","
",NA,images/earth.jpg,NA,NA,NA,NA,NA,NA,NA,NA,NA,NA,NA,NA,NA,fixation,NA,NA,NA,NA,NA,NA,sub58
d3-animate-choice,70,468747,0.0-61.0-0.3,FALSE,FALSE,TRUE,FALSE,"""event"",""trial"",""time""
""fullscreenenter"",""5"",""51639""
","
","
","""event"",""trial"",""time""
""fullscreenenter"",""5"",""51639""
","
",2241.780000003928,NA,49,NA,NA,3000,1,NA,NA,images/earth.jpg,images/tutrocket2,images/tutrocket1,null,images/tutrocket1,NA,1,practice,null,NA,NA,1,NA,sub58
d3-animate-choice,71,472644,0.0-61.0-1.3,FALSE,FALSE,TRUE,FALSE,"""event"",""trial"",""time""
""fullscreenenter"",""5"",""51639""
","
","
","""event"",""trial"",""time""
""fullscreenenter"",""5"",""51639""
","
",1889.210000001185,NA,49,NA,NA,3000,1,NA,NA,images/tutgreenplanet.jpg,images/tutalien2,images/tutalien1,images/tutrocket1,images/tutalien1,images/t.png,2,practice,false,1,2020-06-11T14:30:59Z,1,rare,sub58
two-step-fixation,72,473650,0.0-61.0-2.3,FALSE,FALSE,TRUE,FALSE,"""event"",""trial"",""time""
""fullscreenenter"",""5"",""51639""
","
","
","""event"",""trial"",""time""
""fullscreenenter"",""5"",""51639""
","
",NA,images/earth.jpg,NA,NA,NA,NA,NA,NA,NA,NA,NA,NA,NA,NA,NA,fixation,NA,NA,NA,NA,NA,NA,sub58
d3-animate-choice,73,476545,0.0-61.0-0.4,FALSE,FALSE,TRUE,FALSE,"""event"",""trial"",""time""
""fullscreenenter"",""5"",""51639""
","
","
","""event"",""trial"",""time""
""fullscreenenter"",""5"",""51639""
","
",887.1599999984028,NA,48,NA,NA,3000,1,NA,NA,images/earth.jpg,images/tutrocket2,images/tutrocket1,null,images/tutrocket2,NA,1,practice,null,NA,NA,2,NA,sub58
d3-animate-choice,74,479867,0.0-61.0-1.4,FALSE,FALSE,TRUE,FALSE,"""event"",""trial"",""time""
""fullscreenenter"",""5"",""51639""
","
","
","""event"",""trial"",""time""
""fullscreenenter"",""5"",""51639""
","
",1317.7450000002864,NA,49,NA,NA,3000,1,NA,NA,images/tutgreenplanet.jpg,images/tutalien2,images/tutalien1,images/tutrocket2,images/tutalien1,images/nothing.png,2,practice,true,0,2020-06-11T14:31:06Z,1,common,sub58
two-step-fixation,75,480873,0.0-61.0-2.4,FALSE,FALSE,TRUE,FALSE,"""event"",""trial"",""time""
""fullscreenenter"",""5"",""51639""
","
","
","""event"",""trial"",""time""
""fullscreenenter"",""5"",""51639""
","
",NA,images/earth.jpg,NA,NA,NA,NA,NA,NA,NA,NA,NA,NA,NA,NA,NA,fixation,NA,NA,NA,NA,NA,NA,sub58
d3-animate-choice,76,484169,0.0-61.0-0.5,FALSE,FALSE,TRUE,FALSE,"""event"",""trial"",""time""
""fullscreenenter"",""5"",""51639""
","
","
","""event"",""trial"",""time""
""fullscreenenter"",""5"",""51639""
","
",1288.4699999995064,NA,49,NA,NA,3000,1,NA,NA,images/earth.jpg,images/tutrocket2,images/tutrocket1,null,images/tutrocket1,NA,1,practice,null,NA,NA,1,NA,sub58
d3-animate-choice,77,488060,0.0-61.0-1.5,FALSE,FALSE,TRUE,FALSE,"""event"",""trial"",""time""
""fullscreenenter"",""5"",""51639""
","
","
","""event"",""trial"",""time""
""fullscreenenter"",""5"",""51639""
","
",1887.2650000048452,NA,48,NA,NA,3000,1,NA,NA,images/tutgreenplanet.jpg,images/tutalien2,images/tutalien1,images/tutrocket1,images/tutalien2,images/t.png,2,practice,false,1,2020-06-11T14:31:14Z,2,rare,sub58
two-step-fixation,78,489065,0.0-61.0-2.5,FALSE,FALSE,TRUE,FALSE,"""event"",""trial"",""time""
""fullscreenenter"",""5"",""51639""
","
","
","""event"",""trial"",""time""
""fullscreenenter"",""5"",""51639""
","
",NA,images/earth.jpg,NA,NA,NA,NA,NA,NA,NA,NA,NA,NA,NA,NA,NA,fixation,NA,NA,NA,NA,NA,NA,sub58
d3-animate-choice,79,492820,0.0-61.0-0.6,FALSE,FALSE,TRUE,FALSE,"""event"",""trial"",""time""
""fullscreenenter"",""5"",""51639""
","
","
","""event"",""trial"",""time""
""fullscreenenter"",""5"",""51639""
","
",1748.5200000010082,NA,49,NA,NA,3000,1,NA,NA,images/earth.jpg,images/tutrocket2,images/tutrocket1,null,images/tutrocket1,NA,1,practice,null,NA,NA,1,NA,sub58
d3-animate-choice,80,496240,0.0-61.0-1.6,FALSE,FALSE,TRUE,FALSE,"""event"",""trial"",""time""
""fullscreenenter"",""5"",""51639""
","
","
","""event"",""trial"",""time""
""fullscreenenter"",""5"",""51639""
","
",1417.0500000036554,NA,48,NA,NA,3000,1,NA,NA,images/tutgreenplanet.jpg,images/tutalien2,images/tutalien1,images/tutrocket1,images/tutalien2,images/nothing.png,2,practice,false,0,2020-06-11T14:31:22Z,2,rare,sub58
two-step-fixation,81,497246,0.0-61.0-2.6,FALSE,FALSE,TRUE,FALSE,"""event"",""trial"",""time""
""fullscreenenter"",""5"",""51639""
","
","
","""event"",""trial"",""time""
""fullscreenenter"",""5"",""51639""
","
",NA,images/earth.jpg,NA,NA,NA,NA,NA,NA,NA,NA,NA,NA,NA,NA,NA,fixation,NA,NA,NA,NA,NA,NA,sub58
d3-animate-choice,82,501251,0.0-61.0-0.7,FALSE,FALSE,TRUE,FALSE,"""event"",""trial"",""time""
""fullscreenenter"",""5"",""51639""
","
","
","""event"",""trial"",""time""
""fullscreenenter"",""5"",""51639""
","
",2795.2749999967637,NA,48,NA,NA,3000,1,NA,NA,images/earth.jpg,images/tutrocket2,images/tutrocket1,null,images/tutrocket2,NA,1,practice,null,NA,NA,2,NA,sub58
d3-animate-choice,83,505255,0.0-61.0-1.7,FALSE,FALSE,TRUE,FALSE,"""event"",""trial"",""time""
""fullscreenenter"",""5"",""51639""
","
","
","""event"",""trial"",""time""
""fullscreenenter"",""5"",""51639""
","
",2290.0449999942794,NA,48,NA,NA,3000,1,NA,NA,images/tutgreenplanet.jpg,images/tutalien2,images/tutalien1,images/tutrocket2,images/tutalien2,images/nothing.png,2,practice,true,0,2020-06-11T14:31:31Z,2,common,sub58
two-step-fixation,84,506259,0.0-61.0-2.7,FALSE,FALSE,TRUE,FALSE,"""event"",""trial"",""time""
""fullscreenenter"",""5"",""51639""
","
","
","""event"",""trial"",""time""
""fullscreenenter"",""5"",""51639""
","
",NA,images/earth.jpg,NA,NA,NA,NA,NA,NA,NA,NA,NA,NA,NA,NA,NA,fixation,NA,NA,NA,NA,NA,NA,sub58
d3-animate-choice,85,510264,0.0-61.0-0.8,FALSE,FALSE,TRUE,FALSE,"""event"",""trial"",""time""
""fullscreenenter"",""5"",""51639""
","
","
","""event"",""trial"",""time""
""fullscreenenter"",""5"",""51639""
","
",2200.604999998177,NA,49,NA,NA,3000,1,NA,NA,images/earth.jpg,images/tutrocket2,images/tutrocket1,null,images/tutrocket1,NA,1,practice,null,NA,NA,1,NA,sub58
d3-animate-choice,86,513712,0.0-61.0-1.8,FALSE,FALSE,TRUE,FALSE,"""event"",""trial"",""time""
""fullscreenenter"",""5"",""51639""
","
","
","""event"",""trial"",""time""
""fullscreenenter"",""5"",""51639""
","
",1442.799999997078,NA,49,NA,NA,3000,1,NA,NA,images/tutgreenplanet.jpg,images/tutalien2,images/tutalien1,images/tutrocket1,images/tutalien1,images/nothing.png,2,practice,false,0,2020-06-11T14:31:40Z,1,rare,sub58
two-step-fixation,87,514717,0.0-61.0-2.8,FALSE,FALSE,TRUE,FALSE,"""event"",""trial"",""time""
""fullscreenenter"",""5"",""51639""
","
","
","""event"",""trial"",""time""
""fullscreenenter"",""5"",""51639""
","
",NA,images/earth.jpg,NA,NA,NA,NA,NA,NA,NA,NA,NA,NA,NA,NA,NA,fixation,NA,NA,NA,NA,NA,NA,sub58
d3-animate-choice,88,518243,0.0-61.0-0.9,FALSE,FALSE,TRUE,FALSE,"""event"",""trial"",""time""
""fullscreenenter"",""5"",""51639""
","
","
","""event"",""trial"",""time""
""fullscreenenter"",""5"",""51639""
","
",1519.0199999997858,NA,48,NA,NA,3000,1,NA,NA,images/earth.jpg,images/tutrocket2,images/tutrocket1,null,images/tutrocket2,NA,1,practice,null,NA,NA,2,NA,sub58
d3-animate-choice,89,521490,0.0-61.0-1.9,FALSE,FALSE,TRUE,FALSE,"""event"",""trial"",""time""
""fullscreenenter"",""5"",""51639""
","
","
","""event"",""trial"",""time""
""fullscreenenter"",""5"",""51639""
","
",1237.395000003744,NA,48,NA,NA,3000,1,NA,NA,images/tutgreenplanet.jpg,images/tutalien2,images/tutalien1,images/tutrocket2,images/tutalien2,images/nothing.png,2,practice,true,0,2020-06-11T14:31:48Z,2,common,sub58
two-step-fixation,90,522495,0.0-61.0-2.9,FALSE,FALSE,TRUE,FALSE,"""event"",""trial"",""time""
""fullscreenenter"",""5"",""51639""
","
","
","""event"",""trial"",""time""
""fullscreenenter"",""5"",""51639""
","
",NA,images/earth.jpg,NA,NA,NA,NA,NA,NA,NA,NA,NA,NA,NA,NA,NA,fixation,NA,NA,NA,NA,NA,NA,sub58
d3-animate-choice,91,525438,0.0-61.0-0.10,FALSE,FALSE,TRUE,FALSE,"""event"",""trial"",""time""
""fullscreenenter"",""5"",""51639""
","
","
","""event"",""trial"",""time""
""fullscreenenter"",""5"",""51639""
","
",929.4099999970058,NA,49,NA,NA,3000,1,NA,NA,images/earth.jpg,images/tutrocket2,images/tutrocket1,null,images/tutrocket1,NA,1,practice,null,NA,NA,1,NA,sub58
d3-animate-choice,92,529443,0.0-61.0-1.10,FALSE,FALSE,TRUE,FALSE,"""event"",""trial"",""time""
""fullscreenenter"",""5"",""51639""
","
","
","""event"",""trial"",""time""
""fullscreenenter"",""5"",""51639""
","
",2053.1399999962887,NA,49,NA,NA,3000,1,NA,NA,images/tutgreenplanet.jpg,images/tutalien2,images/tutalien1,images/tutrocket1,images/tutalien1,images/nothing.png,2,practice,false,0,2020-06-11T14:31:56Z,1,rare,sub58
two-step-fixation,93,530447,0.0-61.0-2.10,FALSE,FALSE,TRUE,FALSE,"""event"",""trial"",""time""
""fullscreenenter"",""5"",""51639""
","
","
","""event"",""trial"",""time""
""fullscreenenter"",""5"",""51639""
","
",NA,images/earth.jpg,NA,NA,NA,NA,NA,NA,NA,NA,NA,NA,NA,NA,NA,fixation,NA,NA,NA,NA,NA,NA,sub58
d3-animate-choice,94,532815,0.0-61.0-0.11,FALSE,FALSE,TRUE,FALSE,"""event"",""trial"",""time""
""fullscreenenter"",""5"",""51639""
","
","
","""event"",""trial"",""time""
""fullscreenenter"",""5"",""51639""
","
",360.9500000020489,NA,48,NA,NA,3000,1,NA,NA,images/earth.jpg,images/tutrocket2,images/tutrocket1,null,images/tutrocket2,NA,1,practice,null,NA,NA,2,NA,sub58
d3-animate-choice,95,536734,0.0-61.0-1.11,FALSE,FALSE,TRUE,FALSE,"""event"",""trial"",""time""
""fullscreenenter"",""5"",""51639""
","
","
","""event"",""trial"",""time""
""fullscreenenter"",""5"",""51639""
","
",1913.1800000031944,NA,48,NA,NA,3000,1,NA,NA,images/tutgreenplanet.jpg,images/tutalien2,images/tutalien1,images/tutrocket2,images/tutalien2,images/nothing.png,2,practice,true,0,2020-06-11T14:32:03Z,2,common,sub58
two-step-fixation,96,537737,0.0-61.0-2.11,FALSE,FALSE,TRUE,FALSE,"""event"",""trial"",""time""
""fullscreenenter"",""5"",""51639""
","
","
","""event"",""trial"",""time""
""fullscreenenter"",""5"",""51639""
","
",NA,images/earth.jpg,NA,NA,NA,NA,NA,NA,NA,NA,NA,NA,NA,NA,NA,fixation,NA,NA,NA,NA,NA,NA,sub58
d3-animate-choice,97,541039,0.0-61.0-0.12,FALSE,FALSE,TRUE,FALSE,"""event"",""trial"",""time""
""fullscreenenter"",""5"",""51639""
","
","
","""event"",""trial"",""time""
""fullscreenenter"",""5"",""51639""
","
",1298.549999999581,NA,48,NA,NA,3000,1,NA,NA,images/earth.jpg,images/tutrocket2,images/tutrocket1,null,images/tutrocket2,NA,1,practice,null,NA,NA,2,NA,sub58
d3-animate-choice,98,544666,0.0-61.0-1.12,FALSE,FALSE,TRUE,FALSE,"""event"",""trial"",""time""
""fullscreenenter"",""5"",""51639""
","
","
","""event"",""trial"",""time""
""fullscreenenter"",""5"",""51639""
","
",1621.0800000044983,NA,48,NA,NA,3000,1,NA,NA,images/tutyellowplanet.jpg,images/tutalien4,images/tutalien3,images/tutrocket2,images/tutalien4,images/t.png,2,practice,false,1,2020-06-11T14:32:11Z,2,rare,sub58
two-step-fixation,99,545673,0.0-61.0-2.12,FALSE,FALSE,TRUE,FALSE,"""event"",""trial"",""time""
""fullscreenenter"",""5"",""51639""
","
","
","""event"",""trial"",""time""
""fullscreenenter"",""5"",""51639""
","
",NA,images/earth.jpg,NA,NA,NA,NA,NA,NA,NA,NA,NA,NA,NA,NA,NA,fixation,NA,NA,NA,NA,NA,NA,sub58
d3-animate-choice,100,548774,0.0-61.0-0.13,FALSE,FALSE,TRUE,FALSE,"""event"",""trial"",""time""
""fullscreenenter"",""5"",""51639""
","
","
","""event"",""trial"",""time""
""fullscreenenter"",""5"",""51639""
","
",1094.2050000012387,NA,48,NA,NA,3000,1,NA,NA,images/earth.jpg,images/tutrocket2,images/tutrocket1,null,images/tutrocket2,NA,1,practice,null,NA,NA,2,NA,sub58
d3-animate-choice,101,551662,0.0-61.0-1.13,FALSE,FALSE,TRUE,FALSE,"""event"",""trial"",""time""
""fullscreenenter"",""5"",""51639""
","
","
","""event"",""trial"",""time""
""fullscreenenter"",""5"",""51639""
","
",881.1550000028219,NA,48,NA,NA,3000,1,NA,NA,images/tutyellowplanet.jpg,images/tutalien4,images/tutalien3,images/tutrocket2,images/tutalien4,images/t.png,2,practice,false,1,2020-06-11T14:32:18Z,2,rare,sub58
two-step-fixation,102,552669,0.0-61.0-2.13,FALSE,FALSE,TRUE,FALSE,"""event"",""trial"",""time""
""fullscreenenter"",""5"",""51639""
","
","
","""event"",""trial"",""time""
""fullscreenenter"",""5"",""51639""
","
",NA,images/earth.jpg,NA,NA,NA,NA,NA,NA,NA,NA,NA,NA,NA,NA,NA,fixation,NA,NA,NA,NA,NA,NA,sub58
d3-animate-choice,103,555407,0.0-61.0-0.14,FALSE,FALSE,TRUE,FALSE,"""event"",""trial"",""time""
""fullscreenenter"",""5"",""51639""
","
","
","""event"",""trial"",""time""
""fullscreenenter"",""5"",""51639""
","
",731.2549999988405,NA,48,NA,NA,3000,1,NA,NA,images/earth.jpg,images/tutrocket2,images/tutrocket1,null,images/tutrocket2,NA,1,practice,null,NA,NA,2,NA,sub58
d3-animate-choice,104,558128,0.0-61.0-1.14,FALSE,FALSE,TRUE,FALSE,"""event"",""trial"",""time""
""fullscreenenter"",""5"",""51639""
","
","
","""event"",""trial"",""time""
""fullscreenenter"",""5"",""51639""
","
",714.8650000018533,NA,48,NA,NA,3000,1,NA,NA,images/tutyellowplanet.jpg,images/tutalien4,images/tutalien3,images/tutrocket2,images/tutalien4,images/t.png,2,practice,false,1,2020-06-11T14:32:24Z,2,rare,sub58
two-step-fixation,105,559134,0.0-61.0-2.14,FALSE,FALSE,TRUE,FALSE,"""event"",""trial"",""time""
""fullscreenenter"",""5"",""51639""
","
","
","""event"",""trial"",""time""
""fullscreenenter"",""5"",""51639""
","
",NA,images/earth.jpg,NA,NA,NA,NA,NA,NA,NA,NA,NA,NA,NA,NA,NA,fixation,NA,NA,NA,NA,NA,NA,sub58
d3-animate-choice,106,562233,0.0-61.0-0.15,FALSE,FALSE,TRUE,FALSE,"""event"",""trial"",""time""
""fullscreenenter"",""5"",""51639""
","
","
","""event"",""trial"",""time""
""fullscreenenter"",""5"",""51639""
","
",1094.4499999969266,NA,49,NA,NA,3000,1,NA,NA,images/earth.jpg,images/tutrocket2,images/tutrocket1,null,images/tutrocket1,NA,1,practice,null,NA,NA,1,NA,sub58
d3-animate-choice,107,566242,0.0-61.0-1.15,FALSE,FALSE,TRUE,FALSE,"""event"",""trial"",""time""
""fullscreenenter"",""5"",""51639""
","
","
","""event"",""trial"",""time""
""fullscreenenter"",""5"",""51639""
","
",2164.7200000006706,NA,49,NA,NA,3000,1,NA,NA,images/tutyellowplanet.jpg,images/tutalien4,images/tutalien3,images/tutrocket1,images/tutalien3,images/t.png,2,practice,true,1,2020-06-11T14:32:32Z,1,common,sub58
two-step-fixation,108,567248,0.0-61.0-2.15,FALSE,FALSE,TRUE,FALSE,"""event"",""trial"",""time""
""fullscreenenter"",""5"",""51639""
","
","
","""event"",""trial"",""time""
""fullscreenenter"",""5"",""51639""
","
",NA,images/earth.jpg,NA,NA,NA,NA,NA,NA,NA,NA,NA,NA,NA,NA,NA,fixation,NA,NA,NA,NA,NA,NA,sub58
d3-animate-choice,109,569801,0.0-61.0-0.16,FALSE,FALSE,TRUE,FALSE,"""event"",""trial"",""time""
""fullscreenenter"",""5"",""51639""
","
","
","""event"",""trial"",""time""
""fullscreenenter"",""5"",""51639""
","
",550.0250000040978,NA,48,NA,NA,3000,1,NA,NA,images/earth.jpg,images/tutrocket2,images/tutrocket1,null,images/tutrocket2,NA,1,practice,null,NA,NA,2,NA,sub58
d3-animate-choice,110,573376,0.0-61.0-1.16,FALSE,FALSE,TRUE,FALSE,"""event"",""trial"",""time""
""fullscreenenter"",""5"",""51639""
","
","
","""event"",""trial"",""time""
""fullscreenenter"",""5"",""51639""
","
",1567.6249999960419,NA,48,NA,NA,3000,1,NA,NA,images/tutgreenplanet.jpg,images/tutalien2,images/tutalien1,images/tutrocket2,images/tutalien2,images/nothing.png,2,practice,true,0,2020-06-11T14:32:39Z,2,common,sub58
two-step-fixation,111,574383,0.0-61.0-2.16,FALSE,FALSE,TRUE,FALSE,"""event"",""trial"",""time""
""fullscreenenter"",""5"",""51639""
","
","
","""event"",""trial"",""time""
""fullscreenenter"",""5"",""51639""
","
",NA,images/earth.jpg,NA,NA,NA,NA,NA,NA,NA,NA,NA,NA,NA,NA,NA,fixation,NA,NA,NA,NA,NA,NA,sub58
d3-animate-choice,112,577751,0.0-61.0-0.17,FALSE,FALSE,TRUE,FALSE,"""event"",""trial"",""time""
""fullscreenenter"",""5"",""51639""
","
","
","""event"",""trial"",""time""
""fullscreenenter"",""5"",""51639""
","
",1361.4900000030175,NA,48,NA,NA,3000,1,NA,NA,images/earth.jpg,images/tutrocket2,images/tutrocket1,null,images/tutrocket2,NA,1,practice,null,NA,NA,2,NA,sub58
d3-animate-choice,113,581757,0.0-61.0-1.17,FALSE,FALSE,TRUE,FALSE,"""event"",""trial"",""time""
""fullscreenenter"",""5"",""51639""
","
","
","""event"",""trial"",""time""
""fullscreenenter"",""5"",""51639""
","
",2127.4250000059837,NA,49,NA,NA,3000,1,NA,NA,images/tutgreenplanet.jpg,images/tutalien2,images/tutalien1,images/tutrocket2,images/tutalien1,images/nothing.png,2,practice,true,0,2020-06-11T14:32:48Z,1,common,sub58
two-step-fixation,114,582759,0.0-61.0-2.17,FALSE,FALSE,TRUE,FALSE,"""event"",""trial"",""time""
""fullscreenenter"",""5"",""51639""
","
","
","""event"",""trial"",""time""
""fullscreenenter"",""5"",""51639""
","
",NA,images/earth.jpg,NA,NA,NA,NA,NA,NA,NA,NA,NA,NA,NA,NA,NA,fixation,NA,NA,NA,NA,NA,NA,sub58
d3-animate-choice,115,585892,0.0-61.0-0.18,FALSE,FALSE,TRUE,FALSE,"""event"",""trial"",""time""
""fullscreenenter"",""5"",""51639""
","
","
","""event"",""trial"",""time""
""fullscreenenter"",""5"",""51639""
","
",1126.4149999987567,NA,49,NA,NA,3000,1,NA,NA,images/earth.jpg,images/tutrocket2,images/tutrocket1,null,images/tutrocket1,NA,1,practice,null,NA,NA,1,NA,sub58
d3-animate-choice,116,589370,0.0-61.0-1.18,FALSE,FALSE,TRUE,FALSE,"""event"",""trial"",""time""
""fullscreenenter"",""5"",""51639""
","
","
","""event"",""trial"",""time""
""fullscreenenter"",""5"",""51639""
","
",1471.4600000006612,NA,48,NA,NA,3000,1,NA,NA,images/tutgreenplanet.jpg,images/tutalien2,images/tutalien1,images/tutrocket1,images/tutalien2,images/t.png,2,practice,false,1,2020-06-11T14:32:55Z,2,rare,sub58
two-step-fixation,117,590377,0.0-61.0-2.18,FALSE,FALSE,TRUE,FALSE,"""event"",""trial"",""time""
""fullscreenenter"",""5"",""51639""
","
","
","""event"",""trial"",""time""
""fullscreenenter"",""5"",""51639""
","
",NA,images/earth.jpg,NA,NA,NA,NA,NA,NA,NA,NA,NA,NA,NA,NA,NA,fixation,NA,NA,NA,NA,NA,NA,sub58
d3-animate-choice,118,592867,0.0-61.0-0.19,FALSE,FALSE,TRUE,FALSE,"""event"",""trial"",""time""
""fullscreenenter"",""5"",""51639""
","
","
","""event"",""trial"",""time""
""fullscreenenter"",""5"",""51639""
","
",485.5849999948405,NA,48,NA,NA,3000,1,NA,NA,images/earth.jpg,images/tutrocket2,images/tutrocket1,null,images/tutrocket2,NA,1,practice,null,NA,NA,2,NA,sub58
d3-animate-choice,119,595862,0.0-61.0-1.19,FALSE,FALSE,TRUE,FALSE,"""event"",""trial"",""time""
""fullscreenenter"",""5"",""51639""
","
","
","""event"",""trial"",""time""
""fullscreenenter"",""5"",""51639""
","
",992.194999998901,NA,48,NA,NA,3000,1,NA,NA,images/tutgreenplanet.jpg,images/tutalien2,images/tutalien1,images/tutrocket2,images/tutalien2,images/t.png,2,practice,true,1,2020-06-11T14:33:02Z,2,common,sub58
two-step-fixation,120,596867,0.0-61.0-2.19,FALSE,FALSE,TRUE,FALSE,"""event"",""trial"",""time""
""fullscreenenter"",""5"",""51639""
","
","
","""event"",""trial"",""time""
""fullscreenenter"",""5"",""51639""
","
",NA,images/earth.jpg,NA,NA,NA,NA,NA,NA,NA,NA,NA,NA,NA,NA,NA,fixation,NA,NA,NA,NA,NA,NA,sub58
d3-instructions,121,607868,0.0-62.0,FALSE,FALSE,TRUE,FALSE,"""event"",""trial"",""time""
""fullscreenenter"",""5"",""51639""
","
","
","""event"",""trial"",""time""
""fullscreenenter"",""5"",""51639""
","
",NA,NA,NA,NA,NA,NA,NA,NA,NA,NA,NA,NA,NA,NA,NA,NA,NA,NA,NA,NA,NA,NA,sub58
audio-keyboard-response,122,612595,0.0-63.0,FALSE,FALSE,TRUE,FALSE,"""event"",""trial"",""time""
""fullscreenenter"",""5"",""51639""
","
","
","""event"",""trial"",""time""
""fullscreenenter"",""5"",""51639""
","
",4736,audio/instructions/treasure_feedback.wav,32,NA,NA,NA,NA,NA,NA,NA,NA,NA,NA,NA,NA,NA,NA,NA,NA,NA,NA,NA,sub58
d3-instructions,123,633102,0.0-64.0,FALSE,FALSE,TRUE,FALSE,"""event"",""trial"",""time""
""fullscreenenter"",""5"",""51639""
","
","
","""event"",""trial"",""time""
""fullscreenenter"",""5"",""51639""
","
",NA,NA,NA,NA,NA,NA,NA,NA,NA,NA,NA,NA,NA,NA,NA,NA,NA,NA,NA,NA,NA,NA,sub58
d3-instructions,124,647598,0.0-65.0,FALSE,FALSE,TRUE,FALSE,"""event"",""trial"",""time""
""fullscreenenter"",""5"",""51639""
","
","
","""event"",""trial"",""time""
""fullscreenenter"",""5"",""51639""
","
",NA,NA,NA,NA,NA,NA,NA,NA,NA,NA,NA,NA,NA,NA,NA,NA,NA,NA,NA,NA,NA,NA,sub58
d3-instructions,125,672532,0.0-66.0,FALSE,FALSE,TRUE,FALSE,"""event"",""trial"",""time""
""fullscreenenter"",""5"",""51639""
","
","
","""event"",""trial"",""time""
""fullscreenenter"",""5"",""51639""
","
",NA,NA,NA,NA,NA,NA,NA,NA,NA,NA,NA,NA,NA,NA,NA,NA,NA,NA,NA,NA,NA,NA,sub58
d3-instructions,126,689186,0.0-67.0,FALSE,FALSE,TRUE,FALSE,"""event"",""trial"",""time""
""fullscreenenter"",""5"",""51639""
","
","
","""event"",""trial"",""time""
""fullscreenenter"",""5"",""51639""
","
",NA,NA,NA,NA,NA,NA,NA,NA,NA,NA,NA,NA,NA,NA,NA,NA,NA,NA,NA,NA,NA,NA,sub58
d3-instructions,127,698261,0.0-68.0,FALSE,FALSE,TRUE,FALSE,"""event"",""trial"",""time""
""fullscreenenter"",""5"",""51639""
","
","
","""event"",""trial"",""time""
""fullscreenenter"",""5"",""51639""
","
",NA,NA,NA,NA,NA,NA,NA,NA,NA,NA,NA,NA,NA,NA,NA,NA,NA,NA,NA,NA,NA,NA,sub58
instructions-quiz,128,703834,0.0-69.0,FALSE,FALSE,TRUE,FALSE,"""event"",""trial"",""time""
""fullscreenenter"",""5"",""51639""
","
","
","""event"",""trial"",""time""
""fullscreenenter"",""5"",""51639""
","
",5571.9349999999395,audio/quiz/Q1_Prompt.wav,NA,1,NA,NA,NA,NA,NA,NA,NA,NA,NA,NA,NA,NA,NA,NA,NA,NA,NA,NA,sub58
audio-keyboard-response,129,712989,0.0-70.0,FALSE,FALSE,TRUE,FALSE,"""event"",""trial"",""time""
""fullscreenenter"",""5"",""51639""
","
","
","""event"",""trial"",""time""
""fullscreenenter"",""5"",""51639""
","
",null,audio/quiz/Q1_Correct.wav,null,NA,NA,NA,NA,NA,NA,NA,NA,NA,NA,NA,NA,NA,NA,NA,NA,NA,NA,NA,sub58
instructions-quiz,130,722154,0.0-71.0,FALSE,FALSE,TRUE,FALSE,"""event"",""trial"",""time""
""fullscreenenter"",""5"",""51639""
","
","
","""event"",""trial"",""time""
""fullscreenenter"",""5"",""51639""
","
",9164.480000006733,audio/quiz/Q2_Prompt.wav,NA,0,NA,NA,NA,NA,NA,NA,NA,NA,NA,NA,NA,NA,NA,NA,NA,NA,NA,NA,sub58
audio-keyboard-response,131,735039,0.0-72.0,FALSE,FALSE,TRUE,FALSE,"""event"",""trial"",""time""
""fullscreenenter"",""5"",""51639""
","
","
","""event"",""trial"",""time""
""fullscreenenter"",""5"",""51639""
","
",null,audio/quiz/Q2_Correct.wav,null,NA,NA,NA,NA,NA,NA,NA,NA,NA,NA,NA,NA,NA,NA,NA,NA,NA,NA,NA,sub58
instructions-quiz,132,739811,0.0-73.0,FALSE,FALSE,TRUE,FALSE,"""event"",""trial"",""time""
""fullscreenenter"",""5"",""51639""
","
","
","""event"",""trial"",""time""
""fullscreenenter"",""5"",""51639""
","
",4771.75,audio/quiz/Q3_Prompt.wav,NA,1,NA,NA,NA,NA,NA,NA,NA,NA,NA,NA,NA,NA,NA,NA,NA,NA,NA,NA,sub58
audio-keyboard-response,133,745629,0.0-74.0,FALSE,FALSE,TRUE,FALSE,"""event"",""trial"",""time""
""fullscreenenter"",""5"",""51639""
","
","
","""event"",""trial"",""time""
""fullscreenenter"",""5"",""51639""
","
",null,audio/quiz/Q3_Correct.wav,null,NA,NA,NA,NA,NA,NA,NA,NA,NA,NA,NA,NA,NA,NA,NA,NA,NA,NA,NA,sub58
d3-instructions,134,762122,0.0-75.0,FALSE,FALSE,TRUE,FALSE,"""event"",""trial"",""time""
""fullscreenenter"",""5"",""51639""
","
","
","""event"",""trial"",""time""
""fullscreenenter"",""5"",""51639""
","
",NA,NA,NA,NA,NA,NA,NA,NA,NA,NA,NA,NA,NA,NA,NA,NA,NA,NA,NA,NA,NA,NA,sub58
d3-animate-choice,135,765153,0.0-76.0-0.0,FALSE,FALSE,TRUE,FALSE,"""event"",""trial"",""time""
""fullscreenenter"",""5"",""51639""
","
","
","""event"",""trial"",""time""
""fullscreenenter"",""5"",""51639""
","
",1028.299999998184,NA,48,NA,NA,3000,1,NA,NA,images/earth.jpg,images/rocket1,images/rocket2,null,images/rocket1,NA,1,real,null,NA,NA,2,NA,sub58
d3-animate-choice,136,768485,0.0-76.0-1.0,FALSE,FALSE,TRUE,FALSE,"""event"",""trial"",""time""
""fullscreenenter"",""5"",""51639""
","
","
","""event"",""trial"",""time""
""fullscreenenter"",""5"",""51639""
","
",1329.3300000004238,NA,48,NA,NA,3000,1,NA,NA,images/redplanet1.jpg,images/alien2,images/alien1,images/rocket1,images/alien2,images/t.png,2,real,false,1,2020-06-11T14:35:55Z,2,rare,sub58
two-step-fixation,137,769487,0.0-76.0-2.0,FALSE,FALSE,TRUE,FALSE,"""event"",""trial"",""time""
""fullscreenenter"",""5"",""51639""
","
","
","""event"",""trial"",""time""
""fullscreenenter"",""5"",""51639""
","
",NA,images/earth.jpg,NA,NA,NA,NA,NA,NA,NA,NA,NA,NA,NA,NA,NA,fixation,NA,NA,NA,NA,NA,NA,sub58
d3-animate-choice,138,772269,0.0-76.0-0.1,FALSE,FALSE,TRUE,FALSE,"""event"",""trial"",""time""
""fullscreenenter"",""5"",""51639""
","
","
","""event"",""trial"",""time""
""fullscreenenter"",""5"",""51639""
","
",779.8000000037719,NA,49,NA,NA,3000,1,NA,NA,images/earth.jpg,images/rocket1,images/rocket2,null,images/rocket2,NA,1,real,null,NA,NA,1,NA,sub58
d3-animate-choice,139,775576,0.0-76.0-1.1,FALSE,FALSE,TRUE,FALSE,"""event"",""trial"",""time""
""fullscreenenter"",""5"",""51639""
","
","
","""event"",""trial"",""time""
""fullscreenenter"",""5"",""51639""
","
",1304.2750000022352,NA,49,NA,NA,3000,1,NA,NA,images/redplanet1.jpg,images/alien2,images/alien1,images/rocket2,images/alien1,images/nothing.png,2,real,true,0,2020-06-11T14:36:02Z,1,common,sub58
two-step-fixation,140,776578,0.0-76.0-2.1,FALSE,FALSE,TRUE,FALSE,"""event"",""trial"",""time""
""fullscreenenter"",""5"",""51639""
","
","
","""event"",""trial"",""time""
""fullscreenenter"",""5"",""51639""
","
",NA,images/earth.jpg,NA,NA,NA,NA,NA,NA,NA,NA,NA,NA,NA,NA,NA,fixation,NA,NA,NA,NA,NA,NA,sub58
d3-animate-choice,141,779250,0.0-76.0-0.2,FALSE,FALSE,TRUE,FALSE,"""event"",""trial"",""time""
""fullscreenenter"",""5"",""51639""
","
","
","""event"",""trial"",""time""
""fullscreenenter"",""5"",""51639""
","
",665.8549999992829,NA,48,NA,NA,3000,1,NA,NA,images/earth.jpg,images/rocket1,images/rocket2,null,images/rocket1,NA,1,real,null,NA,NA,2,NA,sub58
d3-animate-choice,142,782884,0.0-76.0-1.2,FALSE,FALSE,TRUE,FALSE,"""event"",""trial"",""time""
""fullscreenenter"",""5"",""51639""
","
","
","""event"",""trial"",""time""
""fullscreenenter"",""5"",""51639""
","
",1630.5649999994785,NA,49,NA,NA,3000,1,NA,NA,images/purpleplanet.jpg,images/alien4,images/alien3,images/rocket1,images/alien3,images/t.png,2,real,true,1,2020-06-11T14:36:09Z,1,common,sub58
two-step-fixation,143,783886,0.0-76.0-2.2,FALSE,FALSE,TRUE,FALSE,"""event"",""trial"",""time""
""fullscreenenter"",""5"",""51639""
","
","
","""event"",""trial"",""time""
""fullscreenenter"",""5"",""51639""
","
",NA,images/earth.jpg,NA,NA,NA,NA,NA,NA,NA,NA,NA,NA,NA,NA,NA,fixation,NA,NA,NA,NA,NA,NA,sub58
d3-animate-choice,144,786619,0.0-76.0-0.3,FALSE,FALSE,TRUE,FALSE,"""event"",""trial"",""time""
""fullscreenenter"",""5"",""51639""
","
","
","""event"",""trial"",""time""
""fullscreenenter"",""5"",""51639""
","
",730.2750000016531,NA,48,NA,NA,3000,1,NA,NA,images/earth.jpg,images/rocket1,images/rocket2,null,images/rocket1,NA,1,real,null,NA,NA,2,NA,sub58
d3-animate-choice,145,789915,0.0-76.0-1.3,FALSE,FALSE,TRUE,FALSE,"""event"",""trial"",""time""
""fullscreenenter"",""5"",""51639""
","
","
","""event"",""trial"",""time""
""fullscreenenter"",""5"",""51639""
","
",1293.3899999989662,NA,49,NA,NA,3000,1,NA,NA,images/purpleplanet.jpg,images/alien4,images/alien3,images/rocket1,images/alien3,images/nothing.png,2,real,true,0,2020-06-11T14:36:16Z,1,common,sub58
two-step-fixation,146,790918,0.0-76.0-2.3,FALSE,FALSE,TRUE,FALSE,"""event"",""trial"",""time""
""fullscreenenter"",""5"",""51639""
","
","
","""event"",""trial"",""time""
""fullscreenenter"",""5"",""51639""
","
",NA,images/earth.jpg,NA,NA,NA,NA,NA,NA,NA,NA,NA,NA,NA,NA,NA,fixation,NA,NA,NA,NA,NA,NA,sub58
d3-animate-choice,147,794170,0.0-76.0-0.4,FALSE,FALSE,TRUE,FALSE,"""event"",""trial"",""time""
""fullscreenenter"",""5"",""51639""
","
","
","""event"",""trial"",""time""
""fullscreenenter"",""5"",""51639""
","
",1245.3900000037393,NA,49,NA,NA,3000,1,NA,NA,images/earth.jpg,images/rocket1,images/rocket2,null,images/rocket2,NA,1,real,null,NA,NA,1,NA,sub58
d3-animate-choice,148,797861,0.0-76.0-1.4,FALSE,FALSE,TRUE,FALSE,"""event"",""trial"",""time""
""fullscreenenter"",""5"",""51639""
","
","
","""event"",""trial"",""time""
""fullscreenenter"",""5"",""51639""
","
",1685.3399999963585,NA,48,NA,NA,3000,1,NA,NA,images/purpleplanet.jpg,images/alien4,images/alien3,images/rocket2,images/alien4,images/t.png,2,real,false,1,2020-06-11T14:36:24Z,2,rare,sub58
two-step-fixation,149,798868,0.0-76.0-2.4,FALSE,FALSE,TRUE,FALSE,"""event"",""trial"",""time""
""fullscreenenter"",""5"",""51639""
","
","
","""event"",""trial"",""time""
""fullscreenenter"",""5"",""51639""
","
",NA,images/earth.jpg,NA,NA,NA,NA,NA,NA,NA,NA,NA,NA,NA,NA,NA,fixation,NA,NA,NA,NA,NA,NA,sub58
d3-animate-choice,150,802440,0.0-76.0-0.5,FALSE,FALSE,TRUE,FALSE,"""event"",""trial"",""time""
""fullscreenenter"",""5"",""51639""
","
","
","""event"",""trial"",""time""
""fullscreenenter"",""5"",""51639""
","
",1564.0500000008615,NA,49,NA,NA,3000,1,NA,NA,images/earth.jpg,images/rocket1,images/rocket2,null,images/rocket2,NA,1,real,null,NA,NA,1,NA,sub58
d3-animate-choice,151,806015,0.0-76.0-1.5,FALSE,FALSE,TRUE,FALSE,"""event"",""trial"",""time""
""fullscreenenter"",""5"",""51639""
","
","
","""event"",""trial"",""time""
""fullscreenenter"",""5"",""51639""
","
",1568.6700000005076,NA,48,NA,NA,3000,1,NA,NA,images/redplanet1.jpg,images/alien2,images/alien1,images/rocket2,images/alien2,images/t.png,2,real,true,1,2020-06-11T14:36:32Z,2,common,sub58
two-step-fixation,152,807019,0.0-76.0-2.5,FALSE,FALSE,TRUE,FALSE,"""event"",""trial"",""time""
""fullscreenenter"",""5"",""51639""
","
","
","""event"",""trial"",""time""
""fullscreenenter"",""5"",""51639""
","
",NA,images/earth.jpg,NA,NA,NA,NA,NA,NA,NA,NA,NA,NA,NA,NA,NA,fixation,NA,NA,NA,NA,NA,NA,sub58
d3-animate-choice,153,810029,0.0-76.0-0.6,FALSE,FALSE,TRUE,FALSE,"""event"",""trial"",""time""
""fullscreenenter"",""5"",""51639""
","
","
","""event"",""trial"",""time""
""fullscreenenter"",""5"",""51639""
","
",1004.4650000054389,NA,48,NA,NA,3000,1,NA,NA,images/earth.jpg,images/rocket1,images/rocket2,null,images/rocket1,NA,1,real,null,NA,NA,2,NA,sub58
d3-animate-choice,154,813682,0.0-76.0-1.6,FALSE,FALSE,TRUE,FALSE,"""event"",""trial"",""time""
""fullscreenenter"",""5"",""51639""
","
","
","""event"",""trial"",""time""
""fullscreenenter"",""5"",""51639""
","
",1648.6950000034412,NA,49,NA,NA,3000,1,NA,NA,images/purpleplanet.jpg,images/alien4,images/alien3,images/rocket1,images/alien3,images/nothing.png,2,real,true,0,2020-06-11T14:36:40Z,1,common,sub58
two-step-fixation,155,814688,0.0-76.0-2.6,FALSE,FALSE,TRUE,FALSE,"""event"",""trial"",""time""
""fullscreenenter"",""5"",""51639""
","
","
","""event"",""trial"",""time""
""fullscreenenter"",""5"",""51639""
","
",NA,images/earth.jpg,NA,NA,NA,NA,NA,NA,NA,NA,NA,NA,NA,NA,NA,fixation,NA,NA,NA,NA,NA,NA,sub58
d3-animate-choice,156,818543,0.0-76.0-0.7,FALSE,FALSE,TRUE,FALSE,"""event"",""trial"",""time""
""fullscreenenter"",""5"",""51639""
","
","
","""event"",""trial"",""time""
""fullscreenenter"",""5"",""51639""
","
",1850.734999999986,NA,49,NA,NA,3000,1,NA,NA,images/earth.jpg,images/rocket1,images/rocket2,null,images/rocket2,NA,1,real,null,NA,NA,1,NA,sub58
d3-animate-choice,157,821724,0.0-76.0-1.7,FALSE,FALSE,TRUE,FALSE,"""event"",""trial"",""time""
""fullscreenenter"",""5"",""51639""
","
","
","""event"",""trial"",""time""
""fullscreenenter"",""5"",""51639""
","
",1174.2899999953806,NA,48,NA,NA,3000,1,NA,NA,images/redplanet1.jpg,images/alien2,images/alien1,images/rocket2,images/alien2,images/t.png,2,real,true,1,2020-06-11T14:36:48Z,2,common,sub58
two-step-fixation,158,822727,0.0-76.0-2.7,FALSE,FALSE,TRUE,FALSE,"""event"",""trial"",""time""
""fullscreenenter"",""5"",""51639""
","
","
","""event"",""trial"",""time""
""fullscreenenter"",""5"",""51639""
","
",NA,images/earth.jpg,NA,NA,NA,NA,NA,NA,NA,NA,NA,NA,NA,NA,NA,fixation,NA,NA,NA,NA,NA,NA,sub58
d3-animate-choice,159,826730,0.0-76.0-0.8,FALSE,FALSE,TRUE,FALSE,"""event"",""trial"",""time""
""fullscreenenter"",""5"",""51639""
","
","
","""event"",""trial"",""time""
""fullscreenenter"",""5"",""51639""
","
",2011.6099999940488,NA,48,NA,NA,3000,1,NA,NA,images/earth.jpg,images/rocket1,images/rocket2,null,images/rocket1,NA,1,real,null,NA,NA,2,NA,sub58
d3-animate-choice,160,829591,0.0-76.0-1.8,FALSE,FALSE,TRUE,FALSE,"""event"",""trial"",""time""
""fullscreenenter"",""5"",""51639""
","
","
","""event"",""trial"",""time""
""fullscreenenter"",""5"",""51639""
","
",857.1900000025053,NA,48,NA,NA,3000,1,NA,NA,images/purpleplanet.jpg,images/alien4,images/alien3,images/rocket1,images/alien4,images/nothing.png,2,real,true,0,2020-06-11T14:36:56Z,2,common,sub58
two-step-fixation,161,830596,0.0-76.0-2.8,FALSE,FALSE,TRUE,FALSE,"""event"",""trial"",""time""
""fullscreenenter"",""5"",""51639""
","
","
","""event"",""trial"",""time""
""fullscreenenter"",""5"",""51639""
","
",NA,images/earth.jpg,NA,NA,NA,NA,NA,NA,NA,NA,NA,NA,NA,NA,NA,fixation,NA,NA,NA,NA,NA,NA,sub58
d3-animate-choice,162,833348,0.0-76.0-0.9,FALSE,FALSE,TRUE,FALSE,"""event"",""trial"",""time""
""fullscreenenter"",""5"",""51639""
","
","
","""event"",""trial"",""time""
""fullscreenenter"",""5"",""51639""
","
",739.3199999933131,NA,49,NA,NA,3000,1,NA,NA,images/earth.jpg,images/rocket1,images/rocket2,null,images/rocket2,NA,1,real,null,NA,NA,1,NA,sub58
d3-animate-choice,163,835772,0.0-76.0-1.9,FALSE,FALSE,TRUE,FALSE,"""event"",""trial"",""time""
""fullscreenenter"",""5"",""51639""
","
","
","""event"",""trial"",""time""
""fullscreenenter"",""5"",""51639""
","
",417.860000001383,NA,48,NA,NA,3000,1,NA,NA,images/redplanet1.jpg,images/alien2,images/alien1,images/rocket2,images/alien2,images/nothing.png,2,real,true,0,2020-06-11T14:37:02Z,2,common,sub58
two-step-fixation,164,836778,0.0-76.0-2.9,FALSE,FALSE,TRUE,FALSE,"""event"",""trial"",""time""
""fullscreenenter"",""5"",""51639""
","
","
","""event"",""trial"",""time""
""fullscreenenter"",""5"",""51639""
","
",NA,images/earth.jpg,NA,NA,NA,NA,NA,NA,NA,NA,NA,NA,NA,NA,NA,fixation,NA,NA,NA,NA,NA,NA,sub58
d3-animate-choice,165,839461,0.0-76.0-0.10,FALSE,FALSE,TRUE,FALSE,"""event"",""trial"",""time""
""fullscreenenter"",""5"",""51639""
","
","
","""event"",""trial"",""time""
""fullscreenenter"",""5"",""51639""
","
",679.7200000002049,NA,49,NA,NA,3000,1,NA,NA,images/earth.jpg,images/rocket1,images/rocket2,null,images/rocket2,NA,1,real,null,NA,NA,1,NA,sub58
d3-animate-choice,166,842180,0.0-76.0-1.10,FALSE,FALSE,TRUE,FALSE,"""event"",""trial"",""time""
""fullscreenenter"",""5"",""51639""
","
","
","""event"",""trial"",""time""
""fullscreenenter"",""5"",""51639""
","
",711.9800000000978,NA,48,NA,NA,3000,1,NA,NA,images/redplanet1.jpg,images/alien2,images/alien1,images/rocket2,images/alien2,images/t.png,2,real,true,1,2020-06-11T14:37:08Z,2,common,sub58
two-step-fixation,167,843187,0.0-76.0-2.10,FALSE,FALSE,TRUE,FALSE,"""event"",""trial"",""time""
""fullscreenenter"",""5"",""51639""
","
","
","""event"",""trial"",""time""
""fullscreenenter"",""5"",""51639""
","
",NA,images/earth.jpg,NA,NA,NA,NA,NA,NA,NA,NA,NA,NA,NA,NA,NA,fixation,NA,NA,NA,NA,NA,NA,sub58
d3-animate-choice,168,846109,0.0-76.0-0.11,FALSE,FALSE,TRUE,FALSE,"""event"",""trial"",""time""
""fullscreenenter"",""5"",""51639""
","
","
","""event"",""trial"",""time""
""fullscreenenter"",""5"",""51639""
","
",915.3549999973038,NA,48,NA,NA,3000,1,NA,NA,images/earth.jpg,images/rocket1,images/rocket2,null,images/rocket1,NA,1,real,null,NA,NA,2,NA,sub58
d3-animate-choice,169,849634,0.0-76.0-1.11,FALSE,FALSE,TRUE,FALSE,"""event"",""trial"",""time""
""fullscreenenter"",""5"",""51639""
","
","
","""event"",""trial"",""time""
""fullscreenenter"",""5"",""51639""
","
",1518.470000002766,NA,49,NA,NA,3000,1,NA,NA,images/purpleplanet.jpg,images/alien4,images/alien3,images/rocket1,images/alien3,images/nothing.png,2,real,true,0,2020-06-11T14:37:16Z,1,common,sub58
two-step-fixation,170,850640,0.0-76.0-2.11,FALSE,FALSE,TRUE,FALSE,"""event"",""trial"",""time""
""fullscreenenter"",""5"",""51639""
","
","
","""event"",""trial"",""time""
""fullscreenenter"",""5"",""51639""
","
",NA,images/earth.jpg,NA,NA,NA,NA,NA,NA,NA,NA,NA,NA,NA,NA,NA,fixation,NA,NA,NA,NA,NA,NA,sub58
d3-animate-choice,171,853223,0.0-76.0-0.12,FALSE,FALSE,TRUE,FALSE,"""event"",""trial"",""time""
""fullscreenenter"",""5"",""51639""
","
","
","""event"",""trial"",""time""
""fullscreenenter"",""5"",""51639""
","
",577.1300000051269,NA,48,NA,NA,3000,1,NA,NA,images/earth.jpg,images/rocket1,images/rocket2,null,images/rocket1,NA,1,real,null,NA,NA,2,NA,sub58
d3-animate-choice,172,856322,0.0-76.0-1.12,FALSE,FALSE,TRUE,FALSE,"""event"",""trial"",""time""
""fullscreenenter"",""5"",""51639""
","
","
","""event"",""trial"",""time""
""fullscreenenter"",""5"",""51639""
","
",1092.7650000011781,NA,48,NA,NA,3000,1,NA,NA,images/redplanet1.jpg,images/alien2,images/alien1,images/rocket1,images/alien2,images/t.png,2,real,false,1,2020-06-11T14:37:22Z,2,rare,sub58
two-step-fixation,173,857331,0.0-76.0-2.12,FALSE,FALSE,TRUE,FALSE,"""event"",""trial"",""time""
""fullscreenenter"",""5"",""51639""
","
","
","""event"",""trial"",""time""
""fullscreenenter"",""5"",""51639""
","
",NA,images/earth.jpg,NA,NA,NA,NA,NA,NA,NA,NA,NA,NA,NA,NA,NA,fixation,NA,NA,NA,NA,NA,NA,sub58
d3-animate-choice,174,859945,0.0-76.0-0.13,FALSE,FALSE,TRUE,FALSE,"""event"",""trial"",""time""
""fullscreenenter"",""5"",""51639""
","
","
","""event"",""trial"",""time""
""fullscreenenter"",""5"",""51639""
","
",607.1700000029523,NA,48,NA,NA,3000,1,NA,NA,images/earth.jpg,images/rocket1,images/rocket2,null,images/rocket1,NA,1,real,null,NA,NA,2,NA,sub58
d3-animate-choice,175,862347,0.0-76.0-1.13,FALSE,FALSE,TRUE,FALSE,"""event"",""trial"",""time""
""fullscreenenter"",""5"",""51639""
","
","
","""event"",""trial"",""time""
""fullscreenenter"",""5"",""51639""
","
",393.34499999671243,NA,48,NA,NA,3000,1,NA,NA,images/purpleplanet.jpg,images/alien4,images/alien3,images/rocket1,images/alien4,images/nothing.png,2,real,true,0,2020-06-11T14:37:28Z,2,common,sub58
two-step-fixation,176,863352,0.0-76.0-2.13,FALSE,FALSE,TRUE,FALSE,"""event"",""trial"",""time""
""fullscreenenter"",""5"",""51639""
","
","
","""event"",""trial"",""time""
""fullscreenenter"",""5"",""51639""
","
",NA,images/earth.jpg,NA,NA,NA,NA,NA,NA,NA,NA,NA,NA,NA,NA,NA,fixation,NA,NA,NA,NA,NA,NA,sub58
d3-animate-choice,177,865657,0.0-76.0-0.14,FALSE,FALSE,TRUE,FALSE,"""event"",""trial"",""time""
""fullscreenenter"",""5"",""51639""
","
","
","""event"",""trial"",""time""
""fullscreenenter"",""5"",""51639""
","
",297.50500000221655,NA,49,NA,NA,3000,1,NA,NA,images/earth.jpg,images/rocket1,images/rocket2,null,images/rocket2,NA,1,real,null,NA,NA,1,NA,sub58
d3-animate-choice,178,868233,0.0-76.0-1.14,FALSE,FALSE,TRUE,FALSE,"""event"",""trial"",""time""
""fullscreenenter"",""5"",""51639""
","
","
","""event"",""trial"",""time""
""fullscreenenter"",""5"",""51639""
","
",569.0800000011222,NA,48,NA,NA,3000,1,NA,NA,images/redplanet1.jpg,images/alien2,images/alien1,images/rocket2,images/alien2,images/t.png,2,real,true,1,2020-06-11T14:37:34Z,2,common,sub58
two-step-fixation,179,869236,0.0-76.0-2.14,FALSE,FALSE,TRUE,FALSE,"""event"",""trial"",""time""
""fullscreenenter"",""5"",""51639""
","
","
","""event"",""trial"",""time""
""fullscreenenter"",""5"",""51639""
","
",NA,images/earth.jpg,NA,NA,NA,NA,NA,NA,NA,NA,NA,NA,NA,NA,NA,fixation,NA,NA,NA,NA,NA,NA,sub58
d3-animate-choice,180,871647,0.0-76.0-0.15,FALSE,FALSE,TRUE,FALSE,"""event"",""trial"",""time""
""fullscreenenter"",""5"",""51639""
","
","
","""event"",""trial"",""time""
""fullscreenenter"",""5"",""51639""
","
",403.29499999643303,NA,48,NA,NA,3000,1,NA,NA,images/earth.jpg,images/rocket1,images/rocket2,null,images/rocket1,NA,1,real,null,NA,NA,2,NA,sub58
d3-animate-choice,181,874821,0.0-76.0-1.15,FALSE,FALSE,TRUE,FALSE,"""event"",""trial"",""time""
""fullscreenenter"",""5"",""51639""
","
","
","""event"",""trial"",""time""
""fullscreenenter"",""5"",""51639""
","
",1171.1900000009919,NA,48,NA,NA,3000,1,NA,NA,images/redplanet1.jpg,images/alien2,images/alien1,images/rocket1,images/alien2,images/nothing.png,2,real,false,0,2020-06-11T14:37:41Z,2,rare,sub58
two-step-fixation,182,875824,0.0-76.0-2.15,FALSE,FALSE,TRUE,FALSE,"""event"",""trial"",""time""
""fullscreenenter"",""5"",""51639""
","
","
","""event"",""trial"",""time""
""fullscreenenter"",""5"",""51639""
","
",NA,images/earth.jpg,NA,NA,NA,NA,NA,NA,NA,NA,NA,NA,NA,NA,NA,fixation,NA,NA,NA,NA,NA,NA,sub58
d3-animate-choice,183,878526,0.0-76.0-0.16,FALSE,FALSE,TRUE,FALSE,"""event"",""trial"",""time""
""fullscreenenter"",""5"",""51639""
","
","
","""event"",""trial"",""time""
""fullscreenenter"",""5"",""51639""
","
",696.8199999973876,NA,49,NA,NA,3000,1,NA,NA,images/earth.jpg,images/rocket1,images/rocket2,null,images/rocket2,NA,1,real,null,NA,NA,1,NA,sub58
d3-animate-choice,184,880843,0.0-76.0-1.16,FALSE,FALSE,TRUE,FALSE,"""event"",""trial"",""time""
""fullscreenenter"",""5"",""51639""
","
","
","""event"",""trial"",""time""
""fullscreenenter"",""5"",""51639""
","
",310.27000000176486,NA,48,NA,NA,3000,1,NA,NA,images/purpleplanet.jpg,images/alien4,images/alien3,images/rocket2,images/alien4,images/t.png,2,real,false,1,2020-06-11T14:37:47Z,2,rare,sub58
two-step-fixation,185,881850,0.0-76.0-2.16,FALSE,FALSE,TRUE,FALSE,"""event"",""trial"",""time""
""fullscreenenter"",""5"",""51639""
","
","
","""event"",""trial"",""time""
""fullscreenenter"",""5"",""51639""
","
",NA,images/earth.jpg,NA,NA,NA,NA,NA,NA,NA,NA,NA,NA,NA,NA,NA,fixation,NA,NA,NA,NA,NA,NA,sub58
d3-animate-choice,186,884608,0.0-76.0-0.17,FALSE,FALSE,TRUE,FALSE,"""event"",""trial"",""time""
""fullscreenenter"",""5"",""51639""
","
","
","""event"",""trial"",""time""
""fullscreenenter"",""5"",""51639""
","
",754.1800000035437,NA,48,NA,NA,3000,1,NA,NA,images/earth.jpg,images/rocket1,images/rocket2,null,images/rocket1,NA,1,real,null,NA,NA,2,NA,sub58
d3-animate-choice,187,887955,0.0-76.0-1.17,FALSE,FALSE,TRUE,FALSE,"""event"",""trial"",""time""
""fullscreenenter"",""5"",""51639""
","
","
","""event"",""trial"",""time""
""fullscreenenter"",""5"",""51639""
","
",1340.7650000008289,NA,48,NA,NA,3000,1,NA,NA,images/purpleplanet.jpg,images/alien4,images/alien3,images/rocket1,images/alien4,images/nothing.png,2,real,true,0,2020-06-11T14:37:54Z,2,common,sub58
two-step-fixation,188,888957,0.0-76.0-2.17,FALSE,FALSE,TRUE,FALSE,"""event"",""trial"",""time""
""fullscreenenter"",""5"",""51639""
","
","
","""event"",""trial"",""time""
""fullscreenenter"",""5"",""51639""
","
",NA,images/earth.jpg,NA,NA,NA,NA,NA,NA,NA,NA,NA,NA,NA,NA,NA,fixation,NA,NA,NA,NA,NA,NA,sub58
d3-animate-choice,189,891405,0.0-76.0-0.18,FALSE,FALSE,TRUE,FALSE,"""event"",""trial"",""time""
""fullscreenenter"",""5"",""51639""
","
","
","""event"",""trial"",""time""
""fullscreenenter"",""5"",""51639""
","
",440.6950000048382,NA,49,NA,NA,3000,1,NA,NA,images/earth.jpg,images/rocket1,images/rocket2,null,images/rocket2,NA,1,real,null,NA,NA,1,NA,sub58
d3-animate-choice,190,895090,0.0-76.0-1.18,FALSE,FALSE,TRUE,FALSE,"""event"",""trial"",""time""
""fullscreenenter"",""5"",""51639""
","
","
","""event"",""trial"",""time""
""fullscreenenter"",""5"",""51639""
","
",1678.8999999989755,NA,48,NA,NA,3000,1,NA,NA,images/purpleplanet.jpg,images/alien4,images/alien3,images/rocket2,images/alien4,images/t.png,2,real,false,1,2020-06-11T14:38:01Z,2,rare,sub58
two-step-fixation,191,896095,0.0-76.0-2.18,FALSE,FALSE,TRUE,FALSE,"""event"",""trial"",""time""
""fullscreenenter"",""5"",""51639""
","
","
","""event"",""trial"",""time""
""fullscreenenter"",""5"",""51639""
","
",NA,images/earth.jpg,NA,NA,NA,NA,NA,NA,NA,NA,NA,NA,NA,NA,NA,fixation,NA,NA,NA,NA,NA,NA,sub58
d3-animate-choice,192,898706,0.0-76.0-0.19,FALSE,FALSE,TRUE,FALSE,"""event"",""trial"",""time""
""fullscreenenter"",""5"",""51639""
","
","
","""event"",""trial"",""time""
""fullscreenenter"",""5"",""51639""
","
",605.1300000036135,NA,48,NA,NA,3000,1,NA,NA,images/earth.jpg,images/rocket1,images/rocket2,null,images/rocket1,NA,1,real,null,NA,NA,2,NA,sub58
d3-animate-choice,193,902218,0.0-76.0-1.19,FALSE,FALSE,TRUE,FALSE,"""event"",""trial"",""time""
""fullscreenenter"",""5"",""51639""
","
","
","""event"",""trial"",""time""
""fullscreenenter"",""5"",""51639""
","
",1504.375000004191,NA,49,NA,NA,3000,1,NA,NA,images/purpleplanet.jpg,images/alien4,images/alien3,images/rocket1,images/alien3,images/t.png,2,real,true,1,2020-06-11T14:38:08Z,1,common,sub58
two-step-fixation,194,903224,0.0-76.0-2.19,FALSE,FALSE,TRUE,FALSE,"""event"",""trial"",""time""
""fullscreenenter"",""5"",""51639""
","
","
","""event"",""trial"",""time""
""fullscreenenter"",""5"",""51639""
","
",NA,images/earth.jpg,NA,NA,NA,NA,NA,NA,NA,NA,NA,NA,NA,NA,NA,fixation,NA,NA,NA,NA,NA,NA,sub58
d3-animate-choice,195,906281,0.0-76.0-0.20,FALSE,FALSE,TRUE,FALSE,"""event"",""trial"",""time""
""fullscreenenter"",""5"",""51639""
","
","
","""event"",""trial"",""time""
""fullscreenenter"",""5"",""51639""
","
",1050.600000002305,NA,49,NA,NA,3000,1,NA,NA,images/earth.jpg,images/rocket1,images/rocket2,null,images/rocket2,NA,1,real,null,NA,NA,1,NA,sub58
d3-animate-choice,196,908814,0.0-76.0-1.20,FALSE,FALSE,TRUE,FALSE,"""event"",""trial"",""time""
""fullscreenenter"",""5"",""51639""
","
","
","""event"",""trial"",""time""
""fullscreenenter"",""5"",""51639""
","
",529.370000003837,NA,48,NA,NA,3000,1,NA,NA,images/redplanet1.jpg,images/alien2,images/alien1,images/rocket2,images/alien2,images/t.png,2,real,true,1,2020-06-11T14:38:15Z,2,common,sub58
two-step-fixation,197,909819,0.0-76.0-2.20,FALSE,FALSE,TRUE,FALSE,"""event"",""trial"",""time""
""fullscreenenter"",""5"",""51639""
","
","
","""event"",""trial"",""time""
""fullscreenenter"",""5"",""51639""
","
",NA,images/earth.jpg,NA,NA,NA,NA,NA,NA,NA,NA,NA,NA,NA,NA,NA,fixation,NA,NA,NA,NA,NA,NA,sub58
d3-animate-choice,198,912524,0.0-76.0-0.21,FALSE,FALSE,TRUE,FALSE,"""event"",""trial"",""time""
""fullscreenenter"",""5"",""51639""
","
","
","""event"",""trial"",""time""
""fullscreenenter"",""5"",""51639""
","
",700.5449999996927,NA,48,NA,NA,3000,1,NA,NA,images/earth.jpg,images/rocket1,images/rocket2,null,images/rocket1,NA,1,real,null,NA,NA,2,NA,sub58
d3-animate-choice,199,915770,0.0-76.0-1.21,FALSE,FALSE,TRUE,FALSE,"""event"",""trial"",""time""
""fullscreenenter"",""5"",""51639""
","
","
","""event"",""trial"",""time""
""fullscreenenter"",""5"",""51639""
","
",1239.1250000001164,NA,48,NA,NA,3000,1,NA,NA,images/purpleplanet.jpg,images/alien4,images/alien3,images/rocket1,images/alien4,images/t.png,2,real,true,1,2020-06-11T14:38:22Z,2,common,sub58
two-step-fixation,200,916777,0.0-76.0-2.21,FALSE,FALSE,TRUE,FALSE,"""event"",""trial"",""time""
""fullscreenenter"",""5"",""51639""
","
","
","""event"",""trial"",""time""
""fullscreenenter"",""5"",""51639""
","
",NA,images/earth.jpg,NA,NA,NA,NA,NA,NA,NA,NA,NA,NA,NA,NA,NA,fixation,NA,NA,NA,NA,NA,NA,sub58
d3-animate-choice,201,919582,0.0-76.0-0.22,FALSE,FALSE,TRUE,FALSE,"""event"",""trial"",""time""
""fullscreenenter"",""5"",""51639""
","
","
","""event"",""trial"",""time""
""fullscreenenter"",""5"",""51639""
","
",798.6050000034738,NA,49,NA,NA,3000,1,NA,NA,images/earth.jpg,images/rocket1,images/rocket2,null,images/rocket2,NA,1,real,null,NA,NA,1,NA,sub58
d3-animate-choice,202,922056,0.0-76.0-1.22,FALSE,FALSE,TRUE,FALSE,"""event"",""trial"",""time""
""fullscreenenter"",""5"",""51639""
","
","
","""event"",""trial"",""time""
""fullscreenenter"",""5"",""51639""
","
",469.25000000186265,NA,48,NA,NA,3000,1,NA,NA,images/redplanet1.jpg,images/alien2,images/alien1,images/rocket2,images/alien2,images/nothing.png,2,real,true,0,2020-06-11T14:38:28Z,2,common,sub58
two-step-fixation,203,923058,0.0-76.0-2.22,FALSE,FALSE,TRUE,FALSE,"""event"",""trial"",""time""
""fullscreenenter"",""5"",""51639""
","
","
","""event"",""trial"",""time""
""fullscreenenter"",""5"",""51639""
","
",NA,images/earth.jpg,NA,NA,NA,NA,NA,NA,NA,NA,NA,NA,NA,NA,NA,fixation,NA,NA,NA,NA,NA,NA,sub58
d3-animate-choice,204,925758,0.0-76.0-0.23,FALSE,FALSE,TRUE,FALSE,"""event"",""trial"",""time""
""fullscreenenter"",""5"",""51639""
","
","
","""event"",""trial"",""time""
""fullscreenenter"",""5"",""51639""
","
",693.4499999987893,NA,49,NA,NA,3000,1,NA,NA,images/earth.jpg,images/rocket1,images/rocket2,null,images/rocket2,NA,1,real,null,NA,NA,1,NA,sub58
d3-animate-choice,205,928351,0.0-76.0-1.23,FALSE,FALSE,TRUE,FALSE,"""event"",""trial"",""time""
""fullscreenenter"",""5"",""51639""
","
","
","""event"",""trial"",""time""
""fullscreenenter"",""5"",""51639""
","
",590.149999996298,NA,48,NA,NA,3000,1,NA,NA,images/redplanet1.jpg,images/alien2,images/alien1,images/rocket2,images/alien2,images/t.png,2,real,true,1,2020-06-11T14:38:34Z,2,common,sub58
two-step-fixation,206,929358,0.0-76.0-2.23,FALSE,FALSE,TRUE,FALSE,"""event"",""trial"",""time""
""fullscreenenter"",""5"",""51639""
","
","
","""event"",""trial"",""time""
""fullscreenenter"",""5"",""51639""
","
",NA,images/earth.jpg,NA,NA,NA,NA,NA,NA,NA,NA,NA,NA,NA,NA,NA,fixation,NA,NA,NA,NA,NA,NA,sub58
d3-animate-choice,207,932613,0.0-76.0-0.24,FALSE,FALSE,TRUE,FALSE,"""event"",""trial"",""time""
""fullscreenenter"",""5"",""51639""
","
","
","""event"",""trial"",""time""
""fullscreenenter"",""5"",""51639""
","
",1247.734999997192,NA,48,NA,NA,3000,1,NA,NA,images/earth.jpg,images/rocket1,images/rocket2,null,images/rocket1,NA,1,real,null,NA,NA,2,NA,sub58
d3-animate-choice,208,935708,0.0-76.0-1.24,FALSE,FALSE,TRUE,FALSE,"""event"",""trial"",""time""
""fullscreenenter"",""5"",""51639""
","
","
","""event"",""trial"",""time""
""fullscreenenter"",""5"",""51639""
","
",1087.9149999964284,NA,48,NA,NA,3000,1,NA,NA,images/purpleplanet.jpg,images/alien4,images/alien3,images/rocket1,images/alien4,images/t.png,2,real,true,1,2020-06-11T14:38:42Z,2,common,sub58
two-step-fixation,209,936716,0.0-76.0-2.24,FALSE,FALSE,TRUE,FALSE,"""event"",""trial"",""time""
""fullscreenenter"",""5"",""51639""
","
","
","""event"",""trial"",""time""
""fullscreenenter"",""5"",""51639""
","
",NA,images/earth.jpg,NA,NA,NA,NA,NA,NA,NA,NA,NA,NA,NA,NA,NA,fixation,NA,NA,NA,NA,NA,NA,sub58
d3-animate-choice,210,939875,0.0-76.0-0.25,FALSE,FALSE,TRUE,FALSE,"""event"",""trial"",""time""
""fullscreenenter"",""5"",""51639""
","
","
","""event"",""trial"",""time""
""fullscreenenter"",""5"",""51639""
","
",1152.0250000031665,NA,49,NA,NA,3000,1,NA,NA,images/earth.jpg,images/rocket1,images/rocket2,null,images/rocket2,NA,1,real,null,NA,NA,1,NA,sub58
d3-animate-choice,211,943509,0.0-76.0-1.25,FALSE,FALSE,TRUE,FALSE,"""event"",""trial"",""time""
""fullscreenenter"",""5"",""51639""
","
","
","""event"",""trial"",""time""
""fullscreenenter"",""5"",""51639""
","
",1626.8699999999953,NA,49,NA,NA,3000,1,NA,NA,images/purpleplanet.jpg,images/alien4,images/alien3,images/rocket2,images/alien3,images/t.png,2,real,false,1,2020-06-11T14:38:50Z,1,rare,sub58
two-step-fixation,212,944516,0.0-76.0-2.25,FALSE,FALSE,TRUE,FALSE,"""event"",""trial"",""time""
""fullscreenenter"",""5"",""51639""
","
","
","""event"",""trial"",""time""
""fullscreenenter"",""5"",""51639""
","
",NA,images/earth.jpg,NA,NA,NA,NA,NA,NA,NA,NA,NA,NA,NA,NA,NA,fixation,NA,NA,NA,NA,NA,NA,sub58
d3-animate-choice,213,947330,0.0-76.0-0.26,FALSE,FALSE,TRUE,FALSE,"""event"",""trial"",""time""
""fullscreenenter"",""5"",""51639""
","
","
","""event"",""trial"",""time""
""fullscreenenter"",""5"",""51639""
","
",807.5450000033015,NA,49,NA,NA,3000,1,1891.329999998561,48,images/earth.jpg,images/rocket1,images/rocket2,null,images/rocket2,NA,1,real,null,NA,NA,1,NA,sub58
d3-animate-choice,214,949897,0.0-76.0-1.26,FALSE,FALSE,TRUE,FALSE,"""event"",""trial"",""time""
""fullscreenenter"",""5"",""51639""
","
","
","""event"",""trial"",""time""
""fullscreenenter"",""5"",""51639""
","
",559.7499999930151,NA,48,NA,NA,3000,1,NA,NA,images/redplanet1.jpg,images/alien2,images/alien1,images/rocket2,images/alien2,images/t.png,2,real,true,1,2020-06-11T14:38:56Z,2,common,sub58
two-step-fixation,215,950903,0.0-76.0-2.26,FALSE,FALSE,TRUE,FALSE,"""event"",""trial"",""time""
""fullscreenenter"",""5"",""51639""
","
","
","""event"",""trial"",""time""
""fullscreenenter"",""5"",""51639""
","
",NA,images/earth.jpg,NA,NA,NA,NA,NA,NA,NA,NA,NA,NA,NA,NA,NA,fixation,NA,NA,NA,NA,NA,NA,sub58
d3-animate-choice,216,954074,0.0-76.0-0.27,FALSE,FALSE,TRUE,FALSE,"""event"",""trial"",""time""
""fullscreenenter"",""5"",""51639""
","
","
","""event"",""trial"",""time""
""fullscreenenter"",""5"",""51639""
","
",1164.279999997234,NA,49,NA,NA,3000,1,NA,NA,images/earth.jpg,images/rocket1,images/rocket2,null,images/rocket2,NA,1,real,null,NA,NA,1,NA,sub58
d3-animate-choice,217,956988,0.0-76.0-1.27,FALSE,FALSE,TRUE,FALSE,"""event"",""trial"",""time""
""fullscreenenter"",""5"",""51639""
","
","
","""event"",""trial"",""time""
""fullscreenenter"",""5"",""51639""
","
",910.5300000009593,NA,48,NA,NA,3000,1,NA,NA,images/redplanet1.jpg,images/alien2,images/alien1,images/rocket2,images/alien2,images/t.png,2,real,true,1,2020-06-11T14:39:03Z,2,common,sub58
two-step-fixation,218,957993,0.0-76.0-2.27,FALSE,FALSE,TRUE,FALSE,"""event"",""trial"",""time""
""fullscreenenter"",""5"",""51639""
","
","
","""event"",""trial"",""time""
""fullscreenenter"",""5"",""51639""
","
",NA,images/earth.jpg,NA,NA,NA,NA,NA,NA,NA,NA,NA,NA,NA,NA,NA,fixation,NA,NA,NA,NA,NA,NA,sub58
d3-animate-choice,219,960846,0.0-76.0-0.28,FALSE,FALSE,TRUE,FALSE,"""event"",""trial"",""time""
""fullscreenenter"",""5"",""51639""
","
","
","""event"",""trial"",""time""
""fullscreenenter"",""5"",""51639""
","
",845.9450000008801,NA,48,NA,NA,3000,1,NA,NA,images/earth.jpg,images/rocket1,images/rocket2,null,images/rocket1,NA,1,real,null,NA,NA,2,NA,sub58
d3-animate-choice,220,964136,0.0-76.0-1.28,FALSE,FALSE,TRUE,FALSE,"""event"",""trial"",""time""
""fullscreenenter"",""5"",""51639""
","
","
","""event"",""trial"",""time""
""fullscreenenter"",""5"",""51639""
","
",1282.070000001113,NA,48,NA,NA,3000,1,NA,NA,images/purpleplanet.jpg,images/alien4,images/alien3,images/rocket1,images/alien4,images/nothing.png,2,real,true,0,2020-06-11T14:39:10Z,2,common,sub58
two-step-fixation,221,965138,0.0-76.0-2.28,FALSE,FALSE,TRUE,FALSE,"""event"",""trial"",""time""
""fullscreenenter"",""5"",""51639""
","
","
","""event"",""trial"",""time""
""fullscreenenter"",""5"",""51639""
","
",NA,images/earth.jpg,NA,NA,NA,NA,NA,NA,NA,NA,NA,NA,NA,NA,NA,fixation,NA,NA,NA,NA,NA,NA,sub58
d3-animate-choice,222,967590,0.0-76.0-0.29,FALSE,FALSE,TRUE,FALSE,"""event"",""trial"",""time""
""fullscreenenter"",""5"",""51639""
","
","
","""event"",""trial"",""time""
""fullscreenenter"",""5"",""51639""
","
",443.9600000041537,NA,49,NA,NA,3000,1,NA,NA,images/earth.jpg,images/rocket1,images/rocket2,null,images/rocket2,NA,1,real,null,NA,NA,1,NA,sub58
d3-animate-choice,223,970086,0.0-76.0-1.29,FALSE,FALSE,TRUE,FALSE,"""event"",""trial"",""time""
""fullscreenenter"",""5"",""51639""
","
","
","""event"",""trial"",""time""
""fullscreenenter"",""5"",""51639""
","
",489.3099999972619,NA,48,NA,NA,3000,1,NA,NA,images/redplanet1.jpg,images/alien2,images/alien1,images/rocket2,images/alien2,images/nothing.png,2,real,true,0,2020-06-11T14:39:16Z,2,common,sub58
two-step-fixation,224,971092,0.0-76.0-2.29,FALSE,FALSE,TRUE,FALSE,"""event"",""trial"",""time""
""fullscreenenter"",""5"",""51639""
","
","
","""event"",""trial"",""time""
""fullscreenenter"",""5"",""51639""
","
",NA,images/earth.jpg,NA,NA,NA,NA,NA,NA,NA,NA,NA,NA,NA,NA,NA,fixation,NA,NA,NA,NA,NA,NA,sub58
d3-animate-choice,225,974687,0.0-76.0-0.30,FALSE,FALSE,TRUE,FALSE,"""event"",""trial"",""time""
""fullscreenenter"",""5"",""51639""
","
","
","""event"",""trial"",""time""
""fullscreenenter"",""5"",""51639""
","
",1591.5249999961816,NA,48,NA,NA,3000,1,3157.129999999539,48,images/earth.jpg,images/rocket1,images/rocket2,null,images/rocket1,NA,1,real,null,NA,NA,2,NA,sub58
d3-animate-choice,226,977072,0.0-76.0-1.30,FALSE,FALSE,TRUE,FALSE,"""event"",""trial"",""time""
""fullscreenenter"",""5"",""51639""
","
","
","""event"",""trial"",""time""
""fullscreenenter"",""5"",""51639""
","
",378.3049999984214,NA,48,NA,NA,3000,1,NA,NA,images/redplanet1.jpg,images/alien2,images/alien1,images/rocket1,images/alien2,images/t.png,2,real,false,1,2020-06-11T14:39:23Z,2,rare,sub58
two-step-fixation,227,978079,0.0-76.0-2.30,FALSE,FALSE,TRUE,FALSE,"""event"",""trial"",""time""
""fullscreenenter"",""5"",""51639""
","
","
","""event"",""trial"",""time""
""fullscreenenter"",""5"",""51639""
","
",NA,images/earth.jpg,NA,NA,NA,NA,NA,NA,NA,NA,NA,NA,NA,NA,NA,fixation,NA,NA,NA,NA,NA,NA,sub58
d3-animate-choice,228,981015,0.0-76.0-0.31,FALSE,FALSE,TRUE,FALSE,"""event"",""trial"",""time""
""fullscreenenter"",""5"",""51639""
","
","
","""event"",""trial"",""time""
""fullscreenenter"",""5"",""51639""
","
",928.5799999998417,NA,48,NA,NA,3000,1,NA,NA,images/earth.jpg,images/rocket1,images/rocket2,null,images/rocket1,NA,1,real,null,NA,NA,2,NA,sub58
d3-animate-choice,229,983631,0.0-76.0-1.31,FALSE,FALSE,TRUE,FALSE,"""event"",""trial"",""time""
""fullscreenenter"",""5"",""51639""
","
","
","""event"",""trial"",""time""
""fullscreenenter"",""5"",""51639""
","
",609.0449999973644,NA,48,NA,NA,3000,1,NA,NA,images/purpleplanet.jpg,images/alien4,images/alien3,images/rocket1,images/alien4,images/t.png,2,real,true,1,2020-06-11T14:39:30Z,2,common,sub58
two-step-fixation,230,984637,0.0-76.0-2.31,FALSE,FALSE,TRUE,FALSE,"""event"",""trial"",""time""
""fullscreenenter"",""5"",""51639""
","
","
","""event"",""trial"",""time""
""fullscreenenter"",""5"",""51639""
","
",NA,images/earth.jpg,NA,NA,NA,NA,NA,NA,NA,NA,NA,NA,NA,NA,NA,fixation,NA,NA,NA,NA,NA,NA,sub58
d3-animate-choice,231,987229,0.0-76.0-0.32,FALSE,FALSE,TRUE,FALSE,"""event"",""trial"",""time""
""fullscreenenter"",""5"",""51639""
","
","
","""event"",""trial"",""time""
""fullscreenenter"",""5"",""51639""
","
",585.3199999984354,NA,49,NA,NA,3000,1,NA,NA,images/earth.jpg,images/rocket1,images/rocket2,null,images/rocket2,NA,1,real,null,NA,NA,1,NA,sub58
d3-animate-choice,232,991022,0.0-76.0-1.32,FALSE,FALSE,TRUE,FALSE,"""event"",""trial"",""time""
""fullscreenenter"",""5"",""51639""
","
","
","""event"",""trial"",""time""
""fullscreenenter"",""5"",""51639""
","
",1785.394999998971,NA,49,NA,NA,3000,1,NA,NA,images/redplanet1.jpg,images/alien2,images/alien1,images/rocket2,images/alien1,images/t.png,2,real,true,1,2020-06-11T14:39:37Z,1,common,sub58
two-step-fixation,233,992029,0.0-76.0-2.32,FALSE,FALSE,TRUE,FALSE,"""event"",""trial"",""time""
""fullscreenenter"",""5"",""51639""
","
","
","""event"",""trial"",""time""
""fullscreenenter"",""5"",""51639""
","
",NA,images/earth.jpg,NA,NA,NA,NA,NA,NA,NA,NA,NA,NA,NA,NA,NA,fixation,NA,NA,NA,NA,NA,NA,sub58
d3-animate-choice,234,994963,0.0-76.0-0.33,FALSE,FALSE,TRUE,FALSE,"""event"",""trial"",""time""
""fullscreenenter"",""5"",""51639""
","
","
","""event"",""trial"",""time""
""fullscreenenter"",""5"",""51639""
","
",925.8149999950547,NA,48,NA,NA,3000,1,NA,NA,images/earth.jpg,images/rocket1,images/rocket2,null,images/rocket1,NA,1,real,null,NA,NA,2,NA,sub58
d3-animate-choice,235,998461,0.0-76.0-1.33,FALSE,FALSE,TRUE,FALSE,"""event"",""trial"",""time""
""fullscreenenter"",""5"",""51639""
","
","
","""event"",""trial"",""time""
""fullscreenenter"",""5"",""51639""
","
",1491.7750000022352,NA,48,NA,NA,3000,1,NA,NA,images/redplanet1.jpg,images/alien2,images/alien1,images/rocket1,images/alien2,images/t.png,2,real,false,1,2020-06-11T14:39:45Z,2,rare,sub58
two-step-fixation,236,999467,0.0-76.0-2.33,FALSE,FALSE,TRUE,FALSE,"""event"",""trial"",""time""
""fullscreenenter"",""5"",""51639""
","
","
","""event"",""trial"",""time""
""fullscreenenter"",""5"",""51639""
","
",NA,images/earth.jpg,NA,NA,NA,NA,NA,NA,NA,NA,NA,NA,NA,NA,NA,fixation,NA,NA,NA,NA,NA,NA,sub58
d3-animate-choice,237,1001830,0.0-76.0-0.34,FALSE,FALSE,TRUE,FALSE,"""event"",""trial"",""time""
""fullscreenenter"",""5"",""51639""
","
","
","""event"",""trial"",""time""
""fullscreenenter"",""5"",""51639""
","
",353.2199999972945,NA,49,NA,NA,3000,1,NA,NA,images/earth.jpg,images/rocket1,images/rocket2,null,images/rocket2,NA,1,real,null,NA,NA,1,NA,sub58
d3-animate-choice,238,1005667,0.0-76.0-1.34,FALSE,FALSE,TRUE,FALSE,"""event"",""trial"",""time""
""fullscreenenter"",""5"",""51639""
","
","
","""event"",""trial"",""time""
""fullscreenenter"",""5"",""51639""
","
",1832.3400000007823,NA,49,NA,NA,3000,1,NA,NA,images/redplanet1.jpg,images/alien2,images/alien1,images/rocket2,images/alien1,images/t.png,2,real,true,1,2020-06-11T14:39:52Z,1,common,sub58
two-step-fixation,239,1006673,0.0-76.0-2.34,FALSE,FALSE,TRUE,FALSE,"""event"",""trial"",""time""
""fullscreenenter"",""5"",""51639""
","
","
","""event"",""trial"",""time""
""fullscreenenter"",""5"",""51639""
","
",NA,images/earth.jpg,NA,NA,NA,NA,NA,NA,NA,NA,NA,NA,NA,NA,NA,fixation,NA,NA,NA,NA,NA,NA,sub58
d3-animate-choice,240,1010677,0.0-76.0-0.35,FALSE,FALSE,TRUE,FALSE,"""event"",""trial"",""time""
""fullscreenenter"",""5"",""51639""
","
","
","""event"",""trial"",""time""
""fullscreenenter"",""5"",""51639""
","
",2322.179999995511,NA,48,NA,NA,3000,1,NA,NA,images/earth.jpg,images/rocket1,images/rocket2,null,images/rocket1,NA,1,real,null,NA,NA,2,NA,sub58
d3-animate-choice,241,1014197,0.0-76.0-1.35,FALSE,FALSE,TRUE,FALSE,"""event"",""trial"",""time""
""fullscreenenter"",""5"",""51639""
","
","
","""event"",""trial"",""time""
""fullscreenenter"",""5"",""51639""
","
",1513.299999998766,NA,49,NA,NA,3000,1,NA,NA,images/redplanet1.jpg,images/alien2,images/alien1,images/rocket1,images/alien1,images/t.png,2,real,false,1,2020-06-11T14:40:00Z,1,rare,sub58
two-step-fixation,242,1015202,0.0-76.0-2.35,FALSE,FALSE,TRUE,FALSE,"""event"",""trial"",""time""
""fullscreenenter"",""5"",""51639""
","
","
","""event"",""trial"",""time""
""fullscreenenter"",""5"",""51639""
","
",NA,images/earth.jpg,NA,NA,NA,NA,NA,NA,NA,NA,NA,NA,NA,NA,NA,fixation,NA,NA,NA,NA,NA,NA,sub58
d3-animate-choice,243,1018198,0.0-76.0-0.36,FALSE,FALSE,TRUE,FALSE,"""event"",""trial"",""time""
""fullscreenenter"",""5"",""51639""
","
","
","""event"",""trial"",""time""
""fullscreenenter"",""5"",""51639""
","
",993.5450000048149,NA,48,NA,NA,3000,1,NA,NA,images/earth.jpg,images/rocket1,images/rocket2,null,images/rocket1,NA,1,real,null,NA,NA,2,NA,sub58
d3-animate-choice,244,1021834,0.0-76.0-1.36,FALSE,FALSE,TRUE,FALSE,"""event"",""trial"",""time""
""fullscreenenter"",""5"",""51639""
","
","
","""event"",""trial"",""time""
""fullscreenenter"",""5"",""51639""
","
",1629.4350000025006,NA,48,NA,NA,3000,1,NA,NA,images/redplanet1.jpg,images/alien2,images/alien1,images/rocket1,images/alien2,images/t.png,2,real,false,1,2020-06-11T14:40:08Z,2,rare,sub58
two-step-fixation,245,1022840,0.0-76.0-2.36,FALSE,FALSE,TRUE,FALSE,"""event"",""trial"",""time""
""fullscreenenter"",""5"",""51639""
","
","
","""event"",""trial"",""time""
""fullscreenenter"",""5"",""51639""
","
",NA,images/earth.jpg,NA,NA,NA,NA,NA,NA,NA,NA,NA,NA,NA,NA,NA,fixation,NA,NA,NA,NA,NA,NA,sub58
d3-animate-choice,246,1025418,0.0-76.0-0.37,FALSE,FALSE,TRUE,FALSE,"""event"",""trial"",""time""
""fullscreenenter"",""5"",""51639""
","
","
","""event"",""trial"",""time""
""fullscreenenter"",""5"",""51639""
","
",571.0049999980256,NA,49,NA,NA,3000,1,NA,NA,images/earth.jpg,images/rocket1,images/rocket2,null,images/rocket2,NA,1,real,null,NA,NA,1,NA,sub58
d3-animate-choice,247,1029289,0.0-76.0-1.37,FALSE,FALSE,TRUE,FALSE,"""event"",""trial"",""time""
""fullscreenenter"",""5"",""51639""
","
","
","""event"",""trial"",""time""
""fullscreenenter"",""5"",""51639""
","
",1868.1099999956787,NA,49,NA,NA,3000,1,NA,NA,images/redplanet1.jpg,images/alien2,images/alien1,images/rocket2,images/alien1,images/t.png,2,real,true,1,2020-06-11T14:40:15Z,1,common,sub58
two-step-fixation,248,1030292,0.0-76.0-2.37,FALSE,FALSE,TRUE,FALSE,"""event"",""trial"",""time""
""fullscreenenter"",""5"",""51639""
","
","
","""event"",""trial"",""time""
""fullscreenenter"",""5"",""51639""
","
",NA,images/earth.jpg,NA,NA,NA,NA,NA,NA,NA,NA,NA,NA,NA,NA,NA,fixation,NA,NA,NA,NA,NA,NA,sub58
d3-animate-choice,249,1032811,0.0-76.0-0.38,FALSE,FALSE,TRUE,FALSE,"""event"",""trial"",""time""
""fullscreenenter"",""5"",""51639""
","
","
","""event"",""trial"",""time""
""fullscreenenter"",""5"",""51639""
","
",515.7949999994598,NA,48,NA,NA,3000,1,NA,NA,images/earth.jpg,images/rocket1,images/rocket2,null,images/rocket1,NA,1,real,null,NA,NA,2,NA,sub58
d3-animate-choice,250,1036141,0.0-76.0-1.38,FALSE,FALSE,TRUE,FALSE,"""event"",""trial"",""time""
""fullscreenenter"",""5"",""51639""
","
","
","""event"",""trial"",""time""
""fullscreenenter"",""5"",""51639""
","
",1322.5900000034599,NA,48,NA,NA,3000,1,NA,NA,images/purpleplanet.jpg,images/alien4,images/alien3,images/rocket1,images/alien4,images/nothing.png,2,real,true,0,2020-06-11T14:40:22Z,2,common,sub58
two-step-fixation,251,1037147,0.0-76.0-2.38,FALSE,FALSE,TRUE,FALSE,"""event"",""trial"",""time""
""fullscreenenter"",""5"",""51639""
","
","
","""event"",""trial"",""time""
""fullscreenenter"",""5"",""51639""
","
",NA,images/earth.jpg,NA,NA,NA,NA,NA,NA,NA,NA,NA,NA,NA,NA,NA,fixation,NA,NA,NA,NA,NA,NA,sub58
d3-animate-choice,252,1039719,0.0-76.0-0.39,FALSE,FALSE,TRUE,FALSE,"""event"",""trial"",""time""
""fullscreenenter"",""5"",""51639""
","
","
","""event"",""trial"",""time""
""fullscreenenter"",""5"",""51639""
","
",567.4900000011548,NA,48,NA,NA,3000,1,NA,NA,images/earth.jpg,images/rocket1,images/rocket2,null,images/rocket1,NA,1,real,null,NA,NA,2,NA,sub58
d3-animate-choice,253,1043292,0.0-76.0-1.39,FALSE,FALSE,TRUE,FALSE,"""event"",""trial"",""time""
""fullscreenenter"",""5"",""51639""
","
","
","""event"",""trial"",""time""
""fullscreenenter"",""5"",""51639""
","
",1570.7400000030175,NA,49,NA,NA,3000,1,NA,NA,images/redplanet1.jpg,images/alien2,images/alien1,images/rocket1,images/alien1,images/t.png,2,real,false,1,2020-06-11T14:40:29Z,1,rare,sub58
two-step-fixation,254,1044298,0.0-76.0-2.39,FALSE,FALSE,TRUE,FALSE,"""event"",""trial"",""time""
""fullscreenenter"",""5"",""51639""
","
","
","""event"",""trial"",""time""
""fullscreenenter"",""5"",""51639""
","
",NA,images/earth.jpg,NA,NA,NA,NA,NA,NA,NA,NA,NA,NA,NA,NA,NA,fixation,NA,NA,NA,NA,NA,NA,sub58
d3-animate-choice,255,1047299,0.0-76.0-0.40,FALSE,FALSE,TRUE,FALSE,"""event"",""trial"",""time""
""fullscreenenter"",""5"",""51639""
","
","
","""event"",""trial"",""time""
""fullscreenenter"",""5"",""51639""
","
",996.3649999990594,NA,48,NA,NA,3000,1,NA,NA,images/earth.jpg,images/rocket1,images/rocket2,null,images/rocket1,NA,1,real,null,NA,NA,2,NA,sub58
d3-animate-choice,256,1050437,0.0-76.0-1.40,FALSE,FALSE,TRUE,FALSE,"""event"",""trial"",""time""
""fullscreenenter"",""5"",""51639""
","
","
","""event"",""trial"",""time""
""fullscreenenter"",""5"",""51639""
","
",1132.5399999986403,NA,49,NA,NA,3000,1,NA,NA,images/purpleplanet.jpg,images/alien4,images/alien3,images/rocket1,images/alien3,images/t.png,2,real,true,1,2020-06-11T14:40:36Z,1,common,sub58
two-step-fixation,257,1051440,0.0-76.0-2.40,FALSE,FALSE,TRUE,FALSE,"""event"",""trial"",""time""
""fullscreenenter"",""5"",""51639""
","
","
","""event"",""trial"",""time""
""fullscreenenter"",""5"",""51639""
","
",NA,images/earth.jpg,NA,NA,NA,NA,NA,NA,NA,NA,NA,NA,NA,NA,NA,fixation,NA,NA,NA,NA,NA,NA,sub58
d3-animate-choice,258,1054538,0.0-76.0-0.41,FALSE,FALSE,TRUE,FALSE,"""event"",""trial"",""time""
""fullscreenenter"",""5"",""51639""
","
","
","""event"",""trial"",""time""
""fullscreenenter"",""5"",""51639""
","
",1091.4350000021514,NA,49,NA,NA,3000,1,NA,NA,images/earth.jpg,images/rocket1,images/rocket2,null,images/rocket2,NA,1,real,null,NA,NA,1,NA,sub58
d3-animate-choice,259,1057863,0.0-76.0-1.41,FALSE,FALSE,TRUE,FALSE,"""event"",""trial"",""time""
""fullscreenenter"",""5"",""51639""
","
","
","""event"",""trial"",""time""
""fullscreenenter"",""5"",""51639""
","
",1317.6500000045635,NA,48,NA,NA,3000,1,NA,NA,images/redplanet1.jpg,images/alien2,images/alien1,images/rocket2,images/alien2,images/t.png,2,real,true,1,2020-06-11T14:40:44Z,2,common,sub58
two-step-fixation,260,1058869,0.0-76.0-2.41,FALSE,FALSE,TRUE,FALSE,"""event"",""trial"",""time""
""fullscreenenter"",""5"",""51639""
","
","
","""event"",""trial"",""time""
""fullscreenenter"",""5"",""51639""
","
",NA,images/earth.jpg,NA,NA,NA,NA,NA,NA,NA,NA,NA,NA,NA,NA,NA,fixation,NA,NA,NA,NA,NA,NA,sub58
d3-animate-choice,261,1062392,0.0-76.0-0.42,FALSE,FALSE,TRUE,FALSE,"""event"",""trial"",""time""
""fullscreenenter"",""5"",""51639""
","
","
","""event"",""trial"",""time""
""fullscreenenter"",""5"",""51639""
","
",1516.5649999980815,NA,48,NA,NA,3000,1,1558.314999994589,49,images/earth.jpg,images/rocket1,images/rocket2,null,images/rocket1,NA,1,real,null,NA,NA,2,NA,sub58
d3-animate-choice,262,1065777,0.0-76.0-1.42,FALSE,FALSE,TRUE,FALSE,"""event"",""trial"",""time""
""fullscreenenter"",""5"",""51639""
","
","
","""event"",""trial"",""time""
""fullscreenenter"",""5"",""51639""
","
",1377.6799999976065,NA,48,NA,NA,3000,1,NA,NA,images/purpleplanet.jpg,images/alien4,images/alien3,images/rocket1,images/alien4,images/t.png,2,real,true,1,2020-06-11T14:40:52Z,2,common,sub58
two-step-fixation,263,1066784,0.0-76.0-2.42,FALSE,FALSE,TRUE,FALSE,"""event"",""trial"",""time""
""fullscreenenter"",""5"",""51639""
","
","
","""event"",""trial"",""time""
""fullscreenenter"",""5"",""51639""
","
",NA,images/earth.jpg,NA,NA,NA,NA,NA,NA,NA,NA,NA,NA,NA,NA,NA,fixation,NA,NA,NA,NA,NA,NA,sub58
d3-animate-choice,264,1069281,0.0-76.0-0.43,FALSE,FALSE,TRUE,FALSE,"""event"",""trial"",""time""
""fullscreenenter"",""5"",""51639""
","
","
","""event"",""trial"",""time""
""fullscreenenter"",""5"",""51639""
","
",490.2049999947194,NA,49,NA,NA,3000,1,NA,NA,images/earth.jpg,images/rocket1,images/rocket2,null,images/rocket2,NA,1,real,null,NA,NA,1,NA,sub58
d3-animate-choice,265,1072966,0.0-76.0-1.43,FALSE,FALSE,TRUE,FALSE,"""event"",""trial"",""time""
""fullscreenenter"",""5"",""51639""
","
","
","""event"",""trial"",""time""
""fullscreenenter"",""5"",""51639""
","
",1680.9450000000652,NA,49,NA,NA,3000,1,NA,NA,images/redplanet1.jpg,images/alien2,images/alien1,images/rocket2,images/alien1,images/t.png,2,real,true,1,2020-06-11T14:40:59Z,1,common,sub58
two-step-fixation,266,1073974,0.0-76.0-2.43,FALSE,FALSE,TRUE,FALSE,"""event"",""trial"",""time""
""fullscreenenter"",""5"",""51639""
","
","
","""event"",""trial"",""time""
""fullscreenenter"",""5"",""51639""
","
",NA,images/earth.jpg,NA,NA,NA,NA,NA,NA,NA,NA,NA,NA,NA,NA,NA,fixation,NA,NA,NA,NA,NA,NA,sub58
d3-animate-choice,267,1076535,0.0-76.0-0.44,FALSE,FALSE,TRUE,FALSE,"""event"",""trial"",""time""
""fullscreenenter"",""5"",""51639""
","
","
","""event"",""trial"",""time""
""fullscreenenter"",""5"",""51639""
","
",555.8099999979604,NA,48,NA,NA,3000,1,NA,NA,images/earth.jpg,images/rocket1,images/rocket2,null,images/rocket1,NA,1,real,null,NA,NA,2,NA,sub58
d3-animate-choice,268,1079874,0.0-76.0-1.44,FALSE,FALSE,TRUE,FALSE,"""event"",""trial"",""time""
""fullscreenenter"",""5"",""51639""
","
","
","""event"",""trial"",""time""
""fullscreenenter"",""5"",""51639""
","
",1334.2499999997672,NA,49,NA,NA,3000,1,NA,NA,images/purpleplanet.jpg,images/alien4,images/alien3,images/rocket1,images/alien3,images/nothing.png,2,real,true,0,2020-06-11T14:41:06Z,1,common,sub58
two-step-fixation,269,1080881,0.0-76.0-2.44,FALSE,FALSE,TRUE,FALSE,"""event"",""trial"",""time""
""fullscreenenter"",""5"",""51639""
","
","
","""event"",""trial"",""time""
""fullscreenenter"",""5"",""51639""
","
",NA,images/earth.jpg,NA,NA,NA,NA,NA,NA,NA,NA,NA,NA,NA,NA,NA,fixation,NA,NA,NA,NA,NA,NA,sub58
d3-animate-choice,270,1084013,0.0-76.0-0.45,FALSE,FALSE,TRUE,FALSE,"""event"",""trial"",""time""
""fullscreenenter"",""5"",""51639""
","
","
","""event"",""trial"",""time""
""fullscreenenter"",""5"",""51639""
","
",1124.8900000064168,NA,49,NA,NA,3000,1,NA,NA,images/earth.jpg,images/rocket1,images/rocket2,null,images/rocket2,NA,1,real,null,NA,NA,1,NA,sub58
d3-animate-choice,271,1087379,0.0-76.0-1.45,FALSE,FALSE,TRUE,FALSE,"""event"",""trial"",""time""
""fullscreenenter"",""5"",""51639""
","
","
","""event"",""trial"",""time""
""fullscreenenter"",""5"",""51639""
","
",1359.190000002738,NA,48,NA,NA,3000,1,NA,NA,images/purpleplanet.jpg,images/alien4,images/alien3,images/rocket2,images/alien4,images/t.png,2,real,false,1,2020-06-11T14:41:13Z,2,rare,sub58
two-step-fixation,272,1088385,0.0-76.0-2.45,FALSE,FALSE,TRUE,FALSE,"""event"",""trial"",""time""
""fullscreenenter"",""5"",""51639""
","
","
","""event"",""trial"",""time""
""fullscreenenter"",""5"",""51639""
","
",NA,images/earth.jpg,NA,NA,NA,NA,NA,NA,NA,NA,NA,NA,NA,NA,NA,fixation,NA,NA,NA,NA,NA,NA,sub58
d3-animate-choice,273,1090780,0.0-76.0-0.46,FALSE,FALSE,TRUE,FALSE,"""event"",""trial"",""time""
""fullscreenenter"",""5"",""51639""
","
","
","""event"",""trial"",""time""
""fullscreenenter"",""5"",""51639""
","
",387.38500000187196,NA,48,NA,NA,3000,1,NA,NA,images/earth.jpg,images/rocket1,images/rocket2,null,images/rocket1,NA,1,real,null,NA,NA,2,NA,sub58
d3-animate-choice,274,1093459,0.0-76.0-1.46,FALSE,FALSE,TRUE,FALSE,"""event"",""trial"",""time""
""fullscreenenter"",""5"",""51639""
","
","
","""event"",""trial"",""time""
""fullscreenenter"",""5"",""51639""
","
",672.7850000024773,NA,48,NA,NA,3000,1,NA,NA,images/purpleplanet.jpg,images/alien4,images/alien3,images/rocket1,images/alien4,images/nothing.png,2,real,true,0,2020-06-11T14:41:20Z,2,common,sub58
two-step-fixation,275,1094467,0.0-76.0-2.46,FALSE,FALSE,TRUE,FALSE,"""event"",""trial"",""time""
""fullscreenenter"",""5"",""51639""
","
","
","""event"",""trial"",""time""
""fullscreenenter"",""5"",""51639""
","
",NA,images/earth.jpg,NA,NA,NA,NA,NA,NA,NA,NA,NA,NA,NA,NA,NA,fixation,NA,NA,NA,NA,NA,NA,sub58
d3-animate-choice,276,1096800,0.0-76.0-0.47,FALSE,FALSE,TRUE,FALSE,"""event"",""trial"",""time""
""fullscreenenter"",""5"",""51639""
","
","
","""event"",""trial"",""time""
""fullscreenenter"",""5"",""51639""
","
",326.2800000011921,NA,49,NA,NA,3000,1,NA,NA,images/earth.jpg,images/rocket1,images/rocket2,null,images/rocket2,NA,1,real,null,NA,NA,1,NA,sub58
d3-animate-choice,277,1099647,0.0-76.0-1.47,FALSE,FALSE,TRUE,FALSE,"""event"",""trial"",""time""
""fullscreenenter"",""5"",""51639""
","
","
","""event"",""trial"",""time""
""fullscreenenter"",""5"",""51639""
","
",843.59500000556,NA,49,NA,NA,3000,1,NA,NA,images/redplanet1.jpg,images/alien2,images/alien1,images/rocket2,images/alien1,images/t.png,2,real,true,1,2020-06-11T14:41:26Z,1,common,sub58
two-step-fixation,278,1100649,0.0-76.0-2.47,FALSE,FALSE,TRUE,FALSE,"""event"",""trial"",""time""
""fullscreenenter"",""5"",""51639""
","
","
","""event"",""trial"",""time""
""fullscreenenter"",""5"",""51639""
","
",NA,images/earth.jpg,NA,NA,NA,NA,NA,NA,NA,NA,NA,NA,NA,NA,NA,fixation,NA,NA,NA,NA,NA,NA,sub58
d3-animate-choice,279,1102972,0.0-76.0-0.48,FALSE,FALSE,TRUE,FALSE,"""event"",""trial"",""time""
""fullscreenenter"",""5"",""51639""
","
","
","""event"",""trial"",""time""
""fullscreenenter"",""5"",""51639""
","
",316.6650000056252,NA,49,NA,NA,3000,1,"1751.645000003744,2236.7650000015274",4949,images/earth.jpg,images/rocket1,images/rocket2,null,images/rocket2,NA,1,real,null,NA,NA,1,NA,sub58
d3-animate-choice,280,1105254,0.0-76.0-1.48,FALSE,FALSE,TRUE,FALSE,"""event"",""trial"",""time""
""fullscreenenter"",""5"",""51639""
","
","
","""event"",""trial"",""time""
""fullscreenenter"",""5"",""51639""
","
",278.7650000026915,NA,49,NA,NA,3000,1,NA,NA,images/purpleplanet.jpg,images/alien4,images/alien3,images/rocket2,images/alien3,images/t.png,2,real,false,1,2020-06-11T14:41:31Z,1,rare,sub58
two-step-fixation,281,1106256,0.0-76.0-2.48,FALSE,FALSE,TRUE,FALSE,"""event"",""trial"",""time""
""fullscreenenter"",""5"",""51639""
","
","
","""event"",""trial"",""time""
""fullscreenenter"",""5"",""51639""
","
",NA,images/earth.jpg,NA,NA,NA,NA,NA,NA,NA,NA,NA,NA,NA,NA,NA,fixation,NA,NA,NA,NA,NA,NA,sub58
d3-animate-choice,282,1108579,0.0-76.0-0.49,FALSE,FALSE,TRUE,FALSE,"""event"",""trial"",""time""
""fullscreenenter"",""5"",""51639""
","
","
","""event"",""trial"",""time""
""fullscreenenter"",""5"",""51639""
","
",320.5400000005029,NA,49,NA,NA,3000,1,NA,NA,images/earth.jpg,images/rocket1,images/rocket2,null,images/rocket2,NA,1,real,null,NA,NA,1,NA,sub58
d3-animate-choice,283,1111031,0.0-76.0-1.49,FALSE,FALSE,TRUE,FALSE,"""event"",""trial"",""time""
""fullscreenenter"",""5"",""51639""
","
","
","""event"",""trial"",""time""
