trial_type,trial_index,time_elapsed,internal_node_id,rocket_sides,red_planet_first_rocket,red_display_order,purple_display_order,interactions,blur_events,focus_events,fullscreenenter_events,fullscreenexit_events,rt,stimulus,key_press,button_pressed,success,duration,valid_pressed,rts,keys,planet_text,right_text,left_text,center_text,chosen_text,reward_text,trial_stage,practice_trial,transition_type,choice,reward,timestamp,transition,subject_id
pavlovia,0,51,0.0-0.0,TRUE,FALSE,FALSE,TRUE,"
","
","
","
","
",NA,NA,NA,NA,NA,NA,NA,NA,NA,NA,NA,NA,NA,NA,NA,NA,NA,NA,NA,NA,NA,NA,sub73
html-keyboard-response,1,1447,0.0-1.0,TRUE,FALSE,FALSE,TRUE,"
","
","
","
","
",1391.0000000000018,Welcome! Press the space bar to begin.,32,NA,NA,NA,NA,NA,NA,NA,NA,NA,NA,NA,NA,NA,NA,NA,NA,NA,NA,NA,sub73
audio-keyboard-response,2,4258,0.0-2.0,TRUE,FALSE,FALSE,TRUE,"
","
","
","
","
",2685,audio/beep_loop.wav,32,NA,NA,NA,NA,NA,NA,NA,NA,NA,NA,NA,NA,NA,NA,NA,NA,NA,NA,NA,sub73
audio-button-response,3,7376,0.0-3.0,TRUE,FALSE,FALSE,TRUE,"
","
","
","
","
",NaN,audio/fish.mp3,NA,1,NA,NA,NA,NA,NA,NA,NA,NA,NA,NA,NA,NA,NA,NA,NA,NA,NA,NA,sub73
audio-button-response,4,10623,0.0-4.0,TRUE,FALSE,FALSE,TRUE,"""event"",""trial"",""time""
""fullscreenenter"",""5"",""18867""
","
","
","""event"",""trial"",""time""
""fullscreenenter"",""5"",""18867""
","
",NaN,audio/tiger.mp3,NA,4,NA,NA,NA,NA,NA,NA,NA,NA,NA,NA,NA,NA,NA,NA,NA,NA,NA,NA,sub73
fullscreen,5,19782,0.0-5.0,TRUE,FALSE,FALSE,TRUE,"""event"",""trial"",""time""
""fullscreenenter"",""5"",""18867""
","
","
","""event"",""trial"",""time""
""fullscreenenter"",""5"",""18867""
","
",NA,NA,NA,NA,TRUE,NA,NA,NA,NA,NA,NA,NA,NA,NA,NA,NA,NA,NA,NA,NA,NA,NA,sub73
d3-instructions,6,32370,0.0-6.0,TRUE,FALSE,FALSE,TRUE,"""event"",""trial"",""time""
""fullscreenenter"",""5"",""18867""
","
","
","""event"",""trial"",""time""
""fullscreenenter"",""5"",""18867""
","
",NA,NA,NA,NA,NA,NA,NA,NA,NA,NA,NA,NA,NA,NA,NA,NA,NA,NA,NA,NA,NA,NA,sub73
d3-instructions,7,39476,0.0-7.0,TRUE,FALSE,FALSE,TRUE,"""event"",""trial"",""time""
""fullscreenenter"",""5"",""18867""
","
","
","""event"",""trial"",""time""
""fullscreenenter"",""5"",""18867""
","
",NA,NA,NA,NA,NA,NA,NA,NA,NA,NA,NA,NA,NA,NA,NA,NA,NA,NA,NA,NA,NA,NA,sub73
d3-instructions,8,46242,0.0-8.0,TRUE,FALSE,FALSE,TRUE,"""event"",""trial"",""time""
""fullscreenenter"",""5"",""18867""
","
","
","""event"",""trial"",""time""
""fullscreenenter"",""5"",""18867""
","
",NA,NA,NA,NA,NA,NA,NA,NA,NA,NA,NA,NA,NA,NA,NA,NA,NA,NA,NA,NA,NA,NA,sub73
d3-instructions,9,56702,0.0-9.0,TRUE,FALSE,FALSE,TRUE,"""event"",""trial"",""time""
""fullscreenenter"",""5"",""18867""
","
","
","""event"",""trial"",""time""
""fullscreenenter"",""5"",""18867""
","
",NA,NA,NA,NA,NA,NA,NA,NA,NA,NA,NA,NA,NA,NA,NA,NA,NA,NA,NA,NA,NA,NA,sub73
d3-instructions,10,75576,0.0-10.0,TRUE,FALSE,FALSE,TRUE,"""event"",""trial"",""time""
""fullscreenenter"",""5"",""18867""
","
","
","""event"",""trial"",""time""
""fullscreenenter"",""5"",""18867""
","
",NA,NA,NA,NA,NA,NA,NA,NA,NA,NA,NA,NA,NA,NA,NA,NA,NA,NA,NA,NA,NA,NA,sub73
d3-animate-choice,11,78311,0.0-11.0,TRUE,FALSE,FALSE,TRUE,"""event"",""trial"",""time""
""fullscreenenter"",""5"",""18867""
","
","
","""event"",""trial"",""time""
""fullscreenenter"",""5"",""18867""
","
",729,NA,49,NA,NA,3000,1,"1508,2395.0000000000146",4848,images/tutgreenplanet.jpg,images/tutalien1,images/tutalien2,null,images/tutalien2,NA,NA,practice,null,NA,NA,NA,NA,sub73
d3-animate-choice,12,81769,0.0-12.0,TRUE,FALSE,FALSE,TRUE,"""event"",""trial"",""time""
""fullscreenenter"",""5"",""18867""
","
","
","""event"",""trial"",""time""
""fullscreenenter"",""5"",""18867""
","
",1453,NA,49,NA,NA,3000,1,2016,48,images/tutgreenplanet.jpg,images/tutalien1,images/tutalien2,null,images/tutalien2,NA,NA,practice,null,NA,NA,NA,NA,sub73
d3-animate-choice,13,83962,0.0-13.0,TRUE,FALSE,FALSE,TRUE,"""event"",""trial"",""time""
""fullscreenenter"",""5"",""18867""
","
","
","""event"",""trial"",""time""
""fullscreenenter"",""5"",""18867""
","
",190,NA,48,NA,NA,3000,1,NA,NA,images/tutgreenplanet.jpg,images/tutalien1,images/tutalien2,null,images/tutalien1,NA,NA,practice,null,NA,NA,NA,NA,sub73
d3-animate-choice,14,86513,0.0-14.0,TRUE,FALSE,FALSE,TRUE,"""event"",""trial"",""time""
""fullscreenenter"",""5"",""18867""
","
","
","""event"",""trial"",""time""
""fullscreenenter"",""5"",""18867""
","
",549,NA,48,NA,NA,3000,1,NA,NA,images/tutgreenplanet.jpg,images/tutalien1,images/tutalien2,null,images/tutalien1,NA,NA,practice,null,NA,NA,NA,NA,sub73
d3-instructions,15,95258,0.0-15.0,TRUE,FALSE,FALSE,TRUE,"""event"",""trial"",""time""
""fullscreenenter"",""5"",""18867""
","
","
","""event"",""trial"",""time""
""fullscreenenter"",""5"",""18867""
","
",NA,NA,NA,NA,NA,NA,NA,NA,NA,NA,NA,NA,NA,NA,NA,NA,NA,NA,NA,NA,NA,NA,sub73
d3-instructions,16,101744,0.0-16.0,TRUE,FALSE,FALSE,TRUE,"""event"",""trial"",""time""
""fullscreenenter"",""5"",""18867""
","
","
","""event"",""trial"",""time""
""fullscreenenter"",""5"",""18867""
","
",NA,NA,NA,NA,NA,NA,NA,NA,NA,NA,NA,NA,NA,NA,NA,NA,NA,NA,NA,NA,NA,NA,sub73
d3-instructions,17,110370,0.0-17.0,TRUE,FALSE,FALSE,TRUE,"""event"",""trial"",""time""
""fullscreenenter"",""5"",""18867""
","
","
","""event"",""trial"",""time""
""fullscreenenter"",""5"",""18867""
","
",NA,NA,NA,NA,NA,NA,NA,NA,NA,NA,NA,NA,NA,NA,NA,NA,NA,NA,NA,NA,NA,NA,sub73
d3-instructions,18,123146,0.0-18.0,TRUE,FALSE,FALSE,TRUE,"""event"",""trial"",""time""
""fullscreenenter"",""5"",""18867""
","
","
","""event"",""trial"",""time""
""fullscreenenter"",""5"",""18867""
","
",NA,NA,NA,NA,NA,NA,NA,NA,NA,NA,NA,NA,NA,NA,NA,NA,NA,NA,NA,NA,NA,NA,sub73
d3-instructions,19,136547,0.0-19.0,TRUE,FALSE,FALSE,TRUE,"""event"",""trial"",""time""
""fullscreenenter"",""5"",""18867""
","
","
","""event"",""trial"",""time""
""fullscreenenter"",""5"",""18867""
","
",NA,NA,NA,NA,NA,NA,NA,NA,NA,NA,NA,NA,NA,NA,NA,NA,NA,NA,NA,NA,NA,NA,sub73
d3-animate-choice,20,139069,0.0-20.0,TRUE,FALSE,FALSE,TRUE,"""event"",""trial"",""time""
""fullscreenenter"",""5"",""18867""
","
","
","""event"",""trial"",""time""
""fullscreenenter"",""5"",""18867""
","
",518,NA,49,NA,NA,3000,1,"1035,1679",4949,images/tutyellowplanet.jpg,null,images/tutalien3,null,images/tutalien3,images/t.png,NA,practice,null,NA,NA,NA,NA,sub73
d3-animate-choice,21,141402,0.0-21.0,TRUE,FALSE,FALSE,TRUE,"""event"",""trial"",""time""
""fullscreenenter"",""5"",""18867""
","
","
","""event"",""trial"",""time""
""fullscreenenter"",""5"",""18867""
","
",330,NA,49,NA,NA,3000,1,1536,49,images/tutyellowplanet.jpg,null,images/tutalien3,null,images/tutalien3,images/t.png,NA,practice,null,NA,NA,NA,NA,sub73
d3-animate-choice,22,144193,0.0-22.0,TRUE,FALSE,FALSE,TRUE,"""event"",""trial"",""time""
""fullscreenenter"",""5"",""18867""
","
","
","""event"",""trial"",""time""
""fullscreenenter"",""5"",""18867""
","
",788,NA,49,NA,NA,3000,1,NA,NA,images/tutyellowplanet.jpg,null,images/tutalien3,null,images/tutalien3,images/t.png,NA,practice,null,NA,NA,NA,NA,sub73
d3-animate-choice,23,146556,0.0-23.0,TRUE,FALSE,FALSE,TRUE,"""event"",""trial"",""time""
""fullscreenenter"",""5"",""18867""
","
","
","""event"",""trial"",""time""
""fullscreenenter"",""5"",""18867""
","
",361,NA,49,NA,NA,3000,1,1834,49,images/tutyellowplanet.jpg,null,images/tutalien3,null,images/tutalien3,images/t.png,NA,practice,null,NA,NA,NA,NA,sub73
d3-animate-choice,24,148999,0.0-24.0,TRUE,FALSE,FALSE,TRUE,"""event"",""trial"",""time""
""fullscreenenter"",""5"",""18867""
","
","
","""event"",""trial"",""time""
""fullscreenenter"",""5"",""18867""
","
",439,NA,49,NA,NA,3000,1,1911,49,images/tutyellowplanet.jpg,null,images/tutalien3,null,images/tutalien3,images/t.png,NA,practice,null,NA,NA,NA,NA,sub73
d3-animate-choice,25,151571,0.0-25.0,TRUE,FALSE,FALSE,TRUE,"""event"",""trial"",""time""
""fullscreenenter"",""5"",""18867""
","
","
","""event"",""trial"",""time""
""fullscreenenter"",""5"",""18867""
","
",569,NA,49,NA,NA,3000,1,2122,49,images/tutyellowplanet.jpg,null,images/tutalien3,null,images/tutalien3,images/nothing.png,NA,practice,null,NA,NA,NA,NA,sub73
d3-animate-choice,26,154106,0.0-26.0,TRUE,FALSE,FALSE,TRUE,"""event"",""trial"",""time""
""fullscreenenter"",""5"",""18867""
","
","
","""event"",""trial"",""time""
""fullscreenenter"",""5"",""18867""
","
",534,NA,49,NA,NA,3000,1,2031,49,images/tutyellowplanet.jpg,null,images/tutalien3,null,images/tutalien3,images/t.png,NA,practice,null,NA,NA,NA,NA,sub73
d3-animate-choice,27,156249,0.0-27.0,TRUE,FALSE,FALSE,TRUE,"""event"",""trial"",""time""
""fullscreenenter"",""5"",""18867""
","
","
","""event"",""trial"",""time""
""fullscreenenter"",""5"",""18867""
","
",139,NA,49,NA,NA,3000,1,"645,1275,1760",494949,images/tutyellowplanet.jpg,null,images/tutalien3,null,images/tutalien3,images/t.png,NA,practice,null,NA,NA,NA,NA,sub73
d3-animate-choice,28,158647,0.0-28.0,TRUE,FALSE,FALSE,TRUE,"""event"",""trial"",""time""
""fullscreenenter"",""5"",""18867""
","
","
","""event"",""trial"",""time""
""fullscreenenter"",""5"",""18867""
","
",395,NA,49,NA,NA,3000,1,1312.000000000029,49,images/tutyellowplanet.jpg,null,images/tutalien3,null,images/tutalien3,images/t.png,NA,practice,null,NA,NA,NA,NA,sub73
d3-animate-choice,29,160998,0.0-29.0,TRUE,FALSE,FALSE,TRUE,"""event"",""trial"",""time""
""fullscreenenter"",""5"",""18867""
","
","
","""event"",""trial"",""time""
""fullscreenenter"",""5"",""18867""
","
",348,NA,49,NA,NA,3000,1,NA,NA,images/tutyellowplanet.jpg,null,images/tutalien3,null,images/tutalien3,images/t.png,NA,practice,null,NA,NA,NA,NA,sub73
d3-instructions,30,168110,0.0-30.0,TRUE,FALSE,FALSE,TRUE,"""event"",""trial"",""time""
""fullscreenenter"",""5"",""18867""
","
","
","""event"",""trial"",""time""
""fullscreenenter"",""5"",""18867""
","
",NA,NA,NA,NA,NA,NA,NA,NA,NA,NA,NA,NA,NA,NA,NA,NA,NA,NA,NA,NA,NA,NA,sub73
d3-instructions,31,177272,0.0-31.0,TRUE,FALSE,FALSE,TRUE,"""event"",""trial"",""time""
""fullscreenenter"",""5"",""18867""
","
","
","""event"",""trial"",""time""
""fullscreenenter"",""5"",""18867""
","
",NA,NA,NA,NA,NA,NA,NA,NA,NA,NA,NA,NA,NA,NA,NA,NA,NA,NA,NA,NA,NA,NA,sub73
d3-instructions,32,189960,0.0-32.0,TRUE,FALSE,FALSE,TRUE,"""event"",""trial"",""time""
""fullscreenenter"",""5"",""18867""
","
","
","""event"",""trial"",""time""
""fullscreenenter"",""5"",""18867""
","
",NA,NA,NA,NA,NA,NA,NA,NA,NA,NA,NA,NA,NA,NA,NA,NA,NA,NA,NA,NA,NA,NA,sub73
d3-instructions,33,199607,0.0-33.0,TRUE,FALSE,FALSE,TRUE,"""event"",""trial"",""time""
""fullscreenenter"",""5"",""18867""
","
","
","""event"",""trial"",""time""
""fullscreenenter"",""5"",""18867""
","
",NA,NA,NA,NA,NA,NA,NA,NA,NA,NA,NA,NA,NA,NA,NA,NA,NA,NA,NA,NA,NA,NA,sub73
d3-animate-choice,34,203560,0.0-34.0,TRUE,FALSE,FALSE,TRUE,"""event"",""trial"",""time""
""fullscreenenter"",""5"",""18867""
","
","
","""event"",""trial"",""time""
""fullscreenenter"",""5"",""18867""
","
",1949,NA,49,NA,NA,3000,1,NA,NA,images/tutgreenplanet.jpg,images/tutalien1,images/tutalien2,null,images/tutalien2,images/t.png,NA,practice,null,NA,NA,NA,NA,sub73
d3-animate-choice,35,206690,0.0-35.0,TRUE,FALSE,FALSE,TRUE,"""event"",""trial"",""time""
""fullscreenenter"",""5"",""18867""
","
","
","""event"",""trial"",""time""
""fullscreenenter"",""5"",""18867""
","
",1127,NA,48,NA,NA,3000,1,NA,NA,images/tutgreenplanet.jpg,images/tutalien1,images/tutalien2,null,images/tutalien1,images/t.png,NA,practice,null,NA,NA,NA,NA,sub73
d3-animate-choice,36,209105,0.0-36.0,TRUE,FALSE,FALSE,TRUE,"""event"",""trial"",""time""
""fullscreenenter"",""5"",""18867""
","
","
","""event"",""trial"",""time""
""fullscreenenter"",""5"",""18867""
","
",412,NA,49,NA,NA,3000,1,NA,NA,images/tutgreenplanet.jpg,images/tutalien1,images/tutalien2,null,images/tutalien2,images/t.png,NA,practice,null,NA,NA,NA,NA,sub73
d3-animate-choice,37,212187,0.0-37.0,TRUE,FALSE,FALSE,TRUE,"""event"",""trial"",""time""
""fullscreenenter"",""5"",""18867""
","
","
","""event"",""trial"",""time""
""fullscreenenter"",""5"",""18867""
","
",1079,NA,48,NA,NA,3000,1,NA,NA,images/tutgreenplanet.jpg,images/tutalien1,images/tutalien2,null,images/tutalien1,images/nothing.png,NA,practice,null,NA,NA,NA,NA,sub73
d3-animate-choice,38,214840,0.0-38.0,TRUE,FALSE,FALSE,TRUE,"""event"",""trial"",""time""
""fullscreenenter"",""5"",""18867""
","
","
","""event"",""trial"",""time""
""fullscreenenter"",""5"",""18867""
","
",649,NA,49,NA,NA,3000,1,NA,NA,images/tutgreenplanet.jpg,images/tutalien1,images/tutalien2,null,images/tutalien2,images/t.png,NA,practice,null,NA,NA,NA,NA,sub73
d3-animate-choice,39,218399,0.0-39.0,TRUE,FALSE,FALSE,TRUE,"""event"",""trial"",""time""
""fullscreenenter"",""5"",""18867""
","
","
","""event"",""trial"",""time""
""fullscreenenter"",""5"",""18867""
","
",1556.000000000029,NA,49,NA,NA,3000,1,NA,NA,images/tutgreenplanet.jpg,images/tutalien1,images/tutalien2,null,images/tutalien2,images/t.png,NA,practice,null,NA,NA,NA,NA,sub73
d3-animate-choice,40,221008,0.0-40.0,TRUE,FALSE,FALSE,TRUE,"""event"",""trial"",""time""
""fullscreenenter"",""5"",""18867""
","
","
","""event"",""trial"",""time""
""fullscreenenter"",""5"",""18867""
","
",606,NA,49,NA,NA,3000,1,NA,NA,images/tutgreenplanet.jpg,images/tutalien1,images/tutalien2,null,images/tutalien2,images/t.png,NA,practice,null,NA,NA,NA,NA,sub73
d3-animate-choice,41,223336,0.0-41.0,TRUE,FALSE,FALSE,TRUE,"""event"",""trial"",""time""
""fullscreenenter"",""5"",""18867""
","
","
","""event"",""trial"",""time""
""fullscreenenter"",""5"",""18867""
","
",326,NA,49,NA,NA,3000,1,NA,NA,images/tutgreenplanet.jpg,images/tutalien1,images/tutalien2,null,images/tutalien2,images/t.png,NA,practice,null,NA,NA,NA,NA,sub73
d3-animate-choice,42,225641,0.0-42.0,TRUE,FALSE,FALSE,TRUE,"""event"",""trial"",""time""
""fullscreenenter"",""5"",""18867""
","
","
","""event"",""trial"",""time""
""fullscreenenter"",""5"",""18867""
","
",302,NA,49,NA,NA,3000,1,NA,NA,images/tutgreenplanet.jpg,images/tutalien1,images/tutalien2,null,images/tutalien2,images/t.png,NA,practice,null,NA,NA,NA,NA,sub73
d3-animate-choice,43,227919,0.0-43.0,TRUE,FALSE,FALSE,TRUE,"""event"",""trial"",""time""
""fullscreenenter"",""5"",""18867""
","
","
","""event"",""trial"",""time""
""fullscreenenter"",""5"",""18867""
","
",276,NA,49,NA,NA,3000,1,NA,NA,images/tutgreenplanet.jpg,images/tutalien1,images/tutalien2,null,images/tutalien2,images/t.png,NA,practice,null,NA,NA,NA,NA,sub73
d3-instructions,44,240696,0.0-44.0,TRUE,FALSE,FALSE,TRUE,"""event"",""trial"",""time""
""fullscreenenter"",""5"",""18867""
","
","
","""event"",""trial"",""time""
""fullscreenenter"",""5"",""18867""
","
",NA,NA,NA,NA,NA,NA,NA,NA,NA,NA,NA,NA,NA,NA,NA,NA,NA,NA,NA,NA,NA,NA,sub73
d3-instructions,45,247223,0.0-45.0,TRUE,FALSE,FALSE,TRUE,"""event"",""trial"",""time""
""fullscreenenter"",""5"",""18867""
","
","
","""event"",""trial"",""time""
""fullscreenenter"",""5"",""18867""
","
",NA,NA,NA,NA,NA,NA,NA,NA,NA,NA,NA,NA,NA,NA,NA,NA,NA,NA,NA,NA,NA,NA,sub73
d3-instructions,46,253381,0.0-46.0,TRUE,FALSE,FALSE,TRUE,"""event"",""trial"",""time""
""fullscreenenter"",""5"",""18867""
","
","
","""event"",""trial"",""time""
""fullscreenenter"",""5"",""18867""
","
",NA,NA,NA,NA,NA,NA,NA,NA,NA,NA,NA,NA,NA,NA,NA,NA,NA,NA,NA,NA,NA,NA,sub73
d3-instructions,47,270192,0.0-47.0,TRUE,FALSE,FALSE,TRUE,"""event"",""trial"",""time""
""fullscreenenter"",""5"",""18867""
","
","
","""event"",""trial"",""time""
""fullscreenenter"",""5"",""18867""
","
",NA,NA,NA,NA,NA,NA,NA,NA,NA,NA,NA,NA,NA,NA,NA,NA,NA,NA,NA,NA,NA,NA,sub73
d3-instructions,48,276534,0.0-48.0,TRUE,FALSE,FALSE,TRUE,"""event"",""trial"",""time""
""fullscreenenter"",""5"",""18867""
","
","
","""event"",""trial"",""time""
""fullscreenenter"",""5"",""18867""
","
",NA,NA,NA,NA,NA,NA,NA,NA,NA,NA,NA,NA,NA,NA,NA,NA,NA,NA,NA,NA,NA,NA,sub73
d3-instructions,49,287414,0.0-49.0,TRUE,FALSE,FALSE,TRUE,"""event"",""trial"",""time""
""fullscreenenter"",""5"",""18867""
","
","
","""event"",""trial"",""time""
""fullscreenenter"",""5"",""18867""
","
",NA,NA,NA,NA,NA,NA,NA,NA,NA,NA,NA,NA,NA,NA,NA,NA,NA,NA,NA,NA,NA,NA,sub73
d3-instructions,50,296451,0.0-50.0,TRUE,FALSE,FALSE,TRUE,"""event"",""trial"",""time""
""fullscreenenter"",""5"",""18867""
","
","
","""event"",""trial"",""time""
""fullscreenenter"",""5"",""18867""
","
",NA,NA,NA,NA,NA,NA,NA,NA,NA,NA,NA,NA,NA,NA,NA,NA,NA,NA,NA,NA,NA,NA,sub73
d3-instructions,51,298863,0.0-51.0,TRUE,FALSE,FALSE,TRUE,"""event"",""trial"",""time""
""fullscreenenter"",""5"",""18867""
","
","
","""event"",""trial"",""time""
""fullscreenenter"",""5"",""18867""
","
",NA,NA,NA,NA,NA,NA,NA,NA,NA,NA,NA,NA,NA,NA,NA,NA,NA,NA,NA,NA,NA,NA,sub73
d3-instructions,52,300989,0.0-52.0,TRUE,FALSE,FALSE,TRUE,"""event"",""trial"",""time""
""fullscreenenter"",""5"",""18867""
","
","
","""event"",""trial"",""time""
""fullscreenenter"",""5"",""18867""
","
",NA,NA,NA,NA,NA,NA,NA,NA,NA,NA,NA,NA,NA,NA,NA,NA,NA,NA,NA,NA,NA,NA,sub73
d3-instructions,53,315013,0.0-53.0,TRUE,FALSE,FALSE,TRUE,"""event"",""trial"",""time""
""fullscreenenter"",""5"",""18867""
","
","
","""event"",""trial"",""time""
""fullscreenenter"",""5"",""18867""
","
",NA,NA,NA,NA,NA,NA,NA,NA,NA,NA,NA,NA,NA,NA,NA,NA,NA,NA,NA,NA,NA,NA,sub73
d3-instructions,54,327109,0.0-54.0,TRUE,FALSE,FALSE,TRUE,"""event"",""trial"",""time""
""fullscreenenter"",""5"",""18867""
","
","
","""event"",""trial"",""time""
""fullscreenenter"",""5"",""18867""
","
",NA,NA,NA,NA,NA,NA,NA,NA,NA,NA,NA,NA,NA,NA,NA,NA,NA,NA,NA,NA,NA,NA,sub73
d3-instructions,55,336401,0.0-55.0,TRUE,FALSE,FALSE,TRUE,"""event"",""trial"",""time""
""fullscreenenter"",""5"",""18867""
","
","
","""event"",""trial"",""time""
""fullscreenenter"",""5"",""18867""
","
",NA,NA,NA,NA,NA,NA,NA,NA,NA,NA,NA,NA,NA,NA,NA,NA,NA,NA,NA,NA,NA,NA,sub73
d3-instructions,56,344075,0.0-56.0,TRUE,FALSE,FALSE,TRUE,"""event"",""trial"",""time""
""fullscreenenter"",""5"",""18867""
","
","
","""event"",""trial"",""time""
""fullscreenenter"",""5"",""18867""
","
",NA,NA,NA,NA,NA,NA,NA,NA,NA,NA,NA,NA,NA,NA,NA,NA,NA,NA,NA,NA,NA,NA,sub73
d3-instructions,57,353728,0.0-57.0,TRUE,FALSE,FALSE,TRUE,"""event"",""trial"",""time""
""fullscreenenter"",""5"",""18867""
","
","
","""event"",""trial"",""time""
""fullscreenenter"",""5"",""18867""
","
",NA,NA,NA,NA,NA,NA,NA,NA,NA,NA,NA,NA,NA,NA,NA,NA,NA,NA,NA,NA,NA,NA,sub73
d3-instructions,58,365064,0.0-58.0,TRUE,FALSE,FALSE,TRUE,"""event"",""trial"",""time""
""fullscreenenter"",""5"",""18867""
","
","
","""event"",""trial"",""time""
""fullscreenenter"",""5"",""18867""
","
",NA,NA,NA,NA,NA,NA,NA,NA,NA,NA,NA,NA,NA,NA,NA,NA,NA,NA,NA,NA,NA,NA,sub73
d3-instructions,59,371055,0.0-59.0,TRUE,FALSE,FALSE,TRUE,"""event"",""trial"",""time""
""fullscreenenter"",""5"",""18867""
","
","
","""event"",""trial"",""time""
""fullscreenenter"",""5"",""18867""
","
",NA,NA,NA,NA,NA,NA,NA,NA,NA,NA,NA,NA,NA,NA,NA,NA,NA,NA,NA,NA,NA,NA,sub73
d3-instructions,60,377726,0.0-60.0,TRUE,FALSE,FALSE,TRUE,"""event"",""trial"",""time""
""fullscreenenter"",""5"",""18867""
","
","
","""event"",""trial"",""time""
""fullscreenenter"",""5"",""18867""
","
",NA,NA,NA,NA,NA,NA,NA,NA,NA,NA,NA,NA,NA,NA,NA,NA,NA,NA,NA,NA,NA,NA,sub73
d3-animate-choice,61,381731,0.0-61.0-0.0,TRUE,FALSE,FALSE,TRUE,"""event"",""trial"",""time""
""fullscreenenter"",""5"",""18867""
","
","
","""event"",""trial"",""time""
""fullscreenenter"",""5"",""18867""
","
",3048,NA,48,NA,NA,3000,0,NA,NA,images/earth.jpg,images/tutrocket1,images/tutrocket2,null,NA,NA,1,practice,null,2,NA,NA,NA,sub73
d3-animate-choice,62,382737,0.0-61.0-1.0,TRUE,FALSE,FALSE,TRUE,"""event"",""trial"",""time""
""fullscreenenter"",""5"",""18867""
","
","
","""event"",""trial"",""time""
""fullscreenenter"",""5"",""18867""
","
",null,NA,null,NA,NA,0,0,NA,NA,images/earth.jpg,images/tutrocket1,images/tutrocket2,null,NA,NA,2,practice,null,NA,0,2020-06-16T23:34:11Z,NA,sub73
two-step-fixation,63,383740,0.0-61.0-2.0,TRUE,FALSE,FALSE,TRUE,"""event"",""trial"",""time""
""fullscreenenter"",""5"",""18867""
","
","
","""event"",""trial"",""time""
""fullscreenenter"",""5"",""18867""
","
",NA,images/earth.jpg,NA,NA,NA,NA,NA,NA,NA,NA,NA,NA,NA,NA,NA,fixation,NA,NA,NA,NA,NA,NA,sub73
d3-animate-choice,64,386412,0.0-61.0-0.1,TRUE,FALSE,FALSE,TRUE,"""event"",""trial"",""time""
""fullscreenenter"",""5"",""18867""
","
","
","""event"",""trial"",""time""
""fullscreenenter"",""5"",""18867""
","
",667.9999999999418,NA,48,NA,NA,3000,1,NA,NA,images/earth.jpg,images/tutrocket1,images/tutrocket2,null,images/tutrocket1,NA,1,practice,null,2,NA,NA,NA,sub73
d3-animate-choice,65,389789,0.0-61.0-1.1,TRUE,FALSE,FALSE,TRUE,"""event"",""trial"",""time""
""fullscreenenter"",""5"",""18867""
","
","
","""event"",""trial"",""time""
""fullscreenenter"",""5"",""18867""
","
",1374,NA,49,NA,NA,3000,1,NA,NA,images/tutyellowplanet.jpg,images/tutalien4,images/tutalien3,images/tutrocket1,images/tutalien3,images/t.png,2,practice,true,1,1,2020-06-16T23:34:18Z,common,sub73
two-step-fixation,66,390792,0.0-61.0-2.1,TRUE,FALSE,FALSE,TRUE,"""event"",""trial"",""time""
""fullscreenenter"",""5"",""18867""
","
","
","""event"",""trial"",""time""
""fullscreenenter"",""5"",""18867""
","
",NA,images/earth.jpg,NA,NA,NA,NA,NA,NA,NA,NA,NA,NA,NA,NA,NA,fixation,NA,NA,NA,NA,NA,NA,sub73
d3-animate-choice,67,393732,0.0-61.0-0.2,TRUE,FALSE,FALSE,TRUE,"""event"",""trial"",""time""
""fullscreenenter"",""5"",""18867""
","
","
","""event"",""trial"",""time""
""fullscreenenter"",""5"",""18867""
","
",937.0000000000582,NA,49,NA,NA,3000,1,NA,NA,images/earth.jpg,images/tutrocket1,images/tutrocket2,null,images/tutrocket2,NA,1,practice,null,1,NA,NA,NA,sub73
d3-animate-choice,68,396341,0.0-61.0-1.2,TRUE,FALSE,FALSE,TRUE,"""event"",""trial"",""time""
""fullscreenenter"",""5"",""18867""
","
","
","""event"",""trial"",""time""
""fullscreenenter"",""5"",""18867""
","
",605,NA,49,NA,NA,3000,1,NA,NA,images/tutgreenplanet.jpg,images/tutalien2,images/tutalien1,images/tutrocket2,images/tutalien1,images/t.png,2,practice,true,1,1,2020-06-16T23:34:24Z,common,sub73
two-step-fixation,69,397344,0.0-61.0-2.2,TRUE,FALSE,FALSE,TRUE,"""event"",""trial"",""time""
""fullscreenenter"",""5"",""18867""
","
","
","""event"",""trial"",""time""
""fullscreenenter"",""5"",""18867""
","
",NA,images/earth.jpg,NA,NA,NA,NA,NA,NA,NA,NA,NA,NA,NA,NA,NA,fixation,NA,NA,NA,NA,NA,NA,sub73
d3-animate-choice,70,399840,0.0-61.0-0.3,TRUE,FALSE,FALSE,TRUE,"""event"",""trial"",""time""
""fullscreenenter"",""5"",""18867""
","
","
","""event"",""trial"",""time""
""fullscreenenter"",""5"",""18867""
","
",493.0000000000582,NA,48,NA,NA,3000,1,NA,NA,images/earth.jpg,images/tutrocket1,images/tutrocket2,null,images/tutrocket1,NA,1,practice,null,2,NA,NA,NA,sub73
d3-animate-choice,71,402627,0.0-61.0-1.3,TRUE,FALSE,FALSE,TRUE,"""event"",""trial"",""time""
""fullscreenenter"",""5"",""18867""
","
","
","""event"",""trial"",""time""
""fullscreenenter"",""5"",""18867""
","
",783,NA,48,NA,NA,3000,1,NA,NA,images/tutyellowplanet.jpg,images/tutalien4,images/tutalien3,images/tutrocket1,images/tutalien4,images/t.png,2,practice,true,2,1,2020-06-16T23:34:31Z,common,sub73
two-step-fixation,72,403630,0.0-61.0-2.3,TRUE,FALSE,FALSE,TRUE,"""event"",""trial"",""time""
""fullscreenenter"",""5"",""18867""
","
","
","""event"",""trial"",""time""
""fullscreenenter"",""5"",""18867""
","
",NA,images/earth.jpg,NA,NA,NA,NA,NA,NA,NA,NA,NA,NA,NA,NA,NA,fixation,NA,NA,NA,NA,NA,NA,sub73
d3-animate-choice,73,406391,0.0-61.0-0.4,TRUE,FALSE,FALSE,TRUE,"""event"",""trial"",""time""
""fullscreenenter"",""5"",""18867""
","
","
","""event"",""trial"",""time""
""fullscreenenter"",""5"",""18867""
","
",759,NA,48,NA,NA,3000,1,NA,NA,images/earth.jpg,images/tutrocket1,images/tutrocket2,null,images/tutrocket1,NA,1,practice,null,2,NA,NA,NA,sub73
d3-animate-choice,74,408834,0.0-61.0-1.4,TRUE,FALSE,FALSE,TRUE,"""event"",""trial"",""time""
""fullscreenenter"",""5"",""18867""
","
","
","""event"",""trial"",""time""
""fullscreenenter"",""5"",""18867""
","
",439.0000000000582,NA,48,NA,NA,3000,1,NA,NA,images/tutyellowplanet.jpg,images/tutalien4,images/tutalien3,images/tutrocket1,images/tutalien4,images/t.png,2,practice,true,2,1,2020-06-16T23:34:37Z,common,sub73
two-step-fixation,75,409837,0.0-61.0-2.4,TRUE,FALSE,FALSE,TRUE,"""event"",""trial"",""time""
""fullscreenenter"",""5"",""18867""
","
","
","""event"",""trial"",""time""
""fullscreenenter"",""5"",""18867""
","
",NA,images/earth.jpg,NA,NA,NA,NA,NA,NA,NA,NA,NA,NA,NA,NA,NA,fixation,NA,NA,NA,NA,NA,NA,sub73
d3-animate-choice,76,412428,0.0-61.0-0.5,TRUE,FALSE,FALSE,TRUE,"""event"",""trial"",""time""
""fullscreenenter"",""5"",""18867""
","
","
","""event"",""trial"",""time""
""fullscreenenter"",""5"",""18867""
","
",587.9999999999418,NA,48,NA,NA,3000,1,NA,NA,images/earth.jpg,images/tutrocket1,images/tutrocket2,null,images/tutrocket1,NA,1,practice,null,2,NA,NA,NA,sub73
d3-animate-choice,77,414851,0.0-61.0-1.5,TRUE,FALSE,FALSE,TRUE,"""event"",""trial"",""time""
""fullscreenenter"",""5"",""18867""
","
","
","""event"",""trial"",""time""
""fullscreenenter"",""5"",""18867""
","
",420,NA,48,NA,NA,3000,1,NA,NA,images/tutyellowplanet.jpg,images/tutalien4,images/tutalien3,images/tutrocket1,images/tutalien4,images/nothing.png,2,practice,true,2,0,2020-06-16T23:34:43Z,common,sub73
two-step-fixation,78,415854,0.0-61.0-2.5,TRUE,FALSE,FALSE,TRUE,"""event"",""trial"",""time""
""fullscreenenter"",""5"",""18867""
","
","
","""event"",""trial"",""time""
""fullscreenenter"",""5"",""18867""
","
",NA,images/earth.jpg,NA,NA,NA,NA,NA,NA,NA,NA,NA,NA,NA,NA,NA,fixation,NA,NA,NA,NA,NA,NA,sub73
d3-animate-choice,79,418307,0.0-61.0-0.6,TRUE,FALSE,FALSE,TRUE,"""event"",""trial"",""time""
""fullscreenenter"",""5"",""18867""
","
","
","""event"",""trial"",""time""
""fullscreenenter"",""5"",""18867""
","
",451,NA,49,NA,NA,3000,1,NA,NA,images/earth.jpg,images/tutrocket1,images/tutrocket2,null,images/tutrocket2,NA,1,practice,null,1,NA,NA,NA,sub73
d3-animate-choice,80,420956,0.0-61.0-1.6,TRUE,FALSE,FALSE,TRUE,"""event"",""trial"",""time""
""fullscreenenter"",""5"",""18867""
","
","
","""event"",""trial"",""time""
""fullscreenenter"",""5"",""18867""
","
",646.9999999999418,NA,49,NA,NA,3000,1,NA,NA,images/tutgreenplanet.jpg,images/tutalien2,images/tutalien1,images/tutrocket2,images/tutalien1,images/nothing.png,2,practice,true,1,0,2020-06-16T23:34:49Z,common,sub73
two-step-fixation,81,421958,0.0-61.0-2.6,TRUE,FALSE,FALSE,TRUE,"""event"",""trial"",""time""
""fullscreenenter"",""5"",""18867""
","
","
","""event"",""trial"",""time""
""fullscreenenter"",""5"",""18867""
","
",NA,images/earth.jpg,NA,NA,NA,NA,NA,NA,NA,NA,NA,NA,NA,NA,NA,fixation,NA,NA,NA,NA,NA,NA,sub73
d3-animate-choice,82,424823,0.0-61.0-0.7,TRUE,FALSE,FALSE,TRUE,"""event"",""trial"",""time""
""fullscreenenter"",""5"",""18867""
","
","
","""event"",""trial"",""time""
""fullscreenenter"",""5"",""18867""
","
",861,NA,48,NA,NA,3000,1,NA,NA,images/earth.jpg,images/tutrocket1,images/tutrocket2,null,images/tutrocket1,NA,1,practice,null,2,NA,NA,NA,sub73
d3-animate-choice,83,427363,0.0-61.0-1.7,TRUE,FALSE,FALSE,TRUE,"""event"",""trial"",""time""
""fullscreenenter"",""5"",""18867""
","
","
","""event"",""trial"",""time""
""fullscreenenter"",""5"",""18867""
","
",537,NA,48,NA,NA,3000,1,NA,NA,images/tutgreenplanet.jpg,images/tutalien2,images/tutalien1,images/tutrocket1,images/tutalien2,images/t.png,2,practice,false,2,1,2020-06-16T23:34:55Z,rare,sub73
two-step-fixation,84,428365,0.0-61.0-2.7,TRUE,FALSE,FALSE,TRUE,"""event"",""trial"",""time""
""fullscreenenter"",""5"",""18867""
","
","
","""event"",""trial"",""time""
""fullscreenenter"",""5"",""18867""
","
",NA,images/earth.jpg,NA,NA,NA,NA,NA,NA,NA,NA,NA,NA,NA,NA,NA,fixation,NA,NA,NA,NA,NA,NA,sub73
d3-animate-choice,85,430716,0.0-61.0-0.8,TRUE,FALSE,FALSE,TRUE,"""event"",""trial"",""time""
""fullscreenenter"",""5"",""18867""
","
","
","""event"",""trial"",""time""
""fullscreenenter"",""5"",""18867""
","
",347,NA,48,NA,NA,3000,1,NA,NA,images/earth.jpg,images/tutrocket1,images/tutrocket2,null,images/tutrocket1,NA,1,practice,null,2,NA,NA,NA,sub73
d3-animate-choice,86,433106,0.0-61.0-1.8,TRUE,FALSE,FALSE,TRUE,"""event"",""trial"",""time""
""fullscreenenter"",""5"",""18867""
","
","
","""event"",""trial"",""time""
""fullscreenenter"",""5"",""18867""
","
",385.0000000000582,NA,48,NA,NA,3000,1,NA,NA,images/tutyellowplanet.jpg,images/tutalien4,images/tutalien3,images/tutrocket1,images/tutalien4,images/nothing.png,2,practice,true,2,0,2020-06-16T23:35:01Z,common,sub73
two-step-fixation,87,434108,0.0-61.0-2.8,TRUE,FALSE,FALSE,TRUE,"""event"",""trial"",""time""
""fullscreenenter"",""5"",""18867""
","
","
","""event"",""trial"",""time""
""fullscreenenter"",""5"",""18867""
","
",NA,images/earth.jpg,NA,NA,NA,NA,NA,NA,NA,NA,NA,NA,NA,NA,NA,fixation,NA,NA,NA,NA,NA,NA,sub73
d3-animate-choice,88,436570,0.0-61.0-0.9,TRUE,FALSE,FALSE,TRUE,"""event"",""trial"",""time""
""fullscreenenter"",""5"",""18867""
","
","
","""event"",""trial"",""time""
""fullscreenenter"",""5"",""18867""
","
",456.9999999999418,NA,49,NA,NA,3000,1,NA,NA,images/earth.jpg,images/tutrocket1,images/tutrocket2,null,images/tutrocket2,NA,1,practice,null,1,NA,NA,NA,sub73
d3-animate-choice,89,439155,0.0-61.0-1.9,TRUE,FALSE,FALSE,TRUE,"""event"",""trial"",""time""
""fullscreenenter"",""5"",""18867""
","
","
","""event"",""trial"",""time""
""fullscreenenter"",""5"",""18867""
","
",582,NA,49,NA,NA,3000,1,NA,NA,images/tutgreenplanet.jpg,images/tutalien2,images/tutalien1,images/tutrocket2,images/tutalien1,images/nothing.png,2,practice,true,1,0,2020-06-16T23:35:07Z,common,sub73
two-step-fixation,90,440158,0.0-61.0-2.9,TRUE,FALSE,FALSE,TRUE,"""event"",""trial"",""time""
""fullscreenenter"",""5"",""18867""
","
","
","""event"",""trial"",""time""
""fullscreenenter"",""5"",""18867""
","
",NA,images/earth.jpg,NA,NA,NA,NA,NA,NA,NA,NA,NA,NA,NA,NA,NA,fixation,NA,NA,NA,NA,NA,NA,sub73
d3-animate-choice,91,442582,0.0-61.0-0.10,TRUE,FALSE,FALSE,TRUE,"""event"",""trial"",""time""
""fullscreenenter"",""5"",""18867""
","
","
","""event"",""trial"",""time""
""fullscreenenter"",""5"",""18867""
","
",418.9999999999418,NA,49,NA,NA,3000,1,NA,NA,images/earth.jpg,images/tutrocket1,images/tutrocket2,null,images/tutrocket2,NA,1,practice,null,1,NA,NA,NA,sub73
d3-animate-choice,92,445160,0.0-61.0-1.10,TRUE,FALSE,FALSE,TRUE,"""event"",""trial"",""time""
""fullscreenenter"",""5"",""18867""
","
","
","""event"",""trial"",""time""
""fullscreenenter"",""5"",""18867""
","
",575,NA,48,NA,NA,3000,1,NA,NA,images/tutyellowplanet.jpg,images/tutalien4,images/tutalien3,images/tutrocket2,images/tutalien4,images/t.png,2,practice,false,2,1,2020-06-16T23:35:13Z,rare,sub73
two-step-fixation,93,446162,0.0-61.0-2.10,TRUE,FALSE,FALSE,TRUE,"""event"",""trial"",""time""
""fullscreenenter"",""5"",""18867""
","
","
","""event"",""trial"",""time""
""fullscreenenter"",""5"",""18867""
","
",NA,images/earth.jpg,NA,NA,NA,NA,NA,NA,NA,NA,NA,NA,NA,NA,NA,fixation,NA,NA,NA,NA,NA,NA,sub73
d3-animate-choice,94,448521,0.0-61.0-0.11,TRUE,FALSE,FALSE,TRUE,"""event"",""trial"",""time""
""fullscreenenter"",""5"",""18867""
","
","
","""event"",""trial"",""time""
""fullscreenenter"",""5"",""18867""
","
",356,NA,49,NA,NA,3000,1,NA,NA,images/earth.jpg,images/tutrocket1,images/tutrocket2,null,images/tutrocket2,NA,1,practice,null,1,NA,NA,NA,sub73
d3-animate-choice,95,450977,0.0-61.0-1.11,TRUE,FALSE,FALSE,TRUE,"""event"",""trial"",""time""
""fullscreenenter"",""5"",""18867""
","
","
","""event"",""trial"",""time""
""fullscreenenter"",""5"",""18867""
","
",452,NA,48,NA,NA,3000,1,NA,NA,images/tutyellowplanet.jpg,images/tutalien4,images/tutalien3,images/tutrocket2,images/tutalien4,images/nothing.png,2,practice,false,2,0,2020-06-16T23:35:19Z,rare,sub73
two-step-fixation,96,451980,0.0-61.0-2.11,TRUE,FALSE,FALSE,TRUE,"""event"",""trial"",""time""
""fullscreenenter"",""5"",""18867""
","
","
","""event"",""trial"",""time""
""fullscreenenter"",""5"",""18867""
","
",NA,images/earth.jpg,NA,NA,NA,NA,NA,NA,NA,NA,NA,NA,NA,NA,NA,fixation,NA,NA,NA,NA,NA,NA,sub73
d3-animate-choice,97,454278,0.0-61.0-0.12,TRUE,FALSE,FALSE,TRUE,"""event"",""trial"",""time""
""fullscreenenter"",""5"",""18867""
","
","
","""event"",""trial"",""time""
""fullscreenenter"",""5"",""18867""
","
",296,NA,48,NA,NA,3000,1,NA,NA,images/earth.jpg,images/tutrocket1,images/tutrocket2,null,images/tutrocket1,NA,1,practice,null,2,NA,NA,NA,sub73
d3-animate-choice,98,457272,0.0-61.0-1.12,TRUE,FALSE,FALSE,TRUE,"""event"",""trial"",""time""
""fullscreenenter"",""5"",""18867""
","
","
","""event"",""trial"",""time""
""fullscreenenter"",""5"",""18867""
","
",991,NA,48,NA,NA,3000,1,NA,NA,images/tutgreenplanet.jpg,images/tutalien2,images/tutalien1,images/tutrocket1,images/tutalien2,images/nothing.png,2,practice,false,2,0,2020-06-16T23:35:25Z,rare,sub73
two-step-fixation,99,458275,0.0-61.0-2.12,TRUE,FALSE,FALSE,TRUE,"""event"",""trial"",""time""
""fullscreenenter"",""5"",""18867""
","
","
","""event"",""trial"",""time""
""fullscreenenter"",""5"",""18867""
","
",NA,images/earth.jpg,NA,NA,NA,NA,NA,NA,NA,NA,NA,NA,NA,NA,NA,fixation,NA,NA,NA,NA,NA,NA,sub73
d3-animate-choice,100,460824,0.0-61.0-0.13,TRUE,FALSE,FALSE,TRUE,"""event"",""trial"",""time""
""fullscreenenter"",""5"",""18867""
","
","
","""event"",""trial"",""time""
""fullscreenenter"",""5"",""18867""
","
",545.9999999999418,NA,48,NA,NA,3000,1,NA,NA,images/earth.jpg,images/tutrocket1,images/tutrocket2,null,images/tutrocket1,NA,1,practice,null,2,NA,NA,NA,sub73
d3-animate-choice,101,463223,0.0-61.0-1.13,TRUE,FALSE,FALSE,TRUE,"""event"",""trial"",""time""
""fullscreenenter"",""5"",""18867""
","
","
","""event"",""trial"",""time""
""fullscreenenter"",""5"",""18867""
","
",395.9999999999418,NA,49,NA,NA,3000,1,NA,NA,images/tutyellowplanet.jpg,images/tutalien4,images/tutalien3,images/tutrocket1,images/tutalien3,images/t.png,2,practice,true,1,1,2020-06-16T23:35:31Z,common,sub73
two-step-fixation,102,464226,0.0-61.0-2.13,TRUE,FALSE,FALSE,TRUE,"""event"",""trial"",""time""
""fullscreenenter"",""5"",""18867""
","
","
","""event"",""trial"",""time""
""fullscreenenter"",""5"",""18867""
","
",NA,images/earth.jpg,NA,NA,NA,NA,NA,NA,NA,NA,NA,NA,NA,NA,NA,fixation,NA,NA,NA,NA,NA,NA,sub73
d3-animate-choice,103,466581,0.0-61.0-0.14,TRUE,FALSE,FALSE,TRUE,"""event"",""trial"",""time""
""fullscreenenter"",""5"",""18867""
","
","
","""event"",""trial"",""time""
""fullscreenenter"",""5"",""18867""
","
",354.0000000000582,NA,48,NA,NA,3000,1,NA,NA,images/earth.jpg,images/tutrocket1,images/tutrocket2,null,images/tutrocket1,NA,1,practice,null,2,NA,NA,NA,sub73
d3-animate-choice,104,469217,0.0-61.0-1.14,TRUE,FALSE,FALSE,TRUE,"""event"",""trial"",""time""
""fullscreenenter"",""5"",""18867""
","
","
","""event"",""trial"",""time""
""fullscreenenter"",""5"",""18867""
","
",632,NA,49,NA,NA,3000,1,NA,NA,images/tutyellowplanet.jpg,images/tutalien4,images/tutalien3,images/tutrocket1,images/tutalien3,images/t.png,2,practice,true,1,1,2020-06-16T23:35:37Z,common,sub73
two-step-fixation,105,470220,0.0-61.0-2.14,TRUE,FALSE,FALSE,TRUE,"""event"",""trial"",""time""
""fullscreenenter"",""5"",""18867""
","
","
","""event"",""trial"",""time""
""fullscreenenter"",""5"",""18867""
","
",NA,images/earth.jpg,NA,NA,NA,NA,NA,NA,NA,NA,NA,NA,NA,NA,NA,fixation,NA,NA,NA,NA,NA,NA,sub73
d3-animate-choice,106,472624,0.0-61.0-0.15,TRUE,FALSE,FALSE,TRUE,"""event"",""trial"",""time""
""fullscreenenter"",""5"",""18867""
","
","
","""event"",""trial"",""time""
""fullscreenenter"",""5"",""18867""
","
",400,NA,48,NA,NA,3000,1,NA,NA,images/earth.jpg,images/tutrocket1,images/tutrocket2,null,images/tutrocket1,NA,1,practice,null,2,NA,NA,NA,sub73
d3-animate-choice,107,475640,0.0-61.0-1.15,TRUE,FALSE,FALSE,TRUE,"""event"",""trial"",""time""
""fullscreenenter"",""5"",""18867""
","
","
","""event"",""trial"",""time""
""fullscreenenter"",""5"",""18867""
","
",1013,NA,49,NA,NA,3000,1,NA,NA,images/tutgreenplanet.jpg,images/tutalien2,images/tutalien1,images/tutrocket1,images/tutalien1,images/nothing.png,2,practice,false,1,0,2020-06-16T23:35:44Z,rare,sub73
two-step-fixation,108,476644,0.0-61.0-2.15,TRUE,FALSE,FALSE,TRUE,"""event"",""trial"",""time""
""fullscreenenter"",""5"",""18867""
","
","
","""event"",""trial"",""time""
""fullscreenenter"",""5"",""18867""
","
",NA,images/earth.jpg,NA,NA,NA,NA,NA,NA,NA,NA,NA,NA,NA,NA,NA,fixation,NA,NA,NA,NA,NA,NA,sub73
d3-animate-choice,109,478945,0.0-61.0-0.16,TRUE,FALSE,FALSE,TRUE,"""event"",""trial"",""time""
""fullscreenenter"",""5"",""18867""
","
","
","""event"",""trial"",""time""
""fullscreenenter"",""5"",""18867""
","
",297,NA,48,NA,NA,3000,1,NA,NA,images/earth.jpg,images/tutrocket1,images/tutrocket2,null,images/tutrocket1,NA,1,practice,null,2,NA,NA,NA,sub73
d3-animate-choice,110,481383,0.0-61.0-1.16,TRUE,FALSE,FALSE,TRUE,"""event"",""trial"",""time""
""fullscreenenter"",""5"",""18867""
","
","
","""event"",""trial"",""time""
""fullscreenenter"",""5"",""18867""
","
",434,NA,49,NA,NA,3000,1,NA,NA,images/tutgreenplanet.jpg,images/tutalien2,images/tutalien1,images/tutrocket1,images/tutalien1,images/nothing.png,2,practice,false,1,0,2020-06-16T23:35:49Z,rare,sub73
two-step-fixation,111,482385,0.0-61.0-2.16,TRUE,FALSE,FALSE,TRUE,"""event"",""trial"",""time""
""fullscreenenter"",""5"",""18867""
","
","
","""event"",""trial"",""time""
""fullscreenenter"",""5"",""18867""
","
",NA,images/earth.jpg,NA,NA,NA,NA,NA,NA,NA,NA,NA,NA,NA,NA,NA,fixation,NA,NA,NA,NA,NA,NA,sub73
d3-animate-choice,112,484834,0.0-61.0-0.17,TRUE,FALSE,FALSE,TRUE,"""event"",""trial"",""time""
""fullscreenenter"",""5"",""18867""
","
","
","""event"",""trial"",""time""
""fullscreenenter"",""5"",""18867""
","
",445,NA,48,NA,NA,3000,1,NA,NA,images/earth.jpg,images/tutrocket1,images/tutrocket2,null,images/tutrocket1,NA,1,practice,null,2,NA,NA,NA,sub73
d3-animate-choice,113,487452,0.0-61.0-1.17,TRUE,FALSE,FALSE,TRUE,"""event"",""trial"",""time""
""fullscreenenter"",""5"",""18867""
","
","
","""event"",""trial"",""time""
""fullscreenenter"",""5"",""18867""
","
",616,NA,48,NA,NA,3000,1,NA,NA,images/tutyellowplanet.jpg,images/tutalien4,images/tutalien3,images/tutrocket1,images/tutalien4,images/nothing.png,2,practice,true,2,0,2020-06-16T23:35:55Z,common,sub73
two-step-fixation,114,488454,0.0-61.0-2.17,TRUE,FALSE,FALSE,TRUE,"""event"",""trial"",""time""
""fullscreenenter"",""5"",""18867""
","
","
","""event"",""trial"",""time""
""fullscreenenter"",""5"",""18867""
","
",NA,images/earth.jpg,NA,NA,NA,NA,NA,NA,NA,NA,NA,NA,NA,NA,NA,fixation,NA,NA,NA,NA,NA,NA,sub73
d3-animate-choice,115,491012,0.0-61.0-0.18,TRUE,FALSE,FALSE,TRUE,"""event"",""trial"",""time""
""fullscreenenter"",""5"",""18867""
","
","
","""event"",""trial"",""time""
""fullscreenenter"",""5"",""18867""
","
",555,NA,49,NA,NA,3000,1,NA,NA,images/earth.jpg,images/tutrocket1,images/tutrocket2,null,images/tutrocket2,NA,1,practice,null,1,NA,NA,NA,sub73
d3-animate-choice,116,493623,0.0-61.0-1.18,TRUE,FALSE,FALSE,TRUE,"""event"",""trial"",""time""
""fullscreenenter"",""5"",""18867""
","
","
","""event"",""trial"",""time""
""fullscreenenter"",""5"",""18867""
","
",608,NA,49,NA,NA,3000,1,NA,NA,images/tutgreenplanet.jpg,images/tutalien2,images/tutalien1,images/tutrocket2,images/tutalien1,images/nothing.png,2,practice,true,1,0,2020-06-16T23:36:02Z,common,sub73
two-step-fixation,117,494628,0.0-61.0-2.18,TRUE,FALSE,FALSE,TRUE,"""event"",""trial"",""time""
""fullscreenenter"",""5"",""18867""
","
","
","""event"",""trial"",""time""
""fullscreenenter"",""5"",""18867""
","
",NA,images/earth.jpg,NA,NA,NA,NA,NA,NA,NA,NA,NA,NA,NA,NA,NA,fixation,NA,NA,NA,NA,NA,NA,sub73
d3-animate-choice,118,496974,0.0-61.0-0.19,TRUE,FALSE,FALSE,TRUE,"""event"",""trial"",""time""
""fullscreenenter"",""5"",""18867""
","
","
","""event"",""trial"",""time""
""fullscreenenter"",""5"",""18867""
","
",342,NA,49,NA,NA,3000,1,NA,NA,images/earth.jpg,images/tutrocket1,images/tutrocket2,null,images/tutrocket2,NA,1,practice,null,1,NA,NA,NA,sub73
d3-animate-choice,119,499379,0.0-61.0-1.19,TRUE,FALSE,FALSE,TRUE,"""event"",""trial"",""time""
""fullscreenenter"",""5"",""18867""
","
","
","""event"",""trial"",""time""
""fullscreenenter"",""5"",""18867""
","
",402,NA,48,NA,NA,3000,1,NA,NA,images/tutgreenplanet.jpg,images/tutalien2,images/tutalien1,images/tutrocket2,images/tutalien2,images/t.png,2,practice,true,2,1,2020-06-16T23:36:07Z,common,sub73
two-step-fixation,120,500381,0.0-61.0-2.19,TRUE,FALSE,FALSE,TRUE,"""event"",""trial"",""time""
""fullscreenenter"",""5"",""18867""
","
","
","""event"",""trial"",""time""
""fullscreenenter"",""5"",""18867""
","
",NA,images/earth.jpg,NA,NA,NA,NA,NA,NA,NA,NA,NA,NA,NA,NA,NA,fixation,NA,NA,NA,NA,NA,NA,sub73
d3-instructions,121,506708,0.0-62.0,TRUE,FALSE,FALSE,TRUE,"""event"",""trial"",""time""
""fullscreenenter"",""5"",""18867""
","
","
","""event"",""trial"",""time""
""fullscreenenter"",""5"",""18867""
","
",NA,NA,NA,NA,NA,NA,NA,NA,NA,NA,NA,NA,NA,NA,NA,NA,NA,NA,NA,NA,NA,NA,sub73
audio-keyboard-response,122,510998,0.0-63.0,TRUE,FALSE,FALSE,TRUE,"""event"",""trial"",""time""
""fullscreenenter"",""5"",""18867""
","
","
","""event"",""trial"",""time""
""fullscreenenter"",""5"",""18867""
","
",4290,audio/instructions/treasure_feedback.wav,32,NA,NA,NA,NA,NA,NA,NA,NA,NA,NA,NA,NA,NA,NA,NA,NA,NA,NA,NA,sub73
d3-instructions,123,530524,0.0-64.0,TRUE,FALSE,FALSE,TRUE,"""event"",""trial"",""time""
""fullscreenenter"",""5"",""18867""
","
","
","""event"",""trial"",""time""
""fullscreenenter"",""5"",""18867""
","
",NA,NA,NA,NA,NA,NA,NA,NA,NA,NA,NA,NA,NA,NA,NA,NA,NA,NA,NA,NA,NA,NA,sub73
d3-instructions,124,543829,0.0-65.0,TRUE,FALSE,FALSE,TRUE,"""event"",""trial"",""time""
""fullscreenenter"",""5"",""18867""
","
","
","""event"",""trial"",""time""
""fullscreenenter"",""5"",""18867""
","
",NA,NA,NA,NA,NA,NA,NA,NA,NA,NA,NA,NA,NA,NA,NA,NA,NA,NA,NA,NA,NA,NA,sub73
d3-instructions,125,568348,0.0-66.0,TRUE,FALSE,FALSE,TRUE,"""event"",""trial"",""time""
""fullscreenenter"",""5"",""18867""
","
","
","""event"",""trial"",""time""
""fullscreenenter"",""5"",""18867""
","
",NA,NA,NA,NA,NA,NA,NA,NA,NA,NA,NA,NA,NA,NA,NA,NA,NA,NA,NA,NA,NA,NA,sub73
d3-instructions,126,584212,0.0-67.0,TRUE,FALSE,FALSE,TRUE,"""event"",""trial"",""time""
""fullscreenenter"",""5"",""18867""
","
","
","""event"",""trial"",""time""
""fullscreenenter"",""5"",""18867""
","
",NA,NA,NA,NA,NA,NA,NA,NA,NA,NA,NA,NA,NA,NA,NA,NA,NA,NA,NA,NA,NA,NA,sub73
d3-instructions,127,594249,0.0-68.0,TRUE,FALSE,FALSE,TRUE,"""event"",""trial"",""time""
""fullscreenenter"",""5"",""18867""
","
","
","""event"",""trial"",""time""
""fullscreenenter"",""5"",""18867""
","
",NA,NA,NA,NA,NA,NA,NA,NA,NA,NA,NA,NA,NA,NA,NA,NA,NA,NA,NA,NA,NA,NA,sub73
instructions-quiz,128,601626,0.0-69.0,TRUE,FALSE,FALSE,TRUE,"""event"",""trial"",""time""
""fullscreenenter"",""5"",""18867""
","
","
","""event"",""trial"",""time""
""fullscreenenter"",""5"",""18867""
","
",7375,audio/quiz/Q1_Prompt.wav,NA,0,NA,NA,NA,NA,NA,NA,NA,NA,NA,NA,NA,NA,NA,NA,NA,NA,NA,NA,sub73
audio-keyboard-response,129,611890,0.0-70.0,TRUE,FALSE,FALSE,TRUE,"""event"",""trial"",""time""
""fullscreenenter"",""5"",""18867""
","
","
","""event"",""trial"",""time""
""fullscreenenter"",""5"",""18867""
","
",null,audio/quiz/Q1_Incorrect.wav,null,NA,NA,NA,NA,NA,NA,NA,NA,NA,NA,NA,NA,NA,NA,NA,NA,NA,NA,NA,sub73
instructions-quiz,130,616746,0.0-71.0,TRUE,FALSE,FALSE,TRUE,"""event"",""trial"",""time""
""fullscreenenter"",""5"",""18867""
","
","
","""event"",""trial"",""time""
""fullscreenenter"",""5"",""18867""
","
",4854,audio/quiz/Q2_Prompt.wav,NA,0,NA,NA,NA,NA,NA,NA,NA,NA,NA,NA,NA,NA,NA,NA,NA,NA,NA,NA,sub73
audio-keyboard-response,131,629616,0.0-72.0,TRUE,FALSE,FALSE,TRUE,"""event"",""trial"",""time""
""fullscreenenter"",""5"",""18867""
","
","
","""event"",""trial"",""time""
""fullscreenenter"",""5"",""18867""
","
",null,audio/quiz/Q2_Correct.wav,null,NA,NA,NA,NA,NA,NA,NA,NA,NA,NA,NA,NA,NA,NA,NA,NA,NA,NA,NA,sub73
instructions-quiz,132,633095,0.0-73.0,TRUE,FALSE,FALSE,TRUE,"""event"",""trial"",""time""
""fullscreenenter"",""5"",""18867""
","
","
","""event"",""trial"",""time""
""fullscreenenter"",""5"",""18867""
","
",3478.0000000001164,audio/quiz/Q3_Prompt.wav,NA,1,NA,NA,NA,NA,NA,NA,NA,NA,NA,NA,NA,NA,NA,NA,NA,NA,NA,NA,sub73
audio-keyboard-response,133,638896,0.0-74.0,TRUE,FALSE,FALSE,TRUE,"""event"",""trial"",""time""
""fullscreenenter"",""5"",""18867""
","
","
","""event"",""trial"",""time""
""fullscreenenter"",""5"",""18867""
","
",null,audio/quiz/Q3_Correct.wav,null,NA,NA,NA,NA,NA,NA,NA,NA,NA,NA,NA,NA,NA,NA,NA,NA,NA,NA,NA,sub73
d3-instructions,134,652396,0.0-75.0,TRUE,FALSE,FALSE,TRUE,"""event"",""trial"",""time""
""fullscreenenter"",""5"",""18867""
","
","
","""event"",""trial"",""time""
""fullscreenenter"",""5"",""18867""
","
",NA,NA,NA,NA,NA,NA,NA,NA,NA,NA,NA,NA,NA,NA,NA,NA,NA,NA,NA,NA,NA,NA,sub73
d3-animate-choice,135,655472,0.0-76.0-0.0,TRUE,FALSE,FALSE,TRUE,"""event"",""trial"",""time""
""fullscreenenter"",""5"",""18867""
","
","
","""event"",""trial"",""time""
""fullscreenenter"",""5"",""18867""
","
",1073.0000000001164,NA,49,NA,NA,3000,1,NA,NA,images/earth.jpg,images/rocket2,images/rocket1,null,images/rocket1,NA,1,real,null,1,NA,NA,NA,sub73
d3-animate-choice,136,658169,0.0-76.0-1.0,TRUE,FALSE,FALSE,TRUE,"""event"",""trial"",""time""
""fullscreenenter"",""5"",""18867""
","
","
","""event"",""trial"",""time""
""fullscreenenter"",""5"",""18867""
","
",695,NA,49,NA,NA,3000,1,NA,NA,images/purpleplanet.jpg,images/alien4,images/alien3,images/rocket1,images/alien3,images/nothing.png,2,real,true,1,0,2020-06-16T23:38:46Z,common,sub73
two-step-fixation,137,659171,0.0-76.0-2.0,TRUE,FALSE,FALSE,TRUE,"""event"",""trial"",""time""
""fullscreenenter"",""5"",""18867""
","
","
","""event"",""trial"",""time""
""fullscreenenter"",""5"",""18867""
","
",NA,images/earth.jpg,NA,NA,NA,NA,NA,NA,NA,NA,NA,NA,NA,NA,NA,fixation,NA,NA,NA,NA,NA,NA,sub73
d3-animate-choice,138,661598,0.0-76.0-0.1,TRUE,FALSE,FALSE,TRUE,"""event"",""trial"",""time""
""fullscreenenter"",""5"",""18867""
","
","
","""event"",""trial"",""time""
""fullscreenenter"",""5"",""18867""
","
",423.9999999998836,NA,49,NA,NA,3000,1,NA,NA,images/earth.jpg,images/rocket2,images/rocket1,null,images/rocket1,NA,1,real,null,1,NA,NA,NA,sub73
d3-animate-choice,139,665602,0.0-76.0-1.1,TRUE,FALSE,FALSE,TRUE,"""event"",""trial"",""time""
""fullscreenenter"",""5"",""18867""
","
","
","""event"",""trial"",""time""
""fullscreenenter"",""5"",""18867""
","
",886.9999999998836,NA,50,NA,NA,3000,1,"1937.9999999998836,2678.9999999998836,2686.9999999998836",504850,images/redplanet1.jpg,images/alien2,images/alien1,images/rocket1,images/alien2,NA,2,real,false,NA,0,2020-06-16T23:38:54Z,rare,sub73
two-step-fixation,140,666604,0.0-76.0-2.1,TRUE,FALSE,FALSE,TRUE,"""event"",""trial"",""time""
""fullscreenenter"",""5"",""18867""
","
","
","""event"",""trial"",""time""
""fullscreenenter"",""5"",""18867""
","
",NA,images/earth.jpg,NA,NA,NA,NA,NA,NA,NA,NA,NA,NA,NA,NA,NA,fixation,NA,NA,NA,NA,NA,NA,sub73
d3-animate-choice,141,669413,0.0-76.0-0.2,TRUE,FALSE,FALSE,TRUE,"""event"",""trial"",""time""
""fullscreenenter"",""5"",""18867""
","
","
","""event"",""trial"",""time""
""fullscreenenter"",""5"",""18867""
","
",804.9999999998836,NA,49,NA,NA,3000,1,NA,NA,images/earth.jpg,images/rocket2,images/rocket1,null,images/rocket1,NA,1,real,null,1,NA,NA,NA,sub73
d3-animate-choice,142,671881,0.0-76.0-1.2,TRUE,FALSE,FALSE,TRUE,"""event"",""trial"",""time""
""fullscreenenter"",""5"",""18867""
","
","
","""event"",""trial"",""time""
""fullscreenenter"",""5"",""18867""
","
",465.0000000001164,NA,48,NA,NA,3000,1,NA,NA,images/redplanet1.jpg,images/alien2,images/alien1,images/rocket1,images/alien2,images/t.png,2,real,false,2,1,2020-06-16T23:39:00Z,rare,sub73
two-step-fixation,143,672884,0.0-76.0-2.2,TRUE,FALSE,FALSE,TRUE,"""event"",""trial"",""time""
""fullscreenenter"",""5"",""18867""
","
","
","""event"",""trial"",""time""
""fullscreenenter"",""5"",""18867""
","
",NA,images/earth.jpg,NA,NA,NA,NA,NA,NA,NA,NA,NA,NA,NA,NA,NA,fixation,NA,NA,NA,NA,NA,NA,sub73
d3-animate-choice,144,675641,0.0-76.0-0.3,TRUE,FALSE,FALSE,TRUE,"""event"",""trial"",""time""
""fullscreenenter"",""5"",""18867""
","
","
","""event"",""trial"",""time""
""fullscreenenter"",""5"",""18867""
","
",753,NA,49,NA,NA,3000,1,NA,NA,images/earth.jpg,images/rocket2,images/rocket1,null,images/rocket1,NA,1,real,null,1,NA,NA,NA,sub73
d3-animate-choice,145,678294,0.0-76.0-1.3,TRUE,FALSE,FALSE,TRUE,"""event"",""trial"",""time""
""fullscreenenter"",""5"",""18867""
","
","
","""event"",""trial"",""time""
""fullscreenenter"",""5"",""18867""
","
",650,NA,48,NA,NA,3000,1,NA,NA,images/redplanet1.jpg,images/alien2,images/alien1,images/rocket1,images/alien2,images/t.png,2,real,false,2,1,2020-06-16T23:39:06Z,rare,sub73
two-step-fixation,146,679297,0.0-76.0-2.3,TRUE,FALSE,FALSE,TRUE,"""event"",""trial"",""time""
""fullscreenenter"",""5"",""18867""
","
","
","""event"",""trial"",""time""
""fullscreenenter"",""5"",""18867""
","
",NA,images/earth.jpg,NA,NA,NA,NA,NA,NA,NA,NA,NA,NA,NA,NA,NA,fixation,NA,NA,NA,NA,NA,NA,sub73
d3-animate-choice,147,681625,0.0-76.0-0.4,TRUE,FALSE,FALSE,TRUE,"""event"",""trial"",""time""
""fullscreenenter"",""5"",""18867""
","
","
","""event"",""trial"",""time""
""fullscreenenter"",""5"",""18867""
","
",324.9999999998836,NA,49,NA,NA,3000,1,NA,NA,images/earth.jpg,images/rocket2,images/rocket1,null,images/rocket1,NA,1,real,null,1,NA,NA,NA,sub73
d3-animate-choice,148,684167,0.0-76.0-1.4,TRUE,FALSE,FALSE,TRUE,"""event"",""trial"",""time""
""fullscreenenter"",""5"",""18867""
","
","
","""event"",""trial"",""time""
""fullscreenenter"",""5"",""18867""
","
",539,NA,49,NA,NA,3000,1,NA,NA,images/purpleplanet.jpg,images/alien4,images/alien3,images/rocket1,images/alien3,images/nothing.png,2,real,true,1,0,2020-06-16T23:39:12Z,common,sub73
two-step-fixation,149,685169,0.0-76.0-2.4,TRUE,FALSE,FALSE,TRUE,"""event"",""trial"",""time""
""fullscreenenter"",""5"",""18867""
","
","
","""event"",""trial"",""time""
""fullscreenenter"",""5"",""18867""
","
",NA,images/earth.jpg,NA,NA,NA,NA,NA,NA,NA,NA,NA,NA,NA,NA,NA,fixation,NA,NA,NA,NA,NA,NA,sub73
d3-animate-choice,150,687859,0.0-76.0-0.5,TRUE,FALSE,FALSE,TRUE,"""event"",""trial"",""time""
""fullscreenenter"",""5"",""18867""
","
","
","""event"",""trial"",""time""
""fullscreenenter"",""5"",""18867""
","
",688,NA,49,NA,NA,3000,1,NA,NA,images/earth.jpg,images/rocket2,images/rocket1,null,images/rocket1,NA,1,real,null,1,NA,NA,NA,sub73
d3-animate-choice,151,690942,0.0-76.0-1.5,TRUE,FALSE,FALSE,TRUE,"""event"",""trial"",""time""
""fullscreenenter"",""5"",""18867""
","
","
","""event"",""trial"",""time""
""fullscreenenter"",""5"",""18867""
","
",1080,NA,48,NA,NA,3000,1,NA,NA,images/purpleplanet.jpg,images/alien4,images/alien3,images/rocket1,images/alien4,images/t.png,2,real,true,2,1,2020-06-16T23:39:19Z,common,sub73
two-step-fixation,152,691943,0.0-76.0-2.5,TRUE,FALSE,FALSE,TRUE,"""event"",""trial"",""time""
""fullscreenenter"",""5"",""18867""
","
","
","""event"",""trial"",""time""
""fullscreenenter"",""5"",""18867""
","
",NA,images/earth.jpg,NA,NA,NA,NA,NA,NA,NA,NA,NA,NA,NA,NA,NA,fixation,NA,NA,NA,NA,NA,NA,sub73
d3-animate-choice,153,694366,0.0-76.0-0.6,TRUE,FALSE,FALSE,TRUE,"""event"",""trial"",""time""
""fullscreenenter"",""5"",""18867""
","
","
","""event"",""trial"",""time""
""fullscreenenter"",""5"",""18867""
","
",419,NA,49,NA,NA,3000,1,NA,NA,images/earth.jpg,images/rocket2,images/rocket1,null,images/rocket1,NA,1,real,null,1,NA,NA,NA,sub73
d3-animate-choice,154,697280,0.0-76.0-1.6,TRUE,FALSE,FALSE,TRUE,"""event"",""trial"",""time""
""fullscreenenter"",""5"",""18867""
","
","
","""event"",""trial"",""time""
""fullscreenenter"",""5"",""18867""
","
",910,NA,48,NA,NA,3000,1,NA,NA,images/purpleplanet.jpg,images/alien4,images/alien3,images/rocket1,images/alien4,images/t.png,2,real,true,2,1,2020-06-16T23:39:25Z,common,sub73
two-step-fixation,155,698282,0.0-76.0-2.6,TRUE,FALSE,FALSE,TRUE,"""event"",""trial"",""time""
""fullscreenenter"",""5"",""18867""
","
","
","""event"",""trial"",""time""
""fullscreenenter"",""5"",""18867""
","
",NA,images/earth.jpg,NA,NA,NA,NA,NA,NA,NA,NA,NA,NA,NA,NA,NA,fixation,NA,NA,NA,NA,NA,NA,sub73
d3-animate-choice,156,700671,0.0-76.0-0.7,TRUE,FALSE,FALSE,TRUE,"""event"",""trial"",""time""
""fullscreenenter"",""5"",""18867""
","
","
","""event"",""trial"",""time""
""fullscreenenter"",""5"",""18867""
","
",386,NA,49,NA,NA,3000,1,NA,NA,images/earth.jpg,images/rocket2,images/rocket1,null,images/rocket1,NA,1,real,null,1,NA,NA,NA,sub73
d3-animate-choice,157,703800,0.0-76.0-1.7,TRUE,FALSE,FALSE,TRUE,"""event"",""trial"",""time""
""fullscreenenter"",""5"",""18867""
","
","
","""event"",""trial"",""time""
""fullscreenenter"",""5"",""18867""
","
",1126.0000000001164,NA,49,NA,NA,3000,1,NA,NA,images/redplanet1.jpg,images/alien2,images/alien1,images/rocket1,images/alien1,images/t.png,2,real,false,1,1,2020-06-16T23:39:32Z,rare,sub73
two-step-fixation,158,704803,0.0-76.0-2.7,TRUE,FALSE,FALSE,TRUE,"""event"",""trial"",""time""
""fullscreenenter"",""5"",""18867""
","
","
","""event"",""trial"",""time""
""fullscreenenter"",""5"",""18867""
","
",NA,images/earth.jpg,NA,NA,NA,NA,NA,NA,NA,NA,NA,NA,NA,NA,NA,fixation,NA,NA,NA,NA,NA,NA,sub73
d3-animate-choice,159,707336,0.0-76.0-0.8,TRUE,FALSE,FALSE,TRUE,"""event"",""trial"",""time""
""fullscreenenter"",""5"",""18867""
","
","
","""event"",""trial"",""time""
""fullscreenenter"",""5"",""18867""
","
",529.9999999998836,NA,49,NA,NA,3000,1,NA,NA,images/earth.jpg,images/rocket2,images/rocket1,null,images/rocket1,NA,1,real,null,1,NA,NA,NA,sub73
d3-animate-choice,160,710285,0.0-76.0-1.8,TRUE,FALSE,FALSE,TRUE,"""event"",""trial"",""time""
""fullscreenenter"",""5"",""18867""
","
","
","""event"",""trial"",""time""
""fullscreenenter"",""5"",""18867""
","
",947,NA,49,NA,NA,3000,1,NA,NA,images/redplanet1.jpg,images/alien2,images/alien1,images/rocket1,images/alien1,images/nothing.png,2,real,false,1,0,2020-06-16T23:39:38Z,rare,sub73
two-step-fixation,161,711287,0.0-76.0-2.8,TRUE,FALSE,FALSE,TRUE,"""event"",""trial"",""time""
""fullscreenenter"",""5"",""18867""
","
","
","""event"",""trial"",""time""
""fullscreenenter"",""5"",""18867""
","
",NA,images/earth.jpg,NA,NA,NA,NA,NA,NA,NA,NA,NA,NA,NA,NA,NA,fixation,NA,NA,NA,NA,NA,NA,sub73
d3-animate-choice,162,714119,0.0-76.0-0.9,TRUE,FALSE,FALSE,TRUE,"""event"",""trial"",""time""
""fullscreenenter"",""5"",""18867""
","
","
","""event"",""trial"",""time""
""fullscreenenter"",""5"",""18867""
","
",829,NA,48,NA,NA,3000,1,NA,NA,images/earth.jpg,images/rocket2,images/rocket1,null,images/rocket2,NA,1,real,null,2,NA,NA,NA,sub73
d3-animate-choice,163,717257,0.0-76.0-1.9,TRUE,FALSE,FALSE,TRUE,"""event"",""trial"",""time""
""fullscreenenter"",""5"",""18867""
","
","
","""event"",""trial"",""time""
""fullscreenenter"",""5"",""18867""
","
",1135,NA,48,NA,NA,3000,1,NA,NA,images/purpleplanet.jpg,images/alien4,images/alien3,images/rocket2,images/alien4,images/t.png,2,real,false,2,1,2020-06-16T23:39:45Z,rare,sub73
two-step-fixation,164,718260,0.0-76.0-2.9,TRUE,FALSE,FALSE,TRUE,"""event"",""trial"",""time""
""fullscreenenter"",""5"",""18867""
","
","
","""event"",""trial"",""time""
""fullscreenenter"",""5"",""18867""
","
",NA,images/earth.jpg,NA,NA,NA,NA,NA,NA,NA,NA,NA,NA,NA,NA,NA,fixation,NA,NA,NA,NA,NA,NA,sub73
d3-animate-choice,165,720954,0.0-76.0-0.10,TRUE,FALSE,FALSE,TRUE,"""event"",""trial"",""time""
""fullscreenenter"",""5"",""18867""
","
","
","""event"",""trial"",""time""
""fullscreenenter"",""5"",""18867""
","
",692.0000000001164,NA,49,NA,NA,3000,1,NA,NA,images/earth.jpg,images/rocket2,images/rocket1,null,images/rocket1,NA,1,real,null,1,NA,NA,NA,sub73
d3-animate-choice,166,723819,0.0-76.0-1.10,TRUE,FALSE,FALSE,TRUE,"""event"",""trial"",""time""
""fullscreenenter"",""5"",""18867""
","
","
","""event"",""trial"",""time""
""fullscreenenter"",""5"",""18867""
","
",863.0000000001164,NA,48,NA,NA,3000,1,NA,NA,images/redplanet1.jpg,images/alien2,images/alien1,images/rocket1,images/alien2,images/t.png,2,real,false,2,1,2020-06-16T23:39:52Z,rare,sub73
two-step-fixation,167,724821,0.0-76.0-2.10,TRUE,FALSE,FALSE,TRUE,"""event"",""trial"",""time""
""fullscreenenter"",""5"",""18867""
","
","
","""event"",""trial"",""time""
""fullscreenenter"",""5"",""18867""
","
",NA,images/earth.jpg,NA,NA,NA,NA,NA,NA,NA,NA,NA,NA,NA,NA,NA,fixation,NA,NA,NA,NA,NA,NA,sub73
d3-animate-choice,168,727244,0.0-76.0-0.11,TRUE,FALSE,FALSE,TRUE,"""event"",""trial"",""time""
""fullscreenenter"",""5"",""18867""
","
","
","""event"",""trial"",""time""
""fullscreenenter"",""5"",""18867""
","
",420,NA,49,NA,NA,3000,1,NA,NA,images/earth.jpg,images/rocket2,images/rocket1,null,images/rocket1,NA,1,real,null,1,NA,NA,NA,sub73
d3-animate-choice,169,729684,0.0-76.0-1.11,TRUE,FALSE,FALSE,TRUE,"""event"",""trial"",""time""
""fullscreenenter"",""5"",""18867""
","
","
","""event"",""trial"",""time""
""fullscreenenter"",""5"",""18867""
","
",437,NA,48,NA,NA,3000,1,NA,NA,images/purpleplanet.jpg,images/alien4,images/alien3,images/rocket1,images/alien4,images/nothing.png,2,real,true,2,0,2020-06-16T23:39:58Z,common,sub73
two-step-fixation,170,730687,0.0-76.0-2.11,TRUE,FALSE,FALSE,TRUE,"""event"",""trial"",""time""
""fullscreenenter"",""5"",""18867""
","
","
","""event"",""trial"",""time""
""fullscreenenter"",""5"",""18867""
","
",NA,images/earth.jpg,NA,NA,NA,NA,NA,NA,NA,NA,NA,NA,NA,NA,NA,fixation,NA,NA,NA,NA,NA,NA,sub73
d3-animate-choice,171,733028,0.0-76.0-0.12,TRUE,FALSE,FALSE,TRUE,"""event"",""trial"",""time""
""fullscreenenter"",""5"",""18867""
","
","
","""event"",""trial"",""time""
""fullscreenenter"",""5"",""18867""
","
",338,NA,48,NA,NA,3000,1,NA,NA,images/earth.jpg,images/rocket2,images/rocket1,null,images/rocket2,NA,1,real,null,2,NA,NA,NA,sub73
d3-animate-choice,172,735556,0.0-76.0-1.12,TRUE,FALSE,FALSE,TRUE,"""event"",""trial"",""time""
""fullscreenenter"",""5"",""18867""
","
","
","""event"",""trial"",""time""
""fullscreenenter"",""5"",""18867""
","
",524,NA,48,NA,NA,3000,1,NA,NA,images/redplanet1.jpg,images/alien2,images/alien1,images/rocket2,images/alien2,images/t.png,2,real,true,2,1,2020-06-16T23:40:03Z,common,sub73
two-step-fixation,173,736558,0.0-76.0-2.12,TRUE,FALSE,FALSE,TRUE,"""event"",""trial"",""time""
""fullscreenenter"",""5"",""18867""
","
","
","""event"",""trial"",""time""
""fullscreenenter"",""5"",""18867""
","
",NA,images/earth.jpg,NA,NA,NA,NA,NA,NA,NA,NA,NA,NA,NA,NA,NA,fixation,NA,NA,NA,NA,NA,NA,sub73
d3-animate-choice,174,739084,0.0-76.0-0.13,TRUE,FALSE,FALSE,TRUE,"""event"",""trial"",""time""
""fullscreenenter"",""5"",""18867""
","
","
","""event"",""trial"",""time""
""fullscreenenter"",""5"",""18867""
","
",523,NA,48,NA,NA,3000,1,NA,NA,images/earth.jpg,images/rocket2,images/rocket1,null,images/rocket2,NA,1,real,null,2,NA,NA,NA,sub73
d3-animate-choice,175,742221,0.0-76.0-1.13,TRUE,FALSE,FALSE,TRUE,"""event"",""trial"",""time""
""fullscreenenter"",""5"",""18867""
","
","
","""event"",""trial"",""time""
""fullscreenenter"",""5"",""18867""
","
",1134,NA,49,NA,NA,3000,1,NA,NA,images/purpleplanet.jpg,images/alien4,images/alien3,images/rocket2,images/alien3,images/nothing.png,2,real,false,1,0,2020-06-16T23:40:10Z,rare,sub73
two-step-fixation,176,743223,0.0-76.0-2.13,TRUE,FALSE,FALSE,TRUE,"""event"",""trial"",""time""
""fullscreenenter"",""5"",""18867""
","
","
","""event"",""trial"",""time""
""fullscreenenter"",""5"",""18867""
","
",NA,images/earth.jpg,NA,NA,NA,NA,NA,NA,NA,NA,NA,NA,NA,NA,NA,fixation,NA,NA,NA,NA,NA,NA,sub73
d3-animate-choice,177,745632,0.0-76.0-0.14,TRUE,FALSE,FALSE,TRUE,"""event"",""trial"",""time""
""fullscreenenter"",""5"",""18867""
","
","
","""event"",""trial"",""time""
""fullscreenenter"",""5"",""18867""
","
",406,NA,49,NA,NA,3000,1,NA,NA,images/earth.jpg,images/rocket2,images/rocket1,null,images/rocket1,NA,1,real,null,1,NA,NA,NA,sub73
d3-animate-choice,178,748213,0.0-76.0-1.14,TRUE,FALSE,FALSE,TRUE,"""event"",""trial"",""time""
""fullscreenenter"",""5"",""18867""
","
","
","""event"",""trial"",""time""
""fullscreenenter"",""5"",""18867""
","
",577,NA,48,NA,NA,3000,1,NA,NA,images/redplanet1.jpg,images/alien2,images/alien1,images/rocket1,images/alien2,images/t.png,2,real,false,2,1,2020-06-16T23:40:16Z,rare,sub73
two-step-fixation,179,749215,0.0-76.0-2.14,TRUE,FALSE,FALSE,TRUE,"""event"",""trial"",""time""
""fullscreenenter"",""5"",""18867""
","
","
","""event"",""trial"",""time""
""fullscreenenter"",""5"",""18867""
","
",NA,images/earth.jpg,NA,NA,NA,NA,NA,NA,NA,NA,NA,NA,NA,NA,NA,fixation,NA,NA,NA,NA,NA,NA,sub73
d3-animate-choice,180,751597,0.0-76.0-0.15,TRUE,FALSE,FALSE,TRUE,"""event"",""trial"",""time""
""fullscreenenter"",""5"",""18867""
","
","
","""event"",""trial"",""time""
""fullscreenenter"",""5"",""18867""
","
",379,NA,49,NA,NA,3000,1,NA,NA,images/earth.jpg,images/rocket2,images/rocket1,null,images/rocket1,NA,1,real,null,1,NA,NA,NA,sub73
d3-animate-choice,181,754327,0.0-76.0-1.15,TRUE,FALSE,FALSE,TRUE,"""event"",""trial"",""time""
""fullscreenenter"",""5"",""18867""
","
","
","""event"",""trial"",""time""
""fullscreenenter"",""5"",""18867""
","
",726,NA,48,NA,NA,3000,1,NA,NA,images/redplanet1.jpg,images/alien2,images/alien1,images/rocket1,images/alien2,images/nothing.png,2,real,false,2,0,2020-06-16T23:40:22Z,rare,sub73
two-step-fixation,182,755330,0.0-76.0-2.15,TRUE,FALSE,FALSE,TRUE,"""event"",""trial"",""time""
""fullscreenenter"",""5"",""18867""
","
","
","""event"",""trial"",""time""
""fullscreenenter"",""5"",""18867""
","
",NA,images/earth.jpg,NA,NA,NA,NA,NA,NA,NA,NA,NA,NA,NA,NA,NA,fixation,NA,NA,NA,NA,NA,NA,sub73
d3-animate-choice,183,757678,0.0-76.0-0.16,TRUE,FALSE,FALSE,TRUE,"""event"",""trial"",""time""
""fullscreenenter"",""5"",""18867""
","
","
","""event"",""trial"",""time""
""fullscreenenter"",""5"",""18867""
","
",345,NA,49,NA,NA,3000,1,NA,NA,images/earth.jpg,images/rocket2,images/rocket1,null,images/rocket1,NA,1,real,null,1,NA,NA,NA,sub73
d3-animate-choice,184,760229,0.0-76.0-1.16,TRUE,FALSE,FALSE,TRUE,"""event"",""trial"",""time""
""fullscreenenter"",""5"",""18867""
","
","
","""event"",""trial"",""time""
""fullscreenenter"",""5"",""18867""
","
",548,NA,48,NA,NA,3000,1,NA,NA,images/purpleplanet.jpg,images/alien4,images/alien3,images/rocket1,images/alien4,images/t.png,2,real,true,2,1,2020-06-16T23:40:28Z,common,sub73
two-step-fixation,185,761231,0.0-76.0-2.16,TRUE,FALSE,FALSE,TRUE,"""event"",""trial"",""time""
""fullscreenenter"",""5"",""18867""
","
","
","""event"",""trial"",""time""
""fullscreenenter"",""5"",""18867""
","
",NA,images/earth.jpg,NA,NA,NA,NA,NA,NA,NA,NA,NA,NA,NA,NA,NA,fixation,NA,NA,NA,NA,NA,NA,sub73
d3-animate-choice,186,763628,0.0-76.0-0.17,TRUE,FALSE,FALSE,TRUE,"""event"",""trial"",""time""
""fullscreenenter"",""5"",""18867""
","
","
","""event"",""trial"",""time""
""fullscreenenter"",""5"",""18867""
","
",394,NA,49,NA,NA,3000,1,NA,NA,images/earth.jpg,images/rocket2,images/rocket1,null,images/rocket1,NA,1,real,null,1,NA,NA,NA,sub73
d3-animate-choice,187,766577,0.0-76.0-1.17,TRUE,FALSE,FALSE,TRUE,"""event"",""trial"",""time""
""fullscreenenter"",""5"",""18867""
","
","
","""event"",""trial"",""time""
""fullscreenenter"",""5"",""18867""
","
",945.0000000001164,NA,49,NA,NA,3000,1,NA,NA,images/redplanet1.jpg,images/alien2,images/alien1,images/rocket1,images/alien1,images/nothing.png,2,real,false,1,0,2020-06-16T23:40:34Z,rare,sub73
two-step-fixation,188,767579,0.0-76.0-2.17,TRUE,FALSE,FALSE,TRUE,"""event"",""trial"",""time""
""fullscreenenter"",""5"",""18867""
","
","
","""event"",""trial"",""time""
""fullscreenenter"",""5"",""18867""
","
",NA,images/earth.jpg,NA,NA,NA,NA,NA,NA,NA,NA,NA,NA,NA,NA,NA,fixation,NA,NA,NA,NA,NA,NA,sub73
d3-animate-choice,189,770120,0.0-76.0-0.18,TRUE,FALSE,FALSE,TRUE,"""event"",""trial"",""time""
""fullscreenenter"",""5"",""18867""
","
","
","""event"",""trial"",""time""
""fullscreenenter"",""5"",""18867""
","
",538.9999999998836,NA,49,NA,NA,3000,1,NA,NA,images/earth.jpg,images/rocket2,images/rocket1,null,images/rocket1,NA,1,real,null,1,NA,NA,NA,sub73
d3-animate-choice,190,773248,0.0-76.0-1.18,TRUE,FALSE,FALSE,TRUE,"""event"",""trial"",""time""
""fullscreenenter"",""5"",""18867""
","
","
","""event"",""trial"",""time""
""fullscreenenter"",""5"",""18867""
","
",1124,NA,48,NA,NA,3000,1,NA,NA,images/purpleplanet.jpg,images/alien4,images/alien3,images/rocket1,images/alien4,images/t.png,2,real,true,2,1,2020-06-16T23:40:41Z,common,sub73
two-step-fixation,191,774250,0.0-76.0-2.18,TRUE,FALSE,FALSE,TRUE,"""event"",""trial"",""time""
""fullscreenenter"",""5"",""18867""
","
","
","""event"",""trial"",""time""
""fullscreenenter"",""5"",""18867""
","
",NA,images/earth.jpg,NA,NA,NA,NA,NA,NA,NA,NA,NA,NA,NA,NA,NA,fixation,NA,NA,NA,NA,NA,NA,sub73
d3-animate-choice,192,776872,0.0-76.0-0.19,TRUE,FALSE,FALSE,TRUE,"""event"",""trial"",""time""
""fullscreenenter"",""5"",""18867""
","
","
","""event"",""trial"",""time""
""fullscreenenter"",""5"",""18867""
","
",607.0000000001164,NA,49,NA,NA,3000,1,NA,NA,images/earth.jpg,images/rocket2,images/rocket1,null,images/rocket1,NA,1,real,null,1,NA,NA,NA,sub73
d3-animate-choice,193,779743,0.0-76.0-1.19,TRUE,FALSE,FALSE,TRUE,"""event"",""trial"",""time""
""fullscreenenter"",""5"",""18867""
","
","
","""event"",""trial"",""time""
""fullscreenenter"",""5"",""18867""
","
",868.9999999998836,NA,48,NA,NA,3000,1,NA,NA,images/redplanet1.jpg,images/alien2,images/alien1,images/rocket1,images/alien2,images/t.png,2,real,false,2,1,2020-06-16T23:40:48Z,rare,sub73
two-step-fixation,194,780745,0.0-76.0-2.19,TRUE,FALSE,FALSE,TRUE,"""event"",""trial"",""time""
""fullscreenenter"",""5"",""18867""
","
","
","""event"",""trial"",""time""
""fullscreenenter"",""5"",""18867""
","
",NA,images/earth.jpg,NA,NA,NA,NA,NA,NA,NA,NA,NA,NA,NA,NA,NA,fixation,NA,NA,NA,NA,NA,NA,sub73
d3-animate-choice,195,783160,0.0-76.0-0.20,TRUE,FALSE,FALSE,TRUE,"""event"",""trial"",""time""
""fullscreenenter"",""5"",""18867""
","
","
","""event"",""trial"",""time""
""fullscreenenter"",""5"",""18867""
","
",413,NA,49,NA,NA,3000,1,NA,NA,images/earth.jpg,images/rocket2,images/rocket1,null,images/rocket1,NA,1,real,null,1,NA,NA,NA,sub73
d3-animate-choice,196,785984,0.0-76.0-1.20,TRUE,FALSE,FALSE,TRUE,"""event"",""trial"",""time""
""fullscreenenter"",""5"",""18867""
","
","
","""event"",""trial"",""time""
""fullscreenenter"",""5"",""18867""
","
",821,NA,48,NA,NA,3000,1,NA,NA,images/purpleplanet.jpg,images/alien4,images/alien3,images/rocket1,images/alien4,images/t.png,2,real,true,2,1,2020-06-16T23:40:54Z,common,sub73
two-step-fixation,197,786988,0.0-76.0-2.20,TRUE,FALSE,FALSE,TRUE,"""event"",""trial"",""time""
""fullscreenenter"",""5"",""18867""
","
","
","""event"",""trial"",""time""
""fullscreenenter"",""5"",""18867""
","
",NA,images/earth.jpg,NA,NA,NA,NA,NA,NA,NA,NA,NA,NA,NA,NA,NA,fixation,NA,NA,NA,NA,NA,NA,sub73
d3-animate-choice,198,789309,0.0-76.0-0.21,TRUE,FALSE,FALSE,TRUE,"""event"",""trial"",""time""
""fullscreenenter"",""5"",""18867""
","
","
","""event"",""trial"",""time""
""fullscreenenter"",""5"",""18867""
","
",316.0000000001164,NA,49,NA,NA,3000,1,NA,NA,images/earth.jpg,images/rocket2,images/rocket1,null,images/rocket1,NA,1,real,null,1,NA,NA,NA,sub73
d3-animate-choice,199,791740,0.0-76.0-1.21,TRUE,FALSE,FALSE,TRUE,"""event"",""trial"",""time""
""fullscreenenter"",""5"",""18867""
","
","
","""event"",""trial"",""time""
""fullscreenenter"",""5"",""18867""
","
",428,NA,48,NA,NA,3000,1,NA,NA,images/purpleplanet.jpg,images/alien4,images/alien3,images/rocket1,images/alien4,images/t.png,2,real,true,2,1,2020-06-16T23:41:00Z,common,sub73
two-step-fixation,200,792742,0.0-76.0-2.21,TRUE,FALSE,FALSE,TRUE,"""event"",""trial"",""time""
""fullscreenenter"",""5"",""18867""
","
","
","""event"",""trial"",""time""
""fullscreenenter"",""5"",""18867""
","
",NA,images/earth.jpg,NA,NA,NA,NA,NA,NA,NA,NA,NA,NA,NA,NA,NA,fixation,NA,NA,NA,NA,NA,NA,sub73
d3-animate-choice,201,795118,0.0-76.0-0.22,TRUE,FALSE,FALSE,TRUE,"""event"",""trial"",""time""
""fullscreenenter"",""5"",""18867""
","
","
","""event"",""trial"",""time""
""fullscreenenter"",""5"",""18867""
","
",371,NA,49,NA,NA,3000,1,NA,NA,images/earth.jpg,images/rocket2,images/rocket1,null,images/rocket1,NA,1,real,null,1,NA,NA,NA,sub73
d3-animate-choice,202,797865,0.0-76.0-1.22,TRUE,FALSE,FALSE,TRUE,"""event"",""trial"",""time""
""fullscreenenter"",""5"",""18867""
","
","
","""event"",""trial"",""time""
""fullscreenenter"",""5"",""18867""
","
",744,NA,48,NA,NA,3000,1,NA,NA,images/purpleplanet.jpg,images/alien4,images/alien3,images/rocket1,images/alien4,images/t.png,2,real,true,2,1,2020-06-16T23:41:06Z,common,sub73
two-step-fixation,203,798868,0.0-76.0-2.22,TRUE,FALSE,FALSE,TRUE,"""event"",""trial"",""time""
""fullscreenenter"",""5"",""18867""
","
","
","""event"",""trial"",""time""
""fullscreenenter"",""5"",""18867""
","
",NA,images/earth.jpg,NA,NA,NA,NA,NA,NA,NA,NA,NA,NA,NA,NA,NA,fixation,NA,NA,NA,NA,NA,NA,sub73
d3-animate-choice,204,801155,0.0-76.0-0.23,TRUE,FALSE,FALSE,TRUE,"""event"",""trial"",""time""
""fullscreenenter"",""5"",""18867""
","
","
","""event"",""trial"",""time""
""fullscreenenter"",""5"",""18867""
","
",283.0000000001164,NA,49,NA,NA,3000,1,NA,NA,images/earth.jpg,images/rocket2,images/rocket1,null,images/rocket1,NA,1,real,null,1,NA,NA,NA,sub73
d3-animate-choice,205,803556,0.0-76.0-1.23,TRUE,FALSE,FALSE,TRUE,"""event"",""trial"",""time""
""fullscreenenter"",""5"",""18867""
","
","
","""event"",""trial"",""time""
""fullscreenenter"",""5"",""18867""
","
",399,NA,48,NA,NA,3000,1,NA,NA,images/redplanet1.jpg,images/alien2,images/alien1,images/rocket1,images/alien2,images/t.png,2,real,false,2,1,2020-06-16T23:41:11Z,rare,sub73
two-step-fixation,206,804558,0.0-76.0-2.23,TRUE,FALSE,FALSE,TRUE,"""event"",""trial"",""time""
""fullscreenenter"",""5"",""18867""
","
","
","""event"",""trial"",""time""
""fullscreenenter"",""5"",""18867""
","
",NA,images/earth.jpg,NA,NA,NA,NA,NA,NA,NA,NA,NA,NA,NA,NA,NA,fixation,NA,NA,NA,NA,NA,NA,sub73
d3-animate-choice,207,806906,0.0-76.0-0.24,TRUE,FALSE,FALSE,TRUE,"""event"",""trial"",""time""
""fullscreenenter"",""5"",""18867""
","
","
","""event"",""trial"",""time""
""fullscreenenter"",""5"",""18867""
","
",346,NA,49,NA,NA,3000,1,NA,NA,images/earth.jpg,images/rocket2,images/rocket1,null,images/rocket1,NA,1,real,null,1,NA,NA,NA,sub73
d3-animate-choice,208,809411,0.0-76.0-1.24,TRUE,FALSE,FALSE,TRUE,"""event"",""trial"",""time""
""fullscreenenter"",""5"",""18867""
","
","
","""event"",""trial"",""time""
""fullscreenenter"",""5"",""18867""
","
",503,NA,48,NA,NA,3000,1,NA,NA,images/purpleplanet.jpg,images/alien4,images/alien3,images/rocket1,images/alien4,images/nothing.png,2,real,true,2,0,2020-06-16T23:41:17Z,common,sub73
two-step-fixation,209,810413,0.0-76.0-2.24,TRUE,FALSE,FALSE,TRUE,"""event"",""trial"",""time""
""fullscreenenter"",""5"",""18867""
","
","
","""event"",""trial"",""time""
""fullscreenenter"",""5"",""18867""
","
",NA,images/earth.jpg,NA,NA,NA,NA,NA,NA,NA,NA,NA,NA,NA,NA,NA,fixation,NA,NA,NA,NA,NA,NA,sub73
d3-animate-choice,210,812800,0.0-76.0-0.25,TRUE,FALSE,FALSE,TRUE,"""event"",""trial"",""time""
""fullscreenenter"",""5"",""18867""
","
","
","""event"",""trial"",""time""
""fullscreenenter"",""5"",""18867""
","
",383,NA,49,NA,NA,3000,1,NA,NA,images/earth.jpg,images/rocket2,images/rocket1,null,images/rocket1,NA,1,real,null,1,NA,NA,NA,sub73
d3-animate-choice,211,815281,0.0-76.0-1.25,TRUE,FALSE,FALSE,TRUE,"""event"",""trial"",""time""
""fullscreenenter"",""5"",""18867""
","
","
","""event"",""trial"",""time""
""fullscreenenter"",""5"",""18867""
","
",478,NA,49,NA,NA,3000,1,NA,NA,images/purpleplanet.jpg,images/alien4,images/alien3,images/rocket1,images/alien3,images/nothing.png,2,real,true,1,0,2020-06-16T23:41:23Z,common,sub73
two-step-fixation,212,816284,0.0-76.0-2.25,TRUE,FALSE,FALSE,TRUE,"""event"",""trial"",""time""
""fullscreenenter"",""5"",""18867""
","
","
","""event"",""trial"",""time""
""fullscreenenter"",""5"",""18867""
","
",NA,images/earth.jpg,NA,NA,NA,NA,NA,NA,NA,NA,NA,NA,NA,NA,NA,fixation,NA,NA,NA,NA,NA,NA,sub73
d3-animate-choice,213,818825,0.0-76.0-0.26,TRUE,FALSE,FALSE,TRUE,"""event"",""trial"",""time""
""fullscreenenter"",""5"",""18867""
","
","
","""event"",""trial"",""time""
""fullscreenenter"",""5"",""18867""
","
",538,NA,49,NA,NA,3000,1,NA,NA,images/earth.jpg,images/rocket2,images/rocket1,null,images/rocket1,NA,1,real,null,1,NA,NA,NA,sub73
d3-animate-choice,214,821340,0.0-76.0-1.26,TRUE,FALSE,FALSE,TRUE,"""event"",""trial"",""time""
""fullscreenenter"",""5"",""18867""
","
","
","""event"",""trial"",""time""
""fullscreenenter"",""5"",""18867""
","
",510.9999999998836,NA,48,NA,NA,3000,1,NA,NA,images/purpleplanet.jpg,images/alien4,images/alien3,images/rocket1,images/alien4,images/t.png,2,real,true,2,1,2020-06-16T23:41:29Z,common,sub73
two-step-fixation,215,822342,0.0-76.0-2.26,TRUE,FALSE,FALSE,TRUE,"""event"",""trial"",""time""
""fullscreenenter"",""5"",""18867""
","
","
","""event"",""trial"",""time""
""fullscreenenter"",""5"",""18867""
","
",NA,images/earth.jpg,NA,NA,NA,NA,NA,NA,NA,NA,NA,NA,NA,NA,NA,fixation,NA,NA,NA,NA,NA,NA,sub73
d3-animate-choice,216,824670,0.0-76.0-0.27,TRUE,FALSE,FALSE,TRUE,"""event"",""trial"",""time""
""fullscreenenter"",""5"",""18867""
","
","
","""event"",""trial"",""time""
""fullscreenenter"",""5"",""18867""
","
",325,NA,49,NA,NA,3000,1,NA,NA,images/earth.jpg,images/rocket2,images/rocket1,null,images/rocket1,NA,1,real,null,1,NA,NA,NA,sub73
d3-animate-choice,217,827170,0.0-76.0-1.27,TRUE,FALSE,FALSE,TRUE,"""event"",""trial"",""time""
""fullscreenenter"",""5"",""18867""
","
","
","""event"",""trial"",""time""
""fullscreenenter"",""5"",""18867""
","
",497,NA,48,NA,NA,3000,1,NA,NA,images/purpleplanet.jpg,images/alien4,images/alien3,images/rocket1,images/alien4,images/t.png,2,real,true,2,1,2020-06-16T23:41:35Z,common,sub73
two-step-fixation,218,828173,0.0-76.0-2.27,TRUE,FALSE,FALSE,TRUE,"""event"",""trial"",""time""
""fullscreenenter"",""5"",""18867""
","
","
","""event"",""trial"",""time""
""fullscreenenter"",""5"",""18867""
","
",NA,images/earth.jpg,NA,NA,NA,NA,NA,NA,NA,NA,NA,NA,NA,NA,NA,fixation,NA,NA,NA,NA,NA,NA,sub73
d3-animate-choice,219,830634,0.0-76.0-0.28,TRUE,FALSE,FALSE,TRUE,"""event"",""trial"",""time""
""fullscreenenter"",""5"",""18867""
","
","
","""event"",""trial"",""time""
""fullscreenenter"",""5"",""18867""
","
",458,NA,49,NA,NA,3000,1,NA,NA,images/earth.jpg,images/rocket2,images/rocket1,null,images/rocket1,NA,1,real,null,1,NA,NA,NA,sub73
d3-animate-choice,220,833602,0.0-76.0-1.28,TRUE,FALSE,FALSE,TRUE,"""event"",""trial"",""time""
""fullscreenenter"",""5"",""18867""
","
","
","""event"",""trial"",""time""
""fullscreenenter"",""5"",""18867""
","
",965.0000000001164,NA,48,NA,NA,3000,1,NA,NA,images/purpleplanet.jpg,images/alien4,images/alien3,images/rocket1,images/alien4,images/nothing.png,2,real,true,2,0,2020-06-16T23:41:42Z,common,sub73
two-step-fixation,221,834605,0.0-76.0-2.28,TRUE,FALSE,FALSE,TRUE,"""event"",""trial"",""time""
""fullscreenenter"",""5"",""18867""
","
","
","""event"",""trial"",""time""
""fullscreenenter"",""5"",""18867""
","
",NA,images/earth.jpg,NA,NA,NA,NA,NA,NA,NA,NA,NA,NA,NA,NA,NA,fixation,NA,NA,NA,NA,NA,NA,sub73
d3-animate-choice,222,836974,0.0-76.0-0.29,TRUE,FALSE,FALSE,TRUE,"""event"",""trial"",""time""
""fullscreenenter"",""5"",""18867""
","
","
","""event"",""trial"",""time""
""fullscreenenter"",""5"",""18867""
","
",365,NA,49,NA,NA,3000,1,NA,NA,images/earth.jpg,images/rocket2,images/rocket1,null,images/rocket1,NA,1,real,null,1,NA,NA,NA,sub73
d3-animate-choice,223,839507,0.0-76.0-1.29,TRUE,FALSE,FALSE,TRUE,"""event"",""trial"",""time""
""fullscreenenter"",""5"",""18867""
","
","
","""event"",""trial"",""time""
""fullscreenenter"",""5"",""18867""
","
",531,NA,48,NA,NA,3000,1,NA,NA,images/redplanet1.jpg,images/alien2,images/alien1,images/rocket1,images/alien2,images/t.png,2,real,false,2,1,2020-06-16T23:41:47Z,rare,sub73
two-step-fixation,224,840509,0.0-76.0-2.29,TRUE,FALSE,FALSE,TRUE,"""event"",""trial"",""time""
""fullscreenenter"",""5"",""18867""
","
","
","""event"",""trial"",""time""
""fullscreenenter"",""5"",""18867""
","
",NA,images/earth.jpg,NA,NA,NA,NA,NA,NA,NA,NA,NA,NA,NA,NA,NA,fixation,NA,NA,NA,NA,NA,NA,sub73
d3-animate-choice,225,842873,0.0-76.0-0.30,TRUE,FALSE,FALSE,TRUE,"""event"",""trial"",""time""
""fullscreenenter"",""5"",""18867""
","
","
","""event"",""trial"",""time""
""fullscreenenter"",""5"",""18867""
","
",361,NA,49,NA,NA,3000,1,NA,NA,images/earth.jpg,images/rocket2,images/rocket1,null,images/rocket1,NA,1,real,null,1,NA,NA,NA,sub73
d3-animate-choice,226,845397,0.0-76.0-1.30,TRUE,FALSE,FALSE,TRUE,"""event"",""trial"",""time""
""fullscreenenter"",""5"",""18867""
","
","
","""event"",""trial"",""time""
""fullscreenenter"",""5"",""18867""
","
",519.9999999998836,NA,48,NA,NA,3000,1,NA,NA,images/redplanet1.jpg,images/alien2,images/alien1,images/rocket1,images/alien2,images/t.png,2,real,false,2,1,2020-06-16T23:41:53Z,rare,sub73
two-step-fixation,227,846398,0.0-76.0-2.30,TRUE,FALSE,FALSE,TRUE,"""event"",""trial"",""time""
""fullscreenenter"",""5"",""18867""
","
","
","""event"",""trial"",""time""
""fullscreenenter"",""5"",""18867""
","
",NA,images/earth.jpg,NA,NA,NA,NA,NA,NA,NA,NA,NA,NA,NA,NA,NA,fixation,NA,NA,NA,NA,NA,NA,sub73
d3-animate-choice,228,848735,0.0-76.0-0.31,TRUE,FALSE,FALSE,TRUE,"""event"",""trial"",""time""
""fullscreenenter"",""5"",""18867""
","
","
","""event"",""trial"",""time""
""fullscreenenter"",""5"",""18867""
","
",333,NA,49,NA,NA,3000,1,NA,NA,images/earth.jpg,images/rocket2,images/rocket1,null,images/rocket1,NA,1,real,null,1,NA,NA,NA,sub73
d3-animate-choice,229,851173,0.0-76.0-1.31,TRUE,FALSE,FALSE,TRUE,"""event"",""trial"",""time""
""fullscreenenter"",""5"",""18867""
","
","
","""event"",""trial"",""time""
""fullscreenenter"",""5"",""18867""
","
",435.9999999998836,NA,48,NA,NA,3000,1,NA,NA,images/redplanet1.jpg,images/alien2,images/alien1,images/rocket1,images/alien2,images/t.png,2,real,false,2,1,2020-06-16T23:41:59Z,rare,sub73
two-step-fixation,230,852176,0.0-76.0-2.31,TRUE,FALSE,FALSE,TRUE,"""event"",""trial"",""time""
""fullscreenenter"",""5"",""18867""
","
","
","""event"",""trial"",""time""
""fullscreenenter"",""5"",""18867""
","
",NA,images/earth.jpg,NA,NA,NA,NA,NA,NA,NA,NA,NA,NA,NA,NA,NA,fixation,NA,NA,NA,NA,NA,NA,sub73
d3-animate-choice,231,855094,0.0-76.0-0.32,TRUE,FALSE,FALSE,TRUE,"""event"",""trial"",""time""
""fullscreenenter"",""5"",""18867""
","
","
","""event"",""trial"",""time""
""fullscreenenter"",""5"",""18867""
","
",916,NA,49,NA,NA,3000,1,NA,NA,images/earth.jpg,images/rocket2,images/rocket1,null,images/rocket1,NA,1,real,null,1,NA,NA,NA,sub73
d3-animate-choice,232,857493,0.0-76.0-1.32,TRUE,FALSE,FALSE,TRUE,"""event"",""trial"",""time""
""fullscreenenter"",""5"",""18867""
","
","
","""event"",""trial"",""time""
""fullscreenenter"",""5"",""18867""
","
",397,NA,48,NA,NA,3000,1,NA,NA,images/redplanet1.jpg,images/alien2,images/alien1,images/rocket1,images/alien2,images/t.png,2,real,false,2,1,2020-06-16T23:42:05Z,rare,sub73
two-step-fixation,233,858495,0.0-76.0-2.32,TRUE,FALSE,FALSE,TRUE,"""event"",""trial"",""time""
""fullscreenenter"",""5"",""18867""
","
","
","""event"",""trial"",""time""
""fullscreenenter"",""5"",""18867""
","
",NA,images/earth.jpg,NA,NA,NA,NA,NA,NA,NA,NA,NA,NA,NA,NA,NA,fixation,NA,NA,NA,NA,NA,NA,sub73
d3-animate-choice,234,860847,0.0-76.0-0.33,TRUE,FALSE,FALSE,TRUE,"""event"",""trial"",""time""
""fullscreenenter"",""5"",""18867""
","
","
","""event"",""trial"",""time""
""fullscreenenter"",""5"",""18867""
","
",350.0000000001164,NA,49,NA,NA,3000,1,NA,NA,images/earth.jpg,images/rocket2,images/rocket1,null,images/rocket1,NA,1,real,null,1,NA,NA,NA,sub73
d3-animate-choice,235,863306,0.0-76.0-1.33,TRUE,FALSE,FALSE,TRUE,"""event"",""trial"",""time""
""fullscreenenter"",""5"",""18867""
","
","
","""event"",""trial"",""time""
""fullscreenenter"",""5"",""18867""
","
",457,NA,48,NA,NA,3000,1,NA,NA,images/purpleplanet.jpg,images/alien4,images/alien3,images/rocket1,images/alien4,images/nothing.png,2,real,true,2,0,2020-06-16T23:42:11Z,common,sub73
two-step-fixation,236,864309,0.0-76.0-2.33,TRUE,FALSE,FALSE,TRUE,"""event"",""trial"",""time""
""fullscreenenter"",""5"",""18867""
","
","
","""event"",""trial"",""time""
""fullscreenenter"",""5"",""18867""
","
",NA,images/earth.jpg,NA,NA,NA,NA,NA,NA,NA,NA,NA,NA,NA,NA,NA,fixation,NA,NA,NA,NA,NA,NA,sub73
d3-animate-choice,237,866808,0.0-76.0-0.34,TRUE,FALSE,FALSE,TRUE,"""event"",""trial"",""time""
""fullscreenenter"",""5"",""18867""
","
","
","""event"",""trial"",""time""
""fullscreenenter"",""5"",""18867""
","
",495,NA,49,NA,NA,3000,1,NA,NA,images/earth.jpg,images/rocket2,images/rocket1,null,images/rocket1,NA,1,real,null,1,NA,NA,NA,sub73
d3-animate-choice,238,869453,0.0-76.0-1.34,TRUE,FALSE,FALSE,TRUE,"""event"",""trial"",""time""
""fullscreenenter"",""5"",""18867""
","
","
","""event"",""trial"",""time""
""fullscreenenter"",""5"",""18867""
","
",644,NA,48,NA,NA,3000,1,NA,NA,images/purpleplanet.jpg,images/alien4,images/alien3,images/rocket1,images/alien4,images/t.png,2,real,true,2,1,2020-06-16T23:42:17Z,common,sub73
two-step-fixation,239,870455,0.0-76.0-2.34,TRUE,FALSE,FALSE,TRUE,"""event"",""trial"",""time""
""fullscreenenter"",""5"",""18867""
","
","
","""event"",""trial"",""time""
""fullscreenenter"",""5"",""18867""
","
",NA,images/earth.jpg,NA,NA,NA,NA,NA,NA,NA,NA,NA,NA,NA,NA,NA,fixation,NA,NA,NA,NA,NA,NA,sub73
d3-animate-choice,240,872797,0.0-76.0-0.35,TRUE,FALSE,FALSE,TRUE,"""event"",""trial"",""time""
""fullscreenenter"",""5"",""18867""
","
","
","""event"",""trial"",""time""
""fullscreenenter"",""5"",""18867""
","
",339,NA,49,NA,NA,3000,1,NA,NA,images/earth.jpg,images/rocket2,images/rocket1,null,images/rocket1,NA,1,real,null,1,NA,NA,NA,sub73
d3-animate-choice,241,875357,0.0-76.0-1.35,TRUE,FALSE,FALSE,TRUE,"""event"",""trial"",""time""
""fullscreenenter"",""5"",""18867""
","
","
","""event"",""trial"",""time""
""fullscreenenter"",""5"",""18867""
","
",556.9999999998836,NA,48,NA,NA,3000,1,NA,NA,images/purpleplanet.jpg,images/alien4,images/alien3,images/rocket1,images/alien4,images/t.png,2,real,true,2,1,2020-06-16T23:42:23Z,common,sub73
two-step-fixation,242,876359,0.0-76.0-2.35,TRUE,FALSE,FALSE,TRUE,"""event"",""trial"",""time""
""fullscreenenter"",""5"",""18867""
","
","
","""event"",""trial"",""time""
""fullscreenenter"",""5"",""18867""
","
",NA,images/earth.jpg,NA,NA,NA,NA,NA,NA,NA,NA,NA,NA,NA,NA,NA,fixation,NA,NA,NA,NA,NA,NA,sub73
d3-animate-choice,243,878907,0.0-76.0-0.36,TRUE,FALSE,FALSE,TRUE,"""event"",""trial"",""time""
""fullscreenenter"",""5"",""18867""
","
","
","""event"",""trial"",""time""
""fullscreenenter"",""5"",""18867""
","
",545,NA,49,NA,NA,3000,1,NA,NA,images/earth.jpg,images/rocket2,images/rocket1,null,images/rocket1,NA,1,real,null,1,NA,NA,NA,sub73
d3-animate-choice,244,881467,0.0-76.0-1.36,TRUE,FALSE,FALSE,TRUE,"""event"",""trial"",""time""
""fullscreenenter"",""5"",""18867""
","
","
","""event"",""trial"",""time""
""fullscreenenter"",""5"",""18867""
","
",557,NA,48,NA,NA,3000,1,NA,NA,images/purpleplanet.jpg,images/alien4,images/alien3,images/rocket1,images/alien4,images/nothing.png,2,real,true,2,0,2020-06-16T23:42:29Z,common,sub73
two-step-fixation,245,882469,0.0-76.0-2.36,TRUE,FALSE,FALSE,TRUE,"""event"",""trial"",""time""
""fullscreenenter"",""5"",""18867""
","
","
","""event"",""trial"",""time""
""fullscreenenter"",""5"",""18867""
","
",NA,images/earth.jpg,NA,NA,NA,NA,NA,NA,NA,NA,NA,NA,NA,NA,NA,fixation,NA,NA,NA,NA,NA,NA,sub73
d3-animate-choice,246,884814,0.0-76.0-0.37,TRUE,FALSE,FALSE,TRUE,"""event"",""trial"",""time""
""fullscreenenter"",""5"",""18867""
","
","
","""event"",""trial"",""time""
""fullscreenenter"",""5"",""18867""
","
",341,NA,49,NA,NA,3000,1,NA,NA,images/earth.jpg,images/rocket2,images/rocket1,null,images/rocket1,NA,1,real,null,1,NA,NA,NA,sub73
d3-animate-choice,247,887286,0.0-76.0-1.37,TRUE,FALSE,FALSE,TRUE,"""event"",""trial"",""time""
""fullscreenenter"",""5"",""18867""
","
","
","""event"",""trial"",""time""
""fullscreenenter"",""5"",""18867""
","
",469,NA,48,NA,NA,3000,1,NA,NA,images/redplanet1.jpg,images/alien2,images/alien1,images/rocket1,images/alien2,images/t.png,2,real,false,2,1,2020-06-16T23:42:35Z,rare,sub73
two-step-fixation,248,888288,0.0-76.0-2.37,TRUE,FALSE,FALSE,TRUE,"""event"",""trial"",""time""
""fullscreenenter"",""5"",""18867""
","
","
","""event"",""trial"",""time""
""fullscreenenter"",""5"",""18867""
","
",NA,images/earth.jpg,NA,NA,NA,NA,NA,NA,NA,NA,NA,NA,NA,NA,NA,fixation,NA,NA,NA,NA,NA,NA,sub73
d3-animate-choice,249,890755,0.0-76.0-0.38,TRUE,FALSE,FALSE,TRUE,"""event"",""trial"",""time""
""fullscreenenter"",""5"",""18867""
","
","
","""event"",""trial"",""time""
""fullscreenenter"",""5"",""18867""
","
",464,NA,49,NA,NA,3000,1,NA,NA,images/earth.jpg,images/rocket2,images/rocket1,null,images/rocket1,NA,1,real,null,1,NA,NA,NA,sub73
d3-animate-choice,250,893178,0.0-76.0-1.38,TRUE,FALSE,FALSE,TRUE,"""event"",""trial"",""time""
""fullscreenenter"",""5"",""18867""
","
","
","""event"",""trial"",""time""
""fullscreenenter"",""5"",""18867""
","
",404.9999999998836,NA,48,NA,NA,3000,1,NA,NA,images/redplanet1.jpg,images/alien2,images/alien1,images/rocket1,images/alien2,images/nothing.png,2,real,false,2,0,2020-06-16T23:42:41Z,rare,sub73
two-step-fixation,251,894180,0.0-76.0-2.38,TRUE,FALSE,FALSE,TRUE,"""event"",""trial"",""time""
""fullscreenenter"",""5"",""18867""
","
","
","""event"",""trial"",""time""
""fullscreenenter"",""5"",""18867""
","
",NA,images/earth.jpg,NA,NA,NA,NA,NA,NA,NA,NA,NA,NA,NA,NA,NA,fixation,NA,NA,NA,NA,NA,NA,sub73
d3-animate-choice,252,896648,0.0-76.0-0.39,TRUE,FALSE,FALSE,TRUE,"""event"",""trial"",""time""
""fullscreenenter"",""5"",""18867""
","
","
","""event"",""trial"",""time""
""fullscreenenter"",""5"",""18867""
","
",465,NA,49,NA,NA,3000,1,NA,NA,images/earth.jpg,images/rocket2,images/rocket1,null,images/rocket1,NA,1,real,null,1,NA,NA,NA,sub73
d3-animate-choice,253,899135,0.0-76.0-1.39,TRUE,FALSE,FALSE,TRUE,"""event"",""trial"",""time""
""fullscreenenter"",""5"",""18867""
","
","
","""event"",""trial"",""time""
""fullscreenenter"",""5"",""18867""
","
",479,NA,48,NA,NA,3000,1,NA,NA,images/purpleplanet.jpg,images/alien4,images/alien3,images/rocket1,images/alien4,images/nothing.png,2,real,true,2,0,2020-06-16T23:42:47Z,common,sub73
two-step-fixation,254,900138,0.0-76.0-2.39,TRUE,FALSE,FALSE,TRUE,"""event"",""trial"",""time""
""fullscreenenter"",""5"",""18867""
","
","
","""event"",""trial"",""time""
""fullscreenenter"",""5"",""18867""
","
",NA,images/earth.jpg,NA,NA,NA,NA,NA,NA,NA,NA,NA,NA,NA,NA,NA,fixation,NA,NA,NA,NA,NA,NA,sub73
d3-animate-choice,255,902650,0.0-76.0-0.40,TRUE,FALSE,FALSE,TRUE,"""event"",""trial"",""time""
""fullscreenenter"",""5"",""18867""
","
","
","""event"",""trial"",""time""
""fullscreenenter"",""5"",""18867""
","
",509,NA,49,NA,NA,3000,1,NA,NA,images/earth.jpg,images/rocket2,images/rocket1,null,images/rocket1,NA,1,real,null,1,NA,NA,NA,sub73
d3-animate-choice,256,905817,0.0-76.0-1.40,TRUE,FALSE,FALSE,TRUE,"""event"",""trial"",""time""
""fullscreenenter"",""5"",""18867""
","
","
","""event"",""trial"",""time""
""fullscreenenter"",""5"",""18867""
","
",1164,NA,48,NA,NA,3000,1,NA,NA,images/purpleplanet.jpg,images/alien4,images/alien3,images/rocket1,images/alien4,images/t.png,2,real,true,2,1,2020-06-16T23:42:54Z,common,sub73
two-step-fixation,257,906820,0.0-76.0-2.40,TRUE,FALSE,FALSE,TRUE,"""event"",""trial"",""time""
""fullscreenenter"",""5"",""18867""
","
","
","""event"",""trial"",""time""
""fullscreenenter"",""5"",""18867""
","
",NA,images/earth.jpg,NA,NA,NA,NA,NA,NA,NA,NA,NA,NA,NA,NA,NA,fixation,NA,NA,NA,NA,NA,NA,sub73
d3-animate-choice,258,909503,0.0-76.0-0.41,TRUE,FALSE,FALSE,TRUE,"""event"",""trial"",""time""
""fullscreenenter"",""5"",""18867""
","
","
","""event"",""trial"",""time""
""fullscreenenter"",""5"",""18867""
","
",680,NA,49,NA,NA,3000,1,NA,NA,images/earth.jpg,images/rocket2,images/rocket1,null,images/rocket1,NA,1,real,null,1,NA,NA,NA,sub73
d3-animate-choice,259,912027,0.0-76.0-1.41,TRUE,FALSE,FALSE,TRUE,"""event"",""trial"",""time""
""fullscreenenter"",""5"",""18867""
","
","
","""event"",""trial"",""time""
""fullscreenenter"",""5"",""18867""
","
",520.0000000001164,NA,48,NA,NA,3000,1,NA,NA,images/redplanet1.jpg,images/alien2,images/alien1,images/rocket1,images/alien2,images/t.png,2,real,false,2,1,2020-06-16T23:43:00Z,rare,sub73
two-step-fixation,260,913030,0.0-76.0-2.41,TRUE,FALSE,FALSE,TRUE,"""event"",""trial"",""time""
""fullscreenenter"",""5"",""18867""
","
","
","""event"",""trial"",""time""
""fullscreenenter"",""5"",""18867""
","
",NA,images/earth.jpg,NA,NA,NA,NA,NA,NA,NA,NA,NA,NA,NA,NA,NA,fixation,NA,NA,NA,NA,NA,NA,sub73
d3-animate-choice,261,915442,0.0-76.0-0.42,TRUE,FALSE,FALSE,TRUE,"""event"",""trial"",""time""
""fullscreenenter"",""5"",""18867""
","
","
","""event"",""trial"",""time""
""fullscreenenter"",""5"",""18867""
","
",408.9999999998836,NA,49,NA,NA,3000,1,NA,NA,images/earth.jpg,images/rocket2,images/rocket1,null,images/rocket1,NA,1,real,null,1,NA,NA,NA,sub73
d3-animate-choice,262,918415,0.0-76.0-1.42,TRUE,FALSE,FALSE,TRUE,"""event"",""trial"",""time""
""fullscreenenter"",""5"",""18867""
","
","
","""event"",""trial"",""time""
""fullscreenenter"",""5"",""18867""
","
",970,NA,48,NA,NA,3000,1,NA,NA,images/purpleplanet.jpg,images/alien4,images/alien3,images/rocket1,images/alien4,images/t.png,2,real,true,2,1,2020-06-16T23:43:06Z,common,sub73
two-step-fixation,263,919417,0.0-76.0-2.42,TRUE,FALSE,FALSE,TRUE,"""event"",""trial"",""time""
""fullscreenenter"",""5"",""18867""
","
","
","""event"",""trial"",""time""
""fullscreenenter"",""5"",""18867""
","
",NA,images/earth.jpg,NA,NA,NA,NA,NA,NA,NA,NA,NA,NA,NA,NA,NA,fixation,NA,NA,NA,NA,NA,NA,sub73
d3-animate-choice,264,921741,0.0-76.0-0.43,TRUE,FALSE,FALSE,TRUE,"""event"",""trial"",""time""
""fullscreenenter"",""5"",""18867""
","
","
","""event"",""trial"",""time""
""fullscreenenter"",""5"",""18867""
","
",319.0000000001164,NA,49,NA,NA,3000,1,NA,NA,images/earth.jpg,images/rocket2,images/rocket1,null,images/rocket1,NA,1,real,null,1,NA,NA,NA,sub73
d3-animate-choice,265,924199,0.0-76.0-1.43,TRUE,FALSE,FALSE,TRUE,"""event"",""trial"",""time""
""fullscreenenter"",""5"",""18867""
","
","
","""event"",""trial"",""time""
""fullscreenenter"",""5"",""18867""
","
",456,NA,48,NA,NA,3000,1,NA,NA,images/purpleplanet.jpg,images/alien4,images/alien3,images/rocket1,images/alien4,images/t.png,2,real,true,2,1,2020-06-16T23:43:12Z,common,sub73
two-step-fixation,266,925201,0.0-76.0-2.43,TRUE,FALSE,FALSE,TRUE,"""event"",""trial"",""time""
""fullscreenenter"",""5"",""18867""
","
","
","""event"",""trial"",""time""
""fullscreenenter"",""5"",""18867""
","
",NA,images/earth.jpg,NA,NA,NA,NA,NA,NA,NA,NA,NA,NA,NA,NA,NA,fixation,NA,NA,NA,NA,NA,NA,sub73
d3-animate-choice,267,927580,0.0-76.0-0.44,TRUE,FALSE,FALSE,TRUE,"""event"",""trial"",""time""
""fullscreenenter"",""5"",""18867""
","
","
","""event"",""trial"",""time""
""fullscreenenter"",""5"",""18867""
","
",375,NA,49,NA,NA,3000,1,NA,NA,images/earth.jpg,images/rocket2,images/rocket1,null,images/rocket1,NA,1,real,null,1,NA,NA,NA,sub73
d3-animate-choice,268,930103,0.0-76.0-1.44,TRUE,FALSE,FALSE,TRUE,"""event"",""trial"",""time""
""fullscreenenter"",""5"",""18867""
","
","
","""event"",""trial"",""time""
""fullscreenenter"",""5"",""18867""
","
",521,NA,48,NA,NA,3000,1,NA,NA,images/purpleplanet.jpg,images/alien4,images/alien3,images/rocket1,images/alien4,images/t.png,2,real,true,2,1,2020-06-16T23:43:18Z,common,sub73
two-step-fixation,269,931105,0.0-76.0-2.44,TRUE,FALSE,FALSE,TRUE,"""event"",""trial"",""time""
""fullscreenenter"",""5"",""18867""
","
","
","""event"",""trial"",""time""
""fullscreenenter"",""5"",""18867""
","
",NA,images/earth.jpg,NA,NA,NA,NA,NA,NA,NA,NA,NA,NA,NA,NA,NA,fixation,NA,NA,NA,NA,NA,NA,sub73
d3-animate-choice,270,933617,0.0-76.0-0.45,TRUE,FALSE,FALSE,TRUE,"""event"",""trial"",""time""
""fullscreenenter"",""5"",""18867""
","
","
","""event"",""trial"",""time""
""fullscreenenter"",""5"",""18867""
","
",508,NA,49,NA,NA,3000,1,NA,NA,images/earth.jpg,images/rocket2,images/rocket1,null,images/rocket1,NA,1,real,null,1,NA,NA,NA,sub73
d3-animate-choice,271,936404,0.0-76.0-1.45,TRUE,FALSE,FALSE,TRUE,"""event"",""trial"",""time""
""fullscreenenter"",""5"",""18867""
","
","
","""event"",""trial"",""time""
""fullscreenenter"",""5"",""18867""
","
",785,NA,48,NA,NA,3000,1,NA,NA,images/purpleplanet.jpg,images/alien4,images/alien3,images/rocket1,images/alien4,images/nothing.png,2,real,true,2,0,2020-06-16T23:43:24Z,common,sub73
two-step-fixation,272,937407,0.0-76.0-2.45,TRUE,FALSE,FALSE,TRUE,"""event"",""trial"",""time""
""fullscreenenter"",""5"",""18867""
","
","
","""event"",""trial"",""time""
""fullscreenenter"",""5"",""18867""
","
",NA,images/earth.jpg,NA,NA,NA,NA,NA,NA,NA,NA,NA,NA,NA,NA,NA,fixation,NA,NA,NA,NA,NA,NA,sub73
d3-animate-choice,273,939832,0.0-76.0-0.46,TRUE,FALSE,FALSE,TRUE,"""event"",""trial"",""time""
""fullscreenenter"",""5"",""18867""
","
","
","""event"",""trial"",""time""
""fullscreenenter"",""5"",""18867""
","
",422,NA,49,NA,NA,3000,1,NA,NA,images/earth.jpg,images/rocket2,images/rocket1,null,images/rocket1,NA,1,real,null,1,NA,NA,NA,sub73
d3-animate-choice,274,942490,0.0-76.0-1.46,TRUE,FALSE,FALSE,TRUE,"""event"",""trial"",""time""
""fullscreenenter"",""5"",""18867""
","
","
","""event"",""trial"",""time""
""fullscreenenter"",""5"",""18867""
","
",654,NA,48,NA,NA,3000,1,NA,NA,images/purpleplanet.jpg,images/alien4,images/alien3,images/rocket1,images/alien4,images/t.png,2,real,true,2,1,2020-06-16T23:43:30Z,common,sub73
two-step-fixation,275,943492,0.0-76.0-2.46,TRUE,FALSE,FALSE,TRUE,"""event"",""trial"",""time""
""fullscreenenter"",""5"",""18867""
","
","
","""event"",""trial"",""time""
""fullscreenenter"",""5"",""18867""
","
",NA,images/earth.jpg,NA,NA,NA,NA,NA,NA,NA,NA,NA,NA,NA,NA,NA,fixation,NA,NA,NA,NA,NA,NA,sub73
d3-animate-choice,276,945794,0.0-76.0-0.47,TRUE,FALSE,FALSE,TRUE,"""event"",""trial"",""time""
""fullscreenenter"",""5"",""18867""
","
","
","""event"",""trial"",""time""
""fullscreenenter"",""5"",""18867""
","
",300,NA,49,NA,NA,3000,1,NA,NA,images/earth.jpg,images/rocket2,images/rocket1,null,images/rocket1,NA,1,real,null,1,NA,NA,NA,sub73
d3-animate-choice,277,948408,0.0-76.0-1.47,TRUE,FALSE,FALSE,TRUE,"""event"",""trial"",""time""
""fullscreenenter"",""5"",""18867""
","
","
","""event"",""trial"",""time""
""fullscreenenter"",""5"",""18867""
","
",609.9999999998836,NA,48,NA,NA,3000,1,NA,NA,images/purpleplanet.jpg,images/alien4,images/alien3,images/rocket1,images/alien4,images/nothing.png,2,real,true,2,0,2020-06-16T23:43:36Z,common,sub73
two-step-fixation,278,949411,0.0-76.0-2.47,TRUE,FALSE,FALSE,TRUE,"""event"",""trial"",""time""
""fullscreenenter"",""5"",""18867""
","
","
","""event"",""trial"",""time""
""fullscreenenter"",""5"",""18867""
","
",NA,images/earth.jpg,NA,NA,NA,NA,NA,NA,NA,NA,NA,NA,NA,NA,NA,fixation,NA,NA,NA,NA,NA,NA,sub73
d3-animate-choice,279,952014,0.0-76.0-0.48,TRUE,FALSE,FALSE,TRUE,"""event"",""trial"",""time""
""fullscreenenter"",""5"",""18867""
","
","
","""event"",""trial"",""time""
""fullscreenenter"",""5"",""18867""
","
",599.9999999998836,NA,49,NA,NA,3000,1,NA,NA,images/earth.jpg,images/rocket2,images/rocket1,null,images/rocket1,NA,1,real,null,1,NA,NA,NA,sub73
d3-animate-choice,280,954775,0.0-76.0-1.48,TRUE,FALSE,FALSE,TRUE,"""event"",""trial"",""time""
""fullscreenenter"",""5"",""18867""
","
","
","""event"",""trial"",""time""
""fullscreenenter"",""5"",""18867""
","
",758,NA,48,NA,NA,3000,1,NA,NA,images/purpleplanet.jpg,images/alien4,images/alien3,images/rocket1,images/alien4,images/t.png,2,real,true,2,1,2020-06-16T23:43:43Z,common,sub73
two-step-fixation,281,955778,0.0-76.0-2.48,TRUE,FALSE,FALSE,TRUE,"""event"",""trial"",""time""
""fullscreenenter"",""5"",""18867""
","
","
","""event"",""trial"",""time""
""fullscreenenter"",""5"",""18867""
","
",NA,images/earth.jpg,NA,NA,NA,NA,NA,NA,NA,NA,NA,NA,NA,NA,NA,fixation,NA,NA,NA,NA,NA,NA,sub73
d3-animate-choice,282,958315,0.0-76.0-0.49,TRUE,FALSE,FALSE,TRUE,"""event"",""trial"",""time""
""fullscreenenter"",""5"",""18867""
","
","
","""event"",""trial"",""time""
""fullscreenenter"",""5"",""18867""
","
",534,NA,49,NA,NA,3000,1,NA,NA,images/earth.jpg,images/rocket2,images/rocket1,null,images/rocket1,NA,1,real,null,1,NA,NA,NA,sub73
d3-animate-choice,283,960879,0.0-76.0-1.49,TRUE,FALSE,FALSE,TRUE,"""event"",""trial"",""time""
""fullscreenenter"",""5"",""18867""
","
","
","""event"",""trial"",""time""
""fullscreenenter"",""5"",""18867""
","
",560,NA,48,NA,NA,3000,1,NA,NA,images/purpleplanet.jpg,images/alien4,images/alien3,images/rocket1,images/alien4,images/nothing.png,2,real,true,2,0,2020-06-16T23:43:49Z,common,sub73
two-step-fixation,284,961880,0.0-76.0-2.49,TRUE,FALSE,FALSE,TRUE,"""event"",""trial"",""time""
""fullscreenenter"",""5"",""18867""
","
","
","""event"",""trial"",""time""
""fullscreenenter"",""5"",""18867""
","
",NA,images/earth.jpg,NA,NA,NA,NA,NA,NA,NA,NA,NA,NA,NA,NA,NA,fixation,NA,NA,NA,NA,NA,NA,sub73
audio-button-response-2,285,973241,0.0-77.0,TRUE,FALSE,FALSE,TRUE,"""event"",""trial"",""time""
""fullscreenenter"",""5"",""18867""
","
","
","""event"",""trial"",""time""
""fullscreenenter"",""5"",""18867""
","
",11358,audio/instructions/break_1.wav,NA,0,NA,NA,NA,NA,NA,NA,NA,NA,NA,NA,NA,NA,NA,NA,NA,NA,NA,NA,sub73
d3-animate-choice,286,976799,0.0-78.0-0.0,TRUE,FALSE,FALSE,TRUE,"""event"",""trial"",""time""
""fullscreenenter"",""5"",""18867""
","
","
","""event"",""trial"",""time""
""fullscreenenter"",""5"",""18867""
","
",1555.0000000001164,NA,49,NA,NA,3000,1,NA,NA,images/earth.jpg,images/rocket2,images/rocket1,null,images/rocket1,NA,1,real,null,1,NA,NA,NA,sub73
d3-animate-choice,287,979372,0.0-78.0-1.0,TRUE,FALSE,FALSE,TRUE,"""event"",""trial"",""time""
""fullscreenenter"",""5"",""18867""
","
","
","""event"",""trial"",""time""
""fullscreenenter"",""5"",""18867""
","
",571,NA,48,NA,NA,3000,1,NA,NA,images/purpleplanet.jpg,images/alien4,images/alien3,images/rocket1,images/alien4,images/t.png,2,real,true,2,1,2020-06-16T23:44:07Z,common,sub73
two-step-fixation,288,980375,0.0-78.0-2.0,TRUE,FALSE,FALSE,TRUE,"""event"",""trial"",""time""
""fullscreenenter"",""5"",""18867""
","
","
","""event"",""trial"",""time""
""fullscreenenter"",""5"",""18867""
","
",NA,images/earth.jpg,NA,NA,NA,NA,NA,NA,NA,NA,NA,NA,NA,NA,NA,fixation,NA,NA,NA,NA,NA,NA,sub73
