trial_type,trial_index,time_elapsed,internal_node_id,rocket_sides,red_planet_first_rocket,red_display_order,purple_display_order,interactions,blur_events,focus_events,fullscreenenter_events,fullscreenexit_events,rt,stimulus,key_press,button_pressed,success,duration,valid_pressed,rts,keys,planet_text,right_text,left_text,center_text,chosen_text,reward_text,trial_stage,practice_trial,transition_type,choice,transition,reward,timestamp,subject_id
pavlovia,0,6,0.0-0.0,FALSE,TRUE,FALSE,TRUE,"
","
","
","
","
",NA,NA,NA,NA,NA,NA,NA,NA,NA,NA,NA,NA,NA,NA,NA,NA,NA,NA,NA,NA,NA,NA,sub25
html-keyboard-response,1,1460,0.0-1.0,FALSE,TRUE,FALSE,TRUE,"
","
","
","
","
",1453.0000000000005,Welcome! Press the space bar to begin.,32,NA,NA,NA,NA,NA,NA,NA,NA,NA,NA,NA,NA,NA,NA,NA,NA,NA,NA,NA,sub25
audio-keyboard-response,2,6619,0.0-2.0,FALSE,TRUE,FALSE,TRUE,"
","
","
","
","
",5146,audio/beep_loop.wav,32,NA,NA,NA,NA,NA,NA,NA,NA,NA,NA,NA,NA,NA,NA,NA,NA,NA,NA,NA,sub25
audio-button-response,3,11389,0.0-3.0,FALSE,TRUE,FALSE,TRUE,"
","
","
","
","
",NaN,audio/fish.mp3,NA,1,NA,NA,NA,NA,NA,NA,NA,NA,NA,NA,NA,NA,NA,NA,NA,NA,NA,NA,sub25
audio-button-response,4,14288,0.0-4.0,FALSE,TRUE,FALSE,TRUE,"""event"",""trial"",""time""
""fullscreenenter"",""5"",""17371""
","
","
","""event"",""trial"",""time""
""fullscreenenter"",""5"",""17371""
","
",NaN,audio/tiger.mp3,NA,4,NA,NA,NA,NA,NA,NA,NA,NA,NA,NA,NA,NA,NA,NA,NA,NA,NA,NA,sub25
fullscreen,5,18312,0.0-5.0,FALSE,TRUE,FALSE,TRUE,"""event"",""trial"",""time""
""fullscreenenter"",""5"",""17371""
","
","
","""event"",""trial"",""time""
""fullscreenenter"",""5"",""17371""
","
",NA,NA,NA,NA,TRUE,NA,NA,NA,NA,NA,NA,NA,NA,NA,NA,NA,NA,NA,NA,NA,NA,NA,sub25
d3-instructions,6,31265,0.0-6.0,FALSE,TRUE,FALSE,TRUE,"""event"",""trial"",""time""
""fullscreenenter"",""5"",""17371""
","
","
","""event"",""trial"",""time""
""fullscreenenter"",""5"",""17371""
","
",NA,NA,NA,NA,NA,NA,NA,NA,NA,NA,NA,NA,NA,NA,NA,NA,NA,NA,NA,NA,NA,NA,sub25
d3-instructions,7,39519,0.0-7.0,FALSE,TRUE,FALSE,TRUE,"""event"",""trial"",""time""
""fullscreenenter"",""5"",""17371""
","
","
","""event"",""trial"",""time""
""fullscreenenter"",""5"",""17371""
","
",NA,NA,NA,NA,NA,NA,NA,NA,NA,NA,NA,NA,NA,NA,NA,NA,NA,NA,NA,NA,NA,NA,sub25
d3-instructions,8,69709,0.0-8.0,FALSE,TRUE,FALSE,TRUE,"""event"",""trial"",""time""
""fullscreenenter"",""5"",""17371""
","
","
","""event"",""trial"",""time""
""fullscreenenter"",""5"",""17371""
","
",NA,NA,NA,NA,NA,NA,NA,NA,NA,NA,NA,NA,NA,NA,NA,NA,NA,NA,NA,NA,NA,NA,sub25
d3-instructions,9,82346,0.0-9.0,FALSE,TRUE,FALSE,TRUE,"""event"",""trial"",""time""
""fullscreenenter"",""5"",""17371""
","
","
","""event"",""trial"",""time""
""fullscreenenter"",""5"",""17371""
","
",NA,NA,NA,NA,NA,NA,NA,NA,NA,NA,NA,NA,NA,NA,NA,NA,NA,NA,NA,NA,NA,NA,sub25
d3-instructions,10,106651,0.0-10.0,FALSE,TRUE,FALSE,TRUE,"""event"",""trial"",""time""
""fullscreenenter"",""5"",""17371""
","
","
","""event"",""trial"",""time""
""fullscreenenter"",""5"",""17371""
","
",NA,NA,NA,NA,NA,NA,NA,NA,NA,NA,NA,NA,NA,NA,NA,NA,NA,NA,NA,NA,NA,NA,sub25
d3-animate-choice,11,110612,0.0-11.0,FALSE,TRUE,FALSE,TRUE,"""event"",""trial"",""time""
""fullscreenenter"",""5"",""17371""
","
","
","""event"",""trial"",""time""
""fullscreenenter"",""5"",""17371""
","
",1955,NA,49,NA,NA,3000,1,NA,NA,images/tutgreenplanet.jpg,images/tutalien1,images/tutalien2,null,images/tutalien2,NA,NA,practice,null,NA,NA,NA,NA,sub25
d3-animate-choice,12,114145,0.0-12.0,FALSE,TRUE,FALSE,TRUE,"""event"",""trial"",""time""
""fullscreenenter"",""5"",""17371""
","
","
","""event"",""trial"",""time""
""fullscreenenter"",""5"",""17371""
","
",1531,NA,48,NA,NA,3000,1,NA,NA,images/tutgreenplanet.jpg,images/tutalien1,images/tutalien2,null,images/tutalien1,NA,NA,practice,null,NA,NA,NA,NA,sub25
d3-animate-choice,13,116937,0.0-13.0,FALSE,TRUE,FALSE,TRUE,"""event"",""trial"",""time""
""fullscreenenter"",""5"",""17371""
","
","
","""event"",""trial"",""time""
""fullscreenenter"",""5"",""17371""
","
",790,NA,49,NA,NA,3000,1,798,48,images/tutgreenplanet.jpg,images/tutalien1,images/tutalien2,null,images/tutalien2,NA,NA,practice,null,NA,NA,NA,NA,sub25
d3-animate-choice,14,119709,0.0-14.0,FALSE,TRUE,FALSE,TRUE,"""event"",""trial"",""time""
""fullscreenenter"",""5"",""17371""
","
","
","""event"",""trial"",""time""
""fullscreenenter"",""5"",""17371""
","
",770,NA,48,NA,NA,3000,1,799,49,images/tutgreenplanet.jpg,images/tutalien1,images/tutalien2,null,images/tutalien1,NA,NA,practice,null,NA,NA,NA,NA,sub25
d3-instructions,15,125724,0.0-15.0,FALSE,TRUE,FALSE,TRUE,"""event"",""trial"",""time""
""fullscreenenter"",""5"",""17371""
","
","
","""event"",""trial"",""time""
""fullscreenenter"",""5"",""17371""
","
",NA,NA,NA,NA,NA,NA,NA,NA,NA,NA,NA,NA,NA,NA,NA,NA,NA,NA,NA,NA,NA,NA,sub25
d3-instructions,16,132320,0.0-16.0,FALSE,TRUE,FALSE,TRUE,"""event"",""trial"",""time""
""fullscreenenter"",""5"",""17371""
","
","
","""event"",""trial"",""time""
""fullscreenenter"",""5"",""17371""
","
",NA,NA,NA,NA,NA,NA,NA,NA,NA,NA,NA,NA,NA,NA,NA,NA,NA,NA,NA,NA,NA,NA,sub25
d3-instructions,17,139947,0.0-17.0,FALSE,TRUE,FALSE,TRUE,"""event"",""trial"",""time""
""fullscreenenter"",""5"",""17371""
","
","
","""event"",""trial"",""time""
""fullscreenenter"",""5"",""17371""
","
",NA,NA,NA,NA,NA,NA,NA,NA,NA,NA,NA,NA,NA,NA,NA,NA,NA,NA,NA,NA,NA,NA,sub25
d3-instructions,18,154671,0.0-18.0,FALSE,TRUE,FALSE,TRUE,"""event"",""trial"",""time""
""fullscreenenter"",""5"",""17371""
","
","
","""event"",""trial"",""time""
""fullscreenenter"",""5"",""17371""
","
",NA,NA,NA,NA,NA,NA,NA,NA,NA,NA,NA,NA,NA,NA,NA,NA,NA,NA,NA,NA,NA,NA,sub25
d3-instructions,19,169176,0.0-19.0,FALSE,TRUE,FALSE,TRUE,"""event"",""trial"",""time""
""fullscreenenter"",""5"",""17371""
","
","
","""event"",""trial"",""time""
""fullscreenenter"",""5"",""17371""
","
",NA,NA,NA,NA,NA,NA,NA,NA,NA,NA,NA,NA,NA,NA,NA,NA,NA,NA,NA,NA,NA,NA,sub25
d3-animate-choice,20,171802,0.0-20.0,FALSE,TRUE,FALSE,TRUE,"""event"",""trial"",""time""
""fullscreenenter"",""5"",""17371""
","
","
","""event"",""trial"",""time""
""fullscreenenter"",""5"",""17371""
","
",622,NA,49,NA,NA,3000,1,NA,NA,images/tutyellowplanet.jpg,null,images/tutalien3,null,images/tutalien3,images/t.png,NA,practice,null,NA,NA,NA,NA,sub25
d3-animate-choice,21,174254,0.0-21.0,FALSE,TRUE,FALSE,TRUE,"""event"",""trial"",""time""
""fullscreenenter"",""5"",""17371""
","
","
","""event"",""trial"",""time""
""fullscreenenter"",""5"",""17371""
","
",449,NA,49,NA,NA,3000,1,NA,NA,images/tutyellowplanet.jpg,null,images/tutalien3,null,images/tutalien3,images/t.png,NA,practice,null,NA,NA,NA,NA,sub25
d3-animate-choice,22,176666,0.0-22.0,FALSE,TRUE,FALSE,TRUE,"""event"",""trial"",""time""
""fullscreenenter"",""5"",""17371""
","
","
","""event"",""trial"",""time""
""fullscreenenter"",""5"",""17371""
","
",410,NA,49,NA,NA,3000,1,NA,NA,images/tutyellowplanet.jpg,null,images/tutalien3,null,images/tutalien3,images/t.png,NA,practice,null,NA,NA,NA,NA,sub25
d3-animate-choice,23,179133,0.0-23.0,FALSE,TRUE,FALSE,TRUE,"""event"",""trial"",""time""
""fullscreenenter"",""5"",""17371""
","
","
","""event"",""trial"",""time""
""fullscreenenter"",""5"",""17371""
","
",465,NA,49,NA,NA,3000,1,NA,NA,images/tutyellowplanet.jpg,null,images/tutalien3,null,images/tutalien3,images/t.png,NA,practice,null,NA,NA,NA,NA,sub25
d3-animate-choice,24,181604,0.0-24.0,FALSE,TRUE,FALSE,TRUE,"""event"",""trial"",""time""
""fullscreenenter"",""5"",""17371""
","
","
","""event"",""trial"",""time""
""fullscreenenter"",""5"",""17371""
","
",411,NA,49,NA,NA,3000,1,NA,NA,images/tutyellowplanet.jpg,null,images/tutalien3,null,images/tutalien3,images/nothing.png,NA,practice,null,NA,NA,NA,NA,sub25
d3-animate-choice,25,184244,0.0-25.0,FALSE,TRUE,FALSE,TRUE,"""event"",""trial"",""time""
""fullscreenenter"",""5"",""17371""
","
","
","""event"",""trial"",""time""
""fullscreenenter"",""5"",""17371""
","
",638,NA,49,NA,NA,3000,1,NA,NA,images/tutyellowplanet.jpg,null,images/tutalien3,null,images/tutalien3,images/t.png,NA,practice,null,NA,NA,NA,NA,sub25
d3-animate-choice,26,186627,0.0-26.0,FALSE,TRUE,FALSE,TRUE,"""event"",""trial"",""time""
""fullscreenenter"",""5"",""17371""
","
","
","""event"",""trial"",""time""
""fullscreenenter"",""5"",""17371""
","
",379.0000000000291,NA,49,NA,NA,3000,1,NA,NA,images/tutyellowplanet.jpg,null,images/tutalien3,null,images/tutalien3,images/t.png,NA,practice,null,NA,NA,NA,NA,sub25
d3-animate-choice,27,189205,0.0-27.0,FALSE,TRUE,FALSE,TRUE,"""event"",""trial"",""time""
""fullscreenenter"",""5"",""17371""
","
","
","""event"",""trial"",""time""
""fullscreenenter"",""5"",""17371""
","
",577,NA,49,NA,NA,3000,1,NA,NA,images/tutyellowplanet.jpg,null,images/tutalien3,null,images/tutalien3,images/t.png,NA,practice,null,NA,NA,NA,NA,sub25
d3-animate-choice,28,191666,0.0-28.0,FALSE,TRUE,FALSE,TRUE,"""event"",""trial"",""time""
""fullscreenenter"",""5"",""17371""
","
","
","""event"",""trial"",""time""
""fullscreenenter"",""5"",""17371""
","
",458,NA,49,NA,NA,3000,1,NA,NA,images/tutyellowplanet.jpg,null,images/tutalien3,null,images/tutalien3,images/t.png,NA,practice,null,NA,NA,NA,NA,sub25
d3-animate-choice,29,194246,0.0-29.0,FALSE,TRUE,FALSE,TRUE,"""event"",""trial"",""time""
""fullscreenenter"",""5"",""17371""
","
","
","""event"",""trial"",""time""
""fullscreenenter"",""5"",""17371""
","
",577.0000000000291,NA,49,NA,NA,3000,1,NA,NA,images/tutyellowplanet.jpg,null,images/tutalien3,null,images/tutalien3,images/t.png,NA,practice,null,NA,NA,NA,NA,sub25
d3-instructions,30,205231,0.0-30.0,FALSE,TRUE,FALSE,TRUE,"""event"",""trial"",""time""
""fullscreenenter"",""5"",""17371""
","
","
","""event"",""trial"",""time""
""fullscreenenter"",""5"",""17371""
","
",NA,NA,NA,NA,NA,NA,NA,NA,NA,NA,NA,NA,NA,NA,NA,NA,NA,NA,NA,NA,NA,NA,sub25
d3-instructions,31,214675,0.0-31.0,FALSE,TRUE,FALSE,TRUE,"""event"",""trial"",""time""
""fullscreenenter"",""5"",""17371""
","
","
","""event"",""trial"",""time""
""fullscreenenter"",""5"",""17371""
","
",NA,NA,NA,NA,NA,NA,NA,NA,NA,NA,NA,NA,NA,NA,NA,NA,NA,NA,NA,NA,NA,NA,sub25
d3-instructions,32,219616,0.0-32.0,FALSE,TRUE,FALSE,TRUE,"""event"",""trial"",""time""
""fullscreenenter"",""5"",""17371""
","
","
","""event"",""trial"",""time""
""fullscreenenter"",""5"",""17371""
","
",NA,NA,NA,NA,NA,NA,NA,NA,NA,NA,NA,NA,NA,NA,NA,NA,NA,NA,NA,NA,NA,NA,sub25
d3-instructions,33,223332,0.0-33.0,FALSE,TRUE,FALSE,TRUE,"""event"",""trial"",""time""
""fullscreenenter"",""5"",""17371""
","
","
","""event"",""trial"",""time""
""fullscreenenter"",""5"",""17371""
","
",NA,NA,NA,NA,NA,NA,NA,NA,NA,NA,NA,NA,NA,NA,NA,NA,NA,NA,NA,NA,NA,NA,sub25
d3-animate-choice,34,226921,0.0-34.0,FALSE,TRUE,FALSE,TRUE,"""event"",""trial"",""time""
""fullscreenenter"",""5"",""17371""
","
","
","""event"",""trial"",""time""
""fullscreenenter"",""5"",""17371""
","
",1587,NA,48,NA,NA,3000,1,NA,NA,images/tutgreenplanet.jpg,images/tutalien1,images/tutalien2,null,images/tutalien1,images/nothing.png,NA,practice,null,NA,NA,NA,NA,sub25
d3-animate-choice,35,230709,0.0-35.0,FALSE,TRUE,FALSE,TRUE,"""event"",""trial"",""time""
""fullscreenenter"",""5"",""17371""
","
","
","""event"",""trial"",""time""
""fullscreenenter"",""5"",""17371""
","
",1786,NA,49,NA,NA,3000,1,NA,NA,images/tutgreenplanet.jpg,images/tutalien1,images/tutalien2,null,images/tutalien2,images/t.png,NA,practice,null,NA,NA,NA,NA,sub25
d3-animate-choice,36,233933,0.0-36.0,FALSE,TRUE,FALSE,TRUE,"""event"",""trial"",""time""
""fullscreenenter"",""5"",""17371""
","
","
","""event"",""trial"",""time""
""fullscreenenter"",""5"",""17371""
","
",1221,NA,48,NA,NA,3000,1,NA,NA,images/tutgreenplanet.jpg,images/tutalien1,images/tutalien2,null,images/tutalien1,images/nothing.png,NA,practice,null,NA,NA,NA,NA,sub25
d3-animate-choice,37,236557,0.0-37.0,FALSE,TRUE,FALSE,TRUE,"""event"",""trial"",""time""
""fullscreenenter"",""5"",""17371""
","
","
","""event"",""trial"",""time""
""fullscreenenter"",""5"",""17371""
","
",623,NA,49,NA,NA,3000,1,NA,NA,images/tutgreenplanet.jpg,images/tutalien1,images/tutalien2,null,images/tutalien2,images/t.png,NA,practice,null,NA,NA,NA,NA,sub25
d3-animate-choice,38,239057,0.0-38.0,FALSE,TRUE,FALSE,TRUE,"""event"",""trial"",""time""
""fullscreenenter"",""5"",""17371""
","
","
","""event"",""trial"",""time""
""fullscreenenter"",""5"",""17371""
","
",498.0000000000291,NA,49,NA,NA,3000,1,NA,NA,images/tutgreenplanet.jpg,images/tutalien1,images/tutalien2,null,images/tutalien2,images/t.png,NA,practice,null,NA,NA,NA,NA,sub25
d3-animate-choice,39,241622,0.0-39.0,FALSE,TRUE,FALSE,TRUE,"""event"",""trial"",""time""
""fullscreenenter"",""5"",""17371""
","
","
","""event"",""trial"",""time""
""fullscreenenter"",""5"",""17371""
","
",562.0000000000291,NA,48,NA,NA,3000,1,NA,NA,images/tutgreenplanet.jpg,images/tutalien1,images/tutalien2,null,images/tutalien1,images/nothing.png,NA,practice,null,NA,NA,NA,NA,sub25
d3-animate-choice,40,244113,0.0-40.0,FALSE,TRUE,FALSE,TRUE,"""event"",""trial"",""time""
""fullscreenenter"",""5"",""17371""
","
","
","""event"",""trial"",""time""
""fullscreenenter"",""5"",""17371""
","
",489,NA,48,NA,NA,3000,1,NA,NA,images/tutgreenplanet.jpg,images/tutalien1,images/tutalien2,null,images/tutalien1,images/nothing.png,NA,practice,null,NA,NA,NA,NA,sub25
d3-animate-choice,41,246462,0.0-41.0,FALSE,TRUE,FALSE,TRUE,"""event"",""trial"",""time""
""fullscreenenter"",""5"",""17371""
","
","
","""event"",""trial"",""time""
""fullscreenenter"",""5"",""17371""
","
",346.0000000000291,NA,49,NA,NA,3000,1,NA,NA,images/tutgreenplanet.jpg,images/tutalien1,images/tutalien2,null,images/tutalien2,images/t.png,NA,practice,null,NA,NA,NA,NA,sub25
d3-animate-choice,42,248824,0.0-42.0,FALSE,TRUE,FALSE,TRUE,"""event"",""trial"",""time""
""fullscreenenter"",""5"",""17371""
","
","
","""event"",""trial"",""time""
""fullscreenenter"",""5"",""17371""
","
",361,NA,49,NA,NA,3000,1,NA,NA,images/tutgreenplanet.jpg,images/tutalien1,images/tutalien2,null,images/tutalien2,images/t.png,NA,practice,null,NA,NA,NA,NA,sub25
d3-animate-choice,43,251301,0.0-43.0,FALSE,TRUE,FALSE,TRUE,"""event"",""trial"",""time""
""fullscreenenter"",""5"",""17371""
","
","
","""event"",""trial"",""time""
""fullscreenenter"",""5"",""17371""
","
",475,NA,49,NA,NA,3000,1,NA,NA,images/tutgreenplanet.jpg,images/tutalien1,images/tutalien2,null,images/tutalien2,images/t.png,NA,practice,null,NA,NA,NA,NA,sub25
d3-instructions,44,262895,0.0-44.0,FALSE,TRUE,FALSE,TRUE,"""event"",""trial"",""time""
""fullscreenenter"",""5"",""17371""
","
","
","""event"",""trial"",""time""
""fullscreenenter"",""5"",""17371""
","
",NA,NA,NA,NA,NA,NA,NA,NA,NA,NA,NA,NA,NA,NA,NA,NA,NA,NA,NA,NA,NA,NA,sub25
d3-instructions,45,265561,0.0-45.0,FALSE,TRUE,FALSE,TRUE,"""event"",""trial"",""time""
""fullscreenenter"",""5"",""17371""
","
","
","""event"",""trial"",""time""
""fullscreenenter"",""5"",""17371""
","
",NA,NA,NA,NA,NA,NA,NA,NA,NA,NA,NA,NA,NA,NA,NA,NA,NA,NA,NA,NA,NA,NA,sub25
d3-instructions,46,271230,0.0-46.0,FALSE,TRUE,FALSE,TRUE,"""event"",""trial"",""time""
""fullscreenenter"",""5"",""17371""
","
","
","""event"",""trial"",""time""
""fullscreenenter"",""5"",""17371""
","
",NA,NA,NA,NA,NA,NA,NA,NA,NA,NA,NA,NA,NA,NA,NA,NA,NA,NA,NA,NA,NA,NA,sub25
d3-instructions,47,273698,0.0-47.0,FALSE,TRUE,FALSE,TRUE,"""event"",""trial"",""time""
""fullscreenenter"",""5"",""17371""
","
","
","""event"",""trial"",""time""
""fullscreenenter"",""5"",""17371""
","
",NA,NA,NA,NA,NA,NA,NA,NA,NA,NA,NA,NA,NA,NA,NA,NA,NA,NA,NA,NA,NA,NA,sub25
d3-instructions,48,275702,0.0-48.0,FALSE,TRUE,FALSE,TRUE,"""event"",""trial"",""time""
""fullscreenenter"",""5"",""17371""
","
","
","""event"",""trial"",""time""
""fullscreenenter"",""5"",""17371""
","
",NA,NA,NA,NA,NA,NA,NA,NA,NA,NA,NA,NA,NA,NA,NA,NA,NA,NA,NA,NA,NA,NA,sub25
d3-instructions,49,278114,0.0-49.0,FALSE,TRUE,FALSE,TRUE,"""event"",""trial"",""time""
""fullscreenenter"",""5"",""17371""
","
","
","""event"",""trial"",""time""
""fullscreenenter"",""5"",""17371""
","
",NA,NA,NA,NA,NA,NA,NA,NA,NA,NA,NA,NA,NA,NA,NA,NA,NA,NA,NA,NA,NA,NA,sub25
d3-instructions,50,282751,0.0-50.0,FALSE,TRUE,FALSE,TRUE,"""event"",""trial"",""time""
""fullscreenenter"",""5"",""17371""
","
","
","""event"",""trial"",""time""
""fullscreenenter"",""5"",""17371""
","
",NA,NA,NA,NA,NA,NA,NA,NA,NA,NA,NA,NA,NA,NA,NA,NA,NA,NA,NA,NA,NA,NA,sub25
d3-instructions,51,285554,0.0-51.0,FALSE,TRUE,FALSE,TRUE,"""event"",""trial"",""time""
""fullscreenenter"",""5"",""17371""
","
","
","""event"",""trial"",""time""
""fullscreenenter"",""5"",""17371""
","
",NA,NA,NA,NA,NA,NA,NA,NA,NA,NA,NA,NA,NA,NA,NA,NA,NA,NA,NA,NA,NA,NA,sub25
d3-instructions,52,287510,0.0-52.0,FALSE,TRUE,FALSE,TRUE,"""event"",""trial"",""time""
""fullscreenenter"",""5"",""17371""
","
","
","""event"",""trial"",""time""
""fullscreenenter"",""5"",""17371""
","
",NA,NA,NA,NA,NA,NA,NA,NA,NA,NA,NA,NA,NA,NA,NA,NA,NA,NA,NA,NA,NA,NA,sub25
d3-instructions,53,289914,0.0-53.0,FALSE,TRUE,FALSE,TRUE,"""event"",""trial"",""time""
""fullscreenenter"",""5"",""17371""
","
","
","""event"",""trial"",""time""
""fullscreenenter"",""5"",""17371""
","
",NA,NA,NA,NA,NA,NA,NA,NA,NA,NA,NA,NA,NA,NA,NA,NA,NA,NA,NA,NA,NA,NA,sub25
d3-instructions,54,292503,0.0-54.0,FALSE,TRUE,FALSE,TRUE,"""event"",""trial"",""time""
""fullscreenenter"",""5"",""17371""
","
","
","""event"",""trial"",""time""
""fullscreenenter"",""5"",""17371""
","
",NA,NA,NA,NA,NA,NA,NA,NA,NA,NA,NA,NA,NA,NA,NA,NA,NA,NA,NA,NA,NA,NA,sub25
d3-instructions,55,294242,0.0-55.0,FALSE,TRUE,FALSE,TRUE,"""event"",""trial"",""time""
""fullscreenenter"",""5"",""17371""
","
","
","""event"",""trial"",""time""
""fullscreenenter"",""5"",""17371""
","
",NA,NA,NA,NA,NA,NA,NA,NA,NA,NA,NA,NA,NA,NA,NA,NA,NA,NA,NA,NA,NA,NA,sub25
d3-instructions,56,296271,0.0-56.0,FALSE,TRUE,FALSE,TRUE,"""event"",""trial"",""time""
""fullscreenenter"",""5"",""17371""
","
","
","""event"",""trial"",""time""
""fullscreenenter"",""5"",""17371""
","
",NA,NA,NA,NA,NA,NA,NA,NA,NA,NA,NA,NA,NA,NA,NA,NA,NA,NA,NA,NA,NA,NA,sub25
d3-instructions,57,297746,0.0-57.0,FALSE,TRUE,FALSE,TRUE,"""event"",""trial"",""time""
""fullscreenenter"",""5"",""17371""
","
","
","""event"",""trial"",""time""
""fullscreenenter"",""5"",""17371""
","
",NA,NA,NA,NA,NA,NA,NA,NA,NA,NA,NA,NA,NA,NA,NA,NA,NA,NA,NA,NA,NA,NA,sub25
d3-instructions,58,299911,0.0-58.0,FALSE,TRUE,FALSE,TRUE,"""event"",""trial"",""time""
""fullscreenenter"",""5"",""17371""
","
","
","""event"",""trial"",""time""
""fullscreenenter"",""5"",""17371""
","
",NA,NA,NA,NA,NA,NA,NA,NA,NA,NA,NA,NA,NA,NA,NA,NA,NA,NA,NA,NA,NA,NA,sub25
d3-instructions,59,301587,0.0-59.0,FALSE,TRUE,FALSE,TRUE,"""event"",""trial"",""time""
""fullscreenenter"",""5"",""17371""
","
","
","""event"",""trial"",""time""
""fullscreenenter"",""5"",""17371""
","
",NA,NA,NA,NA,NA,NA,NA,NA,NA,NA,NA,NA,NA,NA,NA,NA,NA,NA,NA,NA,NA,NA,sub25
d3-instructions,60,303074,0.0-60.0,FALSE,TRUE,FALSE,TRUE,"""event"",""trial"",""time""
""fullscreenenter"",""5"",""17371""
","
","
","""event"",""trial"",""time""
""fullscreenenter"",""5"",""17371""
","
",NA,NA,NA,NA,NA,NA,NA,NA,NA,NA,NA,NA,NA,NA,NA,NA,NA,NA,NA,NA,NA,NA,sub25
d3-animate-choice,61,306361,0.0-61.0-0.0,FALSE,TRUE,FALSE,TRUE,"""event"",""trial"",""time""
""fullscreenenter"",""5"",""17371""
","
","
","""event"",""trial"",""time""
""fullscreenenter"",""5"",""17371""
","
",1283,NA,48,NA,NA,3000,1,NA,NA,images/earth.jpg,images/tutrocket2,images/tutrocket1,null,images/tutrocket2,NA,1,practice,null,2,NA,NA,NA,sub25
d3-animate-choice,62,309648,0.0-61.0-1.0,FALSE,TRUE,FALSE,TRUE,"""event"",""trial"",""time""
""fullscreenenter"",""5"",""17371""
","
","
","""event"",""trial"",""time""
""fullscreenenter"",""5"",""17371""
","
",1285,NA,49,NA,NA,3000,1,NA,NA,images/tutgreenplanet.jpg,images/tutalien2,images/tutalien1,images/tutrocket2,images/tutalien1,images/nothing.png,2,practice,false,1,rare,0,2020-06-02T20:34:01Z,sub25
two-step-fixation,63,310650,0.0-61.0-2.0,FALSE,TRUE,FALSE,TRUE,"""event"",""trial"",""time""
""fullscreenenter"",""5"",""17371""
","
","
","""event"",""trial"",""time""
""fullscreenenter"",""5"",""17371""
","
",NA,images/earth.jpg,NA,NA,NA,NA,NA,NA,NA,NA,NA,NA,NA,NA,NA,fixation,NA,NA,NA,NA,NA,NA,sub25
d3-animate-choice,64,314073,0.0-61.0-0.1,FALSE,TRUE,FALSE,TRUE,"""event"",""trial"",""time""
""fullscreenenter"",""5"",""17371""
","
","
","""event"",""trial"",""time""
""fullscreenenter"",""5"",""17371""
","
",1420,NA,49,NA,NA,3000,1,NA,NA,images/earth.jpg,images/tutrocket2,images/tutrocket1,null,images/tutrocket1,NA,1,practice,null,1,NA,NA,NA,sub25
d3-animate-choice,65,317526,0.0-61.0-1.1,FALSE,TRUE,FALSE,TRUE,"""event"",""trial"",""time""
""fullscreenenter"",""5"",""17371""
","
","
","""event"",""trial"",""time""
""fullscreenenter"",""5"",""17371""
","
",1450,NA,49,NA,NA,3000,1,NA,NA,images/tutgreenplanet.jpg,images/tutalien2,images/tutalien1,images/tutrocket1,images/tutalien1,images/nothing.png,2,practice,true,1,common,0,2020-06-02T20:34:09Z,sub25
two-step-fixation,66,318527,0.0-61.0-2.1,FALSE,TRUE,FALSE,TRUE,"""event"",""trial"",""time""
""fullscreenenter"",""5"",""17371""
","
","
","""event"",""trial"",""time""
""fullscreenenter"",""5"",""17371""
","
",NA,images/earth.jpg,NA,NA,NA,NA,NA,NA,NA,NA,NA,NA,NA,NA,NA,fixation,NA,NA,NA,NA,NA,NA,sub25
d3-animate-choice,67,321837,0.0-61.0-0.2,FALSE,TRUE,FALSE,TRUE,"""event"",""trial"",""time""
""fullscreenenter"",""5"",""17371""
","
","
","""event"",""trial"",""time""
""fullscreenenter"",""5"",""17371""
","
",1308,NA,48,NA,NA,3000,1,NA,NA,images/earth.jpg,images/tutrocket2,images/tutrocket1,null,images/tutrocket2,NA,1,practice,null,2,NA,NA,NA,sub25
d3-animate-choice,68,325217,0.0-61.0-1.2,FALSE,TRUE,FALSE,TRUE,"""event"",""trial"",""time""
""fullscreenenter"",""5"",""17371""
","
","
","""event"",""trial"",""time""
""fullscreenenter"",""5"",""17371""
","
",1377.0000000000582,NA,48,NA,NA,3000,1,NA,NA,images/tutyellowplanet.jpg,images/tutalien4,images/tutalien3,images/tutrocket2,images/tutalien4,images/t.png,2,practice,true,2,common,1,2020-06-02T20:34:17Z,sub25
two-step-fixation,69,326219,0.0-61.0-2.2,FALSE,TRUE,FALSE,TRUE,"""event"",""trial"",""time""
""fullscreenenter"",""5"",""17371""
","
","
","""event"",""trial"",""time""
""fullscreenenter"",""5"",""17371""
","
",NA,images/earth.jpg,NA,NA,NA,NA,NA,NA,NA,NA,NA,NA,NA,NA,NA,fixation,NA,NA,NA,NA,NA,NA,sub25
d3-animate-choice,70,329358,0.0-61.0-0.3,FALSE,TRUE,FALSE,TRUE,"""event"",""trial"",""time""
""fullscreenenter"",""5"",""17371""
","
","
","""event"",""trial"",""time""
""fullscreenenter"",""5"",""17371""
","
",1137,NA,49,NA,NA,3000,1,1138,48,images/earth.jpg,images/tutrocket2,images/tutrocket1,null,images/tutrocket1,NA,1,practice,null,1,NA,NA,NA,sub25
d3-animate-choice,71,332087,0.0-61.0-1.3,FALSE,TRUE,FALSE,TRUE,"""event"",""trial"",""time""
""fullscreenenter"",""5"",""17371""
","
","
","""event"",""trial"",""time""
""fullscreenenter"",""5"",""17371""
","
",726,NA,49,NA,NA,3000,1,743,48,images/tutgreenplanet.jpg,images/tutalien2,images/tutalien1,images/tutrocket1,images/tutalien1,images/nothing.png,2,practice,true,1,common,0,2020-06-02T20:34:24Z,sub25
two-step-fixation,72,333169,0.0-61.0-2.3,FALSE,TRUE,FALSE,TRUE,"""event"",""trial"",""time""
""fullscreenenter"",""5"",""17371""
","
","
","""event"",""trial"",""time""
""fullscreenenter"",""5"",""17371""
","
",NA,images/earth.jpg,NA,NA,NA,NA,NA,NA,NA,NA,NA,NA,NA,NA,NA,fixation,NA,NA,NA,NA,NA,NA,sub25
d3-animate-choice,73,335387,0.0-61.0-0.4,FALSE,TRUE,FALSE,TRUE,"""event"",""trial"",""time""
""fullscreenenter"",""5"",""17371""
","
","
","""event"",""trial"",""time""
""fullscreenenter"",""5"",""17371""
","
",215,NA,48,NA,NA,3000,1,NA,NA,images/earth.jpg,images/tutrocket2,images/tutrocket1,null,images/tutrocket2,NA,1,practice,null,2,NA,NA,NA,sub25
d3-animate-choice,74,338199,0.0-61.0-1.4,FALSE,TRUE,FALSE,TRUE,"""event"",""trial"",""time""
""fullscreenenter"",""5"",""17371""
","
","
","""event"",""trial"",""time""
""fullscreenenter"",""5"",""17371""
","
",808.9999999999418,NA,49,NA,NA,3000,1,NA,NA,images/tutyellowplanet.jpg,images/tutalien4,images/tutalien3,images/tutrocket2,images/tutalien3,images/nothing.png,2,practice,true,1,common,0,2020-06-02T20:34:30Z,sub25
two-step-fixation,75,339201,0.0-61.0-2.4,FALSE,TRUE,FALSE,TRUE,"""event"",""trial"",""time""
""fullscreenenter"",""5"",""17371""
","
","
","""event"",""trial"",""time""
""fullscreenenter"",""5"",""17371""
","
",NA,images/earth.jpg,NA,NA,NA,NA,NA,NA,NA,NA,NA,NA,NA,NA,NA,fixation,NA,NA,NA,NA,NA,NA,sub25
d3-animate-choice,76,342071,0.0-61.0-0.5,FALSE,TRUE,FALSE,TRUE,"""event"",""trial"",""time""
""fullscreenenter"",""5"",""17371""
","
","
","""event"",""trial"",""time""
""fullscreenenter"",""5"",""17371""
","
",867,NA,49,NA,NA,3000,1,NA,NA,images/earth.jpg,images/tutrocket2,images/tutrocket1,null,images/tutrocket1,NA,1,practice,null,1,NA,NA,NA,sub25
d3-animate-choice,77,344923,0.0-61.0-1.5,FALSE,TRUE,FALSE,TRUE,"""event"",""trial"",""time""
""fullscreenenter"",""5"",""17371""
","
","
","""event"",""trial"",""time""
""fullscreenenter"",""5"",""17371""
","
",849,NA,48,NA,NA,3000,1,NA,NA,images/tutgreenplanet.jpg,images/tutalien2,images/tutalien1,images/tutrocket1,images/tutalien2,images/nothing.png,2,practice,true,2,common,0,2020-06-02T20:34:37Z,sub25
two-step-fixation,78,345924,0.0-61.0-2.5,FALSE,TRUE,FALSE,TRUE,"""event"",""trial"",""time""
""fullscreenenter"",""5"",""17371""
","
","
","""event"",""trial"",""time""
""fullscreenenter"",""5"",""17371""
","
",NA,images/earth.jpg,NA,NA,NA,NA,NA,NA,NA,NA,NA,NA,NA,NA,NA,fixation,NA,NA,NA,NA,NA,NA,sub25
d3-animate-choice,79,349009,0.0-61.0-0.6,FALSE,TRUE,FALSE,TRUE,"""event"",""trial"",""time""
""fullscreenenter"",""5"",""17371""
","
","
","""event"",""trial"",""time""
""fullscreenenter"",""5"",""17371""
","
",1082,NA,49,NA,NA,3000,1,NA,NA,images/earth.jpg,images/tutrocket2,images/tutrocket1,null,images/tutrocket1,NA,1,practice,null,1,NA,NA,NA,sub25
d3-animate-choice,80,352676,0.0-61.0-1.6,FALSE,TRUE,FALSE,TRUE,"""event"",""trial"",""time""
""fullscreenenter"",""5"",""17371""
","
","
","""event"",""trial"",""time""
""fullscreenenter"",""5"",""17371""
","
",1665.0000000000582,NA,48,NA,NA,3000,1,NA,NA,images/tutgreenplanet.jpg,images/tutalien2,images/tutalien1,images/tutrocket1,images/tutalien2,images/nothing.png,2,practice,true,2,common,0,2020-06-02T20:34:45Z,sub25
two-step-fixation,81,353677,0.0-61.0-2.6,FALSE,TRUE,FALSE,TRUE,"""event"",""trial"",""time""
""fullscreenenter"",""5"",""17371""
","
","
","""event"",""trial"",""time""
""fullscreenenter"",""5"",""17371""
","
",NA,images/earth.jpg,NA,NA,NA,NA,NA,NA,NA,NA,NA,NA,NA,NA,NA,fixation,NA,NA,NA,NA,NA,NA,sub25
d3-animate-choice,82,357681,0.0-61.0-0.7,FALSE,TRUE,FALSE,TRUE,"""event"",""trial"",""time""
""fullscreenenter"",""5"",""17371""
","
","
","""event"",""trial"",""time""
""fullscreenenter"",""5"",""17371""
","
",3747.000000000058,NA,49,NA,NA,3000,0,NA,NA,images/earth.jpg,images/tutrocket2,images/tutrocket1,null,NA,NA,1,practice,null,1,NA,NA,NA,sub25
d3-animate-choice,83,358685,0.0-61.0-1.7,FALSE,TRUE,FALSE,TRUE,"""event"",""trial"",""time""
""fullscreenenter"",""5"",""17371""
","
","
","""event"",""trial"",""time""
""fullscreenenter"",""5"",""17371""
","
",null,NA,null,NA,NA,0,0,NA,NA,images/earth.jpg,images/tutrocket2,images/tutrocket1,null,NA,NA,2,practice,null,NA,NA,0,2020-06-02T20:34:51Z,sub25
two-step-fixation,84,359687,0.0-61.0-2.7,FALSE,TRUE,FALSE,TRUE,"""event"",""trial"",""time""
""fullscreenenter"",""5"",""17371""
","
","
","""event"",""trial"",""time""
""fullscreenenter"",""5"",""17371""
","
",NA,images/earth.jpg,NA,NA,NA,NA,NA,NA,NA,NA,NA,NA,NA,NA,NA,fixation,NA,NA,NA,NA,NA,NA,sub25
d3-animate-choice,85,362054,0.0-61.0-0.8,FALSE,TRUE,FALSE,TRUE,"""event"",""trial"",""time""
""fullscreenenter"",""5"",""17371""
","
","
","""event"",""trial"",""time""
""fullscreenenter"",""5"",""17371""
","
",364,NA,49,NA,NA,3000,1,NA,NA,images/earth.jpg,images/tutrocket2,images/tutrocket1,null,images/tutrocket1,NA,1,practice,null,1,NA,NA,NA,sub25
d3-animate-choice,86,365946,0.0-61.0-1.8,FALSE,TRUE,FALSE,TRUE,"""event"",""trial"",""time""
""fullscreenenter"",""5"",""17371""
","
","
","""event"",""trial"",""time""
""fullscreenenter"",""5"",""17371""
","
",1890,NA,48,NA,NA,3000,1,NA,NA,images/tutyellowplanet.jpg,images/tutalien4,images/tutalien3,images/tutrocket1,images/tutalien4,images/t.png,2,practice,false,2,rare,1,2020-06-02T20:34:58Z,sub25
two-step-fixation,87,366948,0.0-61.0-2.8,FALSE,TRUE,FALSE,TRUE,"""event"",""trial"",""time""
""fullscreenenter"",""5"",""17371""
","
","
","""event"",""trial"",""time""
""fullscreenenter"",""5"",""17371""
","
",NA,images/earth.jpg,NA,NA,NA,NA,NA,NA,NA,NA,NA,NA,NA,NA,NA,fixation,NA,NA,NA,NA,NA,NA,sub25
d3-animate-choice,88,370087,0.0-61.0-0.9,FALSE,TRUE,FALSE,TRUE,"""event"",""trial"",""time""
""fullscreenenter"",""5"",""17371""
","
","
","""event"",""trial"",""time""
""fullscreenenter"",""5"",""17371""
","
",1138.0000000000582,NA,48,NA,NA,3000,1,NA,NA,images/earth.jpg,images/tutrocket2,images/tutrocket1,null,images/tutrocket2,NA,1,practice,null,2,NA,NA,NA,sub25
d3-animate-choice,89,373977,0.0-61.0-1.9,FALSE,TRUE,FALSE,TRUE,"""event"",""trial"",""time""
""fullscreenenter"",""5"",""17371""
","
","
","""event"",""trial"",""time""
""fullscreenenter"",""5"",""17371""
","
",1887,NA,49,NA,NA,3000,1,NA,NA,images/tutgreenplanet.jpg,images/tutalien2,images/tutalien1,images/tutrocket2,images/tutalien1,images/nothing.png,2,practice,false,1,rare,0,2020-06-02T20:35:06Z,sub25
two-step-fixation,90,374979,0.0-61.0-2.9,FALSE,TRUE,FALSE,TRUE,"""event"",""trial"",""time""
""fullscreenenter"",""5"",""17371""
","
","
","""event"",""trial"",""time""
""fullscreenenter"",""5"",""17371""
","
",NA,images/earth.jpg,NA,NA,NA,NA,NA,NA,NA,NA,NA,NA,NA,NA,NA,fixation,NA,NA,NA,NA,NA,NA,sub25
d3-animate-choice,91,378981,0.0-61.0-0.10,FALSE,TRUE,FALSE,TRUE,"""event"",""trial"",""time""
""fullscreenenter"",""5"",""17371""
","
","
","""event"",""trial"",""time""
""fullscreenenter"",""5"",""17371""
","
",2532,NA,48,NA,NA,3000,1,NA,NA,images/earth.jpg,images/tutrocket2,images/tutrocket1,null,images/tutrocket2,NA,1,practice,null,2,NA,NA,NA,sub25
d3-animate-choice,92,382140,0.0-61.0-1.10,FALSE,TRUE,FALSE,TRUE,"""event"",""trial"",""time""
""fullscreenenter"",""5"",""17371""
","
","
","""event"",""trial"",""time""
""fullscreenenter"",""5"",""17371""
","
",1157,NA,48,NA,NA,3000,1,NA,NA,images/tutgreenplanet.jpg,images/tutalien2,images/tutalien1,images/tutrocket2,images/tutalien2,images/nothing.png,2,practice,false,2,rare,0,2020-06-02T20:35:14Z,sub25
two-step-fixation,93,383141,0.0-61.0-2.10,FALSE,TRUE,FALSE,TRUE,"""event"",""trial"",""time""
""fullscreenenter"",""5"",""17371""
","
","
","""event"",""trial"",""time""
""fullscreenenter"",""5"",""17371""
","
",NA,images/earth.jpg,NA,NA,NA,NA,NA,NA,NA,NA,NA,NA,NA,NA,NA,fixation,NA,NA,NA,NA,NA,NA,sub25
d3-animate-choice,94,385800,0.0-61.0-0.11,FALSE,TRUE,FALSE,TRUE,"""event"",""trial"",""time""
""fullscreenenter"",""5"",""17371""
","
","
","""event"",""trial"",""time""
""fullscreenenter"",""5"",""17371""
","
",658,NA,49,NA,NA,3000,1,NA,NA,images/earth.jpg,images/tutrocket2,images/tutrocket1,null,images/tutrocket1,NA,1,practice,null,1,NA,NA,NA,sub25
d3-animate-choice,95,388524,0.0-61.0-1.11,FALSE,TRUE,FALSE,TRUE,"""event"",""trial"",""time""
""fullscreenenter"",""5"",""17371""
","
","
","""event"",""trial"",""time""
""fullscreenenter"",""5"",""17371""
","
",721.9999999999418,NA,49,NA,NA,3000,1,NA,NA,images/tutgreenplanet.jpg,images/tutalien2,images/tutalien1,images/tutrocket1,images/tutalien1,images/nothing.png,2,practice,true,1,common,0,2020-06-02T20:35:20Z,sub25
two-step-fixation,96,389526,0.0-61.0-2.11,FALSE,TRUE,FALSE,TRUE,"""event"",""trial"",""time""
""fullscreenenter"",""5"",""17371""
","
","
","""event"",""trial"",""time""
""fullscreenenter"",""5"",""17371""
","
",NA,images/earth.jpg,NA,NA,NA,NA,NA,NA,NA,NA,NA,NA,NA,NA,NA,fixation,NA,NA,NA,NA,NA,NA,sub25
d3-animate-choice,97,391640,0.0-61.0-0.12,FALSE,TRUE,FALSE,TRUE,"""event"",""trial"",""time""
""fullscreenenter"",""5"",""17371""
","
","
","""event"",""trial"",""time""
""fullscreenenter"",""5"",""17371""
","
",111.99999999994179,NA,48,NA,NA,3000,1,NA,NA,images/earth.jpg,images/tutrocket2,images/tutrocket1,null,images/tutrocket2,NA,1,practice,null,2,NA,NA,NA,sub25
d3-animate-choice,98,395337,0.0-61.0-1.12,FALSE,TRUE,FALSE,TRUE,"""event"",""trial"",""time""
""fullscreenenter"",""5"",""17371""
","
","
","""event"",""trial"",""time""
""fullscreenenter"",""5"",""17371""
","
",1694,NA,49,NA,NA,3000,1,1719,192,images/tutyellowplanet.jpg,images/tutalien4,images/tutalien3,images/tutrocket2,images/tutalien3,images/nothing.png,2,practice,true,1,common,0,2020-06-02T20:35:27Z,sub25
two-step-fixation,99,396339,0.0-61.0-2.12,FALSE,TRUE,FALSE,TRUE,"""event"",""trial"",""time""
""fullscreenenter"",""5"",""17371""
","
","
","""event"",""trial"",""time""
""fullscreenenter"",""5"",""17371""
","
",NA,images/earth.jpg,NA,NA,NA,NA,NA,NA,NA,NA,NA,NA,NA,NA,NA,fixation,NA,NA,NA,NA,NA,NA,sub25
d3-animate-choice,100,398393,0.0-61.0-0.13,FALSE,TRUE,FALSE,TRUE,"""event"",""trial"",""time""
""fullscreenenter"",""5"",""17371""
","
","
","""event"",""trial"",""time""
""fullscreenenter"",""5"",""17371""
","
",51,NA,48,NA,NA,3000,1,"239,571,751,995,1271.0000000000582,1491,1687.0000000000582,2019",4848484949494949,images/earth.jpg,images/tutrocket2,images/tutrocket1,null,images/tutrocket2,NA,1,practice,null,2,NA,NA,NA,sub25
d3-animate-choice,101,400600,0.0-61.0-1.13,FALSE,TRUE,FALSE,TRUE,"""event"",""trial"",""time""
""fullscreenenter"",""5"",""17371""
","
","
","""event"",""trial"",""time""
""fullscreenenter"",""5"",""17371""
","
",206.0000000000582,NA,48,NA,NA,3000,1,"374,534,670.0000000000582,854,1006,1198,1342,1494,1638,1806,1958,2118",4948494849484948e8,images/tutyellowplanet.jpg,images/tutalien4,images/tutalien3,images/tutrocket2,images/tutalien4,images/t.png,2,practice,true,2,common,1,2020-06-02T20:35:32Z,sub25
two-step-fixation,102,401602,0.0-61.0-2.13,FALSE,TRUE,FALSE,TRUE,"""event"",""trial"",""time""
""fullscreenenter"",""5"",""17371""
","
","
","""event"",""trial"",""time""
""fullscreenenter"",""5"",""17371""
","
",NA,images/earth.jpg,NA,NA,NA,NA,NA,NA,NA,NA,NA,NA,NA,NA,NA,fixation,NA,NA,NA,NA,NA,NA,sub25
d3-animate-choice,103,403722,0.0-61.0-0.14,FALSE,TRUE,FALSE,TRUE,"""event"",""trial"",""time""
""fullscreenenter"",""5"",""17371""
","
","
","""event"",""trial"",""time""
""fullscreenenter"",""5"",""17371""
","
",118,NA,49,NA,NA,3000,1,"317,477,693,822,1061,1333,1429,1597,1953",484948494849484900,images/earth.jpg,images/tutrocket2,images/tutrocket1,null,images/tutrocket1,NA,1,practice,null,1,NA,NA,NA,sub25
d3-animate-choice,104,405768,0.0-61.0-1.14,FALSE,TRUE,FALSE,TRUE,"""event"",""trial"",""time""
""fullscreenenter"",""5"",""17371""
","
","
","""event"",""trial"",""time""
""fullscreenenter"",""5"",""17371""
","
",45,NA,48,NA,NA,3000,1,"173,413.0000000000582,509,749,901.0000000000582,1249,1477,1605,1805.0000000000582,1925.0000000000582",494849484949485e5,images/tutyellowplanet.jpg,images/tutalien4,images/tutalien3,images/tutrocket1,images/tutalien4,images/nothing.png,2,practice,false,2,rare,0,2020-06-02T20:35:38Z,sub25
two-step-fixation,105,406770,0.0-61.0-2.14,FALSE,TRUE,FALSE,TRUE,"""event"",""trial"",""time""
""fullscreenenter"",""5"",""17371""
","
","
","""event"",""trial"",""time""
""fullscreenenter"",""5"",""17371""
","
",NA,images/earth.jpg,NA,NA,NA,NA,NA,NA,NA,NA,NA,NA,NA,NA,NA,fixation,NA,NA,NA,NA,NA,NA,sub25
d3-animate-choice,106,409345,0.0-61.0-0.15,FALSE,TRUE,FALSE,TRUE,"""event"",""trial"",""time""
""fullscreenenter"",""5"",""17371""
","
","
","""event"",""trial"",""time""
""fullscreenenter"",""5"",""17371""
","
",573,NA,49,NA,NA,3000,1,NA,NA,images/earth.jpg,images/tutrocket2,images/tutrocket1,null,images/tutrocket1,NA,1,practice,null,1,NA,NA,NA,sub25
d3-animate-choice,107,411833,0.0-61.0-1.15,FALSE,TRUE,FALSE,TRUE,"""event"",""trial"",""time""
""fullscreenenter"",""5"",""17371""
","
","
","""event"",""trial"",""time""
""fullscreenenter"",""5"",""17371""
","
",485,NA,48,NA,NA,3000,1,NA,NA,images/tutyellowplanet.jpg,images/tutalien4,images/tutalien3,images/tutrocket1,images/tutalien4,images/nothing.png,2,practice,false,2,rare,0,2020-06-02T20:35:44Z,sub25
two-step-fixation,108,412835,0.0-61.0-2.15,FALSE,TRUE,FALSE,TRUE,"""event"",""trial"",""time""
""fullscreenenter"",""5"",""17371""
","
","
","""event"",""trial"",""time""
""fullscreenenter"",""5"",""17371""
","
",NA,images/earth.jpg,NA,NA,NA,NA,NA,NA,NA,NA,NA,NA,NA,NA,NA,fixation,NA,NA,NA,NA,NA,NA,sub25
d3-animate-choice,109,415356,0.0-61.0-0.16,FALSE,TRUE,FALSE,TRUE,"""event"",""trial"",""time""
""fullscreenenter"",""5"",""17371""
","
","
","""event"",""trial"",""time""
""fullscreenenter"",""5"",""17371""
","
",519.0000000000582,NA,49,NA,NA,3000,1,NA,NA,images/earth.jpg,images/tutrocket2,images/tutrocket1,null,images/tutrocket1,NA,1,practice,null,1,NA,NA,NA,sub25
d3-animate-choice,110,419151,0.0-61.0-1.16,FALSE,TRUE,FALSE,TRUE,"""event"",""trial"",""time""
""fullscreenenter"",""5"",""17371""
","
","
","""event"",""trial"",""time""
""fullscreenenter"",""5"",""17371""
","
",1793,NA,48,NA,NA,3000,1,NA,NA,images/tutgreenplanet.jpg,images/tutalien2,images/tutalien1,images/tutrocket1,images/tutalien2,images/t.png,2,practice,true,2,common,1,2020-06-02T20:35:51Z,sub25
two-step-fixation,111,420152,0.0-61.0-2.16,FALSE,TRUE,FALSE,TRUE,"""event"",""trial"",""time""
""fullscreenenter"",""5"",""17371""
","
","
","""event"",""trial"",""time""
""fullscreenenter"",""5"",""17371""
","
",NA,images/earth.jpg,NA,NA,NA,NA,NA,NA,NA,NA,NA,NA,NA,NA,NA,fixation,NA,NA,NA,NA,NA,NA,sub25
d3-animate-choice,112,423537,0.0-61.0-0.17,FALSE,TRUE,FALSE,TRUE,"""event"",""trial"",""time""
""fullscreenenter"",""5"",""17371""
","
","
","""event"",""trial"",""time""
""fullscreenenter"",""5"",""17371""
","
",1382,NA,48,NA,NA,3000,1,NA,NA,images/earth.jpg,images/tutrocket2,images/tutrocket1,null,images/tutrocket2,NA,1,practice,null,2,NA,NA,NA,sub25
d3-animate-choice,113,426853,0.0-61.0-1.17,FALSE,TRUE,FALSE,TRUE,"""event"",""trial"",""time""
""fullscreenenter"",""5"",""17371""
","
","
","""event"",""trial"",""time""
""fullscreenenter"",""5"",""17371""
","
",1315,NA,49,NA,NA,3000,1,NA,NA,images/tutyellowplanet.jpg,images/tutalien4,images/tutalien3,images/tutrocket2,images/tutalien3,images/t.png,2,practice,true,1,common,1,2020-06-02T20:35:59Z,sub25
two-step-fixation,114,427854,0.0-61.0-2.17,FALSE,TRUE,FALSE,TRUE,"""event"",""trial"",""time""
""fullscreenenter"",""5"",""17371""
","
","
","""event"",""trial"",""time""
""fullscreenenter"",""5"",""17371""
","
",NA,images/earth.jpg,NA,NA,NA,NA,NA,NA,NA,NA,NA,NA,NA,NA,NA,fixation,NA,NA,NA,NA,NA,NA,sub25
d3-animate-choice,115,430649,0.0-61.0-0.18,FALSE,TRUE,FALSE,TRUE,"""event"",""trial"",""time""
""fullscreenenter"",""5"",""17371""
","
","
","""event"",""trial"",""time""
""fullscreenenter"",""5"",""17371""
","
",793,NA,49,NA,NA,3000,1,NA,NA,images/earth.jpg,images/tutrocket2,images/tutrocket1,null,images/tutrocket1,NA,1,practice,null,1,NA,NA,NA,sub25
d3-animate-choice,116,433830,0.0-61.0-1.18,FALSE,TRUE,FALSE,TRUE,"""event"",""trial"",""time""
""fullscreenenter"",""5"",""17371""
","
","
","""event"",""trial"",""time""
""fullscreenenter"",""5"",""17371""
","
",1179,NA,48,NA,NA,3000,1,NA,NA,images/tutgreenplanet.jpg,images/tutalien2,images/tutalien1,images/tutrocket1,images/tutalien2,images/nothing.png,2,practice,true,2,common,0,2020-06-02T20:36:06Z,sub25
two-step-fixation,117,434832,0.0-61.0-2.18,FALSE,TRUE,FALSE,TRUE,"""event"",""trial"",""time""
""fullscreenenter"",""5"",""17371""
","
","
","""event"",""trial"",""time""
""fullscreenenter"",""5"",""17371""
","
",NA,images/earth.jpg,NA,NA,NA,NA,NA,NA,NA,NA,NA,NA,NA,NA,NA,fixation,NA,NA,NA,NA,NA,NA,sub25
d3-animate-choice,118,438106,0.0-61.0-0.19,FALSE,TRUE,FALSE,TRUE,"""event"",""trial"",""time""
""fullscreenenter"",""5"",""17371""
","
","
","""event"",""trial"",""time""
""fullscreenenter"",""5"",""17371""
","
",1272,NA,49,NA,NA,3000,1,NA,NA,images/earth.jpg,images/tutrocket2,images/tutrocket1,null,images/tutrocket1,NA,1,practice,null,1,NA,NA,NA,sub25
d3-animate-choice,119,441386,0.0-61.0-1.19,FALSE,TRUE,FALSE,TRUE,"""event"",""trial"",""time""
""fullscreenenter"",""5"",""17371""
","
","
","""event"",""trial"",""time""
""fullscreenenter"",""5"",""17371""
","
",1278,NA,48,NA,NA,3000,1,NA,NA,images/tutgreenplanet.jpg,images/tutalien2,images/tutalien1,images/tutrocket1,images/tutalien2,images/nothing.png,2,practice,true,2,common,0,2020-06-02T20:36:13Z,sub25
two-step-fixation,120,442388,0.0-61.0-2.19,FALSE,TRUE,FALSE,TRUE,"""event"",""trial"",""time""
""fullscreenenter"",""5"",""17371""
","
","
","""event"",""trial"",""time""
""fullscreenenter"",""5"",""17371""
","
",NA,images/earth.jpg,NA,NA,NA,NA,NA,NA,NA,NA,NA,NA,NA,NA,NA,fixation,NA,NA,NA,NA,NA,NA,sub25
d3-instructions,121,450096,0.0-62.0,FALSE,TRUE,FALSE,TRUE,"""event"",""trial"",""time""
""fullscreenenter"",""5"",""17371""
","
","
","""event"",""trial"",""time""
""fullscreenenter"",""5"",""17371""
","
",NA,NA,NA,NA,NA,NA,NA,NA,NA,NA,NA,NA,NA,NA,NA,NA,NA,NA,NA,NA,NA,NA,sub25
audio-keyboard-response,122,455019,0.0-63.0,FALSE,TRUE,FALSE,TRUE,"""event"",""trial"",""time""
""fullscreenenter"",""5"",""17371""
","
","
","""event"",""trial"",""time""
""fullscreenenter"",""5"",""17371""
","
",4923,audio/instructions/treasure_feedback.wav,32,NA,NA,NA,NA,NA,NA,NA,NA,NA,NA,NA,NA,NA,NA,NA,NA,NA,NA,NA,sub25
d3-instructions,123,474176,0.0-64.0,FALSE,TRUE,FALSE,TRUE,"""event"",""trial"",""time""
""fullscreenenter"",""5"",""17371""
","
","
","""event"",""trial"",""time""
""fullscreenenter"",""5"",""17371""
","
",NA,NA,NA,NA,NA,NA,NA,NA,NA,NA,NA,NA,NA,NA,NA,NA,NA,NA,NA,NA,NA,NA,sub25
d3-instructions,124,488499,0.0-65.0,FALSE,TRUE,FALSE,TRUE,"""event"",""trial"",""time""
""fullscreenenter"",""5"",""17371""
","
","
","""event"",""trial"",""time""
""fullscreenenter"",""5"",""17371""
","
",NA,NA,NA,NA,NA,NA,NA,NA,NA,NA,NA,NA,NA,NA,NA,NA,NA,NA,NA,NA,NA,NA,sub25
d3-instructions,125,492152,0.0-66.0,FALSE,TRUE,FALSE,TRUE,"""event"",""trial"",""time""
""fullscreenenter"",""5"",""17371""
","
","
","""event"",""trial"",""time""
""fullscreenenter"",""5"",""17371""
","
",NA,NA,NA,NA,NA,NA,NA,NA,NA,NA,NA,NA,NA,NA,NA,NA,NA,NA,NA,NA,NA,NA,sub25
d3-instructions,126,493003,0.0-67.0,FALSE,TRUE,FALSE,TRUE,"""event"",""trial"",""time""
""fullscreenenter"",""5"",""17371""
","
","
","""event"",""trial"",""time""
""fullscreenenter"",""5"",""17371""
","
",NA,NA,NA,NA,NA,NA,NA,NA,NA,NA,NA,NA,NA,NA,NA,NA,NA,NA,NA,NA,NA,NA,sub25
d3-instructions,127,499648,0.0-68.0,FALSE,TRUE,FALSE,TRUE,"""event"",""trial"",""time""
""fullscreenenter"",""5"",""17371""
","
","
","""event"",""trial"",""time""
""fullscreenenter"",""5"",""17371""
","
",NA,NA,NA,NA,NA,NA,NA,NA,NA,NA,NA,NA,NA,NA,NA,NA,NA,NA,NA,NA,NA,NA,sub25
instructions-quiz,128,504261,0.0-69.0,FALSE,TRUE,FALSE,TRUE,"""event"",""trial"",""time""
""fullscreenenter"",""5"",""17371""
","
","
","""event"",""trial"",""time""
""fullscreenenter"",""5"",""17371""
","
",4611,audio/quiz/Q1_Prompt.wav,NA,1,NA,NA,NA,NA,NA,NA,NA,NA,NA,NA,NA,NA,NA,NA,NA,NA,NA,NA,sub25
audio-keyboard-response,129,513430,0.0-70.0,FALSE,TRUE,FALSE,TRUE,"""event"",""trial"",""time""
""fullscreenenter"",""5"",""17371""
","
","
","""event"",""trial"",""time""
""fullscreenenter"",""5"",""17371""
","
",null,audio/quiz/Q1_Correct.wav,null,NA,NA,NA,NA,NA,NA,NA,NA,NA,NA,NA,NA,NA,NA,NA,NA,NA,NA,NA,sub25
instructions-quiz,130,522102,0.0-71.0,FALSE,TRUE,FALSE,TRUE,"""event"",""trial"",""time""
""fullscreenenter"",""5"",""17371""
","
","
","""event"",""trial"",""time""
""fullscreenenter"",""5"",""17371""
","
",8670,audio/quiz/Q2_Prompt.wav,NA,0,NA,NA,NA,NA,NA,NA,NA,NA,NA,NA,NA,NA,NA,NA,NA,NA,NA,NA,sub25
audio-keyboard-response,131,534973,0.0-72.0,FALSE,TRUE,FALSE,TRUE,"""event"",""trial"",""time""
""fullscreenenter"",""5"",""17371""
","
","
","""event"",""trial"",""time""
""fullscreenenter"",""5"",""17371""
","
",null,audio/quiz/Q2_Correct.wav,null,NA,NA,NA,NA,NA,NA,NA,NA,NA,NA,NA,NA,NA,NA,NA,NA,NA,NA,NA,sub25
instructions-quiz,132,539564,0.0-73.0,FALSE,TRUE,FALSE,TRUE,"""event"",""trial"",""time""
""fullscreenenter"",""5"",""17371""
","
","
","""event"",""trial"",""time""
""fullscreenenter"",""5"",""17371""
","
",4590,audio/quiz/Q3_Prompt.wav,NA,0,NA,NA,NA,NA,NA,NA,NA,NA,NA,NA,NA,NA,NA,NA,NA,NA,NA,NA,sub25
audio-keyboard-response,133,546981,0.0-74.0,FALSE,TRUE,FALSE,TRUE,"""event"",""trial"",""time""
""fullscreenenter"",""5"",""17371""
","
","
","""event"",""trial"",""time""
""fullscreenenter"",""5"",""17371""
","
",null,audio/quiz/Q3_Incorrect.wav,null,NA,NA,NA,NA,NA,NA,NA,NA,NA,NA,NA,NA,NA,NA,NA,NA,NA,NA,NA,sub25
d3-instructions,134,559670,0.0-75.0,FALSE,TRUE,FALSE,TRUE,"""event"",""trial"",""time""
""fullscreenenter"",""5"",""17371""
","
","
","""event"",""trial"",""time""
""fullscreenenter"",""5"",""17371""
","
",NA,NA,NA,NA,NA,NA,NA,NA,NA,NA,NA,NA,NA,NA,NA,NA,NA,NA,NA,NA,NA,NA,sub25
d3-animate-choice,135,563203,0.0-76.0-0.0,FALSE,TRUE,FALSE,TRUE,"""event"",""trial"",""time""
""fullscreenenter"",""5"",""17371""
","
","
","""event"",""trial"",""time""
""fullscreenenter"",""5"",""17371""
","
",1530,NA,49,NA,NA,3000,1,NA,NA,images/earth.jpg,images/rocket1,images/rocket2,null,images/rocket2,NA,1,real,null,1,NA,NA,NA,sub25
d3-animate-choice,136,567221,0.0-76.0-1.0,FALSE,TRUE,FALSE,TRUE,"""event"",""trial"",""time""
""fullscreenenter"",""5"",""17371""
","
","
","""event"",""trial"",""time""
""fullscreenenter"",""5"",""17371""
","
",2154,NA,49,NA,NA,3000,1,NA,NA,images/purpleplanet.jpg,images/alien4,images/alien3,images/rocket2,images/alien3,images/nothing.png,2,real,true,1,common,0,2020-06-02T20:38:19Z,sub25
two-step-fixation,137,568223,0.0-76.0-2.0,FALSE,TRUE,FALSE,TRUE,"""event"",""trial"",""time""
""fullscreenenter"",""5"",""17371""
","
","
","""event"",""trial"",""time""
""fullscreenenter"",""5"",""17371""
","
",NA,images/earth.jpg,NA,NA,NA,NA,NA,NA,NA,NA,NA,NA,NA,NA,NA,fixation,NA,NA,NA,NA,NA,NA,sub25
d3-animate-choice,138,571820,0.0-76.0-0.1,FALSE,TRUE,FALSE,TRUE,"""event"",""trial"",""time""
""fullscreenenter"",""5"",""17371""
","
","
","""event"",""trial"",""time""
""fullscreenenter"",""5"",""17371""
","
",1594.9999999998836,NA,48,NA,NA,3000,1,NA,NA,images/earth.jpg,images/rocket1,images/rocket2,null,images/rocket1,NA,1,real,null,2,NA,NA,NA,sub25
d3-animate-choice,139,575044,0.0-76.0-1.1,FALSE,TRUE,FALSE,TRUE,"""event"",""trial"",""time""
""fullscreenenter"",""5"",""17371""
","
","
","""event"",""trial"",""time""
""fullscreenenter"",""5"",""17371""
","
",1221,NA,49,NA,NA,3000,1,NA,NA,images/redplanet1.jpg,images/alien2,images/alien1,images/rocket1,images/alien1,images/nothing.png,2,real,true,1,common,0,2020-06-02T20:38:27Z,sub25
two-step-fixation,140,576047,0.0-76.0-2.1,FALSE,TRUE,FALSE,TRUE,"""event"",""trial"",""time""
""fullscreenenter"",""5"",""17371""
","
","
","""event"",""trial"",""time""
""fullscreenenter"",""5"",""17371""
","
",NA,images/earth.jpg,NA,NA,NA,NA,NA,NA,NA,NA,NA,NA,NA,NA,NA,fixation,NA,NA,NA,NA,NA,NA,sub25
d3-animate-choice,141,579103,0.0-76.0-0.2,FALSE,TRUE,FALSE,TRUE,"""event"",""trial"",""time""
""fullscreenenter"",""5"",""17371""
","
","
","""event"",""trial"",""time""
""fullscreenenter"",""5"",""17371""
","
",1054,NA,48,NA,NA,3000,1,NA,NA,images/earth.jpg,images/rocket1,images/rocket2,null,images/rocket1,NA,1,real,null,2,NA,NA,NA,sub25
d3-animate-choice,142,583106,0.0-76.0-1.2,FALSE,TRUE,FALSE,TRUE,"""event"",""trial"",""time""
""fullscreenenter"",""5"",""17371""
","
","
","""event"",""trial"",""time""
""fullscreenenter"",""5"",""17371""
","
",2201,NA,48,NA,NA,3000,1,NA,NA,images/redplanet1.jpg,images/alien2,images/alien1,images/rocket1,images/alien2,images/t.png,2,real,true,2,common,1,2020-06-02T20:38:35Z,sub25
two-step-fixation,143,584107,0.0-76.0-2.2,FALSE,TRUE,FALSE,TRUE,"""event"",""trial"",""time""
""fullscreenenter"",""5"",""17371""
","
","
","""event"",""trial"",""time""
""fullscreenenter"",""5"",""17371""
","
",NA,images/earth.jpg,NA,NA,NA,NA,NA,NA,NA,NA,NA,NA,NA,NA,NA,fixation,NA,NA,NA,NA,NA,NA,sub25
d3-animate-choice,144,586949,0.0-76.0-0.3,FALSE,TRUE,FALSE,TRUE,"""event"",""trial"",""time""
""fullscreenenter"",""5"",""17371""
","
","
","""event"",""trial"",""time""
""fullscreenenter"",""5"",""17371""
","
",840,NA,49,NA,NA,3000,1,NA,NA,images/earth.jpg,images/rocket1,images/rocket2,null,images/rocket2,NA,1,real,null,1,NA,NA,NA,sub25
d3-animate-choice,145,590568,0.0-76.0-1.3,FALSE,TRUE,FALSE,TRUE,"""event"",""trial"",""time""
""fullscreenenter"",""5"",""17371""
","
","
","""event"",""trial"",""time""
""fullscreenenter"",""5"",""17371""
","
",1616.9999999998836,NA,48,NA,NA,3000,1,NA,NA,images/purpleplanet.jpg,images/alien4,images/alien3,images/rocket2,images/alien4,images/t.png,2,real,true,2,common,1,2020-06-02T20:38:42Z,sub25
two-step-fixation,146,591570,0.0-76.0-2.3,FALSE,TRUE,FALSE,TRUE,"""event"",""trial"",""time""
""fullscreenenter"",""5"",""17371""
","
","
","""event"",""trial"",""time""
""fullscreenenter"",""5"",""17371""
","
",NA,images/earth.jpg,NA,NA,NA,NA,NA,NA,NA,NA,NA,NA,NA,NA,NA,fixation,NA,NA,NA,NA,NA,NA,sub25
d3-animate-choice,147,593976,0.0-76.0-0.4,FALSE,TRUE,FALSE,TRUE,"""event"",""trial"",""time""
""fullscreenenter"",""5"",""17371""
","
","
","""event"",""trial"",""time""
""fullscreenenter"",""5"",""17371""
","
",404,NA,49,NA,NA,3000,1,NA,NA,images/earth.jpg,images/rocket1,images/rocket2,null,images/rocket2,NA,1,real,null,1,NA,NA,NA,sub25
d3-animate-choice,148,596984,0.0-76.0-1.4,FALSE,TRUE,FALSE,TRUE,"""event"",""trial"",""time""
""fullscreenenter"",""5"",""17371""
","
","
","""event"",""trial"",""time""
""fullscreenenter"",""5"",""17371""
","
",1006,NA,48,NA,NA,3000,1,NA,NA,images/purpleplanet.jpg,images/alien4,images/alien3,images/rocket2,images/alien4,images/t.png,2,real,true,2,common,1,2020-06-02T20:38:49Z,sub25
two-step-fixation,149,597986,0.0-76.0-2.4,FALSE,TRUE,FALSE,TRUE,"""event"",""trial"",""time""
""fullscreenenter"",""5"",""17371""
","
","
","""event"",""trial"",""time""
""fullscreenenter"",""5"",""17371""
","
",NA,images/earth.jpg,NA,NA,NA,NA,NA,NA,NA,NA,NA,NA,NA,NA,NA,fixation,NA,NA,NA,NA,NA,NA,sub25
d3-animate-choice,150,601272,0.0-76.0-0.5,FALSE,TRUE,FALSE,TRUE,"""event"",""trial"",""time""
""fullscreenenter"",""5"",""17371""
","
","
","""event"",""trial"",""time""
""fullscreenenter"",""5"",""17371""
","
",1284,NA,49,NA,NA,3000,1,NA,NA,images/earth.jpg,images/rocket1,images/rocket2,null,images/rocket2,NA,1,real,null,1,NA,NA,NA,sub25
d3-animate-choice,151,604476,0.0-76.0-1.5,FALSE,TRUE,FALSE,TRUE,"""event"",""trial"",""time""
""fullscreenenter"",""5"",""17371""
","
","
","""event"",""trial"",""time""
""fullscreenenter"",""5"",""17371""
","
",1202,NA,49,NA,NA,3000,1,NA,NA,images/purpleplanet.jpg,images/alien4,images/alien3,images/rocket2,images/alien3,images/t.png,2,real,true,1,common,1,2020-06-02T20:38:56Z,sub25
two-step-fixation,152,605478,0.0-76.0-2.5,FALSE,TRUE,FALSE,TRUE,"""event"",""trial"",""time""
""fullscreenenter"",""5"",""17371""
","
","
","""event"",""trial"",""time""
""fullscreenenter"",""5"",""17371""
","
",NA,images/earth.jpg,NA,NA,NA,NA,NA,NA,NA,NA,NA,NA,NA,NA,NA,fixation,NA,NA,NA,NA,NA,NA,sub25
d3-animate-choice,153,608461,0.0-76.0-0.6,FALSE,TRUE,FALSE,TRUE,"""event"",""trial"",""time""
""fullscreenenter"",""5"",""17371""
","
","
","""event"",""trial"",""time""
""fullscreenenter"",""5"",""17371""
","
",982,NA,48,NA,NA,3000,1,NA,NA,images/earth.jpg,images/rocket1,images/rocket2,null,images/rocket1,NA,1,real,null,2,NA,NA,NA,sub25
d3-animate-choice,154,611846,0.0-76.0-1.6,FALSE,TRUE,FALSE,TRUE,"""event"",""trial"",""time""
""fullscreenenter"",""5"",""17371""
","
","
","""event"",""trial"",""time""
""fullscreenenter"",""5"",""17371""
","
",1383.0000000001164,NA,49,NA,NA,3000,1,NA,NA,images/purpleplanet.jpg,images/alien4,images/alien3,images/rocket1,images/alien3,images/nothing.png,2,real,false,1,rare,0,2020-06-02T20:39:04Z,sub25
two-step-fixation,155,612847,0.0-76.0-2.6,FALSE,TRUE,FALSE,TRUE,"""event"",""trial"",""time""
""fullscreenenter"",""5"",""17371""
","
","
","""event"",""trial"",""time""
""fullscreenenter"",""5"",""17371""
","
",NA,images/earth.jpg,NA,NA,NA,NA,NA,NA,NA,NA,NA,NA,NA,NA,NA,fixation,NA,NA,NA,NA,NA,NA,sub25
d3-animate-choice,156,615534,0.0-76.0-0.7,FALSE,TRUE,FALSE,TRUE,"""event"",""trial"",""time""
""fullscreenenter"",""5"",""17371""
","
","
","""event"",""trial"",""time""
""fullscreenenter"",""5"",""17371""
","
",685,NA,48,NA,NA,3000,1,NA,NA,images/earth.jpg,images/rocket1,images/rocket2,null,images/rocket1,NA,1,real,null,2,NA,NA,NA,sub25
d3-animate-choice,157,619152,0.0-76.0-1.7,FALSE,TRUE,FALSE,TRUE,"""event"",""trial"",""time""
""fullscreenenter"",""5"",""17371""
","
","
","""event"",""trial"",""time""
""fullscreenenter"",""5"",""17371""
","
",1616,NA,49,NA,NA,3000,1,2051,49,images/purpleplanet.jpg,images/alien4,images/alien3,images/rocket1,images/alien3,images/nothing.png,2,real,false,1,rare,0,2020-06-02T20:39:11Z,sub25
two-step-fixation,158,620154,0.0-76.0-2.7,FALSE,TRUE,FALSE,TRUE,"""event"",""trial"",""time""
""fullscreenenter"",""5"",""17371""
","
","
","""event"",""trial"",""time""
""fullscreenenter"",""5"",""17371""
","
",NA,images/earth.jpg,NA,NA,NA,NA,NA,NA,NA,NA,NA,NA,NA,NA,NA,fixation,NA,NA,NA,NA,NA,NA,sub25
d3-animate-choice,159,623259,0.0-76.0-0.8,FALSE,TRUE,FALSE,TRUE,"""event"",""trial"",""time""
""fullscreenenter"",""5"",""17371""
","
","
","""event"",""trial"",""time""
""fullscreenenter"",""5"",""17371""
","
",1103,NA,49,NA,NA,3000,1,1104,48,images/earth.jpg,images/rocket1,images/rocket2,null,images/rocket2,NA,1,real,null,1,NA,NA,NA,sub25
d3-animate-choice,160,625942,0.0-76.0-1.8,FALSE,TRUE,FALSE,TRUE,"""event"",""trial"",""time""
""fullscreenenter"",""5"",""17371""
","
","
","""event"",""trial"",""time""
""fullscreenenter"",""5"",""17371""
","
",681,NA,48,NA,NA,3000,1,718,49,images/purpleplanet.jpg,images/alien4,images/alien3,images/rocket2,images/alien4,images/t.png,2,real,true,2,common,1,2020-06-02T20:39:18Z,sub25
two-step-fixation,161,626944,0.0-76.0-2.8,FALSE,TRUE,FALSE,TRUE,"""event"",""trial"",""time""
""fullscreenenter"",""5"",""17371""
","
","
","""event"",""trial"",""time""
""fullscreenenter"",""5"",""17371""
","
",NA,images/earth.jpg,NA,NA,NA,NA,NA,NA,NA,NA,NA,NA,NA,NA,NA,fixation,NA,NA,NA,NA,NA,NA,sub25
d3-animate-choice,162,630255,0.0-76.0-0.9,FALSE,TRUE,FALSE,TRUE,"""event"",""trial"",""time""
""fullscreenenter"",""5"",""17371""
","
","
","""event"",""trial"",""time""
""fullscreenenter"",""5"",""17371""
","
",1309,NA,49,NA,NA,3000,1,NA,NA,images/earth.jpg,images/rocket1,images/rocket2,null,images/rocket2,NA,1,real,null,1,NA,NA,NA,sub25
d3-animate-choice,163,634257,0.0-76.0-1.9,FALSE,TRUE,FALSE,TRUE,"""event"",""trial"",""time""
""fullscreenenter"",""5"",""17371""
","
","
","""event"",""trial"",""time""
""fullscreenenter"",""5"",""17371""
","
",2146,NA,48,NA,NA,3000,1,NA,NA,images/purpleplanet.jpg,images/alien4,images/alien3,images/rocket2,images/alien4,images/nothing.png,2,real,true,2,common,0,2020-06-02T20:39:26Z,sub25
two-step-fixation,164,635259,0.0-76.0-2.9,FALSE,TRUE,FALSE,TRUE,"""event"",""trial"",""time""
""fullscreenenter"",""5"",""17371""
","
","
","""event"",""trial"",""time""
""fullscreenenter"",""5"",""17371""
","
",NA,images/earth.jpg,NA,NA,NA,NA,NA,NA,NA,NA,NA,NA,NA,NA,NA,fixation,NA,NA,NA,NA,NA,NA,sub25
d3-animate-choice,165,639185,0.0-76.0-0.10,FALSE,TRUE,FALSE,TRUE,"""event"",""trial"",""time""
""fullscreenenter"",""5"",""17371""
","
","
","""event"",""trial"",""time""
""fullscreenenter"",""5"",""17371""
","
",1924,NA,49,NA,NA,3000,1,NA,NA,images/earth.jpg,images/rocket1,images/rocket2,null,images/rocket2,NA,1,real,null,1,NA,NA,NA,sub25
d3-animate-choice,166,642105,0.0-76.0-1.10,FALSE,TRUE,FALSE,TRUE,"""event"",""trial"",""time""
""fullscreenenter"",""5"",""17371""
","
","
","""event"",""trial"",""time""
""fullscreenenter"",""5"",""17371""
","
",917,NA,48,NA,NA,3000,1,NA,NA,images/purpleplanet.jpg,images/alien4,images/alien3,images/rocket2,images/alien4,images/t.png,2,real,true,2,common,1,2020-06-02T20:39:34Z,sub25
two-step-fixation,167,643107,0.0-76.0-2.10,FALSE,TRUE,FALSE,TRUE,"""event"",""trial"",""time""
""fullscreenenter"",""5"",""17371""
","
","
","""event"",""trial"",""time""
""fullscreenenter"",""5"",""17371""
","
",NA,images/earth.jpg,NA,NA,NA,NA,NA,NA,NA,NA,NA,NA,NA,NA,NA,fixation,NA,NA,NA,NA,NA,NA,sub25
d3-animate-choice,168,647237,0.0-76.0-0.11,FALSE,TRUE,FALSE,TRUE,"""event"",""trial"",""time""
""fullscreenenter"",""5"",""17371""
","
","
","""event"",""trial"",""time""
""fullscreenenter"",""5"",""17371""
","
",2342,NA,48,NA,NA,3000,1,NA,NA,images/earth.jpg,images/rocket1,images/rocket2,null,images/rocket1,NA,1,real,null,2,NA,NA,NA,sub25
d3-animate-choice,169,649727,0.0-76.0-1.11,FALSE,TRUE,FALSE,TRUE,"""event"",""trial"",""time""
""fullscreenenter"",""5"",""17371""
","
","
","""event"",""trial"",""time""
""fullscreenenter"",""5"",""17371""
","
",489,NA,49,NA,NA,3000,1,536.0000000001164,48,images/redplanet1.jpg,images/alien2,images/alien1,images/rocket1,images/alien1,images/t.png,2,real,true,1,common,1,2020-06-02T20:39:42Z,sub25
two-step-fixation,170,650730,0.0-76.0-2.11,FALSE,TRUE,FALSE,TRUE,"""event"",""trial"",""time""
""fullscreenenter"",""5"",""17371""
","
","
","""event"",""trial"",""time""
""fullscreenenter"",""5"",""17371""
","
",NA,images/earth.jpg,NA,NA,NA,NA,NA,NA,NA,NA,NA,NA,NA,NA,NA,fixation,NA,NA,NA,NA,NA,NA,sub25
d3-animate-choice,171,653672,0.0-76.0-0.12,FALSE,TRUE,FALSE,TRUE,"""event"",""trial"",""time""
""fullscreenenter"",""5"",""17371""
","
","
","""event"",""trial"",""time""
""fullscreenenter"",""5"",""17371""
","
",940,NA,49,NA,NA,3000,1,NA,NA,images/earth.jpg,images/rocket1,images/rocket2,null,images/rocket2,NA,1,real,null,1,NA,NA,NA,sub25
d3-animate-choice,172,657675,0.0-76.0-1.12,FALSE,TRUE,FALSE,TRUE,"""event"",""trial"",""time""
""fullscreenenter"",""5"",""17371""
","
","
","""event"",""trial"",""time""
""fullscreenenter"",""5"",""17371""
","
",2521,NA,48,NA,NA,3000,1,NA,NA,images/purpleplanet.jpg,images/alien4,images/alien3,images/rocket2,images/alien4,images/t.png,2,real,true,2,common,1,2020-06-02T20:39:50Z,sub25
two-step-fixation,173,658676,0.0-76.0-2.12,FALSE,TRUE,FALSE,TRUE,"""event"",""trial"",""time""
""fullscreenenter"",""5"",""17371""
","
","
","""event"",""trial"",""time""
""fullscreenenter"",""5"",""17371""
","
",NA,images/earth.jpg,NA,NA,NA,NA,NA,NA,NA,NA,NA,NA,NA,NA,NA,fixation,NA,NA,NA,NA,NA,NA,sub25
d3-animate-choice,174,662044,0.0-76.0-0.13,FALSE,TRUE,FALSE,TRUE,"""event"",""trial"",""time""
""fullscreenenter"",""5"",""17371""
","
","
","""event"",""trial"",""time""
""fullscreenenter"",""5"",""17371""
","
",1365,NA,49,NA,NA,3000,1,1381,48,images/earth.jpg,images/rocket1,images/rocket2,null,images/rocket2,NA,1,real,null,1,NA,NA,NA,sub25
d3-animate-choice,175,666047,0.0-76.0-1.13,FALSE,TRUE,FALSE,TRUE,"""event"",""trial"",""time""
""fullscreenenter"",""5"",""17371""
","
","
","""event"",""trial"",""time""
""fullscreenenter"",""5"",""17371""
","
",null,NA,null,NA,NA,3000,0,NA,NA,images/purpleplanet.jpg,images/alien4,images/alien3,images/rocket2,NA,NA,2,real,true,NA,common,0,2020-06-02T20:39:58Z,sub25
two-step-fixation,176,667049,0.0-76.0-2.13,FALSE,TRUE,FALSE,TRUE,"""event"",""trial"",""time""
""fullscreenenter"",""5"",""17371""
","
","
","""event"",""trial"",""time""
""fullscreenenter"",""5"",""17371""
","
",NA,images/earth.jpg,NA,NA,NA,NA,NA,NA,NA,NA,NA,NA,NA,NA,NA,fixation,NA,NA,NA,NA,NA,NA,sub25
d3-animate-choice,177,669678,0.0-76.0-0.14,FALSE,TRUE,FALSE,TRUE,"""event"",""trial"",""time""
""fullscreenenter"",""5"",""17371""
","
","
","""event"",""trial"",""time""
""fullscreenenter"",""5"",""17371""
","
",627,NA,49,NA,NA,3000,1,NA,NA,images/earth.jpg,images/rocket1,images/rocket2,null,images/rocket2,NA,1,real,null,1,NA,NA,NA,sub25
d3-animate-choice,178,672286,0.0-76.0-1.14,FALSE,TRUE,FALSE,TRUE,"""event"",""trial"",""time""
""fullscreenenter"",""5"",""17371""
","
","
","""event"",""trial"",""time""
""fullscreenenter"",""5"",""17371""
","
",605,NA,48,NA,NA,3000,1,"1056,1389,1720.0000000001164,2029,2400",4848484848,images/purpleplanet.jpg,images/alien4,images/alien3,images/rocket2,images/alien4,images/t.png,2,real,true,2,common,1,2020-06-02T20:40:04Z,sub25
two-step-fixation,179,673287,0.0-76.0-2.14,FALSE,TRUE,FALSE,TRUE,"""event"",""trial"",""time""
""fullscreenenter"",""5"",""17371""
","
","
","""event"",""trial"",""time""
""fullscreenenter"",""5"",""17371""
","
",NA,images/earth.jpg,NA,NA,NA,NA,NA,NA,NA,NA,NA,NA,NA,NA,NA,fixation,NA,NA,NA,NA,NA,NA,sub25
d3-animate-choice,180,675309,0.0-76.0-0.15,FALSE,TRUE,FALSE,TRUE,"""event"",""trial"",""time""
""fullscreenenter"",""5"",""17371""
","
","
","""event"",""trial"",""time""
""fullscreenenter"",""5"",""17371""
","
",20,NA,49,NA,NA,3000,1,"312,620,904,1132,1375,1620,1871",49494949494949,images/earth.jpg,images/rocket1,images/rocket2,null,images/rocket2,NA,1,real,null,1,NA,NA,NA,sub25
d3-animate-choice,181,677358,0.0-76.0-1.15,FALSE,TRUE,FALSE,TRUE,"""event"",""trial"",""time""
""fullscreenenter"",""5"",""17371""
","
","
","""event"",""trial"",""time""
""fullscreenenter"",""5"",""17371""
","
",46,NA,49,NA,NA,3000,1,"265,430,633,878,1041.0000000001164,1262.0000000001164,1698,1902",4949494949494948,images/purpleplanet.jpg,images/alien4,images/alien3,images/rocket2,images/alien3,images/nothing.png,2,real,true,1,common,0,2020-06-02T20:40:09Z,sub25
two-step-fixation,182,678360,0.0-76.0-2.15,FALSE,TRUE,FALSE,TRUE,"""event"",""trial"",""time""
""fullscreenenter"",""5"",""17371""
","
","
","""event"",""trial"",""time""
""fullscreenenter"",""5"",""17371""
","
",NA,images/earth.jpg,NA,NA,NA,NA,NA,NA,NA,NA,NA,NA,NA,NA,NA,fixation,NA,NA,NA,NA,NA,NA,sub25
d3-animate-choice,183,680798,0.0-76.0-0.16,FALSE,TRUE,FALSE,TRUE,"""event"",""trial"",""time""
""fullscreenenter"",""5"",""17371""
","
","
","""event"",""trial"",""time""
""fullscreenenter"",""5"",""17371""
","
",436,NA,49,NA,NA,3000,1,NA,NA,images/earth.jpg,images/rocket1,images/rocket2,null,images/rocket2,NA,1,real,null,1,NA,NA,NA,sub25
d3-animate-choice,184,684551,0.0-76.0-1.16,FALSE,TRUE,FALSE,TRUE,"""event"",""trial"",""time""
""fullscreenenter"",""5"",""17371""
","
","
","""event"",""trial"",""time""
""fullscreenenter"",""5"",""17371""
","
",1750.9999999998836,NA,48,NA,NA,3000,1,NA,NA,images/purpleplanet.jpg,images/alien4,images/alien3,images/rocket2,images/alien4,images/t.png,2,real,true,2,common,1,2020-06-02T20:40:16Z,sub25
two-step-fixation,185,685553,0.0-76.0-2.16,FALSE,TRUE,FALSE,TRUE,"""event"",""trial"",""time""
""fullscreenenter"",""5"",""17371""
","
","
","""event"",""trial"",""time""
""fullscreenenter"",""5"",""17371""
","
",NA,images/earth.jpg,NA,NA,NA,NA,NA,NA,NA,NA,NA,NA,NA,NA,NA,fixation,NA,NA,NA,NA,NA,NA,sub25
d3-animate-choice,186,688887,0.0-76.0-0.17,FALSE,TRUE,FALSE,TRUE,"""event"",""trial"",""time""
""fullscreenenter"",""5"",""17371""
","
","
","""event"",""trial"",""time""
""fullscreenenter"",""5"",""17371""
","
",1331.9999999998836,NA,49,NA,NA,3000,1,NA,NA,images/earth.jpg,images/rocket1,images/rocket2,null,images/rocket2,NA,1,real,null,1,NA,NA,NA,sub25
d3-animate-choice,187,692043,0.0-76.0-1.17,FALSE,TRUE,FALSE,TRUE,"""event"",""trial"",""time""
""fullscreenenter"",""5"",""17371""
","
","
","""event"",""trial"",""time""
""fullscreenenter"",""5"",""17371""
","
",1154,NA,49,NA,NA,3000,1,NA,NA,images/redplanet1.jpg,images/alien2,images/alien1,images/rocket2,images/alien1,images/nothing.png,2,real,false,1,rare,0,2020-06-02T20:40:24Z,sub25
two-step-fixation,188,693044,0.0-76.0-2.17,FALSE,TRUE,FALSE,TRUE,"""event"",""trial"",""time""
""fullscreenenter"",""5"",""17371""
","
","
","""event"",""trial"",""time""
""fullscreenenter"",""5"",""17371""
","
",NA,images/earth.jpg,NA,NA,NA,NA,NA,NA,NA,NA,NA,NA,NA,NA,NA,fixation,NA,NA,NA,NA,NA,NA,sub25
d3-animate-choice,189,695575,0.0-76.0-0.18,FALSE,TRUE,FALSE,TRUE,"""event"",""trial"",""time""
""fullscreenenter"",""5"",""17371""
","
","
","""event"",""trial"",""time""
""fullscreenenter"",""5"",""17371""
","
",529,NA,48,NA,NA,3000,1,NA,NA,images/earth.jpg,images/rocket1,images/rocket2,null,images/rocket1,NA,1,real,null,2,NA,NA,NA,sub25
d3-animate-choice,190,699072,0.0-76.0-1.18,FALSE,TRUE,FALSE,TRUE,"""event"",""trial"",""time""
""fullscreenenter"",""5"",""17371""
","
","
","""event"",""trial"",""time""
""fullscreenenter"",""5"",""17371""
","
",1494,NA,49,NA,NA,3000,1,NA,NA,images/redplanet1.jpg,images/alien2,images/alien1,images/rocket1,images/alien1,images/t.png,2,real,true,1,common,1,2020-06-02T20:40:31Z,sub25
two-step-fixation,191,700074,0.0-76.0-2.18,FALSE,TRUE,FALSE,TRUE,"""event"",""trial"",""time""
""fullscreenenter"",""5"",""17371""
","
","
","""event"",""trial"",""time""
""fullscreenenter"",""5"",""17371""
","
",NA,images/earth.jpg,NA,NA,NA,NA,NA,NA,NA,NA,NA,NA,NA,NA,NA,fixation,NA,NA,NA,NA,NA,NA,sub25
d3-animate-choice,192,702620,0.0-76.0-0.19,FALSE,TRUE,FALSE,TRUE,"""event"",""trial"",""time""
""fullscreenenter"",""5"",""17371""
","
","
","""event"",""trial"",""time""
""fullscreenenter"",""5"",""17371""
","
",544,NA,49,NA,NA,3000,1,NA,NA,images/earth.jpg,images/rocket1,images/rocket2,null,images/rocket2,NA,1,real,null,1,NA,NA,NA,sub25
d3-animate-choice,193,705767,0.0-76.0-1.19,FALSE,TRUE,FALSE,TRUE,"""event"",""trial"",""time""
""fullscreenenter"",""5"",""17371""
","
","
","""event"",""trial"",""time""
""fullscreenenter"",""5"",""17371""
","
",1146,NA,48,NA,NA,3000,1,NA,NA,images/purpleplanet.jpg,images/alien4,images/alien3,images/rocket2,images/alien4,images/nothing.png,2,real,true,2,common,0,2020-06-02T20:40:38Z,sub25
two-step-fixation,194,706769,0.0-76.0-2.19,FALSE,TRUE,FALSE,TRUE,"""event"",""trial"",""time""
""fullscreenenter"",""5"",""17371""
","
","
","""event"",""trial"",""time""
""fullscreenenter"",""5"",""17371""
","
",NA,images/earth.jpg,NA,NA,NA,NA,NA,NA,NA,NA,NA,NA,NA,NA,NA,fixation,NA,NA,NA,NA,NA,NA,sub25
d3-animate-choice,195,709531,0.0-76.0-0.20,FALSE,TRUE,FALSE,TRUE,"""event"",""trial"",""time""
""fullscreenenter"",""5"",""17371""
","
","
","""event"",""trial"",""time""
""fullscreenenter"",""5"",""17371""
","
",760,NA,49,NA,NA,3000,1,NA,NA,images/earth.jpg,images/rocket1,images/rocket2,null,images/rocket2,NA,1,real,null,1,NA,NA,NA,sub25
d3-animate-choice,196,712166,0.0-76.0-1.20,FALSE,TRUE,FALSE,TRUE,"""event"",""trial"",""time""
""fullscreenenter"",""5"",""17371""
","
","
","""event"",""trial"",""time""
""fullscreenenter"",""5"",""17371""
","
",634,NA,49,NA,NA,3000,1,NA,NA,images/redplanet1.jpg,images/alien2,images/alien1,images/rocket2,images/alien1,images/t.png,2,real,false,1,rare,1,2020-06-02T20:40:44Z,sub25
two-step-fixation,197,713168,0.0-76.0-2.20,FALSE,TRUE,FALSE,TRUE,"""event"",""trial"",""time""
""fullscreenenter"",""5"",""17371""
","
","
","""event"",""trial"",""time""
""fullscreenenter"",""5"",""17371""
","
",NA,images/earth.jpg,NA,NA,NA,NA,NA,NA,NA,NA,NA,NA,NA,NA,NA,fixation,NA,NA,NA,NA,NA,NA,sub25
d3-animate-choice,198,715939,0.0-76.0-0.21,FALSE,TRUE,FALSE,TRUE,"""event"",""trial"",""time""
""fullscreenenter"",""5"",""17371""
","
","
","""event"",""trial"",""time""
""fullscreenenter"",""5"",""17371""
","
",769,NA,48,NA,NA,3000,1,NA,NA,images/earth.jpg,images/rocket1,images/rocket2,null,images/rocket1,NA,1,real,null,2,NA,NA,NA,sub25
d3-animate-choice,199,719143,0.0-76.0-1.21,FALSE,TRUE,FALSE,TRUE,"""event"",""trial"",""time""
""fullscreenenter"",""5"",""17371""
","
","
","""event"",""trial"",""time""
""fullscreenenter"",""5"",""17371""
","
",1202,NA,48,NA,NA,3000,1,NA,NA,images/redplanet1.jpg,images/alien2,images/alien1,images/rocket1,images/alien2,images/t.png,2,real,true,2,common,1,2020-06-02T20:40:51Z,sub25
two-step-fixation,200,720144,0.0-76.0-2.21,FALSE,TRUE,FALSE,TRUE,"""event"",""trial"",""time""
""fullscreenenter"",""5"",""17371""
","
","
","""event"",""trial"",""time""
""fullscreenenter"",""5"",""17371""
","
",NA,images/earth.jpg,NA,NA,NA,NA,NA,NA,NA,NA,NA,NA,NA,NA,NA,fixation,NA,NA,NA,NA,NA,NA,sub25
d3-animate-choice,201,723074,0.0-76.0-0.22,FALSE,TRUE,FALSE,TRUE,"""event"",""trial"",""time""
""fullscreenenter"",""5"",""17371""
","
","
","""event"",""trial"",""time""
""fullscreenenter"",""5"",""17371""
","
",928,NA,49,NA,NA,3000,1,NA,NA,images/earth.jpg,images/rocket1,images/rocket2,null,images/rocket2,NA,1,real,null,1,NA,NA,NA,sub25
d3-animate-choice,202,726586,0.0-76.0-1.22,FALSE,TRUE,FALSE,TRUE,"""event"",""trial"",""time""
""fullscreenenter"",""5"",""17371""
","
","
","""event"",""trial"",""time""
""fullscreenenter"",""5"",""17371""
","
",1510,NA,48,NA,NA,3000,1,NA,NA,images/purpleplanet.jpg,images/alien4,images/alien3,images/rocket2,images/alien4,images/t.png,2,real,true,2,common,1,2020-06-02T20:40:58Z,sub25
two-step-fixation,203,727588,0.0-76.0-2.22,FALSE,TRUE,FALSE,TRUE,"""event"",""trial"",""time""
""fullscreenenter"",""5"",""17371""
","
","
","""event"",""trial"",""time""
""fullscreenenter"",""5"",""17371""
","
",NA,images/earth.jpg,NA,NA,NA,NA,NA,NA,NA,NA,NA,NA,NA,NA,NA,fixation,NA,NA,NA,NA,NA,NA,sub25
d3-animate-choice,204,729997,0.0-76.0-0.23,FALSE,TRUE,FALSE,TRUE,"""event"",""trial"",""time""
""fullscreenenter"",""5"",""17371""
","
","
","""event"",""trial"",""time""
""fullscreenenter"",""5"",""17371""
","
",407,NA,49,NA,NA,3000,1,NA,NA,images/earth.jpg,images/rocket1,images/rocket2,null,images/rocket2,NA,1,real,null,1,NA,NA,NA,sub25
d3-animate-choice,205,732775,0.0-76.0-1.23,FALSE,TRUE,FALSE,TRUE,"""event"",""trial"",""time""
""fullscreenenter"",""5"",""17371""
","
","
","""event"",""trial"",""time""
""fullscreenenter"",""5"",""17371""
","
",774,NA,48,NA,NA,3000,1,NA,NA,images/purpleplanet.jpg,images/alien4,images/alien3,images/rocket2,images/alien4,images/t.png,2,real,true,2,common,1,2020-06-02T20:41:05Z,sub25
two-step-fixation,206,733776,0.0-76.0-2.23,FALSE,TRUE,FALSE,TRUE,"""event"",""trial"",""time""
""fullscreenenter"",""5"",""17371""
","
","
","""event"",""trial"",""time""
""fullscreenenter"",""5"",""17371""
","
",NA,images/earth.jpg,NA,NA,NA,NA,NA,NA,NA,NA,NA,NA,NA,NA,NA,fixation,NA,NA,NA,NA,NA,NA,sub25
d3-animate-choice,207,736673,0.0-76.0-0.24,FALSE,TRUE,FALSE,TRUE,"""event"",""trial"",""time""
""fullscreenenter"",""5"",""17371""
","
","
","""event"",""trial"",""time""
""fullscreenenter"",""5"",""17371""
","
",894,NA,49,NA,NA,3000,1,NA,NA,images/earth.jpg,images/rocket1,images/rocket2,null,images/rocket2,NA,1,real,null,1,NA,NA,NA,sub25
d3-animate-choice,208,739271,0.0-76.0-1.24,FALSE,TRUE,FALSE,TRUE,"""event"",""trial"",""time""
""fullscreenenter"",""5"",""17371""
","
","
","""event"",""trial"",""time""
""fullscreenenter"",""5"",""17371""
","
",594,NA,48,NA,NA,3000,1,NA,NA,images/purpleplanet.jpg,images/alien4,images/alien3,images/rocket2,images/alien4,images/t.png,2,real,true,2,common,1,2020-06-02T20:41:11Z,sub25
two-step-fixation,209,740272,0.0-76.0-2.24,FALSE,TRUE,FALSE,TRUE,"""event"",""trial"",""time""
""fullscreenenter"",""5"",""17371""
","
","
","""event"",""trial"",""time""
""fullscreenenter"",""5"",""17371""
","
",NA,images/earth.jpg,NA,NA,NA,NA,NA,NA,NA,NA,NA,NA,NA,NA,NA,fixation,NA,NA,NA,NA,NA,NA,sub25
d3-animate-choice,210,743009,0.0-76.0-0.25,FALSE,TRUE,FALSE,TRUE,"""event"",""trial"",""time""
""fullscreenenter"",""5"",""17371""
","
","
","""event"",""trial"",""time""
""fullscreenenter"",""5"",""17371""
","
",736,NA,49,NA,NA,3000,1,NA,NA,images/earth.jpg,images/rocket1,images/rocket2,null,images/rocket2,NA,1,real,null,1,NA,NA,NA,sub25
d3-animate-choice,211,745513,0.0-76.0-1.25,FALSE,TRUE,FALSE,TRUE,"""event"",""trial"",""time""
""fullscreenenter"",""5"",""17371""
","
","
","""event"",""trial"",""time""
""fullscreenenter"",""5"",""17371""
","
",502,NA,48,NA,NA,3000,1,NA,NA,images/purpleplanet.jpg,images/alien4,images/alien3,images/rocket2,images/alien4,images/t.png,2,real,true,2,common,1,2020-06-02T20:41:17Z,sub25
two-step-fixation,212,746515,0.0-76.0-2.25,FALSE,TRUE,FALSE,TRUE,"""event"",""trial"",""time""
""fullscreenenter"",""5"",""17371""
","
","
","""event"",""trial"",""time""
""fullscreenenter"",""5"",""17371""
","
",NA,images/earth.jpg,NA,NA,NA,NA,NA,NA,NA,NA,NA,NA,NA,NA,NA,fixation,NA,NA,NA,NA,NA,NA,sub25
d3-animate-choice,213,748906,0.0-76.0-0.26,FALSE,TRUE,FALSE,TRUE,"""event"",""trial"",""time""
""fullscreenenter"",""5"",""17371""
","
","
","""event"",""trial"",""time""
""fullscreenenter"",""5"",""17371""
","
",389,NA,49,NA,NA,3000,1,NA,NA,images/earth.jpg,images/rocket1,images/rocket2,null,images/rocket2,NA,1,real,null,1,NA,NA,NA,sub25
d3-animate-choice,214,751610,0.0-76.0-1.26,FALSE,TRUE,FALSE,TRUE,"""event"",""trial"",""time""
""fullscreenenter"",""5"",""17371""
","
","
","""event"",""trial"",""time""
""fullscreenenter"",""5"",""17371""
","
",700.9999999998836,NA,48,NA,NA,3000,1,NA,NA,images/purpleplanet.jpg,images/alien4,images/alien3,images/rocket2,images/alien4,images/t.png,2,real,true,2,common,1,2020-06-02T20:41:23Z,sub25
two-step-fixation,215,752611,0.0-76.0-2.26,FALSE,TRUE,FALSE,TRUE,"""event"",""trial"",""time""
""fullscreenenter"",""5"",""17371""
","
","
","""event"",""trial"",""time""
""fullscreenenter"",""5"",""17371""
","
",NA,images/earth.jpg,NA,NA,NA,NA,NA,NA,NA,NA,NA,NA,NA,NA,NA,fixation,NA,NA,NA,NA,NA,NA,sub25
d3-animate-choice,216,755114,0.0-76.0-0.27,FALSE,TRUE,FALSE,TRUE,"""event"",""trial"",""time""
""fullscreenenter"",""5"",""17371""
","
","
","""event"",""trial"",""time""
""fullscreenenter"",""5"",""17371""
","
",501,NA,49,NA,NA,3000,1,NA,NA,images/earth.jpg,images/rocket1,images/rocket2,null,images/rocket2,NA,1,real,null,1,NA,NA,NA,sub25
d3-animate-choice,217,757570,0.0-76.0-1.27,FALSE,TRUE,FALSE,TRUE,"""event"",""trial"",""time""
""fullscreenenter"",""5"",""17371""
","
","
","""event"",""trial"",""time""
""fullscreenenter"",""5"",""17371""
","
",454,NA,48,NA,NA,3000,1,NA,NA,images/redplanet1.jpg,images/alien2,images/alien1,images/rocket2,images/alien2,images/nothing.png,2,real,false,2,rare,0,2020-06-02T20:41:29Z,sub25
two-step-fixation,218,758572,0.0-76.0-2.27,FALSE,TRUE,FALSE,TRUE,"""event"",""trial"",""time""
""fullscreenenter"",""5"",""17371""
","
","
","""event"",""trial"",""time""
""fullscreenenter"",""5"",""17371""
","
",NA,images/earth.jpg,NA,NA,NA,NA,NA,NA,NA,NA,NA,NA,NA,NA,NA,fixation,NA,NA,NA,NA,NA,NA,sub25
d3-animate-choice,219,761275,0.0-76.0-0.28,FALSE,TRUE,FALSE,TRUE,"""event"",""trial"",""time""
""fullscreenenter"",""5"",""17371""
","
","
","""event"",""trial"",""time""
""fullscreenenter"",""5"",""17371""
","
",702,NA,49,NA,NA,3000,1,NA,NA,images/earth.jpg,images/rocket1,images/rocket2,null,images/rocket2,NA,1,real,null,1,NA,NA,NA,sub25
d3-animate-choice,220,764004,0.0-76.0-1.28,FALSE,TRUE,FALSE,TRUE,"""event"",""trial"",""time""
""fullscreenenter"",""5"",""17371""
","
","
","""event"",""trial"",""time""
""fullscreenenter"",""5"",""17371""
","
",726,NA,48,NA,NA,3000,1,NA,NA,images/purpleplanet.jpg,images/alien4,images/alien3,images/rocket2,images/alien4,images/t.png,2,real,true,2,common,1,2020-06-02T20:41:36Z,sub25
two-step-fixation,221,765005,0.0-76.0-2.28,FALSE,TRUE,FALSE,TRUE,"""event"",""trial"",""time""
""fullscreenenter"",""5"",""17371""
","
","
","""event"",""trial"",""time""
""fullscreenenter"",""5"",""17371""
","
",NA,images/earth.jpg,NA,NA,NA,NA,NA,NA,NA,NA,NA,NA,NA,NA,NA,fixation,NA,NA,NA,NA,NA,NA,sub25
d3-animate-choice,222,767420,0.0-76.0-0.29,FALSE,TRUE,FALSE,TRUE,"""event"",""trial"",""time""
""fullscreenenter"",""5"",""17371""
","
","
","""event"",""trial"",""time""
""fullscreenenter"",""5"",""17371""
","
",412,NA,49,NA,NA,3000,1,NA,NA,images/earth.jpg,images/rocket1,images/rocket2,null,images/rocket2,NA,1,real,null,1,NA,NA,NA,sub25
d3-animate-choice,223,769895,0.0-76.0-1.29,FALSE,TRUE,FALSE,TRUE,"""event"",""trial"",""time""
""fullscreenenter"",""5"",""17371""
","
","
","""event"",""trial"",""time""
""fullscreenenter"",""5"",""17371""
","
",472.9999999998836,NA,49,NA,NA,3000,1,NA,NA,images/purpleplanet.jpg,images/alien4,images/alien3,images/rocket2,images/alien3,images/nothing.png,2,real,true,1,common,0,2020-06-02T20:41:42Z,sub25
two-step-fixation,224,770897,0.0-76.0-2.29,FALSE,TRUE,FALSE,TRUE,"""event"",""trial"",""time""
""fullscreenenter"",""5"",""17371""
","
","
","""event"",""trial"",""time""
""fullscreenenter"",""5"",""17371""
","
",NA,images/earth.jpg,NA,NA,NA,NA,NA,NA,NA,NA,NA,NA,NA,NA,NA,fixation,NA,NA,NA,NA,NA,NA,sub25
d3-animate-choice,225,773339,0.0-76.0-0.30,FALSE,TRUE,FALSE,TRUE,"""event"",""trial"",""time""
""fullscreenenter"",""5"",""17371""
","
","
","""event"",""trial"",""time""
""fullscreenenter"",""5"",""17371""
","
",440.9999999998836,NA,48,NA,NA,3000,1,NA,NA,images/earth.jpg,images/rocket1,images/rocket2,null,images/rocket1,NA,1,real,null,2,NA,NA,NA,sub25
d3-animate-choice,226,776227,0.0-76.0-1.30,FALSE,TRUE,FALSE,TRUE,"""event"",""trial"",""time""
""fullscreenenter"",""5"",""17371""
","
","
","""event"",""trial"",""time""
""fullscreenenter"",""5"",""17371""
","
",886,NA,49,NA,NA,3000,1,NA,NA,images/redplanet1.jpg,images/alien2,images/alien1,images/rocket1,images/alien1,images/t.png,2,real,true,1,common,1,2020-06-02T20:41:48Z,sub25
two-step-fixation,227,777229,0.0-76.0-2.30,FALSE,TRUE,FALSE,TRUE,"""event"",""trial"",""time""
""fullscreenenter"",""5"",""17371""
","
","
","""event"",""trial"",""time""
""fullscreenenter"",""5"",""17371""
","
",NA,images/earth.jpg,NA,NA,NA,NA,NA,NA,NA,NA,NA,NA,NA,NA,NA,fixation,NA,NA,NA,NA,NA,NA,sub25
d3-animate-choice,228,779953,0.0-76.0-0.31,FALSE,TRUE,FALSE,TRUE,"""event"",""trial"",""time""
""fullscreenenter"",""5"",""17371""
","
","
","""event"",""trial"",""time""
""fullscreenenter"",""5"",""17371""
","
",722,NA,49,NA,NA,3000,1,NA,NA,images/earth.jpg,images/rocket1,images/rocket2,null,images/rocket2,NA,1,real,null,1,NA,NA,NA,sub25
d3-animate-choice,229,782695,0.0-76.0-1.31,FALSE,TRUE,FALSE,TRUE,"""event"",""trial"",""time""
""fullscreenenter"",""5"",""17371""
","
","
","""event"",""trial"",""time""
""fullscreenenter"",""5"",""17371""
","
",739,NA,49,NA,NA,3000,1,NA,NA,images/redplanet1.jpg,images/alien2,images/alien1,images/rocket2,images/alien1,images/t.png,2,real,false,1,rare,1,2020-06-02T20:41:55Z,sub25
two-step-fixation,230,783697,0.0-76.0-2.31,FALSE,TRUE,FALSE,TRUE,"""event"",""trial"",""time""
""fullscreenenter"",""5"",""17371""
","
","
","""event"",""trial"",""time""
""fullscreenenter"",""5"",""17371""
","
",NA,images/earth.jpg,NA,NA,NA,NA,NA,NA,NA,NA,NA,NA,NA,NA,NA,fixation,NA,NA,NA,NA,NA,NA,sub25
d3-animate-choice,231,786319,0.0-76.0-0.32,FALSE,TRUE,FALSE,TRUE,"""event"",""trial"",""time""
""fullscreenenter"",""5"",""17371""
","
","
","""event"",""trial"",""time""
""fullscreenenter"",""5"",""17371""
","
",619,NA,48,NA,NA,3000,1,NA,NA,images/earth.jpg,images/rocket1,images/rocket2,null,images/rocket1,NA,1,real,null,2,NA,NA,NA,sub25
d3-animate-choice,232,788822,0.0-76.0-1.32,FALSE,TRUE,FALSE,TRUE,"""event"",""trial"",""time""
""fullscreenenter"",""5"",""17371""
","
","
","""event"",""trial"",""time""
""fullscreenenter"",""5"",""17371""
","
",501.0000000001164,NA,49,NA,NA,3000,1,NA,NA,images/redplanet1.jpg,images/alien2,images/alien1,images/rocket1,images/alien1,images/t.png,2,real,true,1,common,1,2020-06-02T20:42:01Z,sub25
two-step-fixation,233,789824,0.0-76.0-2.32,FALSE,TRUE,FALSE,TRUE,"""event"",""trial"",""time""
""fullscreenenter"",""5"",""17371""
","
","
","""event"",""trial"",""time""
""fullscreenenter"",""5"",""17371""
","
",NA,images/earth.jpg,NA,NA,NA,NA,NA,NA,NA,NA,NA,NA,NA,NA,NA,fixation,NA,NA,NA,NA,NA,NA,sub25
d3-animate-choice,234,792343,0.0-76.0-0.33,FALSE,TRUE,FALSE,TRUE,"""event"",""trial"",""time""
""fullscreenenter"",""5"",""17371""
","
","
","""event"",""trial"",""time""
""fullscreenenter"",""5"",""17371""
","
",516,NA,48,NA,NA,3000,1,NA,NA,images/earth.jpg,images/rocket1,images/rocket2,null,images/rocket1,NA,1,real,null,2,NA,NA,NA,sub25
d3-animate-choice,235,795135,0.0-76.0-1.33,FALSE,TRUE,FALSE,TRUE,"""event"",""trial"",""time""
""fullscreenenter"",""5"",""17371""
","
","
","""event"",""trial"",""time""
""fullscreenenter"",""5"",""17371""
","
",789,NA,49,NA,NA,3000,1,NA,NA,images/redplanet1.jpg,images/alien2,images/alien1,images/rocket1,images/alien1,images/nothing.png,2,real,true,1,common,0,2020-06-02T20:42:07Z,sub25
two-step-fixation,236,796137,0.0-76.0-2.33,FALSE,TRUE,FALSE,TRUE,"""event"",""trial"",""time""
""fullscreenenter"",""5"",""17371""
","
","
","""event"",""trial"",""time""
""fullscreenenter"",""5"",""17371""
","
",NA,images/earth.jpg,NA,NA,NA,NA,NA,NA,NA,NA,NA,NA,NA,NA,NA,fixation,NA,NA,NA,NA,NA,NA,sub25
d3-animate-choice,237,798615,0.0-76.0-0.34,FALSE,TRUE,FALSE,TRUE,"""event"",""trial"",""time""
""fullscreenenter"",""5"",""17371""
","
","
","""event"",""trial"",""time""
""fullscreenenter"",""5"",""17371""
","
",475,NA,48,NA,NA,3000,1,NA,NA,images/earth.jpg,images/rocket1,images/rocket2,null,images/rocket1,NA,1,real,null,2,NA,NA,NA,sub25
d3-animate-choice,238,801050,0.0-76.0-1.34,FALSE,TRUE,FALSE,TRUE,"""event"",""trial"",""time""
""fullscreenenter"",""5"",""17371""
","
","
","""event"",""trial"",""time""
""fullscreenenter"",""5"",""17371""
","
",433,NA,48,NA,NA,3000,1,NA,NA,images/purpleplanet.jpg,images/alien4,images/alien3,images/rocket1,images/alien4,images/t.png,2,real,false,2,rare,1,2020-06-02T20:42:13Z,sub25
two-step-fixation,239,802053,0.0-76.0-2.34,FALSE,TRUE,FALSE,TRUE,"""event"",""trial"",""time""
""fullscreenenter"",""5"",""17371""
","
","
","""event"",""trial"",""time""
""fullscreenenter"",""5"",""17371""
","
",NA,images/earth.jpg,NA,NA,NA,NA,NA,NA,NA,NA,NA,NA,NA,NA,NA,fixation,NA,NA,NA,NA,NA,NA,sub25
d3-animate-choice,240,804431,0.0-76.0-0.35,FALSE,TRUE,FALSE,TRUE,"""event"",""trial"",""time""
""fullscreenenter"",""5"",""17371""
","
","
","""event"",""trial"",""time""
""fullscreenenter"",""5"",""17371""
","
",376,NA,48,NA,NA,3000,1,NA,NA,images/earth.jpg,images/rocket1,images/rocket2,null,images/rocket1,NA,1,real,null,2,NA,NA,NA,sub25
d3-animate-choice,241,807198,0.0-76.0-1.35,FALSE,TRUE,FALSE,TRUE,"""event"",""trial"",""time""
""fullscreenenter"",""5"",""17371""
","
","
","""event"",""trial"",""time""
""fullscreenenter"",""5"",""17371""
","
",766,NA,49,NA,NA,3000,1,NA,NA,images/redplanet1.jpg,images/alien2,images/alien1,images/rocket1,images/alien1,images/t.png,2,real,true,1,common,1,2020-06-02T20:42:19Z,sub25
two-step-fixation,242,808201,0.0-76.0-2.35,FALSE,TRUE,FALSE,TRUE,"""event"",""trial"",""time""
""fullscreenenter"",""5"",""17371""
","
","
","""event"",""trial"",""time""
""fullscreenenter"",""5"",""17371""
","
",NA,images/earth.jpg,NA,NA,NA,NA,NA,NA,NA,NA,NA,NA,NA,NA,NA,fixation,NA,NA,NA,NA,NA,NA,sub25
d3-animate-choice,243,810639,0.0-76.0-0.36,FALSE,TRUE,FALSE,TRUE,"""event"",""trial"",""time""
""fullscreenenter"",""5"",""17371""
","
","
","""event"",""trial"",""time""
""fullscreenenter"",""5"",""17371""
","
",436.9999999998836,NA,49,NA,NA,3000,1,NA,NA,images/earth.jpg,images/rocket1,images/rocket2,null,images/rocket2,NA,1,real,null,1,NA,NA,NA,sub25
d3-animate-choice,244,813340,0.0-76.0-1.36,FALSE,TRUE,FALSE,TRUE,"""event"",""trial"",""time""
""fullscreenenter"",""5"",""17371""
","
","
","""event"",""trial"",""time""
""fullscreenenter"",""5"",""17371""
","
",699,NA,48,NA,NA,3000,1,NA,NA,images/purpleplanet.jpg,images/alien4,images/alien3,images/rocket2,images/alien4,images/t.png,2,real,true,2,common,1,2020-06-02T20:42:25Z,sub25
two-step-fixation,245,814342,0.0-76.0-2.36,FALSE,TRUE,FALSE,TRUE,"""event"",""trial"",""time""
""fullscreenenter"",""5"",""17371""
","
","
","""event"",""trial"",""time""
""fullscreenenter"",""5"",""17371""
","
",NA,images/earth.jpg,NA,NA,NA,NA,NA,NA,NA,NA,NA,NA,NA,NA,NA,fixation,NA,NA,NA,NA,NA,NA,sub25
d3-animate-choice,246,817071,0.0-76.0-0.37,FALSE,TRUE,FALSE,TRUE,"""event"",""trial"",""time""
""fullscreenenter"",""5"",""17371""
","
","
","""event"",""trial"",""time""
""fullscreenenter"",""5"",""17371""
","
",726,NA,49,NA,NA,3000,1,NA,NA,images/earth.jpg,images/rocket1,images/rocket2,null,images/rocket2,NA,1,real,null,1,NA,NA,NA,sub25
d3-animate-choice,247,819470,0.0-76.0-1.37,FALSE,TRUE,FALSE,TRUE,"""event"",""trial"",""time""
""fullscreenenter"",""5"",""17371""
","
","
","""event"",""trial"",""time""
""fullscreenenter"",""5"",""17371""
","
",396.9999999998836,NA,48,NA,NA,3000,1,NA,NA,images/purpleplanet.jpg,images/alien4,images/alien3,images/rocket2,images/alien4,images/t.png,2,real,true,2,common,1,2020-06-02T20:42:31Z,sub25
two-step-fixation,248,820472,0.0-76.0-2.37,FALSE,TRUE,FALSE,TRUE,"""event"",""trial"",""time""
""fullscreenenter"",""5"",""17371""
","
","
","""event"",""trial"",""time""
""fullscreenenter"",""5"",""17371""
","
",NA,images/earth.jpg,NA,NA,NA,NA,NA,NA,NA,NA,NA,NA,NA,NA,NA,fixation,NA,NA,NA,NA,NA,NA,sub25
d3-animate-choice,249,823216,0.0-76.0-0.38,FALSE,TRUE,FALSE,TRUE,"""event"",""trial"",""time""
""fullscreenenter"",""5"",""17371""
","
","
","""event"",""trial"",""time""
""fullscreenenter"",""5"",""17371""
","
",741,NA,49,NA,NA,3000,1,NA,NA,images/earth.jpg,images/rocket1,images/rocket2,null,images/rocket2,NA,1,real,null,1,NA,NA,NA,sub25
d3-animate-choice,250,825643,0.0-76.0-1.38,FALSE,TRUE,FALSE,TRUE,"""event"",""trial"",""time""
""fullscreenenter"",""5"",""17371""
","
","
","""event"",""trial"",""time""
""fullscreenenter"",""5"",""17371""
","
",425,NA,49,NA,NA,3000,1,NA,NA,images/purpleplanet.jpg,images/alien4,images/alien3,images/rocket2,images/alien3,images/nothing.png,2,real,true,1,common,0,2020-06-02T20:42:37Z,sub25
two-step-fixation,251,826644,0.0-76.0-2.38,FALSE,TRUE,FALSE,TRUE,"""event"",""trial"",""time""
""fullscreenenter"",""5"",""17371""
","
","
","""event"",""trial"",""time""
""fullscreenenter"",""5"",""17371""
","
",NA,images/earth.jpg,NA,NA,NA,NA,NA,NA,NA,NA,NA,NA,NA,NA,NA,fixation,NA,NA,NA,NA,NA,NA,sub25
d3-animate-choice,252,829065,0.0-76.0-0.39,FALSE,TRUE,FALSE,TRUE,"""event"",""trial"",""time""
""fullscreenenter"",""5"",""17371""
","
","
","""event"",""trial"",""time""
""fullscreenenter"",""5"",""17371""
","
",418,NA,49,NA,NA,3000,1,NA,NA,images/earth.jpg,images/rocket1,images/rocket2,null,images/rocket2,NA,1,real,null,1,NA,NA,NA,sub25
d3-animate-choice,253,831480,0.0-76.0-1.39,FALSE,TRUE,FALSE,TRUE,"""event"",""trial"",""time""
""fullscreenenter"",""5"",""17371""
","
","
","""event"",""trial"",""time""
""fullscreenenter"",""5"",""17371""
","
",413,NA,48,NA,NA,3000,1,NA,NA,images/purpleplanet.jpg,images/alien4,images/alien3,images/rocket2,images/alien4,images/t.png,2,real,true,2,common,1,2020-06-02T20:42:43Z,sub25
two-step-fixation,254,832481,0.0-76.0-2.39,FALSE,TRUE,FALSE,TRUE,"""event"",""trial"",""time""
""fullscreenenter"",""5"",""17371""
","
","
","""event"",""trial"",""time""
""fullscreenenter"",""5"",""17371""
","
",NA,images/earth.jpg,NA,NA,NA,NA,NA,NA,NA,NA,NA,NA,NA,NA,NA,fixation,NA,NA,NA,NA,NA,NA,sub25
d3-animate-choice,255,835152,0.0-76.0-0.40,FALSE,TRUE,FALSE,TRUE,"""event"",""trial"",""time""
""fullscreenenter"",""5"",""17371""
","
","
","""event"",""trial"",""time""
""fullscreenenter"",""5"",""17371""
","
",669,NA,49,NA,NA,3000,1,NA,NA,images/earth.jpg,images/rocket1,images/rocket2,null,images/rocket2,NA,1,real,null,1,NA,NA,NA,sub25
d3-animate-choice,256,838040,0.0-76.0-1.40,FALSE,TRUE,FALSE,TRUE,"""event"",""trial"",""time""
""fullscreenenter"",""5"",""17371""
","
","
","""event"",""trial"",""time""
""fullscreenenter"",""5"",""17371""
","
",886,NA,48,NA,NA,3000,1,NA,NA,images/purpleplanet.jpg,images/alien4,images/alien3,images/rocket2,images/alien4,images/nothing.png,2,real,true,2,common,0,2020-06-02T20:42:50Z,sub25
two-step-fixation,257,839042,0.0-76.0-2.40,FALSE,TRUE,FALSE,TRUE,"""event"",""trial"",""time""
""fullscreenenter"",""5"",""17371""
","
","
","""event"",""trial"",""time""
""fullscreenenter"",""5"",""17371""
","
",NA,images/earth.jpg,NA,NA,NA,NA,NA,NA,NA,NA,NA,NA,NA,NA,NA,fixation,NA,NA,NA,NA,NA,NA,sub25
d3-animate-choice,258,841561,0.0-76.0-0.41,FALSE,TRUE,FALSE,TRUE,"""event"",""trial"",""time""
""fullscreenenter"",""5"",""17371""
","
","
","""event"",""trial"",""time""
""fullscreenenter"",""5"",""17371""
","
",517,NA,49,NA,NA,3000,1,NA,NA,images/earth.jpg,images/rocket1,images/rocket2,null,images/rocket2,NA,1,real,null,1,NA,NA,NA,sub25
d3-animate-choice,259,844153,0.0-76.0-1.41,FALSE,TRUE,FALSE,TRUE,"""event"",""trial"",""time""
""fullscreenenter"",""5"",""17371""
","
","
","""event"",""trial"",""time""
""fullscreenenter"",""5"",""17371""
","
",590,NA,48,NA,NA,3000,1,NA,NA,images/purpleplanet.jpg,images/alien4,images/alien3,images/rocket2,images/alien4,images/t.png,2,real,true,2,common,1,2020-06-02T20:42:56Z,sub25
two-step-fixation,260,845154,0.0-76.0-2.41,FALSE,TRUE,FALSE,TRUE,"""event"",""trial"",""time""
""fullscreenenter"",""5"",""17371""
","
","
","""event"",""trial"",""time""
""fullscreenenter"",""5"",""17371""
","
",NA,images/earth.jpg,NA,NA,NA,NA,NA,NA,NA,NA,NA,NA,NA,NA,NA,fixation,NA,NA,NA,NA,NA,NA,sub25
d3-animate-choice,261,847612,0.0-76.0-0.42,FALSE,TRUE,FALSE,TRUE,"""event"",""trial"",""time""
""fullscreenenter"",""5"",""17371""
","
","
","""event"",""trial"",""time""
""fullscreenenter"",""5"",""17371""
","
",456.9999999998836,NA,48,NA,NA,3000,1,NA,NA,images/earth.jpg,images/rocket1,images/rocket2,null,images/rocket1,NA,1,real,null,2,NA,NA,NA,sub25
d3-animate-choice,262,849993,0.0-76.0-1.42,FALSE,TRUE,FALSE,TRUE,"""event"",""trial"",""time""
""fullscreenenter"",""5"",""17371""
","
","
","""event"",""trial"",""time""
""fullscreenenter"",""5"",""17371""
","
",378,NA,49,NA,NA,3000,1,NA,NA,images/redplanet1.jpg,images/alien2,images/alien1,images/rocket1,images/alien1,images/t.png,2,real,true,1,common,1,2020-06-02T20:43:02Z,sub25
two-step-fixation,263,850994,0.0-76.0-2.42,FALSE,TRUE,FALSE,TRUE,"""event"",""trial"",""time""
""fullscreenenter"",""5"",""17371""
","
","
","""event"",""trial"",""time""
""fullscreenenter"",""5"",""17371""
","
",NA,images/earth.jpg,NA,NA,NA,NA,NA,NA,NA,NA,NA,NA,NA,NA,NA,fixation,NA,NA,NA,NA,NA,NA,sub25
d3-animate-choice,264,853877,0.0-76.0-0.43,FALSE,TRUE,FALSE,TRUE,"""event"",""trial"",""time""
""fullscreenenter"",""5"",""17371""
","
","
","""event"",""trial"",""time""
""fullscreenenter"",""5"",""17371""
","
",881.0000000001164,NA,49,NA,NA,3000,1,NA,NA,images/earth.jpg,images/rocket1,images/rocket2,null,images/rocket2,NA,1,real,null,1,NA,NA,NA,sub25
d3-animate-choice,265,856393,0.0-76.0-1.43,FALSE,TRUE,FALSE,TRUE,"""event"",""trial"",""time""
""fullscreenenter"",""5"",""17371""
","
","
","""event"",""trial"",""time""
""fullscreenenter"",""5"",""17371""
","
",514,NA,49,NA,NA,3000,1,NA,NA,images/purpleplanet.jpg,images/alien4,images/alien3,images/rocket2,images/alien3,images/nothing.png,2,real,true,1,common,0,2020-06-02T20:43:08Z,sub25
two-step-fixation,266,857394,0.0-76.0-2.43,FALSE,TRUE,FALSE,TRUE,"""event"",""trial"",""time""
""fullscreenenter"",""5"",""17371""
","
","
","""event"",""trial"",""time""
""fullscreenenter"",""5"",""17371""
","
",NA,images/earth.jpg,NA,NA,NA,NA,NA,NA,NA,NA,NA,NA,NA,NA,NA,fixation,NA,NA,NA,NA,NA,NA,sub25
d3-animate-choice,267,859561,0.0-76.0-0.44,FALSE,TRUE,FALSE,TRUE,"""event"",""trial"",""time""
""fullscreenenter"",""5"",""17371""
","
","
","""event"",""trial"",""time""
""fullscreenenter"",""5"",""17371""
","
",164.99999999988358,NA,48,NA,NA,3000,1,424.9999999998836,48,images/earth.jpg,images/rocket1,images/rocket2,null,images/rocket1,NA,1,real,null,2,NA,NA,NA,sub25
d3-animate-choice,268,862018,0.0-76.0-1.44,FALSE,TRUE,FALSE,TRUE,"""event"",""trial"",""time""
""fullscreenenter"",""5"",""17371""
","
","
","""event"",""trial"",""time""
""fullscreenenter"",""5"",""17371""
","
",454,NA,49,NA,NA,3000,1,NA,NA,images/redplanet1.jpg,images/alien2,images/alien1,images/rocket1,images/alien1,images/nothing.png,2,real,true,1,common,0,2020-06-02T20:43:14Z,sub25
two-step-fixation,269,863019,0.0-76.0-2.44,FALSE,TRUE,FALSE,TRUE,"""event"",""trial"",""time""
""fullscreenenter"",""5"",""17371""
","
","
","""event"",""trial"",""time""
""fullscreenenter"",""5"",""17371""
","
",NA,images/earth.jpg,NA,NA,NA,NA,NA,NA,NA,NA,NA,NA,NA,NA,NA,fixation,NA,NA,NA,NA,NA,NA,sub25
d3-animate-choice,270,865874,0.0-76.0-0.45,FALSE,TRUE,FALSE,TRUE,"""event"",""trial"",""time""
""fullscreenenter"",""5"",""17371""
","
","
","""event"",""trial"",""time""
""fullscreenenter"",""5"",""17371""
","
",851.9999999998836,NA,48,NA,NA,3000,1,NA,NA,images/earth.jpg,images/rocket1,images/rocket2,null,images/rocket1,NA,1,real,null,2,NA,NA,NA,sub25
d3-animate-choice,271,869086,0.0-76.0-1.45,FALSE,TRUE,FALSE,TRUE,"""event"",""trial"",""time""
""fullscreenenter"",""5"",""17371""
","
","
","""event"",""trial"",""time""
""fullscreenenter"",""5"",""17371""
","
",1209,NA,48,NA,NA,3000,1,NA,NA,images/purpleplanet.jpg,images/alien4,images/alien3,images/rocket1,images/alien4,images/t.png,2,real,false,2,rare,1,2020-06-02T20:43:21Z,sub25
two-step-fixation,272,870087,0.0-76.0-2.45,FALSE,TRUE,FALSE,TRUE,"""event"",""trial"",""time""
""fullscreenenter"",""5"",""17371""
","
","
","""event"",""trial"",""time""
""fullscreenenter"",""5"",""17371""
","
",NA,images/earth.jpg,NA,NA,NA,NA,NA,NA,NA,NA,NA,NA,NA,NA,NA,fixation,NA,NA,NA,NA,NA,NA,sub25
d3-animate-choice,273,872394,0.0-76.0-0.46,FALSE,TRUE,FALSE,TRUE,"""event"",""trial"",""time""
""fullscreenenter"",""5"",""17371""
","
","
","""event"",""trial"",""time""
""fullscreenenter"",""5"",""17371""
","
",304,NA,48,NA,NA,3000,1,NA,NA,images/earth.jpg,images/rocket1,images/rocket2,null,images/rocket1,NA,1,real,null,2,NA,NA,NA,sub25
d3-animate-choice,274,874834,0.0-76.0-1.46,FALSE,TRUE,FALSE,TRUE,"""event"",""trial"",""time""
""fullscreenenter"",""5"",""17371""
","
","
","""event"",""trial"",""time""
""fullscreenenter"",""5"",""17371""
","
",438,NA,49,NA,NA,3000,1,921,49,images/purpleplanet.jpg,images/alien4,images/alien3,images/rocket1,images/alien3,images/nothing.png,2,real,false,1,rare,0,2020-06-02T20:43:27Z,sub25
two-step-fixation,275,875836,0.0-76.0-2.46,FALSE,TRUE,FALSE,TRUE,"""event"",""trial"",""time""
""fullscreenenter"",""5"",""17371""
","
","
","""event"",""trial"",""time""
""fullscreenenter"",""5"",""17371""
","
",NA,images/earth.jpg,NA,NA,NA,NA,NA,NA,NA,NA,NA,NA,NA,NA,NA,fixation,NA,NA,NA,NA,NA,NA,sub25
d3-animate-choice,276,878426,0.0-76.0-0.47,FALSE,TRUE,FALSE,TRUE,"""event"",""trial"",""time""
""fullscreenenter"",""5"",""17371""
","
","
","""event"",""trial"",""time""
""fullscreenenter"",""5"",""17371""
","
",588.0000000001164,NA,49,NA,NA,3000,1,NA,NA,images/earth.jpg,images/rocket1,images/rocket2,null,images/rocket2,NA,1,real,null,1,NA,NA,NA,sub25
d3-animate-choice,277,882429,0.0-76.0-1.47,FALSE,TRUE,FALSE,TRUE,"""event"",""trial"",""time""
""fullscreenenter"",""5"",""17371""
","
","
","""event"",""trial"",""time""
""fullscreenenter"",""5"",""17371""
","
",2066,NA,48,NA,NA,3000,1,NA,NA,images/purpleplanet.jpg,images/alien4,images/alien3,images/rocket2,images/alien4,images/t.png,2,real,true,2,common,1,2020-06-02T20:43:34Z,sub25
two-step-fixation,278,883430,0.0-76.0-2.47,FALSE,TRUE,FALSE,TRUE,"""event"",""trial"",""time""
""fullscreenenter"",""5"",""17371""
","
","
","""event"",""trial"",""time""
""fullscreenenter"",""5"",""17371""
","
",NA,images/earth.jpg,NA,NA,NA,NA,NA,NA,NA,NA,NA,NA,NA,NA,NA,fixation,NA,NA,NA,NA,NA,NA,sub25
d3-animate-choice,279,886270,0.0-76.0-0.48,FALSE,TRUE,FALSE,TRUE,"""event"",""trial"",""time""
""fullscreenenter"",""5"",""17371""
","
","
","""event"",""trial"",""time""
""fullscreenenter"",""5"",""17371""
","
",839,NA,49,NA,NA,3000,1,NA,NA,images/earth.jpg,images/rocket1,images/rocket2,null,images/rocket2,NA,1,real,null,1,NA,NA,NA,sub25
d3-animate-choice,280,888854,0.0-76.0-1.48,FALSE,TRUE,FALSE,TRUE,"""event"",""trial"",""time""
""fullscreenenter"",""5"",""17371""
","
","
","""event"",""trial"",""time""
""fullscreenenter"",""5"",""17371""
","
",582,NA,48,NA,NA,3000,1,NA,NA,images/purpleplanet.jpg,images/alien4,images/alien3,images/rocket2,images/alien4,images/t.png,2,real,true,2,common,1,2020-06-02T20:43:41Z,sub25
two-step-fixation,281,889856,0.0-76.0-2.48,FALSE,TRUE,FALSE,TRUE,"""event"",""trial"",""time""
""fullscreenenter"",""5"",""17371""
","
","
","""event"",""trial"",""time""
""fullscreenenter"",""5"",""17371""
","
",NA,images/earth.jpg,NA,NA,NA,NA,NA,NA,NA,NA,NA,NA,NA,NA,NA,fixation,NA,NA,NA,NA,NA,NA,sub25
d3-animate-choice,282,893113,0.0-76.0-0.49,FALSE,TRUE,FALSE,TRUE,"""event"",""trial"",""time""
""fullscreenenter"",""5"",""17371""
","
","
","""event"",""trial"",""time""
""fullscreenenter"",""5"",""17371""
","
",1253,NA,48,NA,NA,3000,1,NA,NA,images/earth.jpg,images/rocket1,images/rocket2,null,images/rocket1,NA,1,real,null,2,NA,NA,NA,sub25
d3-animate-choice,283,896325,0.0-76.0-1.49,FALSE,TRUE,FALSE,TRUE,"""event"",""trial"",""time""
""fullscreenenter"",""5"",""17371""
","
","
","""event"",""trial"",""time""
""fullscreenenter"",""5"",""17371""
","
",1209,NA,48,NA,NA,3000,1,NA,NA,images/redplanet1.jpg,images/alien2,images/alien1,images/rocket1,images/alien2,images/nothing.png,2,real,true,2,common,0,2020-06-02T20:43:48Z,sub25
two-step-fixation,284,897327,0.0-76.0-2.49,FALSE,TRUE,FALSE,TRUE,"""event"",""trial"",""time""
""fullscreenenter"",""5"",""17371""
","
","
","""event"",""trial"",""time""
""fullscreenenter"",""5"",""17371""
","
",NA,images/earth.jpg,NA,NA,NA,NA,NA,NA,NA,NA,NA,NA,NA,NA,NA,fixation,NA,NA,NA,NA,NA,NA,sub25
audio-button-response-2,285,940168,0.0-77.0,FALSE,TRUE,FALSE,TRUE,"""event"",""trial"",""time""
""fullscreenenter"",""5"",""17371""
","
","
","""event"",""trial"",""time""
""fullscreenenter"",""5"",""17371""
","
",42838,audio/instructions/break_1.wav,NA,0,NA,NA,NA,NA,NA,NA,NA,NA,NA,NA,NA,NA,NA,NA,NA,NA,NA,NA,sub25
d3-animate-choice,286,944171,0.0-78.0-0.0,FALSE,TRUE,FALSE,TRUE,"""event"",""trial"",""time""
""fullscreenenter"",""5"",""17371""
","
","
","""event"",""trial"",""time""
""fullscreenenter"",""5"",""17371""
","
",2351,NA,48,NA,NA,3000,1,NA,NA,images/earth.jpg,images/rocket1,images/rocket2,null,images/rocket1,NA,1,real,null,2,NA,NA,NA,sub25
d3-animate-choice,287,947068,0.0-78.0-1.0,FALSE,TRUE,FALSE,TRUE,"""event"",""trial"",""time""
""fullscreenenter"",""5"",""17371""
","
","
","""event"",""trial"",""time""
""fullscreenenter"",""5"",""17371""
","
",895.9999999998836,NA,49,NA,NA,3000,1,NA,NA,images/redplanet1.jpg,images/alien2,images/alien1,images/rocket1,images/alien1,images/nothing.png,2,real,true,1,common,0,2020-06-02T20:44:39Z,sub25
