trial_type,trial_index,time_elapsed,internal_node_id,rocket_sides,red_planet_first_rocket,red_display_order,purple_display_order,interactions,blur_events,focus_events,fullscreenenter_events,fullscreenexit_events,rt,stimulus,key_press,button_pressed,success,duration,valid_pressed,rts,keys,planet_text,right_text,left_text,center_text,chosen_text,reward_text,trial_stage,practice_trial,transition_type,choice,transition,reward,timestamp,subject_id
pavlovia,0,147,0.0-0.0,TRUE,FALSE,FALSE,TRUE,"
","
","
","
","
",NA,NA,NA,NA,NA,NA,NA,NA,NA,NA,NA,NA,NA,NA,NA,NA,NA,NA,NA,NA,NA,NA,sub50
html-keyboard-response,1,1890,0.0-1.0,TRUE,FALSE,FALSE,TRUE,"
","
","
","
","
",1741.9999999999964,Welcome! Press the space bar to begin.,32,NA,NA,NA,NA,NA,NA,NA,NA,NA,NA,NA,NA,NA,NA,NA,NA,NA,NA,NA,sub50
audio-keyboard-response,2,31623,0.0-2.0,TRUE,FALSE,FALSE,TRUE,"
","
","
","
","
",27931,audio/beep_loop.wav,32,NA,NA,NA,NA,NA,NA,NA,NA,NA,NA,NA,NA,NA,NA,NA,NA,NA,NA,NA,sub50
audio-button-response,3,34156,0.0-3.0,TRUE,FALSE,FALSE,TRUE,"
","
","
","
","
",NaN,audio/fish.mp3,NA,1,NA,NA,NA,NA,NA,NA,NA,NA,NA,NA,NA,NA,NA,NA,NA,NA,NA,NA,sub50
audio-button-response,4,36821,0.0-4.0,TRUE,FALSE,FALSE,TRUE,"
","
","
","
","
",NaN,audio/tiger.mp3,NA,4,NA,NA,NA,NA,NA,NA,NA,NA,NA,NA,NA,NA,NA,NA,NA,NA,NA,NA,sub50
fullscreen,5,41129,0.0-5.0,TRUE,FALSE,FALSE,TRUE,"""event"",""trial"",""time""
""fullscreenenter"",""6"",""41452""
","
","
","""event"",""trial"",""time""
""fullscreenenter"",""6"",""41452""
","
",NA,NA,NA,NA,TRUE,NA,NA,NA,NA,NA,NA,NA,NA,NA,NA,NA,NA,NA,NA,NA,NA,NA,sub50
d3-instructions,6,64754,0.0-6.0,TRUE,FALSE,FALSE,TRUE,"""event"",""trial"",""time""
""fullscreenenter"",""6"",""41452""
","
","
","""event"",""trial"",""time""
""fullscreenenter"",""6"",""41452""
","
",NA,NA,NA,NA,NA,NA,NA,NA,NA,NA,NA,NA,NA,NA,NA,NA,NA,NA,NA,NA,NA,NA,sub50
d3-instructions,7,74497,0.0-7.0,TRUE,FALSE,FALSE,TRUE,"""event"",""trial"",""time""
""fullscreenenter"",""6"",""41452""
","
","
","""event"",""trial"",""time""
""fullscreenenter"",""6"",""41452""
","
",NA,NA,NA,NA,NA,NA,NA,NA,NA,NA,NA,NA,NA,NA,NA,NA,NA,NA,NA,NA,NA,NA,sub50
d3-instructions,8,83058,0.0-8.0,TRUE,FALSE,FALSE,TRUE,"""event"",""trial"",""time""
""fullscreenenter"",""6"",""41452""
","
","
","""event"",""trial"",""time""
""fullscreenenter"",""6"",""41452""
","
",NA,NA,NA,NA,NA,NA,NA,NA,NA,NA,NA,NA,NA,NA,NA,NA,NA,NA,NA,NA,NA,NA,sub50
d3-instructions,9,94994,0.0-9.0,TRUE,FALSE,FALSE,TRUE,"""event"",""trial"",""time""
""fullscreenenter"",""6"",""41452""
","
","
","""event"",""trial"",""time""
""fullscreenenter"",""6"",""41452""
","
",NA,NA,NA,NA,NA,NA,NA,NA,NA,NA,NA,NA,NA,NA,NA,NA,NA,NA,NA,NA,NA,NA,sub50
d3-instructions,10,119407,0.0-10.0,TRUE,FALSE,FALSE,TRUE,"""event"",""trial"",""time""
""fullscreenenter"",""6"",""41452""
","
","
","""event"",""trial"",""time""
""fullscreenenter"",""6"",""41452""
","
",NA,NA,NA,NA,NA,NA,NA,NA,NA,NA,NA,NA,NA,NA,NA,NA,NA,NA,NA,NA,NA,NA,sub50
d3-animate-choice,11,122582,0.0-11.0,TRUE,FALSE,FALSE,TRUE,"""event"",""trial"",""time""
""fullscreenenter"",""6"",""41452""
","
","
","""event"",""trial"",""time""
""fullscreenenter"",""6"",""41452""
","
",1168,NA,49,NA,NA,3000,1,"2113,2788",4949,images/tutgreenplanet.jpg,images/tutalien1,images/tutalien2,null,images/tutalien2,NA,NA,practice,null,NA,NA,NA,NA,sub50
d3-animate-choice,12,125076,0.0-12.0,TRUE,FALSE,FALSE,TRUE,"""event"",""trial"",""time""
""fullscreenenter"",""6"",""41452""
","
","
","""event"",""trial"",""time""
""fullscreenenter"",""6"",""41452""
","
",491,NA,48,NA,NA,3000,1,1594,49,images/tutgreenplanet.jpg,images/tutalien1,images/tutalien2,null,images/tutalien1,NA,NA,practice,null,NA,NA,NA,NA,sub50
d3-animate-choice,13,129194,0.0-13.0,TRUE,FALSE,FALSE,TRUE,"""event"",""trial"",""time""
""fullscreenenter"",""6"",""41452""
","
","
","""event"",""trial"",""time""
""fullscreenenter"",""6"",""41452""
","
",2115,NA,48,NA,NA,3000,1,3487,49,images/tutgreenplanet.jpg,images/tutalien1,images/tutalien2,null,images/tutalien1,NA,NA,practice,null,NA,NA,NA,NA,sub50
d3-animate-choice,14,131770,0.0-14.0,TRUE,FALSE,FALSE,TRUE,"""event"",""trial"",""time""
""fullscreenenter"",""6"",""41452""
","
","
","""event"",""trial"",""time""
""fullscreenenter"",""6"",""41452""
","
",573,NA,49,NA,NA,3000,1,NA,NA,images/tutgreenplanet.jpg,images/tutalien1,images/tutalien2,null,images/tutalien2,NA,NA,practice,null,NA,NA,NA,NA,sub50
d3-instructions,15,142413,0.0-15.0,TRUE,FALSE,FALSE,TRUE,"""event"",""trial"",""time""
""fullscreenenter"",""6"",""41452""
","
","
","""event"",""trial"",""time""
""fullscreenenter"",""6"",""41452""
","
",NA,NA,NA,NA,NA,NA,NA,NA,NA,NA,NA,NA,NA,NA,NA,NA,NA,NA,NA,NA,NA,NA,sub50
d3-instructions,16,150086,0.0-16.0,TRUE,FALSE,FALSE,TRUE,"""event"",""trial"",""time""
""fullscreenenter"",""6"",""41452""
","
","
","""event"",""trial"",""time""
""fullscreenenter"",""6"",""41452""
","
",NA,NA,NA,NA,NA,NA,NA,NA,NA,NA,NA,NA,NA,NA,NA,NA,NA,NA,NA,NA,NA,NA,sub50
d3-instructions,17,159660,0.0-17.0,TRUE,FALSE,FALSE,TRUE,"""event"",""trial"",""time""
""fullscreenenter"",""6"",""41452""
","
","
","""event"",""trial"",""time""
""fullscreenenter"",""6"",""41452""
","
",NA,NA,NA,NA,NA,NA,NA,NA,NA,NA,NA,NA,NA,NA,NA,NA,NA,NA,NA,NA,NA,NA,sub50
d3-instructions,18,174757,0.0-18.0,TRUE,FALSE,FALSE,TRUE,"""event"",""trial"",""time""
""fullscreenenter"",""6"",""41452""
","
","
","""event"",""trial"",""time""
""fullscreenenter"",""6"",""41452""
","
",NA,NA,NA,NA,NA,NA,NA,NA,NA,NA,NA,NA,NA,NA,NA,NA,NA,NA,NA,NA,NA,NA,sub50
d3-instructions,19,189000,0.0-19.0,TRUE,FALSE,FALSE,TRUE,"""event"",""trial"",""time""
""fullscreenenter"",""6"",""41452""
","
","
","""event"",""trial"",""time""
""fullscreenenter"",""6"",""41452""
","
",NA,NA,NA,NA,NA,NA,NA,NA,NA,NA,NA,NA,NA,NA,NA,NA,NA,NA,NA,NA,NA,NA,sub50
d3-animate-choice,20,191880,0.0-20.0,TRUE,FALSE,FALSE,TRUE,"""event"",""trial"",""time""
""fullscreenenter"",""6"",""41452""
","
","
","""event"",""trial"",""time""
""fullscreenenter"",""6"",""41452""
","
",876,NA,49,NA,NA,3000,1,2777,48,images/tutyellowplanet.jpg,null,images/tutalien3,null,images/tutalien3,images/t.png,NA,practice,null,NA,NA,NA,NA,sub50
d3-animate-choice,21,195063,0.0-21.0,TRUE,FALSE,FALSE,TRUE,"""event"",""trial"",""time""
""fullscreenenter"",""6"",""41452""
","
","
","""event"",""trial"",""time""
""fullscreenenter"",""6"",""41452""
","
",494,NA,48,NA,NA,3000,1,"877,1181",4849,images/tutyellowplanet.jpg,null,images/tutalien3,null,images/tutalien3,images/nothing.png,NA,practice,null,NA,NA,NA,NA,sub50
d3-animate-choice,22,197426,0.0-22.0,TRUE,FALSE,FALSE,TRUE,"""event"",""trial"",""time""
""fullscreenenter"",""6"",""41452""
","
","
","""event"",""trial"",""time""
""fullscreenenter"",""6"",""41452""
","
",359.0000000000291,NA,49,NA,NA,3000,1,NA,NA,images/tutyellowplanet.jpg,null,images/tutalien3,null,images/tutalien3,images/t.png,NA,practice,null,NA,NA,NA,NA,sub50
d3-animate-choice,23,200092,0.0-23.0,TRUE,FALSE,FALSE,TRUE,"""event"",""trial"",""time""
""fullscreenenter"",""6"",""41452""
","
","
","""event"",""trial"",""time""
""fullscreenenter"",""6"",""41452""
","
",663.0000000000291,NA,49,NA,NA,3000,1,NA,NA,images/tutyellowplanet.jpg,null,images/tutalien3,null,images/tutalien3,images/nothing.png,NA,practice,null,NA,NA,NA,NA,sub50
d3-animate-choice,24,202488,0.0-24.0,TRUE,FALSE,FALSE,TRUE,"""event"",""trial"",""time""
""fullscreenenter"",""6"",""41452""
","
","
","""event"",""trial"",""time""
""fullscreenenter"",""6"",""41452""
","
",394,NA,49,NA,NA,3000,1,NA,NA,images/tutyellowplanet.jpg,null,images/tutalien3,null,images/tutalien3,images/t.png,NA,practice,null,NA,NA,NA,NA,sub50
d3-animate-choice,25,204919,0.0-25.0,TRUE,FALSE,FALSE,TRUE,"""event"",""trial"",""time""
""fullscreenenter"",""6"",""41452""
","
","
","""event"",""trial"",""time""
""fullscreenenter"",""6"",""41452""
","
",427,NA,49,NA,NA,3000,1,NA,NA,images/tutyellowplanet.jpg,null,images/tutalien3,null,images/tutalien3,images/t.png,NA,practice,null,NA,NA,NA,NA,sub50
d3-animate-choice,26,207495,0.0-26.0,TRUE,FALSE,FALSE,TRUE,"""event"",""trial"",""time""
""fullscreenenter"",""6"",""41452""
","
","
","""event"",""trial"",""time""
""fullscreenenter"",""6"",""41452""
","
",573,NA,49,NA,NA,3000,1,NA,NA,images/tutyellowplanet.jpg,null,images/tutalien3,null,images/tutalien3,images/nothing.png,NA,practice,null,NA,NA,NA,NA,sub50
d3-animate-choice,27,210105,0.0-27.0,TRUE,FALSE,FALSE,TRUE,"""event"",""trial"",""time""
""fullscreenenter"",""6"",""41452""
","
","
","""event"",""trial"",""time""
""fullscreenenter"",""6"",""41452""
","
",606,NA,49,NA,NA,3000,1,NA,NA,images/tutyellowplanet.jpg,null,images/tutalien3,null,images/tutalien3,images/nothing.png,NA,practice,null,NA,NA,NA,NA,sub50
d3-animate-choice,28,212580,0.0-28.0,TRUE,FALSE,FALSE,TRUE,"""event"",""trial"",""time""
""fullscreenenter"",""6"",""41452""
","
","
","""event"",""trial"",""time""
""fullscreenenter"",""6"",""41452""
","
",472,NA,49,NA,NA,3000,1,NA,NA,images/tutyellowplanet.jpg,null,images/tutalien3,null,images/tutalien3,images/t.png,NA,practice,null,NA,NA,NA,NA,sub50
d3-animate-choice,29,215762,0.0-29.0,TRUE,FALSE,FALSE,TRUE,"""event"",""trial"",""time""
""fullscreenenter"",""6"",""41452""
","
","
","""event"",""trial"",""time""
""fullscreenenter"",""6"",""41452""
","
",1180,NA,49,NA,NA,3000,1,NA,NA,images/tutyellowplanet.jpg,null,images/tutalien3,null,images/tutalien3,images/t.png,NA,practice,null,NA,NA,NA,NA,sub50
d3-instructions,30,223774,0.0-30.0,TRUE,FALSE,FALSE,TRUE,"""event"",""trial"",""time""
""fullscreenenter"",""6"",""41452""
","
","
","""event"",""trial"",""time""
""fullscreenenter"",""6"",""41452""
","
",NA,NA,NA,NA,NA,NA,NA,NA,NA,NA,NA,NA,NA,NA,NA,NA,NA,NA,NA,NA,NA,NA,sub50
d3-instructions,31,234687,0.0-31.0,TRUE,FALSE,FALSE,TRUE,"""event"",""trial"",""time""
""fullscreenenter"",""6"",""41452""
","
","
","""event"",""trial"",""time""
""fullscreenenter"",""6"",""41452""
","
",NA,NA,NA,NA,NA,NA,NA,NA,NA,NA,NA,NA,NA,NA,NA,NA,NA,NA,NA,NA,NA,NA,sub50
d3-instructions,32,245588,0.0-32.0,TRUE,FALSE,FALSE,TRUE,"""event"",""trial"",""time""
""fullscreenenter"",""6"",""41452""
","
","
","""event"",""trial"",""time""
""fullscreenenter"",""6"",""41452""
","
",NA,NA,NA,NA,NA,NA,NA,NA,NA,NA,NA,NA,NA,NA,NA,NA,NA,NA,NA,NA,NA,NA,sub50
d3-instructions,33,256365,0.0-33.0,TRUE,FALSE,FALSE,TRUE,"""event"",""trial"",""time""
""fullscreenenter"",""6"",""41452""
","
","
","""event"",""trial"",""time""
""fullscreenenter"",""6"",""41452""
","
",NA,NA,NA,NA,NA,NA,NA,NA,NA,NA,NA,NA,NA,NA,NA,NA,NA,NA,NA,NA,NA,NA,sub50
d3-animate-choice,34,259671,0.0-34.0,TRUE,FALSE,FALSE,TRUE,"""event"",""trial"",""time""
""fullscreenenter"",""6"",""41452""
","
","
","""event"",""trial"",""time""
""fullscreenenter"",""6"",""41452""
","
",1304,NA,49,NA,NA,3000,1,NA,NA,images/tutgreenplanet.jpg,images/tutalien1,images/tutalien2,null,images/tutalien2,images/t.png,NA,practice,null,NA,NA,NA,NA,sub50
d3-animate-choice,35,262058,0.0-35.0,TRUE,FALSE,FALSE,TRUE,"""event"",""trial"",""time""
""fullscreenenter"",""6"",""41452""
","
","
","""event"",""trial"",""time""
""fullscreenenter"",""6"",""41452""
","
",383,NA,49,NA,NA,3000,1,NA,NA,images/tutgreenplanet.jpg,images/tutalien1,images/tutalien2,null,images/tutalien2,images/nothing.png,NA,practice,null,NA,NA,NA,NA,sub50
d3-animate-choice,36,264363,0.0-36.0,TRUE,FALSE,FALSE,TRUE,"""event"",""trial"",""time""
""fullscreenenter"",""6"",""41452""
","
","
","""event"",""trial"",""time""
""fullscreenenter"",""6"",""41452""
","
",302,NA,49,NA,NA,3000,1,NA,NA,images/tutgreenplanet.jpg,images/tutalien1,images/tutalien2,null,images/tutalien2,images/t.png,NA,practice,null,NA,NA,NA,NA,sub50
d3-animate-choice,37,266647,0.0-37.0,TRUE,FALSE,FALSE,TRUE,"""event"",""trial"",""time""
""fullscreenenter"",""6"",""41452""
","
","
","""event"",""trial"",""time""
""fullscreenenter"",""6"",""41452""
","
",281.0000000000582,NA,49,NA,NA,3000,1,NA,NA,images/tutgreenplanet.jpg,images/tutalien1,images/tutalien2,null,images/tutalien2,images/nothing.png,NA,practice,null,NA,NA,NA,NA,sub50
d3-animate-choice,38,268998,0.0-38.0,TRUE,FALSE,FALSE,TRUE,"""event"",""trial"",""time""
""fullscreenenter"",""6"",""41452""
","
","
","""event"",""trial"",""time""
""fullscreenenter"",""6"",""41452""
","
",349,NA,49,NA,NA,3000,1,NA,NA,images/tutgreenplanet.jpg,images/tutalien1,images/tutalien2,null,images/tutalien2,images/t.png,NA,practice,null,NA,NA,NA,NA,sub50
d3-animate-choice,39,271418,0.0-39.0,TRUE,FALSE,FALSE,TRUE,"""event"",""trial"",""time""
""fullscreenenter"",""6"",""41452""
","
","
","""event"",""trial"",""time""
""fullscreenenter"",""6"",""41452""
","
",415,NA,49,NA,NA,3000,1,NA,NA,images/tutgreenplanet.jpg,images/tutalien1,images/tutalien2,null,images/tutalien2,images/t.png,NA,practice,null,NA,NA,NA,NA,sub50
d3-animate-choice,40,273779,0.0-40.0,TRUE,FALSE,FALSE,TRUE,"""event"",""trial"",""time""
""fullscreenenter"",""6"",""41452""
","
","
","""event"",""trial"",""time""
""fullscreenenter"",""6"",""41452""
","
",358.9999999999418,NA,49,NA,NA,3000,1,NA,NA,images/tutgreenplanet.jpg,images/tutalien1,images/tutalien2,null,images/tutalien2,images/t.png,NA,practice,null,NA,NA,NA,NA,sub50
d3-animate-choice,41,276064,0.0-41.0,TRUE,FALSE,FALSE,TRUE,"""event"",""trial"",""time""
""fullscreenenter"",""6"",""41452""
","
","
","""event"",""trial"",""time""
""fullscreenenter"",""6"",""41452""
","
",282,NA,49,NA,NA,3000,1,NA,NA,images/tutgreenplanet.jpg,images/tutalien1,images/tutalien2,null,images/tutalien2,images/t.png,NA,practice,null,NA,NA,NA,NA,sub50
d3-animate-choice,42,278392,0.0-42.0,TRUE,FALSE,FALSE,TRUE,"""event"",""trial"",""time""
""fullscreenenter"",""6"",""41452""
","
","
","""event"",""trial"",""time""
""fullscreenenter"",""6"",""41452""
","
",326,NA,49,NA,NA,3000,1,NA,NA,images/tutgreenplanet.jpg,images/tutalien1,images/tutalien2,null,images/tutalien2,images/t.png,NA,practice,null,NA,NA,NA,NA,sub50
d3-animate-choice,43,280665,0.0-43.0,TRUE,FALSE,FALSE,TRUE,"""event"",""trial"",""time""
""fullscreenenter"",""6"",""41452""
","
","
","""event"",""trial"",""time""
""fullscreenenter"",""6"",""41452""
","
",270,NA,49,NA,NA,3000,1,NA,NA,images/tutgreenplanet.jpg,images/tutalien1,images/tutalien2,null,images/tutalien2,images/t.png,NA,practice,null,NA,NA,NA,NA,sub50
d3-instructions,44,293446,0.0-44.0,TRUE,FALSE,FALSE,TRUE,"""event"",""trial"",""time""
""fullscreenenter"",""6"",""41452""
","
","
","""event"",""trial"",""time""
""fullscreenenter"",""6"",""41452""
","
",NA,NA,NA,NA,NA,NA,NA,NA,NA,NA,NA,NA,NA,NA,NA,NA,NA,NA,NA,NA,NA,NA,sub50
d3-instructions,45,299780,0.0-45.0,TRUE,FALSE,FALSE,TRUE,"""event"",""trial"",""time""
""fullscreenenter"",""6"",""41452""
","
","
","""event"",""trial"",""time""
""fullscreenenter"",""6"",""41452""
","
",NA,NA,NA,NA,NA,NA,NA,NA,NA,NA,NA,NA,NA,NA,NA,NA,NA,NA,NA,NA,NA,NA,sub50
d3-instructions,46,304842,0.0-46.0,TRUE,FALSE,FALSE,TRUE,"""event"",""trial"",""time""
""fullscreenenter"",""6"",""41452""
","
","
","""event"",""trial"",""time""
""fullscreenenter"",""6"",""41452""
","
",NA,NA,NA,NA,NA,NA,NA,NA,NA,NA,NA,NA,NA,NA,NA,NA,NA,NA,NA,NA,NA,NA,sub50
d3-instructions,47,321233,0.0-47.0,TRUE,FALSE,FALSE,TRUE,"""event"",""trial"",""time""
""fullscreenenter"",""6"",""41452""
","
","
","""event"",""trial"",""time""
""fullscreenenter"",""6"",""41452""
","
",NA,NA,NA,NA,NA,NA,NA,NA,NA,NA,NA,NA,NA,NA,NA,NA,NA,NA,NA,NA,NA,NA,sub50
d3-instructions,48,328073,0.0-48.0,TRUE,FALSE,FALSE,TRUE,"""event"",""trial"",""time""
""fullscreenenter"",""6"",""41452""
","
","
","""event"",""trial"",""time""
""fullscreenenter"",""6"",""41452""
","
",NA,NA,NA,NA,NA,NA,NA,NA,NA,NA,NA,NA,NA,NA,NA,NA,NA,NA,NA,NA,NA,NA,sub50
d3-instructions,49,340156,0.0-49.0,TRUE,FALSE,FALSE,TRUE,"""event"",""trial"",""time""
""fullscreenenter"",""6"",""41452""
","
","
","""event"",""trial"",""time""
""fullscreenenter"",""6"",""41452""
","
",NA,NA,NA,NA,NA,NA,NA,NA,NA,NA,NA,NA,NA,NA,NA,NA,NA,NA,NA,NA,NA,NA,sub50
d3-instructions,50,349100,0.0-50.0,TRUE,FALSE,FALSE,TRUE,"""event"",""trial"",""time""
""fullscreenenter"",""6"",""41452""
","
","
","""event"",""trial"",""time""
""fullscreenenter"",""6"",""41452""
","
",NA,NA,NA,NA,NA,NA,NA,NA,NA,NA,NA,NA,NA,NA,NA,NA,NA,NA,NA,NA,NA,NA,sub50
d3-instructions,51,352554,0.0-51.0,TRUE,FALSE,FALSE,TRUE,"""event"",""trial"",""time""
""fullscreenenter"",""6"",""41452""
","
","
","""event"",""trial"",""time""
""fullscreenenter"",""6"",""41452""
","
",NA,NA,NA,NA,NA,NA,NA,NA,NA,NA,NA,NA,NA,NA,NA,NA,NA,NA,NA,NA,NA,NA,sub50
d3-instructions,52,356266,0.0-52.0,TRUE,FALSE,FALSE,TRUE,"""event"",""trial"",""time""
""fullscreenenter"",""6"",""41452""
","
","
","""event"",""trial"",""time""
""fullscreenenter"",""6"",""41452""
","
",NA,NA,NA,NA,NA,NA,NA,NA,NA,NA,NA,NA,NA,NA,NA,NA,NA,NA,NA,NA,NA,NA,sub50
d3-instructions,53,368630,0.0-53.0,TRUE,FALSE,FALSE,TRUE,"""event"",""trial"",""time""
""fullscreenenter"",""6"",""41452""
","
","
","""event"",""trial"",""time""
""fullscreenenter"",""6"",""41452""
","
",NA,NA,NA,NA,NA,NA,NA,NA,NA,NA,NA,NA,NA,NA,NA,NA,NA,NA,NA,NA,NA,NA,sub50
d3-instructions,54,381894,0.0-54.0,TRUE,FALSE,FALSE,TRUE,"""event"",""trial"",""time""
""fullscreenenter"",""6"",""41452""
","
","
","""event"",""trial"",""time""
""fullscreenenter"",""6"",""41452""
","
",NA,NA,NA,NA,NA,NA,NA,NA,NA,NA,NA,NA,NA,NA,NA,NA,NA,NA,NA,NA,NA,NA,sub50
d3-instructions,55,393279,0.0-55.0,TRUE,FALSE,FALSE,TRUE,"""event"",""trial"",""time""
""fullscreenenter"",""6"",""41452""
","
","
","""event"",""trial"",""time""
""fullscreenenter"",""6"",""41452""
","
",NA,NA,NA,NA,NA,NA,NA,NA,NA,NA,NA,NA,NA,NA,NA,NA,NA,NA,NA,NA,NA,NA,sub50
d3-instructions,56,401548,0.0-56.0,TRUE,FALSE,FALSE,TRUE,"""event"",""trial"",""time""
""fullscreenenter"",""6"",""41452""
","
","
","""event"",""trial"",""time""
""fullscreenenter"",""6"",""41452""
","
",NA,NA,NA,NA,NA,NA,NA,NA,NA,NA,NA,NA,NA,NA,NA,NA,NA,NA,NA,NA,NA,NA,sub50
d3-instructions,57,411313,0.0-57.0,TRUE,FALSE,FALSE,TRUE,"""event"",""trial"",""time""
""fullscreenenter"",""6"",""41452""
","
","
","""event"",""trial"",""time""
""fullscreenenter"",""6"",""41452""
","
",NA,NA,NA,NA,NA,NA,NA,NA,NA,NA,NA,NA,NA,NA,NA,NA,NA,NA,NA,NA,NA,NA,sub50
d3-instructions,58,420538,0.0-58.0,TRUE,FALSE,FALSE,TRUE,"""event"",""trial"",""time""
""fullscreenenter"",""6"",""41452""
","
","
","""event"",""trial"",""time""
""fullscreenenter"",""6"",""41452""
","
",NA,NA,NA,NA,NA,NA,NA,NA,NA,NA,NA,NA,NA,NA,NA,NA,NA,NA,NA,NA,NA,NA,sub50
d3-instructions,59,424678,0.0-59.0,TRUE,FALSE,FALSE,TRUE,"""event"",""trial"",""time""
""fullscreenenter"",""6"",""41452""
","
","
","""event"",""trial"",""time""
""fullscreenenter"",""6"",""41452""
","
",NA,NA,NA,NA,NA,NA,NA,NA,NA,NA,NA,NA,NA,NA,NA,NA,NA,NA,NA,NA,NA,NA,sub50
d3-instructions,60,427389,0.0-60.0,TRUE,FALSE,FALSE,TRUE,"""event"",""trial"",""time""
""fullscreenenter"",""6"",""41452""
","
","
","""event"",""trial"",""time""
""fullscreenenter"",""6"",""41452""
","
",NA,NA,NA,NA,NA,NA,NA,NA,NA,NA,NA,NA,NA,NA,NA,NA,NA,NA,NA,NA,NA,NA,sub50
d3-animate-choice,61,430763,0.0-61.0-0.0,TRUE,FALSE,FALSE,TRUE,"""event"",""trial"",""time""
""fullscreenenter"",""6"",""41452""
","
","
","""event"",""trial"",""time""
""fullscreenenter"",""6"",""41452""
","
",1371.0000000000582,NA,49,NA,NA,3000,1,NA,NA,images/earth.jpg,images/tutrocket1,images/tutrocket2,null,images/tutrocket2,NA,1,practice,null,1,NA,NA,NA,sub50
d3-animate-choice,62,433812,0.0-61.0-1.0,TRUE,FALSE,FALSE,TRUE,"""event"",""trial"",""time""
""fullscreenenter"",""6"",""41452""
","
","
","""event"",""trial"",""time""
""fullscreenenter"",""6"",""41452""
","
",1045,NA,49,NA,NA,3000,1,NA,NA,images/tutyellowplanet.jpg,images/tutalien4,images/tutalien3,images/tutrocket2,images/tutalien3,images/nothing.png,2,practice,false,1,rare,0,2020-06-10T01:41:03Z,sub50
two-step-fixation,63,434815,0.0-61.0-2.0,TRUE,FALSE,FALSE,TRUE,"""event"",""trial"",""time""
""fullscreenenter"",""6"",""41452""
","
","
","""event"",""trial"",""time""
""fullscreenenter"",""6"",""41452""
","
",NA,images/earth.jpg,NA,NA,NA,NA,NA,NA,NA,NA,NA,NA,NA,NA,NA,fixation,NA,NA,NA,NA,NA,NA,sub50
d3-animate-choice,64,437221,0.0-61.0-0.1,TRUE,FALSE,FALSE,TRUE,"""event"",""trial"",""time""
""fullscreenenter"",""6"",""41452""
","
","
","""event"",""trial"",""time""
""fullscreenenter"",""6"",""41452""
","
",404,NA,49,NA,NA,3000,1,NA,NA,images/earth.jpg,images/tutrocket1,images/tutrocket2,null,images/tutrocket2,NA,1,practice,null,1,NA,NA,NA,sub50
d3-animate-choice,65,439931,0.0-61.0-1.1,TRUE,FALSE,FALSE,TRUE,"""event"",""trial"",""time""
""fullscreenenter"",""6"",""41452""
","
","
","""event"",""trial"",""time""
""fullscreenenter"",""6"",""41452""
","
",709,NA,49,NA,NA,3000,1,NA,NA,images/tutgreenplanet.jpg,images/tutalien2,images/tutalien1,images/tutrocket2,images/tutalien1,images/nothing.png,2,practice,true,1,common,0,2020-06-10T01:41:09Z,sub50
two-step-fixation,66,440933,0.0-61.0-2.1,TRUE,FALSE,FALSE,TRUE,"""event"",""trial"",""time""
""fullscreenenter"",""6"",""41452""
","
","
","""event"",""trial"",""time""
""fullscreenenter"",""6"",""41452""
","
",NA,images/earth.jpg,NA,NA,NA,NA,NA,NA,NA,NA,NA,NA,NA,NA,NA,fixation,NA,NA,NA,NA,NA,NA,sub50
d3-animate-choice,67,443284,0.0-61.0-0.2,TRUE,FALSE,FALSE,TRUE,"""event"",""trial"",""time""
""fullscreenenter"",""6"",""41452""
","
","
","""event"",""trial"",""time""
""fullscreenenter"",""6"",""41452""
","
",348.9999999999418,NA,49,NA,NA,3000,1,NA,NA,images/earth.jpg,images/tutrocket1,images/tutrocket2,null,images/tutrocket2,NA,1,practice,null,1,NA,NA,NA,sub50
d3-animate-choice,68,445872,0.0-61.0-1.2,TRUE,FALSE,FALSE,TRUE,"""event"",""trial"",""time""
""fullscreenenter"",""6"",""41452""
","
","
","""event"",""trial"",""time""
""fullscreenenter"",""6"",""41452""
","
",584.9999999999418,NA,49,NA,NA,3000,1,NA,NA,images/tutyellowplanet.jpg,images/tutalien4,images/tutalien3,images/tutrocket2,images/tutalien3,images/nothing.png,2,practice,false,1,rare,0,2020-06-10T01:41:15Z,sub50
two-step-fixation,69,446874,0.0-61.0-2.2,TRUE,FALSE,FALSE,TRUE,"""event"",""trial"",""time""
""fullscreenenter"",""6"",""41452""
","
","
","""event"",""trial"",""time""
""fullscreenenter"",""6"",""41452""
","
",NA,images/earth.jpg,NA,NA,NA,NA,NA,NA,NA,NA,NA,NA,NA,NA,NA,fixation,NA,NA,NA,NA,NA,NA,sub50
d3-animate-choice,70,449428,0.0-61.0-0.3,TRUE,FALSE,FALSE,TRUE,"""event"",""trial"",""time""
""fullscreenenter"",""6"",""41452""
","
","
","""event"",""trial"",""time""
""fullscreenenter"",""6"",""41452""
","
",550,NA,49,NA,NA,3000,1,NA,NA,images/earth.jpg,images/tutrocket1,images/tutrocket2,null,images/tutrocket2,NA,1,practice,null,1,NA,NA,NA,sub50
d3-animate-choice,71,452869,0.0-61.0-1.3,TRUE,FALSE,FALSE,TRUE,"""event"",""trial"",""time""
""fullscreenenter"",""6"",""41452""
","
","
","""event"",""trial"",""time""
""fullscreenenter"",""6"",""41452""
","
",1439,NA,48,NA,NA,3000,1,NA,NA,images/tutgreenplanet.jpg,images/tutalien2,images/tutalien1,images/tutrocket2,images/tutalien2,images/nothing.png,2,practice,true,2,common,0,2020-06-10T01:41:22Z,sub50
two-step-fixation,72,453871,0.0-61.0-2.3,TRUE,FALSE,FALSE,TRUE,"""event"",""trial"",""time""
""fullscreenenter"",""6"",""41452""
","
","
","""event"",""trial"",""time""
""fullscreenenter"",""6"",""41452""
","
",NA,images/earth.jpg,NA,NA,NA,NA,NA,NA,NA,NA,NA,NA,NA,NA,NA,fixation,NA,NA,NA,NA,NA,NA,sub50
d3-animate-choice,73,456368,0.0-61.0-0.4,TRUE,FALSE,FALSE,TRUE,"""event"",""trial"",""time""
""fullscreenenter"",""6"",""41452""
","
","
","""event"",""trial"",""time""
""fullscreenenter"",""6"",""41452""
","
",495.0000000000582,NA,49,NA,NA,3000,1,NA,NA,images/earth.jpg,images/tutrocket1,images/tutrocket2,null,images/tutrocket2,NA,1,practice,null,1,NA,NA,NA,sub50
d3-animate-choice,74,459102,0.0-61.0-1.4,TRUE,FALSE,FALSE,TRUE,"""event"",""trial"",""time""
""fullscreenenter"",""6"",""41452""
","
","
","""event"",""trial"",""time""
""fullscreenenter"",""6"",""41452""
","
",732,NA,48,NA,NA,3000,1,NA,NA,images/tutgreenplanet.jpg,images/tutalien2,images/tutalien1,images/tutrocket2,images/tutalien2,images/nothing.png,2,practice,true,2,common,0,2020-06-10T01:41:28Z,sub50
two-step-fixation,75,460103,0.0-61.0-2.4,TRUE,FALSE,FALSE,TRUE,"""event"",""trial"",""time""
""fullscreenenter"",""6"",""41452""
","
","
","""event"",""trial"",""time""
""fullscreenenter"",""6"",""41452""
","
",NA,images/earth.jpg,NA,NA,NA,NA,NA,NA,NA,NA,NA,NA,NA,NA,NA,fixation,NA,NA,NA,NA,NA,NA,sub50
d3-animate-choice,76,462454,0.0-61.0-0.5,TRUE,FALSE,FALSE,TRUE,"""event"",""trial"",""time""
""fullscreenenter"",""6"",""41452""
","
","
","""event"",""trial"",""time""
""fullscreenenter"",""6"",""41452""
","
",347.9999999999418,NA,49,NA,NA,3000,1,NA,NA,images/earth.jpg,images/tutrocket1,images/tutrocket2,null,images/tutrocket2,NA,1,practice,null,1,NA,NA,NA,sub50
d3-animate-choice,77,465537,0.0-61.0-1.5,TRUE,FALSE,FALSE,TRUE,"""event"",""trial"",""time""
""fullscreenenter"",""6"",""41452""
","
","
","""event"",""trial"",""time""
""fullscreenenter"",""6"",""41452""
","
",1081,NA,48,NA,NA,3000,1,NA,NA,images/tutyellowplanet.jpg,images/tutalien4,images/tutalien3,images/tutrocket2,images/tutalien4,images/nothing.png,2,practice,false,2,rare,0,2020-06-10T01:41:35Z,sub50
two-step-fixation,78,466538,0.0-61.0-2.5,TRUE,FALSE,FALSE,TRUE,"""event"",""trial"",""time""
""fullscreenenter"",""6"",""41452""
","
","
","""event"",""trial"",""time""
""fullscreenenter"",""6"",""41452""
","
",NA,images/earth.jpg,NA,NA,NA,NA,NA,NA,NA,NA,NA,NA,NA,NA,NA,fixation,NA,NA,NA,NA,NA,NA,sub50
d3-animate-choice,79,470540,0.0-61.0-0.6,TRUE,FALSE,FALSE,TRUE,"""event"",""trial"",""time""
""fullscreenenter"",""6"",""41452""
","
","
","""event"",""trial"",""time""
""fullscreenenter"",""6"",""41452""
","
",1429.0000000000582,NA,50,NA,NA,3000,1,"2836,2858",18948,images/earth.jpg,images/tutrocket1,images/tutrocket2,null,images/tutrocket1,NA,1,practice,null,NA,NA,NA,NA,sub50
d3-animate-choice,80,473997,0.0-61.0-1.6,TRUE,FALSE,FALSE,TRUE,"""event"",""trial"",""time""
""fullscreenenter"",""6"",""41452""
","
","
","""event"",""trial"",""time""
""fullscreenenter"",""6"",""41452""
","
",1454,NA,49,NA,NA,3000,1,NA,NA,images/tutyellowplanet.jpg,images/tutalien4,images/tutalien3,images/tutrocket1,images/tutalien3,images/nothing.png,2,practice,true,1,common,0,2020-06-10T01:41:43Z,sub50
two-step-fixation,81,474999,0.0-61.0-2.6,TRUE,FALSE,FALSE,TRUE,"""event"",""trial"",""time""
""fullscreenenter"",""6"",""41452""
","
","
","""event"",""trial"",""time""
""fullscreenenter"",""6"",""41452""
","
",NA,images/earth.jpg,NA,NA,NA,NA,NA,NA,NA,NA,NA,NA,NA,NA,NA,fixation,NA,NA,NA,NA,NA,NA,sub50
d3-animate-choice,82,477676,0.0-61.0-0.7,TRUE,FALSE,FALSE,TRUE,"""event"",""trial"",""time""
""fullscreenenter"",""6"",""41452""
","
","
","""event"",""trial"",""time""
""fullscreenenter"",""6"",""41452""
","
",675,NA,48,NA,NA,3000,1,NA,NA,images/earth.jpg,images/tutrocket1,images/tutrocket2,null,images/tutrocket1,NA,1,practice,null,2,NA,NA,NA,sub50
d3-animate-choice,83,480095,0.0-61.0-1.7,TRUE,FALSE,FALSE,TRUE,"""event"",""trial"",""time""
""fullscreenenter"",""6"",""41452""
","
","
","""event"",""trial"",""time""
""fullscreenenter"",""6"",""41452""
","
",416,NA,48,NA,NA,3000,1,NA,NA,images/tutgreenplanet.jpg,images/tutalien2,images/tutalien1,images/tutrocket1,images/tutalien2,images/nothing.png,2,practice,false,2,rare,0,2020-06-10T01:41:49Z,sub50
two-step-fixation,84,481097,0.0-61.0-2.7,TRUE,FALSE,FALSE,TRUE,"""event"",""trial"",""time""
""fullscreenenter"",""6"",""41452""
","
","
","""event"",""trial"",""time""
""fullscreenenter"",""6"",""41452""
","
",NA,images/earth.jpg,NA,NA,NA,NA,NA,NA,NA,NA,NA,NA,NA,NA,NA,fixation,NA,NA,NA,NA,NA,NA,sub50
d3-animate-choice,85,483661,0.0-61.0-0.8,TRUE,FALSE,FALSE,TRUE,"""event"",""trial"",""time""
""fullscreenenter"",""6"",""41452""
","
","
","""event"",""trial"",""time""
""fullscreenenter"",""6"",""41452""
","
",562.0000000000582,NA,48,NA,NA,3000,1,NA,NA,images/earth.jpg,images/tutrocket1,images/tutrocket2,null,images/tutrocket1,NA,1,practice,null,2,NA,NA,NA,sub50
d3-animate-choice,86,486327,0.0-61.0-1.8,TRUE,FALSE,FALSE,TRUE,"""event"",""trial"",""time""
""fullscreenenter"",""6"",""41452""
","
","
","""event"",""trial"",""time""
""fullscreenenter"",""6"",""41452""
","
",664,NA,48,NA,NA,3000,1,NA,NA,images/tutyellowplanet.jpg,images/tutalien4,images/tutalien3,images/tutrocket1,images/tutalien4,images/t.png,2,practice,true,2,common,1,2020-06-10T01:41:55Z,sub50
two-step-fixation,87,487328,0.0-61.0-2.8,TRUE,FALSE,FALSE,TRUE,"""event"",""trial"",""time""
""fullscreenenter"",""6"",""41452""
","
","
","""event"",""trial"",""time""
""fullscreenenter"",""6"",""41452""
","
",NA,images/earth.jpg,NA,NA,NA,NA,NA,NA,NA,NA,NA,NA,NA,NA,NA,fixation,NA,NA,NA,NA,NA,NA,sub50
d3-animate-choice,88,489837,0.0-61.0-0.9,TRUE,FALSE,FALSE,TRUE,"""event"",""trial"",""time""
""fullscreenenter"",""6"",""41452""
","
","
","""event"",""trial"",""time""
""fullscreenenter"",""6"",""41452""
","
",505.9999999999418,NA,49,NA,NA,3000,1,NA,NA,images/earth.jpg,images/tutrocket1,images/tutrocket2,null,images/tutrocket2,NA,1,practice,null,1,NA,NA,NA,sub50
d3-animate-choice,89,492312,0.0-61.0-1.9,TRUE,FALSE,FALSE,TRUE,"""event"",""trial"",""time""
""fullscreenenter"",""6"",""41452""
","
","
","""event"",""trial"",""time""
""fullscreenenter"",""6"",""41452""
","
",472.9999999999418,NA,48,NA,NA,3000,1,NA,NA,images/tutyellowplanet.jpg,images/tutalien4,images/tutalien3,images/tutrocket2,images/tutalien4,images/t.png,2,practice,false,2,rare,1,2020-06-10T01:42:01Z,sub50
two-step-fixation,90,493313,0.0-61.0-2.9,TRUE,FALSE,FALSE,TRUE,"""event"",""trial"",""time""
""fullscreenenter"",""6"",""41452""
","
","
","""event"",""trial"",""time""
""fullscreenenter"",""6"",""41452""
","
",NA,images/earth.jpg,NA,NA,NA,NA,NA,NA,NA,NA,NA,NA,NA,NA,NA,fixation,NA,NA,NA,NA,NA,NA,sub50
d3-animate-choice,91,495620,0.0-61.0-0.10,TRUE,FALSE,FALSE,TRUE,"""event"",""trial"",""time""
""fullscreenenter"",""6"",""41452""
","
","
","""event"",""trial"",""time""
""fullscreenenter"",""6"",""41452""
","
",303.9999999998836,NA,49,NA,NA,3000,1,NA,NA,images/earth.jpg,images/tutrocket1,images/tutrocket2,null,images/tutrocket2,NA,1,practice,null,1,NA,NA,NA,sub50
d3-animate-choice,92,497982,0.0-61.0-1.10,TRUE,FALSE,FALSE,TRUE,"""event"",""trial"",""time""
""fullscreenenter"",""6"",""41452""
","
","
","""event"",""trial"",""time""
""fullscreenenter"",""6"",""41452""
","
",360,NA,48,NA,NA,3000,1,NA,NA,images/tutgreenplanet.jpg,images/tutalien2,images/tutalien1,images/tutrocket2,images/tutalien2,images/nothing.png,2,practice,true,2,common,0,2020-06-10T01:42:07Z,sub50
two-step-fixation,93,498984,0.0-61.0-2.10,TRUE,FALSE,FALSE,TRUE,"""event"",""trial"",""time""
""fullscreenenter"",""6"",""41452""
","
","
","""event"",""trial"",""time""
""fullscreenenter"",""6"",""41452""
","
",NA,images/earth.jpg,NA,NA,NA,NA,NA,NA,NA,NA,NA,NA,NA,NA,NA,fixation,NA,NA,NA,NA,NA,NA,sub50
d3-animate-choice,94,501324,0.0-61.0-0.11,TRUE,FALSE,FALSE,TRUE,"""event"",""trial"",""time""
""fullscreenenter"",""6"",""41452""
","
","
","""event"",""trial"",""time""
""fullscreenenter"",""6"",""41452""
","
",337,NA,49,NA,NA,3000,1,NA,NA,images/earth.jpg,images/tutrocket1,images/tutrocket2,null,images/tutrocket2,NA,1,practice,null,1,NA,NA,NA,sub50
d3-animate-choice,95,503686,0.0-61.0-1.11,TRUE,FALSE,FALSE,TRUE,"""event"",""trial"",""time""
""fullscreenenter"",""6"",""41452""
","
","
","""event"",""trial"",""time""
""fullscreenenter"",""6"",""41452""
","
",360,NA,48,NA,NA,3000,1,NA,NA,images/tutyellowplanet.jpg,images/tutalien4,images/tutalien3,images/tutrocket2,images/tutalien4,images/t.png,2,practice,false,2,rare,1,2020-06-10T01:42:13Z,sub50
two-step-fixation,96,504688,0.0-61.0-2.11,TRUE,FALSE,FALSE,TRUE,"""event"",""trial"",""time""
""fullscreenenter"",""6"",""41452""
","
","
","""event"",""trial"",""time""
""fullscreenenter"",""6"",""41452""
","
",NA,images/earth.jpg,NA,NA,NA,NA,NA,NA,NA,NA,NA,NA,NA,NA,NA,fixation,NA,NA,NA,NA,NA,NA,sub50
d3-animate-choice,97,507061,0.0-61.0-0.12,TRUE,FALSE,FALSE,TRUE,"""event"",""trial"",""time""
""fullscreenenter"",""6"",""41452""
","
","
","""event"",""trial"",""time""
""fullscreenenter"",""6"",""41452""
","
",370.9999999998836,NA,49,NA,NA,3000,1,NA,NA,images/earth.jpg,images/tutrocket1,images/tutrocket2,null,images/tutrocket2,NA,1,practice,null,1,NA,NA,NA,sub50
d3-animate-choice,98,509491,0.0-61.0-1.12,TRUE,FALSE,FALSE,TRUE,"""event"",""trial"",""time""
""fullscreenenter"",""6"",""41452""
","
","
","""event"",""trial"",""time""
""fullscreenenter"",""6"",""41452""
","
",427,NA,48,NA,NA,3000,1,NA,NA,images/tutyellowplanet.jpg,images/tutalien4,images/tutalien3,images/tutrocket2,images/tutalien4,images/t.png,2,practice,false,2,rare,1,2020-06-10T01:42:19Z,sub50
two-step-fixation,99,510493,0.0-61.0-2.12,TRUE,FALSE,FALSE,TRUE,"""event"",""trial"",""time""
""fullscreenenter"",""6"",""41452""
","
","
","""event"",""trial"",""time""
""fullscreenenter"",""6"",""41452""
","
",NA,images/earth.jpg,NA,NA,NA,NA,NA,NA,NA,NA,NA,NA,NA,NA,NA,fixation,NA,NA,NA,NA,NA,NA,sub50
d3-animate-choice,100,512900,0.0-61.0-0.13,TRUE,FALSE,FALSE,TRUE,"""event"",""trial"",""time""
""fullscreenenter"",""6"",""41452""
","
","
","""event"",""trial"",""time""
""fullscreenenter"",""6"",""41452""
","
",405,NA,49,NA,NA,3000,1,NA,NA,images/earth.jpg,images/tutrocket1,images/tutrocket2,null,images/tutrocket2,NA,1,practice,null,1,NA,NA,NA,sub50
d3-animate-choice,101,515363,0.0-61.0-1.13,TRUE,FALSE,FALSE,TRUE,"""event"",""trial"",""time""
""fullscreenenter"",""6"",""41452""
","
","
","""event"",""trial"",""time""
""fullscreenenter"",""6"",""41452""
","
",461,NA,49,NA,NA,3000,1,NA,NA,images/tutgreenplanet.jpg,images/tutalien2,images/tutalien1,images/tutrocket2,images/tutalien1,images/nothing.png,2,practice,true,1,common,0,2020-06-10T01:42:24Z,sub50
two-step-fixation,102,516364,0.0-61.0-2.13,TRUE,FALSE,FALSE,TRUE,"""event"",""trial"",""time""
""fullscreenenter"",""6"",""41452""
","
","
","""event"",""trial"",""time""
""fullscreenenter"",""6"",""41452""
","
",NA,images/earth.jpg,NA,NA,NA,NA,NA,NA,NA,NA,NA,NA,NA,NA,NA,fixation,NA,NA,NA,NA,NA,NA,sub50
d3-animate-choice,103,518694,0.0-61.0-0.14,TRUE,FALSE,FALSE,TRUE,"""event"",""trial"",""time""
""fullscreenenter"",""6"",""41452""
","
","
","""event"",""trial"",""time""
""fullscreenenter"",""6"",""41452""
","
",326,NA,49,NA,NA,3000,1,NA,NA,images/earth.jpg,images/tutrocket1,images/tutrocket2,null,images/tutrocket2,NA,1,practice,null,1,NA,NA,NA,sub50
d3-animate-choice,104,521078,0.0-61.0-1.14,TRUE,FALSE,FALSE,TRUE,"""event"",""trial"",""time""
""fullscreenenter"",""6"",""41452""
","
","
","""event"",""trial"",""time""
""fullscreenenter"",""6"",""41452""
","
",382,NA,48,NA,NA,3000,1,NA,NA,images/tutgreenplanet.jpg,images/tutalien2,images/tutalien1,images/tutrocket2,images/tutalien2,images/nothing.png,2,practice,true,2,common,0,2020-06-10T01:42:30Z,sub50
two-step-fixation,105,522079,0.0-61.0-2.14,TRUE,FALSE,FALSE,TRUE,"""event"",""trial"",""time""
""fullscreenenter"",""6"",""41452""
","
","
","""event"",""trial"",""time""
""fullscreenenter"",""6"",""41452""
","
",NA,images/earth.jpg,NA,NA,NA,NA,NA,NA,NA,NA,NA,NA,NA,NA,NA,fixation,NA,NA,NA,NA,NA,NA,sub50
d3-animate-choice,106,524352,0.0-61.0-0.15,TRUE,FALSE,FALSE,TRUE,"""event"",""trial"",""time""
""fullscreenenter"",""6"",""41452""
","
","
","""event"",""trial"",""time""
""fullscreenenter"",""6"",""41452""
","
",270,NA,49,NA,NA,3000,1,NA,NA,images/earth.jpg,images/tutrocket1,images/tutrocket2,null,images/tutrocket2,NA,1,practice,null,1,NA,NA,NA,sub50
d3-animate-choice,107,526838,0.0-61.0-1.15,TRUE,FALSE,FALSE,TRUE,"""event"",""trial"",""time""
""fullscreenenter"",""6"",""41452""
","
","
","""event"",""trial"",""time""
""fullscreenenter"",""6"",""41452""
","
",485.0000000001164,NA,48,NA,NA,3000,1,NA,NA,images/tutyellowplanet.jpg,images/tutalien4,images/tutalien3,images/tutrocket2,images/tutalien4,images/t.png,2,practice,false,2,rare,1,2020-06-10T01:42:36Z,sub50
two-step-fixation,108,527840,0.0-61.0-2.15,TRUE,FALSE,FALSE,TRUE,"""event"",""trial"",""time""
""fullscreenenter"",""6"",""41452""
","
","
","""event"",""trial"",""time""
""fullscreenenter"",""6"",""41452""
","
",NA,images/earth.jpg,NA,NA,NA,NA,NA,NA,NA,NA,NA,NA,NA,NA,NA,fixation,NA,NA,NA,NA,NA,NA,sub50
d3-animate-choice,109,530270,0.0-61.0-0.16,TRUE,FALSE,FALSE,TRUE,"""event"",""trial"",""time""
""fullscreenenter"",""6"",""41452""
","
","
","""event"",""trial"",""time""
""fullscreenenter"",""6"",""41452""
","
",427,NA,49,NA,NA,3000,1,NA,NA,images/earth.jpg,images/tutrocket1,images/tutrocket2,null,images/tutrocket2,NA,1,practice,null,1,NA,NA,NA,sub50
d3-animate-choice,110,532756,0.0-61.0-1.16,TRUE,FALSE,FALSE,TRUE,"""event"",""trial"",""time""
""fullscreenenter"",""6"",""41452""
","
","
","""event"",""trial"",""time""
""fullscreenenter"",""6"",""41452""
","
",483.9999999998836,NA,49,NA,NA,3000,1,NA,NA,images/tutgreenplanet.jpg,images/tutalien2,images/tutalien1,images/tutrocket2,images/tutalien1,images/nothing.png,2,practice,true,1,common,0,2020-06-10T01:42:42Z,sub50
two-step-fixation,111,533758,0.0-61.0-2.16,TRUE,FALSE,FALSE,TRUE,"""event"",""trial"",""time""
""fullscreenenter"",""6"",""41452""
","
","
","""event"",""trial"",""time""
""fullscreenenter"",""6"",""41452""
","
",NA,images/earth.jpg,NA,NA,NA,NA,NA,NA,NA,NA,NA,NA,NA,NA,NA,fixation,NA,NA,NA,NA,NA,NA,sub50
d3-animate-choice,112,536041,0.0-61.0-0.17,TRUE,FALSE,FALSE,TRUE,"""event"",""trial"",""time""
""fullscreenenter"",""6"",""41452""
","
","
","""event"",""trial"",""time""
""fullscreenenter"",""6"",""41452""
","
",280.0000000001164,NA,49,NA,NA,3000,1,NA,NA,images/earth.jpg,images/tutrocket1,images/tutrocket2,null,images/tutrocket2,NA,1,practice,null,1,NA,NA,NA,sub50
d3-animate-choice,113,538674,0.0-61.0-1.17,TRUE,FALSE,FALSE,TRUE,"""event"",""trial"",""time""
""fullscreenenter"",""6"",""41452""
","
","
","""event"",""trial"",""time""
""fullscreenenter"",""6"",""41452""
","
",630,NA,49,NA,NA,3000,1,NA,NA,images/tutgreenplanet.jpg,images/tutalien2,images/tutalien1,images/tutrocket2,images/tutalien1,images/nothing.png,2,practice,true,1,common,0,2020-06-10T01:42:48Z,sub50
two-step-fixation,114,539676,0.0-61.0-2.17,TRUE,FALSE,FALSE,TRUE,"""event"",""trial"",""time""
""fullscreenenter"",""6"",""41452""
","
","
","""event"",""trial"",""time""
""fullscreenenter"",""6"",""41452""
","
",NA,images/earth.jpg,NA,NA,NA,NA,NA,NA,NA,NA,NA,NA,NA,NA,NA,fixation,NA,NA,NA,NA,NA,NA,sub50
d3-animate-choice,115,542059,0.0-61.0-0.18,TRUE,FALSE,FALSE,TRUE,"""event"",""trial"",""time""
""fullscreenenter"",""6"",""41452""
","
","
","""event"",""trial"",""time""
""fullscreenenter"",""6"",""41452""
","
",382,NA,49,NA,NA,3000,1,NA,NA,images/earth.jpg,images/tutrocket1,images/tutrocket2,null,images/tutrocket2,NA,1,practice,null,1,NA,NA,NA,sub50
d3-animate-choice,116,544704,0.0-61.0-1.18,TRUE,FALSE,FALSE,TRUE,"""event"",""trial"",""time""
""fullscreenenter"",""6"",""41452""
","
","
","""event"",""trial"",""time""
""fullscreenenter"",""6"",""41452""
","
",642,NA,48,NA,NA,3000,1,NA,NA,images/tutgreenplanet.jpg,images/tutalien2,images/tutalien1,images/tutrocket2,images/tutalien2,images/t.png,2,practice,true,2,common,1,2020-06-10T01:42:54Z,sub50
two-step-fixation,117,545705,0.0-61.0-2.18,TRUE,FALSE,FALSE,TRUE,"""event"",""trial"",""time""
""fullscreenenter"",""6"",""41452""
","
","
","""event"",""trial"",""time""
""fullscreenenter"",""6"",""41452""
","
",NA,images/earth.jpg,NA,NA,NA,NA,NA,NA,NA,NA,NA,NA,NA,NA,NA,fixation,NA,NA,NA,NA,NA,NA,sub50
d3-animate-choice,118,548023,0.0-61.0-0.19,TRUE,FALSE,FALSE,TRUE,"""event"",""trial"",""time""
""fullscreenenter"",""6"",""41452""
","
","
","""event"",""trial"",""time""
""fullscreenenter"",""6"",""41452""
","
",315,NA,49,NA,NA,3000,1,NA,NA,images/earth.jpg,images/tutrocket1,images/tutrocket2,null,images/tutrocket2,NA,1,practice,null,1,NA,NA,NA,sub50
d3-animate-choice,119,550543,0.0-61.0-1.19,TRUE,FALSE,FALSE,TRUE,"""event"",""trial"",""time""
""fullscreenenter"",""6"",""41452""
","
","
","""event"",""trial"",""time""
""fullscreenenter"",""6"",""41452""
","
",517,NA,48,NA,NA,3000,1,NA,NA,images/tutgreenplanet.jpg,images/tutalien2,images/tutalien1,images/tutrocket2,images/tutalien2,images/nothing.png,2,practice,true,2,common,0,2020-06-10T01:43:00Z,sub50
two-step-fixation,120,551545,0.0-61.0-2.19,TRUE,FALSE,FALSE,TRUE,"""event"",""trial"",""time""
""fullscreenenter"",""6"",""41452""
","
","
","""event"",""trial"",""time""
""fullscreenenter"",""6"",""41452""
","
",NA,images/earth.jpg,NA,NA,NA,NA,NA,NA,NA,NA,NA,NA,NA,NA,NA,fixation,NA,NA,NA,NA,NA,NA,sub50
d3-instructions,121,558891,0.0-62.0,TRUE,FALSE,FALSE,TRUE,"""event"",""trial"",""time""
""fullscreenenter"",""6"",""41452""
","
","
","""event"",""trial"",""time""
""fullscreenenter"",""6"",""41452""
","
",NA,NA,NA,NA,NA,NA,NA,NA,NA,NA,NA,NA,NA,NA,NA,NA,NA,NA,NA,NA,NA,NA,sub50
audio-keyboard-response,122,563684,0.0-63.0,TRUE,FALSE,FALSE,TRUE,"""event"",""trial"",""time""
""fullscreenenter"",""6"",""41452""
","
","
","""event"",""trial"",""time""
""fullscreenenter"",""6"",""41452""
","
",4792,audio/instructions/treasure_feedback.wav,32,NA,NA,NA,NA,NA,NA,NA,NA,NA,NA,NA,NA,NA,NA,NA,NA,NA,NA,NA,sub50
d3-instructions,123,573359,0.0-64.0,TRUE,FALSE,FALSE,TRUE,"""event"",""trial"",""time""
""fullscreenenter"",""6"",""41452""
","
","
","""event"",""trial"",""time""
""fullscreenenter"",""6"",""41452""
","
",NA,NA,NA,NA,NA,NA,NA,NA,NA,NA,NA,NA,NA,NA,NA,NA,NA,NA,NA,NA,NA,NA,sub50
d3-instructions,124,586567,0.0-65.0,TRUE,FALSE,FALSE,TRUE,"""event"",""trial"",""time""
""fullscreenenter"",""6"",""41452""
","
","
","""event"",""trial"",""time""
""fullscreenenter"",""6"",""41452""
","
",NA,NA,NA,NA,NA,NA,NA,NA,NA,NA,NA,NA,NA,NA,NA,NA,NA,NA,NA,NA,NA,NA,sub50
d3-instructions,125,610484,0.0-66.0,TRUE,FALSE,FALSE,TRUE,"""event"",""trial"",""time""
""fullscreenenter"",""6"",""41452""
","
","
","""event"",""trial"",""time""
""fullscreenenter"",""6"",""41452""
","
",NA,NA,NA,NA,NA,NA,NA,NA,NA,NA,NA,NA,NA,NA,NA,NA,NA,NA,NA,NA,NA,NA,sub50
d3-instructions,126,620924,0.0-67.0,TRUE,FALSE,FALSE,TRUE,"""event"",""trial"",""time""
""fullscreenenter"",""6"",""41452""
","
","
","""event"",""trial"",""time""
""fullscreenenter"",""6"",""41452""
","
",NA,NA,NA,NA,NA,NA,NA,NA,NA,NA,NA,NA,NA,NA,NA,NA,NA,NA,NA,NA,NA,NA,sub50
d3-instructions,127,624457,0.0-68.0,TRUE,FALSE,FALSE,TRUE,"""event"",""trial"",""time""
""fullscreenenter"",""6"",""41452""
","
","
","""event"",""trial"",""time""
""fullscreenenter"",""6"",""41452""
","
",NA,NA,NA,NA,NA,NA,NA,NA,NA,NA,NA,NA,NA,NA,NA,NA,NA,NA,NA,NA,NA,NA,sub50
instructions-quiz,128,636777,0.0-69.0,TRUE,FALSE,FALSE,TRUE,"""event"",""trial"",""time""
""fullscreenenter"",""6"",""41452""
","
","
","""event"",""trial"",""time""
""fullscreenenter"",""6"",""41452""
","
",12319,audio/quiz/Q1_Prompt.wav,NA,1,NA,NA,NA,NA,NA,NA,NA,NA,NA,NA,NA,NA,NA,NA,NA,NA,NA,NA,sub50
audio-keyboard-response,129,645946,0.0-70.0,TRUE,FALSE,FALSE,TRUE,"""event"",""trial"",""time""
""fullscreenenter"",""6"",""41452""
","
","
","""event"",""trial"",""time""
""fullscreenenter"",""6"",""41452""
","
",null,audio/quiz/Q1_Correct.wav,null,NA,NA,NA,NA,NA,NA,NA,NA,NA,NA,NA,NA,NA,NA,NA,NA,NA,NA,NA,sub50
instructions-quiz,130,650187,0.0-71.0,TRUE,FALSE,FALSE,TRUE,"""event"",""trial"",""time""
""fullscreenenter"",""6"",""41452""
","
","
","""event"",""trial"",""time""
""fullscreenenter"",""6"",""41452""
","
",4240,audio/quiz/Q2_Prompt.wav,NA,0,NA,NA,NA,NA,NA,NA,NA,NA,NA,NA,NA,NA,NA,NA,NA,NA,NA,NA,sub50
audio-keyboard-response,131,652211,0.0-72.0,TRUE,FALSE,FALSE,TRUE,"""event"",""trial"",""time""
""fullscreenenter"",""6"",""41452""
","
","
","""event"",""trial"",""time""
""fullscreenenter"",""6"",""41452""
","
",2023,audio/quiz/Q2_Correct.wav,87,NA,NA,NA,NA,NA,NA,NA,NA,NA,NA,NA,NA,NA,NA,NA,NA,NA,NA,NA,sub50
instructions-quiz,132,655047,0.0-73.0,TRUE,FALSE,FALSE,TRUE,"""event"",""trial"",""time""
""fullscreenenter"",""6"",""41452""
","
","
","""event"",""trial"",""time""
""fullscreenenter"",""6"",""41452""
","
",2835,audio/quiz/Q3_Prompt.wav,NA,1,NA,NA,NA,NA,NA,NA,NA,NA,NA,NA,NA,NA,NA,NA,NA,NA,NA,NA,sub50
audio-keyboard-response,133,655844,0.0-74.0,TRUE,FALSE,FALSE,TRUE,"""event"",""trial"",""time""
""fullscreenenter"",""6"",""41452""
","
","
","""event"",""trial"",""time""
""fullscreenenter"",""6"",""41452""
","
",798,audio/quiz/Q3_Correct.wav,32,NA,NA,NA,NA,NA,NA,NA,NA,NA,NA,NA,NA,NA,NA,NA,NA,NA,NA,NA,sub50
d3-instructions,134,663889,0.0-75.0,TRUE,FALSE,FALSE,TRUE,"""event"",""trial"",""time""
""fullscreenenter"",""6"",""41452""
","
","
","""event"",""trial"",""time""
""fullscreenenter"",""6"",""41452""
","
",NA,NA,NA,NA,NA,NA,NA,NA,NA,NA,NA,NA,NA,NA,NA,NA,NA,NA,NA,NA,NA,NA,sub50
d3-animate-choice,135,667891,0.0-76.0-0.0,TRUE,FALSE,FALSE,TRUE,"""event"",""trial"",""time""
""fullscreenenter"",""6"",""41452""
","
","
","""event"",""trial"",""time""
""fullscreenenter"",""6"",""41452""
","
",2136,NA,49,NA,NA,3000,1,NA,NA,images/earth.jpg,images/rocket2,images/rocket1,null,images/rocket1,NA,1,real,null,1,NA,NA,NA,sub50
d3-animate-choice,136,670727,0.0-76.0-1.0,TRUE,FALSE,FALSE,TRUE,"""event"",""trial"",""time""
""fullscreenenter"",""6"",""41452""
","
","
","""event"",""trial"",""time""
""fullscreenenter"",""6"",""41452""
","
",832.9999999998836,NA,49,NA,NA,3000,1,NA,NA,images/purpleplanet.jpg,images/alien4,images/alien3,images/rocket1,images/alien3,images/nothing.png,2,real,true,1,common,0,2020-06-10T01:45:00Z,sub50
two-step-fixation,137,671728,0.0-76.0-2.0,TRUE,FALSE,FALSE,TRUE,"""event"",""trial"",""time""
""fullscreenenter"",""6"",""41452""
","
","
","""event"",""trial"",""time""
""fullscreenenter"",""6"",""41452""
","
",NA,images/earth.jpg,NA,NA,NA,NA,NA,NA,NA,NA,NA,NA,NA,NA,NA,fixation,NA,NA,NA,NA,NA,NA,sub50
d3-animate-choice,138,674125,0.0-76.0-0.1,TRUE,FALSE,FALSE,TRUE,"""event"",""trial"",""time""
""fullscreenenter"",""6"",""41452""
","
","
","""event"",""trial"",""time""
""fullscreenenter"",""6"",""41452""
","
",394,NA,49,NA,NA,3000,1,NA,NA,images/earth.jpg,images/rocket2,images/rocket1,null,images/rocket1,NA,1,real,null,1,NA,NA,NA,sub50
d3-animate-choice,139,676813,0.0-76.0-1.1,TRUE,FALSE,FALSE,TRUE,"""event"",""trial"",""time""
""fullscreenenter"",""6"",""41452""
","
","
","""event"",""trial"",""time""
""fullscreenenter"",""6"",""41452""
","
",685,NA,49,NA,NA,3000,1,NA,NA,images/purpleplanet.jpg,images/alien4,images/alien3,images/rocket1,images/alien3,images/nothing.png,2,real,true,1,common,0,2020-06-10T01:45:06Z,sub50
two-step-fixation,140,677815,0.0-76.0-2.1,TRUE,FALSE,FALSE,TRUE,"""event"",""trial"",""time""
""fullscreenenter"",""6"",""41452""
","
","
","""event"",""trial"",""time""
""fullscreenenter"",""6"",""41452""
","
",NA,images/earth.jpg,NA,NA,NA,NA,NA,NA,NA,NA,NA,NA,NA,NA,NA,fixation,NA,NA,NA,NA,NA,NA,sub50
d3-animate-choice,141,679818,0.0-76.0-0.2,TRUE,FALSE,FALSE,TRUE,"""event"",""trial"",""time""
""fullscreenenter"",""6"",""41452""
","
","
","""event"",""trial"",""time""
""fullscreenenter"",""6"",""41452""
","
",1,NA,49,NA,NA,3000,1,NA,NA,images/earth.jpg,images/rocket2,images/rocket1,null,images/rocket1,NA,1,real,null,1,NA,NA,NA,sub50
d3-animate-choice,142,683068,0.0-76.0-1.2,TRUE,FALSE,FALSE,TRUE,"""event"",""trial"",""time""
""fullscreenenter"",""6"",""41452""
","
","
","""event"",""trial"",""time""
""fullscreenenter"",""6"",""41452""
","
",1248,NA,48,NA,NA,3000,1,NA,NA,images/redplanet1.jpg,images/alien2,images/alien1,images/rocket1,images/alien2,images/t.png,2,real,false,2,rare,1,2020-06-10T01:45:12Z,sub50
two-step-fixation,143,684070,0.0-76.0-2.2,TRUE,FALSE,FALSE,TRUE,"""event"",""trial"",""time""
""fullscreenenter"",""6"",""41452""
","
","
","""event"",""trial"",""time""
""fullscreenenter"",""6"",""41452""
","
",NA,images/earth.jpg,NA,NA,NA,NA,NA,NA,NA,NA,NA,NA,NA,NA,NA,fixation,NA,NA,NA,NA,NA,NA,sub50
d3-animate-choice,144,686466,0.0-76.0-0.3,TRUE,FALSE,FALSE,TRUE,"""event"",""trial"",""time""
""fullscreenenter"",""6"",""41452""
","
","
","""event"",""trial"",""time""
""fullscreenenter"",""6"",""41452""
","
",393.0000000001164,NA,48,NA,NA,3000,1,NA,NA,images/earth.jpg,images/rocket2,images/rocket1,null,images/rocket2,NA,1,real,null,2,NA,NA,NA,sub50
d3-animate-choice,145,689616,0.0-76.0-1.3,TRUE,FALSE,FALSE,TRUE,"""event"",""trial"",""time""
""fullscreenenter"",""6"",""41452""
","
","
","""event"",""trial"",""time""
""fullscreenenter"",""6"",""41452""
","
",1147,NA,48,NA,NA,3000,1,NA,NA,images/purpleplanet.jpg,images/alien4,images/alien3,images/rocket2,images/alien4,images/nothing.png,2,real,false,2,rare,0,2020-06-10T01:45:19Z,sub50
two-step-fixation,146,690618,0.0-76.0-2.3,TRUE,FALSE,FALSE,TRUE,"""event"",""trial"",""time""
""fullscreenenter"",""6"",""41452""
","
","
","""event"",""trial"",""time""
""fullscreenenter"",""6"",""41452""
","
",NA,images/earth.jpg,NA,NA,NA,NA,NA,NA,NA,NA,NA,NA,NA,NA,NA,fixation,NA,NA,NA,NA,NA,NA,sub50
d3-animate-choice,147,692935,0.0-76.0-0.4,TRUE,FALSE,FALSE,TRUE,"""event"",""trial"",""time""
""fullscreenenter"",""6"",""41452""
","
","
","""event"",""trial"",""time""
""fullscreenenter"",""6"",""41452""
","
",314,NA,48,NA,NA,3000,1,NA,NA,images/earth.jpg,images/rocket2,images/rocket1,null,images/rocket2,NA,1,real,null,2,NA,NA,NA,sub50
d3-animate-choice,148,695410,0.0-76.0-1.4,TRUE,FALSE,FALSE,TRUE,"""event"",""trial"",""time""
""fullscreenenter"",""6"",""41452""
","
","
","""event"",""trial"",""time""
""fullscreenenter"",""6"",""41452""
","
",472,NA,48,NA,NA,3000,1,NA,NA,images/redplanet1.jpg,images/alien2,images/alien1,images/rocket2,images/alien2,images/t.png,2,real,true,2,common,1,2020-06-10T01:45:24Z,sub50
two-step-fixation,149,696411,0.0-76.0-2.4,TRUE,FALSE,FALSE,TRUE,"""event"",""trial"",""time""
""fullscreenenter"",""6"",""41452""
","
","
","""event"",""trial"",""time""
""fullscreenenter"",""6"",""41452""
","
",NA,images/earth.jpg,NA,NA,NA,NA,NA,NA,NA,NA,NA,NA,NA,NA,NA,fixation,NA,NA,NA,NA,NA,NA,sub50
d3-animate-choice,150,698728,0.0-76.0-0.5,TRUE,FALSE,FALSE,TRUE,"""event"",""trial"",""time""
""fullscreenenter"",""6"",""41452""
","
","
","""event"",""trial"",""time""
""fullscreenenter"",""6"",""41452""
","
",315,NA,48,NA,NA,3000,1,NA,NA,images/earth.jpg,images/rocket2,images/rocket1,null,images/rocket2,NA,1,real,null,2,NA,NA,NA,sub50
d3-animate-choice,151,701136,0.0-76.0-1.5,TRUE,FALSE,FALSE,TRUE,"""event"",""trial"",""time""
""fullscreenenter"",""6"",""41452""
","
","
","""event"",""trial"",""time""
""fullscreenenter"",""6"",""41452""
","
",406,NA,48,NA,NA,3000,1,NA,NA,images/redplanet1.jpg,images/alien2,images/alien1,images/rocket2,images/alien2,images/t.png,2,real,true,2,common,1,2020-06-10T01:45:30Z,sub50
two-step-fixation,152,702137,0.0-76.0-2.5,TRUE,FALSE,FALSE,TRUE,"""event"",""trial"",""time""
""fullscreenenter"",""6"",""41452""
","
","
","""event"",""trial"",""time""
""fullscreenenter"",""6"",""41452""
","
",NA,images/earth.jpg,NA,NA,NA,NA,NA,NA,NA,NA,NA,NA,NA,NA,NA,fixation,NA,NA,NA,NA,NA,NA,sub50
d3-animate-choice,153,704488,0.0-76.0-0.6,TRUE,FALSE,FALSE,TRUE,"""event"",""trial"",""time""
""fullscreenenter"",""6"",""41452""
","
","
","""event"",""trial"",""time""
""fullscreenenter"",""6"",""41452""
","
",348,NA,48,NA,NA,3000,1,NA,NA,images/earth.jpg,images/rocket2,images/rocket1,null,images/rocket2,NA,1,real,null,2,NA,NA,NA,sub50
d3-animate-choice,154,706874,0.0-76.0-1.6,TRUE,FALSE,FALSE,TRUE,"""event"",""trial"",""time""
""fullscreenenter"",""6"",""41452""
","
","
","""event"",""trial"",""time""
""fullscreenenter"",""6"",""41452""
","
",382,NA,48,NA,NA,3000,1,NA,NA,images/purpleplanet.jpg,images/alien4,images/alien3,images/rocket2,images/alien4,images/t.png,2,real,false,2,rare,1,2020-06-10T01:45:36Z,sub50
two-step-fixation,155,707875,0.0-76.0-2.6,TRUE,FALSE,FALSE,TRUE,"""event"",""trial"",""time""
""fullscreenenter"",""6"",""41452""
","
","
","""event"",""trial"",""time""
""fullscreenenter"",""6"",""41452""
","
",NA,images/earth.jpg,NA,NA,NA,NA,NA,NA,NA,NA,NA,NA,NA,NA,NA,fixation,NA,NA,NA,NA,NA,NA,sub50
d3-animate-choice,156,710203,0.0-76.0-0.7,TRUE,FALSE,FALSE,TRUE,"""event"",""trial"",""time""
""fullscreenenter"",""6"",""41452""
","
","
","""event"",""trial"",""time""
""fullscreenenter"",""6"",""41452""
","
",326,NA,48,NA,NA,3000,1,NA,NA,images/earth.jpg,images/rocket2,images/rocket1,null,images/rocket2,NA,1,real,null,2,NA,NA,NA,sub50
d3-animate-choice,157,712656,0.0-76.0-1.7,TRUE,FALSE,FALSE,TRUE,"""event"",""trial"",""time""
""fullscreenenter"",""6"",""41452""
","
","
","""event"",""trial"",""time""
""fullscreenenter"",""6"",""41452""
","
",450,NA,48,NA,NA,3000,1,NA,NA,images/redplanet1.jpg,images/alien2,images/alien1,images/rocket2,images/alien2,images/t.png,2,real,true,2,common,1,2020-06-10T01:45:42Z,sub50
two-step-fixation,158,713657,0.0-76.0-2.7,TRUE,FALSE,FALSE,TRUE,"""event"",""trial"",""time""
""fullscreenenter"",""6"",""41452""
","
","
","""event"",""trial"",""time""
""fullscreenenter"",""6"",""41452""
","
",NA,images/earth.jpg,NA,NA,NA,NA,NA,NA,NA,NA,NA,NA,NA,NA,NA,fixation,NA,NA,NA,NA,NA,NA,sub50
d3-animate-choice,159,715953,0.0-76.0-0.8,TRUE,FALSE,FALSE,TRUE,"""event"",""trial"",""time""
""fullscreenenter"",""6"",""41452""
","
","
","""event"",""trial"",""time""
""fullscreenenter"",""6"",""41452""
","
",292,NA,48,NA,NA,3000,1,NA,NA,images/earth.jpg,images/rocket2,images/rocket1,null,images/rocket2,NA,1,real,null,2,NA,NA,NA,sub50
d3-animate-choice,160,719372,0.0-76.0-1.8,TRUE,FALSE,FALSE,TRUE,"""event"",""trial"",""time""
""fullscreenenter"",""6"",""41452""
","
","
","""event"",""trial"",""time""
""fullscreenenter"",""6"",""41452""
","
",1416.9999999998836,NA,49,NA,NA,3000,1,NA,NA,images/purpleplanet.jpg,images/alien4,images/alien3,images/rocket2,images/alien3,images/nothing.png,2,real,false,1,rare,0,2020-06-10T01:45:48Z,sub50
two-step-fixation,161,720373,0.0-76.0-2.8,TRUE,FALSE,FALSE,TRUE,"""event"",""trial"",""time""
""fullscreenenter"",""6"",""41452""
","
","
","""event"",""trial"",""time""
""fullscreenenter"",""6"",""41452""
","
",NA,images/earth.jpg,NA,NA,NA,NA,NA,NA,NA,NA,NA,NA,NA,NA,NA,fixation,NA,NA,NA,NA,NA,NA,sub50
d3-animate-choice,162,723074,0.0-76.0-0.9,TRUE,FALSE,FALSE,TRUE,"""event"",""trial"",""time""
""fullscreenenter"",""6"",""41452""
","
","
","""event"",""trial"",""time""
""fullscreenenter"",""6"",""41452""
","
",698,NA,48,NA,NA,3000,1,NA,NA,images/earth.jpg,images/rocket2,images/rocket1,null,images/rocket2,NA,1,real,null,2,NA,NA,NA,sub50
d3-animate-choice,163,725526,0.0-76.0-1.9,TRUE,FALSE,FALSE,TRUE,"""event"",""trial"",""time""
""fullscreenenter"",""6"",""41452""
","
","
","""event"",""trial"",""time""
""fullscreenenter"",""6"",""41452""
","
",450,NA,48,NA,NA,3000,1,NA,NA,images/redplanet1.jpg,images/alien2,images/alien1,images/rocket2,images/alien2,images/nothing.png,2,real,true,2,common,0,2020-06-10T01:45:55Z,sub50
two-step-fixation,164,726529,0.0-76.0-2.9,TRUE,FALSE,FALSE,TRUE,"""event"",""trial"",""time""
""fullscreenenter"",""6"",""41452""
","
","
","""event"",""trial"",""time""
""fullscreenenter"",""6"",""41452""
","
",NA,images/earth.jpg,NA,NA,NA,NA,NA,NA,NA,NA,NA,NA,NA,NA,NA,fixation,NA,NA,NA,NA,NA,NA,sub50
d3-animate-choice,165,729059,0.0-76.0-0.10,TRUE,FALSE,FALSE,TRUE,"""event"",""trial"",""time""
""fullscreenenter"",""6"",""41452""
","
","
","""event"",""trial"",""time""
""fullscreenenter"",""6"",""41452""
","
",528,NA,48,NA,NA,3000,1,NA,NA,images/earth.jpg,images/rocket2,images/rocket1,null,images/rocket2,NA,1,real,null,2,NA,NA,NA,sub50
d3-animate-choice,166,731522,0.0-76.0-1.10,TRUE,FALSE,FALSE,TRUE,"""event"",""trial"",""time""
""fullscreenenter"",""6"",""41452""
","
","
","""event"",""trial"",""time""
""fullscreenenter"",""6"",""41452""
","
",461,NA,48,NA,NA,3000,1,NA,NA,images/redplanet1.jpg,images/alien2,images/alien1,images/rocket2,images/alien2,images/t.png,2,real,true,2,common,1,2020-06-10T01:46:01Z,sub50
two-step-fixation,167,732523,0.0-76.0-2.10,TRUE,FALSE,FALSE,TRUE,"""event"",""trial"",""time""
""fullscreenenter"",""6"",""41452""
","
","
","""event"",""trial"",""time""
""fullscreenenter"",""6"",""41452""
","
",NA,images/earth.jpg,NA,NA,NA,NA,NA,NA,NA,NA,NA,NA,NA,NA,NA,fixation,NA,NA,NA,NA,NA,NA,sub50
d3-animate-choice,168,734886,0.0-76.0-0.11,TRUE,FALSE,FALSE,TRUE,"""event"",""trial"",""time""
""fullscreenenter"",""6"",""41452""
","
","
","""event"",""trial"",""time""
""fullscreenenter"",""6"",""41452""
","
",361,NA,48,NA,NA,3000,1,NA,NA,images/earth.jpg,images/rocket2,images/rocket1,null,images/rocket2,NA,1,real,null,2,NA,NA,NA,sub50
d3-animate-choice,169,737305,0.0-76.0-1.11,TRUE,FALSE,FALSE,TRUE,"""event"",""trial"",""time""
""fullscreenenter"",""6"",""41452""
","
","
","""event"",""trial"",""time""
""fullscreenenter"",""6"",""41452""
","
",418,NA,48,NA,NA,3000,1,NA,NA,images/redplanet1.jpg,images/alien2,images/alien1,images/rocket2,images/alien2,images/t.png,2,real,true,2,common,1,2020-06-10T01:46:06Z,sub50
two-step-fixation,170,738307,0.0-76.0-2.11,TRUE,FALSE,FALSE,TRUE,"""event"",""trial"",""time""
""fullscreenenter"",""6"",""41452""
","
","
","""event"",""trial"",""time""
""fullscreenenter"",""6"",""41452""
","
",NA,images/earth.jpg,NA,NA,NA,NA,NA,NA,NA,NA,NA,NA,NA,NA,NA,fixation,NA,NA,NA,NA,NA,NA,sub50
d3-animate-choice,171,740635,0.0-76.0-0.12,TRUE,FALSE,FALSE,TRUE,"""event"",""trial"",""time""
""fullscreenenter"",""6"",""41452""
","
","
","""event"",""trial"",""time""
""fullscreenenter"",""6"",""41452""
","
",325,NA,48,NA,NA,3000,1,NA,NA,images/earth.jpg,images/rocket2,images/rocket1,null,images/rocket2,NA,1,real,null,2,NA,NA,NA,sub50
d3-animate-choice,172,743763,0.0-76.0-1.12,TRUE,FALSE,FALSE,TRUE,"""event"",""trial"",""time""
""fullscreenenter"",""6"",""41452""
","
","
","""event"",""trial"",""time""
""fullscreenenter"",""6"",""41452""
","
",1125,NA,48,NA,NA,3000,1,NA,NA,images/purpleplanet.jpg,images/alien4,images/alien3,images/rocket2,images/alien4,images/nothing.png,2,real,false,2,rare,0,2020-06-10T01:46:13Z,sub50
two-step-fixation,173,744764,0.0-76.0-2.12,TRUE,FALSE,FALSE,TRUE,"""event"",""trial"",""time""
""fullscreenenter"",""6"",""41452""
","
","
","""event"",""trial"",""time""
""fullscreenenter"",""6"",""41452""
","
",NA,images/earth.jpg,NA,NA,NA,NA,NA,NA,NA,NA,NA,NA,NA,NA,NA,fixation,NA,NA,NA,NA,NA,NA,sub50
d3-animate-choice,174,747081,0.0-76.0-0.13,TRUE,FALSE,FALSE,TRUE,"""event"",""trial"",""time""
""fullscreenenter"",""6"",""41452""
","
","
","""event"",""trial"",""time""
""fullscreenenter"",""6"",""41452""
","
",313.9999999998836,NA,48,NA,NA,3000,1,NA,NA,images/earth.jpg,images/rocket2,images/rocket1,null,images/rocket2,NA,1,real,null,2,NA,NA,NA,sub50
d3-animate-choice,175,749466,0.0-76.0-1.13,TRUE,FALSE,FALSE,TRUE,"""event"",""trial"",""time""
""fullscreenenter"",""6"",""41452""
","
","
","""event"",""trial"",""time""
""fullscreenenter"",""6"",""41452""
","
",381.9999999998836,NA,49,NA,NA,3000,1,NA,NA,images/redplanet1.jpg,images/alien2,images/alien1,images/rocket2,images/alien1,images/t.png,2,real,true,1,common,1,2020-06-10T01:46:19Z,sub50
two-step-fixation,176,750469,0.0-76.0-2.13,TRUE,FALSE,FALSE,TRUE,"""event"",""trial"",""time""
""fullscreenenter"",""6"",""41452""
","
","
","""event"",""trial"",""time""
""fullscreenenter"",""6"",""41452""
","
",NA,images/earth.jpg,NA,NA,NA,NA,NA,NA,NA,NA,NA,NA,NA,NA,NA,fixation,NA,NA,NA,NA,NA,NA,sub50
d3-animate-choice,177,752797,0.0-76.0-0.14,TRUE,FALSE,FALSE,TRUE,"""event"",""trial"",""time""
""fullscreenenter"",""6"",""41452""
","
","
","""event"",""trial"",""time""
""fullscreenenter"",""6"",""41452""
","
",325,NA,48,NA,NA,3000,1,NA,NA,images/earth.jpg,images/rocket2,images/rocket1,null,images/rocket2,NA,1,real,null,2,NA,NA,NA,sub50
d3-animate-choice,178,755159,0.0-76.0-1.14,TRUE,FALSE,FALSE,TRUE,"""event"",""trial"",""time""
""fullscreenenter"",""6"",""41452""
","
","
","""event"",""trial"",""time""
""fullscreenenter"",""6"",""41452""
","
",359,NA,49,NA,NA,3000,1,NA,NA,images/purpleplanet.jpg,images/alien4,images/alien3,images/rocket2,images/alien3,images/nothing.png,2,real,false,1,rare,0,2020-06-10T01:46:24Z,sub50
two-step-fixation,179,756160,0.0-76.0-2.14,TRUE,FALSE,FALSE,TRUE,"""event"",""trial"",""time""
""fullscreenenter"",""6"",""41452""
","
","
","""event"",""trial"",""time""
""fullscreenenter"",""6"",""41452""
","
",NA,images/earth.jpg,NA,NA,NA,NA,NA,NA,NA,NA,NA,NA,NA,NA,NA,fixation,NA,NA,NA,NA,NA,NA,sub50
d3-animate-choice,180,758500,0.0-76.0-0.15,TRUE,FALSE,FALSE,TRUE,"""event"",""trial"",""time""
""fullscreenenter"",""6"",""41452""
","
","
","""event"",""trial"",""time""
""fullscreenenter"",""6"",""41452""
","
",337,NA,48,NA,NA,3000,1,NA,NA,images/earth.jpg,images/rocket2,images/rocket1,null,images/rocket2,NA,1,real,null,2,NA,NA,NA,sub50
d3-animate-choice,181,761324,0.0-76.0-1.15,TRUE,FALSE,FALSE,TRUE,"""event"",""trial"",""time""
""fullscreenenter"",""6"",""41452""
","
","
","""event"",""trial"",""time""
""fullscreenenter"",""6"",""41452""
","
",822,NA,48,NA,NA,3000,1,NA,NA,images/purpleplanet.jpg,images/alien4,images/alien3,images/rocket2,images/alien4,images/t.png,2,real,false,2,rare,1,2020-06-10T01:46:30Z,sub50
two-step-fixation,182,762325,0.0-76.0-2.15,TRUE,FALSE,FALSE,TRUE,"""event"",""trial"",""time""
""fullscreenenter"",""6"",""41452""
","
","
","""event"",""trial"",""time""
""fullscreenenter"",""6"",""41452""
","
",NA,images/earth.jpg,NA,NA,NA,NA,NA,NA,NA,NA,NA,NA,NA,NA,NA,fixation,NA,NA,NA,NA,NA,NA,sub50
d3-animate-choice,183,764676,0.0-76.0-0.16,TRUE,FALSE,FALSE,TRUE,"""event"",""trial"",""time""
""fullscreenenter"",""6"",""41452""
","
","
","""event"",""trial"",""time""
""fullscreenenter"",""6"",""41452""
","
",349,NA,48,NA,NA,3000,1,NA,NA,images/earth.jpg,images/rocket2,images/rocket1,null,images/rocket2,NA,1,real,null,2,NA,NA,NA,sub50
d3-animate-choice,184,767174,0.0-76.0-1.16,TRUE,FALSE,FALSE,TRUE,"""event"",""trial"",""time""
""fullscreenenter"",""6"",""41452""
","
","
","""event"",""trial"",""time""
""fullscreenenter"",""6"",""41452""
","
",495,NA,49,NA,NA,3000,1,NA,NA,images/redplanet1.jpg,images/alien2,images/alien1,images/rocket2,images/alien1,images/t.png,2,real,true,1,common,1,2020-06-10T01:46:36Z,sub50
two-step-fixation,185,768176,0.0-76.0-2.16,TRUE,FALSE,FALSE,TRUE,"""event"",""trial"",""time""
""fullscreenenter"",""6"",""41452""
","
","
","""event"",""trial"",""time""
""fullscreenenter"",""6"",""41452""
","
",NA,images/earth.jpg,NA,NA,NA,NA,NA,NA,NA,NA,NA,NA,NA,NA,NA,fixation,NA,NA,NA,NA,NA,NA,sub50
d3-animate-choice,186,770571,0.0-76.0-0.17,TRUE,FALSE,FALSE,TRUE,"""event"",""trial"",""time""
""fullscreenenter"",""6"",""41452""
","
","
","""event"",""trial"",""time""
""fullscreenenter"",""6"",""41452""
","
",393,NA,48,NA,NA,3000,1,NA,NA,images/earth.jpg,images/rocket2,images/rocket1,null,images/rocket2,NA,1,real,null,2,NA,NA,NA,sub50
d3-animate-choice,187,773508,0.0-76.0-1.17,TRUE,FALSE,FALSE,TRUE,"""event"",""trial"",""time""
""fullscreenenter"",""6"",""41452""
","
","
","""event"",""trial"",""time""
""fullscreenenter"",""6"",""41452""
","
",934,NA,48,NA,NA,3000,1,NA,NA,images/purpleplanet.jpg,images/alien4,images/alien3,images/rocket2,images/alien4,images/nothing.png,2,real,false,2,rare,0,2020-06-10T01:46:43Z,sub50
two-step-fixation,188,774510,0.0-76.0-2.17,TRUE,FALSE,FALSE,TRUE,"""event"",""trial"",""time""
""fullscreenenter"",""6"",""41452""
","
","
","""event"",""trial"",""time""
""fullscreenenter"",""6"",""41452""
","
",NA,images/earth.jpg,NA,NA,NA,NA,NA,NA,NA,NA,NA,NA,NA,NA,NA,fixation,NA,NA,NA,NA,NA,NA,sub50
d3-animate-choice,189,776793,0.0-76.0-0.18,TRUE,FALSE,FALSE,TRUE,"""event"",""trial"",""time""
""fullscreenenter"",""6"",""41452""
","
","
","""event"",""trial"",""time""
""fullscreenenter"",""6"",""41452""
","
",280.9999999998836,NA,48,NA,NA,3000,1,NA,NA,images/earth.jpg,images/rocket2,images/rocket1,null,images/rocket2,NA,1,real,null,2,NA,NA,NA,sub50
d3-animate-choice,190,779278,0.0-76.0-1.18,TRUE,FALSE,FALSE,TRUE,"""event"",""trial"",""time""
""fullscreenenter"",""6"",""41452""
","
","
","""event"",""trial"",""time""
""fullscreenenter"",""6"",""41452""
","
",483,NA,49,NA,NA,3000,1,NA,NA,images/redplanet1.jpg,images/alien2,images/alien1,images/rocket2,images/alien1,images/t.png,2,real,true,1,common,1,2020-06-10T01:46:48Z,sub50
two-step-fixation,191,780280,0.0-76.0-2.18,TRUE,FALSE,FALSE,TRUE,"""event"",""trial"",""time""
""fullscreenenter"",""6"",""41452""
","
","
","""event"",""trial"",""time""
""fullscreenenter"",""6"",""41452""
","
",NA,images/earth.jpg,NA,NA,NA,NA,NA,NA,NA,NA,NA,NA,NA,NA,NA,fixation,NA,NA,NA,NA,NA,NA,sub50
d3-animate-choice,192,782609,0.0-76.0-0.19,TRUE,FALSE,FALSE,TRUE,"""event"",""trial"",""time""
""fullscreenenter"",""6"",""41452""
","
","
","""event"",""trial"",""time""
""fullscreenenter"",""6"",""41452""
","
",326,NA,48,NA,NA,3000,1,NA,NA,images/earth.jpg,images/rocket2,images/rocket1,null,images/rocket2,NA,1,real,null,2,NA,NA,NA,sub50
d3-animate-choice,193,784961,0.0-76.0-1.19,TRUE,FALSE,FALSE,TRUE,"""event"",""trial"",""time""
""fullscreenenter"",""6"",""41452""
","
","
","""event"",""trial"",""time""
""fullscreenenter"",""6"",""41452""
","
",349,NA,49,NA,NA,3000,1,NA,NA,images/redplanet1.jpg,images/alien2,images/alien1,images/rocket2,images/alien1,images/nothing.png,2,real,true,1,common,0,2020-06-10T01:46:54Z,sub50
two-step-fixation,194,785963,0.0-76.0-2.19,TRUE,FALSE,FALSE,TRUE,"""event"",""trial"",""time""
""fullscreenenter"",""6"",""41452""
","
","
","""event"",""trial"",""time""
""fullscreenenter"",""6"",""41452""
","
",NA,images/earth.jpg,NA,NA,NA,NA,NA,NA,NA,NA,NA,NA,NA,NA,NA,fixation,NA,NA,NA,NA,NA,NA,sub50
d3-animate-choice,195,788302,0.0-76.0-0.20,TRUE,FALSE,FALSE,TRUE,"""event"",""trial"",""time""
""fullscreenenter"",""6"",""41452""
","
","
","""event"",""trial"",""time""
""fullscreenenter"",""6"",""41452""
","
",336,NA,48,NA,NA,3000,1,NA,NA,images/earth.jpg,images/rocket2,images/rocket1,null,images/rocket2,NA,1,real,null,2,NA,NA,NA,sub50
d3-animate-choice,196,790754,0.0-76.0-1.20,TRUE,FALSE,FALSE,TRUE,"""event"",""trial"",""time""
""fullscreenenter"",""6"",""41452""
","
","
","""event"",""trial"",""time""
""fullscreenenter"",""6"",""41452""
","
",449.9999999998836,NA,48,NA,NA,3000,1,NA,NA,images/redplanet1.jpg,images/alien2,images/alien1,images/rocket2,images/alien2,images/t.png,2,real,true,2,common,1,2020-06-10T01:47:00Z,sub50
two-step-fixation,197,791756,0.0-76.0-2.20,TRUE,FALSE,FALSE,TRUE,"""event"",""trial"",""time""
""fullscreenenter"",""6"",""41452""
","
","
","""event"",""trial"",""time""
""fullscreenenter"",""6"",""41452""
","
",NA,images/earth.jpg,NA,NA,NA,NA,NA,NA,NA,NA,NA,NA,NA,NA,NA,fixation,NA,NA,NA,NA,NA,NA,sub50
d3-animate-choice,198,794141,0.0-76.0-0.21,TRUE,FALSE,FALSE,TRUE,"""event"",""trial"",""time""
""fullscreenenter"",""6"",""41452""
","
","
","""event"",""trial"",""time""
""fullscreenenter"",""6"",""41452""
","
",382,NA,48,NA,NA,3000,1,NA,NA,images/earth.jpg,images/rocket2,images/rocket1,null,images/rocket2,NA,1,real,null,2,NA,NA,NA,sub50
d3-animate-choice,199,796930,0.0-76.0-1.21,TRUE,FALSE,FALSE,TRUE,"""event"",""trial"",""time""
""fullscreenenter"",""6"",""41452""
","
","
","""event"",""trial"",""time""
""fullscreenenter"",""6"",""41452""
","
",787,NA,48,NA,NA,3000,1,NA,NA,images/purpleplanet.jpg,images/alien4,images/alien3,images/rocket2,images/alien4,images/t.png,2,real,false,2,rare,1,2020-06-10T01:47:06Z,sub50
two-step-fixation,200,797931,0.0-76.0-2.21,TRUE,FALSE,FALSE,TRUE,"""event"",""trial"",""time""
""fullscreenenter"",""6"",""41452""
","
","
","""event"",""trial"",""time""
""fullscreenenter"",""6"",""41452""
","
",NA,images/earth.jpg,NA,NA,NA,NA,NA,NA,NA,NA,NA,NA,NA,NA,NA,fixation,NA,NA,NA,NA,NA,NA,sub50
d3-animate-choice,201,800002,0.0-76.0-0.22,TRUE,FALSE,FALSE,TRUE,"""event"",""trial"",""time""
""fullscreenenter"",""6"",""41452""
","
","
","""event"",""trial"",""time""
""fullscreenenter"",""6"",""41452""
","
",67,NA,48,NA,NA,3000,1,NA,NA,images/earth.jpg,images/rocket2,images/rocket1,null,images/rocket2,NA,1,real,null,2,NA,NA,NA,sub50
d3-animate-choice,202,802364,0.0-76.0-1.22,TRUE,FALSE,FALSE,TRUE,"""event"",""trial"",""time""
""fullscreenenter"",""6"",""41452""
","
","
","""event"",""trial"",""time""
""fullscreenenter"",""6"",""41452""
","
",360,NA,48,NA,NA,3000,1,NA,NA,images/redplanet1.jpg,images/alien2,images/alien1,images/rocket2,images/alien2,images/t.png,2,real,true,2,common,1,2020-06-10T01:47:11Z,sub50
two-step-fixation,203,803366,0.0-76.0-2.22,TRUE,FALSE,FALSE,TRUE,"""event"",""trial"",""time""
""fullscreenenter"",""6"",""41452""
","
","
","""event"",""trial"",""time""
""fullscreenenter"",""6"",""41452""
","
",NA,images/earth.jpg,NA,NA,NA,NA,NA,NA,NA,NA,NA,NA,NA,NA,NA,fixation,NA,NA,NA,NA,NA,NA,sub50
d3-animate-choice,204,805683,0.0-76.0-0.23,TRUE,FALSE,FALSE,TRUE,"""event"",""trial"",""time""
""fullscreenenter"",""6"",""41452""
","
","
","""event"",""trial"",""time""
""fullscreenenter"",""6"",""41452""
","
",315,NA,48,NA,NA,3000,1,NA,NA,images/earth.jpg,images/rocket2,images/rocket1,null,images/rocket2,NA,1,real,null,2,NA,NA,NA,sub50
d3-animate-choice,205,808023,0.0-76.0-1.23,TRUE,FALSE,FALSE,TRUE,"""event"",""trial"",""time""
""fullscreenenter"",""6"",""41452""
","
","
","""event"",""trial"",""time""
""fullscreenenter"",""6"",""41452""
","
",337,NA,48,NA,NA,3000,1,NA,NA,images/purpleplanet.jpg,images/alien4,images/alien3,images/rocket2,images/alien4,images/t.png,2,real,false,2,rare,1,2020-06-10T01:47:17Z,sub50
two-step-fixation,206,809025,0.0-76.0-2.23,TRUE,FALSE,FALSE,TRUE,"""event"",""trial"",""time""
""fullscreenenter"",""6"",""41452""
","
","
","""event"",""trial"",""time""
""fullscreenenter"",""6"",""41452""
","
",NA,images/earth.jpg,NA,NA,NA,NA,NA,NA,NA,NA,NA,NA,NA,NA,NA,fixation,NA,NA,NA,NA,NA,NA,sub50
d3-animate-choice,207,811387,0.0-76.0-0.24,TRUE,FALSE,FALSE,TRUE,"""event"",""trial"",""time""
""fullscreenenter"",""6"",""41452""
","
","
","""event"",""trial"",""time""
""fullscreenenter"",""6"",""41452""
","
",359,NA,48,NA,NA,3000,1,NA,NA,images/earth.jpg,images/rocket2,images/rocket1,null,images/rocket2,NA,1,real,null,2,NA,NA,NA,sub50
d3-animate-choice,208,813760,0.0-76.0-1.24,TRUE,FALSE,FALSE,TRUE,"""event"",""trial"",""time""
""fullscreenenter"",""6"",""41452""
","
","
","""event"",""trial"",""time""
""fullscreenenter"",""6"",""41452""
","
",371,NA,48,NA,NA,3000,1,NA,NA,images/purpleplanet.jpg,images/alien4,images/alien3,images/rocket2,images/alien4,images/nothing.png,2,real,false,2,rare,0,2020-06-10T01:47:23Z,sub50
two-step-fixation,209,814763,0.0-76.0-2.24,TRUE,FALSE,FALSE,TRUE,"""event"",""trial"",""time""
""fullscreenenter"",""6"",""41452""
","
","
","""event"",""trial"",""time""
""fullscreenenter"",""6"",""41452""
","
",NA,images/earth.jpg,NA,NA,NA,NA,NA,NA,NA,NA,NA,NA,NA,NA,NA,fixation,NA,NA,NA,NA,NA,NA,sub50
d3-animate-choice,210,817248,0.0-76.0-0.25,TRUE,FALSE,FALSE,TRUE,"""event"",""trial"",""time""
""fullscreenenter"",""6"",""41452""
","
","
","""event"",""trial"",""time""
""fullscreenenter"",""6"",""41452""
","
",483,NA,48,NA,NA,3000,1,NA,NA,images/earth.jpg,images/rocket2,images/rocket1,null,images/rocket2,NA,1,real,null,2,NA,NA,NA,sub50
d3-animate-choice,211,819959,0.0-76.0-1.25,TRUE,FALSE,FALSE,TRUE,"""event"",""trial"",""time""
""fullscreenenter"",""6"",""41452""
","
","
","""event"",""trial"",""time""
""fullscreenenter"",""6"",""41452""
","
",710,NA,48,NA,NA,3000,1,"1520,1936,2251.0000000001164",484848,images/purpleplanet.jpg,images/alien4,images/alien3,images/rocket2,images/alien4,images/t.png,2,real,false,2,rare,1,2020-06-10T01:47:29Z,sub50
two-step-fixation,212,820960,0.0-76.0-2.25,TRUE,FALSE,FALSE,TRUE,"""event"",""trial"",""time""
""fullscreenenter"",""6"",""41452""
","
","
","""event"",""trial"",""time""
""fullscreenenter"",""6"",""41452""
","
",NA,images/earth.jpg,NA,NA,NA,NA,NA,NA,NA,NA,NA,NA,NA,NA,NA,fixation,NA,NA,NA,NA,NA,NA,sub50
d3-animate-choice,213,823874,0.0-76.0-0.26,TRUE,FALSE,FALSE,TRUE,"""event"",""trial"",""time""
""fullscreenenter"",""6"",""41452""
","
","
","""event"",""trial"",""time""
""fullscreenenter"",""6"",""41452""
","
",910.9999999998836,NA,48,NA,NA,3000,1,NA,NA,images/earth.jpg,images/rocket2,images/rocket1,null,images/rocket2,NA,1,real,null,2,NA,NA,NA,sub50
d3-animate-choice,214,826788,0.0-76.0-1.26,TRUE,FALSE,FALSE,TRUE,"""event"",""trial"",""time""
""fullscreenenter"",""6"",""41452""
","
","
","""event"",""trial"",""time""
""fullscreenenter"",""6"",""41452""
","
",911,NA,48,NA,NA,3000,1,NA,NA,images/purpleplanet.jpg,images/alien4,images/alien3,images/rocket2,images/alien4,images/t.png,2,real,false,2,rare,1,2020-06-10T01:47:36Z,sub50
two-step-fixation,215,827790,0.0-76.0-2.26,TRUE,FALSE,FALSE,TRUE,"""event"",""trial"",""time""
""fullscreenenter"",""6"",""41452""
","
","
","""event"",""trial"",""time""
""fullscreenenter"",""6"",""41452""
","
",NA,images/earth.jpg,NA,NA,NA,NA,NA,NA,NA,NA,NA,NA,NA,NA,NA,fixation,NA,NA,NA,NA,NA,NA,sub50
d3-animate-choice,216,830085,0.0-76.0-0.27,TRUE,FALSE,FALSE,TRUE,"""event"",""trial"",""time""
""fullscreenenter"",""6"",""41452""
","
","
","""event"",""trial"",""time""
""fullscreenenter"",""6"",""41452""
","
",293,NA,48,NA,NA,3000,1,NA,NA,images/earth.jpg,images/rocket2,images/rocket1,null,images/rocket2,NA,1,real,null,2,NA,NA,NA,sub50
d3-animate-choice,217,832559,0.0-76.0-1.27,TRUE,FALSE,FALSE,TRUE,"""event"",""trial"",""time""
""fullscreenenter"",""6"",""41452""
","
","
","""event"",""trial"",""time""
""fullscreenenter"",""6"",""41452""
","
",473,NA,49,NA,NA,3000,1,NA,NA,images/redplanet1.jpg,images/alien2,images/alien1,images/rocket2,images/alien1,images/t.png,2,real,true,1,common,1,2020-06-10T01:47:42Z,sub50
two-step-fixation,218,833561,0.0-76.0-2.27,TRUE,FALSE,FALSE,TRUE,"""event"",""trial"",""time""
""fullscreenenter"",""6"",""41452""
","
","
","""event"",""trial"",""time""
""fullscreenenter"",""6"",""41452""
","
",NA,images/earth.jpg,NA,NA,NA,NA,NA,NA,NA,NA,NA,NA,NA,NA,NA,fixation,NA,NA,NA,NA,NA,NA,sub50
d3-animate-choice,219,835900,0.0-76.0-0.28,TRUE,FALSE,FALSE,TRUE,"""event"",""trial"",""time""
""fullscreenenter"",""6"",""41452""
","
","
","""event"",""trial"",""time""
""fullscreenenter"",""6"",""41452""
","
",336.9999999998836,NA,48,NA,NA,3000,1,NA,NA,images/earth.jpg,images/rocket2,images/rocket1,null,images/rocket2,NA,1,real,null,2,NA,NA,NA,sub50
d3-animate-choice,220,838296,0.0-76.0-1.28,TRUE,FALSE,FALSE,TRUE,"""event"",""trial"",""time""
""fullscreenenter"",""6"",""41452""
","
","
","""event"",""trial"",""time""
""fullscreenenter"",""6"",""41452""
","
",395,NA,49,NA,NA,3000,1,NA,NA,images/redplanet1.jpg,images/alien2,images/alien1,images/rocket2,images/alien1,images/nothing.png,2,real,true,1,common,0,2020-06-10T01:47:47Z,sub50
two-step-fixation,221,839298,0.0-76.0-2.28,TRUE,FALSE,FALSE,TRUE,"""event"",""trial"",""time""
""fullscreenenter"",""6"",""41452""
","
","
","""event"",""trial"",""time""
""fullscreenenter"",""6"",""41452""
","
",NA,images/earth.jpg,NA,NA,NA,NA,NA,NA,NA,NA,NA,NA,NA,NA,NA,fixation,NA,NA,NA,NA,NA,NA,sub50
d3-animate-choice,222,843123,0.0-76.0-0.29,TRUE,FALSE,FALSE,TRUE,"""event"",""trial"",""time""
""fullscreenenter"",""6"",""41452""
","
","
","""event"",""trial"",""time""
""fullscreenenter"",""6"",""41452""
","
",349.0000000001164,NA,189,NA,NA,3000,1,"1407.0000000001164,1823",18948,images/earth.jpg,images/rocket2,images/rocket1,null,images/rocket2,NA,1,real,null,NA,NA,NA,NA,sub50
d3-animate-choice,223,845677,0.0-76.0-1.29,TRUE,FALSE,FALSE,TRUE,"""event"",""trial"",""time""
""fullscreenenter"",""6"",""41452""
","
","
","""event"",""trial"",""time""
""fullscreenenter"",""6"",""41452""
","
",551.9999999998836,NA,49,NA,NA,3000,1,NA,NA,images/redplanet1.jpg,images/alien2,images/alien1,images/rocket2,images/alien1,images/t.png,2,real,true,1,common,1,2020-06-10T01:47:55Z,sub50
two-step-fixation,224,846679,0.0-76.0-2.29,TRUE,FALSE,FALSE,TRUE,"""event"",""trial"",""time""
""fullscreenenter"",""6"",""41452""
","
","
","""event"",""trial"",""time""
""fullscreenenter"",""6"",""41452""
","
",NA,images/earth.jpg,NA,NA,NA,NA,NA,NA,NA,NA,NA,NA,NA,NA,NA,fixation,NA,NA,NA,NA,NA,NA,sub50
d3-animate-choice,225,848985,0.0-76.0-0.30,TRUE,FALSE,FALSE,TRUE,"""event"",""trial"",""time""
""fullscreenenter"",""6"",""41452""
","
","
","""event"",""trial"",""time""
""fullscreenenter"",""6"",""41452""
","
",303,NA,48,NA,NA,3000,1,NA,NA,images/earth.jpg,images/rocket2,images/rocket1,null,images/rocket2,NA,1,real,null,2,NA,NA,NA,sub50
d3-animate-choice,226,851842,0.0-76.0-1.30,TRUE,FALSE,FALSE,TRUE,"""event"",""trial"",""time""
""fullscreenenter"",""6"",""41452""
","
","
","""event"",""trial"",""time""
""fullscreenenter"",""6"",""41452""
","
",855,NA,48,NA,NA,3000,1,NA,NA,images/purpleplanet.jpg,images/alien4,images/alien3,images/rocket2,images/alien4,images/nothing.png,2,real,false,2,rare,0,2020-06-10T01:48:01Z,sub50
two-step-fixation,227,852843,0.0-76.0-2.30,TRUE,FALSE,FALSE,TRUE,"""event"",""trial"",""time""
""fullscreenenter"",""6"",""41452""
","
","
","""event"",""trial"",""time""
""fullscreenenter"",""6"",""41452""
","
",NA,images/earth.jpg,NA,NA,NA,NA,NA,NA,NA,NA,NA,NA,NA,NA,NA,fixation,NA,NA,NA,NA,NA,NA,sub50
d3-animate-choice,228,855161,0.0-76.0-0.31,TRUE,FALSE,FALSE,TRUE,"""event"",""trial"",""time""
""fullscreenenter"",""6"",""41452""
","
","
","""event"",""trial"",""time""
""fullscreenenter"",""6"",""41452""
","
",315,NA,48,NA,NA,3000,1,NA,NA,images/earth.jpg,images/rocket2,images/rocket1,null,images/rocket2,NA,1,real,null,2,NA,NA,NA,sub50
d3-animate-choice,229,857523,0.0-76.0-1.31,TRUE,FALSE,FALSE,TRUE,"""event"",""trial"",""time""
""fullscreenenter"",""6"",""41452""
","
","
","""event"",""trial"",""time""
""fullscreenenter"",""6"",""41452""
","
",360,NA,49,NA,NA,3000,1,NA,NA,images/redplanet1.jpg,images/alien2,images/alien1,images/rocket2,images/alien1,images/t.png,2,real,true,1,common,1,2020-06-10T01:48:07Z,sub50
two-step-fixation,230,858525,0.0-76.0-2.31,TRUE,FALSE,FALSE,TRUE,"""event"",""trial"",""time""
""fullscreenenter"",""6"",""41452""
","
","
","""event"",""trial"",""time""
""fullscreenenter"",""6"",""41452""
","
",NA,images/earth.jpg,NA,NA,NA,NA,NA,NA,NA,NA,NA,NA,NA,NA,NA,fixation,NA,NA,NA,NA,NA,NA,sub50
d3-animate-choice,231,860999,0.0-76.0-0.32,TRUE,FALSE,FALSE,TRUE,"""event"",""trial"",""time""
""fullscreenenter"",""6"",""41452""
","
","
","""event"",""trial"",""time""
""fullscreenenter"",""6"",""41452""
","
",472.0000000001164,NA,48,NA,NA,3000,1,NA,NA,images/earth.jpg,images/rocket2,images/rocket1,null,images/rocket2,NA,1,real,null,2,NA,NA,NA,sub50
d3-animate-choice,232,863429,0.0-76.0-1.32,TRUE,FALSE,FALSE,TRUE,"""event"",""trial"",""time""
""fullscreenenter"",""6"",""41452""
","
","
","""event"",""trial"",""time""
""fullscreenenter"",""6"",""41452""
","
",428,NA,49,NA,NA,3000,1,NA,NA,images/purpleplanet.jpg,images/alien4,images/alien3,images/rocket2,images/alien3,images/nothing.png,2,real,false,1,rare,0,2020-06-10T01:48:12Z,sub50
two-step-fixation,233,864430,0.0-76.0-2.32,TRUE,FALSE,FALSE,TRUE,"""event"",""trial"",""time""
""fullscreenenter"",""6"",""41452""
","
","
","""event"",""trial"",""time""
""fullscreenenter"",""6"",""41452""
","
",NA,images/earth.jpg,NA,NA,NA,NA,NA,NA,NA,NA,NA,NA,NA,NA,NA,fixation,NA,NA,NA,NA,NA,NA,sub50
d3-animate-choice,234,866759,0.0-76.0-0.33,TRUE,FALSE,FALSE,TRUE,"""event"",""trial"",""time""
""fullscreenenter"",""6"",""41452""
","
","
","""event"",""trial"",""time""
""fullscreenenter"",""6"",""41452""
","
",328.0000000001164,NA,48,NA,NA,3000,1,NA,NA,images/earth.jpg,images/rocket2,images/rocket1,null,images/rocket2,NA,1,real,null,2,NA,NA,NA,sub50
d3-animate-choice,235,869312,0.0-76.0-1.33,TRUE,FALSE,FALSE,TRUE,"""event"",""trial"",""time""
""fullscreenenter"",""6"",""41452""
","
","
","""event"",""trial"",""time""
""fullscreenenter"",""6"",""41452""
","
",551.0000000001164,NA,49,NA,NA,3000,1,NA,NA,images/redplanet1.jpg,images/alien2,images/alien1,images/rocket2,images/alien1,images/nothing.png,2,real,true,1,common,0,2020-06-10T01:48:18Z,sub50
two-step-fixation,236,870314,0.0-76.0-2.33,TRUE,FALSE,FALSE,TRUE,"""event"",""trial"",""time""
""fullscreenenter"",""6"",""41452""
","
","
","""event"",""trial"",""time""
""fullscreenenter"",""6"",""41452""
","
",NA,images/earth.jpg,NA,NA,NA,NA,NA,NA,NA,NA,NA,NA,NA,NA,NA,fixation,NA,NA,NA,NA,NA,NA,sub50
d3-animate-choice,237,872779,0.0-76.0-0.34,TRUE,FALSE,FALSE,TRUE,"""event"",""trial"",""time""
""fullscreenenter"",""6"",""41452""
","
","
","""event"",""trial"",""time""
""fullscreenenter"",""6"",""41452""
","
",463.0000000001164,NA,48,NA,NA,3000,1,NA,NA,images/earth.jpg,images/rocket2,images/rocket1,null,images/rocket2,NA,1,real,null,2,NA,NA,NA,sub50
d3-animate-choice,238,875861,0.0-76.0-1.34,TRUE,FALSE,FALSE,TRUE,"""event"",""trial"",""time""
""fullscreenenter"",""6"",""41452""
","
","
","""event"",""trial"",""time""
""fullscreenenter"",""6"",""41452""
","
",1080.0000000001164,NA,48,NA,NA,3000,1,NA,NA,images/purpleplanet.jpg,images/alien4,images/alien3,images/rocket2,images/alien4,images/t.png,2,real,false,2,rare,1,2020-06-10T01:48:25Z,sub50
two-step-fixation,239,876863,0.0-76.0-2.34,TRUE,FALSE,FALSE,TRUE,"""event"",""trial"",""time""
""fullscreenenter"",""6"",""41452""
","
","
","""event"",""trial"",""time""
""fullscreenenter"",""6"",""41452""
","
",NA,images/earth.jpg,NA,NA,NA,NA,NA,NA,NA,NA,NA,NA,NA,NA,NA,fixation,NA,NA,NA,NA,NA,NA,sub50
d3-animate-choice,240,879225,0.0-76.0-0.35,TRUE,FALSE,FALSE,TRUE,"""event"",""trial"",""time""
""fullscreenenter"",""6"",""41452""
","
","
","""event"",""trial"",""time""
""fullscreenenter"",""6"",""41452""
","
",358.9999999998836,NA,48,NA,NA,3000,1,NA,NA,images/earth.jpg,images/rocket2,images/rocket1,null,images/rocket2,NA,1,real,null,2,NA,NA,NA,sub50
d3-animate-choice,241,882296,0.0-76.0-1.35,TRUE,FALSE,FALSE,TRUE,"""event"",""trial"",""time""
""fullscreenenter"",""6"",""41452""
","
","
","""event"",""trial"",""time""
""fullscreenenter"",""6"",""41452""
","
",1069,NA,48,NA,NA,3000,1,NA,NA,images/purpleplanet.jpg,images/alien4,images/alien3,images/rocket2,images/alien4,images/nothing.png,2,real,false,2,rare,0,2020-06-10T01:48:31Z,sub50
two-step-fixation,242,883298,0.0-76.0-2.35,TRUE,FALSE,FALSE,TRUE,"""event"",""trial"",""time""
""fullscreenenter"",""6"",""41452""
","
","
","""event"",""trial"",""time""
""fullscreenenter"",""6"",""41452""
","
",NA,images/earth.jpg,NA,NA,NA,NA,NA,NA,NA,NA,NA,NA,NA,NA,NA,fixation,NA,NA,NA,NA,NA,NA,sub50
d3-animate-choice,243,885615,0.0-76.0-0.36,TRUE,FALSE,FALSE,TRUE,"""event"",""trial"",""time""
""fullscreenenter"",""6"",""41452""
","
","
","""event"",""trial"",""time""
""fullscreenenter"",""6"",""41452""
","
",314,NA,48,NA,NA,3000,1,NA,NA,images/earth.jpg,images/rocket2,images/rocket1,null,images/rocket2,NA,1,real,null,2,NA,NA,NA,sub50
d3-animate-choice,244,888461,0.0-76.0-1.36,TRUE,FALSE,FALSE,TRUE,"""event"",""trial"",""time""
""fullscreenenter"",""6"",""41452""
","
","
","""event"",""trial"",""time""
""fullscreenenter"",""6"",""41452""
","
",844.0000000001164,NA,48,NA,NA,3000,1,NA,NA,images/purpleplanet.jpg,images/alien4,images/alien3,images/rocket2,images/alien4,images/t.png,2,real,false,2,rare,1,2020-06-10T01:48:38Z,sub50
two-step-fixation,245,889463,0.0-76.0-2.36,TRUE,FALSE,FALSE,TRUE,"""event"",""trial"",""time""
""fullscreenenter"",""6"",""41452""
","
","
","""event"",""trial"",""time""
""fullscreenenter"",""6"",""41452""
","
",NA,images/earth.jpg,NA,NA,NA,NA,NA,NA,NA,NA,NA,NA,NA,NA,NA,fixation,NA,NA,NA,NA,NA,NA,sub50
d3-animate-choice,246,891814,0.0-76.0-0.37,TRUE,FALSE,FALSE,TRUE,"""event"",""trial"",""time""
""fullscreenenter"",""6"",""41452""
","
","
","""event"",""trial"",""time""
""fullscreenenter"",""6"",""41452""
","
",348,NA,48,NA,NA,3000,1,NA,NA,images/earth.jpg,images/rocket2,images/rocket1,null,images/rocket2,NA,1,real,null,2,NA,NA,NA,sub50
d3-animate-choice,247,894400,0.0-76.0-1.37,TRUE,FALSE,FALSE,TRUE,"""event"",""trial"",""time""
""fullscreenenter"",""6"",""41452""
","
","
","""event"",""trial"",""time""
""fullscreenenter"",""6"",""41452""
","
",585,NA,48,NA,NA,3000,1,NA,NA,images/purpleplanet.jpg,images/alien4,images/alien3,images/rocket2,images/alien4,images/nothing.png,2,real,false,2,rare,0,2020-06-10T01:48:43Z,sub50
two-step-fixation,248,895402,0.0-76.0-2.37,TRUE,FALSE,FALSE,TRUE,"""event"",""trial"",""time""
""fullscreenenter"",""6"",""41452""
","
","
","""event"",""trial"",""time""
""fullscreenenter"",""6"",""41452""
","
",NA,images/earth.jpg,NA,NA,NA,NA,NA,NA,NA,NA,NA,NA,NA,NA,NA,fixation,NA,NA,NA,NA,NA,NA,sub50
d3-animate-choice,249,897776,0.0-76.0-0.38,TRUE,FALSE,FALSE,TRUE,"""event"",""trial"",""time""
""fullscreenenter"",""6"",""41452""
","
","
","""event"",""trial"",""time""
""fullscreenenter"",""6"",""41452""
","
",372,NA,48,NA,NA,3000,1,NA,NA,images/earth.jpg,images/rocket2,images/rocket1,null,images/rocket2,NA,1,real,null,2,NA,NA,NA,sub50
d3-animate-choice,250,900869,0.0-76.0-1.38,TRUE,FALSE,FALSE,TRUE,"""event"",""trial"",""time""
""fullscreenenter"",""6"",""41452""
","
","
","""event"",""trial"",""time""
""fullscreenenter"",""6"",""41452""
","
",1091.9999999998836,NA,48,NA,NA,3000,1,NA,NA,images/purpleplanet.jpg,images/alien4,images/alien3,images/rocket2,images/alien4,images/t.png,2,real,false,2,rare,1,2020-06-10T01:48:50Z,sub50
two-step-fixation,251,901871,0.0-76.0-2.38,TRUE,FALSE,FALSE,TRUE,"""event"",""trial"",""time""
""fullscreenenter"",""6"",""41452""
","
","
","""event"",""trial"",""time""
""fullscreenenter"",""6"",""41452""
","
",NA,images/earth.jpg,NA,NA,NA,NA,NA,NA,NA,NA,NA,NA,NA,NA,NA,fixation,NA,NA,NA,NA,NA,NA,sub50
d3-animate-choice,252,904211,0.0-76.0-0.39,TRUE,FALSE,FALSE,TRUE,"""event"",""trial"",""time""
""fullscreenenter"",""6"",""41452""
","
","
","""event"",""trial"",""time""
""fullscreenenter"",""6"",""41452""
","
",338.0000000001164,NA,48,NA,NA,3000,1,NA,NA,images/earth.jpg,images/rocket2,images/rocket1,null,images/rocket2,NA,1,real,null,2,NA,NA,NA,sub50
d3-animate-choice,253,906686,0.0-76.0-1.39,TRUE,FALSE,FALSE,TRUE,"""event"",""trial"",""time""
""fullscreenenter"",""6"",""41452""
","
","
","""event"",""trial"",""time""
""fullscreenenter"",""6"",""41452""
","
",473,NA,48,NA,NA,3000,1,NA,NA,images/purpleplanet.jpg,images/alien4,images/alien3,images/rocket2,images/alien4,images/nothing.png,2,real,false,2,rare,0,2020-06-10T01:48:56Z,sub50
two-step-fixation,254,907688,0.0-76.0-2.39,TRUE,FALSE,FALSE,TRUE,"""event"",""trial"",""time""
""fullscreenenter"",""6"",""41452""
","
","
","""event"",""trial"",""time""
""fullscreenenter"",""6"",""41452""
","
",NA,images/earth.jpg,NA,NA,NA,NA,NA,NA,NA,NA,NA,NA,NA,NA,NA,fixation,NA,NA,NA,NA,NA,NA,sub50
d3-animate-choice,255,910129,0.0-76.0-0.40,TRUE,FALSE,FALSE,TRUE,"""event"",""trial"",""time""
""fullscreenenter"",""6"",""41452""
","
","
","""event"",""trial"",""time""
""fullscreenenter"",""6"",""41452""
","
",439.0000000001164,NA,48,NA,NA,3000,1,NA,NA,images/earth.jpg,images/rocket2,images/rocket1,null,images/rocket2,NA,1,real,null,2,NA,NA,NA,sub50
d3-animate-choice,256,912784,0.0-76.0-1.40,TRUE,FALSE,FALSE,TRUE,"""event"",""trial"",""time""
""fullscreenenter"",""6"",""41452""
","
","
","""event"",""trial"",""time""
""fullscreenenter"",""6"",""41452""
","
",653,NA,48,NA,NA,3000,1,NA,NA,images/redplanet1.jpg,images/alien2,images/alien1,images/rocket2,images/alien2,images/nothing.png,2,real,true,2,common,0,2020-06-10T01:49:02Z,sub50
two-step-fixation,257,913786,0.0-76.0-2.40,TRUE,FALSE,FALSE,TRUE,"""event"",""trial"",""time""
""fullscreenenter"",""6"",""41452""
","
","
","""event"",""trial"",""time""
""fullscreenenter"",""6"",""41452""
","
",NA,images/earth.jpg,NA,NA,NA,NA,NA,NA,NA,NA,NA,NA,NA,NA,NA,fixation,NA,NA,NA,NA,NA,NA,sub50
d3-animate-choice,258,916215,0.0-76.0-0.41,TRUE,FALSE,FALSE,TRUE,"""event"",""trial"",""time""
""fullscreenenter"",""6"",""41452""
","
","
","""event"",""trial"",""time""
""fullscreenenter"",""6"",""41452""
","
",426.9999999998836,NA,48,NA,NA,3000,1,NA,NA,images/earth.jpg,images/rocket2,images/rocket1,null,images/rocket2,NA,1,real,null,2,NA,NA,NA,sub50
d3-animate-choice,259,918791,0.0-76.0-1.41,TRUE,FALSE,FALSE,TRUE,"""event"",""trial"",""time""
""fullscreenenter"",""6"",""41452""
","
","
","""event"",""trial"",""time""
""fullscreenenter"",""6"",""41452""
","
",573,NA,48,NA,NA,3000,1,NA,NA,images/redplanet1.jpg,images/alien2,images/alien1,images/rocket2,images/alien2,images/nothing.png,2,real,true,2,common,0,2020-06-10T01:49:08Z,sub50
two-step-fixation,260,919793,0.0-76.0-2.41,TRUE,FALSE,FALSE,TRUE,"""event"",""trial"",""time""
""fullscreenenter"",""6"",""41452""
","
","
","""event"",""trial"",""time""
""fullscreenenter"",""6"",""41452""
","
",NA,images/earth.jpg,NA,NA,NA,NA,NA,NA,NA,NA,NA,NA,NA,NA,NA,fixation,NA,NA,NA,NA,NA,NA,sub50
d3-animate-choice,261,922223,0.0-76.0-0.42,TRUE,FALSE,FALSE,TRUE,"""event"",""trial"",""time""
""fullscreenenter"",""6"",""41452""
","
","
","""event"",""trial"",""time""
""fullscreenenter"",""6"",""41452""
","
",428,NA,48,NA,NA,3000,1,NA,NA,images/earth.jpg,images/rocket2,images/rocket1,null,images/rocket2,NA,1,real,null,2,NA,NA,NA,sub50
d3-animate-choice,262,925226,0.0-76.0-1.42,TRUE,FALSE,FALSE,TRUE,"""event"",""trial"",""time""
""fullscreenenter"",""6"",""41452""
","
","
","""event"",""trial"",""time""
""fullscreenenter"",""6"",""41452""
","
",1001.9999999998836,NA,48,NA,NA,3000,1,NA,NA,images/purpleplanet.jpg,images/alien4,images/alien3,images/rocket2,images/alien4,images/t.png,2,real,false,2,rare,1,2020-06-10T01:49:14Z,sub50
two-step-fixation,263,926228,0.0-76.0-2.42,TRUE,FALSE,FALSE,TRUE,"""event"",""trial"",""time""
""fullscreenenter"",""6"",""41452""
","
","
","""event"",""trial"",""time""
""fullscreenenter"",""6"",""41452""
","
",NA,images/earth.jpg,NA,NA,NA,NA,NA,NA,NA,NA,NA,NA,NA,NA,NA,fixation,NA,NA,NA,NA,NA,NA,sub50
d3-animate-choice,264,928624,0.0-76.0-0.43,TRUE,FALSE,FALSE,TRUE,"""event"",""trial"",""time""
""fullscreenenter"",""6"",""41452""
","
","
","""event"",""trial"",""time""
""fullscreenenter"",""6"",""41452""
","
",393.0000000001164,NA,48,NA,NA,3000,1,NA,NA,images/earth.jpg,images/rocket2,images/rocket1,null,images/rocket2,NA,1,real,null,2,NA,NA,NA,sub50
d3-animate-choice,265,931594,0.0-76.0-1.43,TRUE,FALSE,FALSE,TRUE,"""event"",""trial"",""time""
""fullscreenenter"",""6"",""41452""
","
","
","""event"",""trial"",""time""
""fullscreenenter"",""6"",""41452""
","
",967,NA,49,NA,NA,3000,1,NA,NA,images/redplanet1.jpg,images/alien2,images/alien1,images/rocket2,images/alien1,images/nothing.png,2,real,true,1,common,0,2020-06-10T01:49:21Z,sub50
two-step-fixation,266,932596,0.0-76.0-2.43,TRUE,FALSE,FALSE,TRUE,"""event"",""trial"",""time""
""fullscreenenter"",""6"",""41452""
","
","
","""event"",""trial"",""time""
""fullscreenenter"",""6"",""41452""
","
",NA,images/earth.jpg,NA,NA,NA,NA,NA,NA,NA,NA,NA,NA,NA,NA,NA,fixation,NA,NA,NA,NA,NA,NA,sub50
d3-animate-choice,267,935069,0.0-76.0-0.44,TRUE,FALSE,FALSE,TRUE,"""event"",""trial"",""time""
""fullscreenenter"",""6"",""41452""
","
","
","""event"",""trial"",""time""
""fullscreenenter"",""6"",""41452""
","
",472.0000000001164,NA,48,NA,NA,3000,1,NA,NA,images/earth.jpg,images/rocket2,images/rocket1,null,images/rocket2,NA,1,real,null,2,NA,NA,NA,sub50
d3-animate-choice,268,937781,0.0-76.0-1.44,TRUE,FALSE,FALSE,TRUE,"""event"",""trial"",""time""
""fullscreenenter"",""6"",""41452""
","
","
","""event"",""trial"",""time""
""fullscreenenter"",""6"",""41452""
","
",710,NA,48,NA,NA,3000,1,NA,NA,images/redplanet1.jpg,images/alien2,images/alien1,images/rocket2,images/alien2,images/nothing.png,2,real,true,2,common,0,2020-06-10T01:49:27Z,sub50
two-step-fixation,269,938783,0.0-76.0-2.44,TRUE,FALSE,FALSE,TRUE,"""event"",""trial"",""time""
""fullscreenenter"",""6"",""41452""
","
","
","""event"",""trial"",""time""
""fullscreenenter"",""6"",""41452""
","
",NA,images/earth.jpg,NA,NA,NA,NA,NA,NA,NA,NA,NA,NA,NA,NA,NA,fixation,NA,NA,NA,NA,NA,NA,sub50
d3-animate-choice,270,941459,0.0-76.0-0.45,TRUE,FALSE,FALSE,TRUE,"""event"",""trial"",""time""
""fullscreenenter"",""6"",""41452""
","
","
","""event"",""trial"",""time""
""fullscreenenter"",""6"",""41452""
","
",674.0000000001164,NA,48,NA,NA,3000,1,NA,NA,images/earth.jpg,images/rocket2,images/rocket1,null,images/rocket2,NA,1,real,null,2,NA,NA,NA,sub50
d3-animate-choice,271,943968,0.0-76.0-1.45,TRUE,FALSE,FALSE,TRUE,"""event"",""trial"",""time""
""fullscreenenter"",""6"",""41452""
","
","
","""event"",""trial"",""time""
""fullscreenenter"",""6"",""41452""
","
",507,NA,48,NA,NA,3000,1,NA,NA,images/purpleplanet.jpg,images/alien4,images/alien3,images/rocket2,images/alien4,images/t.png,2,real,false,2,rare,1,2020-06-10T01:49:33Z,sub50
two-step-fixation,272,944970,0.0-76.0-2.45,TRUE,FALSE,FALSE,TRUE,"""event"",""trial"",""time""
""fullscreenenter"",""6"",""41452""
","
","
","""event"",""trial"",""time""
""fullscreenenter"",""6"",""41452""
","
",NA,images/earth.jpg,NA,NA,NA,NA,NA,NA,NA,NA,NA,NA,NA,NA,NA,fixation,NA,NA,NA,NA,NA,NA,sub50
d3-animate-choice,273,947321,0.0-76.0-0.46,TRUE,FALSE,FALSE,TRUE,"""event"",""trial"",""time""
""fullscreenenter"",""6"",""41452""
","
","
","""event"",""trial"",""time""
""fullscreenenter"",""6"",""41452""
","
",349,NA,48,NA,NA,3000,1,NA,NA,images/earth.jpg,images/rocket2,images/rocket1,null,images/rocket2,NA,1,real,null,2,NA,NA,NA,sub50
d3-animate-choice,274,950100,0.0-76.0-1.46,TRUE,FALSE,FALSE,TRUE,"""event"",""trial"",""time""
""fullscreenenter"",""6"",""41452""
","
","
","""event"",""trial"",""time""
""fullscreenenter"",""6"",""41452""
","
",777,NA,49,NA,NA,3000,1,NA,NA,images/redplanet1.jpg,images/alien2,images/alien1,images/rocket2,images/alien1,images/nothing.png,2,real,true,1,common,0,2020-06-10T01:49:39Z,sub50
two-step-fixation,275,951102,0.0-76.0-2.46,TRUE,FALSE,FALSE,TRUE,"""event"",""trial"",""time""
""fullscreenenter"",""6"",""41452""
","
","
","""event"",""trial"",""time""
""fullscreenenter"",""6"",""41452""
","
",NA,images/earth.jpg,NA,NA,NA,NA,NA,NA,NA,NA,NA,NA,NA,NA,NA,fixation,NA,NA,NA,NA,NA,NA,sub50
d3-animate-choice,276,953487,0.0-76.0-0.47,TRUE,FALSE,FALSE,TRUE,"""event"",""trial"",""time""
""fullscreenenter"",""6"",""41452""
","
","
","""event"",""trial"",""time""
""fullscreenenter"",""6"",""41452""
","
",381,NA,49,NA,NA,3000,1,NA,NA,images/earth.jpg,images/rocket2,images/rocket1,null,images/rocket1,NA,1,real,null,1,NA,NA,NA,sub50
d3-animate-choice,277,956760,0.0-76.0-1.47,TRUE,FALSE,FALSE,TRUE,"""event"",""trial"",""time""
""fullscreenenter"",""6"",""41452""
","
","
","""event"",""trial"",""time""
""fullscreenenter"",""6"",""41452""
","
",1270.9999999998836,NA,48,NA,NA,3000,1,NA,NA,images/purpleplanet.jpg,images/alien4,images/alien3,images/rocket1,images/alien4,images/t.png,2,real,true,2,common,1,2020-06-10T01:49:46Z,sub50
two-step-fixation,278,957762,0.0-76.0-2.47,TRUE,FALSE,FALSE,TRUE,"""event"",""trial"",""time""
""fullscreenenter"",""6"",""41452""
","
","
","""event"",""trial"",""time""
""fullscreenenter"",""6"",""41452""
","
",NA,images/earth.jpg,NA,NA,NA,NA,NA,NA,NA,NA,NA,NA,NA,NA,NA,fixation,NA,NA,NA,NA,NA,NA,sub50
d3-animate-choice,279,960135,0.0-76.0-0.48,TRUE,FALSE,FALSE,TRUE,"""event"",""trial"",""time""
""fullscreenenter"",""6"",""41452""
","
","
","""event"",""trial"",""time""
""fullscreenenter"",""6"",""41452""
","
",370,NA,49,NA,NA,3000,1,NA,NA,images/earth.jpg,images/rocket2,images/rocket1,null,images/rocket1,NA,1,real,null,1,NA,NA,NA,sub50
d3-animate-choice,280,962610,0.0-76.0-1.48,TRUE,FALSE,FALSE,TRUE,"""event"",""trial"",""time""
""fullscreenenter"",""6"",""41452""
","
","
","""event"",""trial"",""time""
""fullscreenenter"",""6"",""41452""
","
",473,NA,48,NA,NA,3000,1,NA,NA,images/purpleplanet.jpg,images/alien4,images/alien3,images/rocket1,images/alien4,images/nothing.png,2,real,true,2,common,0,2020-06-10T01:49:52Z,sub50
two-step-fixation,281,963612,0.0-76.0-2.48,TRUE,FALSE,FALSE,TRUE,"""event"",""trial"",""time""
""fullscreenenter"",""6"",""41452""
","
","
","""event"",""trial"",""time""
""fullscreenenter"",""6"",""41452""
","
",NA,images/earth.jpg,NA,NA,NA,NA,NA,NA,NA,NA,NA,NA,NA,NA,NA,fixation,NA,NA,NA,NA,NA,NA,sub50
d3-animate-choice,282,965985,0.0-76.0-0.49,TRUE,FALSE,FALSE,TRUE,"""event"",""trial"",""time""
""fullscreenenter"",""6"",""41452""
","
","
","""event"",""trial"",""time""
""fullscreenenter"",""6"",""41452""
","
",371,NA,49,NA,NA,3000,1,NA,NA,images/earth.jpg,images/rocket2,images/rocket1,null,images/rocket1,NA,1,real,null,1,NA,NA,NA,sub50
d3-animate-choice,283,968449,0.0-76.0-1.49,TRUE,FALSE,FALSE,TRUE,"""event"",""trial"",""time""
""fullscreenenter"",""6"",""41452""
","
","
","""event"",""trial"",""time""
""fullscreenenter"",""6"",""41452""
","
",461,NA,48,NA,NA,3000,1,NA,NA,images/purpleplanet.jpg,images/alien4,images/alien3,images/rocket1,images/alien4,images/nothing.png,2,real,true,2,common,0,2020-06-10T01:49:57Z,sub50
two-step-fixation,284,969451,0.0-76.0-2.49,TRUE,FALSE,FALSE,TRUE,"""event"",""trial"",""time""
""fullscreenenter"",""6"",""41452""
","
","
","""event"",""trial"",""time""
""fullscreenenter"",""6"",""41452""
","
",NA,images/earth.jpg,NA,NA,NA,NA,NA,NA,NA,NA,NA,NA,NA,NA,NA,fixation,NA,NA,NA,NA,NA,NA,sub50
audio-button-response-2,285,976046,0.0-77.0,TRUE,FALSE,FALSE,TRUE,"""event"",""trial"",""time""
""fullscreenenter"",""6"",""41452""
","
","
","""event"",""trial"",""time""
""fullscreenenter"",""6"",""41452""
","
",6593,audio/instructions/break_1.wav,NA,0,NA,NA,NA,NA,NA,NA,NA,NA,NA,NA,NA,NA,NA,NA,NA,NA,NA,NA,sub50
d3-animate-choice,286,979305,0.0-78.0-0.0,TRUE,FALSE,FALSE,TRUE,"""event"",""trial"",""time""
""fullscreenenter"",""6"",""41452""
","
","
","""event"",""trial"",""time""
""fullscreenenter"",""6"",""41452""
","
",1257.0000000001164,NA,48,NA,NA,3000,1,NA,NA,images/earth.jpg,images/rocket2,images/rocket1,null,images/rocket2,NA,1,real,null,2,NA,NA,NA,sub50
d3-animate-choice,287,982106,0.0-78.0-1.0,TRUE,FALSE,FALSE,TRUE,"""event"",""trial"",""time""
""fullscreenenter"",""6"",""41452""
","
","
","""event"",""trial"",""time""
""fullscreenenter"",""6"",""41452""
","
",799,NA,48,NA,NA,3000,1,NA,NA,images/purpleplanet.jpg,images/alien4,images/alien3,images/rocket2,images/alien4,images/t.png,2,real,false,2,rare,1,2020-06-10T01:50:11Z,sub50
two-step-fixation,288,983107,0.0-78.0-2.0,TRUE,FALSE,FALSE,TRUE,"""event"",""trial"",""time""
""fullscreenenter"",""6"",""41452""
","
","
","""event"",""trial"",""time""
""fullscreenenter"",""6"",""41452""
","
",NA,images/earth.jpg,NA,NA,NA,NA,NA,NA,NA,NA,NA,NA,NA,NA,NA,fixation,NA,NA,NA,NA,NA,NA,sub50
