trial_type,trial_index,time_elapsed,internal_node_id,rocket_sides,red_planet_first_rocket,red_display_order,purple_display_order,interactions,blur_events,focus_events,fullscreenenter_events,fullscreenexit_events,rt,stimulus,key_press,button_pressed,success,duration,valid_pressed,rts,keys,planet_text,right_text,left_text,center_text,chosen_text,reward_text,trial_stage,practice_trial,transition_type,choice,transition,reward,timestamp,subject_id
pavlovia,0,7,0.0-0.0,TRUE,TRUE,TRUE,TRUE,"
","
","
","
","
",NA,NA,NA,NA,NA,NA,NA,NA,NA,NA,NA,NA,NA,NA,NA,NA,NA,NA,NA,NA,NA,NA,sub19
html-keyboard-response,1,2794,0.0-1.0,TRUE,TRUE,TRUE,TRUE,"
","
","
","
","
",2785.134999998263,Welcome! Press the space bar to begin.,32,NA,NA,NA,NA,NA,NA,NA,NA,NA,NA,NA,NA,NA,NA,NA,NA,NA,NA,NA,sub19
audio-keyboard-response,2,6964,0.0-2.0,TRUE,TRUE,TRUE,TRUE,"
","
","
","
","
",3835,audio/beep_loop.wav,32,NA,NA,NA,NA,NA,NA,NA,NA,NA,NA,NA,NA,NA,NA,NA,NA,NA,NA,NA,sub19
audio-button-response,3,9872,0.0-3.0,TRUE,TRUE,TRUE,TRUE,"
","
","
","
","
",NaN,audio/fish.mp3,NA,1,NA,NA,NA,NA,NA,NA,NA,NA,NA,NA,NA,NA,NA,NA,NA,NA,NA,NA,sub19
audio-button-response,4,12463,0.0-4.0,TRUE,TRUE,TRUE,TRUE,"""event"",""trial"",""time""
""fullscreenenter"",""5"",""17045""
","
","
","""event"",""trial"",""time""
""fullscreenenter"",""5"",""17045""
","
",NaN,audio/tiger.mp3,NA,4,NA,NA,NA,NA,NA,NA,NA,NA,NA,NA,NA,NA,NA,NA,NA,NA,NA,NA,sub19
fullscreen,5,18010,0.0-5.0,TRUE,TRUE,TRUE,TRUE,"""event"",""trial"",""time""
""fullscreenenter"",""5"",""17045""
","
","
","""event"",""trial"",""time""
""fullscreenenter"",""5"",""17045""
","
",NA,NA,NA,NA,TRUE,NA,NA,NA,NA,NA,NA,NA,NA,NA,NA,NA,NA,NA,NA,NA,NA,NA,sub19
d3-instructions,6,32826,0.0-6.0,TRUE,TRUE,TRUE,TRUE,"""event"",""trial"",""time""
""fullscreenenter"",""5"",""17045""
","
","
","""event"",""trial"",""time""
""fullscreenenter"",""5"",""17045""
","
",NA,NA,NA,NA,NA,NA,NA,NA,NA,NA,NA,NA,NA,NA,NA,NA,NA,NA,NA,NA,NA,NA,sub19
d3-instructions,7,44238,0.0-7.0,TRUE,TRUE,TRUE,TRUE,"""event"",""trial"",""time""
""fullscreenenter"",""5"",""17045""
","
","
","""event"",""trial"",""time""
""fullscreenenter"",""5"",""17045""
","
",NA,NA,NA,NA,NA,NA,NA,NA,NA,NA,NA,NA,NA,NA,NA,NA,NA,NA,NA,NA,NA,NA,sub19
d3-instructions,8,52380,0.0-8.0,TRUE,TRUE,TRUE,TRUE,"""event"",""trial"",""time""
""fullscreenenter"",""5"",""17045""
","
","
","""event"",""trial"",""time""
""fullscreenenter"",""5"",""17045""
","
",NA,NA,NA,NA,NA,NA,NA,NA,NA,NA,NA,NA,NA,NA,NA,NA,NA,NA,NA,NA,NA,NA,sub19
d3-instructions,9,65218,0.0-9.0,TRUE,TRUE,TRUE,TRUE,"""event"",""trial"",""time""
""fullscreenenter"",""5"",""17045""
","
","
","""event"",""trial"",""time""
""fullscreenenter"",""5"",""17045""
","
",NA,NA,NA,NA,NA,NA,NA,NA,NA,NA,NA,NA,NA,NA,NA,NA,NA,NA,NA,NA,NA,NA,sub19
d3-instructions,10,96398,0.0-10.0,TRUE,TRUE,TRUE,TRUE,"""event"",""trial"",""time""
""fullscreenenter"",""5"",""17045""
","
","
","""event"",""trial"",""time""
""fullscreenenter"",""5"",""17045""
","
",NA,NA,NA,NA,NA,NA,NA,NA,NA,NA,NA,NA,NA,NA,NA,NA,NA,NA,NA,NA,NA,NA,sub19
d3-animate-choice,11,100535,0.0-11.0,TRUE,TRUE,TRUE,TRUE,"""event"",""trial"",""time""
""fullscreenenter"",""5"",""17045""
","
","
","""event"",""trial"",""time""
""fullscreenenter"",""5"",""17045""
","
",2123.235000006389,NA,48,NA,NA,3000,1,3379.2950000060955,49,images/tutgreenplanet.jpg,images/tutalien1,images/tutalien2,null,images/tutalien1,NA,NA,practice,null,NA,NA,NA,NA,sub19
d3-animate-choice,12,103394,0.0-12.0,TRUE,TRUE,TRUE,TRUE,"""event"",""trial"",""time""
""fullscreenenter"",""5"",""17045""
","
","
","""event"",""trial"",""time""
""fullscreenenter"",""5"",""17045""
","
",850.5250000016531,NA,49,NA,NA,3000,1,NA,NA,images/tutgreenplanet.jpg,images/tutalien1,images/tutalien2,null,images/tutalien2,NA,NA,practice,null,NA,NA,NA,NA,sub19
d3-animate-choice,13,106642,0.0-13.0,TRUE,TRUE,TRUE,TRUE,"""event"",""trial"",""time""
""fullscreenenter"",""5"",""17045""
","
","
","""event"",""trial"",""time""
""fullscreenenter"",""5"",""17045""
","
",1240.655000001425,NA,48,NA,NA,3000,1,NA,NA,images/tutgreenplanet.jpg,images/tutalien1,images/tutalien2,null,images/tutalien1,NA,NA,practice,null,NA,NA,NA,NA,sub19
d3-animate-choice,14,109154,0.0-14.0,TRUE,TRUE,TRUE,TRUE,"""event"",""trial"",""time""
""fullscreenenter"",""5"",""17045""
","
","
","""event"",""trial"",""time""
""fullscreenenter"",""5"",""17045""
","
",505.0500000070315,NA,49,NA,NA,3000,1,NA,NA,images/tutgreenplanet.jpg,images/tutalien1,images/tutalien2,null,images/tutalien2,NA,NA,practice,null,NA,NA,NA,NA,sub19
d3-instructions,15,118270,0.0-15.0,TRUE,TRUE,TRUE,TRUE,"""event"",""trial"",""time""
""fullscreenenter"",""5"",""17045""
","
","
","""event"",""trial"",""time""
""fullscreenenter"",""5"",""17045""
","
",NA,NA,NA,NA,NA,NA,NA,NA,NA,NA,NA,NA,NA,NA,NA,NA,NA,NA,NA,NA,NA,NA,sub19
d3-instructions,16,126006,0.0-16.0,TRUE,TRUE,TRUE,TRUE,"""event"",""trial"",""time""
""fullscreenenter"",""5"",""17045""
","
","
","""event"",""trial"",""time""
""fullscreenenter"",""5"",""17045""
","
",NA,NA,NA,NA,NA,NA,NA,NA,NA,NA,NA,NA,NA,NA,NA,NA,NA,NA,NA,NA,NA,NA,sub19
d3-instructions,17,136806,0.0-17.0,TRUE,TRUE,TRUE,TRUE,"""event"",""trial"",""time""
""fullscreenenter"",""5"",""17045""
","
","
","""event"",""trial"",""time""
""fullscreenenter"",""5"",""17045""
","
",NA,NA,NA,NA,NA,NA,NA,NA,NA,NA,NA,NA,NA,NA,NA,NA,NA,NA,NA,NA,NA,NA,sub19
d3-instructions,18,150023,0.0-18.0,TRUE,TRUE,TRUE,TRUE,"""event"",""trial"",""time""
""fullscreenenter"",""5"",""17045""
","
","
","""event"",""trial"",""time""
""fullscreenenter"",""5"",""17045""
","
",NA,NA,NA,NA,NA,NA,NA,NA,NA,NA,NA,NA,NA,NA,NA,NA,NA,NA,NA,NA,NA,NA,sub19
d3-instructions,19,163496,0.0-19.0,TRUE,TRUE,TRUE,TRUE,"""event"",""trial"",""time""
""fullscreenenter"",""5"",""17045""
","
","
","""event"",""trial"",""time""
""fullscreenenter"",""5"",""17045""
","
",NA,NA,NA,NA,NA,NA,NA,NA,NA,NA,NA,NA,NA,NA,NA,NA,NA,NA,NA,NA,NA,NA,sub19
d3-animate-choice,20,166857,0.0-20.0,TRUE,TRUE,TRUE,TRUE,"""event"",""trial"",""time""
""fullscreenenter"",""5"",""17045""
","
","
","""event"",""trial"",""time""
""fullscreenenter"",""5"",""17045""
","
",1356.260000000475,NA,49,NA,NA,3000,1,NA,NA,images/tutyellowplanet.jpg,null,images/tutalien3,null,images/tutalien3,images/t.png,NA,practice,null,NA,NA,NA,NA,sub19
d3-animate-choice,21,169412,0.0-21.0,TRUE,TRUE,TRUE,TRUE,"""event"",""trial"",""time""
""fullscreenenter"",""5"",""17045""
","
","
","""event"",""trial"",""time""
""fullscreenenter"",""5"",""17045""
","
",547.8699999948731,NA,49,NA,NA,3000,1,NA,NA,images/tutyellowplanet.jpg,null,images/tutalien3,null,images/tutalien3,images/t.png,NA,practice,null,NA,NA,NA,NA,sub19
d3-animate-choice,22,171876,0.0-22.0,TRUE,TRUE,TRUE,TRUE,"""event"",""trial"",""time""
""fullscreenenter"",""5"",""17045""
","
","
","""event"",""trial"",""time""
""fullscreenenter"",""5"",""17045""
","
",457.3850000015227,NA,49,NA,NA,3000,1,NA,NA,images/tutyellowplanet.jpg,null,images/tutalien3,null,images/tutalien3,images/nothing.png,NA,practice,null,NA,NA,NA,NA,sub19
d3-animate-choice,23,174500,0.0-23.0,TRUE,TRUE,TRUE,TRUE,"""event"",""trial"",""time""
""fullscreenenter"",""5"",""17045""
","
","
","""event"",""trial"",""time""
""fullscreenenter"",""5"",""17045""
","
",617.339999997057,NA,49,NA,NA,3000,1,NA,NA,images/tutyellowplanet.jpg,null,images/tutalien3,null,images/tutalien3,images/nothing.png,NA,practice,null,NA,NA,NA,NA,sub19
d3-animate-choice,24,176905,0.0-24.0,TRUE,TRUE,TRUE,TRUE,"""event"",""trial"",""time""
""fullscreenenter"",""5"",""17045""
","
","
","""event"",""trial"",""time""
""fullscreenenter"",""5"",""17045""
","
",401.81999999913387,NA,49,NA,NA,3000,1,NA,NA,images/tutyellowplanet.jpg,null,images/tutalien3,null,images/tutalien3,images/t.png,NA,practice,null,NA,NA,NA,NA,sub19
d3-animate-choice,25,179417,0.0-25.0,TRUE,TRUE,TRUE,TRUE,"""event"",""trial"",""time""
""fullscreenenter"",""5"",""17045""
","
","
","""event"",""trial"",""time""
""fullscreenenter"",""5"",""17045""
","
",507.8099999955157,NA,49,NA,NA,3000,1,NA,NA,images/tutyellowplanet.jpg,null,images/tutalien3,null,images/tutalien3,images/t.png,NA,practice,null,NA,NA,NA,NA,sub19
d3-animate-choice,26,181892,0.0-26.0,TRUE,TRUE,TRUE,TRUE,"""event"",""trial"",""time""
""fullscreenenter"",""5"",""17045""
","
","
","""event"",""trial"",""time""
""fullscreenenter"",""5"",""17045""
","
",467.75999999954365,NA,49,NA,NA,3000,1,NA,NA,images/tutyellowplanet.jpg,null,images/tutalien3,null,images/tutalien3,images/t.png,NA,practice,null,NA,NA,NA,NA,sub19
d3-animate-choice,27,184373,0.0-27.0,TRUE,TRUE,TRUE,TRUE,"""event"",""trial"",""time""
""fullscreenenter"",""5"",""17045""
","
","
","""event"",""trial"",""time""
""fullscreenenter"",""5"",""17045""
","
",473.33499998785555,NA,49,NA,NA,3000,1,NA,NA,images/tutyellowplanet.jpg,null,images/tutalien3,null,images/tutalien3,images/nothing.png,NA,practice,null,NA,NA,NA,NA,sub19
d3-animate-choice,28,186996,0.0-28.0,TRUE,TRUE,TRUE,TRUE,"""event"",""trial"",""time""
""fullscreenenter"",""5"",""17045""
","
","
","""event"",""trial"",""time""
""fullscreenenter"",""5"",""17045""
","
",616.6800000064541,NA,49,NA,NA,3000,1,NA,NA,images/tutyellowplanet.jpg,null,images/tutalien3,null,images/tutalien3,images/nothing.png,NA,practice,null,NA,NA,NA,NA,sub19
d3-animate-choice,29,189785,0.0-29.0,TRUE,TRUE,TRUE,TRUE,"""event"",""trial"",""time""
""fullscreenenter"",""5"",""17045""
","
","
","""event"",""trial"",""time""
""fullscreenenter"",""5"",""17045""
","
",785.4900000093039,NA,49,NA,NA,3000,1,NA,NA,images/tutyellowplanet.jpg,null,images/tutalien3,null,images/tutalien3,images/t.png,NA,practice,null,NA,NA,NA,NA,sub19
d3-instructions,30,196425,0.0-30.0,TRUE,TRUE,TRUE,TRUE,"""event"",""trial"",""time""
""fullscreenenter"",""5"",""17045""
","
","
","""event"",""trial"",""time""
""fullscreenenter"",""5"",""17045""
","
",NA,NA,NA,NA,NA,NA,NA,NA,NA,NA,NA,NA,NA,NA,NA,NA,NA,NA,NA,NA,NA,NA,sub19
d3-instructions,31,206729,0.0-31.0,TRUE,TRUE,TRUE,TRUE,"""event"",""trial"",""time""
""fullscreenenter"",""5"",""17045""
","
","
","""event"",""trial"",""time""
""fullscreenenter"",""5"",""17045""
","
",NA,NA,NA,NA,NA,NA,NA,NA,NA,NA,NA,NA,NA,NA,NA,NA,NA,NA,NA,NA,NA,NA,sub19
d3-instructions,32,220385,0.0-32.0,TRUE,TRUE,TRUE,TRUE,"""event"",""trial"",""time""
""fullscreenenter"",""5"",""17045""
","
","
","""event"",""trial"",""time""
""fullscreenenter"",""5"",""17045""
","
",NA,NA,NA,NA,NA,NA,NA,NA,NA,NA,NA,NA,NA,NA,NA,NA,NA,NA,NA,NA,NA,NA,sub19
d3-instructions,33,230674,0.0-33.0,TRUE,TRUE,TRUE,TRUE,"""event"",""trial"",""time""
""fullscreenenter"",""5"",""17045""
","
","
","""event"",""trial"",""time""
""fullscreenenter"",""5"",""17045""
","
",NA,NA,NA,NA,NA,NA,NA,NA,NA,NA,NA,NA,NA,NA,NA,NA,NA,NA,NA,NA,NA,NA,sub19
d3-animate-choice,34,234069,0.0-34.0,TRUE,TRUE,TRUE,TRUE,"""event"",""trial"",""time""
""fullscreenenter"",""5"",""17045""
","
","
","""event"",""trial"",""time""
""fullscreenenter"",""5"",""17045""
","
",1388.9150000031805,NA,49,NA,NA,3000,1,NA,NA,images/tutgreenplanet.jpg,images/tutalien1,images/tutalien2,null,images/tutalien2,images/t.png,NA,practice,null,NA,NA,NA,NA,sub19
d3-animate-choice,35,236582,0.0-35.0,TRUE,TRUE,TRUE,TRUE,"""event"",""trial"",""time""
""fullscreenenter"",""5"",""17045""
","
","
","""event"",""trial"",""time""
""fullscreenenter"",""5"",""17045""
","
",504.78999999177177,NA,49,NA,NA,3000,1,NA,NA,images/tutgreenplanet.jpg,images/tutalien1,images/tutalien2,null,images/tutalien2,images/t.png,NA,practice,null,NA,NA,NA,NA,sub19
d3-animate-choice,36,239061,0.0-36.0,TRUE,TRUE,TRUE,TRUE,"""event"",""trial"",""time""
""fullscreenenter"",""5"",""17045""
","
","
","""event"",""trial"",""time""
""fullscreenenter"",""5"",""17045""
","
",473.11000000627246,NA,49,NA,NA,3000,1,NA,NA,images/tutgreenplanet.jpg,images/tutalien1,images/tutalien2,null,images/tutalien2,images/t.png,NA,practice,null,NA,NA,NA,NA,sub19
d3-animate-choice,37,241494,0.0-37.0,TRUE,TRUE,TRUE,TRUE,"""event"",""trial"",""time""
""fullscreenenter"",""5"",""17045""
","
","
","""event"",""trial"",""time""
""fullscreenenter"",""5"",""17045""
","
",425.600000002305,NA,49,NA,NA,3000,1,NA,NA,images/tutgreenplanet.jpg,images/tutalien1,images/tutalien2,null,images/tutalien2,images/t.png,NA,practice,null,NA,NA,NA,NA,sub19
d3-animate-choice,38,243890,0.0-38.0,TRUE,TRUE,TRUE,TRUE,"""event"",""trial"",""time""
""fullscreenenter"",""5"",""17045""
","
","
","""event"",""trial"",""time""
""fullscreenenter"",""5"",""17045""
","
",392.37499999580905,NA,49,NA,NA,3000,1,NA,NA,images/tutgreenplanet.jpg,images/tutalien1,images/tutalien2,null,images/tutalien2,images/t.png,NA,practice,null,NA,NA,NA,NA,sub19
d3-animate-choice,39,246315,0.0-39.0,TRUE,TRUE,TRUE,TRUE,"""event"",""trial"",""time""
""fullscreenenter"",""5"",""17045""
","
","
","""event"",""trial"",""time""
""fullscreenenter"",""5"",""17045""
","
",420.16500000318047,NA,49,NA,NA,3000,1,NA,NA,images/tutgreenplanet.jpg,images/tutalien1,images/tutalien2,null,images/tutalien2,images/t.png,NA,practice,null,NA,NA,NA,NA,sub19
d3-animate-choice,40,248715,0.0-40.0,TRUE,TRUE,TRUE,TRUE,"""event"",""trial"",""time""
""fullscreenenter"",""5"",""17045""
","
","
","""event"",""trial"",""time""
""fullscreenenter"",""5"",""17045""
","
",394.2899999965448,NA,49,NA,NA,3000,1,NA,NA,images/tutgreenplanet.jpg,images/tutalien1,images/tutalien2,null,images/tutalien2,images/t.png,NA,practice,null,NA,NA,NA,NA,sub19
d3-animate-choice,41,251259,0.0-41.0,TRUE,TRUE,TRUE,TRUE,"""event"",""trial"",""time""
""fullscreenenter"",""5"",""17045""
","
","
","""event"",""trial"",""time""
""fullscreenenter"",""5"",""17045""
","
",539.440000007744,NA,49,NA,NA,3000,1,NA,NA,images/tutgreenplanet.jpg,images/tutalien1,images/tutalien2,null,images/tutalien2,images/t.png,NA,practice,null,NA,NA,NA,NA,sub19
d3-animate-choice,42,253827,0.0-42.0,TRUE,TRUE,TRUE,TRUE,"""event"",""trial"",""time""
""fullscreenenter"",""5"",""17045""
","
","
","""event"",""trial"",""time""
""fullscreenenter"",""5"",""17045""
","
",563.640000007581,NA,49,NA,NA,3000,1,2259.3699999997625,49,images/tutgreenplanet.jpg,images/tutalien1,images/tutalien2,null,images/tutalien2,images/t.png,NA,practice,null,NA,NA,NA,NA,sub19
d3-animate-choice,43,256799,0.0-43.0,TRUE,TRUE,TRUE,TRUE,"""event"",""trial"",""time""
""fullscreenenter"",""5"",""17045""
","
","
","""event"",""trial"",""time""
""fullscreenenter"",""5"",""17045""
","
",963.835000002291,NA,49,NA,NA,3000,1,NA,NA,images/tutgreenplanet.jpg,images/tutalien1,images/tutalien2,null,images/tutalien2,images/t.png,NA,practice,null,NA,NA,NA,NA,sub19
d3-instructions,44,270051,0.0-44.0,TRUE,TRUE,TRUE,TRUE,"""event"",""trial"",""time""
""fullscreenenter"",""5"",""17045""
","
","
","""event"",""trial"",""time""
""fullscreenenter"",""5"",""17045""
","
",NA,NA,NA,NA,NA,NA,NA,NA,NA,NA,NA,NA,NA,NA,NA,NA,NA,NA,NA,NA,NA,NA,sub19
d3-instructions,45,279059,0.0-45.0,TRUE,TRUE,TRUE,TRUE,"""event"",""trial"",""time""
""fullscreenenter"",""5"",""17045""
","
","
","""event"",""trial"",""time""
""fullscreenenter"",""5"",""17045""
","
",NA,NA,NA,NA,NA,NA,NA,NA,NA,NA,NA,NA,NA,NA,NA,NA,NA,NA,NA,NA,NA,NA,sub19
d3-instructions,46,286794,0.0-46.0,TRUE,TRUE,TRUE,TRUE,"""event"",""trial"",""time""
""fullscreenenter"",""5"",""17045""
","
","
","""event"",""trial"",""time""
""fullscreenenter"",""5"",""17045""
","
",NA,NA,NA,NA,NA,NA,NA,NA,NA,NA,NA,NA,NA,NA,NA,NA,NA,NA,NA,NA,NA,NA,sub19
d3-instructions,47,306180,0.0-47.0,TRUE,TRUE,TRUE,TRUE,"""event"",""trial"",""time""
""fullscreenenter"",""5"",""17045""
","
","
","""event"",""trial"",""time""
""fullscreenenter"",""5"",""17045""
","
",NA,NA,NA,NA,NA,NA,NA,NA,NA,NA,NA,NA,NA,NA,NA,NA,NA,NA,NA,NA,NA,NA,sub19
d3-instructions,48,313436,0.0-48.0,TRUE,TRUE,TRUE,TRUE,"""event"",""trial"",""time""
""fullscreenenter"",""5"",""17045""
","
","
","""event"",""trial"",""time""
""fullscreenenter"",""5"",""17045""
","
",NA,NA,NA,NA,NA,NA,NA,NA,NA,NA,NA,NA,NA,NA,NA,NA,NA,NA,NA,NA,NA,NA,sub19
d3-instructions,49,326532,0.0-49.0,TRUE,TRUE,TRUE,TRUE,"""event"",""trial"",""time""
""fullscreenenter"",""5"",""17045""
","
","
","""event"",""trial"",""time""
""fullscreenenter"",""5"",""17045""
","
",NA,NA,NA,NA,NA,NA,NA,NA,NA,NA,NA,NA,NA,NA,NA,NA,NA,NA,NA,NA,NA,NA,sub19
d3-instructions,50,337532,0.0-50.0,TRUE,TRUE,TRUE,TRUE,"""event"",""trial"",""time""
""fullscreenenter"",""5"",""17045""
","
","
","""event"",""trial"",""time""
""fullscreenenter"",""5"",""17045""
","
",NA,NA,NA,NA,NA,NA,NA,NA,NA,NA,NA,NA,NA,NA,NA,NA,NA,NA,NA,NA,NA,NA,sub19
d3-instructions,51,342789,0.0-51.0,TRUE,TRUE,TRUE,TRUE,"""event"",""trial"",""time""
""fullscreenenter"",""5"",""17045""
","
","
","""event"",""trial"",""time""
""fullscreenenter"",""5"",""17045""
","
",NA,NA,NA,NA,NA,NA,NA,NA,NA,NA,NA,NA,NA,NA,NA,NA,NA,NA,NA,NA,NA,NA,sub19
d3-instructions,52,346109,0.0-52.0,TRUE,TRUE,TRUE,TRUE,"""event"",""trial"",""time""
""fullscreenenter"",""5"",""17045""
","
","
","""event"",""trial"",""time""
""fullscreenenter"",""5"",""17045""
","
",NA,NA,NA,NA,NA,NA,NA,NA,NA,NA,NA,NA,NA,NA,NA,NA,NA,NA,NA,NA,NA,NA,sub19
d3-instructions,53,360933,0.0-53.0,TRUE,TRUE,TRUE,TRUE,"""event"",""trial"",""time""
""fullscreenenter"",""5"",""17045""
","
","
","""event"",""trial"",""time""
""fullscreenenter"",""5"",""17045""
","
",NA,NA,NA,NA,NA,NA,NA,NA,NA,NA,NA,NA,NA,NA,NA,NA,NA,NA,NA,NA,NA,NA,sub19
d3-instructions,54,376189,0.0-54.0,TRUE,TRUE,TRUE,TRUE,"""event"",""trial"",""time""
""fullscreenenter"",""5"",""17045""
","
","
","""event"",""trial"",""time""
""fullscreenenter"",""5"",""17045""
","
",NA,NA,NA,NA,NA,NA,NA,NA,NA,NA,NA,NA,NA,NA,NA,NA,NA,NA,NA,NA,NA,NA,sub19
d3-instructions,55,388870,0.0-55.0,TRUE,TRUE,TRUE,TRUE,"""event"",""trial"",""time""
""fullscreenenter"",""5"",""17045""
","
","
","""event"",""trial"",""time""
""fullscreenenter"",""5"",""17045""
","
",NA,NA,NA,NA,NA,NA,NA,NA,NA,NA,NA,NA,NA,NA,NA,NA,NA,NA,NA,NA,NA,NA,sub19
d3-instructions,56,397871,0.0-56.0,TRUE,TRUE,TRUE,TRUE,"""event"",""trial"",""time""
""fullscreenenter"",""5"",""17045""
","
","
","""event"",""trial"",""time""
""fullscreenenter"",""5"",""17045""
","
",NA,NA,NA,NA,NA,NA,NA,NA,NA,NA,NA,NA,NA,NA,NA,NA,NA,NA,NA,NA,NA,NA,sub19
d3-instructions,57,407509,0.0-57.0,TRUE,TRUE,TRUE,TRUE,"""event"",""trial"",""time""
""fullscreenenter"",""5"",""17045""
","
","
","""event"",""trial"",""time""
""fullscreenenter"",""5"",""17045""
","
",NA,NA,NA,NA,NA,NA,NA,NA,NA,NA,NA,NA,NA,NA,NA,NA,NA,NA,NA,NA,NA,NA,sub19
d3-instructions,58,419317,0.0-58.0,TRUE,TRUE,TRUE,TRUE,"""event"",""trial"",""time""
""fullscreenenter"",""5"",""17045""
","
","
","""event"",""trial"",""time""
""fullscreenenter"",""5"",""17045""
","
",NA,NA,NA,NA,NA,NA,NA,NA,NA,NA,NA,NA,NA,NA,NA,NA,NA,NA,NA,NA,NA,NA,sub19
d3-instructions,59,427317,0.0-59.0,TRUE,TRUE,TRUE,TRUE,"""event"",""trial"",""time""
""fullscreenenter"",""5"",""17045""
","
","
","""event"",""trial"",""time""
""fullscreenenter"",""5"",""17045""
","
",NA,NA,NA,NA,NA,NA,NA,NA,NA,NA,NA,NA,NA,NA,NA,NA,NA,NA,NA,NA,NA,NA,sub19
d3-instructions,60,436109,0.0-60.0,TRUE,TRUE,TRUE,TRUE,"""event"",""trial"",""time""
""fullscreenenter"",""5"",""17045""
","
","
","""event"",""trial"",""time""
""fullscreenenter"",""5"",""17045""
","
",NA,NA,NA,NA,NA,NA,NA,NA,NA,NA,NA,NA,NA,NA,NA,NA,NA,NA,NA,NA,NA,NA,sub19
d3-animate-choice,61,438895,0.0-61.0-0.0,TRUE,TRUE,TRUE,TRUE,"""event"",""trial"",""time""
""fullscreenenter"",""5"",""17045""
","
","
","""event"",""trial"",""time""
""fullscreenenter"",""5"",""17045""
","
",779.3400000082329,NA,49,NA,NA,3000,1,NA,NA,images/earth.jpg,images/tutrocket2,images/tutrocket1,null,images/tutrocket1,NA,1,practice,null,1,NA,NA,NA,sub19
d3-animate-choice,62,442083,0.0-61.0-1.0,TRUE,TRUE,TRUE,TRUE,"""event"",""trial"",""time""
""fullscreenenter"",""5"",""17045""
","
","
","""event"",""trial"",""time""
""fullscreenenter"",""5"",""17045""
","
",1176.4300000068033,NA,49,NA,NA,3000,1,NA,NA,images/tutgreenplanet.jpg,images/tutalien2,images/tutalien1,images/tutrocket1,images/tutalien1,images/nothing.png,2,practice,true,1,common,0,2020-06-08T19:07:04Z,sub19
two-step-fixation,63,443093,0.0-61.0-2.0,TRUE,TRUE,TRUE,TRUE,"""event"",""trial"",""time""
""fullscreenenter"",""5"",""17045""
","
","
","""event"",""trial"",""time""
""fullscreenenter"",""5"",""17045""
","
",NA,images/earth.jpg,NA,NA,NA,NA,NA,NA,NA,NA,NA,NA,NA,NA,NA,fixation,NA,NA,NA,NA,NA,NA,sub19
d3-animate-choice,64,447103,0.0-61.0-0.1,TRUE,TRUE,TRUE,TRUE,"""event"",""trial"",""time""
""fullscreenenter"",""5"",""17045""
","
","
","""event"",""trial"",""time""
""fullscreenenter"",""5"",""17045""
","
",3415.64500000095,NA,49,NA,NA,3000,0,NA,NA,images/earth.jpg,images/tutrocket2,images/tutrocket1,null,NA,NA,1,practice,null,1,NA,NA,NA,sub19
d3-animate-choice,65,448112,0.0-61.0-1.1,TRUE,TRUE,TRUE,TRUE,"""event"",""trial"",""time""
""fullscreenenter"",""5"",""17045""
","
","
","""event"",""trial"",""time""
""fullscreenenter"",""5"",""17045""
","
",null,NA,null,NA,NA,0,0,NA,NA,images/earth.jpg,images/tutrocket2,images/tutrocket1,null,NA,NA,2,practice,null,NA,NA,0,2020-06-08T19:07:10Z,sub19
two-step-fixation,66,449114,0.0-61.0-2.1,TRUE,TRUE,TRUE,TRUE,"""event"",""trial"",""time""
""fullscreenenter"",""5"",""17045""
","
","
","""event"",""trial"",""time""
""fullscreenenter"",""5"",""17045""
","
",NA,images/earth.jpg,NA,NA,NA,NA,NA,NA,NA,NA,NA,NA,NA,NA,NA,fixation,NA,NA,NA,NA,NA,NA,sub19
d3-animate-choice,67,451784,0.0-61.0-0.2,TRUE,TRUE,TRUE,TRUE,"""event"",""trial"",""time""
""fullscreenenter"",""5"",""17045""
","
","
","""event"",""trial"",""time""
""fullscreenenter"",""5"",""17045""
","
",664.3749999930151,NA,49,NA,NA,3000,1,NA,NA,images/earth.jpg,images/tutrocket2,images/tutrocket1,null,images/tutrocket1,NA,1,practice,null,1,NA,NA,NA,sub19
d3-animate-choice,68,454863,0.0-61.0-1.2,TRUE,TRUE,TRUE,TRUE,"""event"",""trial"",""time""
""fullscreenenter"",""5"",""17045""
","
","
","""event"",""trial"",""time""
""fullscreenenter"",""5"",""17045""
","
",1072.67999999749,NA,49,NA,NA,3000,1,NA,NA,images/tutgreenplanet.jpg,images/tutalien2,images/tutalien1,images/tutrocket1,images/tutalien1,images/nothing.png,2,practice,true,1,common,0,2020-06-08T19:07:17Z,sub19
two-step-fixation,69,455871,0.0-61.0-2.2,TRUE,TRUE,TRUE,TRUE,"""event"",""trial"",""time""
""fullscreenenter"",""5"",""17045""
","
","
","""event"",""trial"",""time""
""fullscreenenter"",""5"",""17045""
","
",NA,images/earth.jpg,NA,NA,NA,NA,NA,NA,NA,NA,NA,NA,NA,NA,NA,fixation,NA,NA,NA,NA,NA,NA,sub19
d3-animate-choice,70,459882,0.0-61.0-0.3,TRUE,TRUE,TRUE,TRUE,"""event"",""trial"",""time""
""fullscreenenter"",""5"",""17045""
","
","
","""event"",""trial"",""time""
""fullscreenenter"",""5"",""17045""
","
",2026.7400000011548,NA,49,NA,NA,3000,1,NA,NA,images/earth.jpg,images/tutrocket2,images/tutrocket1,null,images/tutrocket1,NA,1,practice,null,1,NA,NA,NA,sub19
d3-animate-choice,71,462394,0.0-61.0-1.3,TRUE,TRUE,TRUE,TRUE,"""event"",""trial"",""time""
""fullscreenenter"",""5"",""17045""
","
","
","""event"",""trial"",""time""
""fullscreenenter"",""5"",""17045""
","
",504.13499999558553,NA,48,NA,NA,3000,1,NA,NA,images/tutyellowplanet.jpg,images/tutalien4,images/tutalien3,images/tutrocket1,images/tutalien4,images/nothing.png,2,practice,false,2,rare,0,2020-06-08T19:07:25Z,sub19
two-step-fixation,72,463398,0.0-61.0-2.3,TRUE,TRUE,TRUE,TRUE,"""event"",""trial"",""time""
""fullscreenenter"",""5"",""17045""
","
","
","""event"",""trial"",""time""
""fullscreenenter"",""5"",""17045""
","
",NA,images/earth.jpg,NA,NA,NA,NA,NA,NA,NA,NA,NA,NA,NA,NA,NA,fixation,NA,NA,NA,NA,NA,NA,sub19
d3-animate-choice,73,467405,0.0-61.0-0.4,TRUE,TRUE,TRUE,TRUE,"""event"",""trial"",""time""
""fullscreenenter"",""5"",""17045""
","
","
","""event"",""trial"",""time""
""fullscreenenter"",""5"",""17045""
","
",3109.484999993583,NA,48,NA,NA,3000,0,NA,NA,images/earth.jpg,images/tutrocket2,images/tutrocket1,null,NA,NA,1,practice,null,2,NA,NA,NA,sub19
d3-animate-choice,74,468414,0.0-61.0-1.4,TRUE,TRUE,TRUE,TRUE,"""event"",""trial"",""time""
""fullscreenenter"",""5"",""17045""
","
","
","""event"",""trial"",""time""
""fullscreenenter"",""5"",""17045""
","
",null,NA,null,NA,NA,0,0,NA,NA,images/earth.jpg,images/tutrocket2,images/tutrocket1,null,NA,NA,2,practice,null,NA,NA,0,2020-06-08T19:07:31Z,sub19
two-step-fixation,75,469420,0.0-61.0-2.4,TRUE,TRUE,TRUE,TRUE,"""event"",""trial"",""time""
""fullscreenenter"",""5"",""17045""
","
","
","""event"",""trial"",""time""
""fullscreenenter"",""5"",""17045""
","
",NA,images/earth.jpg,NA,NA,NA,NA,NA,NA,NA,NA,NA,NA,NA,NA,NA,fixation,NA,NA,NA,NA,NA,NA,sub19
d3-animate-choice,76,472009,0.0-61.0-0.5,TRUE,TRUE,TRUE,TRUE,"""event"",""trial"",""time""
""fullscreenenter"",""5"",""17045""
","
","
","""event"",""trial"",""time""
""fullscreenenter"",""5"",""17045""
","
",583.7050000118325,NA,48,NA,NA,3000,1,NA,NA,images/earth.jpg,images/tutrocket2,images/tutrocket1,null,images/tutrocket2,NA,1,practice,null,2,NA,NA,NA,sub19
d3-animate-choice,77,475015,0.0-61.0-1.5,TRUE,TRUE,TRUE,TRUE,"""event"",""trial"",""time""
""fullscreenenter"",""5"",""17045""
","
","
","""event"",""trial"",""time""
""fullscreenenter"",""5"",""17045""
","
",1001.4899999951012,NA,48,NA,NA,3000,1,NA,NA,images/tutyellowplanet.jpg,images/tutalien4,images/tutalien3,images/tutrocket2,images/tutalien4,images/nothing.png,2,practice,true,2,common,0,2020-06-08T19:07:37Z,sub19
two-step-fixation,78,476023,0.0-61.0-2.5,TRUE,TRUE,TRUE,TRUE,"""event"",""trial"",""time""
""fullscreenenter"",""5"",""17045""
","
","
","""event"",""trial"",""time""
""fullscreenenter"",""5"",""17045""
","
",NA,images/earth.jpg,NA,NA,NA,NA,NA,NA,NA,NA,NA,NA,NA,NA,NA,fixation,NA,NA,NA,NA,NA,NA,sub19
d3-animate-choice,79,479116,0.0-61.0-0.6,TRUE,TRUE,TRUE,TRUE,"""event"",""trial"",""time""
""fullscreenenter"",""5"",""17045""
","
","
","""event"",""trial"",""time""
""fullscreenenter"",""5"",""17045""
","
",1083.7250000040513,NA,49,NA,NA,3000,1,NA,NA,images/earth.jpg,images/tutrocket2,images/tutrocket1,null,images/tutrocket1,NA,1,practice,null,1,NA,NA,NA,sub19
d3-animate-choice,80,481677,0.0-61.0-1.6,TRUE,TRUE,TRUE,TRUE,"""event"",""trial"",""time""
""fullscreenenter"",""5"",""17045""
","
","
","""event"",""trial"",""time""
""fullscreenenter"",""5"",""17045""
","
",550.7300000026589,NA,48,NA,NA,3000,1,NA,NA,images/tutgreenplanet.jpg,images/tutalien2,images/tutalien1,images/tutrocket1,images/tutalien2,images/nothing.png,2,practice,true,2,common,0,2020-06-08T19:07:44Z,sub19
two-step-fixation,81,482684,0.0-61.0-2.6,TRUE,TRUE,TRUE,TRUE,"""event"",""trial"",""time""
""fullscreenenter"",""5"",""17045""
","
","
","""event"",""trial"",""time""
""fullscreenenter"",""5"",""17045""
","
",NA,images/earth.jpg,NA,NA,NA,NA,NA,NA,NA,NA,NA,NA,NA,NA,NA,fixation,NA,NA,NA,NA,NA,NA,sub19
d3-animate-choice,82,485627,0.0-61.0-0.7,TRUE,TRUE,TRUE,TRUE,"""event"",""trial"",""time""
""fullscreenenter"",""5"",""17045""
","
","
","""event"",""trial"",""time""
""fullscreenenter"",""5"",""17045""
","
",935.4200000088895,NA,48,NA,NA,3000,1,NA,NA,images/earth.jpg,images/tutrocket2,images/tutrocket1,null,images/tutrocket2,NA,1,practice,null,2,NA,NA,NA,sub19
d3-animate-choice,83,488196,0.0-61.0-1.7,TRUE,TRUE,TRUE,TRUE,"""event"",""trial"",""time""
""fullscreenenter"",""5"",""17045""
","
","
","""event"",""trial"",""time""
""fullscreenenter"",""5"",""17045""
","
",560.1499999902444,NA,49,NA,NA,3000,1,NA,NA,images/tutyellowplanet.jpg,images/tutalien4,images/tutalien3,images/tutrocket2,images/tutalien3,images/t.png,2,practice,true,1,common,1,2020-06-08T19:07:50Z,sub19
two-step-fixation,84,489201,0.0-61.0-2.7,TRUE,TRUE,TRUE,TRUE,"""event"",""trial"",""time""
""fullscreenenter"",""5"",""17045""
","
","
","""event"",""trial"",""time""
""fullscreenenter"",""5"",""17045""
","
",NA,images/earth.jpg,NA,NA,NA,NA,NA,NA,NA,NA,NA,NA,NA,NA,NA,fixation,NA,NA,NA,NA,NA,NA,sub19
d3-animate-choice,85,491649,0.0-61.0-0.8,TRUE,TRUE,TRUE,TRUE,"""event"",""trial"",""time""
""fullscreenenter"",""5"",""17045""
","
","
","""event"",""trial"",""time""
""fullscreenenter"",""5"",""17045""
","
",441.69500000134576,NA,48,NA,NA,3000,1,NA,NA,images/earth.jpg,images/tutrocket2,images/tutrocket1,null,images/tutrocket2,NA,1,practice,null,2,NA,NA,NA,sub19
d3-animate-choice,86,494585,0.0-61.0-1.8,TRUE,TRUE,TRUE,TRUE,"""event"",""trial"",""time""
""fullscreenenter"",""5"",""17045""
","
","
","""event"",""trial"",""time""
""fullscreenenter"",""5"",""17045""
","
",929.1649999941001,NA,49,NA,NA,3000,1,NA,NA,images/tutyellowplanet.jpg,images/tutalien4,images/tutalien3,images/tutrocket2,images/tutalien3,images/nothing.png,2,practice,true,1,common,0,2020-06-08T19:07:57Z,sub19
two-step-fixation,87,495591,0.0-61.0-2.8,TRUE,TRUE,TRUE,TRUE,"""event"",""trial"",""time""
""fullscreenenter"",""5"",""17045""
","
","
","""event"",""trial"",""time""
""fullscreenenter"",""5"",""17045""
","
",NA,images/earth.jpg,NA,NA,NA,NA,NA,NA,NA,NA,NA,NA,NA,NA,NA,fixation,NA,NA,NA,NA,NA,NA,sub19
d3-animate-choice,88,498178,0.0-61.0-0.9,TRUE,TRUE,TRUE,TRUE,"""event"",""trial"",""time""
""fullscreenenter"",""5"",""17045""
","
","
","""event"",""trial"",""time""
""fullscreenenter"",""5"",""17045""
","
",579.939999995986,NA,49,NA,NA,3000,1,NA,NA,images/earth.jpg,images/tutrocket2,images/tutrocket1,null,images/tutrocket1,NA,1,practice,null,1,NA,NA,NA,sub19
d3-animate-choice,89,500594,0.0-61.0-1.9,TRUE,TRUE,TRUE,TRUE,"""event"",""trial"",""time""
""fullscreenenter"",""5"",""17045""
","
","
","""event"",""trial"",""time""
""fullscreenenter"",""5"",""17045""
","
",409.0649999998277,NA,48,NA,NA,3000,1,NA,NA,images/tutgreenplanet.jpg,images/tutalien2,images/tutalien1,images/tutrocket1,images/tutalien2,images/nothing.png,2,practice,true,2,common,0,2020-06-08T19:08:03Z,sub19
two-step-fixation,90,501600,0.0-61.0-2.9,TRUE,TRUE,TRUE,TRUE,"""event"",""trial"",""time""
""fullscreenenter"",""5"",""17045""
","
","
","""event"",""trial"",""time""
""fullscreenenter"",""5"",""17045""
","
",NA,images/earth.jpg,NA,NA,NA,NA,NA,NA,NA,NA,NA,NA,NA,NA,NA,fixation,NA,NA,NA,NA,NA,NA,sub19
d3-animate-choice,91,504117,0.0-61.0-0.10,TRUE,TRUE,TRUE,TRUE,"""event"",""trial"",""time""
""fullscreenenter"",""5"",""17045""
","
","
","""event"",""trial"",""time""
""fullscreenenter"",""5"",""17045""
","
",507.354999994277,NA,49,NA,NA,3000,1,NA,NA,images/earth.jpg,images/tutrocket2,images/tutrocket1,null,images/tutrocket1,NA,1,practice,null,1,NA,NA,NA,sub19
d3-animate-choice,92,506685,0.0-61.0-1.10,TRUE,TRUE,TRUE,TRUE,"""event"",""trial"",""time""
""fullscreenenter"",""5"",""17045""
","
","
","""event"",""trial"",""time""
""fullscreenenter"",""5"",""17045""
","
",557.9350000043632,NA,48,NA,NA,3000,1,NA,NA,images/tutgreenplanet.jpg,images/tutalien2,images/tutalien1,images/tutrocket1,images/tutalien2,images/nothing.png,2,practice,true,2,common,0,2020-06-08T19:08:09Z,sub19
two-step-fixation,93,507693,0.0-61.0-2.10,TRUE,TRUE,TRUE,TRUE,"""event"",""trial"",""time""
""fullscreenenter"",""5"",""17045""
","
","
","""event"",""trial"",""time""
""fullscreenenter"",""5"",""17045""
","
",NA,images/earth.jpg,NA,NA,NA,NA,NA,NA,NA,NA,NA,NA,NA,NA,NA,fixation,NA,NA,NA,NA,NA,NA,sub19
d3-animate-choice,94,510109,0.0-61.0-0.11,TRUE,TRUE,TRUE,TRUE,"""event"",""trial"",""time""
""fullscreenenter"",""5"",""17045""
","
","
","""event"",""trial"",""time""
""fullscreenenter"",""5"",""17045""
","
",406.61499999987427,NA,49,NA,NA,3000,1,NA,NA,images/earth.jpg,images/tutrocket2,images/tutrocket1,null,images/tutrocket1,NA,1,practice,null,1,NA,NA,NA,sub19
d3-animate-choice,95,512824,0.0-61.0-1.11,TRUE,TRUE,TRUE,TRUE,"""event"",""trial"",""time""
""fullscreenenter"",""5"",""17045""
","
","
","""event"",""trial"",""time""
""fullscreenenter"",""5"",""17045""
","
",710.2699999959441,NA,48,NA,NA,3000,1,NA,NA,images/tutyellowplanet.jpg,images/tutalien4,images/tutalien3,images/tutrocket1,images/tutalien4,images/nothing.png,2,practice,false,2,rare,0,2020-06-08T19:08:15Z,sub19
two-step-fixation,96,513832,0.0-61.0-2.11,TRUE,TRUE,TRUE,TRUE,"""event"",""trial"",""time""
""fullscreenenter"",""5"",""17045""
","
","
","""event"",""trial"",""time""
""fullscreenenter"",""5"",""17045""
","
",NA,images/earth.jpg,NA,NA,NA,NA,NA,NA,NA,NA,NA,NA,NA,NA,NA,fixation,NA,NA,NA,NA,NA,NA,sub19
d3-animate-choice,97,516450,0.0-61.0-0.12,TRUE,TRUE,TRUE,TRUE,"""event"",""trial"",""time""
""fullscreenenter"",""5"",""17045""
","
","
","""event"",""trial"",""time""
""fullscreenenter"",""5"",""17045""
","
",611.8200000055367,NA,49,NA,NA,3000,1,NA,NA,images/earth.jpg,images/tutrocket2,images/tutrocket1,null,images/tutrocket1,NA,1,practice,null,1,NA,NA,NA,sub19
d3-animate-choice,98,519011,0.0-61.0-1.12,TRUE,TRUE,TRUE,TRUE,"""event"",""trial"",""time""
""fullscreenenter"",""5"",""17045""
","
","
","""event"",""trial"",""time""
""fullscreenenter"",""5"",""17045""
","
",553.4800000023097,NA,48,NA,NA,3000,1,NA,NA,images/tutgreenplanet.jpg,images/tutalien2,images/tutalien1,images/tutrocket1,images/tutalien2,images/t.png,2,practice,true,2,common,1,2020-06-08T19:08:21Z,sub19
two-step-fixation,99,520017,0.0-61.0-2.12,TRUE,TRUE,TRUE,TRUE,"""event"",""trial"",""time""
""fullscreenenter"",""5"",""17045""
","
","
","""event"",""trial"",""time""
""fullscreenenter"",""5"",""17045""
","
",NA,images/earth.jpg,NA,NA,NA,NA,NA,NA,NA,NA,NA,NA,NA,NA,NA,fixation,NA,NA,NA,NA,NA,NA,sub19
d3-animate-choice,100,522514,0.0-61.0-0.13,TRUE,TRUE,TRUE,TRUE,"""event"",""trial"",""time""
""fullscreenenter"",""5"",""17045""
","
","
","""event"",""trial"",""time""
""fullscreenenter"",""5"",""17045""
","
",491.21500000183005,NA,49,NA,NA,3000,1,NA,NA,images/earth.jpg,images/tutrocket2,images/tutrocket1,null,images/tutrocket1,NA,1,practice,null,1,NA,NA,NA,sub19
d3-animate-choice,101,524993,0.0-61.0-1.13,TRUE,TRUE,TRUE,TRUE,"""event"",""trial"",""time""
""fullscreenenter"",""5"",""17045""
","
","
","""event"",""trial"",""time""
""fullscreenenter"",""5"",""17045""
","
",473.51999999955297,NA,48,NA,NA,3000,1,NA,NA,images/tutgreenplanet.jpg,images/tutalien2,images/tutalien1,images/tutrocket1,images/tutalien2,images/t.png,2,practice,true,2,common,1,2020-06-08T19:08:27Z,sub19
two-step-fixation,102,525997,0.0-61.0-2.13,TRUE,TRUE,TRUE,TRUE,"""event"",""trial"",""time""
""fullscreenenter"",""5"",""17045""
","
","
","""event"",""trial"",""time""
""fullscreenenter"",""5"",""17045""
","
",NA,images/earth.jpg,NA,NA,NA,NA,NA,NA,NA,NA,NA,NA,NA,NA,NA,fixation,NA,NA,NA,NA,NA,NA,sub19
d3-animate-choice,103,528523,0.0-61.0-0.14,TRUE,TRUE,TRUE,TRUE,"""event"",""trial"",""time""
""fullscreenenter"",""5"",""17045""
","
","
","""event"",""trial"",""time""
""fullscreenenter"",""5"",""17045""
","
",518.884999997681,NA,49,NA,NA,3000,1,NA,NA,images/earth.jpg,images/tutrocket2,images/tutrocket1,null,images/tutrocket1,NA,1,practice,null,1,NA,NA,NA,sub19
d3-animate-choice,104,531065,0.0-61.0-1.14,TRUE,TRUE,TRUE,TRUE,"""event"",""trial"",""time""
""fullscreenenter"",""5"",""17045""
","
","
","""event"",""trial"",""time""
""fullscreenenter"",""5"",""17045""
","
",536.1299999931362,NA,48,NA,NA,3000,1,NA,NA,images/tutyellowplanet.jpg,images/tutalien4,images/tutalien3,images/tutrocket1,images/tutalien4,images/nothing.png,2,practice,false,2,rare,0,2020-06-08T19:08:33Z,sub19
two-step-fixation,105,532069,0.0-61.0-2.14,TRUE,TRUE,TRUE,TRUE,"""event"",""trial"",""time""
""fullscreenenter"",""5"",""17045""
","
","
","""event"",""trial"",""time""
""fullscreenenter"",""5"",""17045""
","
",NA,images/earth.jpg,NA,NA,NA,NA,NA,NA,NA,NA,NA,NA,NA,NA,NA,fixation,NA,NA,NA,NA,NA,NA,sub19
d3-animate-choice,106,534638,0.0-61.0-0.15,TRUE,TRUE,TRUE,TRUE,"""event"",""trial"",""time""
""fullscreenenter"",""5"",""17045""
","
","
","""event"",""trial"",""time""
""fullscreenenter"",""5"",""17045""
","
",559.4750000018394,NA,49,NA,NA,3000,1,NA,NA,images/earth.jpg,images/tutrocket2,images/tutrocket1,null,images/tutrocket1,NA,1,practice,null,1,NA,NA,NA,sub19
d3-animate-choice,107,537332,0.0-61.0-1.15,TRUE,TRUE,TRUE,TRUE,"""event"",""trial"",""time""
""fullscreenenter"",""5"",""17045""
","
","
","""event"",""trial"",""time""
""fullscreenenter"",""5"",""17045""
","
",684.3400000070687,NA,48,NA,NA,3000,1,NA,NA,images/tutgreenplanet.jpg,images/tutalien2,images/tutalien1,images/tutrocket1,images/tutalien2,images/nothing.png,2,practice,true,2,common,0,2020-06-08T19:08:39Z,sub19
two-step-fixation,108,538337,0.0-61.0-2.15,TRUE,TRUE,TRUE,TRUE,"""event"",""trial"",""time""
""fullscreenenter"",""5"",""17045""
","
","
","""event"",""trial"",""time""
""fullscreenenter"",""5"",""17045""
","
",NA,images/earth.jpg,NA,NA,NA,NA,NA,NA,NA,NA,NA,NA,NA,NA,NA,fixation,NA,NA,NA,NA,NA,NA,sub19
d3-animate-choice,109,541082,0.0-61.0-0.16,TRUE,TRUE,TRUE,TRUE,"""event"",""trial"",""time""
""fullscreenenter"",""5"",""17045""
","
","
","""event"",""trial"",""time""
""fullscreenenter"",""5"",""17045""
","
",739.5200000028126,NA,49,NA,NA,3000,1,NA,NA,images/earth.jpg,images/tutrocket2,images/tutrocket1,null,images/tutrocket1,NA,1,practice,null,1,NA,NA,NA,sub19
d3-animate-choice,110,543550,0.0-61.0-1.16,TRUE,TRUE,TRUE,TRUE,"""event"",""trial"",""time""
""fullscreenenter"",""5"",""17045""
","
","
","""event"",""trial"",""time""
""fullscreenenter"",""5"",""17045""
","
",457.80000000377186,NA,48,NA,NA,3000,1,NA,NA,images/tutyellowplanet.jpg,images/tutalien4,images/tutalien3,images/tutrocket1,images/tutalien4,images/t.png,2,practice,false,2,rare,1,2020-06-08T19:08:46Z,sub19
two-step-fixation,111,544554,0.0-61.0-2.16,TRUE,TRUE,TRUE,TRUE,"""event"",""trial"",""time""
""fullscreenenter"",""5"",""17045""
","
","
","""event"",""trial"",""time""
""fullscreenenter"",""5"",""17045""
","
",NA,images/earth.jpg,NA,NA,NA,NA,NA,NA,NA,NA,NA,NA,NA,NA,NA,fixation,NA,NA,NA,NA,NA,NA,sub19
d3-animate-choice,112,547083,0.0-61.0-0.17,TRUE,TRUE,TRUE,TRUE,"""event"",""trial"",""time""
""fullscreenenter"",""5"",""17045""
","
","
","""event"",""trial"",""time""
""fullscreenenter"",""5"",""17045""
","
",522.9499999986729,NA,49,NA,NA,3000,1,NA,NA,images/earth.jpg,images/tutrocket2,images/tutrocket1,null,images/tutrocket1,NA,1,practice,null,1,NA,NA,NA,sub19
d3-animate-choice,113,549662,0.0-61.0-1.17,TRUE,TRUE,TRUE,TRUE,"""event"",""trial"",""time""
""fullscreenenter"",""5"",""17045""
","
","
","""event"",""trial"",""time""
""fullscreenenter"",""5"",""17045""
","
",569.9000000022352,NA,48,NA,NA,3000,1,NA,NA,images/tutgreenplanet.jpg,images/tutalien2,images/tutalien1,images/tutrocket1,images/tutalien2,images/nothing.png,2,practice,true,2,common,0,2020-06-08T19:08:52Z,sub19
two-step-fixation,114,550669,0.0-61.0-2.17,TRUE,TRUE,TRUE,TRUE,"""event"",""trial"",""time""
""fullscreenenter"",""5"",""17045""
","
","
","""event"",""trial"",""time""
""fullscreenenter"",""5"",""17045""
","
",NA,images/earth.jpg,NA,NA,NA,NA,NA,NA,NA,NA,NA,NA,NA,NA,NA,fixation,NA,NA,NA,NA,NA,NA,sub19
d3-animate-choice,115,553186,0.0-61.0-0.18,TRUE,TRUE,TRUE,TRUE,"""event"",""trial"",""time""
""fullscreenenter"",""5"",""17045""
","
","
","""event"",""trial"",""time""
""fullscreenenter"",""5"",""17045""
","
",511.30499999271706,NA,49,NA,NA,3000,1,NA,NA,images/earth.jpg,images/tutrocket2,images/tutrocket1,null,images/tutrocket1,NA,1,practice,null,1,NA,NA,NA,sub19
d3-animate-choice,116,556186,0.0-61.0-1.18,TRUE,TRUE,TRUE,TRUE,"""event"",""trial"",""time""
""fullscreenenter"",""5"",""17045""
","
","
","""event"",""trial"",""time""
""fullscreenenter"",""5"",""17045""
","
",994.2449999944074,NA,49,NA,NA,3000,1,NA,NA,images/tutyellowplanet.jpg,images/tutalien4,images/tutalien3,images/tutrocket1,images/tutalien3,images/nothing.png,2,practice,false,1,rare,0,2020-06-08T19:08:58Z,sub19
two-step-fixation,117,557191,0.0-61.0-2.18,TRUE,TRUE,TRUE,TRUE,"""event"",""trial"",""time""
""fullscreenenter"",""5"",""17045""
","
","
","""event"",""trial"",""time""
""fullscreenenter"",""5"",""17045""
","
",NA,images/earth.jpg,NA,NA,NA,NA,NA,NA,NA,NA,NA,NA,NA,NA,NA,fixation,NA,NA,NA,NA,NA,NA,sub19
d3-animate-choice,118,560301,0.0-61.0-0.19,TRUE,TRUE,TRUE,TRUE,"""event"",""trial"",""time""
""fullscreenenter"",""5"",""17045""
","
","
","""event"",""trial"",""time""
""fullscreenenter"",""5"",""17045""
","
",1102.1349999937229,NA,49,NA,NA,3000,1,NA,NA,images/earth.jpg,images/tutrocket2,images/tutrocket1,null,images/tutrocket1,NA,1,practice,null,1,NA,NA,NA,sub19
d3-animate-choice,119,562947,0.0-61.0-1.19,TRUE,TRUE,TRUE,TRUE,"""event"",""trial"",""time""
""fullscreenenter"",""5"",""17045""
","
","
","""event"",""trial"",""time""
""fullscreenenter"",""5"",""17045""
","
",639.8349999944912,NA,48,NA,NA,3000,1,NA,NA,images/tutgreenplanet.jpg,images/tutalien2,images/tutalien1,images/tutrocket1,images/tutalien2,images/t.png,2,practice,true,2,common,1,2020-06-08T19:09:05Z,sub19
two-step-fixation,120,563952,0.0-61.0-2.19,TRUE,TRUE,TRUE,TRUE,"""event"",""trial"",""time""
""fullscreenenter"",""5"",""17045""
","
","
","""event"",""trial"",""time""
""fullscreenenter"",""5"",""17045""
","
",NA,images/earth.jpg,NA,NA,NA,NA,NA,NA,NA,NA,NA,NA,NA,NA,NA,fixation,NA,NA,NA,NA,NA,NA,sub19
d3-instructions,121,571736,0.0-62.0,TRUE,TRUE,TRUE,TRUE,"""event"",""trial"",""time""
""fullscreenenter"",""5"",""17045""
","
","
","""event"",""trial"",""time""
""fullscreenenter"",""5"",""17045""
","
",NA,NA,NA,NA,NA,NA,NA,NA,NA,NA,NA,NA,NA,NA,NA,NA,NA,NA,NA,NA,NA,NA,sub19
audio-keyboard-response,122,576521,0.0-63.0,TRUE,TRUE,TRUE,TRUE,"""event"",""trial"",""time""
""fullscreenenter"",""5"",""17045""
","
","
","""event"",""trial"",""time""
""fullscreenenter"",""5"",""17045""
","
",4784,audio/instructions/treasure_feedback.wav,32,NA,NA,NA,NA,NA,NA,NA,NA,NA,NA,NA,NA,NA,NA,NA,NA,NA,NA,NA,sub19
d3-instructions,123,597234,0.0-64.0,TRUE,TRUE,TRUE,TRUE,"""event"",""trial"",""time""
""fullscreenenter"",""5"",""17045""
","
","
","""event"",""trial"",""time""
""fullscreenenter"",""5"",""17045""
","
",NA,NA,NA,NA,NA,NA,NA,NA,NA,NA,NA,NA,NA,NA,NA,NA,NA,NA,NA,NA,NA,NA,sub19
d3-instructions,124,611202,0.0-65.0,TRUE,TRUE,TRUE,TRUE,"""event"",""trial"",""time""
""fullscreenenter"",""5"",""17045""
","
","
","""event"",""trial"",""time""
""fullscreenenter"",""5"",""17045""
","
",NA,NA,NA,NA,NA,NA,NA,NA,NA,NA,NA,NA,NA,NA,NA,NA,NA,NA,NA,NA,NA,NA,sub19
d3-instructions,125,635963,0.0-66.0,TRUE,TRUE,TRUE,TRUE,"""event"",""trial"",""time""
""fullscreenenter"",""5"",""17045""
","
","
","""event"",""trial"",""time""
""fullscreenenter"",""5"",""17045""
","
",NA,NA,NA,NA,NA,NA,NA,NA,NA,NA,NA,NA,NA,NA,NA,NA,NA,NA,NA,NA,NA,NA,sub19
d3-instructions,126,654395,0.0-67.0,TRUE,TRUE,TRUE,TRUE,"""event"",""trial"",""time""
""fullscreenenter"",""5"",""17045""
","
","
","""event"",""trial"",""time""
""fullscreenenter"",""5"",""17045""
","
",NA,NA,NA,NA,NA,NA,NA,NA,NA,NA,NA,NA,NA,NA,NA,NA,NA,NA,NA,NA,NA,NA,sub19
d3-instructions,127,663249,0.0-68.0,TRUE,TRUE,TRUE,TRUE,"""event"",""trial"",""time""
""fullscreenenter"",""5"",""17045""
","
","
","""event"",""trial"",""time""
""fullscreenenter"",""5"",""17045""
","
",NA,NA,NA,NA,NA,NA,NA,NA,NA,NA,NA,NA,NA,NA,NA,NA,NA,NA,NA,NA,NA,NA,sub19
instructions-quiz,128,667953,0.0-69.0,TRUE,TRUE,TRUE,TRUE,"""event"",""trial"",""time""
""fullscreenenter"",""5"",""17045""
","
","
","""event"",""trial"",""time""
""fullscreenenter"",""5"",""17045""
","
",4700.775000004796,audio/quiz/Q1_Prompt.wav,NA,1,NA,NA,NA,NA,NA,NA,NA,NA,NA,NA,NA,NA,NA,NA,NA,NA,NA,NA,sub19
audio-keyboard-response,129,677123,0.0-70.0,TRUE,TRUE,TRUE,TRUE,"""event"",""trial"",""time""
""fullscreenenter"",""5"",""17045""
","
","
","""event"",""trial"",""time""
""fullscreenenter"",""5"",""17045""
","
",null,audio/quiz/Q1_Correct.wav,null,NA,NA,NA,NA,NA,NA,NA,NA,NA,NA,NA,NA,NA,NA,NA,NA,NA,NA,NA,sub19
instructions-quiz,130,683672,0.0-71.0,TRUE,TRUE,TRUE,TRUE,"""event"",""trial"",""time""
""fullscreenenter"",""5"",""17045""
","
","
","""event"",""trial"",""time""
""fullscreenenter"",""5"",""17045""
","
",6546.940000000177,audio/quiz/Q2_Prompt.wav,NA,0,NA,NA,NA,NA,NA,NA,NA,NA,NA,NA,NA,NA,NA,NA,NA,NA,NA,NA,sub19
audio-keyboard-response,131,696542,0.0-72.0,TRUE,TRUE,TRUE,TRUE,"""event"",""trial"",""time""
""fullscreenenter"",""5"",""17045""
","
","
","""event"",""trial"",""time""
""fullscreenenter"",""5"",""17045""
","
",null,audio/quiz/Q2_Correct.wav,null,NA,NA,NA,NA,NA,NA,NA,NA,NA,NA,NA,NA,NA,NA,NA,NA,NA,NA,NA,sub19
instructions-quiz,132,702185,0.0-73.0,TRUE,TRUE,TRUE,TRUE,"""event"",""trial"",""time""
""fullscreenenter"",""5"",""17045""
","
","
","""event"",""trial"",""time""
""fullscreenenter"",""5"",""17045""
","
",5640.599999998813,audio/quiz/Q3_Prompt.wav,NA,1,NA,NA,NA,NA,NA,NA,NA,NA,NA,NA,NA,NA,NA,NA,NA,NA,NA,NA,sub19
audio-keyboard-response,133,707988,0.0-74.0,TRUE,TRUE,TRUE,TRUE,"""event"",""trial"",""time""
""fullscreenenter"",""5"",""17045""
","
","
","""event"",""trial"",""time""
""fullscreenenter"",""5"",""17045""
","
",null,audio/quiz/Q3_Correct.wav,null,NA,NA,NA,NA,NA,NA,NA,NA,NA,NA,NA,NA,NA,NA,NA,NA,NA,NA,NA,sub19
d3-instructions,134,721845,0.0-75.0,TRUE,TRUE,TRUE,TRUE,"""event"",""trial"",""time""
""fullscreenenter"",""5"",""17045""
","
","
","""event"",""trial"",""time""
""fullscreenenter"",""5"",""17045""
","
",NA,NA,NA,NA,NA,NA,NA,NA,NA,NA,NA,NA,NA,NA,NA,NA,NA,NA,NA,NA,NA,NA,sub19
d3-animate-choice,135,725087,0.0-76.0-0.0,TRUE,TRUE,TRUE,TRUE,"""event"",""trial"",""time""
""fullscreenenter"",""5"",""17045""
","
","
","""event"",""trial"",""time""
""fullscreenenter"",""5"",""17045""
","
",1236.5500000014435,NA,48,NA,NA,3000,1,NA,NA,images/earth.jpg,images/rocket2,images/rocket1,null,images/rocket2,NA,1,real,null,2,NA,NA,NA,sub19
d3-animate-choice,136,727942,0.0-76.0-1.0,TRUE,TRUE,TRUE,TRUE,"""event"",""trial"",""time""
""fullscreenenter"",""5"",""17045""
","
","
","""event"",""trial"",""time""
""fullscreenenter"",""5"",""17045""
","
",850.0200000125915,NA,49,NA,NA,3000,1,NA,NA,images/purpleplanet.jpg,images/alien4,images/alien3,images/rocket2,images/alien3,images/t.png,2,real,true,1,common,1,2020-06-08T19:11:50Z,sub19
two-step-fixation,137,728947,0.0-76.0-2.0,TRUE,TRUE,TRUE,TRUE,"""event"",""trial"",""time""
""fullscreenenter"",""5"",""17045""
","
","
","""event"",""trial"",""time""
""fullscreenenter"",""5"",""17045""
","
",NA,images/earth.jpg,NA,NA,NA,NA,NA,NA,NA,NA,NA,NA,NA,NA,NA,fixation,NA,NA,NA,NA,NA,NA,sub19
d3-animate-choice,138,731950,0.0-76.0-0.1,TRUE,TRUE,TRUE,TRUE,"""event"",""trial"",""time""
""fullscreenenter"",""5"",""17045""
","
","
","""event"",""trial"",""time""
""fullscreenenter"",""5"",""17045""
","
",998.6300000018673,NA,48,NA,NA,3000,1,NA,NA,images/earth.jpg,images/rocket2,images/rocket1,null,images/rocket2,NA,1,real,null,2,NA,NA,NA,sub19
d3-animate-choice,139,734431,0.0-76.0-1.1,TRUE,TRUE,TRUE,TRUE,"""event"",""trial"",""time""
""fullscreenenter"",""5"",""17045""
","
","
","""event"",""trial"",""time""
""fullscreenenter"",""5"",""17045""
","
",476.33000000496395,NA,49,NA,NA,3000,1,NA,NA,images/redplanet1.jpg,images/alien2,images/alien1,images/rocket2,images/alien1,images/t.png,2,real,false,1,rare,1,2020-06-08T19:11:57Z,sub19
two-step-fixation,140,735436,0.0-76.0-2.1,TRUE,TRUE,TRUE,TRUE,"""event"",""trial"",""time""
""fullscreenenter"",""5"",""17045""
","
","
","""event"",""trial"",""time""
""fullscreenenter"",""5"",""17045""
","
",NA,images/earth.jpg,NA,NA,NA,NA,NA,NA,NA,NA,NA,NA,NA,NA,NA,fixation,NA,NA,NA,NA,NA,NA,sub19
d3-animate-choice,141,738015,0.0-76.0-0.2,TRUE,TRUE,TRUE,TRUE,"""event"",""trial"",""time""
""fullscreenenter"",""5"",""17045""
","
","
","""event"",""trial"",""time""
""fullscreenenter"",""5"",""17045""
","
",574.1049999924144,NA,48,NA,NA,3000,1,NA,NA,images/earth.jpg,images/rocket2,images/rocket1,null,images/rocket2,NA,1,real,null,2,NA,NA,NA,sub19
d3-animate-choice,142,740559,0.0-76.0-1.2,TRUE,TRUE,TRUE,TRUE,"""event"",""trial"",""time""
""fullscreenenter"",""5"",""17045""
","
","
","""event"",""trial"",""time""
""fullscreenenter"",""5"",""17045""
","
",538.2899999967776,NA,49,NA,NA,3000,1,NA,NA,images/redplanet1.jpg,images/alien2,images/alien1,images/rocket2,images/alien1,images/nothing.png,2,real,false,1,rare,0,2020-06-08T19:12:03Z,sub19
two-step-fixation,143,741564,0.0-76.0-2.2,TRUE,TRUE,TRUE,TRUE,"""event"",""trial"",""time""
""fullscreenenter"",""5"",""17045""
","
","
","""event"",""trial"",""time""
""fullscreenenter"",""5"",""17045""
","
",NA,images/earth.jpg,NA,NA,NA,NA,NA,NA,NA,NA,NA,NA,NA,NA,NA,fixation,NA,NA,NA,NA,NA,NA,sub19
d3-animate-choice,144,743967,0.0-76.0-0.3,TRUE,TRUE,TRUE,TRUE,"""event"",""trial"",""time""
""fullscreenenter"",""5"",""17045""
","
","
","""event"",""trial"",""time""
""fullscreenenter"",""5"",""17045""
","
",398.0250000022352,NA,48,NA,NA,3000,1,NA,NA,images/earth.jpg,images/rocket2,images/rocket1,null,images/rocket2,NA,1,real,null,2,NA,NA,NA,sub19
d3-animate-choice,145,746442,0.0-76.0-1.3,TRUE,TRUE,TRUE,TRUE,"""event"",""trial"",""time""
""fullscreenenter"",""5"",""17045""
","
","
","""event"",""trial"",""time""
""fullscreenenter"",""5"",""17045""
","
",466.9049999938579,NA,49,NA,NA,3000,1,NA,NA,images/purpleplanet.jpg,images/alien4,images/alien3,images/rocket2,images/alien3,images/t.png,2,real,true,1,common,1,2020-06-08T19:12:09Z,sub19
two-step-fixation,146,747446,0.0-76.0-2.3,TRUE,TRUE,TRUE,TRUE,"""event"",""trial"",""time""
""fullscreenenter"",""5"",""17045""
","
","
","""event"",""trial"",""time""
""fullscreenenter"",""5"",""17045""
","
",NA,images/earth.jpg,NA,NA,NA,NA,NA,NA,NA,NA,NA,NA,NA,NA,NA,fixation,NA,NA,NA,NA,NA,NA,sub19
d3-animate-choice,147,750640,0.0-76.0-0.4,TRUE,TRUE,TRUE,TRUE,"""event"",""trial"",""time""
""fullscreenenter"",""5"",""17045""
","
","
","""event"",""trial"",""time""
""fullscreenenter"",""5"",""17045""
","
",1188.6299999896437,NA,49,NA,NA,3000,1,NA,NA,images/earth.jpg,images/rocket2,images/rocket1,null,images/rocket1,NA,1,real,null,1,NA,NA,NA,sub19
d3-animate-choice,148,753131,0.0-76.0-1.4,TRUE,TRUE,TRUE,TRUE,"""event"",""trial"",""time""
""fullscreenenter"",""5"",""17045""
","
","
","""event"",""trial"",""time""
""fullscreenenter"",""5"",""17045""
","
",482.42000000027474,NA,48,NA,NA,3000,1,NA,NA,images/purpleplanet.jpg,images/alien4,images/alien3,images/rocket1,images/alien4,images/t.png,2,real,false,2,rare,1,2020-06-08T19:12:15Z,sub19
two-step-fixation,149,754140,0.0-76.0-2.4,TRUE,TRUE,TRUE,TRUE,"""event"",""trial"",""time""
""fullscreenenter"",""5"",""17045""
","
","
","""event"",""trial"",""time""
""fullscreenenter"",""5"",""17045""
","
",NA,images/earth.jpg,NA,NA,NA,NA,NA,NA,NA,NA,NA,NA,NA,NA,NA,fixation,NA,NA,NA,NA,NA,NA,sub19
d3-animate-choice,150,756569,0.0-76.0-0.5,TRUE,TRUE,TRUE,TRUE,"""event"",""trial"",""time""
""fullscreenenter"",""5"",""17045""
","
","
","""event"",""trial"",""time""
""fullscreenenter"",""5"",""17045""
","
",422.58500000752974,NA,49,NA,NA,3000,1,NA,NA,images/earth.jpg,images/rocket2,images/rocket1,null,images/rocket1,NA,1,real,null,1,NA,NA,NA,sub19
d3-animate-choice,151,759039,0.0-76.0-1.5,TRUE,TRUE,TRUE,TRUE,"""event"",""trial"",""time""
""fullscreenenter"",""5"",""17045""
","
","
","""event"",""trial"",""time""
""fullscreenenter"",""5"",""17045""
","
",465.31499999400694,NA,49,NA,NA,3000,1,NA,NA,images/purpleplanet.jpg,images/alien4,images/alien3,images/rocket1,images/alien3,images/t.png,2,real,false,1,rare,1,2020-06-08T19:12:21Z,sub19
two-step-fixation,152,760043,0.0-76.0-2.5,TRUE,TRUE,TRUE,TRUE,"""event"",""trial"",""time""
""fullscreenenter"",""5"",""17045""
","
","
","""event"",""trial"",""time""
""fullscreenenter"",""5"",""17045""
","
",NA,images/earth.jpg,NA,NA,NA,NA,NA,NA,NA,NA,NA,NA,NA,NA,NA,fixation,NA,NA,NA,NA,NA,NA,sub19
d3-animate-choice,153,762511,0.0-76.0-0.6,TRUE,TRUE,TRUE,TRUE,"""event"",""trial"",""time""
""fullscreenenter"",""5"",""17045""
","
","
","""event"",""trial"",""time""
""fullscreenenter"",""5"",""17045""
","
",463.1000000081258,NA,49,NA,NA,3000,1,NA,NA,images/earth.jpg,images/rocket2,images/rocket1,null,images/rocket1,NA,1,real,null,1,NA,NA,NA,sub19
d3-animate-choice,154,764946,0.0-76.0-1.6,TRUE,TRUE,TRUE,TRUE,"""event"",""trial"",""time""
""fullscreenenter"",""5"",""17045""
","
","
","""event"",""trial"",""time""
""fullscreenenter"",""5"",""17045""
","
",427.38000000827014,NA,49,NA,NA,3000,1,NA,NA,images/purpleplanet.jpg,images/alien4,images/alien3,images/rocket1,images/alien3,images/nothing.png,2,real,false,1,rare,0,2020-06-08T19:12:27Z,sub19
two-step-fixation,155,765950,0.0-76.0-2.6,TRUE,TRUE,TRUE,TRUE,"""event"",""trial"",""time""
""fullscreenenter"",""5"",""17045""
","
","
","""event"",""trial"",""time""
""fullscreenenter"",""5"",""17045""
","
",NA,images/earth.jpg,NA,NA,NA,NA,NA,NA,NA,NA,NA,NA,NA,NA,NA,fixation,NA,NA,NA,NA,NA,NA,sub19
d3-animate-choice,156,768330,0.0-76.0-0.7,TRUE,TRUE,TRUE,TRUE,"""event"",""trial"",""time""
""fullscreenenter"",""5"",""17045""
","
","
","""event"",""trial"",""time""
""fullscreenenter"",""5"",""17045""
","
",373.04500000027474,NA,49,NA,NA,3000,1,NA,NA,images/earth.jpg,images/rocket2,images/rocket1,null,images/rocket1,NA,1,real,null,1,NA,NA,NA,sub19
d3-animate-choice,157,770778,0.0-76.0-1.7,TRUE,TRUE,TRUE,TRUE,"""event"",""trial"",""time""
""fullscreenenter"",""5"",""17045""
","
","
","""event"",""trial"",""time""
""fullscreenenter"",""5"",""17045""
","
",440.6650000018999,NA,48,NA,NA,3000,1,NA,NA,images/redplanet1.jpg,images/alien2,images/alien1,images/rocket1,images/alien2,images/t.png,2,real,true,2,common,1,2020-06-08T19:12:33Z,sub19
two-step-fixation,158,771783,0.0-76.0-2.7,TRUE,TRUE,TRUE,TRUE,"""event"",""trial"",""time""
""fullscreenenter"",""5"",""17045""
","
","
","""event"",""trial"",""time""
""fullscreenenter"",""5"",""17045""
","
",NA,images/earth.jpg,NA,NA,NA,NA,NA,NA,NA,NA,NA,NA,NA,NA,NA,fixation,NA,NA,NA,NA,NA,NA,sub19
d3-animate-choice,159,774172,0.0-76.0-0.8,TRUE,TRUE,TRUE,TRUE,"""event"",""trial"",""time""
""fullscreenenter"",""5"",""17045""
","
","
","""event"",""trial"",""time""
""fullscreenenter"",""5"",""17045""
","
",380.4000000091037,NA,49,NA,NA,3000,1,NA,NA,images/earth.jpg,images/rocket2,images/rocket1,null,images/rocket1,NA,1,real,null,1,NA,NA,NA,sub19
d3-animate-choice,160,776637,0.0-76.0-1.8,TRUE,TRUE,TRUE,TRUE,"""event"",""trial"",""time""
""fullscreenenter"",""5"",""17045""
","
","
","""event"",""trial"",""time""
""fullscreenenter"",""5"",""17045""
","
",454.0350000024773,NA,48,NA,NA,3000,1,NA,NA,images/purpleplanet.jpg,images/alien4,images/alien3,images/rocket1,images/alien4,images/t.png,2,real,false,2,rare,1,2020-06-08T19:12:39Z,sub19
two-step-fixation,161,777644,0.0-76.0-2.8,TRUE,TRUE,TRUE,TRUE,"""event"",""trial"",""time""
""fullscreenenter"",""5"",""17045""
","
","
","""event"",""trial"",""time""
""fullscreenenter"",""5"",""17045""
","
",NA,images/earth.jpg,NA,NA,NA,NA,NA,NA,NA,NA,NA,NA,NA,NA,NA,fixation,NA,NA,NA,NA,NA,NA,sub19
d3-animate-choice,162,780018,0.0-76.0-0.9,TRUE,TRUE,TRUE,TRUE,"""event"",""trial"",""time""
""fullscreenenter"",""5"",""17045""
","
","
","""event"",""trial"",""time""
""fullscreenenter"",""5"",""17045""
","
",367.2049999877345,NA,49,NA,NA,3000,1,NA,NA,images/earth.jpg,images/rocket2,images/rocket1,null,images/rocket1,NA,1,real,null,1,NA,NA,NA,sub19
d3-animate-choice,163,782496,0.0-76.0-1.9,TRUE,TRUE,TRUE,TRUE,"""event"",""trial"",""time""
""fullscreenenter"",""5"",""17045""
","
","
","""event"",""trial"",""time""
""fullscreenenter"",""5"",""17045""
","
",472.8549999999814,NA,48,NA,NA,3000,1,NA,NA,images/redplanet1.jpg,images/alien2,images/alien1,images/rocket1,images/alien2,images/nothing.png,2,real,true,2,common,0,2020-06-08T19:12:45Z,sub19
two-step-fixation,164,783502,0.0-76.0-2.9,TRUE,TRUE,TRUE,TRUE,"""event"",""trial"",""time""
""fullscreenenter"",""5"",""17045""
","
","
","""event"",""trial"",""time""
""fullscreenenter"",""5"",""17045""
","
",NA,images/earth.jpg,NA,NA,NA,NA,NA,NA,NA,NA,NA,NA,NA,NA,NA,fixation,NA,NA,NA,NA,NA,NA,sub19
d3-animate-choice,165,786334,0.0-76.0-0.10,TRUE,TRUE,TRUE,TRUE,"""event"",""trial"",""time""
""fullscreenenter"",""5"",""17045""
","
","
","""event"",""trial"",""time""
""fullscreenenter"",""5"",""17045""
","
",827.0699999993667,NA,49,NA,NA,3000,1,NA,NA,images/earth.jpg,images/rocket2,images/rocket1,null,images/rocket1,NA,1,real,null,1,NA,NA,NA,sub19
d3-animate-choice,166,788991,0.0-76.0-1.10,TRUE,TRUE,TRUE,TRUE,"""event"",""trial"",""time""
""fullscreenenter"",""5"",""17045""
","
","
","""event"",""trial"",""time""
""fullscreenenter"",""5"",""17045""
","
",650.9450000012293,NA,49,NA,NA,3000,1,NA,NA,images/redplanet1.jpg,images/alien2,images/alien1,images/rocket1,images/alien1,images/nothing.png,2,real,true,1,common,0,2020-06-08T19:12:51Z,sub19
two-step-fixation,167,789997,0.0-76.0-2.10,TRUE,TRUE,TRUE,TRUE,"""event"",""trial"",""time""
""fullscreenenter"",""5"",""17045""
","
","
","""event"",""trial"",""time""
""fullscreenenter"",""5"",""17045""
","
",NA,images/earth.jpg,NA,NA,NA,NA,NA,NA,NA,NA,NA,NA,NA,NA,NA,fixation,NA,NA,NA,NA,NA,NA,sub19
d3-animate-choice,168,792909,0.0-76.0-0.11,TRUE,TRUE,TRUE,TRUE,"""event"",""trial"",""time""
""fullscreenenter"",""5"",""17045""
","
","
","""event"",""trial"",""time""
""fullscreenenter"",""5"",""17045""
","
",906.4599999983329,NA,48,NA,NA,3000,1,NA,NA,images/earth.jpg,images/rocket2,images/rocket1,null,images/rocket2,NA,1,real,null,2,NA,NA,NA,sub19
d3-animate-choice,169,795420,0.0-76.0-1.11,TRUE,TRUE,TRUE,TRUE,"""event"",""trial"",""time""
""fullscreenenter"",""5"",""17045""
","
","
","""event"",""trial"",""time""
""fullscreenenter"",""5"",""17045""
","
",506.0200000007171,NA,49,NA,NA,3000,1,NA,NA,images/purpleplanet.jpg,images/alien4,images/alien3,images/rocket2,images/alien3,images/nothing.png,2,real,true,1,common,0,2020-06-08T19:12:58Z,sub19
two-step-fixation,170,796425,0.0-76.0-2.11,TRUE,TRUE,TRUE,TRUE,"""event"",""trial"",""time""
""fullscreenenter"",""5"",""17045""
","
","
","""event"",""trial"",""time""
""fullscreenenter"",""5"",""17045""
","
",NA,images/earth.jpg,NA,NA,NA,NA,NA,NA,NA,NA,NA,NA,NA,NA,NA,fixation,NA,NA,NA,NA,NA,NA,sub19
d3-animate-choice,171,798840,0.0-76.0-0.12,TRUE,TRUE,TRUE,TRUE,"""event"",""trial"",""time""
""fullscreenenter"",""5"",""17045""
","
","
","""event"",""trial"",""time""
""fullscreenenter"",""5"",""17045""
","
",406.57500000088476,NA,49,NA,NA,3000,1,NA,NA,images/earth.jpg,images/rocket2,images/rocket1,null,images/rocket1,NA,1,real,null,1,NA,NA,NA,sub19
d3-animate-choice,172,801359,0.0-76.0-1.12,TRUE,TRUE,TRUE,TRUE,"""event"",""trial"",""time""
""fullscreenenter"",""5"",""17045""
","
","
","""event"",""trial"",""time""
""fullscreenenter"",""5"",""17045""
","
",511.67499998700805,NA,48,NA,NA,3000,1,NA,NA,images/redplanet1.jpg,images/alien2,images/alien1,images/rocket1,images/alien2,images/nothing.png,2,real,true,2,common,0,2020-06-08T19:13:03Z,sub19
two-step-fixation,173,802364,0.0-76.0-2.12,TRUE,TRUE,TRUE,TRUE,"""event"",""trial"",""time""
""fullscreenenter"",""5"",""17045""
","
","
","""event"",""trial"",""time""
""fullscreenenter"",""5"",""17045""
","
",NA,images/earth.jpg,NA,NA,NA,NA,NA,NA,NA,NA,NA,NA,NA,NA,NA,fixation,NA,NA,NA,NA,NA,NA,sub19
d3-animate-choice,174,804765,0.0-76.0-0.13,TRUE,TRUE,TRUE,TRUE,"""event"",""trial"",""time""
""fullscreenenter"",""5"",""17045""
","
","
","""event"",""trial"",""time""
""fullscreenenter"",""5"",""17045""
","
",396.09500000369735,NA,48,NA,NA,3000,1,NA,NA,images/earth.jpg,images/rocket2,images/rocket1,null,images/rocket2,NA,1,real,null,2,NA,NA,NA,sub19
d3-animate-choice,175,807325,0.0-76.0-1.13,TRUE,TRUE,TRUE,TRUE,"""event"",""trial"",""time""
""fullscreenenter"",""5"",""17045""
","
","
","""event"",""trial"",""time""
""fullscreenenter"",""5"",""17045""
","
",554.9650000029942,NA,49,NA,NA,3000,1,NA,NA,images/purpleplanet.jpg,images/alien4,images/alien3,images/rocket2,images/alien3,images/t.png,2,real,true,1,common,1,2020-06-08T19:13:09Z,sub19
two-step-fixation,176,808331,0.0-76.0-2.13,TRUE,TRUE,TRUE,TRUE,"""event"",""trial"",""time""
""fullscreenenter"",""5"",""17045""
","
","
","""event"",""trial"",""time""
""fullscreenenter"",""5"",""17045""
","
",NA,images/earth.jpg,NA,NA,NA,NA,NA,NA,NA,NA,NA,NA,NA,NA,NA,fixation,NA,NA,NA,NA,NA,NA,sub19
d3-animate-choice,177,810700,0.0-76.0-0.14,TRUE,TRUE,TRUE,TRUE,"""event"",""trial"",""time""
""fullscreenenter"",""5"",""17045""
","
","
","""event"",""trial"",""time""
""fullscreenenter"",""5"",""17045""
","
",363.86500000662636,NA,48,NA,NA,3000,1,NA,NA,images/earth.jpg,images/rocket2,images/rocket1,null,images/rocket2,NA,1,real,null,2,NA,NA,NA,sub19
d3-animate-choice,178,813207,0.0-76.0-1.14,TRUE,TRUE,TRUE,TRUE,"""event"",""trial"",""time""
""fullscreenenter"",""5"",""17045""
","
","
","""event"",""trial"",""time""
""fullscreenenter"",""5"",""17045""
","
",498.7199999886798,NA,49,NA,NA,3000,1,NA,NA,images/purpleplanet.jpg,images/alien4,images/alien3,images/rocket2,images/alien3,images/nothing.png,2,real,true,1,common,0,2020-06-08T19:13:15Z,sub19
two-step-fixation,179,814210,0.0-76.0-2.14,TRUE,TRUE,TRUE,TRUE,"""event"",""trial"",""time""
""fullscreenenter"",""5"",""17045""
","
","
","""event"",""trial"",""time""
""fullscreenenter"",""5"",""17045""
","
",NA,images/earth.jpg,NA,NA,NA,NA,NA,NA,NA,NA,NA,NA,NA,NA,NA,fixation,NA,NA,NA,NA,NA,NA,sub19
d3-animate-choice,180,816616,0.0-76.0-0.15,TRUE,TRUE,TRUE,TRUE,"""event"",""trial"",""time""
""fullscreenenter"",""5"",""17045""
","
","
","""event"",""trial"",""time""
""fullscreenenter"",""5"",""17045""
","
",397.6450000045588,NA,48,NA,NA,3000,1,NA,NA,images/earth.jpg,images/rocket2,images/rocket1,null,images/rocket2,NA,1,real,null,2,NA,NA,NA,sub19
d3-animate-choice,181,819061,0.0-76.0-1.15,TRUE,TRUE,TRUE,TRUE,"""event"",""trial"",""time""
""fullscreenenter"",""5"",""17045""
","
","
","""event"",""trial"",""time""
""fullscreenenter"",""5"",""17045""
","
",439.7400000016205,NA,49,NA,NA,3000,1,NA,NA,images/purpleplanet.jpg,images/alien4,images/alien3,images/rocket2,images/alien3,images/nothing.png,2,real,true,1,common,0,2020-06-08T19:13:21Z,sub19
two-step-fixation,182,820067,0.0-76.0-2.15,TRUE,TRUE,TRUE,TRUE,"""event"",""trial"",""time""
""fullscreenenter"",""5"",""17045""
","
","
","""event"",""trial"",""time""
""fullscreenenter"",""5"",""17045""
","
",NA,images/earth.jpg,NA,NA,NA,NA,NA,NA,NA,NA,NA,NA,NA,NA,NA,fixation,NA,NA,NA,NA,NA,NA,sub19
d3-animate-choice,183,822502,0.0-76.0-0.16,TRUE,TRUE,TRUE,TRUE,"""event"",""trial"",""time""
""fullscreenenter"",""5"",""17045""
","
","
","""event"",""trial"",""time""
""fullscreenenter"",""5"",""17045""
","
",429.29000000003725,NA,48,NA,NA,3000,1,NA,NA,images/earth.jpg,images/rocket2,images/rocket1,null,images/rocket2,NA,1,real,null,2,NA,NA,NA,sub19
d3-animate-choice,184,825133,0.0-76.0-1.16,TRUE,TRUE,TRUE,TRUE,"""event"",""trial"",""time""
""fullscreenenter"",""5"",""17045""
","
","
","""event"",""trial"",""time""
""fullscreenenter"",""5"",""17045""
","
",626.0600000096019,NA,48,NA,NA,3000,1,NA,NA,images/redplanet1.jpg,images/alien2,images/alien1,images/rocket2,images/alien2,images/t.png,2,real,false,2,rare,1,2020-06-08T19:13:27Z,sub19
two-step-fixation,185,826141,0.0-76.0-2.16,TRUE,TRUE,TRUE,TRUE,"""event"",""trial"",""time""
""fullscreenenter"",""5"",""17045""
","
","
","""event"",""trial"",""time""
""fullscreenenter"",""5"",""17045""
","
",NA,images/earth.jpg,NA,NA,NA,NA,NA,NA,NA,NA,NA,NA,NA,NA,NA,fixation,NA,NA,NA,NA,NA,NA,sub19
d3-animate-choice,186,828542,0.0-76.0-0.17,TRUE,TRUE,TRUE,TRUE,"""event"",""trial"",""time""
""fullscreenenter"",""5"",""17045""
","
","
","""event"",""trial"",""time""
""fullscreenenter"",""5"",""17045""
","
",395.14999999664724,NA,48,NA,NA,3000,1,NA,NA,images/earth.jpg,images/rocket2,images/rocket1,null,images/rocket2,NA,1,real,null,2,NA,NA,NA,sub19
d3-animate-choice,187,831209,0.0-76.0-1.17,TRUE,TRUE,TRUE,TRUE,"""event"",""trial"",""time""
""fullscreenenter"",""5"",""17045""
","
","
","""event"",""trial"",""time""
""fullscreenenter"",""5"",""17045""
","
",658.2100000086939,NA,48,NA,NA,3000,1,NA,NA,images/purpleplanet.jpg,images/alien4,images/alien3,images/rocket2,images/alien4,images/t.png,2,real,true,2,common,1,2020-06-08T19:13:33Z,sub19
two-step-fixation,188,832216,0.0-76.0-2.17,TRUE,TRUE,TRUE,TRUE,"""event"",""trial"",""time""
""fullscreenenter"",""5"",""17045""
","
","
","""event"",""trial"",""time""
""fullscreenenter"",""5"",""17045""
","
",NA,images/earth.jpg,NA,NA,NA,NA,NA,NA,NA,NA,NA,NA,NA,NA,NA,fixation,NA,NA,NA,NA,NA,NA,sub19
d3-animate-choice,189,834554,0.0-76.0-0.18,TRUE,TRUE,TRUE,TRUE,"""event"",""trial"",""time""
""fullscreenenter"",""5"",""17045""
","
","
","""event"",""trial"",""time""
""fullscreenenter"",""5"",""17045""
","
",327.89499999489635,NA,48,NA,NA,3000,1,NA,NA,images/earth.jpg,images/rocket2,images/rocket1,null,images/rocket2,NA,1,real,null,2,NA,NA,NA,sub19
d3-animate-choice,190,837246,0.0-76.0-1.18,TRUE,TRUE,TRUE,TRUE,"""event"",""trial"",""time""
""fullscreenenter"",""5"",""17045""
","
","
","""event"",""trial"",""time""
""fullscreenenter"",""5"",""17045""
","
",685.3399999963585,NA,49,NA,NA,3000,1,NA,NA,images/redplanet1.jpg,images/alien2,images/alien1,images/rocket2,images/alien1,images/nothing.png,2,real,false,1,rare,0,2020-06-08T19:13:39Z,sub19
two-step-fixation,191,838251,0.0-76.0-2.18,TRUE,TRUE,TRUE,TRUE,"""event"",""trial"",""time""
""fullscreenenter"",""5"",""17045""
","
","
","""event"",""trial"",""time""
""fullscreenenter"",""5"",""17045""
","
",NA,images/earth.jpg,NA,NA,NA,NA,NA,NA,NA,NA,NA,NA,NA,NA,NA,fixation,NA,NA,NA,NA,NA,NA,sub19
d3-animate-choice,192,840966,0.0-76.0-0.19,TRUE,TRUE,TRUE,TRUE,"""event"",""trial"",""time""
""fullscreenenter"",""5"",""17045""
","
","
","""event"",""trial"",""time""
""fullscreenenter"",""5"",""17045""
","
",707.1350000042003,NA,48,NA,NA,3000,1,NA,NA,images/earth.jpg,images/rocket2,images/rocket1,null,images/rocket2,NA,1,real,null,2,NA,NA,NA,sub19
d3-animate-choice,193,843641,0.0-76.0-1.19,TRUE,TRUE,TRUE,TRUE,"""event"",""trial"",""time""
""fullscreenenter"",""5"",""17045""
","
","
","""event"",""trial"",""time""
""fullscreenenter"",""5"",""17045""
","
",665.6899999943562,NA,48,NA,NA,3000,1,NA,NA,images/purpleplanet.jpg,images/alien4,images/alien3,images/rocket2,images/alien4,images/nothing.png,2,real,true,2,common,0,2020-06-08T19:13:46Z,sub19
two-step-fixation,194,844648,0.0-76.0-2.19,TRUE,TRUE,TRUE,TRUE,"""event"",""trial"",""time""
""fullscreenenter"",""5"",""17045""
","
","
","""event"",""trial"",""time""
""fullscreenenter"",""5"",""17045""
","
",NA,images/earth.jpg,NA,NA,NA,NA,NA,NA,NA,NA,NA,NA,NA,NA,NA,fixation,NA,NA,NA,NA,NA,NA,sub19
d3-animate-choice,195,847151,0.0-76.0-0.20,TRUE,TRUE,TRUE,TRUE,"""event"",""trial"",""time""
""fullscreenenter"",""5"",""17045""
","
","
","""event"",""trial"",""time""
""fullscreenenter"",""5"",""17045""
","
",495.7050000084564,NA,48,NA,NA,3000,1,NA,NA,images/earth.jpg,images/rocket2,images/rocket1,null,images/rocket2,NA,1,real,null,2,NA,NA,NA,sub19
d3-animate-choice,196,849733,0.0-76.0-1.20,TRUE,TRUE,TRUE,TRUE,"""event"",""trial"",""time""
""fullscreenenter"",""5"",""17045""
","
","
","""event"",""trial"",""time""
""fullscreenenter"",""5"",""17045""
","
",577.2799999976996,NA,49,NA,NA,3000,1,NA,NA,images/purpleplanet.jpg,images/alien4,images/alien3,images/rocket2,images/alien3,images/nothing.png,2,real,true,1,common,0,2020-06-08T19:13:52Z,sub19
two-step-fixation,197,850740,0.0-76.0-2.20,TRUE,TRUE,TRUE,TRUE,"""event"",""trial"",""time""
""fullscreenenter"",""5"",""17045""
","
","
","""event"",""trial"",""time""
""fullscreenenter"",""5"",""17045""
","
",NA,images/earth.jpg,NA,NA,NA,NA,NA,NA,NA,NA,NA,NA,NA,NA,NA,fixation,NA,NA,NA,NA,NA,NA,sub19
d3-animate-choice,198,853086,0.0-76.0-0.21,TRUE,TRUE,TRUE,TRUE,"""event"",""trial"",""time""
""fullscreenenter"",""5"",""17045""
","
","
","""event"",""trial"",""time""
""fullscreenenter"",""5"",""17045""
","
",340.83999998983927,NA,48,NA,NA,3000,1,NA,NA,images/earth.jpg,images/rocket2,images/rocket1,null,images/rocket2,NA,1,real,null,2,NA,NA,NA,sub19
d3-animate-choice,199,855502,0.0-76.0-1.21,TRUE,TRUE,TRUE,TRUE,"""event"",""trial"",""time""
""fullscreenenter"",""5"",""17045""
","
","
","""event"",""trial"",""time""
""fullscreenenter"",""5"",""17045""
","
",409.7250000049826,NA,48,NA,NA,3000,1,NA,NA,images/purpleplanet.jpg,images/alien4,images/alien3,images/rocket2,images/alien4,images/nothing.png,2,real,true,2,common,0,2020-06-08T19:13:58Z,sub19
two-step-fixation,200,856508,0.0-76.0-2.21,TRUE,TRUE,TRUE,TRUE,"""event"",""trial"",""time""
""fullscreenenter"",""5"",""17045""
","
","
","""event"",""trial"",""time""
""fullscreenenter"",""5"",""17045""
","
",NA,images/earth.jpg,NA,NA,NA,NA,NA,NA,NA,NA,NA,NA,NA,NA,NA,fixation,NA,NA,NA,NA,NA,NA,sub19
d3-animate-choice,201,859161,0.0-76.0-0.22,TRUE,TRUE,TRUE,TRUE,"""event"",""trial"",""time""
""fullscreenenter"",""5"",""17045""
","
","
","""event"",""trial"",""time""
""fullscreenenter"",""5"",""17045""
","
",647.4750000052154,NA,49,NA,NA,3000,1,NA,NA,images/earth.jpg,images/rocket2,images/rocket1,null,images/rocket1,NA,1,real,null,1,NA,NA,NA,sub19
d3-animate-choice,202,861592,0.0-76.0-1.22,TRUE,TRUE,TRUE,TRUE,"""event"",""trial"",""time""
""fullscreenenter"",""5"",""17045""
","
","
","""event"",""trial"",""time""
""fullscreenenter"",""5"",""17045""
","
",425.5949999933364,NA,49,NA,NA,3000,1,NA,NA,images/redplanet1.jpg,images/alien2,images/alien1,images/rocket1,images/alien1,images/t.png,2,real,true,1,common,1,2020-06-08T19:14:04Z,sub19
two-step-fixation,203,862596,0.0-76.0-2.22,TRUE,TRUE,TRUE,TRUE,"""event"",""trial"",""time""
""fullscreenenter"",""5"",""17045""
","
","
","""event"",""trial"",""time""
""fullscreenenter"",""5"",""17045""
","
",NA,images/earth.jpg,NA,NA,NA,NA,NA,NA,NA,NA,NA,NA,NA,NA,NA,fixation,NA,NA,NA,NA,NA,NA,sub19
d3-animate-choice,204,865636,0.0-76.0-0.23,TRUE,TRUE,TRUE,TRUE,"""event"",""trial"",""time""
""fullscreenenter"",""5"",""17045""
","
","
","""event"",""trial"",""time""
""fullscreenenter"",""5"",""17045""
","
",1030.8149999909801,NA,49,NA,NA,3000,1,NA,NA,images/earth.jpg,images/rocket2,images/rocket1,null,images/rocket1,NA,1,real,null,1,NA,NA,NA,sub19
d3-animate-choice,205,869140,0.0-76.0-1.23,TRUE,TRUE,TRUE,TRUE,"""event"",""trial"",""time""
""fullscreenenter"",""5"",""17045""
","
","
","""event"",""trial"",""time""
""fullscreenenter"",""5"",""17045""
","
",1494.4500000128755,NA,49,NA,NA,3000,1,NA,NA,images/purpleplanet.jpg,images/alien4,images/alien3,images/rocket1,images/alien3,images/t.png,2,real,false,1,rare,1,2020-06-08T19:14:11Z,sub19
two-step-fixation,206,870144,0.0-76.0-2.23,TRUE,TRUE,TRUE,TRUE,"""event"",""trial"",""time""
""fullscreenenter"",""5"",""17045""
","
","
","""event"",""trial"",""time""
""fullscreenenter"",""5"",""17045""
","
",NA,images/earth.jpg,NA,NA,NA,NA,NA,NA,NA,NA,NA,NA,NA,NA,NA,fixation,NA,NA,NA,NA,NA,NA,sub19
d3-animate-choice,207,872578,0.0-76.0-0.24,TRUE,TRUE,TRUE,TRUE,"""event"",""trial"",""time""
""fullscreenenter"",""5"",""17045""
","
","
","""event"",""trial"",""time""
""fullscreenenter"",""5"",""17045""
","
",427.04500000400003,NA,49,NA,NA,3000,1,NA,NA,images/earth.jpg,images/rocket2,images/rocket1,null,images/rocket1,NA,1,real,null,1,NA,NA,NA,sub19
d3-animate-choice,208,876305,0.0-76.0-1.24,TRUE,TRUE,TRUE,TRUE,"""event"",""trial"",""time""
""fullscreenenter"",""5"",""17045""
","
","
","""event"",""trial"",""time""
""fullscreenenter"",""5"",""17045""
","
",1720.7049999997253,NA,49,NA,NA,3000,1,NA,NA,images/redplanet1.jpg,images/alien2,images/alien1,images/rocket1,images/alien1,images/nothing.png,2,real,true,1,common,0,2020-06-08T19:14:18Z,sub19
two-step-fixation,209,877309,0.0-76.0-2.24,TRUE,TRUE,TRUE,TRUE,"""event"",""trial"",""time""
""fullscreenenter"",""5"",""17045""
","
","
","""event"",""trial"",""time""
""fullscreenenter"",""5"",""17045""
","
",NA,images/earth.jpg,NA,NA,NA,NA,NA,NA,NA,NA,NA,NA,NA,NA,NA,fixation,NA,NA,NA,NA,NA,NA,sub19
d3-animate-choice,210,880062,0.0-76.0-0.25,TRUE,TRUE,TRUE,TRUE,"""event"",""trial"",""time""
""fullscreenenter"",""5"",""17045""
","
","
","""event"",""trial"",""time""
""fullscreenenter"",""5"",""17045""
","
",748.7499999988358,NA,49,NA,NA,3000,1,NA,NA,images/earth.jpg,images/rocket2,images/rocket1,null,images/rocket1,NA,1,real,null,1,NA,NA,NA,sub19
d3-animate-choice,211,882623,0.0-76.0-1.25,TRUE,TRUE,TRUE,TRUE,"""event"",""trial"",""time""
""fullscreenenter"",""5"",""17045""
","
","
","""event"",""trial"",""time""
""fullscreenenter"",""5"",""17045""
","
",555.1700000069104,NA,49,NA,NA,3000,1,NA,NA,images/purpleplanet.jpg,images/alien4,images/alien3,images/rocket1,images/alien3,images/nothing.png,2,real,false,1,rare,0,2020-06-08T19:14:25Z,sub19
two-step-fixation,212,883629,0.0-76.0-2.25,TRUE,TRUE,TRUE,TRUE,"""event"",""trial"",""time""
""fullscreenenter"",""5"",""17045""
","
","
","""event"",""trial"",""time""
""fullscreenenter"",""5"",""17045""
","
",NA,images/earth.jpg,NA,NA,NA,NA,NA,NA,NA,NA,NA,NA,NA,NA,NA,fixation,NA,NA,NA,NA,NA,NA,sub19
d3-animate-choice,213,886103,0.0-76.0-0.26,TRUE,TRUE,TRUE,TRUE,"""event"",""trial"",""time""
""fullscreenenter"",""5"",""17045""
","
","
","""event"",""trial"",""time""
""fullscreenenter"",""5"",""17045""
","
",468.85499999916647,NA,48,NA,NA,3000,1,NA,NA,images/earth.jpg,images/rocket2,images/rocket1,null,images/rocket2,NA,1,real,null,2,NA,NA,NA,sub19
d3-animate-choice,214,889328,0.0-76.0-1.26,TRUE,TRUE,TRUE,TRUE,"""event"",""trial"",""time""
""fullscreenenter"",""5"",""17045""
","
","
","""event"",""trial"",""time""
""fullscreenenter"",""5"",""17045""
","
",1218.8099999912083,NA,48,NA,NA,3000,1,NA,NA,images/purpleplanet.jpg,images/alien4,images/alien3,images/rocket2,images/alien4,images/nothing.png,2,real,true,2,common,0,2020-06-08T19:14:31Z,sub19
two-step-fixation,215,890335,0.0-76.0-2.26,TRUE,TRUE,TRUE,TRUE,"""event"",""trial"",""time""
""fullscreenenter"",""5"",""17045""
","
","
","""event"",""trial"",""time""
""fullscreenenter"",""5"",""17045""
","
",NA,images/earth.jpg,NA,NA,NA,NA,NA,NA,NA,NA,NA,NA,NA,NA,NA,fixation,NA,NA,NA,NA,NA,NA,sub19
d3-animate-choice,216,892919,0.0-76.0-0.27,TRUE,TRUE,TRUE,TRUE,"""event"",""trial"",""time""
""fullscreenenter"",""5"",""17045""
","
","
","""event"",""trial"",""time""
""fullscreenenter"",""5"",""17045""
","
",578.7500000005821,NA,49,NA,NA,3000,1,NA,NA,images/earth.jpg,images/rocket2,images/rocket1,null,images/rocket1,NA,1,real,null,1,NA,NA,NA,sub19
d3-animate-choice,217,895423,0.0-76.0-1.27,TRUE,TRUE,TRUE,TRUE,"""event"",""trial"",""time""
""fullscreenenter"",""5"",""17045""
","
","
","""event"",""trial"",""time""
""fullscreenenter"",""5"",""17045""
","
",498.7250000122003,NA,49,NA,NA,3000,1,NA,NA,images/redplanet1.jpg,images/alien2,images/alien1,images/rocket1,images/alien1,images/t.png,2,real,true,1,common,1,2020-06-08T19:14:38Z,sub19
two-step-fixation,218,896427,0.0-76.0-2.27,TRUE,TRUE,TRUE,TRUE,"""event"",""trial"",""time""
""fullscreenenter"",""5"",""17045""
","
","
","""event"",""trial"",""time""
""fullscreenenter"",""5"",""17045""
","
",NA,images/earth.jpg,NA,NA,NA,NA,NA,NA,NA,NA,NA,NA,NA,NA,NA,fixation,NA,NA,NA,NA,NA,NA,sub19
d3-animate-choice,219,899393,0.0-76.0-0.28,TRUE,TRUE,TRUE,TRUE,"""event"",""trial"",""time""
""fullscreenenter"",""5"",""17045""
","
","
","""event"",""trial"",""time""
""fullscreenenter"",""5"",""17045""
","
",961.1949999962235,NA,49,NA,NA,3000,1,NA,NA,images/earth.jpg,images/rocket2,images/rocket1,null,images/rocket1,NA,1,real,null,1,NA,NA,NA,sub19
d3-animate-choice,220,902485,0.0-76.0-1.28,TRUE,TRUE,TRUE,TRUE,"""event"",""trial"",""time""
""fullscreenenter"",""5"",""17045""
","
","
","""event"",""trial"",""time""
""fullscreenenter"",""5"",""17045""
","
",1082.7449999924283,NA,49,NA,NA,3000,1,NA,NA,images/redplanet1.jpg,images/alien2,images/alien1,images/rocket1,images/alien1,images/nothing.png,2,real,true,1,common,0,2020-06-08T19:14:45Z,sub19
two-step-fixation,221,903493,0.0-76.0-2.28,TRUE,TRUE,TRUE,TRUE,"""event"",""trial"",""time""
""fullscreenenter"",""5"",""17045""
","
","
","""event"",""trial"",""time""
""fullscreenenter"",""5"",""17045""
","
",NA,images/earth.jpg,NA,NA,NA,NA,NA,NA,NA,NA,NA,NA,NA,NA,NA,fixation,NA,NA,NA,NA,NA,NA,sub19
d3-animate-choice,222,906049,0.0-76.0-0.29,TRUE,TRUE,TRUE,TRUE,"""event"",""trial"",""time""
""fullscreenenter"",""5"",""17045""
","
","
","""event"",""trial"",""time""
""fullscreenenter"",""5"",""17045""
","
",550.6900000036694,NA,49,NA,NA,3000,1,NA,NA,images/earth.jpg,images/rocket2,images/rocket1,null,images/rocket1,NA,1,real,null,1,NA,NA,NA,sub19
d3-animate-choice,223,908746,0.0-76.0-1.29,TRUE,TRUE,TRUE,TRUE,"""event"",""trial"",""time""
""fullscreenenter"",""5"",""17045""
","
","
","""event"",""trial"",""time""
""fullscreenenter"",""5"",""17045""
","
",691.1200000031386,NA,49,NA,NA,3000,1,NA,NA,images/purpleplanet.jpg,images/alien4,images/alien3,images/rocket1,images/alien3,images/nothing.png,2,real,false,1,rare,0,2020-06-08T19:14:51Z,sub19
two-step-fixation,224,909754,0.0-76.0-2.29,TRUE,TRUE,TRUE,TRUE,"""event"",""trial"",""time""
""fullscreenenter"",""5"",""17045""
","
","
","""event"",""trial"",""time""
""fullscreenenter"",""5"",""17045""
","
",NA,images/earth.jpg,NA,NA,NA,NA,NA,NA,NA,NA,NA,NA,NA,NA,NA,fixation,NA,NA,NA,NA,NA,NA,sub19
d3-animate-choice,225,912299,0.0-76.0-0.30,TRUE,TRUE,TRUE,TRUE,"""event"",""trial"",""time""
""fullscreenenter"",""5"",""17045""
","
","
","""event"",""trial"",""time""
""fullscreenenter"",""5"",""17045""
","
",538.894999990589,NA,48,NA,NA,3000,1,NA,NA,images/earth.jpg,images/rocket2,images/rocket1,null,images/rocket2,NA,1,real,null,2,NA,NA,NA,sub19
d3-animate-choice,226,915077,0.0-76.0-1.30,TRUE,TRUE,TRUE,TRUE,"""event"",""trial"",""time""
""fullscreenenter"",""5"",""17045""
","
","
","""event"",""trial"",""time""
""fullscreenenter"",""5"",""17045""
","
",769.8700000037206,NA,49,NA,NA,3000,1,NA,NA,images/redplanet1.jpg,images/alien2,images/alien1,images/rocket2,images/alien1,images/nothing.png,2,real,false,1,rare,0,2020-06-08T19:14:57Z,sub19
two-step-fixation,227,916082,0.0-76.0-2.30,TRUE,TRUE,TRUE,TRUE,"""event"",""trial"",""time""
""fullscreenenter"",""5"",""17045""
","
","
","""event"",""trial"",""time""
""fullscreenenter"",""5"",""17045""
","
",NA,images/earth.jpg,NA,NA,NA,NA,NA,NA,NA,NA,NA,NA,NA,NA,NA,fixation,NA,NA,NA,NA,NA,NA,sub19
d3-animate-choice,228,918467,0.0-76.0-0.31,TRUE,TRUE,TRUE,TRUE,"""event"",""trial"",""time""
""fullscreenenter"",""5"",""17045""
","
","
","""event"",""trial"",""time""
""fullscreenenter"",""5"",""17045""
","
",378.4949999972014,NA,49,NA,NA,3000,1,NA,NA,images/earth.jpg,images/rocket2,images/rocket1,null,images/rocket1,NA,1,real,null,1,NA,NA,NA,sub19
d3-animate-choice,229,921698,0.0-76.0-1.31,TRUE,TRUE,TRUE,TRUE,"""event"",""trial"",""time""
""fullscreenenter"",""5"",""17045""
","
","
","""event"",""trial"",""time""
""fullscreenenter"",""5"",""17045""
","
",1226.024999996298,NA,48,NA,NA,3000,1,NA,NA,images/purpleplanet.jpg,images/alien4,images/alien3,images/rocket1,images/alien4,images/nothing.png,2,real,false,2,rare,0,2020-06-08T19:15:04Z,sub19
two-step-fixation,230,922703,0.0-76.0-2.31,TRUE,TRUE,TRUE,TRUE,"""event"",""trial"",""time""
""fullscreenenter"",""5"",""17045""
","
","
","""event"",""trial"",""time""
""fullscreenenter"",""5"",""17045""
","
",NA,images/earth.jpg,NA,NA,NA,NA,NA,NA,NA,NA,NA,NA,NA,NA,NA,fixation,NA,NA,NA,NA,NA,NA,sub19
d3-animate-choice,231,925060,0.0-76.0-0.32,TRUE,TRUE,TRUE,TRUE,"""event"",""trial"",""time""
""fullscreenenter"",""5"",""17045""
","
","
","""event"",""trial"",""time""
""fullscreenenter"",""5"",""17045""
","
",351.05500000645407,NA,48,NA,NA,3000,1,NA,NA,images/earth.jpg,images/rocket2,images/rocket1,null,images/rocket2,NA,1,real,null,2,NA,NA,NA,sub19
d3-animate-choice,232,928043,0.0-76.0-1.32,TRUE,TRUE,TRUE,TRUE,"""event"",""trial"",""time""
""fullscreenenter"",""5"",""17045""
","
","
","""event"",""trial"",""time""
""fullscreenenter"",""5"",""17045""
","
",976.1450000078185,NA,48,NA,NA,3000,1,NA,NA,images/purpleplanet.jpg,images/alien4,images/alien3,images/rocket2,images/alien4,images/t.png,2,real,true,2,common,1,2020-06-08T19:15:10Z,sub19
two-step-fixation,233,929049,0.0-76.0-2.32,TRUE,TRUE,TRUE,TRUE,"""event"",""trial"",""time""
""fullscreenenter"",""5"",""17045""
","
","
","""event"",""trial"",""time""
""fullscreenenter"",""5"",""17045""
","
",NA,images/earth.jpg,NA,NA,NA,NA,NA,NA,NA,NA,NA,NA,NA,NA,NA,fixation,NA,NA,NA,NA,NA,NA,sub19
d3-animate-choice,234,931467,0.0-76.0-0.33,TRUE,TRUE,TRUE,TRUE,"""event"",""trial"",""time""
""fullscreenenter"",""5"",""17045""
","
","
","""event"",""trial"",""time""
""fullscreenenter"",""5"",""17045""
","
",412.07500000018626,NA,49,NA,NA,3000,1,NA,NA,images/earth.jpg,images/rocket2,images/rocket1,null,images/rocket1,NA,1,real,null,1,NA,NA,NA,sub19
d3-animate-choice,235,934140,0.0-76.0-1.33,TRUE,TRUE,TRUE,TRUE,"""event"",""trial"",""time""
""fullscreenenter"",""5"",""17045""
","
","
","""event"",""trial"",""time""
""fullscreenenter"",""5"",""17045""
","
",666.0699999920325,NA,48,NA,NA,3000,1,NA,NA,images/purpleplanet.jpg,images/alien4,images/alien3,images/rocket1,images/alien4,images/t.png,2,real,false,2,rare,1,2020-06-08T19:15:16Z,sub19
two-step-fixation,236,935145,0.0-76.0-2.33,TRUE,TRUE,TRUE,TRUE,"""event"",""trial"",""time""
""fullscreenenter"",""5"",""17045""
","
","
","""event"",""trial"",""time""
""fullscreenenter"",""5"",""17045""
","
",NA,images/earth.jpg,NA,NA,NA,NA,NA,NA,NA,NA,NA,NA,NA,NA,NA,fixation,NA,NA,NA,NA,NA,NA,sub19
d3-animate-choice,237,937709,0.0-76.0-0.34,TRUE,TRUE,TRUE,TRUE,"""event"",""trial"",""time""
""fullscreenenter"",""5"",""17045""
","
","
","""event"",""trial"",""time""
""fullscreenenter"",""5"",""17045""
","
",555.1999999879627,NA,49,NA,NA,3000,1,NA,NA,images/earth.jpg,images/rocket2,images/rocket1,null,images/rocket1,NA,1,real,null,1,NA,NA,NA,sub19
d3-animate-choice,238,940167,0.0-76.0-1.34,TRUE,TRUE,TRUE,TRUE,"""event"",""trial"",""time""
""fullscreenenter"",""5"",""17045""
","
","
","""event"",""trial"",""time""
""fullscreenenter"",""5"",""17045""
","
",448.9049999974668,NA,48,NA,NA,3000,1,NA,NA,images/purpleplanet.jpg,images/alien4,images/alien3,images/rocket1,images/alien4,images/nothing.png,2,real,false,2,rare,0,2020-06-08T19:15:22Z,sub19
two-step-fixation,239,941176,0.0-76.0-2.34,TRUE,TRUE,TRUE,TRUE,"""event"",""trial"",""time""
""fullscreenenter"",""5"",""17045""
","
","
","""event"",""trial"",""time""
""fullscreenenter"",""5"",""17045""
","
",NA,images/earth.jpg,NA,NA,NA,NA,NA,NA,NA,NA,NA,NA,NA,NA,NA,fixation,NA,NA,NA,NA,NA,NA,sub19
d3-animate-choice,240,943559,0.0-76.0-0.35,TRUE,TRUE,TRUE,TRUE,"""event"",""trial"",""time""
""fullscreenenter"",""5"",""17045""
","
","
","""event"",""trial"",""time""
""fullscreenenter"",""5"",""17045""
","
",373.8699999958044,NA,49,NA,NA,3000,1,NA,NA,images/earth.jpg,images/rocket2,images/rocket1,null,images/rocket1,NA,1,real,null,1,NA,NA,NA,sub19
d3-animate-choice,241,946139,0.0-76.0-1.35,TRUE,TRUE,TRUE,TRUE,"""event"",""trial"",""time""
""fullscreenenter"",""5"",""17045""
","
","
","""event"",""trial"",""time""
""fullscreenenter"",""5"",""17045""
","
",574.6900000085589,NA,48,NA,NA,3000,1,NA,NA,images/purpleplanet.jpg,images/alien4,images/alien3,images/rocket1,images/alien4,images/t.png,2,real,false,2,rare,1,2020-06-08T19:15:28Z,sub19
two-step-fixation,242,947143,0.0-76.0-2.35,TRUE,TRUE,TRUE,TRUE,"""event"",""trial"",""time""
""fullscreenenter"",""5"",""17045""
","
","
","""event"",""trial"",""time""
""fullscreenenter"",""5"",""17045""
","
",NA,images/earth.jpg,NA,NA,NA,NA,NA,NA,NA,NA,NA,NA,NA,NA,NA,fixation,NA,NA,NA,NA,NA,NA,sub19
d3-animate-choice,243,949531,0.0-76.0-0.36,TRUE,TRUE,TRUE,TRUE,"""event"",""trial"",""time""
""fullscreenenter"",""5"",""17045""
","
","
","""event"",""trial"",""time""
""fullscreenenter"",""5"",""17045""
","
",382.964999997057,NA,49,NA,NA,3000,1,NA,NA,images/earth.jpg,images/rocket2,images/rocket1,null,images/rocket1,NA,1,real,null,1,NA,NA,NA,sub19
d3-animate-choice,244,952059,0.0-76.0-1.36,TRUE,TRUE,TRUE,TRUE,"""event"",""trial"",""time""
""fullscreenenter"",""5"",""17045""
","
","
","""event"",""trial"",""time""
""fullscreenenter"",""5"",""17045""
","
",522.5600000121631,NA,48,NA,NA,3000,1,NA,NA,images/redplanet1.jpg,images/alien2,images/alien1,images/rocket1,images/alien2,images/t.png,2,real,true,2,common,1,2020-06-08T19:15:34Z,sub19
two-step-fixation,245,953064,0.0-76.0-2.36,TRUE,TRUE,TRUE,TRUE,"""event"",""trial"",""time""
""fullscreenenter"",""5"",""17045""
","
","
","""event"",""trial"",""time""
""fullscreenenter"",""5"",""17045""
","
",NA,images/earth.jpg,NA,NA,NA,NA,NA,NA,NA,NA,NA,NA,NA,NA,NA,fixation,NA,NA,NA,NA,NA,NA,sub19
d3-animate-choice,246,955525,0.0-76.0-0.37,TRUE,TRUE,TRUE,TRUE,"""event"",""trial"",""time""
""fullscreenenter"",""5"",""17045""
","
","
","""event"",""trial"",""time""
""fullscreenenter"",""5"",""17045""
","
",453.719999990426,NA,49,NA,NA,3000,1,NA,NA,images/earth.jpg,images/rocket2,images/rocket1,null,images/rocket1,NA,1,real,null,1,NA,NA,NA,sub19
d3-animate-choice,247,958027,0.0-76.0-1.37,TRUE,TRUE,TRUE,TRUE,"""event"",""trial"",""time""
""fullscreenenter"",""5"",""17045""
","
","
","""event"",""trial"",""time""
""fullscreenenter"",""5"",""17045""
","
",496.95999998948537,NA,48,NA,NA,3000,1,NA,NA,images/redplanet1.jpg,images/alien2,images/alien1,images/rocket1,images/alien2,images/t.png,2,real,true,2,common,1,2020-06-08T19:15:40Z,sub19
two-step-fixation,248,959032,0.0-76.0-2.37,TRUE,TRUE,TRUE,TRUE,"""event"",""trial"",""time""
""fullscreenenter"",""5"",""17045""
","
","
","""event"",""trial"",""time""
""fullscreenenter"",""5"",""17045""
","
",NA,images/earth.jpg,NA,NA,NA,NA,NA,NA,NA,NA,NA,NA,NA,NA,NA,fixation,NA,NA,NA,NA,NA,NA,sub19
d3-animate-choice,249,961420,0.0-76.0-0.38,TRUE,TRUE,TRUE,TRUE,"""event"",""trial"",""time""
""fullscreenenter"",""5"",""17045""
","
","
","""event"",""trial"",""time""
""fullscreenenter"",""5"",""17045""
","
",382.54500000039116,NA,49,NA,NA,3000,1,NA,NA,images/earth.jpg,images/rocket2,images/rocket1,null,images/rocket1,NA,1,real,null,1,NA,NA,NA,sub19
d3-animate-choice,250,963911,0.0-76.0-1.38,TRUE,TRUE,TRUE,TRUE,"""event"",""trial"",""time""
""fullscreenenter"",""5"",""17045""
","
","
","""event"",""trial"",""time""
""fullscreenenter"",""5"",""17045""
","
",482.3600000090664,NA,48,NA,NA,3000,1,NA,NA,images/purpleplanet.jpg,images/alien4,images/alien3,images/rocket1,images/alien4,images/nothing.png,2,real,false,2,rare,0,2020-06-08T19:15:46Z,sub19
two-step-fixation,251,964918,0.0-76.0-2.38,TRUE,TRUE,TRUE,TRUE,"""event"",""trial"",""time""
""fullscreenenter"",""5"",""17045""
","
","
","""event"",""trial"",""time""
""fullscreenenter"",""5"",""17045""
","
",NA,images/earth.jpg,NA,NA,NA,NA,NA,NA,NA,NA,NA,NA,NA,NA,NA,fixation,NA,NA,NA,NA,NA,NA,sub19
d3-animate-choice,252,967340,0.0-76.0-0.39,TRUE,TRUE,TRUE,TRUE,"""event"",""trial"",""time""
""fullscreenenter"",""5"",""17045""
","
","
","""event"",""trial"",""time""
""fullscreenenter"",""5"",""17045""
","
",415.91999999945983,NA,49,NA,NA,3000,1,NA,NA,images/earth.jpg,images/rocket2,images/rocket1,null,images/rocket1,NA,1,real,null,1,NA,NA,NA,sub19
d3-animate-choice,253,969788,0.0-76.0-1.39,TRUE,TRUE,TRUE,TRUE,"""event"",""trial"",""time""
""fullscreenenter"",""5"",""17045""
","
","
","""event"",""trial"",""time""
""fullscreenenter"",""5"",""17045""
","
",442.06000000122003,NA,48,NA,NA,3000,1,NA,NA,images/redplanet1.jpg,images/alien2,images/alien1,images/rocket1,images/alien2,images/t.png,2,real,true,2,common,1,2020-06-08T19:15:52Z,sub19
two-step-fixation,254,970792,0.0-76.0-2.39,TRUE,TRUE,TRUE,TRUE,"""event"",""trial"",""time""
""fullscreenenter"",""5"",""17045""
","
","
","""event"",""trial"",""time""
""fullscreenenter"",""5"",""17045""
","
",NA,images/earth.jpg,NA,NA,NA,NA,NA,NA,NA,NA,NA,NA,NA,NA,NA,fixation,NA,NA,NA,NA,NA,NA,sub19
d3-animate-choice,255,973260,0.0-76.0-0.40,TRUE,TRUE,TRUE,TRUE,"""event"",""trial"",""time""
""fullscreenenter"",""5"",""17045""
","
","
","""event"",""trial"",""time""
""fullscreenenter"",""5"",""17045""
","
",463.02000001014676,NA,49,NA,NA,3000,1,NA,NA,images/earth.jpg,images/rocket2,images/rocket1,null,images/rocket1,NA,1,real,null,1,NA,NA,NA,sub19
d3-animate-choice,256,976191,0.0-76.0-1.40,TRUE,TRUE,TRUE,TRUE,"""event"",""trial"",""time""
""fullscreenenter"",""5"",""17045""
","
","
","""event"",""trial"",""time""
""fullscreenenter"",""5"",""17045""
","
",922.5399999995716,NA,48,NA,NA,3000,1,NA,NA,images/purpleplanet.jpg,images/alien4,images/alien3,images/rocket1,images/alien4,images/nothing.png,2,real,false,2,rare,0,2020-06-08T19:15:58Z,sub19
two-step-fixation,257,977195,0.0-76.0-2.40,TRUE,TRUE,TRUE,TRUE,"""event"",""trial"",""time""
""fullscreenenter"",""5"",""17045""
","
","
","""event"",""trial"",""time""
""fullscreenenter"",""5"",""17045""
","
",NA,images/earth.jpg,NA,NA,NA,NA,NA,NA,NA,NA,NA,NA,NA,NA,NA,fixation,NA,NA,NA,NA,NA,NA,sub19
d3-animate-choice,258,979853,0.0-76.0-0.41,TRUE,TRUE,TRUE,TRUE,"""event"",""trial"",""time""
""fullscreenenter"",""5"",""17045""
","
","
","""event"",""trial"",""time""
""fullscreenenter"",""5"",""17045""
","
",647.9000000108499,NA,48,NA,NA,3000,1,NA,NA,images/earth.jpg,images/rocket2,images/rocket1,null,images/rocket2,NA,1,real,null,2,NA,NA,NA,sub19
d3-animate-choice,259,982968,0.0-76.0-1.41,TRUE,TRUE,TRUE,TRUE,"""event"",""trial"",""time""
""fullscreenenter"",""5"",""17045""
","
","
","""event"",""trial"",""time""
""fullscreenenter"",""5"",""17045""
","
",1110.3350000048522,NA,48,NA,NA,3000,1,NA,NA,images/redplanet1.jpg,images/alien2,images/alien1,images/rocket2,images/alien2,images/nothing.png,2,real,false,2,rare,0,2020-06-08T19:16:05Z,sub19
two-step-fixation,260,983974,0.0-76.0-2.41,TRUE,TRUE,TRUE,TRUE,"""event"",""trial"",""time""
""fullscreenenter"",""5"",""17045""
","
","
","""event"",""trial"",""time""
""fullscreenenter"",""5"",""17045""
","
",NA,images/earth.jpg,NA,NA,NA,NA,NA,NA,NA,NA,NA,NA,NA,NA,NA,fixation,NA,NA,NA,NA,NA,NA,sub19
d3-animate-choice,261,987110,0.0-76.0-0.42,TRUE,TRUE,TRUE,TRUE,"""event"",""trial"",""time""
""fullscreenenter"",""5"",""17045""
","
","
","""event"",""trial"",""time""
""fullscreenenter"",""5"",""17045""
","
",1130.1400000083959,NA,48,NA,NA,3000,1,NA,NA,images/earth.jpg,images/rocket2,images/rocket1,null,images/rocket2,NA,1,real,null,2,NA,NA,NA,sub19
d3-animate-choice,262,990551,0.0-76.0-1.42,TRUE,TRUE,TRUE,TRUE,"""event"",""trial"",""time""
""fullscreenenter"",""5"",""17045""
","
","
","""event"",""trial"",""time""
""fullscreenenter"",""5"",""17045""
","
",1433.164999994915,NA,49,NA,NA,3000,1,NA,NA,images/redplanet1.jpg,images/alien2,images/alien1,images/rocket2,images/alien1,images/t.png,2,real,false,1,rare,1,2020-06-08T19:16:13Z,sub19
two-step-fixation,263,991555,0.0-76.0-2.42,TRUE,TRUE,TRUE,TRUE,"""event"",""trial"",""time""
""fullscreenenter"",""5"",""17045""
","
","
","""event"",""trial"",""time""
""fullscreenenter"",""5"",""17045""
","
",NA,images/earth.jpg,NA,NA,NA,NA,NA,NA,NA,NA,NA,NA,NA,NA,NA,fixation,NA,NA,NA,NA,NA,NA,sub19
d3-animate-choice,264,993981,0.0-76.0-0.43,TRUE,TRUE,TRUE,TRUE,"""event"",""trial"",""time""
""fullscreenenter"",""5"",""17045""
","
","
","""event"",""trial"",""time""
""fullscreenenter"",""5"",""17045""
","
",420.79499999817926,NA,48,NA,NA,3000,1,NA,NA,images/earth.jpg,images/rocket2,images/rocket1,null,images/rocket2,NA,1,real,null,2,NA,NA,NA,sub19
d3-animate-choice,265,996542,0.0-76.0-1.43,TRUE,TRUE,TRUE,TRUE,"""event"",""trial"",""time""
""fullscreenenter"",""5"",""17045""
","
","
","""event"",""trial"",""time""
""fullscreenenter"",""5"",""17045""
","
",554.1550000052666,NA,49,NA,NA,3000,1,NA,NA,images/purpleplanet.jpg,images/alien4,images/alien3,images/rocket2,images/alien3,images/t.png,2,real,true,1,common,1,2020-06-08T19:16:19Z,sub19
two-step-fixation,266,997546,0.0-76.0-2.43,TRUE,TRUE,TRUE,TRUE,"""event"",""trial"",""time""
""fullscreenenter"",""5"",""17045""
","
","
","""event"",""trial"",""time""
""fullscreenenter"",""5"",""17045""
","
",NA,images/earth.jpg,NA,NA,NA,NA,NA,NA,NA,NA,NA,NA,NA,NA,NA,fixation,NA,NA,NA,NA,NA,NA,sub19
d3-animate-choice,267,999944,0.0-76.0-0.44,TRUE,TRUE,TRUE,TRUE,"""event"",""trial"",""time""
""fullscreenenter"",""5"",""17045""
","
","
","""event"",""trial"",""time""
""fullscreenenter"",""5"",""17045""
","
",390.2749999979278,NA,48,NA,NA,3000,1,NA,NA,images/earth.jpg,images/rocket2,images/rocket1,null,images/rocket2,NA,1,real,null,2,NA,NA,NA,sub19
d3-animate-choice,268,1002382,0.0-76.0-1.44,TRUE,TRUE,TRUE,TRUE,"""event"",""trial"",""time""
""fullscreenenter"",""5"",""17045""
","
","
","""event"",""trial"",""time""
""fullscreenenter"",""5"",""17045""
","
",432.25499999243766,NA,49,NA,NA,3000,1,NA,NA,images/purpleplanet.jpg,images/alien4,images/alien3,images/rocket2,images/alien3,images/nothing.png,2,real,true,1,common,0,2020-06-08T19:16:25Z,sub19
two-step-fixation,269,1003386,0.0-76.0-2.44,TRUE,TRUE,TRUE,TRUE,"""event"",""trial"",""time""
""fullscreenenter"",""5"",""17045""
","
","
","""event"",""trial"",""time""
""fullscreenenter"",""5"",""17045""
","
",NA,images/earth.jpg,NA,NA,NA,NA,NA,NA,NA,NA,NA,NA,NA,NA,NA,fixation,NA,NA,NA,NA,NA,NA,sub19
d3-animate-choice,270,1006577,0.0-76.0-0.45,TRUE,TRUE,TRUE,TRUE,"""event"",""trial"",""time""
""fullscreenenter"",""5"",""17045""
","
","
","""event"",""trial"",""time""
""fullscreenenter"",""5"",""17045""
","
",1184.1450000065379,NA,48,NA,NA,3000,1,NA,NA,images/earth.jpg,images/rocket2,images/rocket1,null,images/rocket2,NA,1,real,null,2,NA,NA,NA,sub19
d3-animate-choice,271,1009080,0.0-76.0-1.45,TRUE,TRUE,TRUE,TRUE,"""event"",""trial"",""time""
""fullscreenenter"",""5"",""17045""
","
","
","""event"",""trial"",""time""
""fullscreenenter"",""5"",""17045""
","
",497.4099999963073,NA,49,NA,NA,3000,1,NA,NA,images/purpleplanet.jpg,images/alien4,images/alien3,images/rocket2,images/alien3,images/t.png,2,real,true,1,common,1,2020-06-08T19:16:31Z,sub19
two-step-fixation,272,1010087,0.0-76.0-2.45,TRUE,TRUE,TRUE,TRUE,"""event"",""trial"",""time""
""fullscreenenter"",""5"",""17045""
","
","
","""event"",""trial"",""time""
""fullscreenenter"",""5"",""17045""
","
",NA,images/earth.jpg,NA,NA,NA,NA,NA,NA,NA,NA,NA,NA,NA,NA,NA,fixation,NA,NA,NA,NA,NA,NA,sub19
d3-animate-choice,273,1012717,0.0-76.0-0.46,TRUE,TRUE,TRUE,TRUE,"""event"",""trial"",""time""
""fullscreenenter"",""5"",""17045""
","
","
","""event"",""trial"",""time""
""fullscreenenter"",""5"",""17045""
","
",623.77999999444,NA,48,NA,NA,3000,1,NA,NA,images/earth.jpg,images/rocket2,images/rocket1,null,images/rocket2,NA,1,real,null,2,NA,NA,NA,sub19
d3-animate-choice,274,1015603,0.0-76.0-1.46,TRUE,TRUE,TRUE,TRUE,"""event"",""trial"",""time""
""fullscreenenter"",""5"",""17045""
","
","
","""event"",""trial"",""time""
""fullscreenenter"",""5"",""17045""
","
",881.3300000037998,NA,48,NA,NA,3000,1,NA,NA,images/purpleplanet.jpg,images/alien4,images/alien3,images/rocket2,images/alien4,images/nothing.png,2,real,true,2,common,0,2020-06-08T19:16:38Z,sub19
two-step-fixation,275,1016610,0.0-76.0-2.46,TRUE,TRUE,TRUE,TRUE,"""event"",""trial"",""time""
""fullscreenenter"",""5"",""17045""
","
","
","""event"",""trial"",""time""
""fullscreenenter"",""5"",""17045""
","
",NA,images/earth.jpg,NA,NA,NA,NA,NA,NA,NA,NA,NA,NA,NA,NA,NA,fixation,NA,NA,NA,NA,NA,NA,sub19
d3-animate-choice,276,1019029,0.0-76.0-0.47,TRUE,TRUE,TRUE,TRUE,"""event"",""trial"",""time""
""fullscreenenter"",""5"",""17045""
","
","
","""event"",""trial"",""time""
""fullscreenenter"",""5"",""17045""
","
",412.87000000011176,NA,48,NA,NA,3000,1,NA,NA,images/earth.jpg,images/rocket2,images/rocket1,null,images/rocket2,NA,1,real,null,2,NA,NA,NA,sub19
d3-animate-choice,277,1021516,0.0-76.0-1.47,TRUE,TRUE,TRUE,TRUE,"""event"",""trial"",""time""
""fullscreenenter"",""5"",""17045""
","
","
","""event"",""trial"",""time""
""fullscreenenter"",""5"",""17045""
","
",480.6899999966845,NA,49,NA,NA,3000,1,NA,NA,images/redplanet1.jpg,images/alien2,images/alien1,images/rocket2,images/alien1,images/t.png,2,real,false,1,rare,1,2020-06-08T19:16:44Z,sub19
two-step-fixation,278,1022520,0.0-76.0-2.47,TRUE,TRUE,TRUE,TRUE,"""event"",""trial"",""time""
""fullscreenenter"",""5"",""17045""
","
","
","""event"",""trial"",""time""
""fullscreenenter"",""5"",""17045""
","
",NA,images/earth.jpg,NA,NA,NA,NA,NA,NA,NA,NA,NA,NA,NA,NA,NA,fixation,NA,NA,NA,NA,NA,NA,sub19
d3-animate-choice,279,1025109,0.0-76.0-0.48,TRUE,TRUE,TRUE,TRUE,"""event"",""trial"",""time""
""fullscreenenter"",""5"",""17045""
","
","
","""event"",""trial"",""time""
""fullscreenenter"",""5"",""17045""
","
",582.9400000076275,NA,49,NA,NA,3000,1,NA,NA,images/earth.jpg,images/rocket2,images/rocket1,null,images/rocket1,NA,1,real,null,1,NA,NA,NA,sub19
d3-animate-choice,280,1027669,0.0-76.0-1.48,TRUE,TRUE,TRUE,TRUE,"""event"",""trial"",""time""
""fullscreenenter"",""5"",""17045""
","
","
","""event"",""trial"",""time""
""fullscreenenter"",""5"",""17045""
","
",553.3649999997579,NA,49,NA,NA,3000,1,NA,NA,images/redplanet1.jpg,images/alien2,images/alien1,images/rocket1,images/alien1,images/t.png,2,real,true,1,common,1,2020-06-08T19:16:50Z,sub19
two-step-fixation,281,1028673,0.0-76.0-2.48,TRUE,TRUE,TRUE,TRUE,"""event"",""trial"",""time""
""fullscreenenter"",""5"",""17045""
","
","
","""event"",""trial"",""time""
""fullscreenenter"",""5"",""17045""
","
",NA,images/earth.jpg,NA,NA,NA,NA,NA,NA,NA,NA,NA,NA,NA,NA,NA,fixation,NA,NA,NA,NA,NA,NA,sub19
d3-animate-choice,282,1031012,0.0-76.0-0.49,TRUE,TRUE,TRUE,TRUE,"""event"",""trial"",""time""
""fullscreenenter"",""5"",""17045""
","
","
","""event"",""trial"",""time""
""fullscreenenter"",""5"",""17045""
","
",333.3500000007916,NA,49,NA,NA,3000,1,NA,NA,images/earth.jpg,images/rocket2,images/rocket1,null,images/rocket1,NA,1,real,null,1,NA,NA,NA,sub19
d3-animate-choice,283,1033497,0.0-76.0-1.49,TRUE,TRUE,TRUE,TRUE,"""event"",""trial"",""time""
""fullscreenenter"",""5"",""17045""
","
","
","""event"",""trial"",""time""
""fullscreenenter"",""5"",""17045""
","
",476.2499999923166,NA,49,NA,NA,3000,1,NA,NA,images/purpleplanet.jpg,images/alien4,images/alien3,images/rocket1,images/alien3,images/nothing.png,2,real,false,1,rare,0,2020-06-08T19:16:56Z,sub19
two-step-fixation,284,1034502,0.0-76.0-2.49,TRUE,TRUE,TRUE,TRUE,"""event"",""trial"",""time""
""fullscreenenter"",""5"",""17045""
","
","
","""event"",""trial"",""time""
""fullscreenenter"",""5"",""17045""
","
",NA,images/earth.jpg,NA,NA,NA,NA,NA,NA,NA,NA,NA,NA,NA,NA,NA,fixation,NA,NA,NA,NA,NA,NA,sub19
audio-button-response-2,285,1045531,0.0-77.0,TRUE,TRUE,TRUE,TRUE,"""event"",""trial"",""time""
""fullscreenenter"",""5"",""17045""
","
","
","""event"",""trial"",""time""
""fullscreenenter"",""5"",""17045""
","
",11025.39500000421,audio/instructions/break_1.wav,NA,0,NA,NA,NA,NA,NA,NA,NA,NA,NA,NA,NA,NA,NA,NA,NA,NA,NA,NA,sub19
